Data from AgNPs_FTO_APTES_UA_2uM_CRN_50uM_R6G_10uM_NaF_0.1M_Addition_RamanShift__24__15-04-15-260.txt Node

Date: Wed Feb 02 15:04:15 GMT 2022
User: TCL
Spectrometer: QEP01345
Trigger mode: 4
Integration Time (sec): 7.000000E0
Scans to average: 10
Electric dark correction enabled: true
Nonlinearity correction enabled: false
Boxcar width: 0
XAxis mode: Raman Shifts
Number of Pixels in Spectrum: 1044
>>>>>Begin Spectral Data<<<<<
46.04893	-0.7125
50.45542	1.3875
54.85868	-1.0125
59.25871	-0.9125
63.6555	94.4875
68.04907	101.2875
72.43941	104.8875
76.82654	114.2875
81.21044	117.1875
85.59113	122.6875
89.96862	128.9875
94.34289	128.4875
98.71396	136.0875
103.08183	143.6875
107.4465	142.3875
111.80798	143.5875
116.16626	150.3875
120.52136	154.9875
124.87327	158.2875
129.222	166.2875
133.56755	178.1875
137.90993	186.8875
142.24913	212.8875
146.58517	234.2875
150.91804	271.5875
155.24774	328.1875
159.57429	405.1875
163.89768	516.9875
168.21792	687.7875
172.53501	933.6875
176.84895	1300.1875
181.15975	1814.6875
185.46741	2541.7875
189.77193	3498.8875
194.07331	4675.2875
198.37157	6017.0875
202.6667	7420.8875
206.9587	8835.7875
211.24758	10195.9875
215.53334	11627.3875
219.81599	13129.9875
224.09553	14803.4875
228.37195	16660.2875
232.64527	18706.3875
236.91549	20808.2875
241.18261	22843.7875
245.44663	24705.0875
249.70755	26343.9875
253.96539	27780.5875
258.22014	29039.4875
262.4718	30207.0875
266.72039	31098.1875
270.96589	31668.9875
275.20832	31908.7875
279.44768	31963.8875
283.68397	31925.6875
287.91719	31982.5875
292.14735	32111.5875
296.37445	32427.8875
300.59849	32828.3875
304.81948	33033.5875
309.03742	32851.1875
313.25231	32235.7875
317.46415	30938.2875
321.67296	29411.9875
325.87872	28121.7875
330.08145	27467.4875
334.28114	27314.4875
338.47781	27604.2875
342.67145	28042.1875
346.86207	28699.3875
351.04966	29626.9875
355.23424	30578.9875
359.4158	31394.5875
363.59435	31731.6875
367.76989	31964.8875
371.94243	32026.4875
376.11196	32016.2875
380.27849	32046.5875
384.44203	32022.8875
388.60257	32052.7875
392.76012	32207.5875
396.91468	32605.5875
401.06626	33225.5875
405.21485	33655.1875
409.36047	33341.7875
413.50311	32393.2875
417.64277	31608.4875
421.77947	31245.8875
425.9132	31293.2875
430.04396	31485.5875
434.17176	31747.1875
438.2966	32093.7875
442.41849	32687.2875
446.53742	33609.9875
450.6534	34643.9875
454.76644	35466.1875
458.87653	35797.3875
462.98368	35734.9875
467.08789	35402.8875
471.18916	35011.5875
475.2875	34769.6875
479.38291	34653.6875
483.4754	34387.3875
487.56496	33746.9875
491.6516	32981.4875
495.73531	32341.5875
499.81612	31978.1875
503.89401	32026.1875
507.96899	32129.2875
512.04106	32071.0875
516.11023	31967.2875
520.1765	31738.6875
524.23987	31389.1875
528.30034	30954.9875
532.35792	30525.9875
536.41261	30125.2875
540.46441	29774.2875
544.51333	29859.6875
548.55936	30363.8875
552.60252	31303.2875
556.64279	32308.5875
560.6802	32960.5875
564.71473	33364.6875
568.7464	34217.4875
572.7752	35089.1875
576.80114	35194.6875
580.82422	34992.7875
584.84444	34868.1875
588.86181	34888.2875
592.87633	35130.2875
596.888	35578.0875
600.89682	36041.4875
604.9028	38000.5875
608.90594	42964.5875
612.90624	48830.8875
616.90371	45996.4875
620.89834	35986.8875
624.89015	31469.3875
628.87913	30813.3875
632.86528	31031.5875
636.84862	31073.1875
640.82913	30483.8875
644.80683	29400.5875
648.78172	28608.8875
652.75379	28427.5875
656.72306	28937.3875
660.68952	29761.8875
664.65319	29696.1875
668.61405	28898.9875
672.57211	28543.9875
676.52738	28527.5875
680.47986	28546.5875
684.42955	28373.1875
688.37646	28310.2875
692.32058	28415.5875
696.26192	28723.3875
700.20048	29075.3875
704.13626	29400.2875
708.06928	29399.1875
711.99952	29189.9875
715.927	29049.1875
719.85171	29005.0875
723.77365	28884.0875
727.69284	28581.3875
731.60928	28266.5875
735.52295	28144.1875
739.43388	28153.8875
743.34206	28256.9875
747.24749	28417.9875
751.15017	28767.2875
755.05012	29437.4875
758.94733	30695.7875
762.8418	33079.3875
766.73354	36849.5875
770.62254	40411.0875
774.50882	41372.7875
778.39237	38919.1875
782.27321	34786.0875
786.15132	31347.4875
790.02671	29363.2875
793.89938	28340.8875
797.76935	27930.2875
801.6366	27826.3875
805.50115	27766.5875
809.36299	27616.2875
813.22213	27498.6875
817.07857	27494.2875
820.93231	27488.3875
824.78336	27403.7875
828.63172	27345.5875
832.47738	27279.9875
836.32036	27244.5875
840.16066	27202.1875
843.99827	27111.8875
847.8332	27071.3875
851.66546	26914.6875
855.49504	26873.4875
859.32195	26815.7875
863.1462	26701.9875
866.96777	26585.4875
870.78668	26524.5875
874.60293	26508.8875
878.41652	26524.2875
882.22745	26597.6875
886.03573	26700.5875
889.84136	26673.7875
893.64433	26511.1875
897.44466	26428.1875
901.24235	26375.1875
905.0374	26308.8875
908.8298	26295.6875
912.61957	26361.5875
916.40671	26703.4875
920.19121	27095.9875
923.97308	27349.9875
927.75233	27347.1875
931.52895	27218.4875
935.30295	26892.4875
939.07433	26239.7875
942.84309	25650.7875
946.60924	25368.3875
950.37278	25256.7875
954.13371	25162.8875
957.89203	25101.7875
961.64774	25099.3875
965.40086	25101.9875
969.15137	24992.9875
972.89929	24777.6875
976.64461	24703.0875
980.38733	24643.6875
984.12747	24765.0875
987.86502	24912.9875
991.59999	25161.1875
995.33237	25557.2875
999.06217	26244.5875
1002.78939	27093.5875
1006.51404	27777.6875
1010.23611	28169.3875
1013.95561	28541.1875
1017.67255	28527.9875
1021.38692	28246.4875
1025.09872	27883.7875
1028.80796	27770.9875
1032.51465	28105.2875
1036.21877	28537.6875
1039.92035	28678.9875
1043.61937	28487.1875
1047.31584	28164.6875
1051.00976	27688.3875
1054.70114	27531.3875
1058.38998	27652.0875
1062.07627	27967.2875
1065.76003	28333.0875
1069.44126	28605.2875
1073.11995	28865.3875
1076.79611	29099.1875
1080.46974	29219.4875
1084.14085	29546.9875
1087.80943	30039.0875
1091.47549	30405.6875
1095.13903	30276.6875
1098.80005	29741.0875
1102.45857	28993.8875
1106.11456	28413.8875
1109.76805	28251.8875
1113.41903	28535.6875
1117.06751	29011.3875
1120.71348	29616.2875
1124.35696	30144.6875
1127.99793	30749.3875
1131.63641	30893.7875
1135.2724	30401.3875
1138.90589	29875.9875
1142.5369	29564.0875
1146.16542	29514.1875
1149.79145	29645.2875
1153.415	30001.5875
1157.03607	30590.7875
1160.65467	31459.0875
1164.27079	32791.7875
1167.88443	34692.5875
1171.49561	37293.4875
1175.10432	40996.8875
1178.71056	45579.0875
1182.31434	49475.2875
1185.91565	51472.8875
1189.51451	51480.6875
1193.11091	50079.2875
1196.70485	47768.3875
1200.29634	45333.7875
1203.88538	43195.6875
1207.47197	41418.3875
1211.05612	39969.3875
1214.63782	38774.0875
1218.21708	38013.0875
1221.79391	37565.0875
1225.36829	37288.8875
1228.94024	36911.8875
1232.50976	36598.0875
1236.07685	36406.7875
1239.6415	36243.2875
1243.20374	36168.8875
1246.76355	36335.6875
1250.32093	36801.4875
1253.8759	37703.4875
1257.42845	38864.7875
1260.97859	40063.6875
1264.52631	41080.4875
1268.07163	42169.0875
1271.61453	43383.7875
1275.15503	44664.6875
1278.69312	45838.2875
1282.22882	46764.6875
1285.76211	47990.0875
1289.29301	49519.8875
1292.82151	51512.3875
1296.34761	53949.1875
1299.87133	57005.7875
1303.39266	60826.5875
1306.9116	65362.3875
1310.42815	70217.1875
1313.94233	73776.8875
1317.45412	74718.0875
1320.96354	73762.4875
1324.47058	72082.5875
1327.97525	70490.8875
1331.47754	69186.8875
1334.97747	68717.6875
1338.47502	68901.0875
1341.97022	69024.1875
1345.46305	68509.6875
1348.95352	67355.5875
1352.44163	66384.6875
1355.92738	66905.1875
1359.41078	69997.9875
1362.89183	73634.6875
1366.37053	72298.3875
1369.84688	65240.1875
1373.32088	57452.6875
1376.79254	52350.7875
1380.26186	50314.6875
1383.72883	50061.6875
1387.19347	50031.2875
1390.65578	50009.9875
1394.11575	50228.8875
1397.57339	51173.5875
1401.0287	52623.9875
1404.48168	53950.8875
1407.93234	54634.4875
1411.38068	54335.3875
1414.82669	52599.6875
1418.27039	50083.4875
1421.71177	47266.3875
1425.15083	44876.5875
1428.58758	43459.2875
1432.02203	43066.5875
1435.45416	43483.2875
1438.88399	44406.6875
1442.31151	45385.6875
1445.73673	46328.7875
1449.15965	47430.1875
1452.58027	48353.2875
1455.9986	48929.5875
1459.41463	49573.1875
1462.82837	50446.9875
1466.23982	51403.9875
1469.64898	52202.9875
1473.05586	52403.6875
1476.46045	52262.7875
1479.86276	51761.7875
1483.26279	51346.4875
1486.66054	51090.2875
1490.05602	51205.8875
1493.44922	51600.1875
1496.84016	52324.5875
1500.22882	53689.1875
1503.61521	55988.3875
1506.99934	59010.9875
1510.38121	62416.0875
1513.76081	64403.5875
1517.13816	63515.4875
1520.51324	60040.7875
1523.88607	56178.5875
1527.25665	53589.9875
1530.62498	52034.2875
1533.99105	51242.1875
1537.35488	50728.2875
1540.71647	50151.3875
1544.07581	49450.6875
1547.4329	48568.8875
1550.78776	47681.2875
1554.14038	47210.7875
1557.49077	47198.3875
1560.83892	47496.3875
1564.18484	47823.4875
1567.52853	48063.9875
1570.86999	48116.6875
1574.20922	48572.9875
1577.54624	48952.8875
1580.88103	48712.2875
1584.2136	48594.7875
1587.54395	49444.0875
1590.87208	51664.4875
1594.19801	54638.2875
1597.52172	57709.7875
1600.84321	58662.4875
1604.16251	56167.0875
1607.47959	51920.9875
1610.79447	47344.8875
1614.10715	43011.0875
1617.41763	39439.2875
1620.7259	36803.4875
1624.03199	35388.2875
1627.33587	35197.8875
1630.63757	36164.2875
1633.93707	38416.2875
1637.23439	41995.1875
1640.52951	46896.0875
1643.82246	52385.6875
1647.11321	57089.7875
1650.40179	59047.9875
1653.68819	56252.0875
1656.97241	49410.2875
1660.25446	41708.7875
1663.53433	35801.2875
1666.81203	31824.8875
1670.08756	29367.9875
1673.36092	27807.3875
1676.63211	26834.8875
1679.90115	26091.1875
1683.16801	25588.7875
1686.43272	25235.1875
1689.69527	24909.2875
1692.95567	24681.7875
1696.2139	24569.4875
1699.46999	24460.9875
1702.72392	24325.6875
1705.97571	24249.1875
1709.22535	24153.7875
1712.47284	24074.8875
1715.71819	24054.0875
1718.96139	23990.9875
1722.20246	23879.8875
1725.44139	23802.9875
1728.67818	23658.8875
1731.91284	23527.0875
1735.14537	23403.1875
1738.37576	23254.3875
1741.60403	23212.3875
1744.83017	23084.0875
1748.05418	23093.5875
1751.27607	23014.4875
1754.49584	22975.1875
1757.71349	22954.2875
1760.92903	22939.9875
1764.14244	22886.9875
1767.35375	22856.1875
1770.56294	22783.6875
1773.77002	22738.9875
1776.97499	22704.1875
1780.17785	22649.0875
1783.37861	22601.7875
1786.57727	22596.1875
1789.77382	22555.6875
1792.96828	22503.7875
1796.16064	22451.1875
1799.3509	22424.6875
1802.53907	22369.9875
1805.72514	22311.6875
1808.90913	22261.6875
1812.09102	22235.4875
1815.27083	22220.4875
1818.44856	22162.8875
1821.6242	22116.1875
1824.79776	22128.3875
1827.96924	22080.1875
1831.13864	22072.2875
1834.30597	22077.7875
1837.47122	22069.8875
1840.6344	22097.8875
1843.7955	22129.9875
1846.95454	22094.5875
1850.11151	22107.2875
1853.26642	22114.5875
1856.41926	22112.9875
1859.57004	22124.2875
1862.71876	22090.6875
1865.86542	22131.8875
1869.01003	22088.1875
1872.15258	22128.7875
1875.29308	22138.0875
1878.43152	22142.3875
1881.56792	22153.1875
1884.70227	22120.5875
1887.83457	22149.6875
1890.96482	22151.8875
1894.09304	22159.0875
1897.21921	22188.5875
1900.34335	22197.3875
1903.46544	22173.3875
1906.58551	22199.2875
1909.70353	22209.6875
1912.81953	22166.1875
1915.93349	22135.7875
1919.04543	22100.7875
1922.15534	22067.1875
1925.26322	22003.4875
1928.36908	21930.0875
1931.47292	21858.5875
1934.57473	21749.2875
1937.67453	21630.7875
1940.77232	21531.9875
1943.86808	21486.2875
1946.96184	21351.4875
1950.05358	21243.6875
1953.14331	21151.5875
1956.23103	21082.9875
1959.31675	21017.2875
1962.40046	20962.6875
1965.48217	20907.8875
1968.56188	20786.9875
1971.63959	20728.5875
1974.7153	20656.6875
1977.78901	20628.3875
1980.86073	20544.7875
1983.93046	20491.1875
1986.99819	20394.1875
1990.06394	20349.4875
1993.1277	20286.6875
1996.18947	20162.2875
1999.24925	20131.0875
2002.30706	20087.8875
2005.36288	20020.7875
2008.41672	20008.3875
2011.46859	19978.7875
2014.51848	19858.0875
2017.56639	19819.0875
2020.61233	19766.4875
2023.6563	19726.8875
2026.6983	19671.2875
2029.73833	19647.5875
2032.7764	19562.0875
2035.8125	19562.9875
2038.84664	19547.1875
2041.87881	19540.8875
2044.90903	19474.7875
2047.93729	19450.2875
2050.96359	19448.0875
2053.98794	19396.9875
2057.01034	19382.3875
2060.03078	19376.2875
2063.04927	19332.4875
2066.06582	19331.6875
2069.08042	19322.6875
2072.09307	19287.2875
2075.10378	19261.5875
2078.11255	19256.4875
2081.11938	19245.4875
2084.12426	19171.3875
2087.12722	19210.0875
2090.12824	19200.2875
2093.12732	19186.9875
2096.12447	19207.6875
2099.11969	19198.0875
2102.11299	19217.3875
2105.10435	19227.1875
2108.09379	19207.5875
2111.08131	19220.5875
2114.0669	19219.9875
2117.05057	19231.6875
2120.03233	19280.9875
2123.01216	19274.0875
2125.99008	19300.7875
2128.96609	19295.9875
2131.94018	19286.9875
2134.91236	19289.5875
2137.88263	19320.0875
2140.851	19310.0875
2143.81746	19345.7875
2146.78201	19345.5875
2149.74466	19316.0875
2152.7054	19344.3875
2155.66425	19301.5875
2158.6212	19321.2875
2161.57625	19327.5875
2164.52941	19278.0875
2167.48067	19292.4875
2170.43004	19261.3875
2173.37752	19251.1875
2176.32311	19251.0875
2179.26681	19255.8875
2182.20863	19239.5875
2185.14856	19235.5875
2188.08661	19263.2875
2191.02278	19252.6875
2193.95707	19268.2875
2196.88948	19232.7875
2199.82001	19249.2875
2202.74867	19175.5875
2205.67545	19169.9875
2208.60037	19201.1875
2211.52341	19117.0875
2214.44458	19151.1875
2217.36388	19117.9875
2220.28132	19119.7875
2223.1969	19079.3875
2226.11061	19021.3875
2229.02246	18962.4875
2231.93245	18913.9875
2234.84058	18890.1875
2237.74686	18830.0875
2240.65128	18846.6875
2243.55385	18819.5875
2246.45456	18836.1875
2249.35343	18804.3875
2252.25044	18750.3875
2255.14561	18714.4875
2258.03893	18733.0875
2260.93041	18666.7875
2263.82004	18637.6875
2266.70783	18603.2875
2269.59378	18516.1875
2272.4779	18480.3875
2275.36017	18418.4875
2278.24061	18388.0875
2281.11922	18334.4875
2283.996	18353.5875
2286.87094	18324.7875
2289.74405	18261.0875
2292.61534	18251.7875
2295.4848	18216.0875
2298.35243	18267.5875
2301.21824	18236.3875
2304.08223	18216.2875
2306.94439	18229.4875
2309.80474	18228.5875
2312.66327	18254.2875
2315.51999	18243.9875
2318.37489	18226.5875
2321.22797	18196.0875
2324.07925	18201.6875
2326.92871	18161.6875
2329.77637	18145.1875
2332.62222	18147.3875
2335.46626	18157.0875
2338.3085	18151.7875
2341.14893	18135.3875
2343.98756	18135.8875
2346.8244	18145.8875
2349.65943	18188.0875
2352.49267	18143.1875
2355.32411	18162.5875
2358.15376	18147.1875
2360.98161	18145.0875
2363.80768	18157.6875
2366.63195	18159.1875
2369.45444	18091.9875
2372.27514	18063.9875
2375.09405	18047.1875
2377.91118	17992.1875
2380.72652	17964.5875
2383.54009	17908.3875
2386.35187	17884.7875
2389.16188	17869.8875
2391.97011	17793.1875
2394.77657	17793.0875
2397.58125	17762.7875
2400.38416	17705.6875
2403.18529	17695.1875
2405.98466	17655.2875
2408.78226	17621.4875
2411.57809	17594.9875
2414.37216	17578.2875
2417.16446	17575.4875
2419.955	17529.7875
2422.74378	17536.4875
2425.5308	17536.5875
2428.31606	17511.6875
2431.09956	17494.7875
2433.88131	17477.9875
2436.6613	17461.1875
2439.43954	17480.4875
2442.21603	17460.2875
2444.99077	17430.0875
2447.76377	17440.4875
2450.53501	17431.1875
2453.30451	17440.4875
2456.07226	17425.1875
2458.83827	17446.8875
2461.60254	17454.4875
2464.36507	17437.5875
2467.12586	17422.1875
2469.88492	17438.2875
2472.64224	17458.1875
2475.39782	17458.5875
2478.15167	17471.1875
2480.90379	17452.9875
2483.65417	17476.6875
2486.40283	17487.7875
2489.14976	17508.9875
2491.89497	17552.4875
2494.63845	17562.3875
2497.3802	17512.0875
2500.12024	17542.0875
2502.85855	17564.7875
2505.59514	17554.7875
2508.33002	17491.1875
2511.06318	17518.0875
2513.79462	17479.8875
2516.52435	17423.5875
2519.25237	17423.7875
2521.97867	17391.0875
2524.70327	17370.8875
2527.42616	17370.2875
2530.14734	17370.4875
2532.86681	17345.0875
2535.58458	17349.0875
2538.30065	17330.5875
2541.01501	17287.4875
2543.72768	17303.6875
2546.43864	17279.8875
2549.14791	17261.2875
2551.85548	17246.4875
2554.56136	17238.1875
2557.26554	17235.2875
2559.96803	17234.0875
2562.66883	17200.3875
2565.36794	17189.5875
2568.06536	17183.5875
2570.7611	17177.9875
2573.45514	17195.1875
2576.14751	17150.5875
2578.83819	17093.4875
2581.52719	17120.1875
2584.21451	17126.0875
2586.90015	17120.9875
2589.58411	17119.9875
2592.2664	17112.1875
2594.94701	17072.3875
2597.62594	17102.1875
2600.30321	17080.2875
2602.9788	17082.2875
2605.65273	17076.1875
2608.32498	17081.5875
2610.99557	17071.8875
2613.66449	17127.0875
2616.33175	17076.5875
2618.99734	17111.6875
2621.66128	17119.7875
2624.32355	17119.6875
2626.98416	17094.7875
2629.64311	17124.9875
2632.30041	17130.5875
2634.95605	17121.9875
2637.61004	17072.2875
2640.26238	17065.0875
2642.91306	17062.0875
2645.56209	17049.6875
2648.20948	17051.5875
2650.85521	17048.4875
2653.4993	17007.7875
2656.14175	17045.1875
2658.78255	17050.9875
2661.42171	17054.5875
2664.05923	17067.6875
2666.6951	17085.9875
2669.32934	17076.1875
2671.96194	17131.7875
2674.59291	17117.4875
2677.22224	17113.7875
2679.84993	17146.4875
2682.476	17095.7875
2685.10043	17109.1875
2687.72324	17066.6875
2690.34441	17082.7875
2692.96396	17090.7875
2695.58188	17094.2875
2698.19818	17079.1875
2700.81285	17065.6875
2703.4259	17102.9875
2706.03733	17143.8875
2708.64714	17094.0875
2711.25533	17110.7875
2713.86191	17084.8875
2716.46687	17130.9875
2719.07021	17144.9875
2721.67194	17174.4875
2724.27206	17197.7875
2726.87057	17223.8875
2729.46747	17193.9875
2732.06276	17196.7875
2734.65644	17142.8875
2737.24852	17182.3875
2739.83899	17131.4875
2742.42786	17143.9875
2745.01513	17116.7875
2747.60079	17131.8875
2750.18486	17128.1875
2752.76733	17136.6875
2755.3482	17121.4875
2757.92747	17155.3875
2760.50515	17159.0875
2763.08123	17139.9875
2765.65573	17145.1875
2768.22863	17144.6875
2770.79994	17105.6875
2773.36967	17126.9875
2775.9378	17123.1875
2778.50435	17117.3875
2781.06932	17055.5875
2783.6327	17089.2875
2786.1945	17087.0875
2788.75471	17089.5875
2791.31335	17052.2875
2793.87041	17043.3875
2796.42589	17005.9875
2798.97979	17020.4875
2801.53212	16935.7875
2804.08288	16949.0875
2806.63206	16918.8875
2809.17967	16887.6875
2811.72571	16848.3875
2814.27018	16864.0875
2816.81308	16840.1875
2819.35442	16801.0875
2821.89419	16777.3875
2824.43239	16766.3875
2826.96904	16745.9875
2829.50412	16768.4875
2832.03763	16729.6875
2834.56959	16751.8875
2837.1	16708.0875
2839.62884	16746.9875
2842.15613	16714.1875
2844.68186	16727.9875
2847.20604	16763.1875
2849.72867	16765.0875
2852.24974	16760.4875
2854.76927	16741.6875
2857.28724	16758.1875
2859.80367	16716.2875
2862.31855	16690.3875
2864.83189	16678.8875
2867.34368	16700.4875
2869.85393	16703.6875
2872.36264	16655.6875
2874.8698	16676.3875
2877.37543	16663.0875
2879.87952	16653.5875
2882.38207	16674.9875
2884.88308	16641.1875
2887.38256	16691.1875
2889.88051	16657.0875
2892.37692	16661.9875
2894.8718	16644.9875
2897.36515	16693.8875
2899.85698	16680.7875
2902.34727	16717.2875
2904.83604	16762.0875
2907.32328	16721.4875
2909.809	16737.1875
2912.29319	16747.0875
2914.77587	16736.1875
2917.25702	16754.5875
2919.73665	16710.0875
2922.21476	16719.7875
2924.69136	16711.5875
2927.16644	16723.1875
2929.64	16718.8875
2932.11205	16722.7875
2934.58258	16662.2875
2937.05161	16652.6875
2939.51912	16661.9875
2941.98513	16622.8875
2944.44962	16543.5875
2946.91261	16461.0875
2949.37409	16514.1875
2951.83407	16478.2875
2954.29254	16465.0875
2956.74951	16434.8875
2959.20498	16410.3875
2961.65895	16382.3875
2964.11142	16393.0875
2966.56239	16329.6875
2969.01186	16306.4875
2971.45984	16271.0875
2973.90632	16239.4875
2976.35131	16181.0875
2978.7948	16129.7875
2981.23681	16108.8875
2983.67732	16083.8875
2986.11635	16027.4875
2988.55388	16008.2875
2990.98993	15997.8875
2993.4245	15942.7875
2995.85758	15926.8875
2998.28917	15886.7875
3000.71928	15853.4875
3003.14791	15847.0875
3005.57506	15794.1875
3008.00073	15743.7875
3010.42493	15738.7875
3012.84764	15690.6875
3015.26888	15668.1875
3017.68865	15659.9875
3020.10694	15636.4875
3022.52376	15615.8875
3024.9391	15563.1875
3027.35298	15529.7875
3029.76539	15532.2875
3032.17632	15515.8875
3034.5858	15490.6875
3036.9938	15483.7875
3039.40034	15465.1875
3041.80542	15440.9875
3044.20903	15405.0875
3046.61118	15391.5875
3049.01187	15355.0875
3051.4111	15309.8875
3053.80888	15280.3875
3056.20519	15248.0875
3058.60005	15224.1875
3060.99345	15184.1875
3063.3854	15159.7875
3065.7759	15105.4875
3068.16494	15055.9875
3070.55254	14995.5875
3072.93868	14937.3875
3075.32338	14906.5875
3077.70662	14880.5875
3080.08842	14807.4875
3082.46878	14817.6875
3084.84769	14767.2875
3087.22515	14758.3875
3089.60118	14785.5875
3091.97576	14777.5875
3094.3489	14766.9875
3096.72061	14729.3875
3099.09087	14727.6875
3101.4597	14685.7875
3103.82709	14705.5875
3106.19305	14678.4875
3108.55757	14641.7875
3110.92066	14594.5875
3113.28232	14544.8875
3115.64255	14510.1875
3118.00134	14447.1875
3120.35871	14425.9875
3122.71466	14391.4875
3125.06917	14391.7875
3127.42226	14373.3875
3129.77393	14343.4875
3132.12417	14325.9875
3134.47299	14343.5875
3136.82039	14307.2875
3139.16636	14283.1875
3141.51092	14277.9875
3143.85406	14281.8875
3146.19579	14280.8875
3148.53609	14274.2875
3150.87499	14293.5875
3153.21246	14302.3875
3155.54853	14303.6875
3157.88318	14281.9875
3160.21642	14244.6875
3162.54826	14269.9875
3164.87868	14265.5875
3167.2077	14239.0875
3169.5353	14227.6875
3171.86151	14225.1875
3174.18631	14214.5875
3176.5097	14187.0875
3178.83169	14174.4875
3181.15228	14164.5875
3183.47147	14126.6875
3185.78926	14115.6875
3188.10565	14127.0875
3190.42065	14155.7875
3192.73424	14118.7875
3195.04645	14104.3875
3197.35725	14101.5875
3199.66667	14093.5875
3201.97469	14121.5875
3204.28132	14098.1875
3206.58656	14111.6875
3208.8904	14082.1875
3211.19287	14079.4875
3213.49394	14106.8875
3215.79363	14098.7875
3218.09193	14071.4875
3220.38884	14072.2875
3222.68438	14107.2875
3224.97853	14048.4875
3227.2713	14045.9875
3229.56269	14022.4875
3231.8527	14037.1875
3234.14133	13977.9875
3236.42858	13975.1875
3238.71446	13938.9875
3240.99896	13941.4875
3243.28209	13925.8875
3245.56384	13931.7875
3247.84423	13895.2875
3250.12324	13878.4875
3252.40088	13870.7875
3254.67715	13850.6875
3256.95205	13843.0875
3259.22558	13834.9875
3261.49775	13793.3875
3263.76855	13724.8875
3266.03799	13730.6875
3268.30606	13711.4875
3270.57277	13695.6875
3272.83812	13651.6875
3275.10211	13655.3875
3277.36474	13593.0875
3279.62601	13609.2875
3281.88593	13593.3875
3284.14448	13630.1875
3286.40168	13604.1875
3288.65753	13567.7875
3290.91202	13551.5875
3293.16516	13504.8875
3295.41695	13496.8875
3297.66738	13403.5875
3299.91647	13331.5875
3302.16421	13270.6875
3304.4106	13186.5875
3306.65564	13128.7875
3308.89933	13048.9875
3311.14169	12970.8875
3313.38269	12874.4875
3315.62236	12803.7875
3317.86068	12682.8875
3320.09766	12534.6875
3322.3333	12456.3875
3324.5676	12438.4875
3326.80056	12221.3875
3329.03219	12182.6875
3331.26248	2.9875
3333.49143	0.4875
3335.71905	-2.4125
