Data from AgNPs_FTO_APTES_UA_2uM_CRN_100uM_R6G_10uM_NaF_0.1M_Addition_RamanShift__17__15-57-55-323.txt Node

Date: Wed Feb 02 15:57:55 GMT 2022
User: TCL
Spectrometer: QEP01345
Trigger mode: 4
Integration Time (sec): 7.000000E0
Scans to average: 10
Electric dark correction enabled: true
Nonlinearity correction enabled: false
Boxcar width: 0
XAxis mode: Raman Shifts
Number of Pixels in Spectrum: 1044
>>>>>Begin Spectral Data<<<<<
46.04893	-0.3
50.45542	-0.9
54.85868	-0.6
59.25871	0.3
63.6555	72.3
68.04907	73.2
72.43941	75.1
76.82654	82.1
81.21044	87.1
85.59113	94.5
89.96862	91
94.34289	95.9
98.71396	102.3
103.08183	106.3
107.4465	108.2
111.80798	109.6
116.16626	111.3
120.52136	114.2
124.87327	116
129.222	121.3
133.56755	131.7
137.90993	137.1
142.24913	152
146.58517	168.5
150.91804	192.8
155.24774	228.4
159.57429	280.7
163.89768	352.1
168.21792	466
172.53501	627
176.84895	876.2
181.15975	1220.1
185.46741	1714.4
189.77193	2337.9
194.07331	3134.3
198.37157	4037.1
202.6667	4984
206.9587	5931.7
211.24758	6864.2
215.53334	7797.3
219.81599	8757.7
224.09553	9839.9
228.37195	11023.3
232.64527	12296
236.91549	13643.7
241.18261	15006.2
245.44663	16300.1
249.70755	17503
253.96539	18548.3
258.22014	19407
262.4718	20144.4
266.72039	20677.7
270.96589	21007.4
275.20832	21150.2
279.44768	21183.3
283.68397	21114
287.91719	21103.9
292.14735	21160.4
296.37445	21312
300.59849	21406.3
304.81948	21400.1
309.03742	21144.2
313.25231	20702.1
317.46415	20074.3
321.67296	19334.8
325.87872	18776.3
330.08145	18471.9
334.28114	18362.6
338.47781	18387.4
342.67145	18571.9
346.86207	18786.3
351.04966	19028.9
355.23424	19289.7
359.4158	19492.9
363.59435	19625.8
367.76989	19744
371.94243	19822.9
376.11196	19918.7
380.27849	19997.8
384.44203	20140
388.60257	20348.1
392.76012	20609.3
396.91468	20880.9
401.06626	21220
405.21485	21391.6
409.36047	21346
413.50311	21053.1
417.64277	20822.4
421.77947	20809.2
425.9132	20893.8
430.04396	21055.8
434.17176	21192.7
438.2966	21366.4
442.41849	21665.4
446.53742	22230.4
450.6534	22900.2
454.76644	23477.6
458.87653	23725.4
462.98368	23758.9
467.08789	23631.7
471.18916	23509.1
475.2875	23520.8
479.38291	23646.8
483.4754	23624.1
487.56496	23251.6
491.6516	22650.1
495.73531	22001.9
499.81612	21590.4
503.89401	21553.8
507.96899	21527.5
512.04106	21447.7
516.11023	21204.3
520.1765	20872.5
524.23987	20567.9
528.30034	20330.1
532.35792	20112.2
536.41261	19961.6
540.46441	19840.9
544.51333	19975.3
548.55936	20376.1
552.60252	20957.1
556.64279	21595.3
560.6802	22065.2
564.71473	22370.6
568.7464	22883.4
572.7752	23536.3
576.80114	24130.4
580.82422	24511
584.84444	24802.6
588.86181	25026.6
592.87633	25150.6
596.888	25117.4
600.89682	24948.9
604.9028	25281.1
608.90594	26459.2
612.90624	27408.5
616.90371	25452.6
620.89834	21747.4
624.89015	20137.4
628.87913	20062.5
632.86528	20298
636.84862	20430.1
640.82913	20186.5
644.80683	19613
648.78172	19149.9
652.75379	18937.7
656.72306	19027.2
660.68952	19203.9
664.65319	19091.7
668.61405	18874.7
672.57211	18832.2
676.52738	18862.5
680.47986	18949.4
684.42955	18858.6
688.37646	18779.8
692.32058	18753
696.26192	18906.9
700.20048	19093.9
704.13626	19282.3
708.06928	19357.5
711.99952	19308
715.927	19207.8
719.85171	19211
723.77365	19147.1
727.69284	18944.6
731.60928	18742.7
735.52295	18635.2
739.43388	18613.3
743.34206	18623.5
747.24749	18719.1
751.15017	18936.7
755.05012	19304.7
758.94733	19982.3
762.8418	21151.8
766.73354	22735.4
770.62254	24142.7
774.50882	24162
778.39237	22860.7
782.27321	21083.7
786.15132	19709
790.02671	18871.9
793.89938	18469.2
797.76935	18315.4
801.6366	18296.8
805.50115	18272
809.36299	18141.1
813.22213	18034.8
817.07857	17993.8
820.93231	17940.6
824.78336	17855.2
828.63172	17725.1
832.47738	17661.3
836.32036	17621
840.16066	17633.2
843.99827	17653.8
847.8332	17558.6
851.66546	17469.1
855.49504	17462.3
859.32195	17463.9
863.1462	17388.8
866.96777	17365.3
870.78668	17301.4
874.60293	17276.1
878.41652	17279.8
882.22745	17312.8
886.03573	17336.3
889.84136	17346.7
893.64433	17305.1
897.44466	17231.8
901.24235	17167.3
905.0374	17079.7
908.8298	17051.4
912.61957	17161.6
916.40671	17394.8
920.19121	17700
923.97308	17834.9
927.75233	17751
931.52895	17531.6
935.30295	17239.7
939.07433	16885.2
942.84309	16601.7
946.60924	16407.8
950.37278	16323.7
954.13371	16332.3
957.89203	16336.3
961.64774	16364.6
965.40086	16349.5
969.15137	16274.3
972.89929	16115.9
976.64461	16005
980.38733	15935.8
984.12747	15945.2
987.86502	16044.3
991.59999	16210.1
995.33237	16384.7
999.06217	16726.2
1002.78939	17134.8
1006.51404	17415.3
1010.23611	17598.8
1013.95561	17715
1017.67255	17790.1
1021.38692	17644.6
1025.09872	17383.5
1028.80796	17301.8
1032.51465	17462.7
1036.21877	17721.1
1039.92035	17824.1
1043.61937	17771.1
1047.31584	17651.8
1051.00976	17505.8
1054.70114	17529
1058.38998	17686.4
1062.07627	17935.5
1065.76003	18183.8
1069.44126	18410.5
1073.11995	18645.8
1076.79611	18788.8
1080.46974	18827.1
1084.14085	18876.5
1087.80943	19010.1
1091.47549	19243.6
1095.13903	19429.5
1098.80005	19249.8
1102.45857	18815.9
1106.11456	18312.7
1109.76805	18105.5
1113.41903	18114.2
1117.06751	18192.8
1120.71348	18425.7
1124.35696	18647.8
1127.99793	18926.3
1131.63641	19132.5
1135.2724	19035.3
1138.90589	19001.3
1142.5369	19041.6
1146.16542	19261.6
1149.79145	19576.7
1153.415	19957.8
1157.03607	20478.6
1160.65467	21146.8
1164.27079	22160.3
1167.88443	23448.2
1171.49561	25021.6
1175.10432	26960.6
1178.71056	29318.2
1182.31434	31550.5
1185.91565	32735.3
1189.51451	32928.2
1193.11091	32378.5
1196.70485	31371.8
1200.29634	30049.5
1203.88538	28952.6
1207.47197	28273.4
1211.05612	27785.4
1214.63782	27209.3
1218.21708	26397.9
1221.79391	25630.4
1225.36829	25067.4
1228.94024	24509.4
1232.50976	23988.2
1236.07685	23606.9
1239.6415	23431.9
1243.20374	23458
1246.76355	23597.4
1250.32093	23965.2
1253.8759	24469.4
1257.42845	25194.7
1260.97859	25916.2
1264.52631	26592.5
1268.07163	27292.8
1271.61453	28072.5
1275.15503	29001.1
1278.69312	30051.9
1282.22882	31086.7
1285.76211	32246.1
1289.29301	33629.8
1292.82151	35499.4
1296.34761	37798.6
1299.87133	40246
1303.39266	42634.4
1306.9116	44763.9
1310.42815	46485.5
1313.94233	47608.4
1317.45412	47915.3
1320.96354	47941.5
1324.47058	47984.9
1327.97525	47991.4
1331.47754	47981.2
1334.97747	47828
1338.47502	47674.9
1341.97022	47253.7
1345.46305	46374.1
1348.95352	45095.1
1352.44163	43704.4
1355.92738	42772.8
1359.41078	42878.5
1362.89183	43155.6
1366.37053	42245
1369.84688	39550.8
1373.32088	36229.9
1376.79254	33914
1380.26186	33257.4
1383.72883	33504.4
1387.19347	34089.2
1390.65578	34463.1
1394.11575	34840.7
1397.57339	35518.6
1401.0287	36354.5
1404.48168	36932.1
1407.93234	36737.3
1411.38068	35571.3
1414.82669	33827.5
1418.27039	31713.5
1421.71177	29735.3
1425.15083	28216.6
1428.58758	27312.1
1432.02203	27253.4
1435.45416	27920.9
1438.88399	28936.8
1442.31151	29977.8
1445.73673	30799.6
1449.15965	31699.2
1452.58027	32472.2
1455.9986	33003.6
1459.41463	33504.2
1462.82837	33987.8
1466.23982	34491.7
1469.64898	34782.7
1473.05586	34807.8
1476.46045	34512
1479.86276	33932
1483.26279	33219.6
1486.66054	32660.9
1490.05602	32419.8
1493.44922	32449.7
1496.84016	32664.2
1500.22882	33163
1503.61521	33960.2
1506.99934	35057.4
1510.38121	36003.1
1513.76081	36379.9
1517.13816	35920.8
1520.51324	35069.8
1523.88607	34421.8
1527.25665	34134.4
1530.62498	34197.5
1533.99105	34193.8
1537.35488	33976.1
1540.71647	33416.9
1544.07581	32524
1547.4329	31511.5
1550.78776	30684
1554.14038	30085.2
1557.49077	29871.7
1560.83892	29706.2
1564.18484	29723.9
1567.52853	29781.2
1570.86999	29946.3
1574.20922	30557.9
1577.54624	31267
1580.88103	31801.5
1584.2136	32475
1587.54395	33513.3
1590.87208	34971.9
1594.19801	36669.1
1597.52172	38250.2
1600.84321	38457.5
1604.16251	36674.6
1607.47959	33765.4
1610.79447	30664.1
1614.10715	27782.6
1617.41763	25359.3
1620.7259	23654.7
1624.03199	22648.1
1627.33587	22522
1630.63757	23164.7
1633.93707	24856.9
1637.23439	27581
1640.52951	31411.6
1643.82246	35793.1
1647.11321	39169
1650.40179	39970.4
1653.68819	37446.2
1656.97241	32687.3
1660.25446	27609.5
1663.53433	23536.6
1666.81203	20686.8
1670.08756	18867.3
1673.36092	17682.2
1676.63211	16933
1679.90115	16448.7
1683.16801	16021.8
1686.43272	15728.7
1689.69527	15517.8
1692.95567	15331.4
1696.2139	15246.2
1699.46999	15137.5
1702.72392	15027.6
1705.97571	14947
1709.22535	14833.7
1712.47284	14805.1
1715.71819	14756.7
1718.96139	14656.2
1722.20246	14612.7
1725.44139	14503.5
1728.67818	14428.9
1731.91284	14322.3
1735.14537	14235.1
1738.37576	14176.1
1741.60403	14131
1744.83017	14063.9
1748.05418	14067.9
1751.27607	14081.9
1754.49584	14018.1
1757.71349	14031.7
1760.92903	14012.8
1764.14244	13982.6
1767.35375	13945.7
1770.56294	13895.1
1773.77002	13819.4
1776.97499	13748.7
1780.17785	13703.4
1783.37861	13683.8
1786.57727	13620.5
1789.77382	13587.3
1792.96828	13568.7
1796.16064	13526.1
1799.3509	13483.6
1802.53907	13457.4
1805.72514	13378.4
1808.90913	13372.6
1812.09102	13337.2
1815.27083	13300.7
1818.44856	13285.5
1821.6242	13246.4
1824.79776	13239.9
1827.96924	13239.1
1831.13864	13199.4
1834.30597	13212.3
1837.47122	13220.6
1840.6344	13177.6
1843.7955	13212.2
1846.95454	13195.6
1850.11151	13169.5
1853.26642	13164.8
1856.41926	13175.3
1859.57004	13153.3
1862.71876	13119.9
1865.86542	13115.5
1869.01003	13102.6
1872.15258	13071.7
1875.29308	13059.3
1878.43152	13057.8
1881.56792	13054.7
1884.70227	13036.4
1887.83457	13006.9
1890.96482	12991
1894.09304	12977.7
1897.21921	12976.3
1900.34335	12938.7
1903.46544	12945.8
1906.58551	12891.1
1909.70353	12878.5
1912.81953	12867.5
1915.93349	12845.3
1919.04543	12794.4
1922.15534	12783.1
1925.26322	12750.1
1928.36908	12696
1931.47292	12691.5
1934.57473	12630.4
1937.67453	12585.3
1940.77232	12576.2
1943.86808	12524.5
1946.96184	12498.6
1950.05358	12462.3
1953.14331	12414.2
1956.23103	12356.5
1959.31675	12338
1962.40046	12311.1
1965.48217	12233.3
1968.56188	12219.7
1971.63959	12212.9
1974.7153	12108.2
1977.78901	12112
1980.86073	12046.5
1983.93046	12004.1
1986.99819	11959.7
1990.06394	11929.7
1993.1277	11902.5
1996.18947	11836.7
1999.24925	11826.4
2002.30706	11774.8
2005.36288	11733
2008.41672	11718.3
2011.46859	11680.8
2014.51848	11613.5
2017.56639	11573.4
2020.61233	11569.6
2023.6563	11543.6
2026.6983	11507.7
2029.73833	11499
2032.7764	11462.4
2035.8125	11456.2
2038.84664	11436.6
2041.87881	11438
2044.90903	11410.3
2047.93729	11370
2050.96359	11395.6
2053.98794	11343.9
2057.01034	11351.5
2060.03078	11348
2063.04927	11320.2
2066.06582	11306.3
2069.08042	11316.8
2072.09307	11276.8
2075.10378	11276.9
2078.11255	11262.1
2081.11938	11237.6
2084.12426	11218.7
2087.12722	11225.6
2090.12824	11224.7
2093.12732	11252.3
2096.12447	11249.7
2099.11969	11226.3
2102.11299	11236.7
2105.10435	11238.6
2108.09379	11264.3
2111.08131	11244.8
2114.0669	11207.5
2117.05057	11251.7
2120.03233	11259.9
2123.01216	11276.4
2125.99008	11270.6
2128.96609	11265.6
2131.94018	11250.8
2134.91236	11259.4
2137.88263	11245.9
2140.851	11255.9
2143.81746	11287.4
2146.78201	11285.8
2149.74466	11283.9
2152.7054	11258.4
2155.66425	11247.3
2158.6212	11260.4
2161.57625	11264.1
2164.52941	11264
2167.48067	11226.7
2170.43004	11226.8
2173.37752	11202
2176.32311	11212.6
2179.26681	11201.3
2182.20863	11201.2
2185.14856	11211.6
2188.08661	11200.5
2191.02278	11180
2193.95707	11198.4
2196.88948	11178
2199.82001	11164.9
2202.74867	11156
2205.67545	11128.9
2208.60037	11124.1
2211.52341	11103.4
2214.44458	11088.8
2217.36388	11076.4
2220.28132	11054.1
2223.1969	11035.3
2226.11061	10993.4
2229.02246	11008.8
2231.93245	10967.5
2234.84058	10944.7
2237.74686	10920.7
2240.65128	10909.2
2243.55385	10903.4
2246.45456	10882.3
2249.35343	10836.6
2252.25044	10820.5
2255.14561	10813.1
2258.03893	10786.8
2260.93041	10774.9
2263.82004	10740
2266.70783	10721.1
2269.59378	10693.2
2272.4779	10668.5
2275.36017	10608.2
2278.24061	10611.3
2281.11922	10561.9
2283.996	10579.9
2286.87094	10542.1
2289.74405	10547.4
2292.61534	10481.8
2295.4848	10487.6
2298.35243	10508.2
2301.21824	10483.8
2304.08223	10490.4
2306.94439	10499.5
2309.80474	10485.8
2312.66327	10475.9
2315.51999	10464.4
2318.37489	10457.7
2321.22797	10457.8
2324.07925	10437.3
2326.92871	10429.2
2329.77637	10409.9
2332.62222	10413.8
2335.46626	10391.8
2338.3085	10395.4
2341.14893	10394.1
2343.98756	10386.1
2346.8244	10395.1
2349.65943	10422.9
2352.49267	10379.7
2355.32411	10377.2
2358.15376	10401.4
2360.98161	10374.4
2363.80768	10357.5
2366.63195	10352.7
2369.45444	10325.4
2372.27514	10332.9
2375.09405	10304.5
2377.91118	10287.3
2380.72652	10280.7
2383.54009	10259.4
2386.35187	10244.1
2389.16188	10194.9
2391.97011	10195.9
2394.77657	10154.7
2397.58125	10153.4
2400.38416	10137.5
2403.18529	10117.3
2405.98466	10109.4
2408.78226	10084.8
2411.57809	10070.7
2414.37216	10069.7
2417.16446	10064.9
2419.955	10010
2422.74378	10044.4
2425.5308	10049.9
2428.31606	10013.8
2431.09956	10011.4
2433.88131	9992.7
2436.6613	9977.2
2439.43954	9988
2442.21603	9990.1
2444.99077	9970.5
2447.76377	9972.6
2450.53501	9972.8
2453.30451	9985.5
2456.07226	9952.2
2458.83827	9961.8
2461.60254	9983
2464.36507	9978.1
2467.12586	9991.5
2469.88492	9971.2
2472.64224	9983.4
2475.39782	9951.6
2478.15167	9978.7
2480.90379	9968.2
2483.65417	9962.8
2486.40283	9973.4
2489.14976	10002.7
2491.89497	9999.8
2494.63845	9994.4
2497.3802	9980.2
2500.12024	9955.1
2502.85855	9962.1
2505.59514	9989.5
2508.33002	9989.3
2511.06318	9951.7
2513.79462	9966.8
2516.52435	9958.1
2519.25237	9955.7
2521.97867	9927
2524.70327	9931.9
2527.42616	9901.2
2530.14734	9901.7
2532.86681	9900.3
2535.58458	9906.4
2538.30065	9882.9
2541.01501	9882.7
2543.72768	9863.9
2546.43864	9846.4
2549.14791	9822.2
2551.85548	9826
2554.56136	9825.7
2557.26554	9815.3
2559.96803	9790.1
2562.66883	9798.5
2565.36794	9795.3
2568.06536	9781.3
2570.7611	9800
2573.45514	9754.3
2576.14751	9782.2
2578.83819	9753.2
2581.52719	9756.8
2584.21451	9763.6
2586.90015	9748.7
2589.58411	9759.8
2592.2664	9737.8
2594.94701	9732.4
2597.62594	9717.8
2600.30321	9704.2
2602.9788	9695.9
2605.65273	9699
2608.32498	9718.2
2610.99557	9694.6
2613.66449	9718.7
2616.33175	9702.7
2618.99734	9732.4
2621.66128	9707.3
2624.32355	9723.4
2626.98416	9710.7
2629.64311	9702.7
2632.30041	9706.8
2634.95605	9714.9
2637.61004	9722.1
2640.26238	9689.3
2642.91306	9696.4
2645.56209	9672.2
2648.20948	9697.9
2650.85521	9680.4
2653.4993	9682
2656.14175	9674.6
2658.78255	9699.3
2661.42171	9696.5
2664.05923	9724.7
2666.6951	9710.2
2669.32934	9725.7
2671.96194	9715.1
2674.59291	9703.7
2677.22224	9722.2
2679.84993	9729.8
2682.476	9712.8
2685.10043	9698.8
2687.72324	9674.2
2690.34441	9681
2692.96396	9674.7
2695.58188	9674.1
2698.19818	9668.1
2700.81285	9697.7
2703.4259	9711.9
2706.03733	9751.2
2708.64714	9726.3
2711.25533	9712.1
2713.86191	9723.3
2716.46687	9748.3
2719.07021	9747.3
2721.67194	9752.1
2724.27206	9725.4
2726.87057	9752.6
2729.46747	9759.8
2732.06276	9753.3
2734.65644	9757.1
2737.24852	9750
2739.83899	9735.6
2742.42786	9758.7
2745.01513	9703.7
2747.60079	9709.6
2750.18486	9726
2752.76733	9722.7
2755.3482	9721.4
2757.92747	9736.9
2760.50515	9742.5
2763.08123	9760.6
2765.65573	9723.5
2768.22863	9764.7
2770.79994	9726.6
2773.36967	9734.4
2775.9378	9748
2778.50435	9753.1
2781.06932	9731.1
2783.6327	9740.7
2786.1945	9719.5
2788.75471	9725.5
2791.31335	9703
2793.87041	9705
2796.42589	9681.3
2798.97979	9672.6
2801.53212	9678.6
2804.08288	9658.9
2806.63206	9637.8
2809.17967	9616.6
2811.72571	9599.6
2814.27018	9626.1
2816.81308	9572.4
2819.35442	9550
2821.89419	9510.4
2824.43239	9516
2826.96904	9527.9
2829.50412	9501.3
2832.03763	9499.4
2834.56959	9525.1
2837.1	9514.5
2839.62884	9506.6
2842.15613	9490.4
2844.68186	9512.4
2847.20604	9573
2849.72867	9562.6
2852.24974	9577.7
2854.76927	9564.3
2857.28724	9547.4
2859.80367	9520.1
2862.31855	9529
2864.83189	9525.1
2867.34368	9491
2869.85393	9498.6
2872.36264	9492
2874.8698	9510.5
2877.37543	9497.4
2879.87952	9509.3
2882.38207	9501.9
2884.88308	9506.9
2887.38256	9497.9
2889.88051	9507.9
2892.37692	9509.2
2894.8718	9493.9
2897.36515	9524.4
2899.85698	9536.1
2902.34727	9548.6
2904.83604	9553.2
2907.32328	9571.7
2909.809	9591.3
2912.29319	9571.7
2914.77587	9579
2917.25702	9566
2919.73665	9569.3
2922.21476	9576.1
2924.69136	9588.4
2927.16644	9592.9
2929.64	9575.9
2932.11205	9578.3
2934.58258	9555.7
2937.05161	9556
2939.51912	9558.3
2941.98513	9537.1
2944.44962	9496.8
2946.91261	9446.6
2949.37409	9458.2
2951.83407	9428
2954.29254	9434
2956.74951	9390.9
2959.20498	9411.4
2961.65895	9374.2
2964.11142	9349.1
2966.56239	9350.7
2969.01186	9346.7
2971.45984	9286.8
2973.90632	9315.6
2976.35131	9250.6
2978.7948	9221.1
2981.23681	9189.8
2983.67732	9194
2986.11635	9146.4
2988.55388	9126.6
2990.98993	9142.7
2993.4245	9123.1
2995.85758	9078.3
2998.28917	9052.3
3000.71928	9029.3
3003.14791	9000.8
3005.57506	9004.8
3008.00073	8988.4
3010.42493	8972.5
3012.84764	8927.3
3015.26888	8951.3
3017.68865	8918.2
3020.10694	8909.9
3022.52376	8871.1
3024.9391	8859.3
3027.35298	8844.6
3029.76539	8852.8
3032.17632	8831.9
3034.5858	8828.8
3036.9938	8840.8
3039.40034	8819.7
3041.80542	8829.6
3044.20903	8777.2
3046.61118	8799.8
3049.01187	8790
3051.4111	8748.1
3053.80888	8712.1
3056.20519	8710.1
3058.60005	8703.4
3060.99345	8700.2
3063.3854	8631.6
3065.7759	8645.6
3068.16494	8616.2
3070.55254	8570.9
3072.93868	8553
3075.32338	8542.7
3077.70662	8531.5
3080.08842	8494.4
3082.46878	8506.9
3084.84769	8469.1
3087.22515	8504.4
3089.60118	8472.1
3091.97576	8469.6
3094.3489	8459.9
3096.72061	8461.8
3099.09087	8456.4
3101.4597	8444.7
3103.82709	8447.2
3106.19305	8413.6
3108.55757	8424.7
3110.92066	8384.9
3113.28232	8362.8
3115.64255	8333.8
3118.00134	8330.9
3120.35871	8302.9
3122.71466	8278.9
3125.06917	8299.7
3127.42226	8258.7
3129.77393	8238.1
3132.12417	8258.2
3134.47299	8250.7
3136.82039	8236
3139.16636	8241.5
3141.51092	8233
3143.85406	8249.9
3146.19579	8251.3
3148.53609	8227.3
3150.87499	8272.9
3153.21246	8265
3155.54853	8279.8
3157.88318	8252.8
3160.21642	8262.3
3162.54826	8257.9
3164.87868	8257.4
3167.2077	8238.8
3169.5353	8262
3171.86151	8264.9
3174.18631	8246
3176.5097	8241.3
3178.83169	8226.1
3181.15228	8243.7
3183.47147	8195.2
3185.78926	8242.7
3188.10565	8203
3190.42065	8217.6
3192.73424	8207.9
3195.04645	8210.8
3197.35725	8194.7
3199.66667	8204.8
3201.97469	8210.5
3204.28132	8168.2
3206.58656	8203.4
3208.8904	8207.4
3211.19287	8197.3
3213.49394	8211.7
3215.79363	8220.4
3218.09193	8209.3
3220.38884	8194.2
3222.68438	8226.5
3224.97853	8199.1
3227.2713	8190
3229.56269	8172
3231.8527	8169.2
3234.14133	8168
3236.42858	8142.7
3238.71446	8143.5
3240.99896	8121.4
3243.28209	8119.3
3245.56384	8124.9
3247.84423	8130.1
3250.12324	8094.1
3252.40088	8106.4
3254.67715	8073.6
3256.95205	8079.6
3259.22558	8077
3261.49775	8056
3263.76855	8028.1
3266.03799	8012.7
3268.30606	7978.1
3270.57277	7983.4
3272.83812	7972.6
3275.10211	7951
3277.36474	7929.8
3279.62601	7953.8
3281.88593	7952.8
3284.14448	7959.2
3286.40168	7937.4
3288.65753	7955.7
3290.91202	7921.4
3293.16516	7904.8
3295.41695	7864.9
3297.66738	7821.1
3299.91647	7783.8
3302.16421	7745.6
3304.4106	7709.7
3306.65564	7682.4
3308.89933	7608.4
3311.14169	7572.5
3313.38269	7525.1
3315.62236	7490.6
3317.86068	7422.7
3320.09766	7346.9
3322.3333	7283.1
3324.5676	7285.6
3326.80056	7180.3
3329.03219	7127.7
3331.26248	1.5
3333.49143	0.5
3335.71905	-1.2
