Data from AgNPs_FTO_APTES_UA_2uM_CRN_10uM_R6G_10uM_NaF_0.1M_Addition_RamanShift__5__13-23-55-143.txt Node

Date: Wed Feb 02 13:23:55 GMT 2022
User: TCL
Spectrometer: QEP01345
Trigger mode: 4
Integration Time (sec): 7.000000E0
Scans to average: 10
Electric dark correction enabled: true
Nonlinearity correction enabled: false
Boxcar width: 0
XAxis mode: Raman Shifts
Number of Pixels in Spectrum: 1044
>>>>>Begin Spectral Data<<<<<
46.04893	-0.2125
50.45542	-0.6125
54.85868	-1.1125
59.25871	-0.2125
63.6555	92.9875
68.04907	102.3875
72.43941	104.9875
76.82654	113.7875
81.21044	114.0875
85.59113	122.2875
89.96862	122.6875
94.34289	123.8875
98.71396	130.1875
103.08183	135.8875
107.4465	137.2875
111.80798	142.3875
116.16626	146.1875
120.52136	149.1875
124.87327	160.3875
129.222	165.4875
133.56755	181.8875
137.90993	194.3875
142.24913	211.6875
146.58517	241.9875
150.91804	278.2875
155.24774	337.5875
159.57429	422.7875
163.89768	538.2875
168.21792	709.3875
172.53501	977.6875
176.84895	1355.0875
181.15975	1906.8875
185.46741	2676.4875
189.77193	3685.9875
194.07331	4914.3875
198.37157	6333.8875
202.6667	7813.4875
206.9587	9281.6875
211.24758	10763.9875
215.53334	12244.9875
219.81599	13812.3875
224.09553	15512.1875
228.37195	17433.0875
232.64527	19551.8875
236.91549	21697.3875
241.18261	23847.0875
245.44663	25852.5875
249.70755	27568.1875
253.96539	29099.0875
258.22014	30435.8875
262.4718	31427.0875
266.72039	32241.9875
270.96589	32620.3875
275.20832	32626.0875
279.44768	32380.0875
283.68397	32052.6875
287.91719	31787.6875
292.14735	31661.9875
296.37445	31699.0875
300.59849	31830.4875
304.81948	32053.9875
309.03742	32141.0875
313.25231	31946.9875
317.46415	31399.7875
321.67296	30656.9875
325.87872	30023.2875
330.08145	29658.4875
334.28114	29589.2875
338.47781	29698.4875
342.67145	29958.4875
346.86207	30396.4875
351.04966	30956.8875
355.23424	31568.1875
359.4158	32140.9875
363.59435	32517.6875
367.76989	32874.1875
371.94243	33062.5875
376.11196	33165.1875
380.27849	33313.0875
384.44203	33527.6875
388.60257	33772.2875
392.76012	34215.1875
396.91468	34692.4875
401.06626	35271.1875
405.21485	35672.6875
409.36047	35538.5875
413.50311	35184.4875
417.64277	35066.1875
421.77947	35209.0875
425.9132	35333.5875
430.04396	35484.6875
434.17176	35656.1875
438.2966	35818.8875
442.41849	36396.6875
446.53742	37393.4875
450.6534	38626.9875
454.76644	39390.8875
458.87653	39645.4875
462.98368	39265.8875
467.08789	38621.4875
471.18916	37930.5875
475.2875	37183.0875
479.38291	36838.2875
483.4754	36638.2875
487.56496	36290.2875
491.6516	35781.0875
495.73531	35261.3875
499.81612	34946.1875
503.89401	35108.6875
507.96899	35226.5875
512.04106	35058.0875
516.11023	34745.6875
520.1765	34285.9875
524.23987	34028.6875
528.30034	33807.0875
532.35792	33516.7875
536.41261	32995.0875
540.46441	32582.4875
544.51333	32477.9875
548.55936	32903.3875
552.60252	33640.7875
556.64279	34540.7875
560.6802	35328.1875
564.71473	35768.4875
568.7464	36394.1875
572.7752	37453.0875
576.80114	38612.5875
580.82422	39916.3875
584.84444	41672.0875
588.86181	43755.0875
592.87633	45255.2875
596.888	44753.1875
600.89682	42662.7875
604.9028	42121.3875
608.90594	44838.2875
612.90624	47840.1875
616.90371	44775.4875
620.89834	37774.8875
624.89015	34514.0875
628.87913	34142.2875
632.86528	34168.7875
636.84862	33844.6875
640.82913	33133.6875
644.80683	32242.6875
648.78172	31737.0875
652.75379	31796.8875
656.72306	32214.4875
660.68952	32702.9875
664.65319	32436.4875
668.61405	31803.2875
672.57211	31726.6875
676.52738	31917.2875
680.47986	31937.5875
684.42955	31630.1875
688.37646	31513.6875
692.32058	31808.1875
696.26192	32345.2875
700.20048	32998.2875
704.13626	33260.2875
708.06928	33185.7875
711.99952	32943.2875
715.927	32990.8875
719.85171	33272.9875
723.77365	33159.5875
727.69284	32556.3875
731.60928	32059.1875
735.52295	31817.3875
739.43388	31811.8875
743.34206	31927.8875
747.24749	32221.2875
751.15017	32566.2875
755.05012	33174.6875
758.94733	34274.9875
762.8418	35871.4875
766.73354	38268.1875
770.62254	40422.3875
774.50882	40635.8875
778.39237	38757.5875
782.27321	36161.8875
786.15132	34068.8875
790.02671	32765.1875
793.89938	32219.2875
797.76935	32044.9875
801.6366	31989.5875
805.50115	31919.6875
809.36299	31675.2875
813.22213	31429.5875
817.07857	31182.4875
820.93231	31014.2875
824.78336	30887.3875
828.63172	30784.0875
832.47738	30770.0875
836.32036	30887.0875
840.16066	31111.2875
843.99827	31308.0875
847.8332	31137.9875
851.66546	30960.5875
855.49504	30855.5875
859.32195	30834.7875
863.1462	30698.9875
866.96777	30567.7875
870.78668	30468.6875
874.60293	30440.6875
878.41652	30477.1875
882.22745	30615.2875
886.03573	30712.8875
889.84136	30722.4875
893.64433	30579.1875
897.44466	30410.2875
901.24235	30283.5875
905.0374	30228.4875
908.8298	30187.8875
912.61957	30342.6875
916.40671	30648.7875
920.19121	31188.7875
923.97308	31675.4875
927.75233	31911.9875
931.52895	31596.0875
935.30295	31096.8875
939.07433	30484.5875
942.84309	30009.1875
946.60924	29869.9875
950.37278	29806.7875
954.13371	29743.4875
957.89203	29620.9875
961.64774	29611.4875
965.40086	29615.0875
969.15137	29566.4875
972.89929	29434.0875
976.64461	29336.5875
980.38733	29413.9875
984.12747	29511.2875
987.86502	29815.6875
991.59999	30260.7875
995.33237	30775.7875
999.06217	31819.5875
1002.78939	33042.2875
1006.51404	33867.1875
1010.23611	34306.5875
1013.95561	34591.0875
1017.67255	34537.0875
1021.38692	34064.7875
1025.09872	33564.5875
1028.80796	33816.9875
1032.51465	35034.8875
1036.21877	36278.9875
1039.92035	36739.1875
1043.61937	36280.6875
1047.31584	35208.5875
1051.00976	34020.2875
1054.70114	33348.8875
1058.38998	33096.5875
1062.07627	33114.0875
1065.76003	33245.6875
1069.44126	33590.6875
1073.11995	34140.5875
1076.79611	34668.0875
1080.46974	34953.0875
1084.14085	35216.9875
1087.80943	35633.7875
1091.47549	35957.9875
1095.13903	35916.1875
1098.80005	35342.5875
1102.45857	34521.2875
1106.11456	33803.8875
1109.76805	33499.1875
1113.41903	33493.3875
1117.06751	33631.1875
1120.71348	33883.2875
1124.35696	34225.4875
1127.99793	34647.9875
1131.63641	34959.7875
1135.2724	34826.1875
1138.90589	34770.7875
1142.5369	34972.1875
1146.16542	35178.8875
1149.79145	35483.5875
1153.415	35939.2875
1157.03607	36649.8875
1160.65467	37962.0875
1164.27079	40034.4875
1167.88443	42474.6875
1171.49561	44942.1875
1175.10432	47982.0875
1178.71056	51992.7875
1182.31434	55828.7875
1185.91565	57706.4875
1189.51451	57219.4875
1193.11091	55316.1875
1196.70485	53167.7875
1200.29634	51110.9875
1203.88538	49791.7875
1207.47197	49147.7875
1211.05612	48602.3875
1214.63782	47756.7875
1218.21708	46533.0875
1221.79391	45318.7875
1225.36829	44415.3875
1228.94024	43547.2875
1232.50976	42591.7875
1236.07685	41799.7875
1239.6415	41392.5875
1243.20374	41438.5875
1246.76355	41866.0875
1250.32093	42760.4875
1253.8759	43927.6875
1257.42845	45363.8875
1260.97859	46842.3875
1264.52631	48471.0875
1268.07163	50177.7875
1271.61453	51983.3875
1275.15503	53886.5875
1278.69312	55762.3875
1282.22882	57610.0875
1285.76211	59622.1875
1289.29301	61938.7875
1292.82151	64804.4875
1296.34761	68590.9875
1299.87133	73330.3875
1303.39266	78374.1875
1306.9116	82964.8875
1310.42815	86147.9875
1313.94233	87159.1875
1317.45412	85875.5875
1320.96354	83671.2875
1324.47058	81768.7875
1327.97525	80415.9875
1331.47754	79547.0875
1334.97747	78611.0875
1338.47502	77332.5875
1341.97022	75357.7875
1345.46305	72957.5875
1348.95352	71329.3875
1352.44163	71453.2875
1355.92738	73953.0875
1359.41078	78276.1875
1362.89183	81552.3875
1366.37053	80835.8875
1369.84688	74643.3875
1373.32088	66061.9875
1376.79254	59824.8875
1380.26186	57717.7875
1383.72883	57888.9875
1387.19347	58026.2875
1390.65578	57385.5875
1394.11575	57048.1875
1397.57339	57789.3875
1401.0287	59024.5875
1404.48168	60213.6875
1407.93234	60370.5875
1411.38068	59401.5875
1414.82669	57355.3875
1418.27039	54911.9875
1421.71177	52299.2875
1425.15083	50159.3875
1428.58758	49235.6875
1432.02203	49860.4875
1435.45416	51618.8875
1438.88399	53477.2875
1442.31151	54819.1875
1445.73673	55556.4875
1449.15965	55976.1875
1452.58027	55906.2875
1455.9986	55434.1875
1459.41463	55295.6875
1462.82837	55896.9875
1466.23982	57211.8875
1469.64898	58518.5875
1473.05586	59390.6875
1476.46045	59661.1875
1479.86276	59419.8875
1483.26279	58786.6875
1486.66054	58274.8875
1490.05602	58464.7875
1493.44922	58854.6875
1496.84016	59186.9875
1500.22882	59544.9875
1503.61521	60436.7875
1506.99934	61604.8875
1510.38121	62666.8875
1513.76081	62856.1875
1517.13816	61891.9875
1520.51324	60246.7875
1523.88607	59054.8875
1527.25665	58787.8875
1530.62498	58988.6875
1533.99105	58790.3875
1537.35488	58147.3875
1540.71647	56908.7875
1544.07581	55301.6875
1547.4329	53663.1875
1550.78776	52294.2875
1554.14038	51188.6875
1557.49077	50541.2875
1560.83892	50082.1875
1564.18484	49814.9875
1567.52853	49790.2875
1570.86999	50136.3875
1574.20922	51132.9875
1577.54624	52127.5875
1580.88103	53019.0875
1584.2136	54312.7875
1587.54395	56977.9875
1590.87208	61102.6875
1594.19801	65832.3875
1597.52172	69708.0875
1600.84321	70200.2875
1604.16251	66073.6875
1607.47959	59383.3875
1610.79447	52740.3875
1614.10715	47245.4875
1617.41763	43260.4875
1620.7259	40852.8875
1624.03199	39860.6875
1627.33587	40233.2875
1630.63757	41942.5875
1633.93707	45038.1875
1637.23439	50283.9875
1640.52951	57579.1875
1643.82246	66305.0875
1647.11321	72620.5875
1650.40179	72913.2875
1653.68819	66269.5875
1656.97241	56193.8875
1660.25446	46988.9875
1663.53433	40511.4875
1666.81203	36433.4875
1670.08756	33889.5875
1673.36092	32359.9875
1676.63211	31329.6875
1679.90115	30639.4875
1683.16801	30103.5875
1686.43272	29737.3875
1689.69527	29460.2875
1692.95567	29203.5875
1696.2139	29070.3875
1699.46999	28990.9875
1702.72392	28880.7875
1705.97571	28812.6875
1709.22535	28707.6875
1712.47284	28630.2875
1715.71819	28614.2875
1718.96139	28529.2875
1722.20246	28415.5875
1725.44139	28325.8875
1728.67818	28133.2875
1731.91284	27940.4875
1735.14537	27791.9875
1738.37576	27658.3875
1741.60403	27590.6875
1744.83017	27477.1875
1748.05418	27433.7875
1751.27607	27408.2875
1754.49584	27351.6875
1757.71349	27330.1875
1760.92903	27307.0875
1764.14244	27246.8875
1767.35375	27249.6875
1770.56294	27196.1875
1773.77002	27128.0875
1776.97499	27146.2875
1780.17785	27007.9875
1783.37861	26990.7875
1786.57727	26950.8875
1789.77382	26903.2875
1792.96828	26879.8875
1796.16064	26839.9875
1799.3509	26827.0875
1802.53907	26766.9875
1805.72514	26686.1875
1808.90913	26615.1875
1812.09102	26552.2875
1815.27083	26563.5875
1818.44856	26543.5875
1821.6242	26484.7875
1824.79776	26489.6875
1827.96924	26419.7875
1831.13864	26478.7875
1834.30597	26500.5875
1837.47122	26482.0875
1840.6344	26499.7875
1843.7955	26514.9875
1846.95454	26509.5875
1850.11151	26503.5875
1853.26642	26496.3875
1856.41926	26507.8875
1859.57004	26475.1875
1862.71876	26445.3875
1865.86542	26439.8875
1869.01003	26406.9875
1872.15258	26357.8875
1875.29308	26382.6875
1878.43152	26349.0875
1881.56792	26353.2875
1884.70227	26328.6875
1887.83457	26296.9875
1890.96482	26313.4875
1894.09304	26281.0875
1897.21921	26267.9875
1900.34335	26187.2875
1903.46544	26151.9875
1906.58551	26151.5875
1909.70353	26092.8875
1912.81953	25984.2875
1915.93349	25965.0875
1919.04543	25901.7875
1922.15534	25888.0875
1925.26322	25786.5875
1928.36908	25749.7875
1931.47292	25720.2875
1934.57473	25620.7875
1937.67453	25574.1875
1940.77232	25528.4875
1943.86808	25460.9875
1946.96184	25393.6875
1950.05358	25306.5875
1953.14331	25265.1875
1956.23103	25185.4875
1959.31675	25117.0875
1962.40046	25039.0875
1965.48217	25044.6875
1968.56188	24964.8875
1971.63959	24884.6875
1974.7153	24838.7875
1977.78901	24780.3875
1980.86073	24653.1875
1983.93046	24595.9875
1986.99819	24521.3875
1990.06394	24474.8875
1993.1277	24405.9875
1996.18947	24353.4875
1999.24925	24281.7875
2002.30706	24171.6875
2005.36288	24114.4875
2008.41672	24054.1875
2011.46859	23997.4875
2014.51848	23956.1875
2017.56639	23901.3875
2020.61233	23875.1875
2023.6563	23842.9875
2026.6983	23796.2875
2029.73833	23788.7875
2032.7764	23703.8875
2035.8125	23757.0875
2038.84664	23721.8875
2041.87881	23699.1875
2044.90903	23622.4875
2047.93729	23589.6875
2050.96359	23585.4875
2053.98794	23572.1875
2057.01034	23541.8875
2060.03078	23551.4875
2063.04927	23511.1875
2066.06582	23540.7875
2069.08042	23495.4875
2072.09307	23460.3875
2075.10378	23442.8875
2078.11255	23415.1875
2081.11938	23427.4875
2084.12426	23407.0875
2087.12722	23397.5875
2090.12824	23398.4875
2093.12732	23436.3875
2096.12447	23403.8875
2099.11969	23462.6875
2102.11299	23447.9875
2105.10435	23452.5875
2108.09379	23417.2875
2111.08131	23473.3875
2114.0669	23494.6875
2117.05057	23532.4875
2120.03233	23531.3875
2123.01216	23548.3875
2125.99008	23569.4875
2128.96609	23611.6875
2131.94018	23627.7875
2134.91236	23628.8875
2137.88263	23716.9875
2140.851	23720.7875
2143.81746	23711.7875
2146.78201	23726.9875
2149.74466	23760.9875
2152.7054	23702.8875
2155.66425	23701.4875
2158.6212	23686.6875
2161.57625	23685.8875
2164.52941	23682.8875
2167.48067	23686.3875
2170.43004	23677.3875
2173.37752	23625.1875
2176.32311	23652.8875
2179.26681	23701.7875
2182.20863	23733.3875
2185.14856	23738.3875
2188.08661	23742.6875
2191.02278	23759.0875
2193.95707	23742.7875
2196.88948	23711.8875
2199.82001	23735.5875
2202.74867	23766.7875
2205.67545	23772.1875
2208.60037	23670.3875
2211.52341	23705.2875
2214.44458	23718.1875
2217.36388	23700.4875
2220.28132	23670.2875
2223.1969	23603.1875
2226.11061	23605.8875
2229.02246	23559.5875
2231.93245	23554.9875
2234.84058	23486.2875
2237.74686	23479.9875
2240.65128	23465.2875
2243.55385	23405.1875
2246.45456	23374.4875
2249.35343	23363.6875
2252.25044	23361.9875
2255.14561	23302.5875
2258.03893	23280.0875
2260.93041	23213.0875
2263.82004	23150.6875
2266.70783	23053.7875
2269.59378	23043.5875
2272.4779	22996.8875
2275.36017	22928.4875
2278.24061	22909.5875
2281.11922	22868.0875
2283.996	22859.5875
2286.87094	22879.2875
2289.74405	22783.2875
2292.61534	22839.9875
2295.4848	22805.3875
2298.35243	22874.6875
2301.21824	22843.4875
2304.08223	22892.2875
2306.94439	22951.3875
2309.80474	22924.1875
2312.66327	22917.9875
2315.51999	22906.0875
2318.37489	22946.3875
2321.22797	22878.8875
2324.07925	22883.2875
2326.92871	22876.5875
2329.77637	22874.8875
2332.62222	22859.9875
2335.46626	22837.4875
2338.3085	22828.9875
2341.14893	22858.1875
2343.98756	22897.9875
2346.8244	22904.4875
2349.65943	22880.8875
2352.49267	22858.6875
2355.32411	22865.2875
2358.15376	22838.4875
2360.98161	22827.2875
2363.80768	22754.8875
2366.63195	22726.3875
2369.45444	22686.1875
2372.27514	22653.4875
2375.09405	22688.5875
2377.91118	22609.7875
2380.72652	22587.5875
2383.54009	22558.3875
2386.35187	22535.8875
2389.16188	22504.3875
2391.97011	22515.9875
2394.77657	22456.7875
2397.58125	22424.9875
2400.38416	22421.6875
2403.18529	22385.1875
2405.98466	22358.6875
2408.78226	22335.7875
2411.57809	22335.3875
2414.37216	22274.8875
2417.16446	22265.6875
2419.955	22235.6875
2422.74378	22251.4875
2425.5308	22234.1875
2428.31606	22256.1875
2431.09956	22236.2875
2433.88131	22183.4875
2436.6613	22216.3875
2439.43954	22212.0875
2442.21603	22139.6875
2444.99077	22149.9875
2447.76377	22115.5875
2450.53501	22155.7875
2453.30451	22175.4875
2456.07226	22173.1875
2458.83827	22166.6875
2461.60254	22157.6875
2464.36507	22225.1875
2467.12586	22198.8875
2469.88492	22212.3875
2472.64224	22196.8875
2475.39782	22206.2875
2478.15167	22259.9875
2480.90379	22252.8875
2483.65417	22245.7875
2486.40283	22272.7875
2489.14976	22295.6875
2491.89497	22291.7875
2494.63845	22351.7875
2497.3802	22345.6875
2500.12024	22369.2875
2502.85855	22332.9875
2505.59514	22318.6875
2508.33002	22323.6875
2511.06318	22334.3875
2513.79462	22271.0875
2516.52435	22283.3875
2519.25237	22274.4875
2521.97867	22251.1875
2524.70327	22287.9875
2527.42616	22257.9875
2530.14734	22232.7875
2532.86681	22233.1875
2535.58458	22221.5875
2538.30065	22208.3875
2541.01501	22250.0875
2543.72768	22173.0875
2546.43864	22218.2875
2549.14791	22119.2875
2551.85548	22143.3875
2554.56136	22170.5875
2557.26554	22169.0875
2559.96803	22172.1875
2562.66883	22171.4875
2565.36794	22154.3875
2568.06536	22127.2875
2570.7611	22123.1875
2573.45514	22115.1875
2576.14751	22159.1875
2578.83819	22135.9875
2581.52719	22134.9875
2584.21451	22111.2875
2586.90015	22141.0875
2589.58411	22093.1875
2592.2664	22129.0875
2594.94701	22117.9875
2597.62594	22090.8875
2600.30321	22068.4875
2602.9788	22064.9875
2605.65273	22017.1875
2608.32498	22053.1875
2610.99557	22065.6875
2613.66449	22081.8875
2616.33175	22056.1875
2618.99734	22070.8875
2621.66128	22082.8875
2624.32355	22108.9875
2626.98416	22038.7875
2629.64311	22057.6875
2632.30041	22077.1875
2634.95605	22075.0875
2637.61004	22064.7875
2640.26238	22031.0875
2642.91306	21994.8875
2645.56209	21970.5875
2648.20948	21940.3875
2650.85521	21997.5875
2653.4993	21993.0875
2656.14175	21979.1875
2658.78255	22028.3875
2661.42171	22003.2875
2664.05923	22059.7875
2666.6951	22064.8875
2669.32934	22123.6875
2671.96194	22102.2875
2674.59291	22117.2875
2677.22224	22089.6875
2679.84993	22113.1875
2682.476	22069.8875
2685.10043	22069.8875
2687.72324	22056.7875
2690.34441	22049.2875
2692.96396	22050.0875
2695.58188	22086.9875
2698.19818	22031.6875
2700.81285	22052.2875
2703.4259	22070.7875
2706.03733	22117.4875
2708.64714	22113.2875
2711.25533	22142.0875
2713.86191	22112.9875
2716.46687	22088.7875
2719.07021	22129.2875
2721.67194	22162.3875
2724.27206	22182.7875
2726.87057	22209.6875
2729.46747	22189.9875
2732.06276	22226.0875
2734.65644	22194.2875
2737.24852	22239.5875
2739.83899	22171.6875
2742.42786	22177.2875
2745.01513	22195.7875
2747.60079	22205.3875
2750.18486	22229.5875
2752.76733	22247.0875
2755.3482	22223.0875
2757.92747	22243.9875
2760.50515	22220.9875
2763.08123	22282.3875
2765.65573	22210.6875
2768.22863	22203.1875
2770.79994	22177.0875
2773.36967	22217.6875
2775.9378	22211.8875
2778.50435	22206.0875
2781.06932	22213.2875
2783.6327	22200.4875
2786.1945	22179.4875
2788.75471	22182.5875
2791.31335	22140.5875
2793.87041	22087.8875
2796.42589	22031.4875
2798.97979	22091.0875
2801.53212	22059.2875
2804.08288	22041.1875
2806.63206	21984.8875
2809.17967	21959.2875
2811.72571	21929.3875
2814.27018	21871.4875
2816.81308	21891.5875
2819.35442	21817.1875
2821.89419	21778.1875
2824.43239	21789.1875
2826.96904	21814.1875
2829.50412	21777.5875
2832.03763	21748.7875
2834.56959	21765.9875
2837.1	21758.2875
2839.62884	21735.3875
2842.15613	21722.2875
2844.68186	21762.2875
2847.20604	21784.9875
2849.72867	21796.8875
2852.24974	21814.0875
2854.76927	21802.3875
2857.28724	21780.5875
2859.80367	21784.5875
2862.31855	21747.0875
2864.83189	21712.5875
2867.34368	21656.4875
2869.85393	21679.9875
2872.36264	21673.8875
2874.8698	21646.5875
2877.37543	21707.4875
2879.87952	21702.5875
2882.38207	21723.6875
2884.88308	21718.0875
2887.38256	21765.4875
2889.88051	21752.3875
2892.37692	21796.7875
2894.8718	21805.6875
2897.36515	21832.7875
2899.85698	21842.5875
2902.34727	21845.8875
2904.83604	21885.3875
2907.32328	21909.5875
2909.809	21877.5875
2912.29319	21866.8875
2914.77587	21824.6875
2917.25702	21817.8875
2919.73665	21822.2875
2922.21476	21862.3875
2924.69136	21842.0875
2927.16644	21862.2875
2929.64	21831.0875
2932.11205	21873.3875
2934.58258	21768.8875
2937.05161	21812.7875
2939.51912	21808.7875
2941.98513	21809.6875
2944.44962	21782.4875
2946.91261	21692.2875
2949.37409	21713.9875
2951.83407	21700.8875
2954.29254	21687.7875
2956.74951	21638.9875
2959.20498	21620.3875
2961.65895	21615.9875
2964.11142	21585.1875
2966.56239	21546.3875
2969.01186	21574.7875
2971.45984	21507.1875
2973.90632	21453.8875
2976.35131	21415.2875
2978.7948	21374.2875
2981.23681	21336.7875
2983.67732	21318.2875
2986.11635	21284.4875
2988.55388	21195.8875
2990.98993	21150.9875
2993.4245	21104.6875
2995.85758	21066.1875
2998.28917	21041.6875
3000.71928	21039.7875
3003.14791	20993.0875
3005.57506	20998.2875
3008.00073	20927.2875
3010.42493	20933.9875
3012.84764	20841.6875
3015.26888	20884.5875
3017.68865	20830.2875
3020.10694	20787.0875
3022.52376	20769.6875
3024.9391	20743.6875
3027.35298	20664.5875
3029.76539	20645.9875
3032.17632	20609.8875
3034.5858	20618.9875
3036.9938	20589.0875
3039.40034	20609.8875
3041.80542	20598.8875
3044.20903	20578.5875
3046.61118	20571.0875
3049.01187	20520.6875
3051.4111	20508.8875
3053.80888	20506.5875
3056.20519	20440.1875
3058.60005	20360.5875
3060.99345	20316.1875
3063.3854	20323.7875
3065.7759	20271.5875
3068.16494	20234.5875
3070.55254	20137.6875
3072.93868	20156.1875
3075.32338	20082.2875
3077.70662	20077.8875
3080.08842	20017.0875
3082.46878	20005.7875
3084.84769	19964.0875
3087.22515	19998.9875
3089.60118	19969.0875
3091.97576	19968.8875
3094.3489	19906.6875
3096.72061	19915.1875
3099.09087	19953.8875
3101.4597	19901.5875
3103.82709	19928.0875
3106.19305	19898.3875
3108.55757	19866.4875
3110.92066	19775.7875
3113.28232	19754.2875
3115.64255	19685.4875
3118.00134	19657.0875
3120.35871	19648.0875
3122.71466	19606.6875
3125.06917	19597.3875
3127.42226	19541.4875
3129.77393	19570.0875
3132.12417	19519.5875
3134.47299	19548.7875
3136.82039	19522.8875
3139.16636	19530.9875
3141.51092	19545.0875
3143.85406	19536.4875
3146.19579	19554.1875
3148.53609	19479.0875
3150.87499	19508.7875
3153.21246	19517.2875
3155.54853	19549.5875
3157.88318	19502.9875
3160.21642	19530.7875
3162.54826	19484.5875
3164.87868	19485.6875
3167.2077	19452.8875
3169.5353	19447.6875
3171.86151	19435.1875
3174.18631	19416.1875
3176.5097	19456.3875
3178.83169	19448.1875
3181.15228	19463.2875
3183.47147	19389.1875
3185.78926	19426.4875
3188.10565	19402.0875
3190.42065	19384.3875
3192.73424	19392.0875
3195.04645	19359.6875
3197.35725	19373.2875
3199.66667	19358.2875
3201.97469	19410.1875
3204.28132	19343.3875
3206.58656	19338.0875
3208.8904	19356.3875
3211.19287	19359.5875
3213.49394	19393.2875
3215.79363	19367.5875
3218.09193	19353.8875
3220.38884	19331.4875
3222.68438	19366.5875
3224.97853	19332.8875
3227.2713	19313.1875
3229.56269	19285.1875
3231.8527	19249.2875
3234.14133	19236.6875
3236.42858	19200.2875
3238.71446	19176.8875
3240.99896	19157.0875
3243.28209	19208.1875
3245.56384	19161.6875
3247.84423	19185.0875
3250.12324	19153.9875
3252.40088	19143.8875
3254.67715	19083.3875
3256.95205	19055.9875
3259.22558	19081.7875
3261.49775	19043.2875
3263.76855	19003.2875
3266.03799	18932.8875
3268.30606	18929.7875
3270.57277	18907.7875
3272.83812	18894.5875
3275.10211	18836.2875
3277.36474	18886.8875
3279.62601	18893.4875
3281.88593	18821.2875
3284.14448	18872.0875
3286.40168	18888.4875
3288.65753	18811.7875
3290.91202	18794.8875
3293.16516	18742.9875
3295.41695	18689.2875
3297.66738	18631.0875
3299.91647	18581.4875
3302.16421	18422.3875
3304.4106	18374.1875
3306.65564	18271.4875
3308.89933	18188.8875
3311.14169	18056.6875
3313.38269	17935.9875
3315.62236	17819.5875
3317.86068	17674.0875
3320.09766	17505.0875
3322.3333	17349.8875
3324.5676	17383.0875
3326.80056	17124.6875
3329.03219	17013.9875
3331.26248	3.9875
3333.49143	0.3875
3335.71905	-1.4125
