Data from AgNPs_FTO_APTES_UA_2uM_CRN_2uM_R6G_10uM_NaF_0.1M_Addition_RamanShift__12__12-12-45-060.txt Node

Date: Wed Feb 02 12:12:45 GMT 2022
User: TCL
Spectrometer: QEP01345
Trigger mode: 4
Integration Time (sec): 7.000000E0
Scans to average: 10
Electric dark correction enabled: true
Nonlinearity correction enabled: false
Boxcar width: 0
XAxis mode: Raman Shifts
Number of Pixels in Spectrum: 1044
>>>>>Begin Spectral Data<<<<<
46.04893	0.3375
50.45542	-0.1625
54.85868	-0.8625
59.25871	0.1375
63.6555	109.2375
68.04907	114.1375
72.43941	115.7375
76.82654	125.4375
81.21044	128.6375
85.59113	136.2375
89.96862	136.8375
94.34289	144.3375
98.71396	149.2375
103.08183	154.0375
107.4465	158.0375
111.80798	160.1375
116.16626	167.0375
120.52136	175.2375
124.87327	182.6375
129.222	191.2375
133.56755	211.6375
137.90993	227.1375
142.24913	255.9375
146.58517	286.9375
150.91804	340.1375
155.24774	411.6375
159.57429	515.5375
163.89768	667.2375
168.21792	890.2375
172.53501	1225.1375
176.84895	1714.8375
181.15975	2409.5375
185.46741	3401.4375
189.77193	4677.3375
194.07331	6264.6375
198.37157	8098.8375
202.6667	10003.1375
206.9587	11893.6375
211.24758	13775.5375
215.53334	15604.0375
219.81599	17537.6375
224.09553	19697.2375
228.37195	22030.3375
232.64527	24649.5375
236.91549	27358.1375
241.18261	30168.2375
245.44663	32787.4375
249.70755	35175.2375
253.96539	37334.7375
258.22014	39075.1375
262.4718	40404.2375
266.72039	41280.2375
270.96589	41734.0375
275.20832	41809.2375
279.44768	41456.7375
283.68397	41085.4375
287.91719	40732.6375
292.14735	40485.5375
296.37445	40307.6375
300.59849	40224.3375
304.81948	40261.1375
309.03742	40272.7375
313.25231	40085.1375
317.46415	39536.0375
321.67296	38718.8375
325.87872	38048.5375
330.08145	37686.7375
334.28114	37557.7375
338.47781	37739.8375
342.67145	38038.8375
346.86207	38549.2375
351.04966	39040.7375
355.23424	39597.5375
359.4158	40114.9375
363.59435	40530.7375
367.76989	40802.8375
371.94243	41002.1375
376.11196	41023.4375
380.27849	41024.6375
384.44203	41033.3375
388.60257	41383.1375
392.76012	41828.6375
396.91468	42483.4375
401.06626	43245.3375
405.21485	43670.2375
409.36047	43563.0375
413.50311	43033.2375
417.64277	42796.7375
421.77947	43018.9375
425.9132	43214.4375
430.04396	43481.8375
434.17176	43657.2375
438.2966	43796.6375
442.41849	44135.0375
446.53742	44967.6375
450.6534	45768.9375
454.76644	46392.1375
458.87653	46604.6375
462.98368	46618.6375
467.08789	46425.5375
471.18916	46026.6375
475.2875	45570.4375
479.38291	45373.1375
483.4754	45352.9375
487.56496	45053.9375
491.6516	44565.1375
495.73531	44005.2375
499.81612	43545.5375
503.89401	43679.6375
507.96899	43806.0375
512.04106	43851.7375
516.11023	43655.8375
520.1765	43205.6375
524.23987	42717.1375
528.30034	42254.1375
532.35792	41807.1375
536.41261	41469.9375
540.46441	41084.9375
544.51333	41110.4375
548.55936	41561.0375
552.60252	42283.3375
556.64279	43169.2375
560.6802	43842.7375
564.71473	44393.1375
568.7464	45287.6375
572.7752	46733.8375
576.80114	48687.3375
580.82422	50612.0375
584.84444	52386.0375
588.86181	54495.2375
592.87633	56335.5375
596.888	56036.2375
600.89682	53279.6375
604.9028	51721.7375
608.90594	53110.4375
612.90624	54980.8375
616.90371	51794.1375
620.89834	45597.5375
624.89015	42889.6375
628.87913	42788.2375
632.86528	43287.4375
636.84862	43254.8375
640.82913	42449.4375
644.80683	41298.5375
648.78172	40584.2375
652.75379	40499.0375
656.72306	40803.9375
660.68952	41248.0375
664.65319	41089.7375
668.61405	40636.0375
672.57211	40535.4375
676.52738	40642.0375
680.47986	40566.8375
684.42955	40425.5375
688.37646	40254.3375
692.32058	40468.0375
696.26192	40891.7375
700.20048	41375.7375
704.13626	41762.3375
708.06928	42014.2375
711.99952	41960.8375
715.927	41834.5375
719.85171	41770.6375
723.77365	41421.1375
727.69284	40795.2375
731.60928	40220.7375
735.52295	39882.6375
739.43388	39865.6375
743.34206	39927.2375
747.24749	40167.7375
751.15017	40665.3375
755.05012	41389.6375
758.94733	42494.2375
762.8418	44224.9375
766.73354	46684.4375
770.62254	48879.7375
774.50882	48877.2375
778.39237	46925.9375
782.27321	44455.5375
786.15132	42416.8375
790.02671	41091.1375
793.89938	40272.3375
797.76935	39902.9375
801.6366	39687.3375
805.50115	39522.9375
809.36299	39433.1375
813.22213	39246.6375
817.07857	39075.4375
820.93231	39041.6375
824.78336	38893.2375
828.63172	38687.2375
832.47738	38545.5375
836.32036	38486.9375
840.16066	38484.1375
843.99827	38491.8375
847.8332	38397.4375
851.66546	38490.6375
855.49504	38596.9375
859.32195	38608.1375
863.1462	38496.5375
866.96777	38411.8375
870.78668	38443.9375
874.60293	38485.2375
878.41652	38494.2375
882.22745	38614.2375
886.03573	38750.3375
889.84136	38792.2375
893.64433	38732.8375
897.44466	38668.4375
901.24235	38609.9375
905.0374	38612.4375
908.8298	38636.9375
912.61957	38700.5375
916.40671	39082.9375
920.19121	39633.7375
923.97308	40151.3375
927.75233	40092.1375
931.52895	39651.7375
935.30295	38841.6375
939.07433	38092.3375
942.84309	37491.1375
946.60924	37162.2375
950.37278	36994.5375
954.13371	36964.1375
957.89203	36911.5375
961.64774	36974.4375
965.40086	36917.5375
969.15137	36830.9375
972.89929	36574.1375
976.64461	36383.4375
980.38733	36255.4375
984.12747	36177.7375
987.86502	36278.3375
991.59999	36453.6375
995.33237	36662.4375
999.06217	36991.7375
1002.78939	37576.1375
1006.51404	38210.0375
1010.23611	38869.7375
1013.95561	39308.0375
1017.67255	39346.7375
1021.38692	39014.5375
1025.09872	38442.5375
1028.80796	37951.2375
1032.51465	37728.7375
1036.21877	37741.9375
1039.92035	37910.2375
1043.61937	38058.0375
1047.31584	38256.8375
1051.00976	38423.4375
1054.70114	38606.7375
1058.38998	38890.8375
1062.07627	39282.8375
1065.76003	39858.7375
1069.44126	40425.2375
1073.11995	41185.9375
1076.79611	41713.5375
1080.46974	41956.7375
1084.14085	42171.1375
1087.80943	42503.3375
1091.47549	42937.6375
1095.13903	43246.5375
1098.80005	42837.9375
1102.45857	41767.1375
1106.11456	40740.0375
1109.76805	40141.9375
1113.41903	39858.7375
1117.06751	39855.3375
1120.71348	40115.1375
1124.35696	40445.4375
1127.99793	40823.6375
1131.63641	41248.8375
1135.2724	41249.9375
1138.90589	41217.7375
1142.5369	41360.7375
1146.16542	41716.5375
1149.79145	42179.3375
1153.415	42670.9375
1157.03607	43282.4375
1160.65467	44306.6375
1164.27079	45973.5375
1167.88443	48142.0375
1171.49561	50400.1375
1175.10432	53002.9375
1178.71056	56184.8375
1182.31434	59095.2375
1185.91565	60829.4375
1189.51451	61278.4375
1193.11091	60617.5375
1196.70485	59077.5375
1200.29634	57048.0375
1203.88538	55639.1375
1207.47197	55006.3375
1211.05612	54873.6375
1214.63782	54279.3375
1218.21708	52872.7375
1221.79391	51018.8375
1225.36829	49533.8375
1228.94024	48649.2375
1232.50976	48165.5375
1236.07685	47743.6375
1239.6415	47511.4375
1243.20374	47451.8375
1246.76355	47658.6375
1250.32093	48286.6375
1253.8759	49125.9375
1257.42845	50403.6375
1260.97859	51943.3375
1264.52631	53375.8375
1268.07163	54765.6375
1271.61453	56230.0375
1275.15503	57755.1375
1278.69312	59508.0375
1282.22882	61452.9375
1285.76211	63767.0375
1289.29301	66209.6375
1292.82151	68893.7375
1296.34761	72127.4375
1299.87133	75565.3375
1303.39266	78851.0375
1306.9116	81460.2375
1310.42815	83057.8375
1313.94233	83521.4375
1317.45412	83142.6375
1320.96354	82586.0375
1324.47058	82519.9375
1327.97525	82613.6375
1331.47754	82727.4375
1334.97747	82588.7375
1338.47502	82081.6375
1341.97022	81521.8375
1345.46305	80883.4375
1348.95352	80012.2375
1352.44163	79017.5375
1355.92738	78778.2375
1359.41078	79691.3375
1362.89183	80762.6375
1366.37053	79983.9375
1369.84688	75813.4375
1373.32088	69456.2375
1376.79254	64560.9375
1380.26186	62588.5375
1383.72883	62592.0375
1387.19347	62662.4375
1390.65578	62063.4375
1394.11575	61786.4375
1397.57339	62028.0375
1401.0287	62791.2375
1404.48168	63283.9375
1407.93234	62729.2375
1411.38068	61165.8375
1414.82669	59049.2375
1418.27039	56623.9375
1421.71177	54371.9375
1425.15083	52706.8375
1428.58758	52040.1375
1432.02203	52503.8375
1435.45416	53671.8375
1438.88399	55087.0375
1442.31151	56211.6375
1445.73673	56917.7375
1449.15965	57434.6375
1452.58027	57832.5375
1455.9986	58064.5375
1459.41463	58565.3375
1462.82837	59431.0375
1466.23982	60297.8375
1469.64898	60930.0375
1473.05586	61249.3375
1476.46045	61235.3375
1479.86276	60868.7375
1483.26279	60547.2375
1486.66054	60415.6375
1490.05602	60807.9375
1493.44922	61796.2375
1496.84016	62994.7375
1500.22882	64404.4375
1503.61521	65849.1375
1506.99934	67226.9375
1510.38121	68221.1375
1513.76081	68410.5375
1517.13816	67906.7375
1520.51324	67183.8375
1523.88607	66753.2375
1527.25665	66864.7375
1530.62498	66716.8375
1533.99105	66058.1375
1537.35488	64625.0375
1540.71647	62679.7375
1544.07581	60482.6375
1547.4329	58536.6375
1550.78776	56901.6375
1554.14038	55940.4375
1557.49077	55470.3375
1560.83892	55239.9375
1564.18484	55283.4375
1567.52853	55346.5375
1570.86999	55752.2375
1574.20922	56806.8375
1577.54624	57934.9375
1580.88103	58661.4375
1584.2136	59503.5375
1587.54395	61074.6375
1590.87208	63636.3375
1594.19801	66441.0375
1597.52172	68720.3375
1600.84321	68529.2375
1604.16251	65131.1375
1607.47959	60345.7375
1610.79447	55509.5375
1614.10715	51273.1375
1617.41763	47773.8375
1620.7259	45447.4375
1624.03199	44201.9375
1627.33587	44209.7375
1630.63757	45542.7375
1633.93707	48456.4375
1637.23439	53371.1375
1640.52951	60493.6375
1643.82246	68982.4375
1647.11321	75578.2375
1650.40179	76730.1375
1653.68819	71394.3375
1656.97241	62285.6375
1660.25446	53309.8375
1663.53433	46377.8375
1666.81203	41830.2375
1670.08756	38974.5375
1673.36092	37211.0375
1676.63211	36009.8375
1679.90115	35207.8375
1683.16801	34595.3375
1686.43272	34157.7375
1689.69527	33822.6375
1692.95567	33582.3375
1696.2139	33327.3375
1699.46999	33171.6375
1702.72392	33037.1375
1705.97571	32943.3375
1709.22535	32801.9375
1712.47284	32772.9375
1715.71819	32698.0375
1718.96139	32548.5375
1722.20246	32428.0375
1725.44139	32296.1375
1728.67818	32172.0375
1731.91284	31943.9375
1735.14537	31752.5375
1738.37576	31613.7375
1741.60403	31487.3375
1744.83017	31373.7375
1748.05418	31279.7375
1751.27607	31222.8375
1754.49584	31167.9375
1757.71349	31124.3375
1760.92903	31075.3375
1764.14244	31057.3375
1767.35375	31007.6375
1770.56294	30943.9375
1773.77002	30885.6375
1776.97499	30824.1375
1780.17785	30688.8375
1783.37861	30663.6375
1786.57727	30621.6375
1789.77382	30547.4375
1792.96828	30454.6375
1796.16064	30374.7375
1799.3509	30330.7375
1802.53907	30239.0375
1805.72514	30142.2375
1808.90913	30064.5375
1812.09102	30040.0375
1815.27083	29969.6375
1818.44856	29974.0375
1821.6242	29951.0375
1824.79776	29904.6375
1827.96924	29915.2375
1831.13864	29898.4375
1834.30597	29892.9375
1837.47122	29867.9375
1840.6344	29821.4375
1843.7955	29858.2375
1846.95454	29799.1375
1850.11151	29811.6375
1853.26642	29798.4375
1856.41926	29708.5375
1859.57004	29700.2375
1862.71876	29705.6375
1865.86542	29681.0375
1869.01003	29633.8375
1872.15258	29564.9375
1875.29308	29490.6375
1878.43152	29424.5375
1881.56792	29374.5375
1884.70227	29318.4375
1887.83457	29278.2375
1890.96482	29251.6375
1894.09304	29163.7375
1897.21921	29101.1375
1900.34335	29097.1375
1903.46544	29036.0375
1906.58551	28993.4375
1909.70353	28911.5375
1912.81953	28824.9375
1915.93349	28744.4375
1919.04543	28624.4375
1922.15534	28600.2375
1925.26322	28515.6375
1928.36908	28424.0375
1931.47292	28334.3375
1934.57473	28273.9375
1937.67453	28171.0375
1940.77232	28086.0375
1943.86808	28022.8375
1946.96184	27936.7375
1950.05358	27870.2375
1953.14331	27774.7375
1956.23103	27693.0375
1959.31675	27588.4375
1962.40046	27492.6375
1965.48217	27393.0375
1968.56188	27267.1375
1971.63959	27205.8375
1974.7153	27134.3375
1977.78901	27036.8375
1980.86073	26967.7375
1983.93046	26823.4375
1986.99819	26745.7375
1990.06394	26644.1375
1993.1277	26558.3375
1996.18947	26487.5375
1999.24925	26418.9375
2002.30706	26338.5375
2005.36288	26209.6375
2008.41672	26163.4375
2011.46859	26126.0375
2014.51848	26029.7375
2017.56639	25955.3375
2020.61233	25890.8375
2023.6563	25839.3375
2026.6983	25792.8375
2029.73833	25683.3375
2032.7764	25602.4375
2035.8125	25563.4375
2038.84664	25487.5375
2041.87881	25449.3375
2044.90903	25384.3375
2047.93729	25344.7375
2050.96359	25269.5375
2053.98794	25245.2375
2057.01034	25274.5375
2060.03078	25211.3375
2063.04927	25186.9375
2066.06582	25145.0375
2069.08042	25118.1375
2072.09307	25110.9375
2075.10378	25089.3375
2078.11255	25139.9375
2081.11938	25086.9375
2084.12426	25062.2375
2087.12722	25023.4375
2090.12824	25021.3375
2093.12732	25015.2375
2096.12447	25038.4375
2099.11969	24995.0375
2102.11299	25026.9375
2105.10435	25026.4375
2108.09379	24998.6375
2111.08131	25063.2375
2114.0669	24994.1375
2117.05057	25028.7375
2120.03233	25089.7375
2123.01216	25073.5375
2125.99008	25053.6375
2128.96609	25040.1375
2131.94018	25043.7375
2134.91236	25020.8375
2137.88263	24992.8375
2140.851	24967.3375
2143.81746	24980.1375
2146.78201	24973.6375
2149.74466	24969.0375
2152.7054	24961.4375
2155.66425	24966.5375
2158.6212	24952.2375
2161.57625	24943.3375
2164.52941	24967.3375
2167.48067	24923.1375
2170.43004	24893.4375
2173.37752	24873.6375
2176.32311	24875.2375
2179.26681	24863.1375
2182.20863	24864.0375
2185.14856	24894.8375
2188.08661	24834.7375
2191.02278	24899.3375
2193.95707	24827.3375
2196.88948	24779.3375
2199.82001	24770.5375
2202.74867	24684.5375
2205.67545	24686.3375
2208.60037	24640.3375
2211.52341	24572.8375
2214.44458	24573.9375
2217.36388	24530.6375
2220.28132	24476.1375
2223.1969	24378.5375
2226.11061	24369.4375
2229.02246	24291.9375
2231.93245	24300.0375
2234.84058	24274.1375
2237.74686	24232.0375
2240.65128	24199.3375
2243.55385	24111.0375
2246.45456	24058.6375
2249.35343	24029.6375
2252.25044	24002.0375
2255.14561	23947.4375
2258.03893	23847.6375
2260.93041	23780.0375
2263.82004	23715.8375
2266.70783	23605.4375
2269.59378	23599.5375
2272.4779	23516.2375
2275.36017	23426.1375
2278.24061	23426.0375
2281.11922	23360.0375
2283.996	23310.2375
2286.87094	23283.7375
2289.74405	23192.9375
2292.61534	23174.0375
2295.4848	23115.1375
2298.35243	23090.2375
2301.21824	23039.4375
2304.08223	23040.3375
2306.94439	23030.3375
2309.80474	23062.9375
2312.66327	23002.4375
2315.51999	22964.3375
2318.37489	22976.2375
2321.22797	22904.1375
2324.07925	22888.7375
2326.92871	22844.1375
2329.77637	22828.8375
2332.62222	22767.2375
2335.46626	22734.4375
2338.3085	22700.6375
2341.14893	22657.3375
2343.98756	22654.5375
2346.8244	22638.0375
2349.65943	22625.4375
2352.49267	22585.8375
2355.32411	22635.7375
2358.15376	22610.1375
2360.98161	22605.6375
2363.80768	22593.1375
2366.63195	22566.3375
2369.45444	22520.1375
2372.27514	22481.0375
2375.09405	22429.4375
2377.91118	22370.7375
2380.72652	22327.0375
2383.54009	22297.8375
2386.35187	22246.8375
2389.16188	22193.7375
2391.97011	22161.6375
2394.77657	22129.3375
2397.58125	22036.0375
2400.38416	21997.2375
2403.18529	21942.2375
2405.98466	21959.3375
2408.78226	21943.0375
2411.57809	21928.7375
2414.37216	21919.7375
2417.16446	21942.8375
2419.955	21875.2375
2422.74378	21856.4375
2425.5308	21816.3375
2428.31606	21778.0375
2431.09956	21794.5375
2433.88131	21773.2375
2436.6613	21737.9375
2439.43954	21741.9375
2442.21603	21747.9375
2444.99077	21691.5375
2447.76377	21665.3375
2450.53501	21625.7375
2453.30451	21650.6375
2456.07226	21589.8375
2458.83827	21615.0375
2461.60254	21556.7375
2464.36507	21577.9375
2467.12586	21516.2375
2469.88492	21477.8375
2472.64224	21502.5375
2475.39782	21480.0375
2478.15167	21496.2375
2480.90379	21427.0375
2483.65417	21421.9375
2486.40283	21435.0375
2489.14976	21371.7375
2491.89497	21378.5375
2494.63845	21354.5375
2497.3802	21335.0375
2500.12024	21369.0375
2502.85855	21345.4375
2505.59514	21329.0375
2508.33002	21296.5375
2511.06318	21292.8375
2513.79462	21262.2375
2516.52435	21223.6375
2519.25237	21193.7375
2521.97867	21139.7375
2524.70327	21157.5375
2527.42616	21142.8375
2530.14734	21148.7375
2532.86681	21052.0375
2535.58458	21056.8375
2538.30065	21033.6375
2541.01501	20996.6375
2543.72768	20953.1375
2546.43864	20952.0375
2549.14791	20867.3375
2551.85548	20892.9375
2554.56136	20839.8375
2557.26554	20829.4375
2559.96803	20827.7375
2562.66883	20759.0375
2565.36794	20787.7375
2568.06536	20753.5375
2570.7611	20715.8375
2573.45514	20695.3375
2576.14751	20613.2375
2578.83819	20550.8375
2581.52719	20571.7375
2584.21451	20561.8375
2586.90015	20532.8375
2589.58411	20464.8375
2592.2664	20466.7375
2594.94701	20411.6375
2597.62594	20368.9375
2600.30321	20353.2375
2602.9788	20324.5375
2605.65273	20314.5375
2608.32498	20285.0375
2610.99557	20269.6375
2613.66449	20264.8375
2616.33175	20238.5375
2618.99734	20233.4375
2621.66128	20229.5375
2624.32355	20228.0375
2626.98416	20191.0375
2629.64311	20126.6375
2632.30041	20098.8375
2634.95605	20128.1375
2637.61004	20101.9375
2640.26238	20049.1375
2642.91306	20074.8375
2645.56209	20076.4375
2648.20948	20070.4375
2650.85521	20070.0375
2653.4993	20056.5375
2656.14175	20022.5375
2658.78255	20056.1375
2661.42171	20022.9375
2664.05923	20035.5375
2666.6951	20040.5375
2669.32934	20055.2375
2671.96194	20035.8375
2674.59291	20042.4375
2677.22224	20028.4375
2679.84993	20019.5375
2682.476	19986.4375
2685.10043	20016.2375
2687.72324	19986.2375
2690.34441	20020.6375
2692.96396	20014.2375
2695.58188	20020.3375
2698.19818	20003.6375
2700.81285	19970.6375
2703.4259	19962.5375
2706.03733	20026.5375
2708.64714	19996.6375
2711.25533	19981.0375
2713.86191	19990.8375
2716.46687	20047.9375
2719.07021	20021.6375
2721.67194	20030.6375
2724.27206	20024.5375
2726.87057	19983.5375
2729.46747	20032.3375
2732.06276	20044.6375
2734.65644	20040.8375
2737.24852	20016.4375
2739.83899	20025.8375
2742.42786	20009.4375
2745.01513	19952.8375
2747.60079	19905.3375
2750.18486	19889.6375
2752.76733	19842.2375
2755.3482	19845.2375
2757.92747	19847.3375
2760.50515	19787.2375
2763.08123	19791.2375
2765.65573	19789.6375
2768.22863	19785.5375
2770.79994	19746.3375
2773.36967	19747.7375
2775.9378	19730.2375
2778.50435	19719.6375
2781.06932	19674.0375
2783.6327	19647.3375
2786.1945	19616.0375
2788.75471	19555.8375
2791.31335	19516.2375
2793.87041	19570.2375
2796.42589	19479.3375
2798.97979	19496.6375
2801.53212	19477.3375
2804.08288	19427.0375
2806.63206	19370.9375
2809.17967	19307.6375
2811.72571	19234.8375
2814.27018	19220.5375
2816.81308	19192.4375
2819.35442	19148.0375
2821.89419	19143.6375
2824.43239	19102.9375
2826.96904	19077.7375
2829.50412	19078.1375
2832.03763	19050.2375
2834.56959	19023.8375
2837.1	19004.3375
2839.62884	19015.3375
2842.15613	19009.9375
2844.68186	19015.6375
2847.20604	19041.9375
2849.72867	19045.6375
2852.24974	19007.2375
2854.76927	19000.0375
2857.28724	18978.0375
2859.80367	18950.6375
2862.31855	18878.9375
2864.83189	18834.6375
2867.34368	18822.9375
2869.85393	18816.7375
2872.36264	18790.7375
2874.8698	18815.6375
2877.37543	18814.3375
2879.87952	18812.7375
2882.38207	18794.8375
2884.88308	18755.3375
2887.38256	18741.9375
2889.88051	18750.6375
2892.37692	18800.0375
2894.8718	18798.1375
2897.36515	18786.8375
2899.85698	18775.5375
2902.34727	18801.6375
2904.83604	18772.5375
2907.32328	18804.6375
2909.809	18789.4375
2912.29319	18774.1375
2914.77587	18772.1375
2917.25702	18752.9375
2919.73665	18787.1375
2922.21476	18766.9375
2924.69136	18744.0375
2927.16644	18727.0375
2929.64	18690.2375
2932.11205	18669.1375
2934.58258	18573.3375
2937.05161	18639.3375
2939.51912	18578.9375
2941.98513	18577.2375
2944.44962	18512.4375
2946.91261	18429.0375
2949.37409	18482.5375
2951.83407	18488.7375
2954.29254	18438.4375
2956.74951	18387.1375
2959.20498	18353.4375
2961.65895	18337.3375
2964.11142	18359.8375
2966.56239	18243.6375
2969.01186	18216.4375
2971.45984	18208.5375
2973.90632	18188.5375
2976.35131	18154.4375
2978.7948	18091.4375
2981.23681	18045.5375
2983.67732	17966.6375
2986.11635	17897.0375
2988.55388	17844.0375
2990.98993	17867.5375
2993.4245	17773.4375
2995.85758	17726.1375
2998.28917	17707.9375
3000.71928	17666.9375
3003.14791	17610.0375
3005.57506	17583.1375
3008.00073	17511.0375
3010.42493	17525.2375
3012.84764	17452.0375
3015.26888	17453.0375
3017.68865	17382.1375
3020.10694	17371.3375
3022.52376	17336.4375
3024.9391	17286.1375
3027.35298	17278.4375
3029.76539	17241.6375
3032.17632	17231.3375
3034.5858	17178.1375
3036.9938	17150.3375
3039.40034	17135.7375
3041.80542	17119.6375
3044.20903	17060.7375
3046.61118	17023.0375
3049.01187	16998.7375
3051.4111	16985.8375
3053.80888	16941.9375
3056.20519	16884.0375
3058.60005	16854.0375
3060.99345	16786.6375
3063.3854	16753.5375
3065.7759	16664.5375
3068.16494	16641.4375
3070.55254	16575.6375
3072.93868	16579.2375
3075.32338	16531.6375
3077.70662	16490.4375
3080.08842	16443.7375
3082.46878	16420.4375
3084.84769	16371.6375
3087.22515	16344.3375
3089.60118	16351.8375
3091.97576	16328.4375
3094.3489	16293.4375
3096.72061	16278.7375
3099.09087	16250.7375
3101.4597	16225.6375
3103.82709	16192.1375
3106.19305	16118.1375
3108.55757	16140.4375
3110.92066	16079.9375
3113.28232	16045.7375
3115.64255	16024.8375
3118.00134	15976.8375
3120.35871	15937.6375
3122.71466	15902.9375
3125.06917	15849.1375
3127.42226	15806.5375
3129.77393	15803.1375
3132.12417	15760.9375
3134.47299	15779.7375
3136.82039	15770.3375
3139.16636	15780.2375
3141.51092	15746.5375
3143.85406	15768.4375
3146.19579	15777.7375
3148.53609	15718.6375
3150.87499	15739.4375
3153.21246	15718.5375
3155.54853	15719.8375
3157.88318	15686.7375
3160.21642	15694.7375
3162.54826	15663.3375
3164.87868	15678.6375
3167.2077	15624.6375
3169.5353	15603.7375
3171.86151	15587.9375
3174.18631	15548.1375
3176.5097	15564.0375
3178.83169	15538.9375
3181.15228	15512.3375
3183.47147	15458.0375
3185.78926	15429.1375
3188.10565	15406.0375
3190.42065	15402.0375
3192.73424	15393.8375
3195.04645	15368.4375
3197.35725	15375.2375
3199.66667	15356.0375
3201.97469	15348.9375
3204.28132	15290.8375
3206.58656	15306.7375
3208.8904	15296.2375
3211.19287	15322.6375
3213.49394	15308.3375
3215.79363	15284.1375
3218.09193	15268.6375
3220.38884	15249.5375
3222.68438	15263.1375
3224.97853	15245.8375
3227.2713	15199.6375
3229.56269	15164.0375
3231.8527	15151.2375
3234.14133	15119.9375
3236.42858	15094.1375
3238.71446	15065.1375
3240.99896	15060.3375
3243.28209	15056.7375
3245.56384	15007.4375
3247.84423	15004.9375
3250.12324	14986.4375
3252.40088	14895.0375
3254.67715	14877.5375
3256.95205	14835.0375
3259.22558	14825.8375
3261.49775	14820.1375
3263.76855	14781.6375
3266.03799	14736.2375
3268.30606	14722.9375
3270.57277	14680.1375
3272.83812	14678.4375
3275.10211	14632.4375
3277.36474	14607.5375
3279.62601	14623.7375
3281.88593	14614.2375
3284.14448	14614.4375
3286.40168	14610.8375
3288.65753	14582.3375
3290.91202	14556.8375
3293.16516	14472.6375
3295.41695	14445.3375
3297.66738	14348.2375
3299.91647	14334.3375
3302.16421	14209.1375
3304.4106	14139.1375
3306.65564	14048.6375
3308.89933	13935.4375
3311.14169	13866.6375
3313.38269	13711.5375
3315.62236	13662.4375
3317.86068	13506.3375
3320.09766	13411.2375
3322.3333	13281.8375
3324.5676	13257.5375
3326.80056	13051.1375
3329.03219	12964.6375
3331.26248	2.2375
3333.49143	-0.6625
3335.71905	-0.7625
