Data from AgNPs_FTO_APTES_UA_2uM_CRN_1uM_R6G_10uM_NaF_0.1M_Addition_RamanShift__24__11-47-05-030.txt Node

Date: Wed Feb 02 11:47:05 GMT 2022
User: TCL
Spectrometer: QEP01345
Trigger mode: 4
Integration Time (sec): 7.000000E0
Scans to average: 10
Electric dark correction enabled: true
Nonlinearity correction enabled: false
Boxcar width: 0
XAxis mode: Raman Shifts
Number of Pixels in Spectrum: 1044
>>>>>Begin Spectral Data<<<<<
46.04893	0.8
50.45542	-0.5
54.85868	-1.2
59.25871	-0.9
63.6555	94.1
68.04907	98.5
72.43941	98.7
76.82654	107
81.21044	109.8
85.59113	114.3
89.96862	118.8
94.34289	121.1
98.71396	124.1
103.08183	134.3
107.4465	134.9
111.80798	138
116.16626	139.9
120.52136	150.9
124.87327	156.6
129.222	165.4
133.56755	179.1
137.90993	187.9
142.24913	213.5
146.58517	242.3
150.91804	279.9
155.24774	341.8
159.57429	420.4
163.89768	543.1
168.21792	722.6
172.53501	997.2
176.84895	1377.6
181.15975	1947.8
185.46741	2718.1
189.77193	3727
194.07331	5000.9
198.37157	6421.9
202.6667	7902.1
206.9587	9392.8
211.24758	10872.4
215.53334	12401.9
219.81599	14047.4
224.09553	15934
228.37195	17961.6
232.64527	20222.6
236.91549	22493.7
241.18261	24605.1
245.44663	26516.7
249.70755	28079.6
253.96539	29517.2
258.22014	30723.6
262.4718	31826.5
266.72039	32621.5
270.96589	33134.6
275.20832	33229
279.44768	33081.8
283.68397	32866.4
287.91719	32765.1
292.14735	32787
296.37445	33098.8
300.59849	33551.3
304.81948	34070.7
309.03742	34369.3
313.25231	34069.9
317.46415	32806.4
321.67296	30980.6
325.87872	29503.2
330.08145	28735.2
334.28114	28588.5
338.47781	28862.9
342.67145	29361.7
346.86207	30143
351.04966	31221.1
355.23424	32499.3
359.4158	33519.5
363.59435	34043
367.76989	34220.5
371.94243	34253
376.11196	34203.8
380.27849	34182
384.44203	34110.5
388.60257	34098.4
392.76012	34279.5
396.91468	34717.8
401.06626	35477.7
405.21485	36019.8
409.36047	35659.8
413.50311	34535.7
417.64277	33500.6
421.77947	33067.9
425.9132	33106.3
430.04396	33233.6
434.17176	33479.9
438.2966	33763
442.41849	34452.6
446.53742	35690.2
450.6534	36958.2
454.76644	37789.7
458.87653	38045.3
462.98368	37767.6
467.08789	37235.9
471.18916	36551.1
475.2875	35950.1
479.38291	35606.1
483.4754	35348
487.56496	34921.8
491.6516	34317.7
495.73531	33784.7
499.81612	33451.6
503.89401	33534
507.96899	33677.6
512.04106	33674.2
516.11023	33557.1
520.1765	33354.9
524.23987	33066.4
528.30034	32597.2
532.35792	32063.6
536.41261	31396
540.46441	30723.3
544.51333	30622
548.55936	31063.3
552.60252	31989.2
556.64279	33071.3
560.6802	33738.9
564.71473	34351.3
568.7464	35547.5
572.7752	36834.5
576.80114	37009.6
580.82422	36792.8
584.84444	36933.1
588.86181	37182.6
592.87633	37730.5
596.888	38284.6
600.89682	38640.1
604.9028	40748.1
608.90594	47036.5
612.90624	54733.6
616.90371	51732.6
620.89834	39319.4
624.89015	33610.6
628.87913	32745.2
632.86528	32834.3
636.84862	32803.6
640.82913	32123.9
644.80683	30778.8
648.78172	29768.3
652.75379	29579.4
656.72306	30328.1
660.68952	31427.6
664.65319	31330.3
668.61405	30314.6
672.57211	29815.7
676.52738	29755.6
680.47986	29733.8
684.42955	29515.4
688.37646	29345.8
692.32058	29471
696.26192	29841.2
700.20048	30350.9
704.13626	30672.3
708.06928	30722.1
711.99952	30453.3
715.927	30203.1
719.85171	30224.4
723.77365	30103.2
727.69284	29684.5
731.60928	29293.5
735.52295	29226.5
739.43388	29331.1
743.34206	29494.6
747.24749	29680.9
751.15017	30086.6
755.05012	30782.2
758.94733	32113.7
762.8418	34764.6
766.73354	39256.6
770.62254	43892.6
774.50882	45384.7
778.39237	42784.5
782.27321	38010.6
786.15132	33801.4
790.02671	31290.7
793.89938	30108.2
797.76935	29615.7
801.6366	29378.1
805.50115	29241.3
809.36299	28987.3
813.22213	28744.3
817.07857	28665.2
820.93231	28693.9
824.78336	28608.4
828.63172	28669.9
832.47738	28674.4
836.32036	28726.4
840.16066	28760.9
843.99827	28761
847.8332	28640.4
851.66546	28468.9
855.49504	28420.9
859.32195	28290.2
863.1462	28120.9
866.96777	27948.8
870.78668	27868.4
874.60293	27862
878.41652	27917.1
882.22745	28107.7
886.03573	28229.3
889.84136	28230.8
893.64433	28093.6
897.44466	27992.8
901.24235	27896.4
905.0374	27777
908.8298	27652
912.61957	27716.8
916.40671	27989.3
920.19121	28461.4
923.97308	28939.1
927.75233	29230.2
931.52895	29257.1
935.30295	28810.9
939.07433	27927.2
942.84309	27235.8
946.60924	26870
950.37278	26710.5
954.13371	26544.8
957.89203	26443.5
961.64774	26342
965.40086	26297.9
969.15137	26173.1
972.89929	26061.4
976.64461	25972.2
980.38733	25936.3
984.12747	26085.6
987.86502	26349.2
991.59999	26735.2
995.33237	27359.9
999.06217	28439.3
1002.78939	29755.6
1006.51404	30731.9
1010.23611	31273.1
1013.95561	31568.3
1017.67255	31544
1021.38692	30943.8
1025.09872	30451.7
1028.80796	30516.1
1032.51465	31311.6
1036.21877	32117.6
1039.92035	32271.7
1043.61937	31843.3
1047.31584	30995.2
1051.00976	30098.3
1054.70114	29591.4
1058.38998	29458.3
1062.07627	29583.4
1065.76003	29798.8
1069.44126	30149.2
1073.11995	30587
1076.79611	30995.5
1080.46974	31218.7
1084.14085	31640.3
1087.80943	32256.5
1091.47549	32665.2
1095.13903	32459.9
1098.80005	31647.6
1102.45857	30676.9
1106.11456	29977.9
1109.76805	29768.2
1113.41903	29989.2
1117.06751	30462.9
1120.71348	31194.2
1124.35696	31962.3
1127.99793	32809.8
1131.63641	33113
1135.2724	32497.5
1138.90589	31671.6
1142.5369	31229
1146.16542	31095.5
1149.79145	31073.7
1153.415	31282.5
1157.03607	31781.2
1160.65467	32648.2
1164.27079	34135.4
1167.88443	36342.7
1171.49561	39539.4
1175.10432	44165.9
1178.71056	50073.1
1182.31434	55254.9
1185.91565	57733.6
1189.51451	57559.7
1193.11091	55124.8
1196.70485	51409.8
1200.29634	47988.1
1203.88538	45260.9
1207.47197	42887
1211.05612	41166.1
1214.63782	40132.2
1218.21708	39809.8
1221.79391	39882.7
1225.36829	40122.9
1228.94024	40018.5
1232.50976	39626.4
1236.07685	39108.2
1239.6415	38573.7
1243.20374	38079.5
1246.76355	37893
1250.32093	38291.7
1253.8759	39225.5
1257.42845	40611.2
1260.97859	42262
1264.52631	43737.7
1268.07163	45316.7
1271.61453	46994.6
1275.15503	48799.2
1278.69312	50330.8
1282.22882	51679.7
1285.76211	53105.1
1289.29301	54880.4
1292.82151	57041.1
1296.34761	59573.2
1299.87133	62919.9
1303.39266	67359.7
1306.9116	73166.6
1310.42815	79573.7
1313.94233	84365.5
1317.45412	85336.6
1320.96354	83391.2
1324.47058	80389.4
1327.97525	77194.9
1331.47754	74670.4
1334.97747	72977.4
1338.47502	72240.2
1341.97022	71648.4
1345.46305	70683.2
1348.95352	69677.9
1352.44163	69620.7
1355.92738	71708.6
1359.41078	76852.2
1362.89183	82953.1
1366.37053	82731.1
1369.84688	74520.5
1373.32088	64527.1
1376.79254	57494.9
1380.26186	54406.5
1383.72883	53345.6
1387.19347	52624.9
1390.65578	51958.4
1394.11575	51911.7
1397.57339	52816.6
1401.0287	54278.3
1404.48168	55714.3
1407.93234	56369.3
1411.38068	56058.3
1414.82669	54476.1
1418.27039	51912.1
1421.71177	49151.4
1425.15083	47011.2
1428.58758	45682.6
1432.02203	45465.5
1435.45416	46030.8
1438.88399	46852.9
1442.31151	47612.5
1445.73673	48384.4
1449.15965	49277.8
1452.58027	49906.7
1455.9986	50224.9
1459.41463	50586.2
1462.82837	51379.4
1466.23982	52428.8
1469.64898	53304.1
1473.05586	53736.9
1476.46045	53609.4
1479.86276	53324.4
1483.26279	53187.8
1486.66054	53288.5
1490.05602	53939.9
1493.44922	54906.8
1496.84016	56027.8
1500.22882	57817.4
1503.61521	60652.7
1506.99934	64331.3
1510.38121	68284.6
1513.76081	70635.4
1517.13816	69105.6
1520.51324	64573.7
1523.88607	59606.2
1527.25665	56160.5
1530.62498	54133.7
1533.99105	52973.7
1537.35488	52153.8
1540.71647	51388.5
1544.07581	50576.5
1547.4329	49562.2
1550.78776	48668.4
1554.14038	48180.8
1557.49077	48216.9
1560.83892	48599.8
1564.18484	48927.6
1567.52853	49241.4
1570.86999	49502.1
1574.20922	50047.9
1577.54624	50455.1
1580.88103	49993.6
1584.2136	49472.1
1587.54395	50395.6
1590.87208	52975.1
1594.19801	56816.9
1597.52172	60809.7
1600.84321	62294.5
1604.16251	59410.5
1607.47959	54129.4
1610.79447	48463.8
1614.10715	43392.1
1617.41763	39403.5
1620.7259	36914.3
1624.03199	35688.7
1627.33587	35722.5
1630.63757	37071.5
1633.93707	39865
1637.23439	44153.7
1640.52951	49900.4
1643.82246	56499.5
1647.11321	61883.8
1650.40179	63617.8
1653.68819	60248.4
1656.97241	52161.3
1660.25446	43425.4
1663.53433	36735.9
1666.81203	32480.3
1670.08756	29867.8
1673.36092	28246.8
1676.63211	27207.6
1679.90115	26589
1683.16801	26061.4
1686.43272	25684.7
1689.69527	25451
1692.95567	25241.7
1696.2139	25139.1
1699.46999	25066.7
1702.72392	24948
1705.97571	24858.4
1709.22535	24776.9
1712.47284	24777.8
1715.71819	24731.6
1718.96139	24701.5
1722.20246	24603.9
1725.44139	24470
1728.67818	24320.7
1731.91284	24143.7
1735.14537	24012.4
1738.37576	23875.6
1741.60403	23790.7
1744.83017	23687.4
1748.05418	23654.9
1751.27607	23598.5
1754.49584	23560.4
1757.71349	23509.2
1760.92903	23535.2
1764.14244	23480
1767.35375	23473.9
1770.56294	23379.7
1773.77002	23396
1776.97499	23317.6
1780.17785	23248.6
1783.37861	23238.9
1786.57727	23200.5
1789.77382	23154
1792.96828	23146
1796.16064	23091.4
1799.3509	23072
1802.53907	23044.2
1805.72514	23012.9
1808.90913	22925
1812.09102	22860.4
1815.27083	22824.4
1818.44856	22813.5
1821.6242	22778.6
1824.79776	22777.4
1827.96924	22725.2
1831.13864	22707
1834.30597	22745
1837.47122	22767.2
1840.6344	22798.9
1843.7955	22775.9
1846.95454	22783.8
1850.11151	22836.6
1853.26642	22832.9
1856.41926	22828.4
1859.57004	22888.4
1862.71876	22900.7
1865.86542	22899
1869.01003	22922.9
1872.15258	22930.3
1875.29308	23011.4
1878.43152	23041.4
1881.56792	23093.2
1884.70227	23079.1
1887.83457	23136.6
1890.96482	23180.4
1894.09304	23213.3
1897.21921	23252.3
1900.34335	23267.7
1903.46544	23299.4
1906.58551	23367
1909.70353	23362.4
1912.81953	23337.3
1915.93349	23300.3
1919.04543	23244.7
1922.15534	23241.2
1925.26322	23095.9
1928.36908	22983
1931.47292	22829.4
1934.57473	22656.8
1937.67453	22504.5
1940.77232	22409.9
1943.86808	22252.6
1946.96184	22150.3
1950.05358	22018.5
1953.14331	21874.9
1956.23103	21835
1959.31675	21715.1
1962.40046	21648.1
1965.48217	21591.2
1968.56188	21490.7
1971.63959	21389.2
1974.7153	21339.3
1977.78901	21270.8
1980.86073	21182.5
1983.93046	21126.8
1986.99819	21040.9
1990.06394	20992
1993.1277	20899.4
1996.18947	20795.8
1999.24925	20739.4
2002.30706	20707.4
2005.36288	20638.5
2008.41672	20601.8
2011.46859	20558.9
2014.51848	20482.8
2017.56639	20358.8
2020.61233	20378.8
2023.6563	20329.1
2026.6983	20292.2
2029.73833	20236.8
2032.7764	20200.8
2035.8125	20176.4
2038.84664	20104.2
2041.87881	20175.5
2044.90903	20142.9
2047.93729	20125
2050.96359	20094.1
2053.98794	20022.1
2057.01034	20020.9
2060.03078	19962.3
2063.04927	19931.4
2066.06582	19908.6
2069.08042	19915.4
2072.09307	19891.8
2075.10378	19894.5
2078.11255	19830
2081.11938	19860.8
2084.12426	19833.2
2087.12722	19807.1
2090.12824	19783.2
2093.12732	19784.3
2096.12447	19832.7
2099.11969	19808.1
2102.11299	19832.8
2105.10435	19804
2108.09379	19834.8
2111.08131	19823.8
2114.0669	19843.4
2117.05057	19848.7
2120.03233	19855.6
2123.01216	19861.9
2125.99008	19866.7
2128.96609	19855.2
2131.94018	19917.9
2134.91236	19884.5
2137.88263	19906.8
2140.851	19930.7
2143.81746	19966.6
2146.78201	19903
2149.74466	19894.2
2152.7054	19925.7
2155.66425	19905.9
2158.6212	19905.3
2161.57625	19917.4
2164.52941	19892.7
2167.48067	19894.5
2170.43004	19866.7
2173.37752	19883.3
2176.32311	19861.8
2179.26681	19923.9
2182.20863	19899.2
2185.14856	19920.2
2188.08661	19920.2
2191.02278	19896
2193.95707	19902
2196.88948	19887.5
2199.82001	19896.6
2202.74867	19875.3
2205.67545	19936.6
2208.60037	19892.7
2211.52341	19881.4
2214.44458	19856
2217.36388	19848.9
2220.28132	19809.3
2223.1969	19768.3
2226.11061	19742.7
2229.02246	19670.4
2231.93245	19671.8
2234.84058	19614.6
2237.74686	19601.7
2240.65128	19554.3
2243.55385	19561.8
2246.45456	19506.6
2249.35343	19486.7
2252.25044	19473.2
2255.14561	19462.4
2258.03893	19424.1
2260.93041	19392.3
2263.82004	19349.3
2266.70783	19321.2
2269.59378	19286.8
2272.4779	19242.3
2275.36017	19182.7
2278.24061	19157.3
2281.11922	19086.5
2283.996	19089.7
2286.87094	19049
2289.74405	19000.5
2292.61534	19011.5
2295.4848	18970.4
2298.35243	18952.2
2301.21824	18972.5
2304.08223	19026.5
2306.94439	19022.6
2309.80474	19027.9
2312.66327	19001.3
2315.51999	19032
2318.37489	19026.8
2321.22797	19034.3
2324.07925	18999
2326.92871	18982.4
2329.77637	18998.4
2332.62222	19016.5
2335.46626	18995
2338.3085	19002.3
2341.14893	19013.1
2343.98756	19033.3
2346.8244	19060.7
2349.65943	19016.2
2352.49267	19033.7
2355.32411	19045.3
2358.15376	19035.2
2360.98161	19036.8
2363.80768	19019.3
2366.63195	19016.5
2369.45444	18985.5
2372.27514	18939.5
2375.09405	18913.7
2377.91118	18836.8
2380.72652	18800.4
2383.54009	18761.2
2386.35187	18678.7
2389.16188	18650
2391.97011	18615.2
2394.77657	18572.9
2397.58125	18574.8
2400.38416	18557.4
2403.18529	18526.8
2405.98466	18477.4
2408.78226	18428
2411.57809	18394.6
2414.37216	18346.1
2417.16446	18360.8
2419.955	18328.9
2422.74378	18333.7
2425.5308	18290.8
2428.31606	18332.2
2431.09956	18289.5
2433.88131	18255.6
2436.6613	18242.6
2439.43954	18240.4
2442.21603	18248.8
2444.99077	18252.9
2447.76377	18270.6
2450.53501	18267.2
2453.30451	18283.7
2456.07226	18267.6
2458.83827	18287.4
2461.60254	18260
2464.36507	18289.1
2467.12586	18258.3
2469.88492	18298.8
2472.64224	18287
2475.39782	18290.5
2478.15167	18311.9
2480.90379	18272.9
2483.65417	18309.3
2486.40283	18335.9
2489.14976	18388.1
2491.89497	18395.8
2494.63845	18388.1
2497.3802	18394.6
2500.12024	18418
2502.85855	18411.3
2505.59514	18404.1
2508.33002	18377
2511.06318	18346.5
2513.79462	18333.7
2516.52435	18269.8
2519.25237	18244.3
2521.97867	18234.1
2524.70327	18235.5
2527.42616	18183.3
2530.14734	18172.4
2532.86681	18146.7
2535.58458	18161.5
2538.30065	18125.7
2541.01501	18120.4
2543.72768	18101.4
2546.43864	18099.7
2549.14791	18078.9
2551.85548	18079.5
2554.56136	18098.1
2557.26554	18065.5
2559.96803	18058.8
2562.66883	18048.8
2565.36794	18046.4
2568.06536	18044.1
2570.7611	18039.6
2573.45514	18022.6
2576.14751	17996
2578.83819	18004.2
2581.52719	17990.6
2584.21451	17984.2
2586.90015	18016.2
2589.58411	17975
2592.2664	17969.9
2594.94701	17970.2
2597.62594	17984.1
2600.30321	17983.1
2602.9788	17983.8
2605.65273	17937.5
2608.32498	17964.3
2610.99557	17970.9
2613.66449	17993.1
2616.33175	18001.7
2618.99734	17996.3
2621.66128	18010.6
2624.32355	18039.1
2626.98416	18036.8
2629.64311	18045.7
2632.30041	18000.7
2634.95605	18010.9
2637.61004	18008.2
2640.26238	17945.1
2642.91306	17949.1
2645.56209	17942
2648.20948	17912.3
2650.85521	17892.4
2653.4993	17911.2
2656.14175	17859.5
2658.78255	17876
2661.42171	17901.3
2664.05923	17931.2
2666.6951	17907.9
2669.32934	17938.1
2671.96194	17967.7
2674.59291	17988.5
2677.22224	17989
2679.84993	17973.5
2682.476	17936.8
2685.10043	17949.2
2687.72324	17920.9
2690.34441	17869.2
2692.96396	17905.3
2695.58188	17922.3
2698.19818	17889.4
2700.81285	17876.6
2703.4259	17911.1
2706.03733	17903.5
2708.64714	17912.1
2711.25533	17954.4
2713.86191	17900.1
2716.46687	17938.9
2719.07021	17930.7
2721.67194	17943.2
2724.27206	17924.9
2726.87057	17948.1
2729.46747	17921.1
2732.06276	17966.1
2734.65644	17965.6
2737.24852	17959.6
2739.83899	17966.4
2742.42786	17947.1
2745.01513	17939.1
2747.60079	17948.5
2750.18486	17929.5
2752.76733	17935
2755.3482	17928
2757.92747	17902.2
2760.50515	17906.8
2763.08123	17922.3
2765.65573	17877.9
2768.22863	17873.7
2770.79994	17883.6
2773.36967	17862.1
2775.9378	17865.5
2778.50435	17867.3
2781.06932	17857.4
2783.6327	17869.5
2786.1945	17858.1
2788.75471	17868.5
2791.31335	17797.5
2793.87041	17817.7
2796.42589	17725.6
2798.97979	17713.7
2801.53212	17689.9
2804.08288	17686
2806.63206	17660.7
2809.17967	17655.1
2811.72571	17611
2814.27018	17631.8
2816.81308	17620.1
2819.35442	17620.8
2821.89419	17639.9
2824.43239	17653.8
2826.96904	17632.1
2829.50412	17616.6
2832.03763	17558.8
2834.56959	17601.6
2837.1	17546.1
2839.62884	17590.9
2842.15613	17580.5
2844.68186	17662.2
2847.20604	17702.8
2849.72867	17691.4
2852.24974	17711.7
2854.76927	17709.7
2857.28724	17684.8
2859.80367	17677.8
2862.31855	17656.1
2864.83189	17649.7
2867.34368	17606.5
2869.85393	17635.5
2872.36264	17622
2874.8698	17656.6
2877.37543	17668.2
2879.87952	17670.1
2882.38207	17675.6
2884.88308	17689.5
2887.38256	17695.6
2889.88051	17658.8
2892.37692	17677.9
2894.8718	17703.1
2897.36515	17712.2
2899.85698	17725.6
2902.34727	17773.9
2904.83604	17727.1
2907.32328	17800.9
2909.809	17788.5
2912.29319	17775.9
2914.77587	17787.6
2917.25702	17777.3
2919.73665	17748.4
2922.21476	17733.2
2924.69136	17749.9
2927.16644	17748.1
2929.64	17707.4
2932.11205	17692.6
2934.58258	17590.4
2937.05161	17598.4
2939.51912	17572.9
2941.98513	17552.9
2944.44962	17488.1
2946.91261	17395.1
2949.37409	17413.4
2951.83407	17402.9
2954.29254	17368.4
2956.74951	17284
2959.20498	17289.7
2961.65895	17236.2
2964.11142	17207.6
2966.56239	17189.8
2969.01186	17141
2971.45984	17094.4
2973.90632	17043.9
2976.35131	16981.1
2978.7948	16925.6
2981.23681	16859.7
2983.67732	16817.1
2986.11635	16783.1
2988.55388	16749.8
2990.98993	16718.8
2993.4245	16647.9
2995.85758	16663.6
2998.28917	16600.6
3000.71928	16571.7
3003.14791	16549.3
3005.57506	16521.2
3008.00073	16471.1
3010.42493	16492
3012.84764	16442.7
3015.26888	16451.2
3017.68865	16385.8
3020.10694	16361.7
3022.52376	16284.7
3024.9391	16283.4
3027.35298	16218.7
3029.76539	16199.4
3032.17632	16199.1
3034.5858	16164.1
3036.9938	16188.8
3039.40034	16147.8
3041.80542	16149
3044.20903	16119.8
3046.61118	16106.3
3049.01187	16038.6
3051.4111	16043.8
3053.80888	15997.9
3056.20519	15945
3058.60005	15912.2
3060.99345	15870.8
3063.3854	15840.2
3065.7759	15820.1
3068.16494	15770.6
3070.55254	15715.2
3072.93868	15723.8
3075.32338	15648.9
3077.70662	15613.8
3080.08842	15542.8
3082.46878	15570.6
3084.84769	15534.1
3087.22515	15528.1
3089.60118	15485.7
3091.97576	15482.9
3094.3489	15473.5
3096.72061	15471
3099.09087	15476.7
3101.4597	15414.6
3103.82709	15398.2
3106.19305	15370.6
3108.55757	15359.4
3110.92066	15308
3113.28232	15257.8
3115.64255	15220.4
3118.00134	15194.8
3120.35871	15170
3122.71466	15158.9
3125.06917	15130.4
3127.42226	15103.9
3129.77393	15113.2
3132.12417	15093.5
3134.47299	15117.3
3136.82039	15088.6
3139.16636	15060.4
3141.51092	15065.1
3143.85406	15072.7
3146.19579	15086.1
3148.53609	15080.5
3150.87499	15082.5
3153.21246	15057.7
3155.54853	15075.8
3157.88318	15040.4
3160.21642	15059.9
3162.54826	15061.3
3164.87868	15032.2
3167.2077	15024.3
3169.5353	15016.4
3171.86151	15024.5
3174.18631	14965
3176.5097	14992.2
3178.83169	14984.1
3181.15228	15012.9
3183.47147	14921.3
3185.78926	14928.2
3188.10565	14932.7
3190.42065	14944.8
3192.73424	14958
3195.04645	14933
3197.35725	14953.1
3199.66667	14922.5
3201.97469	14918.7
3204.28132	14924.4
3206.58656	14933.2
3208.8904	14928
3211.19287	14959.7
3213.49394	14916.2
3215.79363	14932.7
3218.09193	14956.7
3220.38884	14946.6
3222.68438	14944.3
3224.97853	14931.1
3227.2713	14917.4
3229.56269	14916.6
3231.8527	14911.3
3234.14133	14878.2
3236.42858	14807.2
3238.71446	14830.5
3240.99896	14795.5
3243.28209	14807.7
3245.56384	14827.5
3247.84423	14846.5
3250.12324	14792
3252.40088	14773.5
3254.67715	14755.2
3256.95205	14713.8
3259.22558	14694.8
3261.49775	14673
3263.76855	14651
3266.03799	14627.3
3268.30606	14610.7
3270.57277	14608.9
3272.83812	14576.7
3275.10211	14544.1
3277.36474	14527
3279.62601	14553.7
3281.88593	14523.1
3284.14448	14567.2
3286.40168	14552
3288.65753	14558.6
3290.91202	14516.2
3293.16516	14455.4
3295.41695	14426.1
3297.66738	14359
3299.91647	14283.1
3302.16421	14191.3
3304.4106	14132
3306.65564	14040.7
3308.89933	13984.5
3311.14169	13889.3
3313.38269	13778.5
3315.62236	13699.8
3317.86068	13599.2
3320.09766	13438.2
3322.3333	13359.4
3324.5676	13344.5
3326.80056	13152.4
3329.03219	13117
3331.26248	3
3333.49143	0.2
3335.71905	-2.3
