Data from AgNPs_FTO_APTES_UA_2uM_CRN_20uM_R6G_10uM_NaF_0.1M_Addition_RamanShift__25__14-26-55-216.txt Node

Date: Wed Feb 02 14:26:55 GMT 2022
User: TCL
Spectrometer: QEP01345
Trigger mode: 4
Integration Time (sec): 7.000000E0
Scans to average: 10
Electric dark correction enabled: true
Nonlinearity correction enabled: false
Boxcar width: 0
XAxis mode: Raman Shifts
Number of Pixels in Spectrum: 1044
>>>>>Begin Spectral Data<<<<<
46.04893	-0.2625
50.45542	1.0375
54.85868	-1.3625
59.25871	-0.2625
63.6555	89.7375
68.04907	96.5375
72.43941	99.2375
76.82654	107.1375
81.21044	109.3375
85.59113	116.4375
89.96862	116.1375
94.34289	123.2375
98.71396	124.5375
103.08183	131.8375
107.4465	140.1375
111.80798	139.8375
116.16626	143.1375
120.52136	148.8375
124.87327	156.0375
129.222	159.6375
133.56755	172.7375
137.90993	180.2375
142.24913	201.2375
146.58517	223.3375
150.91804	255.9375
155.24774	311.3375
159.57429	381.9375
163.89768	482.3375
168.21792	644.4375
172.53501	869.9375
176.84895	1213.5375
181.15975	1702.5375
185.46741	2387.6375
189.77193	3283.5375
194.07331	4376.5375
198.37157	5616.9375
202.6667	6944.2375
206.9587	8260.5375
211.24758	9578.2375
215.53334	10907.6375
219.81599	12364.8375
224.09553	14021.6375
228.37195	15825.6375
232.64527	17820.2375
236.91549	19850.3375
241.18261	21765.1375
245.44663	23441.0375
249.70755	24751.6375
253.96539	26022.3375
258.22014	27137.3375
262.4718	28117.9375
266.72039	28901.8375
270.96589	29400.7375
275.20832	29626.2375
279.44768	29620.0375
283.68397	29523.2375
287.91719	29520.0375
292.14735	29720.9375
296.37445	30143.0375
300.59849	30658.9375
304.81948	31235.7375
309.03742	31472.0375
313.25231	31114.8375
317.46415	29718.1375
321.67296	27872.9375
325.87872	26311.5375
330.08145	25512.4375
334.28114	25410.4375
338.47781	25688.9375
342.67145	26232.7375
346.86207	27075.4375
351.04966	28214.8375
355.23424	29480.3375
359.4158	30398.7375
363.59435	30900.4375
367.76989	31034.6375
371.94243	30951.0375
376.11196	30868.2375
380.27849	30741.5375
384.44203	30589.3375
388.60257	30451.2375
392.76012	30494.5375
396.91468	30872.8375
401.06626	31582.0375
405.21485	32171.2375
409.36047	31701.3375
413.50311	30498.3375
417.64277	29424.8375
421.77947	28926.9375
425.9132	28821.7375
430.04396	28923.1375
434.17176	29124.9375
438.2966	29421.7375
442.41849	30006.8375
446.53742	30899.1375
450.6534	31827.7375
454.76644	32507.0375
458.87653	32760.3375
462.98368	32598.1375
467.08789	32195.3375
471.18916	31738.7375
475.2875	31109.5375
479.38291	30775.0375
483.4754	30362.9375
487.56496	29856.6375
491.6516	29337.7375
495.73531	28988.8375
499.81612	28837.8375
503.89401	29059.8375
507.96899	29240.8375
512.04106	29264.9375
516.11023	29294.8375
520.1765	29247.9375
524.23987	28975.5375
528.30034	28520.6375
532.35792	27969.8375
536.41261	27472.4375
540.46441	27018.7375
544.51333	27001.1375
548.55936	27444.4375
552.60252	28231.8375
556.64279	29248.5375
560.6802	29781.3375
564.71473	30183.5375
568.7464	31226.8375
572.7752	32123.5375
576.80114	32015.0375
580.82422	31494.0375
584.84444	31241.9375
588.86181	31139.0375
592.87633	31183.6375
596.888	31513.6375
600.89682	32256.2375
604.9028	34882.9375
608.90594	41587.2375
612.90624	49731.6375
616.90371	46988.4375
620.89834	34829.1375
624.89015	29143.6375
628.87913	28206.9375
632.86528	28427.2375
636.84862	28551.4375
640.82913	28010.6375
644.80683	26834.8375
648.78172	25959.7375
652.75379	25959.9375
656.72306	26711.3375
660.68952	27774.2375
664.65319	27654.5375
668.61405	26684.7375
672.57211	26157.0375
676.52738	26163.8375
680.47986	26132.4375
684.42955	25975.9375
688.37646	25884.1375
692.32058	25972.4375
696.26192	26279.3375
700.20048	26645.6375
704.13626	26973.5375
708.06928	26967.6375
711.99952	26704.1375
715.927	26565.2375
719.85171	26570.2375
723.77365	26478.7375
727.69284	26088.7375
731.60928	25769.5375
735.52295	25646.1375
739.43388	25707.0375
743.34206	25809.4375
747.24749	26008.2375
751.15017	26341.7375
755.05012	26986.7375
758.94733	28276.3375
762.8418	30946.7375
766.73354	35288.0375
770.62254	39712.0375
774.50882	41190.8375
778.39237	38672.8375
782.27321	33994.1375
786.15132	29837.0375
790.02671	27443.3375
793.89938	26241.4375
797.76935	25797.7375
801.6366	25578.1375
805.50115	25407.5375
809.36299	25249.9375
813.22213	25028.7375
817.07857	25006.0375
820.93231	24989.0375
824.78336	24996.7375
828.63172	25085.7375
832.47738	25039.3375
836.32036	25037.1375
840.16066	24963.6375
843.99827	24906.5375
847.8332	24804.9375
851.66546	24696.2375
855.49504	24683.1375
859.32195	24541.6375
863.1462	24429.2375
866.96777	24370.1375
870.78668	24304.4375
874.60293	24303.5375
878.41652	24315.8375
882.22745	24422.1375
886.03573	24552.7375
889.84136	24467.9375
893.64433	24350.2375
897.44466	24263.1375
901.24235	24202.1375
905.0374	24124.5375
908.8298	24131.8375
912.61957	24197.6375
916.40671	24421.7375
920.19121	24844.2375
923.97308	25128.0375
927.75233	25215.2375
931.52895	25198.8375
935.30295	24829.0375
939.07433	24115.9375
942.84309	23548.9375
946.60924	23227.8375
950.37278	23078.0375
954.13371	22970.0375
957.89203	22907.7375
961.64774	22840.2375
965.40086	22825.1375
969.15137	22755.8375
972.89929	22614.3375
976.64461	22546.7375
980.38733	22550.8375
984.12747	22602.7375
987.86502	22800.4375
991.59999	23063.4375
995.33237	23459.0375
999.06217	24095.3375
1002.78939	25041.8375
1006.51404	25788.3375
1010.23611	26354.5375
1013.95561	26696.6375
1017.67255	26689.0375
1021.38692	26296.5375
1025.09872	25929.5375
1028.80796	25782.3375
1032.51465	26138.1375
1036.21877	26582.0375
1039.92035	26731.0375
1043.61937	26511.6375
1047.31584	26107.6375
1051.00976	25675.8375
1054.70114	25451.2375
1058.38998	25481.5375
1062.07627	25754.2375
1065.76003	26027.5375
1069.44126	26292.5375
1073.11995	26602.3375
1076.79611	26869.0375
1080.46974	27125.8375
1084.14085	27549.9375
1087.80943	28142.6375
1091.47549	28511.6375
1095.13903	28278.8375
1098.80005	27586.9375
1102.45857	26766.2375
1106.11456	26197.0375
1109.76805	26099.7375
1113.41903	26394.2375
1117.06751	26929.8375
1120.71348	27718.7375
1124.35696	28453.6375
1127.99793	29297.5375
1131.63641	29414.3375
1135.2724	28655.5375
1138.90589	27812.1375
1142.5369	27376.3375
1146.16542	27107.0375
1149.79145	27090.4375
1153.415	27286.3375
1157.03607	27762.4375
1160.65467	28531.1375
1164.27079	29682.7375
1167.88443	31454.2375
1171.49561	34006.1375
1175.10432	37842.6375
1178.71056	42727.2375
1182.31434	46717.7375
1185.91565	48632.3375
1189.51451	48463.4375
1193.11091	46661.0375
1196.70485	43928.6375
1200.29634	41251.4375
1203.88538	38959.6375
1207.47197	36780.0375
1211.05612	35029.9375
1214.63782	33990.2375
1218.21708	33610.9375
1221.79391	33565.9375
1225.36829	33597.8375
1228.94024	33573.2375
1232.50976	33445.3375
1236.07685	33368.9375
1239.6415	33211.4375
1243.20374	33058.4375
1246.76355	33117.8375
1250.32093	33572.9375
1253.8759	34404.2375
1257.42845	35517.1375
1260.97859	36756.5375
1264.52631	37823.6375
1268.07163	38913.7375
1271.61453	40102.6375
1275.15503	41249.2375
1278.69312	42166.6375
1282.22882	42911.8375
1285.76211	43904.5375
1289.29301	45209.4375
1292.82151	46663.6375
1296.34761	48488.6375
1299.87133	51015.7375
1303.39266	54478.7375
1306.9116	59220.1375
1310.42815	64704.2375
1313.94233	68747.3375
1317.45412	69436.5375
1320.96354	67724.4375
1324.47058	65178.3375
1327.97525	62687.6375
1331.47754	60926.5375
1334.97747	60061.9375
1338.47502	60095.3375
1341.97022	60425.4375
1345.46305	60598.0375
1348.95352	60480.7375
1352.44163	60829.0375
1355.92738	62758.7375
1359.41078	67551.8375
1362.89183	72966.0375
1366.37053	71964.2375
1369.84688	63763.7375
1373.32088	54813.0375
1376.79254	49018.5375
1380.26186	46412.4375
1383.72883	45429.9375
1387.19347	44761.4375
1390.65578	44073.2375
1394.11575	43765.4375
1397.57339	44131.1375
1401.0287	45054.8375
1404.48168	46156.6375
1407.93234	46994.5375
1411.38068	47005.0375
1414.82669	46128.9375
1418.27039	44286.7375
1421.71177	42221.7375
1425.15083	40441.3375
1428.58758	39278.2375
1432.02203	38927.6375
1435.45416	39251.8375
1438.88399	39825.0375
1442.31151	40362.1375
1445.73673	40966.5375
1449.15965	41620.1375
1452.58027	42191.7375
1455.9986	42438.4375
1459.41463	42805.2375
1462.82837	43423.3375
1466.23982	44306.5375
1469.64898	45169.4375
1473.05586	45649.9375
1476.46045	45689.8375
1479.86276	45675.8375
1483.26279	45853.4375
1486.66054	46120.6375
1490.05602	46760.3375
1493.44922	47666.8375
1496.84016	48905.9375
1500.22882	51120.8375
1503.61521	54338.7375
1506.99934	58345.8375
1510.38121	62697.9375
1513.76081	65402.8375
1517.13816	64240.3375
1520.51324	59543.9375
1523.88607	54265.7375
1527.25665	50501.6375
1530.62498	48219.2375
1533.99105	46799.5375
1537.35488	45862.8375
1540.71647	45145.8375
1544.07581	44497.9375
1547.4329	43801.4375
1550.78776	43202.4375
1554.14038	42879.3375
1557.49077	43117.7375
1560.83892	43570.3375
1564.18484	44180.0375
1567.52853	44586.1375
1570.86999	44746.8375
1574.20922	45010.1375
1577.54624	45074.5375
1580.88103	44240.8375
1584.2136	43095.1375
1587.54395	43254.6375
1590.87208	44979.9375
1594.19801	47784.6375
1597.52172	50809.0375
1600.84321	51879.5375
1604.16251	49870.0375
1607.47959	46172.9375
1610.79447	42243.6375
1614.10715	38452.5375
1617.41763	35327.2375
1620.7259	33157.9375
1624.03199	31964.5375
1627.33587	31874.8375
1630.63757	32699.3375
1633.93707	34690.8375
1637.23439	37795.9375
1640.52951	41988.8375
1643.82246	46836.2375
1647.11321	51326.7375
1650.40179	53697.9375
1653.68819	51723.7375
1656.97241	45386.9375
1660.25446	38135.6375
1663.53433	32524.6375
1666.81203	28948.8375
1670.08756	26703.9375
1673.36092	25352.1375
1676.63211	24469.3375
1679.90115	23855.4375
1683.16801	23421.5375
1686.43272	23060.2375
1689.69527	22802.8375
1692.95567	22652.6375
1696.2139	22526.1375
1699.46999	22446.7375
1702.72392	22339.5375
1705.97571	22250.2375
1709.22535	22210.0375
1712.47284	22150.0375
1715.71819	22184.1375
1718.96139	22136.2375
1722.20246	22045.9375
1725.44139	21945.2375
1728.67818	21767.4375
1731.91284	21624.8375
1735.14537	21477.1375
1738.37576	21420.1375
1741.60403	21334.0375
1744.83017	21226.0375
1748.05418	21167.5375
1751.27607	21148.1375
1754.49584	21081.4375
1757.71349	21140.1375
1760.92903	21051.9375
1764.14244	20988.2375
1767.35375	21015.4375
1770.56294	20924.8375
1773.77002	20883.6375
1776.97499	20876.6375
1780.17785	20789.5375
1783.37861	20761.0375
1786.57727	20691.0375
1789.77382	20650.3375
1792.96828	20658.5375
1796.16064	20602.0375
1799.3509	20595.6375
1802.53907	20566.0375
1805.72514	20486.0375
1808.90913	20406.2375
1812.09102	20370.5375
1815.27083	20331.0375
1818.44856	20333.7375
1821.6242	20332.0375
1824.79776	20304.0375
1827.96924	20233.6375
1831.13864	20243.2375
1834.30597	20266.7375
1837.47122	20223.0375
1840.6344	20234.2375
1843.7955	20271.9375
1846.95454	20258.6375
1850.11151	20302.7375
1853.26642	20289.1375
1856.41926	20293.8375
1859.57004	20295.2375
1862.71876	20324.3375
1865.86542	20281.9375
1869.01003	20321.8375
1872.15258	20338.2375
1875.29308	20341.9375
1878.43152	20353.9375
1881.56792	20392.1375
1884.70227	20423.7375
1887.83457	20399.0375
1890.96482	20435.4375
1894.09304	20456.4375
1897.21921	20480.4375
1900.34335	20477.7375
1903.46544	20494.2375
1906.58551	20531.1375
1909.70353	20520.7375
1912.81953	20552.1375
1915.93349	20535.1375
1919.04543	20504.1375
1922.15534	20480.1375
1925.26322	20411.4375
1928.36908	20274.8375
1931.47292	20216.9375
1934.57473	20120.5375
1937.67453	19963.0375
1940.77232	19849.6375
1943.86808	19755.8375
1946.96184	19672.1375
1950.05358	19566.8375
1953.14331	19482.7375
1956.23103	19368.6375
1959.31675	19305.5375
1962.40046	19238.6375
1965.48217	19214.6375
1968.56188	19144.7375
1971.63959	19091.4375
1974.7153	19009.5375
1977.78901	18958.8375
1980.86073	18868.3375
1983.93046	18806.6375
1986.99819	18734.5375
1990.06394	18708.0375
1993.1277	18657.0375
1996.18947	18554.7375
1999.24925	18510.4375
2002.30706	18464.8375
2005.36288	18419.7375
2008.41672	18346.3375
2011.46859	18295.4375
2014.51848	18228.0375
2017.56639	18211.3375
2020.61233	18153.5375
2023.6563	18140.6375
2026.6983	18100.5375
2029.73833	18027.9375
2032.7764	17983.5375
2035.8125	17966.0375
2038.84664	17949.8375
2041.87881	17935.5375
2044.90903	17884.6375
2047.93729	17853.5375
2050.96359	17873.8375
2053.98794	17845.9375
2057.01034	17823.5375
2060.03078	17788.8375
2063.04927	17761.7375
2066.06582	17746.1375
2069.08042	17712.4375
2072.09307	17697.5375
2075.10378	17693.8375
2078.11255	17673.9375
2081.11938	17628.9375
2084.12426	17634.4375
2087.12722	17613.1375
2090.12824	17617.1375
2093.12732	17603.9375
2096.12447	17627.1375
2099.11969	17630.2375
2102.11299	17634.1375
2105.10435	17625.1375
2108.09379	17604.6375
2111.08131	17644.3375
2114.0669	17630.8375
2117.05057	17647.8375
2120.03233	17640.2375
2123.01216	17644.0375
2125.99008	17682.5375
2128.96609	17700.7375
2131.94018	17699.5375
2134.91236	17719.2375
2137.88263	17751.0375
2140.851	17737.8375
2143.81746	17762.6375
2146.78201	17742.6375
2149.74466	17728.7375
2152.7054	17746.3375
2155.66425	17721.2375
2158.6212	17720.3375
2161.57625	17724.1375
2164.52941	17681.4375
2167.48067	17702.8375
2170.43004	17712.3375
2173.37752	17688.4375
2176.32311	17693.3375
2179.26681	17700.0375
2182.20863	17665.5375
2185.14856	17689.4375
2188.08661	17676.8375
2191.02278	17688.4375
2193.95707	17685.4375
2196.88948	17623.7375
2199.82001	17646.2375
2202.74867	17636.6375
2205.67545	17647.7375
2208.60037	17613.1375
2211.52341	17607.0375
2214.44458	17574.3375
2217.36388	17544.4375
2220.28132	17512.7375
2223.1969	17481.6375
2226.11061	17462.3375
2229.02246	17385.4375
2231.93245	17379.9375
2234.84058	17348.4375
2237.74686	17317.5375
2240.65128	17300.7375
2243.55385	17269.3375
2246.45456	17257.6375
2249.35343	17224.9375
2252.25044	17229.1375
2255.14561	17195.7375
2258.03893	17198.1375
2260.93041	17154.7375
2263.82004	17154.2375
2266.70783	17096.6375
2269.59378	17035.5375
2272.4779	16986.3375
2275.36017	16951.5375
2278.24061	16922.0375
2281.11922	16880.5375
2283.996	16869.3375
2286.87094	16854.7375
2289.74405	16810.6375
2292.61534	16777.6375
2295.4848	16787.5375
2298.35243	16761.3375
2301.21824	16757.9375
2304.08223	16761.5375
2306.94439	16765.9375
2309.80474	16770.9375
2312.66327	16770.5375
2315.51999	16798.2375
2318.37489	16765.1375
2321.22797	16724.0375
2324.07925	16725.3375
2326.92871	16714.0375
2329.77637	16700.4375
2332.62222	16674.9375
2335.46626	16693.5375
2338.3085	16688.2375
2341.14893	16691.7375
2343.98756	16710.6375
2346.8244	16706.9375
2349.65943	16726.8375
2352.49267	16745.3375
2355.32411	16727.9375
2358.15376	16738.6375
2360.98161	16728.7375
2363.80768	16743.2375
2366.63195	16726.3375
2369.45444	16676.6375
2372.27514	16692.0375
2375.09405	16651.6375
2377.91118	16595.6375
2380.72652	16558.5375
2383.54009	16529.4375
2386.35187	16479.1375
2389.16188	16398.8375
2391.97011	16386.9375
2394.77657	16367.0375
2397.58125	16315.7375
2400.38416	16299.0375
2403.18529	16267.6375
2405.98466	16224.8375
2408.78226	16210.6375
2411.57809	16206.2375
2414.37216	16153.4375
2417.16446	16146.4375
2419.955	16175.2375
2422.74378	16120.1375
2425.5308	16126.3375
2428.31606	16118.3375
2431.09956	16089.0375
2433.88131	16067.4375
2436.6613	16084.3375
2439.43954	16077.0375
2442.21603	16058.9375
2444.99077	16045.6375
2447.76377	16051.4375
2450.53501	15996.4375
2453.30451	16054.6375
2456.07226	16023.9375
2458.83827	16046.4375
2461.60254	16036.9375
2464.36507	16039.7375
2467.12586	16038.4375
2469.88492	16017.9375
2472.64224	16024.5375
2475.39782	16043.6375
2478.15167	16072.7375
2480.90379	16071.5375
2483.65417	16082.4375
2486.40283	16123.3375
2489.14976	16141.0375
2491.89497	16162.8375
2494.63845	16193.7375
2497.3802	16170.7375
2500.12024	16160.2375
2502.85855	16147.4375
2505.59514	16149.1375
2508.33002	16123.8375
2511.06318	16111.7375
2513.79462	16057.1375
2516.52435	16041.8375
2519.25237	16006.0375
2521.97867	15971.2375
2524.70327	15977.4375
2527.42616	15927.1375
2530.14734	15930.8375
2532.86681	15921.2375
2535.58458	15936.6375
2538.30065	15907.6375
2541.01501	15891.8375
2543.72768	15851.1375
2546.43864	15845.2375
2549.14791	15838.4375
2551.85548	15837.7375
2554.56136	15812.4375
2557.26554	15815.2375
2559.96803	15825.9375
2562.66883	15773.1375
2565.36794	15772.9375
2568.06536	15779.4375
2570.7611	15760.0375
2573.45514	15724.4375
2576.14751	15704.0375
2578.83819	15720.4375
2581.52719	15695.2375
2584.21451	15689.7375
2586.90015	15709.9375
2589.58411	15667.3375
2592.2664	15678.9375
2594.94701	15690.9375
2597.62594	15694.3375
2600.30321	15647.9375
2602.9788	15656.7375
2605.65273	15619.0375
2608.32498	15619.8375
2610.99557	15640.0375
2613.66449	15676.2375
2616.33175	15669.4375
2618.99734	15652.6375
2621.66128	15647.4375
2624.32355	15670.8375
2626.98416	15670.0375
2629.64311	15654.6375
2632.30041	15681.9375
2634.95605	15652.5375
2637.61004	15658.3375
2640.26238	15622.0375
2642.91306	15576.0375
2645.56209	15539.6375
2648.20948	15554.1375
2650.85521	15540.7375
2653.4993	15528.7375
2656.14175	15555.9375
2658.78255	15599.3375
2661.42171	15567.5375
2664.05923	15576.7375
2666.6951	15608.0375
2669.32934	15636.7375
2671.96194	15648.4375
2674.59291	15681.0375
2677.22224	15657.0375
2679.84993	15676.6375
2682.476	15640.6375
2685.10043	15662.1375
2687.72324	15657.9375
2690.34441	15634.1375
2692.96396	15624.9375
2695.58188	15635.5375
2698.19818	15612.4375
2700.81285	15617.2375
2703.4259	15615.3375
2706.03733	15666.8375
2708.64714	15662.5375
2711.25533	15679.6375
2713.86191	15613.8375
2716.46687	15636.2375
2719.07021	15638.0375
2721.67194	15665.6375
2724.27206	15660.3375
2726.87057	15689.7375
2729.46747	15646.0375
2732.06276	15679.5375
2734.65644	15620.6375
2737.24852	15636.2375
2739.83899	15625.3375
2742.42786	15631.6375
2745.01513	15611.3375
2747.60079	15619.7375
2750.18486	15633.3375
2752.76733	15603.4375
2755.3482	15626.8375
2757.92747	15641.7375
2760.50515	15605.5375
2763.08123	15622.3375
2765.65573	15587.9375
2768.22863	15564.3375
2770.79994	15573.7375
2773.36967	15563.3375
2775.9378	15531.8375
2778.50435	15565.6375
2781.06932	15554.1375
2783.6327	15565.0375
2786.1945	15571.2375
2788.75471	15535.2375
2791.31335	15488.0375
2793.87041	15463.6375
2796.42589	15445.0375
2798.97979	15421.7375
2801.53212	15417.6375
2804.08288	15430.8375
2806.63206	15403.9375
2809.17967	15353.2375
2811.72571	15330.6375
2814.27018	15371.5375
2816.81308	15307.2375
2819.35442	15313.3375
2821.89419	15267.6375
2824.43239	15295.6375
2826.96904	15307.9375
2829.50412	15332.9375
2832.03763	15277.3375
2834.56959	15276.6375
2837.1	15247.7375
2839.62884	15263.0375
2842.15613	15290.4375
2844.68186	15329.8375
2847.20604	15378.7375
2849.72867	15381.8375
2852.24974	15402.8375
2854.76927	15388.7375
2857.28724	15355.3375
2859.80367	15340.1375
2862.31855	15317.2375
2864.83189	15317.7375
2867.34368	15264.6375
2869.85393	15292.4375
2872.36264	15239.1375
2874.8698	15275.5375
2877.37543	15290.6375
2879.87952	15228.4375
2882.38207	15307.9375
2884.88308	15251.4375
2887.38256	15270.9375
2889.88051	15269.7375
2892.37692	15279.8375
2894.8718	15288.4375
2897.36515	15287.0375
2899.85698	15278.7375
2902.34727	15304.0375
2904.83604	15316.4375
2907.32328	15320.8375
2909.809	15345.1375
2912.29319	15313.6375
2914.77587	15298.3375
2917.25702	15268.6375
2919.73665	15283.1375
2922.21476	15295.1375
2924.69136	15301.9375
2927.16644	15304.5375
2929.64	15267.7375
2932.11205	15234.1375
2934.58258	15194.0375
2937.05161	15212.9375
2939.51912	15202.8375
2941.98513	15173.7375
2944.44962	15114.8375
2946.91261	15022.0375
2949.37409	15054.6375
2951.83407	14983.6375
2954.29254	15013.8375
2956.74951	14956.0375
2959.20498	14957.3375
2961.65895	14908.5375
2964.11142	14901.8375
2966.56239	14880.6375
2969.01186	14841.6375
2971.45984	14797.9375
2973.90632	14802.0375
2976.35131	14708.7375
2978.7948	14677.3375
2981.23681	14653.1375
2983.67732	14622.5375
2986.11635	14610.1375
2988.55388	14550.3375
2990.98993	14544.0375
2993.4245	14473.7375
2995.85758	14476.5375
2998.28917	14427.1375
3000.71928	14416.9375
3003.14791	14385.6375
3005.57506	14360.4375
3008.00073	14329.8375
3010.42493	14305.3375
3012.84764	14296.3375
3015.26888	14299.4375
3017.68865	14232.2375
3020.10694	14233.9375
3022.52376	14190.4375
3024.9391	14161.2375
3027.35298	14102.6375
3029.76539	14056.6375
3032.17632	14038.0375
3034.5858	14024.4375
3036.9938	14047.2375
3039.40034	14009.6375
3041.80542	14013.4375
3044.20903	13984.1375
3046.61118	13998.0375
3049.01187	13918.9375
3051.4111	13911.1375
3053.80888	13873.8375
3056.20519	13843.4375
3058.60005	13814.5375
3060.99345	13793.9375
3063.3854	13771.5375
3065.7759	13707.5375
3068.16494	13668.8375
3070.55254	13618.4375
3072.93868	13572.2375
3075.32338	13543.0375
3077.70662	13529.1375
3080.08842	13467.9375
3082.46878	13452.2375
3084.84769	13403.0375
3087.22515	13429.8375
3089.60118	13402.0375
3091.97576	13398.8375
3094.3489	13357.4375
3096.72061	13327.7375
3099.09087	13342.6375
3101.4597	13324.3375
3103.82709	13301.3375
3106.19305	13299.2375
3108.55757	13269.9375
3110.92066	13224.4375
3113.28232	13192.7375
3115.64255	13161.6375
3118.00134	13140.0375
3120.35871	13126.4375
3122.71466	13097.7375
3125.06917	13054.9375
3127.42226	13026.0375
3129.77393	13068.6375
3132.12417	13014.3375
3134.47299	13019.5375
3136.82039	12990.4375
3139.16636	12995.8375
3141.51092	12966.8375
3143.85406	12982.3375
3146.19579	12998.3375
3148.53609	12964.2375
3150.87499	12974.3375
3153.21246	12956.7375
3155.54853	12982.1375
3157.88318	12960.6375
3160.21642	12955.9375
3162.54826	12956.5375
3164.87868	12939.3375
3167.2077	12924.7375
3169.5353	12932.8375
3171.86151	12890.8375
3174.18631	12889.4375
3176.5097	12882.8375
3178.83169	12864.4375
3181.15228	12868.7375
3183.47147	12834.4375
3185.78926	12841.6375
3188.10565	12840.7375
3190.42065	12859.0375
3192.73424	12836.8375
3195.04645	12850.2375
3197.35725	12839.7375
3199.66667	12818.9375
3201.97469	12836.3375
3204.28132	12819.2375
3206.58656	12828.9375
3208.8904	12837.8375
3211.19287	12828.4375
3213.49394	12854.9375
3215.79363	12828.8375
3218.09193	12830.5375
3220.38884	12814.8375
3222.68438	12808.6375
3224.97853	12788.6375
3227.2713	12782.0375
3229.56269	12760.9375
3231.8527	12758.5375
3234.14133	12725.8375
3236.42858	12692.8375
3238.71446	12708.9375
3240.99896	12672.0375
3243.28209	12673.3375
3245.56384	12651.7375
3247.84423	12644.2375
3250.12324	12617.1375
3252.40088	12628.5375
3254.67715	12586.1375
3256.95205	12578.3375
3259.22558	12558.8375
3261.49775	12554.1375
3263.76855	12523.8375
3266.03799	12493.8375
3268.30606	12473.4375
3270.57277	12438.1375
3272.83812	12438.4375
3275.10211	12402.6375
3277.36474	12432.3375
3279.62601	12440.7375
3281.88593	12374.3375
3284.14448	12395.1375
3286.40168	12380.9375
3288.65753	12375.3375
3290.91202	12326.2375
3293.16516	12292.6375
3295.41695	12272.0375
3297.66738	12218.5375
3299.91647	12147.0375
3302.16421	12071.0375
3304.4106	12032.9375
3306.65564	11968.4375
3308.89933	11890.8375
3311.14169	11816.9375
3313.38269	11720.6375
3315.62236	11649.3375
3317.86068	11543.0375
3320.09766	11420.9375
3322.3333	11314.0375
3324.5676	11333.6375
3326.80056	11130.7375
3329.03219	11072.5375
3331.26248	2.2375
3333.49143	-0.1625
3335.71905	-1.3625
