Data from AgNPs_FTO_APTES_UA_2uM_CRN_50uM_R6G_10uM_NaF_0.1M_Addition_RamanShift__16__14-54-55-249.txt Node

Date: Wed Feb 02 14:54:55 GMT 2022
User: TCL
Spectrometer: QEP01345
Trigger mode: 4
Integration Time (sec): 7.000000E0
Scans to average: 10
Electric dark correction enabled: true
Nonlinearity correction enabled: false
Boxcar width: 0
XAxis mode: Raman Shifts
Number of Pixels in Spectrum: 1044
>>>>>Begin Spectral Data<<<<<
46.04893	-0.0625
50.45542	0.9375
54.85868	-0.4625
59.25871	-0.7625
63.6555	87.6375
68.04907	95.5375
72.43941	98.1375
76.82654	108.9375
81.21044	111.8375
85.59113	113.2375
89.96862	116.7375
94.34289	121.3375
98.71396	120.8375
103.08183	134.3375
107.4465	135.0375
111.80798	134.6375
116.16626	139.8375
120.52136	145.7375
124.87327	151.6375
129.222	157.1375
133.56755	169.1375
137.90993	179.2375
142.24913	200.2375
146.58517	224.5375
150.91804	256.9375
155.24774	303.1375
159.57429	377.6375
163.89768	484.6375
168.21792	630.3375
172.53501	868.9375
176.84895	1203.7375
181.15975	1704.9375
185.46741	2382.2375
189.77193	3266.3375
194.07331	4369.2375
198.37157	5620.2375
202.6667	6933.2375
206.9587	8229.2375
211.24758	9495.7375
215.53334	10784.8375
219.81599	12140.1375
224.09553	13651.7375
228.37195	15296.0375
232.64527	17107.7375
236.91549	18969.9375
241.18261	20833.6375
245.44663	22630.7375
249.70755	24266.1375
253.96539	25675.3375
258.22014	26934.0375
262.4718	27956.4375
266.72039	28765.0375
270.96589	29227.9375
275.20832	29407.6375
279.44768	29411.9375
283.68397	29387.2375
287.91719	29341.2375
292.14735	29380.7375
296.37445	29535.4375
300.59849	29645.2375
304.81948	29633.5375
309.03742	29360.1375
313.25231	28764.3375
317.46415	27928.5375
321.67296	26960.9375
325.87872	26102.3375
330.08145	25708.8375
334.28114	25545.8375
338.47781	25666.6375
342.67145	25880.4375
346.86207	26259.2375
351.04966	26719.5375
355.23424	27133.1375
359.4158	27498.2375
363.59435	27703.9375
367.76989	27896.4375
371.94243	28021.7375
376.11196	28121.3375
380.27849	28238.5375
384.44203	28360.2375
388.60257	28674.4375
392.76012	29034.0375
396.91468	29449.9375
401.06626	29899.4375
405.21485	30167.6375
409.36047	29991.4375
413.50311	29544.2375
417.64277	29241.8375
421.77947	29164.3375
425.9132	29313.0375
430.04396	29507.6375
434.17176	29692.6375
438.2966	29928.1375
442.41849	30354.7375
446.53742	31135.9375
450.6534	32068.4375
454.76644	32836.3375
458.87653	33180.7375
462.98368	33256.6375
467.08789	33089.1375
471.18916	32866.1375
475.2875	32768.2375
479.38291	32959.1375
483.4754	32881.7375
487.56496	32412.1375
491.6516	31556.2375
495.73531	30712.4375
499.81612	30221.9375
503.89401	30205.6375
507.96899	30207.8375
512.04106	30104.2375
516.11023	29787.4375
520.1765	29352.4375
524.23987	28892.4375
528.30034	28478.1375
532.35792	28167.3375
536.41261	27849.3375
540.46441	27689.3375
544.51333	27910.3375
548.55936	28469.7375
552.60252	29288.5375
556.64279	30176.2375
560.6802	30845.4375
564.71473	31221.0375
568.7464	31833.2375
572.7752	32762.0375
576.80114	33588.5375
580.82422	34175.7375
584.84444	34545.9375
588.86181	34723.2375
592.87633	34865.2375
596.888	34925.1375
600.89682	34861.7375
604.9028	35548.2375
608.90594	37651.0375
612.90624	39381.8375
616.90371	36524.6375
620.89834	30895.5375
624.89015	28527.1375
628.87913	28423.6375
632.86528	28701.6375
636.84862	28695.5375
640.82913	28292.7375
644.80683	27473.7375
648.78172	26824.8375
652.75379	26565.2375
656.72306	26687.4375
660.68952	27000.5375
664.65319	26874.9375
668.61405	26435.0375
672.57211	26284.3375
676.52738	26382.4375
680.47986	26340.1375
684.42955	26225.3375
688.37646	26133.6375
692.32058	26184.2375
696.26192	26492.1375
700.20048	26759.4375
704.13626	27031.3375
708.06928	27081.5375
711.99952	26983.5375
715.927	26913.3375
719.85171	26866.0375
723.77365	26806.4375
727.69284	26485.5375
731.60928	26165.9375
735.52295	26012.7375
739.43388	25986.2375
743.34206	26033.6375
747.24749	26142.4375
751.15017	26471.0375
755.05012	27063.6375
758.94733	28105.4375
762.8418	29713.6375
766.73354	32042.8375
770.62254	34036.3375
774.50882	34093.7375
778.39237	32129.0375
782.27321	29606.9375
786.15132	27686.8375
790.02671	26558.0375
793.89938	25958.0375
797.76935	25726.1375
801.6366	25682.0375
805.50115	25670.5375
809.36299	25522.9375
813.22213	25355.9375
817.07857	25229.7375
820.93231	25147.6375
824.78336	25034.9375
828.63172	24848.5375
832.47738	24746.1375
836.32036	24693.8375
840.16066	24731.5375
843.99827	24745.5375
847.8332	24679.2375
851.66546	24569.6375
855.49504	24551.6375
859.32195	24526.2375
863.1462	24423.8375
866.96777	24337.5375
870.78668	24223.8375
874.60293	24226.6375
878.41652	24191.6375
882.22745	24286.4375
886.03573	24304.1375
889.84136	24316.5375
893.64433	24265.4375
897.44466	24165.2375
901.24235	24068.8375
905.0374	23979.5375
908.8298	23936.8375
912.61957	24029.6375
916.40671	24323.9375
920.19121	24770.7375
923.97308	25086.8375
927.75233	25008.8375
931.52895	24702.4375
935.30295	24282.0375
939.07433	23744.1375
942.84309	23291.6375
946.60924	23075.0375
950.37278	23008.7375
954.13371	22993.8375
957.89203	22957.1375
961.64774	23032.0375
965.40086	22996.6375
969.15137	22879.9375
972.89929	22704.9375
976.64461	22558.4375
980.38733	22467.4375
984.12747	22549.4375
987.86502	22710.4375
991.59999	22958.7375
995.33237	23290.5375
999.06217	23881.7375
1002.78939	24597.3375
1006.51404	25008.6375
1010.23611	25244.3375
1013.95561	25501.9375
1017.67255	25572.4375
1021.38692	25317.3375
1025.09872	25033.1375
1028.80796	24981.9375
1032.51465	25366.7375
1036.21877	25905.1375
1039.92035	26033.7375
1043.61937	25810.0375
1047.31584	25474.2375
1051.00976	25097.6375
1054.70114	24975.5375
1058.38998	25165.2375
1062.07627	25521.9375
1065.76003	25879.3375
1069.44126	26134.7375
1073.11995	26479.1375
1076.79611	26750.0375
1080.46974	26854.8375
1084.14085	27005.3375
1087.80943	27338.5375
1091.47549	27666.0375
1095.13903	27782.0375
1098.80005	27561.9375
1102.45857	26879.8375
1106.11456	26211.1375
1109.76805	25887.2375
1113.41903	25874.3375
1117.06751	26015.7375
1120.71348	26307.8375
1124.35696	26619.7375
1127.99793	26992.3375
1131.63641	27267.0375
1135.2724	27176.9375
1138.90589	27100.1375
1142.5369	27188.6375
1146.16542	27448.6375
1149.79145	27818.5375
1153.415	28348.2375
1157.03607	29058.5375
1160.65467	30123.6375
1164.27079	31670.4375
1167.88443	33635.1375
1171.49561	35982.5375
1175.10432	38915.0375
1178.71056	42395.1375
1182.31434	45650.4375
1185.91565	47627.9375
1189.51451	47934.4375
1193.11091	47150.4375
1196.70485	45522.9375
1200.29634	43431.4375
1203.88538	41755.4375
1207.47197	40618.4375
1211.05612	39862.2375
1214.63782	39084.5375
1218.21708	38049.4375
1221.79391	36988.7375
1225.36829	36151.1375
1228.94024	35488.5375
1232.50976	34766.6375
1236.07685	34209.4375
1239.6415	33963.8375
1243.20374	33983.2375
1246.76355	34267.7375
1250.32093	34719.4375
1253.8759	35534.6375
1257.42845	36642.9375
1260.97859	37799.9375
1264.52631	38912.7375
1268.07163	40102.7375
1271.61453	41301.8375
1275.15503	42764.5375
1278.69312	44338.5375
1282.22882	45803.5375
1285.76211	47276.2375
1289.29301	49198.8375
1292.82151	51611.4375
1296.34761	54731.3375
1299.87133	58257.9375
1303.39266	61811.7375
1306.9116	65018.0375
1310.42815	67880.3375
1313.94233	69650.4375
1317.45412	70084.9375
1320.96354	69851.3375
1324.47058	69794.3375
1327.97525	69733.6375
1331.47754	69606.9375
1334.97747	69551.5375
1338.47502	69528.1375
1341.97022	69056.6375
1345.46305	67859.7375
1348.95352	65957.5375
1352.44163	63821.6375
1355.92738	62532.3375
1359.41078	62613.5375
1362.89183	63124.5375
1366.37053	61756.6375
1369.84688	57562.4375
1373.32088	52556.1375
1376.79254	49041.1375
1380.26186	47952.8375
1383.72883	48417.9375
1387.19347	49047.6375
1390.65578	49413.0375
1394.11575	49804.0375
1397.57339	50713.0375
1401.0287	51832.6375
1404.48168	52665.5375
1407.93234	52448.7375
1411.38068	50994.2375
1414.82669	48681.1375
1418.27039	45872.4375
1421.71177	43131.5375
1425.15083	41017.2375
1428.58758	39819.1375
1432.02203	39815.3375
1435.45416	40782.4375
1438.88399	42353.9375
1442.31151	43895.9375
1445.73673	45096.1375
1449.15965	46322.2375
1452.58027	47307.1375
1455.9986	47942.1375
1459.41463	48548.6375
1462.82837	49232.8375
1466.23982	49955.0375
1469.64898	50400.4375
1473.05586	50493.4375
1476.46045	50079.7375
1479.86276	49260.3375
1483.26279	48310.4375
1486.66054	47537.0375
1490.05602	47308.5375
1493.44922	47319.7375
1496.84016	47614.1375
1500.22882	48314.1375
1503.61521	49513.6375
1506.99934	50964.5375
1510.38121	52371.8375
1513.76081	52868.9375
1517.13816	52305.9375
1520.51324	50939.5375
1523.88607	49987.2375
1527.25665	49575.2375
1530.62498	49522.5375
1533.99105	49562.1375
1537.35488	49289.5375
1540.71647	48514.4375
1544.07581	47269.3375
1547.4329	45954.3375
1550.78776	44742.6375
1554.14038	43986.8375
1557.49077	43627.5375
1560.83892	43398.9375
1564.18484	43333.7375
1567.52853	43322.5375
1570.86999	43618.3375
1574.20922	44420.4375
1577.54624	45387.8375
1580.88103	46089.7375
1584.2136	46999.8375
1587.54395	48557.3375
1590.87208	50722.7375
1594.19801	53389.9375
1597.52172	55822.7375
1600.84321	56182.1375
1604.16251	53563.3375
1607.47959	49268.7375
1610.79447	44726.2375
1614.10715	40438.1375
1617.41763	36897.3375
1620.7259	34282.2375
1624.03199	32871.2375
1627.33587	32684.7375
1630.63757	33726.3375
1633.93707	36192.0375
1637.23439	40291.8375
1640.52951	45892.9375
1643.82246	52108.7375
1647.11321	56667.0375
1650.40179	57354.3375
1653.68819	53411.5375
1656.97241	46359.2375
1660.25446	39083.3375
1663.53433	33285.6375
1666.81203	29373.6375
1670.08756	26856.3375
1673.36092	25257.6375
1676.63211	24182.7375
1679.90115	23448.1375
1683.16801	22893.9375
1686.43272	22508.4375
1689.69527	22213.8375
1692.95567	21970.6375
1696.2139	21813.4375
1699.46999	21707.6375
1702.72392	21546.5375
1705.97571	21409.7375
1709.22535	21325.1375
1712.47284	21215.2375
1715.71819	21124.5375
1718.96139	21058.7375
1722.20246	20939.0375
1725.44139	20833.7375
1728.67818	20698.3375
1731.91284	20562.4375
1735.14537	20435.9375
1738.37576	20354.7375
1741.60403	20249.6375
1744.83017	20143.5375
1748.05418	20125.5375
1751.27607	20105.9375
1754.49584	20084.6375
1757.71349	20023.0375
1760.92903	20024.1375
1764.14244	19966.7375
1767.35375	19932.9375
1770.56294	19877.6375
1773.77002	19789.6375
1776.97499	19737.2375
1780.17785	19682.7375
1783.37861	19661.8375
1786.57727	19622.5375
1789.77382	19539.9375
1792.96828	19492.1375
1796.16064	19470.3375
1799.3509	19395.5375
1802.53907	19373.7375
1805.72514	19292.5375
1808.90913	19225.2375
1812.09102	19200.0375
1815.27083	19205.5375
1818.44856	19176.1375
1821.6242	19099.9375
1824.79776	19089.4375
1827.96924	19109.1375
1831.13864	19064.6375
1834.30597	19105.2375
1837.47122	19114.6375
1840.6344	19083.4375
1843.7955	19111.3375
1846.95454	19126.8375
1850.11151	19103.0375
1853.26642	19128.4375
1856.41926	19079.6375
1859.57004	19084.6375
1862.71876	19055.4375
1865.86542	19013.7375
1869.01003	19024.8375
1872.15258	19007.0375
1875.29308	18992.8375
1878.43152	18954.9375
1881.56792	18934.8375
1884.70227	18899.4375
1887.83457	18913.9375
1890.96482	18862.5375
1894.09304	18845.6375
1897.21921	18837.6375
1900.34335	18847.5375
1903.46544	18802.5375
1906.58551	18814.4375
1909.70353	18736.4375
1912.81953	18694.5375
1915.93349	18658.4375
1919.04543	18603.0375
1922.15534	18576.9375
1925.26322	18479.6375
1928.36908	18436.1375
1931.47292	18388.5375
1934.57473	18308.9375
1937.67453	18275.0375
1940.77232	18206.1375
1943.86808	18164.6375
1946.96184	18129.9375
1950.05358	18063.3375
1953.14331	17960.5375
1956.23103	17899.0375
1959.31675	17875.3375
1962.40046	17786.2375
1965.48217	17739.8375
1968.56188	17695.2375
1971.63959	17579.2375
1974.7153	17602.3375
1977.78901	17514.7375
1980.86073	17469.8375
1983.93046	17426.3375
1986.99819	17341.6375
1990.06394	17305.3375
1993.1277	17254.8375
1996.18947	17146.0375
1999.24925	17103.0375
2002.30706	17083.2375
2005.36288	17037.0375
2008.41672	17006.5375
2011.46859	16922.4375
2014.51848	16891.8375
2017.56639	16812.0375
2020.61233	16764.3375
2023.6563	16750.6375
2026.6983	16725.7375
2029.73833	16707.7375
2032.7764	16656.1375
2035.8125	16624.1375
2038.84664	16584.6375
2041.87881	16570.2375
2044.90903	16554.9375
2047.93729	16522.2375
2050.96359	16483.5375
2053.98794	16491.1375
2057.01034	16477.5375
2060.03078	16470.8375
2063.04927	16429.9375
2066.06582	16439.5375
2069.08042	16412.1375
2072.09307	16420.7375
2075.10378	16388.2375
2078.11255	16347.1375
2081.11938	16343.0375
2084.12426	16313.9375
2087.12722	16316.7375
2090.12824	16303.2375
2093.12732	16314.8375
2096.12447	16320.1375
2099.11969	16330.9375
2102.11299	16334.8375
2105.10435	16343.0375
2108.09379	16326.6375
2111.08131	16354.4375
2114.0669	16341.6375
2117.05057	16353.5375
2120.03233	16360.8375
2123.01216	16374.8375
2125.99008	16392.6375
2128.96609	16397.1375
2131.94018	16391.6375
2134.91236	16398.1375
2137.88263	16385.4375
2140.851	16409.2375
2143.81746	16409.6375
2146.78201	16441.1375
2149.74466	16432.4375
2152.7054	16398.7375
2155.66425	16387.6375
2158.6212	16425.3375
2161.57625	16374.2375
2164.52941	16403.1375
2167.48067	16360.1375
2170.43004	16336.5375
2173.37752	16321.6375
2176.32311	16319.9375
2179.26681	16342.6375
2182.20863	16317.8375
2185.14856	16327.4375
2188.08661	16342.5375
2191.02278	16329.7375
2193.95707	16299.9375
2196.88948	16297.8375
2199.82001	16296.9375
2202.74867	16265.6375
2205.67545	16266.6375
2208.60037	16241.4375
2211.52341	16208.2375
2214.44458	16189.5375
2217.36388	16197.3375
2220.28132	16154.8375
2223.1969	16155.1375
2226.11061	16100.5375
2229.02246	16071.5375
2231.93245	16054.1375
2234.84058	15989.1375
2237.74686	15972.2375
2240.65128	15915.9375
2243.55385	15920.5375
2246.45456	15893.1375
2249.35343	15888.0375
2252.25044	15842.2375
2255.14561	15820.9375
2258.03893	15796.7375
2260.93041	15762.4375
2263.82004	15689.2375
2266.70783	15688.2375
2269.59378	15617.0375
2272.4779	15568.1375
2275.36017	15532.5375
2278.24061	15538.3375
2281.11922	15482.3375
2283.996	15480.4375
2286.87094	15470.6375
2289.74405	15419.8375
2292.61534	15391.6375
2295.4848	15399.1375
2298.35243	15397.7375
2301.21824	15376.8375
2304.08223	15380.6375
2306.94439	15383.5375
2309.80474	15394.0375
2312.66327	15373.0375
2315.51999	15385.6375
2318.37489	15369.5375
2321.22797	15363.2375
2324.07925	15337.8375
2326.92871	15309.1375
2329.77637	15302.9375
2332.62222	15301.7375
2335.46626	15276.2375
2338.3085	15302.2375
2341.14893	15291.0375
2343.98756	15298.3375
2346.8244	15299.1375
2349.65943	15276.3375
2352.49267	15304.4375
2355.32411	15292.4375
2358.15376	15265.1375
2360.98161	15274.3375
2363.80768	15251.7375
2366.63195	15220.9375
2369.45444	15214.0375
2372.27514	15197.2375
2375.09405	15178.0375
2377.91118	15130.3375
2380.72652	15101.0375
2383.54009	15104.1375
2386.35187	15086.1375
2389.16188	15021.0375
2391.97011	14983.7375
2394.77657	14967.8375
2397.58125	14953.8375
2400.38416	14903.3375
2403.18529	14876.3375
2405.98466	14866.3375
2408.78226	14873.0375
2411.57809	14860.7375
2414.37216	14842.7375
2417.16446	14803.1375
2419.955	14762.6375
2422.74378	14788.6375
2425.5308	14780.8375
2428.31606	14777.9375
2431.09956	14751.4375
2433.88131	14705.1375
2436.6613	14718.7375
2439.43954	14718.7375
2442.21603	14740.1375
2444.99077	14701.2375
2447.76377	14686.8375
2450.53501	14711.2375
2453.30451	14686.7375
2456.07226	14707.1375
2458.83827	14703.6375
2461.60254	14728.6375
2464.36507	14711.3375
2467.12586	14695.3375
2469.88492	14682.1375
2472.64224	14716.4375
2475.39782	14712.6375
2478.15167	14726.1375
2480.90379	14726.3375
2483.65417	14740.3375
2486.40283	14739.7375
2489.14976	14746.7375
2491.89497	14743.4375
2494.63845	14755.3375
2497.3802	14761.0375
2500.12024	14736.6375
2502.85855	14740.9375
2505.59514	14748.1375
2508.33002	14761.0375
2511.06318	14748.7375
2513.79462	14713.7375
2516.52435	14735.3375
2519.25237	14723.5375
2521.97867	14686.4375
2524.70327	14682.1375
2527.42616	14673.7375
2530.14734	14677.9375
2532.86681	14663.7375
2535.58458	14681.1375
2538.30065	14646.1375
2541.01501	14644.6375
2543.72768	14631.1375
2546.43864	14620.0375
2549.14791	14594.7375
2551.85548	14578.8375
2554.56136	14586.1375
2557.26554	14580.9375
2559.96803	14561.4375
2562.66883	14524.7375
2565.36794	14553.2375
2568.06536	14543.9375
2570.7611	14548.4375
2573.45514	14522.7375
2576.14751	14519.9375
2578.83819	14487.5375
2581.52719	14501.5375
2584.21451	14461.1375
2586.90015	14503.5375
2589.58411	14476.0375
2592.2664	14479.6375
2594.94701	14464.7375
2597.62594	14490.9375
2600.30321	14460.3375
2602.9788	14479.2375
2605.65273	14447.9375
2608.32498	14445.5375
2610.99557	14480.3375
2613.66449	14455.0375
2616.33175	14476.2375
2618.99734	14485.4375
2621.66128	14470.8375
2624.32355	14496.3375
2626.98416	14471.6375
2629.64311	14477.9375
2632.30041	14501.3375
2634.95605	14496.8375
2637.61004	14476.2375
2640.26238	14460.8375
2642.91306	14478.1375
2645.56209	14453.3375
2648.20948	14438.0375
2650.85521	14446.3375
2653.4993	14459.1375
2656.14175	14426.3375
2658.78255	14466.7375
2661.42171	14466.4375
2664.05923	14480.4375
2666.6951	14495.0375
2669.32934	14501.4375
2671.96194	14497.2375
2674.59291	14467.6375
2677.22224	14500.3375
2679.84993	14510.1375
2682.476	14474.6375
2685.10043	14474.5375
2687.72324	14441.9375
2690.34441	14449.1375
2692.96396	14459.2375
2695.58188	14470.2375
2698.19818	14422.9375
2700.81285	14444.8375
2703.4259	14472.1375
2706.03733	14498.8375
2708.64714	14484.2375
2711.25533	14481.9375
2713.86191	14477.8375
2716.46687	14506.9375
2719.07021	14524.8375
2721.67194	14573.9375
2724.27206	14539.4375
2726.87057	14592.6375
2729.46747	14612.9375
2732.06276	14569.0375
2734.65644	14564.4375
2737.24852	14550.2375
2739.83899	14545.1375
2742.42786	14551.3375
2745.01513	14501.7375
2747.60079	14507.1375
2750.18486	14508.8375
2752.76733	14514.0375
2755.3482	14522.2375
2757.92747	14585.7375
2760.50515	14554.8375
2763.08123	14591.9375
2765.65573	14567.9375
2768.22863	14554.3375
2770.79994	14503.4375
2773.36967	14560.3375
2775.9378	14543.0375
2778.50435	14523.5375
2781.06932	14544.9375
2783.6327	14514.2375
2786.1945	14531.2375
2788.75471	14521.8375
2791.31335	14513.6375
2793.87041	14487.3375
2796.42589	14471.3375
2798.97979	14463.6375
2801.53212	14428.2375
2804.08288	14432.9375
2806.63206	14423.1375
2809.17967	14376.1375
2811.72571	14331.4375
2814.27018	14320.9375
2816.81308	14299.7375
2819.35442	14255.2375
2821.89419	14240.8375
2824.43239	14268.2375
2826.96904	14238.0375
2829.50412	14239.5375
2832.03763	14176.7375
2834.56959	14178.2375
2837.1	14146.7375
2839.62884	14167.1375
2842.15613	14152.7375
2844.68186	14199.5375
2847.20604	14207.5375
2849.72867	14188.5375
2852.24974	14222.1375
2854.76927	14210.6375
2857.28724	14176.9375
2859.80367	14129.4375
2862.31855	14120.8375
2864.83189	14146.0375
2867.34368	14131.6375
2869.85393	14135.7375
2872.36264	14108.7375
2874.8698	14118.3375
2877.37543	14123.8375
2879.87952	14087.8375
2882.38207	14110.2375
2884.88308	14105.8375
2887.38256	14111.7375
2889.88051	14124.7375
2892.37692	14119.3375
2894.8718	14133.8375
2897.36515	14141.7375
2899.85698	14139.9375
2902.34727	14193.8375
2904.83604	14182.7375
2907.32328	14254.7375
2909.809	14221.4375
2912.29319	14224.7375
2914.77587	14235.3375
2917.25702	14221.7375
2919.73665	14202.1375
2922.21476	14183.2375
2924.69136	14197.7375
2927.16644	14218.4375
2929.64	14212.2375
2932.11205	14206.9375
2934.58258	14150.6375
2937.05161	14166.9375
2939.51912	14200.0375
2941.98513	14133.7375
2944.44962	14069.3375
2946.91261	14038.7375
2949.37409	14061.5375
2951.83407	14043.4375
2954.29254	14027.4375
2956.74951	13986.2375
2959.20498	13991.0375
2961.65895	13942.4375
2964.11142	13931.5375
2966.56239	13911.7375
2969.01186	13910.4375
2971.45984	13854.0375
2973.90632	13841.0375
2976.35131	13785.2375
2978.7948	13751.9375
2981.23681	13719.4375
2983.67732	13684.8375
2986.11635	13671.4375
2988.55388	13636.4375
2990.98993	13633.5375
2993.4245	13572.1375
2995.85758	13557.8375
2998.28917	13541.4375
3000.71928	13544.7375
3003.14791	13439.0375
3005.57506	13437.3375
3008.00073	13377.3375
3010.42493	13361.6375
3012.84764	13346.1375
3015.26888	13361.7375
3017.68865	13299.1375
3020.10694	13262.7375
3022.52376	13264.1375
3024.9391	13241.9375
3027.35298	13206.9375
3029.76539	13188.9375
3032.17632	13188.7375
3034.5858	13210.0375
3036.9938	13200.7375
3039.40034	13164.0375
3041.80542	13143.8375
3044.20903	13134.5375
3046.61118	13133.3375
3049.01187	13105.4375
3051.4111	13055.2375
3053.80888	13029.1375
3056.20519	13032.2375
3058.60005	12992.0375
3060.99345	12959.6375
3063.3854	12938.3375
3065.7759	12899.8375
3068.16494	12852.0375
3070.55254	12793.1375
3072.93868	12787.3375
3075.32338	12733.8375
3077.70662	12737.1375
3080.08842	12688.1375
3082.46878	12675.5375
3084.84769	12667.0375
3087.22515	12662.2375
3089.60118	12666.3375
3091.97576	12635.8375
3094.3489	12609.2375
3096.72061	12618.2375
3099.09087	12607.2375
3101.4597	12613.2375
3103.82709	12594.6375
3106.19305	12552.1375
3108.55757	12549.7375
3110.92066	12492.8375
3113.28232	12479.3375
3115.64255	12439.9375
3118.00134	12398.1375
3120.35871	12394.7375
3122.71466	12344.8375
3125.06917	12351.8375
3127.42226	12311.5375
3129.77393	12333.0375
3132.12417	12282.9375
3134.47299	12295.7375
3136.82039	12257.3375
3139.16636	12268.9375
3141.51092	12230.1375
3143.85406	12257.1375
3146.19579	12252.9375
3148.53609	12256.1375
3150.87499	12276.2375
3153.21246	12278.1375
3155.54853	12287.3375
3157.88318	12263.0375
3160.21642	12283.1375
3162.54826	12223.2375
3164.87868	12230.2375
3167.2077	12270.5375
3169.5353	12262.0375
3171.86151	12234.4375
3174.18631	12216.2375
3176.5097	12203.0375
3178.83169	12198.7375
3181.15228	12203.0375
3183.47147	12158.5375
3185.78926	12174.2375
3188.10565	12145.4375
3190.42065	12140.7375
3192.73424	12138.7375
3195.04645	12125.9375
3197.35725	12132.4375
3199.66667	12125.9375
3201.97469	12126.2375
3204.28132	12117.2375
3206.58656	12134.5375
3208.8904	12110.6375
3211.19287	12152.4375
3213.49394	12137.6375
3215.79363	12114.1375
3218.09193	12136.2375
3220.38884	12107.9375
3222.68438	12129.5375
3224.97853	12097.4375
3227.2713	12106.0375
3229.56269	12074.0375
3231.8527	12066.1375
3234.14133	12048.0375
3236.42858	12014.6375
3238.71446	12038.6375
3240.99896	12014.0375
3243.28209	12014.6375
3245.56384	11994.1375
3247.84423	11989.2375
3250.12324	11946.6375
3252.40088	11956.0375
3254.67715	11953.5375
3256.95205	11938.0375
3259.22558	11889.6375
3261.49775	11874.4375
3263.76855	11880.8375
3266.03799	11827.0375
3268.30606	11797.2375
3270.57277	11793.8375
3272.83812	11765.2375
3275.10211	11756.6375
3277.36474	11734.6375
3279.62601	11741.5375
3281.88593	11744.2375
3284.14448	11756.1375
3286.40168	11728.1375
3288.65753	11750.0375
3290.91202	11679.1375
3293.16516	11643.6375
3295.41695	11638.5375
3297.66738	11557.5375
3299.91647	11498.6375
3302.16421	11446.5375
3304.4106	11383.1375
3306.65564	11333.3375
3308.89933	11283.7375
3311.14169	11199.9375
3313.38269	11127.4375
3315.62236	11071.5375
3317.86068	10958.3375
3320.09766	10856.0375
3322.3333	10764.9375
3324.5676	10765.5375
3326.80056	10590.5375
3329.03219	10531.9375
3331.26248	1.6375
3333.49143	0.1375
3335.71905	-0.9625
