Data from AgNPs_FTO_APTES_UA_2uM_CRN_10uM_R6G_10uM_NaF_0.1M_Addition_RamanShift__9__13-28-35-148.txt Node

Date: Wed Feb 02 13:28:35 GMT 2022
User: TCL
Spectrometer: QEP01345
Trigger mode: 4
Integration Time (sec): 7.000000E0
Scans to average: 10
Electric dark correction enabled: true
Nonlinearity correction enabled: false
Boxcar width: 0
XAxis mode: Raman Shifts
Number of Pixels in Spectrum: 1044
>>>>>Begin Spectral Data<<<<<
46.04893	0.6875
50.45542	0.5875
54.85868	-1.6125
59.25871	-1.5125
63.6555	89.2875
68.04907	98.5875
72.43941	101.4875
76.82654	112.1875
81.21044	109.7875
85.59113	115.7875
89.96862	120.0875
94.34289	121.9875
98.71396	122.6875
103.08183	134.0875
107.4465	138.9875
111.80798	138.1875
116.16626	141.4875
120.52136	148.3875
124.87327	156.3875
129.222	165.4875
133.56755	178.4875
137.90993	190.1875
142.24913	211.2875
146.58517	240.2875
150.91804	281.4875
155.24774	336.7875
159.57429	421.3875
163.89768	549.3875
168.21792	724.9875
172.53501	992.7875
176.84895	1390.0875
181.15975	1944.1875
185.46741	2735.5875
189.77193	3770.2875
194.07331	5039.7875
198.37157	6476.1875
202.6667	7989.1875
206.9587	9516.3875
211.24758	11013.3875
215.53334	12488.8875
219.81599	14059.2875
224.09553	15766.5875
228.37195	17682.9875
232.64527	19791.7875
236.91549	21975.4875
241.18261	24194.3875
245.44663	26246.3875
249.70755	28066.8875
253.96539	29707.3875
258.22014	31075.4875
262.4718	32131.6875
266.72039	32976.5875
270.96589	33355.7875
275.20832	33414.1875
279.44768	33206.9875
283.68397	32907.2875
287.91719	32641.6875
292.14735	32509.3875
296.37445	32497.0875
300.59849	32588.8875
304.81948	32760.4875
309.03742	32796.9875
313.25231	32626.2875
317.46415	32066.8875
321.67296	31330.1875
325.87872	30605.5875
330.08145	30238.6875
334.28114	30139.0875
338.47781	30301.1875
342.67145	30556.5875
346.86207	30894.9875
351.04966	31444.0875
355.23424	31910.7875
359.4158	32384.2875
363.59435	32726.4875
367.76989	32952.7875
371.94243	33158.6875
376.11196	33197.8875
380.27849	33266.4875
384.44203	33353.7875
388.60257	33621.0875
392.76012	34072.0875
396.91468	34618.3875
401.06626	35215.9875
405.21485	35518.3875
409.36047	35383.8875
413.50311	35009.3875
417.64277	34849.5875
421.77947	35030.6875
425.9132	35173.2875
430.04396	35354.9875
434.17176	35474.8875
438.2966	35519.0875
442.41849	35944.8875
446.53742	36688.4875
450.6534	37566.4875
454.76644	38144.2875
458.87653	38403.3875
462.98368	38283.5875
467.08789	37955.3875
471.18916	37520.9875
475.2875	37123.5875
479.38291	36907.1875
483.4754	36778.0875
487.56496	36343.6875
491.6516	35804.5875
495.73531	35202.6875
499.81612	34881.0875
503.89401	34945.3875
507.96899	35162.5875
512.04106	35183.8875
516.11023	34948.2875
520.1765	34526.8875
524.23987	34046.0875
528.30034	33618.3875
532.35792	33264.9875
536.41261	32871.4875
540.46441	32591.3875
544.51333	32677.8875
548.55936	33061.3875
552.60252	33734.7875
556.64279	34543.6875
560.6802	35218.0875
564.71473	35728.8875
568.7464	36456.8875
572.7752	37765.1875
576.80114	39345.5875
580.82422	40894.9875
584.84444	42620.3875
588.86181	44642.2875
592.87633	46193.0875
596.888	45500.4875
600.89682	43049.3875
604.9028	41845.9875
608.90594	43373.5875
612.90624	45268.7875
616.90371	42354.9875
620.89834	36355.5875
624.89015	33780.1875
628.87913	33563.0875
632.86528	33955.9875
636.84862	33899.7875
640.82913	33281.4875
644.80683	32427.6875
648.78172	31890.9875
652.75379	31928.5875
656.72306	32272.2875
660.68952	32659.9875
664.65319	32416.2875
668.61405	31938.2875
672.57211	31804.8875
676.52738	31984.0875
680.47986	31984.6875
684.42955	31724.1875
688.37646	31626.5875
692.32058	31762.0875
696.26192	32211.0875
700.20048	32733.0875
704.13626	33058.8875
708.06928	33188.9875
711.99952	33154.4875
715.927	33098.3875
719.85171	33120.7875
723.77365	32874.3875
727.69284	32335.5875
731.60928	31875.1875
735.52295	31578.6875
739.43388	31500.4875
743.34206	31593.9875
747.24749	31847.5875
751.15017	32263.6875
755.05012	32931.3875
758.94733	33954.3875
762.8418	35468.8875
766.73354	37726.0875
770.62254	39623.6875
774.50882	39674.5875
778.39237	37813.4875
782.27321	35497.3875
786.15132	33560.0875
790.02671	32396.0875
793.89938	31761.9875
797.76935	31438.4875
801.6366	31347.2875
805.50115	31278.3875
809.36299	31099.5875
813.22213	30923.2875
817.07857	30770.1875
820.93231	30660.3875
824.78336	30479.5875
828.63172	30280.8875
832.47738	30143.2875
836.32036	30118.2875
840.16066	30142.7875
843.99827	30123.0875
847.8332	30109.0875
851.66546	30157.3875
855.49504	30128.7875
859.32195	30099.5875
863.1462	30051.1875
866.96777	29979.1875
870.78668	29932.5875
874.60293	29952.7875
878.41652	29933.1875
882.22745	30019.0875
886.03573	30113.6875
889.84136	30087.9875
893.64433	30010.2875
897.44466	29927.9875
901.24235	29908.5875
905.0374	29777.3875
908.8298	29802.9875
912.61957	29911.2875
916.40671	30230.3875
920.19121	30678.6875
923.97308	31080.8875
927.75233	31047.1875
931.52895	30602.4875
935.30295	30017.2875
939.07433	29389.4875
942.84309	28938.5875
946.60924	28687.1875
950.37278	28651.8875
954.13371	28674.7875
957.89203	28680.1875
961.64774	28698.8875
965.40086	28752.4875
969.15137	28652.8875
972.89929	28480.0875
976.64461	28305.3875
980.38733	28229.7875
984.12747	28240.2875
987.86502	28284.0875
991.59999	28543.2875
995.33237	28716.4875
999.06217	29119.7875
1002.78939	29703.1875
1006.51404	30315.5875
1010.23611	30872.9875
1013.95561	31255.1875
1017.67255	31297.9875
1021.38692	31011.9875
1025.09872	30511.7875
1028.80796	30046.5875
1032.51465	30011.5875
1036.21877	30194.0875
1039.92035	30335.3875
1043.61937	30439.9875
1047.31584	30411.2875
1051.00976	30368.1875
1054.70114	30430.2875
1058.38998	30663.3875
1062.07627	31002.7875
1065.76003	31473.2875
1069.44126	31994.9875
1073.11995	32601.4875
1076.79611	33069.2875
1080.46974	33266.5875
1084.14085	33455.9875
1087.80943	33789.0875
1091.47549	34170.9875
1095.13903	34378.3875
1098.80005	33903.6875
1102.45857	32926.9875
1106.11456	32139.0875
1109.76805	31650.7875
1113.41903	31576.5875
1117.06751	31653.4875
1120.71348	31971.7875
1124.35696	32292.6875
1127.99793	32734.6875
1131.63641	33014.4875
1135.2724	33001.8875
1138.90589	32976.8875
1142.5369	33218.5875
1146.16542	33515.2875
1149.79145	33950.8875
1153.415	34406.0875
1157.03607	35073.1875
1160.65467	36256.1875
1164.27079	38112.9875
1167.88443	40236.4875
1171.49561	42357.0875
1175.10432	44802.9875
1178.71056	47925.1875
1182.31434	50774.2875
1185.91565	52264.2875
1189.51451	52128.6875
1193.11091	51125.6875
1196.70485	49549.9875
1200.29634	47759.0875
1203.88538	46545.2875
1207.47197	46158.8875
1211.05612	46033.4875
1214.63782	45430.2875
1218.21708	44063.1875
1221.79391	42297.2875
1225.36829	40944.5875
1228.94024	40194.6875
1232.50976	39714.1875
1236.07685	39184.6875
1239.6415	38903.3875
1243.20374	38909.0875
1246.76355	39254.1875
1250.32093	39870.8875
1253.8759	40787.2875
1257.42845	41895.9875
1260.97859	43284.9875
1264.52631	44660.8875
1268.07163	45992.5875
1271.61453	47334.8875
1275.15503	48785.2875
1278.69312	50353.8875
1282.22882	52109.5875
1285.76211	54234.7875
1289.29301	56717.6875
1292.82151	59556.6875
1296.34761	63017.7875
1299.87133	66762.3875
1303.39266	70402.3875
1306.9116	73192.0875
1310.42815	74898.0875
1313.94233	75466.6875
1317.45412	74927.7875
1320.96354	74009.4875
1324.47058	73683.1875
1327.97525	73696.3875
1331.47754	73696.9875
1334.97747	73309.6875
1338.47502	72537.7875
1341.97022	71438.5875
1345.46305	70070.6875
1348.95352	68791.5875
1352.44163	68027.0875
1355.92738	68490.1875
1359.41078	70421.6875
1362.89183	72137.4875
1366.37053	71492.2875
1369.84688	66906.1875
1373.32088	60188.6875
1376.79254	55233.8875
1380.26186	53498.1875
1383.72883	53777.3875
1387.19347	54156.0875
1390.65578	53714.6875
1394.11575	53679.8875
1397.57339	54127.1875
1401.0287	55108.1875
1404.48168	55953.1875
1407.93234	55650.6875
1411.38068	54241.7875
1414.82669	52047.9875
1418.27039	49577.6875
1421.71177	47228.0875
1425.15083	45447.9875
1428.58758	44670.2875
1432.02203	45269.0875
1435.45416	46614.7875
1438.88399	48287.7875
1442.31151	49415.8875
1445.73673	50109.7875
1449.15965	50547.9875
1452.58027	50745.0875
1455.9986	50702.5875
1459.41463	50826.2875
1462.82837	51520.7875
1466.23982	52354.5875
1469.64898	53161.5875
1473.05586	53549.5875
1476.46045	53548.5875
1479.86276	53164.2875
1483.26279	52646.8875
1486.66054	52328.9875
1490.05602	52613.6875
1493.44922	53342.5875
1496.84016	54110.7875
1500.22882	55109.4875
1503.61521	56289.5875
1506.99934	57581.5875
1510.38121	58535.6875
1513.76081	58757.0875
1517.13816	58055.5875
1520.51324	57087.4875
1523.88607	56658.5875
1527.25665	56727.2875
1530.62498	56912.9875
1533.99105	56506.5875
1537.35488	55371.0875
1540.71647	53750.4875
1544.07581	51716.0875
1547.4329	49874.1875
1550.78776	48470.0875
1554.14038	47446.8875
1557.49077	46891.1875
1560.83892	46667.0875
1564.18484	46474.7875
1567.52853	46607.4875
1570.86999	47048.2875
1574.20922	48023.5875
1577.54624	49215.3875
1580.88103	50064.8875
1584.2136	51111.3875
1587.54395	53000.4875
1590.87208	55859.0875
1594.19801	59083.1875
1597.52172	61689.6875
1600.84321	61653.4875
1604.16251	58012.4875
1607.47959	52944.3875
1610.79447	47978.4875
1614.10715	43689.3875
1617.41763	40229.0875
1620.7259	37925.5875
1624.03199	36870.9875
1627.33587	36861.5875
1630.63757	38194.0875
1633.93707	41067.4875
1637.23439	45967.6875
1640.52951	52965.6875
1643.82246	61240.4875
1647.11321	67499.2875
1650.40179	68157.1875
1653.68819	62641.1875
1656.97241	53594.9875
1660.25446	44886.6875
1663.53433	38511.5875
1666.81203	34287.4875
1670.08756	31725.0875
1673.36092	30094.9875
1676.63211	29006.5875
1679.90115	28253.5875
1683.16801	27709.8875
1686.43272	27305.7875
1689.69527	27029.9875
1692.95567	26764.4875
1696.2139	26654.5875
1699.46999	26570.6875
1702.72392	26421.9875
1705.97571	26306.6875
1709.22535	26200.0875
1712.47284	26083.8875
1715.71819	26036.9875
1718.96139	25982.8875
1722.20246	25819.7875
1725.44139	25717.8875
1728.67818	25575.3875
1731.91284	25414.3875
1735.14537	25218.2875
1738.37576	25118.0875
1741.60403	24998.6875
1744.83017	24896.3875
1748.05418	24875.3875
1751.27607	24794.5875
1754.49584	24750.0875
1757.71349	24721.6875
1760.92903	24701.9875
1764.14244	24652.2875
1767.35375	24590.0875
1770.56294	24539.9875
1773.77002	24493.9875
1776.97499	24390.7875
1780.17785	24332.4875
1783.37861	24297.5875
1786.57727	24220.9875
1789.77382	24181.7875
1792.96828	24134.5875
1796.16064	24129.2875
1799.3509	24054.7875
1802.53907	23991.7875
1805.72514	23932.5875
1808.90913	23863.6875
1812.09102	23800.0875
1815.27083	23784.9875
1818.44856	23773.5875
1821.6242	23739.1875
1824.79776	23718.4875
1827.96924	23672.6875
1831.13864	23698.1875
1834.30597	23713.3875
1837.47122	23673.9875
1840.6344	23677.4875
1843.7955	23737.9875
1846.95454	23753.5875
1850.11151	23675.8875
1853.26642	23661.2875
1856.41926	23624.8875
1859.57004	23602.6875
1862.71876	23591.1875
1865.86542	23577.2875
1869.01003	23480.9875
1872.15258	23436.5875
1875.29308	23426.9875
1878.43152	23376.1875
1881.56792	23336.0875
1884.70227	23298.2875
1887.83457	23280.9875
1890.96482	23250.7875
1894.09304	23242.8875
1897.21921	23178.3875
1900.34335	23124.2875
1903.46544	23084.4875
1906.58551	23059.9875
1909.70353	22955.5875
1912.81953	22879.7875
1915.93349	22830.8875
1919.04543	22819.1875
1922.15534	22754.3875
1925.26322	22671.6875
1928.36908	22653.7875
1931.47292	22601.9875
1934.57473	22489.5875
1937.67453	22455.4875
1940.77232	22377.5875
1943.86808	22291.2875
1946.96184	22271.7875
1950.05358	22190.2875
1953.14331	22143.7875
1956.23103	22085.0875
1959.31675	21991.7875
1962.40046	21968.9875
1965.48217	21872.9875
1968.56188	21845.0875
1971.63959	21744.9875
1974.7153	21715.3875
1977.78901	21601.6875
1980.86073	21527.1875
1983.93046	21452.3875
1986.99819	21393.8875
1990.06394	21382.2875
1993.1277	21257.8875
1996.18947	21196.8875
1999.24925	21115.0875
2002.30706	21049.9875
2005.36288	20956.8875
2008.41672	20949.0875
2011.46859	20854.1875
2014.51848	20759.0875
2017.56639	20778.1875
2020.61233	20682.4875
2023.6563	20685.5875
2026.6983	20610.8875
2029.73833	20586.1875
2032.7764	20492.2875
2035.8125	20444.0875
2038.84664	20421.4875
2041.87881	20421.0875
2044.90903	20341.5875
2047.93729	20286.0875
2050.96359	20319.7875
2053.98794	20262.6875
2057.01034	20265.6875
2060.03078	20237.2875
2063.04927	20191.7875
2066.06582	20196.0875
2069.08042	20156.9875
2072.09307	20148.0875
2075.10378	20130.9875
2078.11255	20131.2875
2081.11938	20084.5875
2084.12426	20101.3875
2087.12722	20100.2875
2090.12824	20069.4875
2093.12732	20097.1875
2096.12447	20100.7875
2099.11969	20074.6875
2102.11299	20097.9875
2105.10435	20078.9875
2108.09379	20082.1875
2111.08131	20066.6875
2114.0669	20091.0875
2117.05057	20097.8875
2120.03233	20144.7875
2123.01216	20150.3875
2125.99008	20152.6875
2128.96609	20135.5875
2131.94018	20143.3875
2134.91236	20181.7875
2137.88263	20148.1875
2140.851	20184.4875
2143.81746	20190.4875
2146.78201	20146.0875
2149.74466	20151.9875
2152.7054	20143.7875
2155.66425	20098.9875
2158.6212	20070.4875
2161.57625	20091.3875
2164.52941	20084.9875
2167.48067	20073.3875
2170.43004	20065.6875
2173.37752	20000.6875
2176.32311	20025.6875
2179.26681	20064.9875
2182.20863	19978.4875
2185.14856	20062.6875
2188.08661	20010.9875
2191.02278	20057.6875
2193.95707	20030.6875
2196.88948	19977.2875
2199.82001	19975.0875
2202.74867	19954.1875
2205.67545	19934.7875
2208.60037	19917.1875
2211.52341	19851.3875
2214.44458	19836.9875
2217.36388	19800.9875
2220.28132	19754.6875
2223.1969	19725.6875
2226.11061	19716.1875
2229.02246	19642.1875
2231.93245	19646.3875
2234.84058	19623.7875
2237.74686	19575.4875
2240.65128	19552.2875
2243.55385	19519.9875
2246.45456	19489.8875
2249.35343	19489.0875
2252.25044	19383.7875
2255.14561	19354.8875
2258.03893	19334.1875
2260.93041	19277.1875
2263.82004	19210.6875
2266.70783	19168.9875
2269.59378	19097.4875
2272.4779	19036.9875
2275.36017	19029.0875
2278.24061	18984.0875
2281.11922	18889.8875
2283.996	18892.3875
2286.87094	18875.9875
2289.74405	18844.0875
2292.61534	18845.0875
2295.4848	18795.8875
2298.35243	18785.7875
2301.21824	18789.0875
2304.08223	18742.6875
2306.94439	18751.9875
2309.80474	18761.2875
2312.66327	18735.5875
2315.51999	18704.6875
2318.37489	18709.8875
2321.22797	18676.4875
2324.07925	18621.0875
2326.92871	18593.5875
2329.77637	18591.6875
2332.62222	18585.9875
2335.46626	18558.6875
2338.3085	18516.2875
2341.14893	18503.0875
2343.98756	18489.4875
2346.8244	18483.8875
2349.65943	18498.1875
2352.49267	18478.5875
2355.32411	18460.6875
2358.15376	18450.7875
2360.98161	18464.5875
2363.80768	18453.4875
2366.63195	18447.5875
2369.45444	18396.0875
2372.27514	18390.5875
2375.09405	18366.4875
2377.91118	18272.4875
2380.72652	18274.4875
2383.54009	18224.4875
2386.35187	18231.8875
2389.16188	18189.9875
2391.97011	18151.4875
2394.77657	18098.6875
2397.58125	18039.8875
2400.38416	18055.2875
2403.18529	17992.3875
2405.98466	17994.0875
2408.78226	17980.9875
2411.57809	17974.3875
2414.37216	17957.8875
2417.16446	17957.6875
2419.955	17946.3875
2422.74378	17936.4875
2425.5308	17928.1875
2428.31606	17889.7875
2431.09956	17859.4875
2433.88131	17845.0875
2436.6613	17817.8875
2439.43954	17829.9875
2442.21603	17824.3875
2444.99077	17779.0875
2447.76377	17790.4875
2450.53501	17745.8875
2453.30451	17763.1875
2456.07226	17743.2875
2458.83827	17727.9875
2461.60254	17734.6875
2464.36507	17750.8875
2467.12586	17714.9875
2469.88492	17693.2875
2472.64224	17706.5875
2475.39782	17702.9875
2478.15167	17683.0875
2480.90379	17708.2875
2483.65417	17673.3875
2486.40283	17705.5875
2489.14976	17714.5875
2491.89497	17666.8875
2494.63845	17698.5875
2497.3802	17685.8875
2500.12024	17662.4875
2502.85855	17673.3875
2505.59514	17657.8875
2508.33002	17655.2875
2511.06318	17646.4875
2513.79462	17636.7875
2516.52435	17581.9875
2519.25237	17573.2875
2521.97867	17557.0875
2524.70327	17588.1875
2527.42616	17539.5875
2530.14734	17534.4875
2532.86681	17499.1875
2535.58458	17504.3875
2538.30065	17471.0875
2541.01501	17481.9875
2543.72768	17425.7875
2546.43864	17390.5875
2549.14791	17363.3875
2551.85548	17411.9875
2554.56136	17386.5875
2557.26554	17378.1875
2559.96803	17321.2875
2562.66883	17336.0875
2565.36794	17297.7875
2568.06536	17309.9875
2570.7611	17266.1875
2573.45514	17224.6875
2576.14751	17228.0875
2578.83819	17219.4875
2581.52719	17209.4875
2584.21451	17173.5875
2586.90015	17167.0875
2589.58411	17148.9875
2592.2664	17132.9875
2594.94701	17131.2875
2597.62594	17117.9875
2600.30321	17068.8875
2602.9788	17079.7875
2605.65273	17056.3875
2608.32498	17050.4875
2610.99557	17040.8875
2613.66449	17061.6875
2616.33175	17020.8875
2618.99734	17055.9875
2621.66128	17021.3875
2624.32355	17013.8875
2626.98416	17000.5875
2629.64311	16987.5875
2632.30041	16991.6875
2634.95605	16971.4875
2637.61004	16953.0875
2640.26238	16909.1875
2642.91306	16909.5875
2645.56209	16880.1875
2648.20948	16893.3875
2650.85521	16922.5875
2653.4993	16915.8875
2656.14175	16935.2875
2658.78255	16950.4875
2661.42171	16911.4875
2664.05923	16948.3875
2666.6951	16955.8875
2669.32934	16990.2875
2671.96194	16968.8875
2674.59291	16958.5875
2677.22224	16966.3875
2679.84993	16942.6875
2682.476	16929.1875
2685.10043	16932.7875
2687.72324	16956.2875
2690.34441	16947.7875
2692.96396	16923.8875
2695.58188	16966.5875
2698.19818	16938.1875
2700.81285	16930.6875
2703.4259	16925.2875
2706.03733	17007.1875
2708.64714	16974.2875
2711.25533	16952.3875
2713.86191	16920.2875
2716.46687	16957.3875
2719.07021	16928.5875
2721.67194	16996.2875
2724.27206	16984.7875
2726.87057	16969.4875
2729.46747	16994.8875
2732.06276	16996.5875
2734.65644	16961.3875
2737.24852	16991.9875
2739.83899	16966.0875
2742.42786	16982.1875
2745.01513	16941.0875
2747.60079	16921.5875
2750.18486	16924.6875
2752.76733	16959.1875
2755.3482	16954.6875
2757.92747	16937.5875
2760.50515	16911.5875
2763.08123	16896.9875
2765.65573	16886.1875
2768.22863	16866.5875
2770.79994	16834.7875
2773.36967	16835.9875
2775.9378	16833.2875
2778.50435	16830.3875
2781.06932	16824.9875
2783.6327	16798.2875
2786.1945	16788.7875
2788.75471	16816.7875
2791.31335	16747.4875
2793.87041	16683.6875
2796.42589	16660.7875
2798.97979	16678.9875
2801.53212	16633.7875
2804.08288	16651.5875
2806.63206	16600.0875
2809.17967	16567.7875
2811.72571	16529.0875
2814.27018	16511.2875
2816.81308	16492.2875
2819.35442	16423.9875
2821.89419	16400.7875
2824.43239	16394.3875
2826.96904	16398.9875
2829.50412	16380.3875
2832.03763	16347.9875
2834.56959	16340.4875
2837.1	16316.3875
2839.62884	16346.7875
2842.15613	16329.9875
2844.68186	16352.1875
2847.20604	16358.4875
2849.72867	16346.4875
2852.24974	16361.0875
2854.76927	16335.7875
2857.28724	16335.9875
2859.80367	16326.5875
2862.31855	16263.5875
2864.83189	16244.2875
2867.34368	16208.5875
2869.85393	16193.5875
2872.36264	16153.3875
2874.8698	16172.2875
2877.37543	16149.4875
2879.87952	16147.6875
2882.38207	16160.5875
2884.88308	16144.6875
2887.38256	16188.3875
2889.88051	16174.1875
2892.37692	16184.4875
2894.8718	16181.8875
2897.36515	16206.9875
2899.85698	16185.8875
2902.34727	16236.1875
2904.83604	16202.0875
2907.32328	16236.8875
2909.809	16191.5875
2912.29319	16161.9875
2914.77587	16181.1875
2917.25702	16145.4875
2919.73665	16134.3875
2922.21476	16182.1875
2924.69136	16143.1875
2927.16644	16187.2875
2929.64	16174.9875
2932.11205	16157.8875
2934.58258	16125.1875
2937.05161	16120.2875
2939.51912	16146.0875
2941.98513	16125.8875
2944.44962	16042.3875
2946.91261	15986.9875
2949.37409	15989.4875
2951.83407	15972.4875
2954.29254	15953.5875
2956.74951	15955.5875
2959.20498	15906.6875
2961.65895	15868.1875
2964.11142	15862.3875
2966.56239	15806.2875
2969.01186	15817.6875
2971.45984	15774.0875
2973.90632	15769.5875
2976.35131	15707.3875
2978.7948	15676.4875
2981.23681	15636.7875
2983.67732	15583.0875
2986.11635	15522.4875
2988.55388	15527.0875
2990.98993	15480.4875
2993.4245	15390.6875
2995.85758	15402.6875
2998.28917	15349.2875
3000.71928	15334.7875
3003.14791	15302.3875
3005.57506	15274.1875
3008.00073	15219.1875
3010.42493	15196.2875
3012.84764	15163.6875
3015.26888	15143.5875
3017.68865	15126.2875
3020.10694	15085.6875
3022.52376	15050.7875
3024.9391	15029.7875
3027.35298	14955.3875
3029.76539	14935.7875
3032.17632	14924.1875
3034.5858	14898.6875
3036.9938	14914.6875
3039.40034	14884.9875
3041.80542	14888.0875
3044.20903	14833.7875
3046.61118	14837.9875
3049.01187	14818.1875
3051.4111	14793.5875
3053.80888	14761.6875
3056.20519	14707.3875
3058.60005	14664.5875
3060.99345	14632.4875
3063.3854	14606.3875
3065.7759	14552.7875
3068.16494	14512.6875
3070.55254	14443.0875
3072.93868	14435.7875
3075.32338	14367.1875
3077.70662	14384.4875
3080.08842	14291.6875
3082.46878	14300.8875
3084.84769	14242.5875
3087.22515	14235.3875
3089.60118	14218.3875
3091.97576	14205.2875
3094.3489	14168.9875
3096.72061	14178.6875
3099.09087	14199.0875
3101.4597	14155.2875
3103.82709	14153.4875
3106.19305	14126.4875
3108.55757	14107.7875
3110.92066	14043.4875
3113.28232	13975.9875
3115.64255	13942.6875
3118.00134	13927.0875
3120.35871	13893.2875
3122.71466	13872.5875
3125.06917	13832.5875
3127.42226	13807.8875
3129.77393	13846.0875
3132.12417	13793.6875
3134.47299	13779.0875
3136.82039	13790.0875
3139.16636	13785.4875
3141.51092	13762.2875
3143.85406	13741.3875
3146.19579	13740.8875
3148.53609	13722.4875
3150.87499	13737.2875
3153.21246	13712.5875
3155.54853	13701.3875
3157.88318	13702.9875
3160.21642	13699.6875
3162.54826	13699.4875
3164.87868	13664.7875
3167.2077	13661.7875
3169.5353	13630.7875
3171.86151	13621.8875
3174.18631	13643.9875
3176.5097	13626.8875
3178.83169	13603.1875
3181.15228	13606.4875
3183.47147	13594.9875
3185.78926	13584.9875
3188.10565	13561.1875
3190.42065	13520.9875
3192.73424	13511.3875
3195.04645	13480.6875
3197.35725	13496.7875
3199.66667	13485.4875
3201.97469	13507.2875
3204.28132	13470.9875
3206.58656	13459.2875
3208.8904	13440.3875
3211.19287	13446.9875
3213.49394	13480.2875
3215.79363	13433.6875
3218.09193	13433.2875
3220.38884	13389.5875
3222.68438	13400.2875
3224.97853	13376.3875
3227.2713	13377.5875
3229.56269	13367.1875
3231.8527	13319.6875
3234.14133	13307.9875
3236.42858	13258.2875
3238.71446	13271.2875
3240.99896	13254.4875
3243.28209	13254.6875
3245.56384	13220.8875
3247.84423	13233.2875
3250.12324	13172.2875
3252.40088	13175.5875
3254.67715	13155.3875
3256.95205	13106.7875
3259.22558	13106.3875
3261.49775	13073.9875
3263.76855	13058.4875
3266.03799	13005.8875
3268.30606	12998.3875
3270.57277	12966.9875
3272.83812	12960.4875
3275.10211	12944.5875
3277.36474	12907.6875
3279.62601	12920.9875
3281.88593	12886.9875
3284.14448	12900.0875
3286.40168	12906.2875
3288.65753	12893.4875
3290.91202	12803.3875
3293.16516	12814.0875
3295.41695	12802.2875
3297.66738	12707.4875
3299.91647	12676.5875
3302.16421	12579.1875
3304.4106	12508.1875
3306.65564	12450.7875
3308.89933	12366.1875
3311.14169	12256.8875
3313.38269	12175.7875
3315.62236	12116.1875
3317.86068	11993.6875
3320.09766	11839.4875
3322.3333	11759.3875
3324.5676	11737.3875
3326.80056	11556.8875
3329.03219	11493.1875
3331.26248	2.6875
3333.49143	-0.1125
3335.71905	-1.1125
