Data from AgNPs_FTO_APTES_UA_2uM_CRN_2uM_R6G_10uM_NaF_0.1M_Addition_RamanShift__7__12-06-55-053.txt Node

Date: Wed Feb 02 12:06:55 GMT 2022
User: TCL
Spectrometer: QEP01345
Trigger mode: 4
Integration Time (sec): 7.000000E0
Scans to average: 10
Electric dark correction enabled: true
Nonlinearity correction enabled: false
Boxcar width: 0
XAxis mode: Raman Shifts
Number of Pixels in Spectrum: 1044
>>>>>Begin Spectral Data<<<<<
46.04893	0.425
50.45542	-0.075
54.85868	-1.175
59.25871	-1.575
63.6555	108.625
68.04907	114.925
72.43941	120.925
76.82654	127.025
81.21044	129.625
85.59113	138.425
89.96862	137.825
94.34289	142.125
98.71396	149.125
103.08183	154.325
107.4465	158.925
111.80798	167.225
116.16626	167.425
120.52136	174.625
124.87327	185.325
129.222	194.525
133.56755	209.525
137.90993	225.225
142.24913	253.225
146.58517	289.625
150.91804	338.025
155.24774	410.025
159.57429	516.625
163.89768	672.025
168.21792	887.725
172.53501	1219.025
176.84895	1698.725
181.15975	2381.925
185.46741	3357.725
189.77193	4620.025
194.07331	6190.125
198.37157	7935.925
202.6667	9764.525
206.9587	11623.625
211.24758	13430.825
215.53334	15223.925
219.81599	17237.025
224.09553	19362.525
228.37195	21721.425
232.64527	24301.325
236.91549	27032.725
241.18261	29662.825
245.44663	32162.825
249.70755	34337.525
253.96539	36262.325
258.22014	37888.625
262.4718	39182.625
266.72039	40042.525
270.96589	40488.025
275.20832	40385.925
279.44768	40090.625
283.68397	39640.625
287.91719	39291.125
292.14735	39082.525
296.37445	39048.125
300.59849	39125.025
304.81948	39322.225
309.03742	39477.825
313.25231	39406.125
317.46415	38870.225
321.67296	38087.125
325.87872	37522.125
330.08145	37143.925
334.28114	36966.025
338.47781	37138.925
342.67145	37494.325
346.86207	38077.625
351.04966	38690.825
355.23424	39421.225
359.4158	40063.025
363.59435	40498.725
367.76989	40814.825
371.94243	40976.525
376.11196	41025.925
380.27849	41031.125
384.44203	41135.325
388.60257	41491.625
392.76012	42026.425
396.91468	42674.025
401.06626	43388.525
405.21485	43821.725
409.36047	43696.925
413.50311	43307.825
417.64277	43314.625
421.77947	43720.625
425.9132	44043.425
430.04396	44248.225
434.17176	44389.025
438.2966	44425.225
442.41849	44958.525
446.53742	46141.925
450.6534	47452.125
454.76644	48201.325
458.87653	48386.125
462.98368	48050.425
467.08789	47395.125
471.18916	46467.825
475.2875	45604.025
479.38291	45167.825
483.4754	44947.325
487.56496	44522.825
491.6516	43904.525
495.73531	43306.825
499.81612	42965.025
503.89401	43158.925
507.96899	43398.125
512.04106	43301.125
516.11023	42897.425
520.1765	42254.625
524.23987	41733.525
528.30034	41293.225
532.35792	40868.825
536.41261	40346.625
540.46441	39850.625
544.51333	39777.925
548.55936	40168.725
552.60252	41055.025
556.64279	42160.225
560.6802	43100.125
564.71473	43676.225
568.7464	44512.725
572.7752	46127.525
576.80114	48155.125
580.82422	50458.225
584.84444	53517.225
588.86181	57540.325
592.87633	60743.525
596.888	59819.725
600.89682	55324.725
604.9028	52603.325
608.90594	54150.125
612.90624	56534.225
616.90371	52846.325
620.89834	45182.225
624.89015	41715.525
628.87913	41448.125
632.86528	41796.125
636.84862	41509.125
640.82913	40514.725
644.80683	39432.625
648.78172	38846.325
652.75379	39039.525
656.72306	39498.925
660.68952	39950.825
664.65319	39545.625
668.61405	38883.625
672.57211	38733.425
676.52738	38993.925
680.47986	38985.425
684.42955	38648.625
688.37646	38472.025
692.32058	38764.925
696.26192	39488.825
700.20048	40239.925
704.13626	40677.125
708.06928	40736.125
711.99952	40603.025
715.927	40647.325
719.85171	40826.725
723.77365	40606.925
727.69284	39696.325
731.60928	38939.825
735.52295	38642.725
739.43388	38635.525
743.34206	38775.025
747.24749	39114.925
751.15017	39712.225
755.05012	40538.925
758.94733	41746.425
762.8418	43733.325
766.73354	46459.125
770.62254	48815.625
774.50882	48746.825
778.39237	46381.325
782.27321	43484.625
786.15132	41179.125
790.02671	39773.225
793.89938	39016.825
797.76935	38715.525
801.6366	38616.725
805.50115	38565.525
809.36299	38436.925
813.22213	38051.525
817.07857	37808.425
820.93231	37581.725
824.78336	37293.725
828.63172	37043.325
832.47738	36891.625
836.32036	36970.125
840.16066	37057.125
843.99827	37068.725
847.8332	37012.725
851.66546	37020.225
855.49504	37067.825
859.32195	37049.525
863.1462	36930.525
866.96777	36763.325
870.78668	36706.325
874.60293	36713.625
878.41652	36798.725
882.22745	36968.125
886.03573	37126.625
889.84136	37157.125
893.64433	37019.825
897.44466	36858.625
901.24235	36705.725
905.0374	36635.725
908.8298	36590.525
912.61957	36694.625
916.40671	37083.625
920.19121	37707.125
923.97308	38364.925
927.75233	38459.925
931.52895	38021.225
935.30295	37186.625
939.07433	36303.225
942.84309	35717.925
946.60924	35422.325
950.37278	35384.325
954.13371	35366.025
957.89203	35378.125
961.64774	35406.325
965.40086	35440.825
969.15137	35400.125
972.89929	35087.825
976.64461	34920.525
980.38733	34936.325
984.12747	34979.625
987.86502	35063.725
991.59999	35382.725
995.33237	35713.525
999.06217	36405.825
1002.78939	37364.325
1006.51404	38365.225
1010.23611	39300.325
1013.95561	39768.125
1017.67255	39769.225
1021.38692	39198.925
1025.09872	38385.225
1028.80796	37971.725
1032.51465	38058.025
1036.21877	38531.125
1039.92035	38823.225
1043.61937	38784.025
1047.31584	38552.025
1051.00976	38278.825
1054.70114	38146.125
1058.38998	38283.025
1062.07627	38547.325
1065.76003	39069.725
1069.44126	39684.125
1073.11995	40477.125
1076.79611	41245.225
1080.46974	41564.925
1084.14085	41903.725
1087.80943	42405.325
1091.47549	42869.525
1095.13903	43024.325
1098.80005	42336.525
1102.45857	41086.425
1106.11456	40057.525
1109.76805	39466.325
1113.41903	39327.825
1117.06751	39392.425
1120.71348	39750.925
1124.35696	40103.425
1127.99793	40622.225
1131.63641	40989.925
1135.2724	41014.925
1138.90589	41005.825
1142.5369	41267.425
1146.16542	41807.325
1149.79145	42387.625
1153.415	42880.325
1157.03607	43696.325
1160.65467	45232.425
1164.27079	47829.925
1167.88443	50826.625
1171.49561	53570.525
1175.10432	56851.425
1178.71056	61119.225
1182.31434	64921.625
1185.91565	66627.125
1189.51451	65987.225
1193.11091	64270.725
1196.70485	62135.125
1200.29634	59998.925
1203.88538	58714.525
1207.47197	58345.125
1211.05612	58312.725
1214.63782	57567.125
1218.21708	55748.125
1221.79391	53629.525
1225.36829	52164.525
1228.94024	51156.125
1232.50976	50343.525
1236.07685	49429.425
1239.6415	48848.025
1243.20374	48674.625
1246.76355	49098.125
1250.32093	50050.725
1253.8759	51214.625
1257.42845	52870.125
1260.97859	54671.625
1264.52631	56552.825
1268.07163	58412.825
1271.61453	60291.125
1275.15503	62202.825
1278.69312	64388.425
1282.22882	66929.325
1285.76211	70058.625
1289.29301	73513.825
1292.82151	77433.625
1296.34761	82008.725
1299.87133	87454.425
1303.39266	92791.525
1306.9116	97120.025
1310.42815	99690.125
1313.94233	100338.025
1317.45412	99075.925
1320.96354	97037.025
1324.47058	95645.925
1327.97525	94870.925
1331.47754	94484.625
1334.97747	93708.925
1338.47502	92030.025
1341.97022	89694.525
1345.46305	87105.325
1348.95352	85210.325
1352.44163	84824.125
1355.92738	86999.425
1359.41078	91259.825
1362.89183	94906.825
1366.37053	94733.025
1369.84688	88483.025
1373.32088	78490.025
1376.79254	70910.425
1380.26186	68427.325
1383.72883	68864.125
1387.19347	69319.325
1390.65578	68499.525
1394.11575	68195.925
1397.57339	69145.925
1401.0287	70789.925
1404.48168	72201.925
1407.93234	72088.225
1411.38068	70319.325
1414.82669	67528.625
1418.27039	64366.525
1421.71177	61209.325
1425.15083	58809.125
1428.58758	57936.625
1432.02203	58843.425
1435.45416	61062.825
1438.88399	63497.625
1442.31151	64968.225
1445.73673	65589.325
1449.15965	65856.125
1452.58027	65564.925
1455.9986	65044.425
1459.41463	65253.825
1462.82837	66182.525
1466.23982	67579.825
1469.64898	68835.425
1473.05586	69591.325
1476.46045	69705.025
1479.86276	69167.625
1483.26279	68401.425
1486.66054	67880.625
1490.05602	68282.625
1493.44922	69000.825
1496.84016	69601.525
1500.22882	70238.025
1503.61521	71069.225
1506.99934	71987.725
1510.38121	72793.625
1513.76081	73002.525
1517.13816	72175.425
1520.51324	71168.025
1523.88607	70857.925
1527.25665	71354.425
1530.62498	71842.825
1533.99105	71581.425
1537.35488	70191.125
1540.71647	68173.425
1544.07581	65705.125
1547.4329	63305.625
1550.78776	61236.125
1554.14038	59874.225
1557.49077	59084.225
1560.83892	58451.925
1564.18484	58157.425
1567.52853	58125.325
1570.86999	58610.525
1574.20922	59910.325
1577.54624	61368.725
1580.88103	62465.925
1584.2136	64122.425
1587.54395	67394.625
1590.87208	72208.625
1594.19801	77637.625
1597.52172	81849.125
1600.84321	82150.725
1604.16251	76994.925
1607.47959	68988.425
1610.79447	61195.625
1614.10715	54860.925
1617.41763	50256.625
1620.7259	47389.825
1624.03199	46113.925
1627.33587	46498.225
1630.63757	48455.825
1633.93707	52548.025
1637.23439	59275.125
1640.52951	69248.925
1643.82246	81051.325
1647.11321	90017.025
1650.40179	90533.425
1653.68819	81660.225
1656.97241	68271.625
1660.25446	56278.025
1663.53433	47828.025
1666.81203	42679.425
1670.08756	39527.225
1673.36092	37567.025
1676.63211	36321.125
1679.90115	35421.625
1683.16801	34746.925
1686.43272	34274.925
1689.69527	33933.525
1692.95567	33615.325
1696.2139	33396.625
1699.46999	33274.025
1702.72392	33159.625
1705.97571	33008.725
1709.22535	32887.325
1712.47284	32854.525
1715.71819	32741.525
1718.96139	32690.425
1722.20246	32535.825
1725.44139	32433.625
1728.67818	32225.125
1731.91284	31974.825
1735.14537	31750.325
1738.37576	31623.725
1741.60403	31515.625
1744.83017	31328.425
1748.05418	31295.525
1751.27607	31242.925
1754.49584	31137.325
1757.71349	31113.525
1760.92903	31068.825
1764.14244	31082.225
1767.35375	30960.025
1770.56294	30952.225
1773.77002	30875.725
1776.97499	30817.825
1780.17785	30721.625
1783.37861	30707.725
1786.57727	30644.225
1789.77382	30575.825
1792.96828	30537.025
1796.16064	30461.625
1799.3509	30342.825
1802.53907	30285.125
1805.72514	30247.425
1808.90913	30143.025
1812.09102	30082.025
1815.27083	30071.525
1818.44856	30069.525
1821.6242	29972.125
1824.79776	30053.425
1827.96924	29970.625
1831.13864	29992.125
1834.30597	29986.625
1837.47122	29978.125
1840.6344	29943.525
1843.7955	29976.625
1846.95454	29947.725
1850.11151	29896.225
1853.26642	29873.525
1856.41926	29843.325
1859.57004	29835.325
1862.71876	29806.825
1865.86542	29748.825
1869.01003	29716.025
1872.15258	29687.625
1875.29308	29649.425
1878.43152	29579.225
1881.56792	29528.225
1884.70227	29527.725
1887.83457	29570.225
1890.96482	29507.425
1894.09304	29454.425
1897.21921	29464.225
1900.34335	29351.725
1903.46544	29326.525
1906.58551	29277.025
1909.70353	29226.725
1912.81953	29177.625
1915.93349	29048.325
1919.04543	28964.225
1922.15534	28928.525
1925.26322	28889.825
1928.36908	28790.225
1931.47292	28692.825
1934.57473	28601.925
1937.67453	28494.025
1940.77232	28453.425
1943.86808	28444.025
1946.96184	28352.825
1950.05358	28243.725
1953.14331	28144.125
1956.23103	28070.225
1959.31675	28006.925
1962.40046	27959.225
1965.48217	27850.525
1968.56188	27777.925
1971.63959	27720.325
1974.7153	27630.225
1977.78901	27497.625
1980.86073	27425.825
1983.93046	27300.425
1986.99819	27214.925
1990.06394	27137.225
1993.1277	27096.625
1996.18947	26982.225
1999.24925	26930.725
2002.30706	26821.025
2005.36288	26792.825
2008.41672	26695.225
2011.46859	26634.225
2014.51848	26566.525
2017.56639	26497.425
2020.61233	26466.725
2023.6563	26406.225
2026.6983	26384.225
2029.73833	26287.725
2032.7764	26247.825
2035.8125	26174.925
2038.84664	26136.625
2041.87881	26118.325
2044.90903	26063.025
2047.93729	25982.125
2050.96359	25963.825
2053.98794	25940.525
2057.01034	25894.125
2060.03078	25928.425
2063.04927	25869.525
2066.06582	25887.925
2069.08042	25834.625
2072.09307	25794.725
2075.10378	25794.725
2078.11255	25810.625
2081.11938	25760.925
2084.12426	25760.525
2087.12722	25711.125
2090.12824	25730.625
2093.12732	25711.025
2096.12447	25748.825
2099.11969	25756.825
2102.11299	25746.325
2105.10435	25778.125
2108.09379	25738.025
2111.08131	25762.625
2114.0669	25801.625
2117.05057	25824.325
2120.03233	25822.025
2123.01216	25844.825
2125.99008	25828.725
2128.96609	25839.525
2131.94018	25861.725
2134.91236	25854.525
2137.88263	25838.625
2140.851	25849.625
2143.81746	25792.125
2146.78201	25803.125
2149.74466	25819.925
2152.7054	25793.525
2155.66425	25821.725
2158.6212	25808.525
2161.57625	25843.825
2164.52941	25831.425
2167.48067	25816.225
2170.43004	25790.325
2173.37752	25742.825
2176.32311	25744.325
2179.26681	25804.525
2182.20863	25817.625
2185.14856	25870.125
2188.08661	25840.925
2191.02278	25818.625
2193.95707	25807.725
2196.88948	25787.725
2199.82001	25761.825
2202.74867	25710.925
2205.67545	25692.425
2208.60037	25615.725
2211.52341	25637.425
2214.44458	25563.325
2217.36388	25519.125
2220.28132	25480.425
2223.1969	25414.825
2226.11061	25417.025
2229.02246	25371.025
2231.93245	25402.425
2234.84058	25366.325
2237.74686	25359.725
2240.65128	25348.125
2243.55385	25268.525
2246.45456	25242.125
2249.35343	25160.625
2252.25044	25089.325
2255.14561	25001.825
2258.03893	24983.225
2260.93041	24870.625
2263.82004	24816.925
2266.70783	24762.425
2269.59378	24682.925
2272.4779	24655.325
2275.36017	24584.425
2278.24061	24544.225
2281.11922	24491.625
2283.996	24447.125
2286.87094	24436.525
2289.74405	24389.425
2292.61534	24398.025
2295.4848	24343.225
2298.35243	24318.125
2301.21824	24300.925
2304.08223	24290.625
2306.94439	24330.625
2309.80474	24357.825
2312.66327	24316.025
2315.51999	24291.125
2318.37489	24272.425
2321.22797	24261.125
2324.07925	24202.725
2326.92871	24179.425
2329.77637	24205.425
2332.62222	24125.525
2335.46626	24150.125
2338.3085	24110.225
2341.14893	24086.425
2343.98756	24075.425
2346.8244	24080.125
2349.65943	24070.125
2352.49267	24079.325
2355.32411	24080.925
2358.15376	24082.425
2360.98161	24061.725
2363.80768	24025.325
2366.63195	24001.425
2369.45444	23937.925
2372.27514	23919.225
2375.09405	23853.225
2377.91118	23811.725
2380.72652	23787.825
2383.54009	23737.825
2386.35187	23713.925
2389.16188	23683.025
2391.97011	23647.925
2394.77657	23602.225
2397.58125	23551.425
2400.38416	23507.625
2403.18529	23445.725
2405.98466	23485.325
2408.78226	23450.325
2411.57809	23461.025
2414.37216	23416.125
2417.16446	23449.025
2419.955	23380.625
2422.74378	23345.125
2425.5308	23310.725
2428.31606	23329.725
2431.09956	23291.725
2433.88131	23292.625
2436.6613	23293.325
2439.43954	23327.525
2442.21603	23296.825
2444.99077	23254.525
2447.76377	23252.025
2450.53501	23225.425
2453.30451	23249.925
2456.07226	23227.625
2458.83827	23192.225
2461.60254	23233.225
2464.36507	23210.825
2467.12586	23175.725
2469.88492	23166.325
2472.64224	23202.625
2475.39782	23202.325
2478.15167	23224.325
2480.90379	23169.125
2483.65417	23173.825
2486.40283	23177.525
2489.14976	23159.625
2491.89497	23159.925
2494.63845	23193.125
2497.3802	23120.425
2500.12024	23133.225
2502.85855	23161.725
2505.59514	23165.125
2508.33002	23120.525
2511.06318	23123.325
2513.79462	23091.225
2516.52435	23065.325
2519.25237	23076.125
2521.97867	23030.225
2524.70327	22995.025
2527.42616	23003.725
2530.14734	23005.025
2532.86681	22960.925
2535.58458	22928.425
2538.30065	22919.125
2541.01501	22929.925
2543.72768	22909.825
2546.43864	22905.925
2549.14791	22862.225
2551.85548	22861.925
2554.56136	22857.325
2557.26554	22841.225
2559.96803	22799.025
2562.66883	22808.625
2565.36794	22777.325
2568.06536	22789.425
2570.7611	22757.325
2573.45514	22752.925
2576.14751	22751.525
2578.83819	22690.325
2581.52719	22695.425
2584.21451	22665.525
2586.90015	22643.725
2589.58411	22627.725
2592.2664	22634.625
2594.94701	22575.025
2597.62594	22571.725
2600.30321	22548.625
2602.9788	22537.725
2605.65273	22510.725
2608.32498	22530.025
2610.99557	22507.825
2613.66449	22543.725
2616.33175	22505.325
2618.99734	22506.825
2621.66128	22519.725
2624.32355	22498.425
2626.98416	22430.925
2629.64311	22400.625
2632.30041	22452.225
2634.95605	22420.325
2637.61004	22414.125
2640.26238	22360.425
2642.91306	22359.425
2645.56209	22361.525
2648.20948	22392.125
2650.85521	22357.925
2653.4993	22379.325
2656.14175	22370.925
2658.78255	22395.925
2661.42171	22376.825
2664.05923	22434.025
2666.6951	22425.325
2669.32934	22433.225
2671.96194	22435.125
2674.59291	22428.225
2677.22224	22444.525
2679.84993	22431.025
2682.476	22390.525
2685.10043	22434.425
2687.72324	22384.225
2690.34441	22428.525
2692.96396	22421.525
2695.58188	22417.425
2698.19818	22431.125
2700.81285	22435.225
2703.4259	22408.525
2706.03733	22475.125
2708.64714	22412.125
2711.25533	22432.425
2713.86191	22456.325
2716.46687	22518.225
2719.07021	22509.625
2721.67194	22521.725
2724.27206	22511.725
2726.87057	22554.625
2729.46747	22529.925
2732.06276	22573.625
2734.65644	22542.325
2737.24852	22610.925
2739.83899	22602.425
2742.42786	22562.425
2745.01513	22528.925
2747.60079	22546.725
2750.18486	22490.125
2752.76733	22482.025
2755.3482	22461.225
2757.92747	22465.125
2760.50515	22433.725
2763.08123	22478.625
2765.65573	22455.825
2768.22863	22488.225
2770.79994	22419.525
2773.36967	22425.325
2775.9378	22413.025
2778.50435	22418.525
2781.06932	22357.025
2783.6327	22398.925
2786.1945	22323.125
2788.75471	22316.925
2791.31335	22267.525
2793.87041	22245.125
2796.42589	22216.725
2798.97979	22252.025
2801.53212	22208.525
2804.08288	22190.625
2806.63206	22106.525
2809.17967	22051.125
2811.72571	22015.625
2814.27018	21952.325
2816.81308	21937.325
2819.35442	21938.225
2821.89419	21842.225
2824.43239	21849.725
2826.96904	21835.125
2829.50412	21814.225
2832.03763	21766.625
2834.56959	21824.225
2837.1	21809.425
2839.62884	21787.025
2842.15613	21765.325
2844.68186	21817.725
2847.20604	21805.825
2849.72867	21817.725
2852.24974	21827.225
2854.76927	21813.925
2857.28724	21798.525
2859.80367	21731.925
2862.31855	21755.325
2864.83189	21672.325
2867.34368	21678.225
2869.85393	21673.625
2872.36264	21644.825
2874.8698	21676.225
2877.37543	21673.725
2879.87952	21635.025
2882.38207	21702.425
2884.88308	21672.825
2887.38256	21676.525
2889.88051	21676.825
2892.37692	21690.925
2894.8718	21719.925
2897.36515	21760.325
2899.85698	21754.025
2902.34727	21762.325
2904.83604	21781.425
2907.32328	21828.125
2909.809	21774.125
2912.29319	21786.425
2914.77587	21764.125
2917.25702	21793.725
2919.73665	21745.225
2922.21476	21753.125
2924.69136	21767.925
2927.16644	21758.125
2929.64	21760.225
2932.11205	21664.425
2934.58258	21598.325
2937.05161	21605.925
2939.51912	21623.225
2941.98513	21569.925
2944.44962	21513.425
2946.91261	21442.125
2949.37409	21499.325
2951.83407	21478.725
2954.29254	21472.525
2956.74951	21417.525
2959.20498	21406.125
2961.65895	21346.725
2964.11142	21337.525
2966.56239	21240.025
2969.01186	21214.925
2971.45984	21164.325
2973.90632	21140.925
2976.35131	21082.325
2978.7948	21044.525
2981.23681	21013.425
2983.67732	20916.925
2986.11635	20861.025
2988.55388	20771.225
2990.98993	20750.725
2993.4245	20685.725
2995.85758	20632.925
2998.28917	20563.725
3000.71928	20581.825
3003.14791	20556.625
3005.57506	20479.625
3008.00073	20409.525
3010.42493	20411.425
3012.84764	20367.525
3015.26888	20393.125
3017.68865	20279.925
3020.10694	20278.925
3022.52376	20219.625
3024.9391	20186.225
3027.35298	20160.825
3029.76539	20167.725
3032.17632	20104.025
3034.5858	20055.525
3036.9938	20021.825
3039.40034	20013.425
3041.80542	20031.825
3044.20903	20017.025
3046.61118	19966.725
3049.01187	19906.525
3051.4111	19925.225
3053.80888	19831.925
3056.20519	19799.025
3058.60005	19741.425
3060.99345	19730.025
3063.3854	19617.525
3065.7759	19567.025
3068.16494	19530.925
3070.55254	19463.125
3072.93868	19430.625
3075.32338	19367.925
3077.70662	19330.525
3080.08842	19275.725
3082.46878	19244.225
3084.84769	19192.425
3087.22515	19172.025
3089.60118	19186.225
3091.97576	19147.125
3094.3489	19147.725
3096.72061	19123.725
3099.09087	19112.225
3101.4597	19020.125
3103.82709	18989.625
3106.19305	18968.525
3108.55757	18928.925
3110.92066	18876.225
3113.28232	18889.925
3115.64255	18817.625
3118.00134	18762.625
3120.35871	18758.325
3122.71466	18691.825
3125.06917	18648.325
3127.42226	18611.425
3129.77393	18606.125
3132.12417	18598.525
3134.47299	18606.025
3136.82039	18588.525
3139.16636	18565.625
3141.51092	18549.125
3143.85406	18590.925
3146.19579	18538.925
3148.53609	18495.525
3150.87499	18532.025
3153.21246	18515.425
3155.54853	18557.525
3157.88318	18476.025
3160.21642	18471.425
3162.54826	18456.225
3164.87868	18469.325
3167.2077	18429.925
3169.5353	18380.025
3171.86151	18408.825
3174.18631	18387.025
3176.5097	18361.025
3178.83169	18346.125
3181.15228	18324.125
3183.47147	18286.025
3185.78926	18259.425
3188.10565	18226.025
3190.42065	18211.025
3192.73424	18227.625
3195.04645	18196.925
3197.35725	18198.625
3199.66667	18183.125
3201.97469	18158.125
3204.28132	18105.025
3206.58656	18082.325
3208.8904	18132.225
3211.19287	18117.125
3213.49394	18122.925
3215.79363	18116.225
3218.09193	18103.125
3220.38884	18046.025
3222.68438	18100.125
3224.97853	18067.925
3227.2713	18035.025
3229.56269	17976.525
3231.8527	17966.725
3234.14133	17954.825
3236.42858	17911.225
3238.71446	17916.225
3240.99896	17892.825
3243.28209	17858.525
3245.56384	17867.725
3247.84423	17843.025
3250.12324	17775.225
3252.40088	17754.825
3254.67715	17737.625
3256.95205	17651.825
3259.22558	17649.225
3261.49775	17614.025
3263.76855	17588.325
3266.03799	17533.325
3268.30606	17506.625
3270.57277	17480.525
3272.83812	17440.025
3275.10211	17387.625
3277.36474	17399.125
3279.62601	17434.525
3281.88593	17445.225
3284.14448	17431.825
3286.40168	17425.825
3288.65753	17421.825
3290.91202	17378.825
3293.16516	17290.525
3295.41695	17246.425
3297.66738	17150.725
3299.91647	17119.725
3302.16421	17003.025
3304.4106	16899.225
3306.65564	16762.125
3308.89933	16634.525
3311.14169	16560.125
3313.38269	16422.425
3315.62236	16335.725
3317.86068	16195.425
3320.09766	16019.825
3322.3333	15900.825
3324.5676	15884.025
3326.80056	15608.925
3329.03219	15550.325
3331.26248	3.525
3333.49143	-0.475
3335.71905	-1.175
