Data from AgNPs_FTO_APTES_UA_2uM_CRN_10uM_R6G_10uM_NaF_0.1M_Addition_RamanShift__17__13-37-55-159.txt Node

Date: Wed Feb 02 13:37:55 GMT 2022
User: TCL
Spectrometer: QEP01345
Trigger mode: 4
Integration Time (sec): 7.000000E0
Scans to average: 10
Electric dark correction enabled: true
Nonlinearity correction enabled: false
Boxcar width: 0
XAxis mode: Raman Shifts
Number of Pixels in Spectrum: 1044
>>>>>Begin Spectral Data<<<<<
46.04893	-0.975
50.45542	1.325
54.85868	-1.175
59.25871	-0.575
63.6555	82.225
68.04907	89.625
72.43941	89.925
76.82654	102.625
81.21044	102.125
85.59113	107.025
89.96862	111.025
94.34289	110.225
98.71396	115.225
103.08183	119.625
107.4465	127.225
111.80798	128.225
116.16626	130.025
120.52136	133.025
124.87327	144.925
129.222	152.125
133.56755	162.225
137.90993	172.225
142.24913	192.925
146.58517	220.625
150.91804	256.725
155.24774	308.425
159.57429	383.625
163.89768	490.925
168.21792	658.825
172.53501	900.025
176.84895	1264.025
181.15975	1762.925
185.46741	2472.625
189.77193	3417.225
194.07331	4586.125
198.37157	5870.725
202.6667	7252.725
206.9587	8622.225
211.24758	9956.525
215.53334	11314.325
219.81599	12732.325
224.09553	14333.725
228.37195	16106.725
232.64527	18040.825
236.91549	20097.325
241.18261	22099.325
245.44663	23968.625
249.70755	25579.425
253.96539	27055.625
258.22014	28248.525
262.4718	29326.525
266.72039	30155.725
270.96589	30591.525
275.20832	30694.025
279.44768	30627.325
283.68397	30418.225
287.91719	30305.925
292.14735	30320.625
296.37445	30432.125
300.59849	30599.425
304.81948	30684.225
309.03742	30602.425
313.25231	30128.525
317.46415	29274.525
321.67296	28183.625
325.87872	27255.925
330.08145	26769.225
334.28114	26654.225
338.47781	26746.625
342.67145	27087.425
346.86207	27511.725
351.04966	28108.525
355.23424	28643.825
359.4158	29159.225
363.59435	29455.825
367.76989	29664.925
371.94243	29889.825
376.11196	30000.225
380.27849	30123.925
384.44203	30359.825
388.60257	30584.325
392.76012	30894.025
396.91468	31291.725
401.06626	31798.025
405.21485	32075.925
409.36047	31903.625
413.50311	31282.525
417.64277	30878.425
421.77947	30722.525
425.9132	30787.625
430.04396	30981.525
434.17176	31142.525
438.2966	31354.625
442.41849	31810.425
446.53742	32628.125
450.6534	33552.825
454.76644	34270.325
458.87653	34665.325
462.98368	34580.425
467.08789	34357.925
471.18916	34012.825
475.2875	33736.225
479.38291	33713.125
483.4754	33513.525
487.56496	33097.225
491.6516	32392.025
495.73531	31755.325
499.81612	31373.725
503.89401	31390.525
507.96899	31514.525
512.04106	31419.825
516.11023	31169.925
520.1765	30831.825
524.23987	30489.725
528.30034	30163.125
532.35792	29819.425
536.41261	29349.325
540.46441	29043.425
544.51333	29163.125
548.55936	29684.725
552.60252	30465.225
556.64279	31375.325
560.6802	31973.625
564.71473	32340.825
568.7464	32954.025
572.7752	33810.425
576.80114	34532.025
580.82422	35095.625
584.84444	35503.825
588.86181	35782.425
592.87633	35979.225
596.888	36075.325
600.89682	36177.425
604.9028	37346.425
608.90594	40622.225
612.90624	43815.525
616.90371	40760.025
620.89834	33736.925
624.89015	30583.025
628.87913	30333.725
632.86528	30503.125
636.84862	30415.525
640.82913	29827.225
644.80683	28955.825
648.78172	28206.925
652.75379	28018.525
656.72306	28263.425
660.68952	28768.925
664.65319	28601.725
668.61405	28089.725
672.57211	27910.225
676.52738	27909.325
680.47986	27942.725
684.42955	27824.225
688.37646	27724.225
692.32058	27816.725
696.26192	28134.425
700.20048	28476.225
704.13626	28722.625
708.06928	28715.225
711.99952	28491.825
715.927	28420.625
719.85171	28464.725
723.77365	28358.925
727.69284	27972.225
731.60928	27636.225
735.52295	27481.125
739.43388	27500.125
743.34206	27602.925
747.24749	27752.425
751.15017	28077.825
755.05012	28688.225
758.94733	29738.025
762.8418	31510.125
766.73354	34175.125
770.62254	36742.725
774.50882	37274.825
778.39237	35235.525
782.27321	32315.225
786.15132	29954.725
790.02671	28532.525
793.89938	27851.825
797.76935	27587.025
801.6366	27485.725
805.50115	27414.825
809.36299	27175.225
813.22213	26910.125
817.07857	26766.325
820.93231	26718.225
824.78336	26577.225
828.63172	26423.925
832.47738	26389.025
836.32036	26400.825
840.16066	26477.025
843.99827	26589.425
847.8332	26528.725
851.66546	26364.825
855.49504	26233.525
859.32195	26243.125
863.1462	26180.625
866.96777	26039.425
870.78668	25969.725
874.60293	25931.425
878.41652	25923.225
882.22745	25994.825
886.03573	26083.625
889.84136	26105.225
893.64433	26012.625
897.44466	25880.325
901.24235	25777.625
905.0374	25675.325
908.8298	25605.725
912.61957	25683.525
916.40671	26030.825
920.19121	26420.825
923.97308	26748.225
927.75233	26810.225
931.52895	26646.825
935.30295	26225.025
939.07433	25641.125
942.84309	25146.625
946.60924	24903.525
950.37278	24828.425
954.13371	24783.825
957.89203	24706.425
961.64774	24684.425
965.40086	24653.625
969.15137	24591.625
972.89929	24451.625
976.64461	24252.225
980.38733	24267.425
984.12747	24352.125
987.86502	24594.725
991.59999	24997.225
995.33237	25499.925
999.06217	26297.825
1002.78939	27256.125
1006.51404	27802.225
1010.23611	28056.225
1013.95561	28347.525
1017.67255	28381.925
1021.38692	28074.325
1025.09872	27715.725
1028.80796	27838.325
1032.51465	28591.725
1036.21877	29366.925
1039.92035	29564.925
1043.61937	29183.225
1047.31584	28468.325
1051.00976	27706.825
1054.70114	27385.525
1058.38998	27472.325
1062.07627	27708.825
1065.76003	27964.625
1069.44126	28240.425
1073.11995	28632.325
1076.79611	28985.525
1080.46974	29171.625
1084.14085	29418.225
1087.80943	29840.125
1091.47549	30165.025
1095.13903	30254.625
1098.80005	29852.525
1102.45857	29115.125
1106.11456	28411.325
1109.76805	28118.325
1113.41903	28164.625
1117.06751	28376.325
1120.71348	28710.325
1124.35696	29040.725
1127.99793	29507.725
1131.63641	29721.025
1135.2724	29635.625
1138.90589	29462.125
1142.5369	29403.625
1146.16542	29535.025
1149.79145	29800.425
1153.415	30202.425
1157.03607	30782.225
1160.65467	31797.225
1164.27079	33319.025
1167.88443	35404.425
1171.49561	37953.825
1175.10432	41238.525
1178.71056	45308.025
1182.31434	49095.525
1185.91565	51326.725
1189.51451	51590.625
1193.11091	50241.825
1196.70485	47993.425
1200.29634	45495.325
1203.88538	43507.025
1207.47197	42189.425
1211.05612	41249.525
1214.63782	40422.125
1218.21708	39585.025
1221.79391	38894.925
1225.36829	38317.925
1228.94024	37831.325
1232.50976	37128.325
1236.07685	36573.225
1239.6415	36280.925
1243.20374	36158.525
1246.76355	36378.125
1250.32093	37069.625
1253.8759	37988.725
1257.42845	39211.525
1260.97859	40614.825
1264.52631	41919.425
1268.07163	43275.825
1271.61453	44769.025
1275.15503	46371.025
1278.69312	47999.425
1282.22882	49421.625
1285.76211	50785.025
1289.29301	52285.425
1292.82151	54355.325
1296.34761	57149.625
1299.87133	60584.425
1303.39266	64428.125
1306.9116	68492.925
1310.42815	72347.825
1313.94233	74790.625
1317.45412	75092.825
1320.96354	74132.025
1324.47058	73176.025
1327.97525	72167.825
1331.47754	71514.525
1334.97747	70961.525
1338.47502	70643.725
1341.97022	70165.025
1345.46305	69080.925
1348.95352	67424.225
1352.44163	65906.925
1355.92738	65649.425
1359.41078	67275.325
1362.89183	69152.225
1366.37053	67964.125
1369.84688	62791.525
1373.32088	56510.525
1376.79254	52000.925
1380.26186	50357.925
1383.72883	50264.225
1387.19347	50422.625
1390.65578	50286.925
1394.11575	50379.525
1397.57339	51064.325
1401.0287	52077.625
1404.48168	52999.225
1407.93234	52942.625
1411.38068	51914.325
1414.82669	49953.425
1418.27039	47503.825
1421.71177	45044.125
1425.15083	43164.225
1428.58758	42168.125
1432.02203	42277.925
1435.45416	43323.325
1438.88399	44695.525
1442.31151	46026.525
1445.73673	46999.925
1449.15965	47954.925
1452.58027	48678.425
1455.9986	49152.425
1459.41463	49613.125
1462.82837	50381.525
1466.23982	51317.925
1469.64898	51943.125
1473.05586	52231.625
1476.46045	52018.325
1479.86276	51373.125
1483.26279	50574.125
1486.66054	49963.825
1490.05602	49852.125
1493.44922	50199.725
1496.84016	50736.225
1500.22882	51791.225
1503.61521	53481.825
1506.99934	55587.325
1510.38121	57483.425
1513.76081	58096.125
1517.13816	57002.625
1520.51324	54838.225
1523.88607	52884.425
1527.25665	51725.825
1530.62498	51375.425
1533.99105	51043.825
1537.35488	50642.625
1540.71647	49934.725
1544.07581	48855.925
1547.4329	47679.025
1550.78776	46735.225
1554.14038	45960.625
1557.49077	45642.125
1560.83892	45461.825
1564.18484	45421.925
1567.52853	45484.625
1570.86999	45754.525
1574.20922	46482.225
1577.54624	47206.225
1580.88103	47633.425
1584.2136	48213.525
1587.54395	49510.825
1590.87208	51986.625
1594.19801	55108.025
1597.52172	58118.125
1600.84321	58773.825
1604.16251	56014.225
1607.47959	51417.325
1610.79447	46655.325
1614.10715	42188.625
1617.41763	38495.825
1620.7259	35851.125
1624.03199	34509.125
1627.33587	34474.825
1630.63757	35622.625
1633.93707	38241.125
1637.23439	42544.525
1640.52951	48265.925
1643.82246	54447.725
1647.11321	58906.425
1650.40179	59270.725
1653.68819	55117.125
1656.97241	47792.125
1660.25446	40244.325
1663.53433	34565.525
1666.81203	30766.525
1670.08756	28307.125
1673.36092	26771.525
1676.63211	25774.225
1679.90115	25014.925
1683.16801	24530.825
1686.43272	24119.825
1689.69527	23837.325
1692.95567	23631.525
1696.2139	23500.025
1699.46999	23363.025
1702.72392	23253.125
1705.97571	23173.225
1709.22535	23045.225
1712.47284	22959.725
1715.71819	22941.725
1718.96139	22839.225
1722.20246	22720.725
1725.44139	22620.625
1728.67818	22457.325
1731.91284	22301.225
1735.14537	22157.225
1738.37576	22075.225
1741.60403	21971.625
1744.83017	21854.825
1748.05418	21879.725
1751.27607	21829.425
1754.49584	21771.825
1757.71349	21736.925
1760.92903	21685.625
1764.14244	21632.325
1767.35375	21573.125
1770.56294	21597.025
1773.77002	21518.825
1776.97499	21437.325
1780.17785	21375.725
1783.37861	21361.525
1786.57727	21304.525
1789.77382	21228.925
1792.96828	21216.425
1796.16064	21148.625
1799.3509	21150.325
1802.53907	21102.125
1805.72514	21028.725
1808.90913	20930.325
1812.09102	20933.625
1815.27083	20889.125
1818.44856	20873.425
1821.6242	20856.025
1824.79776	20819.525
1827.96924	20796.525
1831.13864	20805.725
1834.30597	20823.025
1837.47122	20853.925
1840.6344	20854.925
1843.7955	20839.025
1846.95454	20882.825
1850.11151	20924.825
1853.26642	20917.125
1856.41926	20893.125
1859.57004	20857.725
1862.71876	20878.525
1865.86542	20854.425
1869.01003	20839.425
1872.15258	20811.425
1875.29308	20812.525
1878.43152	20786.125
1881.56792	20804.125
1884.70227	20793.125
1887.83457	20762.225
1890.96482	20774.425
1894.09304	20777.225
1897.21921	20779.425
1900.34335	20712.425
1903.46544	20689.425
1906.58551	20626.325
1909.70353	20637.525
1912.81953	20567.825
1915.93349	20494.425
1919.04543	20442.025
1922.15534	20392.825
1925.26322	20328.025
1928.36908	20234.925
1931.47292	20199.325
1934.57473	20095.025
1937.67453	20030.225
1940.77232	19953.325
1943.86808	19849.625
1946.96184	19838.925
1950.05358	19808.625
1953.14331	19703.325
1956.23103	19617.925
1959.31675	19556.525
1962.40046	19519.025
1965.48217	19447.125
1968.56188	19418.925
1971.63959	19341.325
1974.7153	19304.325
1977.78901	19228.325
1980.86073	19147.425
1983.93046	19058.625
1986.99819	19027.425
1990.06394	19004.825
1993.1277	18933.625
1996.18947	18792.325
1999.24925	18751.025
2002.30706	18735.925
2005.36288	18675.125
2008.41672	18634.925
2011.46859	18584.825
2014.51848	18516.025
2017.56639	18492.325
2020.61233	18479.125
2023.6563	18406.025
2026.6983	18374.425
2029.73833	18324.125
2032.7764	18321.725
2035.8125	18293.225
2038.84664	18267.925
2041.87881	18254.625
2044.90903	18220.425
2047.93729	18148.725
2050.96359	18142.225
2053.98794	18147.425
2057.01034	18150.125
2060.03078	18103.725
2063.04927	18081.925
2066.06582	18074.625
2069.08042	18055.025
2072.09307	18045.225
2075.10378	18028.725
2078.11255	18019.025
2081.11938	17992.325
2084.12426	17989.725
2087.12722	17974.425
2090.12824	18000.125
2093.12732	17971.325
2096.12447	17964.125
2099.11969	17995.925
2102.11299	17987.125
2105.10435	17973.825
2108.09379	17995.925
2111.08131	17999.525
2114.0669	17997.225
2117.05057	18009.925
2120.03233	18039.025
2123.01216	18067.725
2125.99008	18057.425
2128.96609	18050.525
2131.94018	18071.525
2134.91236	18060.625
2137.88263	18120.425
2140.851	18121.625
2143.81746	18152.425
2146.78201	18147.225
2149.74466	18163.225
2152.7054	18134.825
2155.66425	18108.625
2158.6212	18108.625
2161.57625	18117.325
2164.52941	18081.725
2167.48067	18088.225
2170.43004	18066.425
2173.37752	18065.025
2176.32311	18056.125
2179.26681	18069.225
2182.20863	18039.025
2185.14856	18074.525
2188.08661	18082.225
2191.02278	18096.725
2193.95707	18067.025
2196.88948	18055.125
2199.82001	18082.225
2202.74867	18069.625
2205.67545	18052.225
2208.60037	18030.425
2211.52341	18016.125
2214.44458	18021.525
2217.36388	17976.525
2220.28132	17973.025
2223.1969	17931.425
2226.11061	17909.925
2229.02246	17875.525
2231.93245	17841.825
2234.84058	17816.725
2237.74686	17760.925
2240.65128	17710.025
2243.55385	17705.125
2246.45456	17672.325
2249.35343	17648.325
2252.25044	17609.925
2255.14561	17602.925
2258.03893	17568.625
2260.93041	17535.725
2263.82004	17501.625
2266.70783	17460.525
2269.59378	17395.625
2272.4779	17393.525
2275.36017	17332.025
2278.24061	17289.425
2281.11922	17241.425
2283.996	17216.525
2286.87094	17220.425
2289.74405	17202.025
2292.61534	17184.525
2295.4848	17187.625
2298.35243	17166.125
2301.21824	17160.025
2304.08223	17184.725
2306.94439	17214.125
2309.80474	17208.325
2312.66327	17209.225
2315.51999	17202.125
2318.37489	17216.025
2321.22797	17146.525
2324.07925	17174.325
2326.92871	17137.425
2329.77637	17157.625
2332.62222	17122.625
2335.46626	17152.625
2338.3085	17141.425
2341.14893	17140.925
2343.98756	17155.525
2346.8244	17172.525
2349.65943	17175.925
2352.49267	17148.825
2355.32411	17187.425
2358.15376	17154.225
2360.98161	17149.925
2363.80768	17134.125
2366.63195	17136.525
2369.45444	17059.725
2372.27514	17014.325
2375.09405	17022.525
2377.91118	17005.625
2380.72652	16959.425
2383.54009	16923.425
2386.35187	16899.025
2389.16188	16859.225
2391.97011	16811.025
2394.77657	16784.025
2397.58125	16744.925
2400.38416	16763.225
2403.18529	16739.325
2405.98466	16697.425
2408.78226	16679.825
2411.57809	16679.325
2414.37216	16628.025
2417.16446	16633.725
2419.955	16610.625
2422.74378	16619.625
2425.5308	16597.025
2428.31606	16607.825
2431.09956	16567.325
2433.88131	16546.625
2436.6613	16541.925
2439.43954	16527.625
2442.21603	16531.925
2444.99077	16539.425
2447.76377	16496.425
2450.53501	16494.825
2453.30451	16531.725
2456.07226	16511.925
2458.83827	16553.325
2461.60254	16533.525
2464.36507	16551.925
2467.12586	16522.325
2469.88492	16539.325
2472.64224	16550.725
2475.39782	16536.125
2478.15167	16584.125
2480.90379	16576.725
2483.65417	16557.025
2486.40283	16583.225
2489.14976	16589.525
2491.89497	16630.925
2494.63845	16644.225
2497.3802	16635.525
2500.12024	16619.525
2502.85855	16624.025
2505.59514	16628.825
2508.33002	16622.625
2511.06318	16608.125
2513.79462	16546.225
2516.52435	16529.225
2519.25237	16547.725
2521.97867	16565.225
2524.70327	16551.725
2527.42616	16546.825
2530.14734	16548.425
2532.86681	16522.125
2535.58458	16504.725
2538.30065	16476.825
2541.01501	16489.025
2543.72768	16510.625
2546.43864	16479.425
2549.14791	16408.025
2551.85548	16453.125
2554.56136	16410.425
2557.26554	16423.225
2559.96803	16432.425
2562.66883	16404.825
2565.36794	16371.925
2568.06536	16381.725
2570.7611	16361.325
2573.45514	16343.625
2576.14751	16346.325
2578.83819	16334.425
2581.52719	16341.725
2584.21451	16296.425
2586.90015	16327.825
2589.58411	16343.825
2592.2664	16342.925
2594.94701	16332.225
2597.62594	16335.725
2600.30321	16312.625
2602.9788	16303.025
2605.65273	16287.625
2608.32498	16301.825
2610.99557	16284.125
2613.66449	16282.125
2616.33175	16309.925
2618.99734	16328.325
2621.66128	16289.925
2624.32355	16311.825
2626.98416	16340.525
2629.64311	16340.625
2632.30041	16357.425
2634.95605	16322.025
2637.61004	16332.825
2640.26238	16312.725
2642.91306	16269.025
2645.56209	16261.225
2648.20948	16250.225
2650.85521	16234.325
2653.4993	16266.625
2656.14175	16259.825
2658.78255	16265.325
2661.42171	16271.425
2664.05923	16293.725
2666.6951	16323.325
2669.32934	16336.125
2671.96194	16319.825
2674.59291	16297.425
2677.22224	16280.825
2679.84993	16309.625
2682.476	16271.025
2685.10043	16274.525
2687.72324	16274.625
2690.34441	16275.625
2692.96396	16255.925
2695.58188	16268.525
2698.19818	16239.925
2700.81285	16232.425
2703.4259	16247.325
2706.03733	16297.325
2708.64714	16279.125
2711.25533	16287.725
2713.86191	16258.125
2716.46687	16292.825
2719.07021	16273.125
2721.67194	16284.225
2724.27206	16289.825
2726.87057	16305.325
2729.46747	16311.825
2732.06276	16281.525
2734.65644	16302.025
2737.24852	16314.725
2739.83899	16307.425
2742.42786	16309.625
2745.01513	16260.125
2747.60079	16302.725
2750.18486	16307.225
2752.76733	16340.625
2755.3482	16310.125
2757.92747	16294.225
2760.50515	16284.625
2763.08123	16297.125
2765.65573	16269.025
2768.22863	16313.425
2770.79994	16250.625
2773.36967	16264.925
2775.9378	16259.025
2778.50435	16283.625
2781.06932	16298.325
2783.6327	16280.125
2786.1945	16266.225
2788.75471	16259.125
2791.31335	16238.925
2793.87041	16201.625
2796.42589	16152.925
2798.97979	16152.125
2801.53212	16136.925
2804.08288	16121.025
2806.63206	16061.325
2809.17967	16058.525
2811.72571	16007.725
2814.27018	16010.125
2816.81308	15986.225
2819.35442	15975.325
2821.89419	15960.025
2824.43239	15974.325
2826.96904	15945.125
2829.50412	15929.825
2832.03763	15897.025
2834.56959	15890.725
2837.1	15863.325
2839.62884	15874.925
2842.15613	15888.325
2844.68186	15889.425
2847.20604	15906.725
2849.72867	15931.325
2852.24974	15946.225
2854.76927	15900.825
2857.28724	15887.225
2859.80367	15898.725
2862.31855	15880.025
2864.83189	15840.325
2867.34368	15818.425
2869.85393	15838.025
2872.36264	15801.725
2874.8698	15854.825
2877.37543	15826.025
2879.87952	15840.225
2882.38207	15838.325
2884.88308	15846.225
2887.38256	15858.025
2889.88051	15841.925
2892.37692	15871.925
2894.8718	15903.025
2897.36515	15901.225
2899.85698	15896.725
2902.34727	15915.825
2904.83604	15951.825
2907.32328	15983.225
2909.809	15941.825
2912.29319	15932.325
2914.77587	15932.125
2917.25702	15916.225
2919.73665	15926.325
2922.21476	15959.725
2924.69136	15929.725
2927.16644	15937.125
2929.64	15907.125
2932.11205	15944.025
2934.58258	15882.125
2937.05161	15864.325
2939.51912	15886.125
2941.98513	15838.825
2944.44962	15810.725
2946.91261	15754.125
2949.37409	15758.825
2951.83407	15726.725
2954.29254	15730.225
2956.74951	15730.425
2959.20498	15670.925
2961.65895	15620.625
2964.11142	15629.925
2966.56239	15605.225
2969.01186	15602.825
2971.45984	15515.125
2973.90632	15521.125
2976.35131	15471.325
2978.7948	15410.425
2981.23681	15394.025
2983.67732	15363.025
2986.11635	15294.325
2988.55388	15294.525
2990.98993	15263.225
2993.4245	15209.025
2995.85758	15165.625
2998.28917	15138.325
3000.71928	15131.025
3003.14791	15097.625
3005.57506	15079.125
3008.00073	15021.025
3010.42493	15029.425
3012.84764	15016.125
3015.26888	14994.825
3017.68865	14944.625
3020.10694	14908.225
3022.52376	14890.525
3024.9391	14853.325
3027.35298	14836.825
3029.76539	14829.925
3032.17632	14761.325
3034.5858	14748.325
3036.9938	14776.925
3039.40034	14750.025
3041.80542	14755.125
3044.20903	14756.525
3046.61118	14726.325
3049.01187	14699.725
3051.4111	14646.325
3053.80888	14664.425
3056.20519	14629.125
3058.60005	14590.825
3060.99345	14568.925
3063.3854	14504.325
3065.7759	14493.825
3068.16494	14454.025
3070.55254	14412.825
3072.93868	14373.825
3075.32338	14339.925
3077.70662	14338.325
3080.08842	14292.525
3082.46878	14282.725
3084.84769	14248.225
3087.22515	14250.725
3089.60118	14228.825
3091.97576	14201.725
3094.3489	14179.925
3096.72061	14170.725
3099.09087	14171.425
3101.4597	14151.825
3103.82709	14180.425
3106.19305	14180.525
3108.55757	14128.125
3110.92066	14091.925
3113.28232	14051.125
3115.64255	14022.425
3118.00134	13990.125
3120.35871	13971.325
3122.71466	13920.525
3125.06917	13901.425
3127.42226	13863.825
3129.77393	13884.525
3132.12417	13871.425
3134.47299	13858.325
3136.82039	13870.225
3139.16636	13844.225
3141.51092	13861.225
3143.85406	13842.125
3146.19579	13846.625
3148.53609	13825.925
3150.87499	13829.825
3153.21246	13837.625
3155.54853	13862.925
3157.88318	13843.025
3160.21642	13859.925
3162.54826	13806.525
3164.87868	13822.425
3167.2077	13787.525
3169.5353	13810.025
3171.86151	13801.625
3174.18631	13800.725
3176.5097	13787.825
3178.83169	13778.925
3181.15228	13777.425
3183.47147	13780.825
3185.78926	13777.925
3188.10565	13753.125
3190.42065	13753.325
3192.73424	13747.525
3195.04645	13736.125
3197.35725	13722.625
3199.66667	13741.425
3201.97469	13771.025
3204.28132	13729.525
3206.58656	13768.525
3208.8904	13754.725
3211.19287	13747.125
3213.49394	13782.725
3215.79363	13744.225
3218.09193	13766.625
3220.38884	13719.625
3222.68438	13732.825
3224.97853	13698.625
3227.2713	13714.925
3229.56269	13713.325
3231.8527	13690.925
3234.14133	13646.725
3236.42858	13644.825
3238.71446	13606.025
3240.99896	13588.225
3243.28209	13592.625
3245.56384	13585.425
3247.84423	13589.225
3250.12324	13560.625
3252.40088	13557.525
3254.67715	13548.825
3256.95205	13490.325
3259.22558	13521.625
3261.49775	13486.925
3263.76855	13460.325
3266.03799	13440.425
3268.30606	13405.425
3270.57277	13414.725
3272.83812	13399.325
3275.10211	13341.625
3277.36474	13359.425
3279.62601	13360.325
3281.88593	13301.825
3284.14448	13353.925
3286.40168	13352.225
3288.65753	13315.625
3290.91202	13281.325
3293.16516	13253.525
3295.41695	13230.825
3297.66738	13168.425
3299.91647	13109.725
3302.16421	13061.225
3304.4106	12960.025
3306.65564	12920.525
3308.89933	12822.025
3311.14169	12736.925
3313.38269	12675.525
3315.62236	12599.025
3317.86068	12492.425
3320.09766	12345.625
3322.3333	12267.625
3324.5676	12256.325
3326.80056	12048.725
3329.03219	12024.025
3331.26248	2.925
3333.49143	0.225
3335.71905	-1.175
