Data from AgNPs_FTO_APTES_UA_2uM_CRN_50uM_R6G_10uM_NaF_0.1M_Addition_RamanShift__26__15-06-35-263.txt Node

Date: Wed Feb 02 15:06:35 GMT 2022
User: TCL
Spectrometer: QEP01345
Trigger mode: 4
Integration Time (sec): 7.000000E0
Scans to average: 10
Electric dark correction enabled: true
Nonlinearity correction enabled: false
Boxcar width: 0
XAxis mode: Raman Shifts
Number of Pixels in Spectrum: 1044
>>>>>Begin Spectral Data<<<<<
46.04893	0.8875
50.45542	-0.3125
54.85868	-0.7125
59.25871	-0.4125
63.6555	84.5875
68.04907	92.7875
72.43941	94.7875
76.82654	100.5875
81.21044	104.6875
85.59113	112.3875
89.96862	112.9875
94.34289	116.3875
98.71396	120.2875
103.08183	125.6875
107.4465	129.4875
111.80798	130.5875
116.16626	133.4875
120.52136	141.7875
124.87327	143.7875
129.222	151.1875
133.56755	163.7875
137.90993	174.8875
142.24913	190.0875
146.58517	214.1875
150.91804	244.3875
155.24774	298.8875
159.57429	369.8875
163.89768	474.1875
168.21792	627.4875
172.53501	854.5875
176.84895	1193.7875
181.15975	1657.2875
185.46741	2328.3875
189.77193	3196.0875
194.07331	4290.3875
198.37157	5506.9875
202.6667	6794.9875
206.9587	8073.7875
211.24758	9354.4875
215.53334	10667.7875
219.81599	12106.7875
224.09553	13710.4875
228.37195	15476.4875
232.64527	17387.7875
236.91549	19320.2875
241.18261	21199.0875
245.44663	22851.1875
249.70755	24222.4875
253.96539	25414.4875
258.22014	26519.7875
262.4718	27506.9875
266.72039	28333.5875
270.96589	28848.3875
275.20832	29063.8875
279.44768	29103.1875
283.68397	29068.7875
287.91719	29087.5875
292.14735	29284.5875
296.37445	29653.4875
300.59849	30186.8875
304.81948	30586.8875
309.03742	30670.2875
313.25231	30186.1875
317.46415	28856.4875
321.67296	27118.9875
325.87872	25645.9875
330.08145	24885.8875
334.28114	24749.3875
338.47781	25016.6875
342.67145	25453.8875
346.86207	26212.8875
351.04966	27285.3875
355.23424	28434.3875
359.4158	29294.3875
363.59435	29724.2875
367.76989	29830.0875
371.94243	29874.5875
376.11196	29769.2875
380.27849	29676.3875
384.44203	29568.4875
388.60257	29437.3875
392.76012	29513.0875
396.91468	29836.0875
401.06626	30483.6875
405.21485	30933.2875
409.36047	30538.4875
413.50311	29398.8875
417.64277	28366.6875
421.77947	27912.6875
425.9132	27907.8875
430.04396	28013.9875
434.17176	28209.6875
438.2966	28558.2875
442.41849	29130.6875
446.53742	30003.4875
450.6534	31013.9875
454.76644	31734.6875
458.87653	31963.0875
462.98368	31875.0875
467.08789	31526.8875
471.18916	31170.4875
475.2875	30842.8875
479.38291	30690.5875
483.4754	30389.2875
487.56496	29819.8875
491.6516	29083.2875
495.73531	28504.8875
499.81612	28224.6875
503.89401	28361.6875
507.96899	28444.9875
512.04106	28491.2875
516.11023	28434.8875
520.1765	28338.4875
524.23987	27995.2875
528.30034	27522.9875
532.35792	27037.3875
536.41261	26633.7875
540.46441	26257.9875
544.51333	26246.1875
548.55936	26751.2875
552.60252	27598.8875
556.64279	28519.9875
560.6802	29204.4875
564.71473	29706.0875
568.7464	30628.1875
572.7752	31532.4875
576.80114	31399.1875
580.82422	30887.5875
584.84444	30612.8875
588.86181	30575.5875
592.87633	30728.2875
596.888	31056.2875
600.89682	31608.0875
604.9028	33814.7875
608.90594	39819.1875
612.90624	47056.1875
616.90371	44457.8875
620.89834	33116.4875
624.89015	27863.2875
628.87913	27010.9875
632.86528	27191.7875
636.84862	27370.9875
640.82913	26839.8875
644.80683	25693.0875
648.78172	24862.3875
652.75379	24779.0875
656.72306	25430.8875
660.68952	26390.3875
664.65319	26307.6875
668.61405	25421.0875
672.57211	24909.6875
676.52738	24884.7875
680.47986	24868.1875
684.42955	24749.5875
688.37646	24626.8875
692.32058	24756.6875
696.26192	24993.3875
700.20048	25373.3875
704.13626	25649.8875
708.06928	25680.8875
711.99952	25441.2875
715.927	25322.9875
719.85171	25305.8875
723.77365	25229.6875
727.69284	24920.0875
731.60928	24643.1875
735.52295	24500.7875
739.43388	24526.8875
743.34206	24622.8875
747.24749	24772.2875
751.15017	25063.4875
755.05012	25660.7875
758.94733	26964.3875
762.8418	29463.1875
766.73354	33603.6875
770.62254	37648.5875
774.50882	38899.6875
778.39237	36441.6875
782.27321	32021.1875
786.15132	28149.5875
790.02671	25869.7875
793.89938	24816.7875
797.76935	24361.3875
801.6366	24160.7875
805.50115	24141.4875
809.36299	24002.8875
813.22213	23861.6875
817.07857	23838.5875
820.93231	23859.0875
824.78336	23766.7875
828.63172	23794.2875
832.47738	23730.1875
836.32036	23665.3875
840.16066	23640.5875
843.99827	23498.1875
847.8332	23414.6875
851.66546	23320.2875
855.49504	23261.7875
859.32195	23203.3875
863.1462	23114.1875
866.96777	22975.2875
870.78668	22946.4875
874.60293	22925.0875
878.41652	22893.7875
882.22745	23054.5875
886.03573	23135.8875
889.84136	23073.8875
893.64433	22921.1875
897.44466	22842.0875
901.24235	22811.7875
905.0374	22792.0875
908.8298	22744.8875
912.61957	22778.0875
916.40671	23077.5875
920.19121	23428.3875
923.97308	23667.7875
927.75233	23739.1875
931.52895	23682.0875
935.30295	23315.6875
939.07433	22667.5875
942.84309	22121.1875
946.60924	21804.3875
950.37278	21620.5875
954.13371	21555.5875
957.89203	21508.6875
961.64774	21546.0875
965.40086	21519.0875
969.15137	21394.8875
972.89929	21290.9875
976.64461	21152.9875
980.38733	21122.2875
984.12747	21183.7875
987.86502	21320.2875
991.59999	21564.0875
995.33237	21885.5875
999.06217	22491.8875
1002.78939	23268.7875
1006.51404	23907.0875
1010.23611	24398.6875
1013.95561	24683.5875
1017.67255	24632.8875
1021.38692	24321.8875
1025.09872	23868.2875
1028.80796	23747.3875
1032.51465	23981.6875
1036.21877	24319.4875
1039.92035	24472.3875
1043.61937	24393.7875
1047.31584	24121.5875
1051.00976	23815.4875
1054.70114	23684.9875
1058.38998	23787.7875
1062.07627	24120.5875
1065.76003	24370.6875
1069.44126	24627.8875
1073.11995	24842.0875
1076.79611	25124.9875
1080.46974	25314.6875
1084.14085	25694.5875
1087.80943	26281.0875
1091.47549	26608.6875
1095.13903	26436.3875
1098.80005	25808.6875
1102.45857	25057.2875
1106.11456	24539.6875
1109.76805	24439.9875
1113.41903	24723.3875
1117.06751	25225.3875
1120.71348	25907.3875
1124.35696	26609.4875
1127.99793	27338.8875
1131.63641	27469.1875
1135.2724	26775.8875
1138.90589	26033.6875
1142.5369	25672.9875
1146.16542	25518.7875
1149.79145	25636.0875
1153.415	25864.6875
1157.03607	26359.8875
1160.65467	27159.9875
1164.27079	28401.5875
1167.88443	30190.9875
1171.49561	32687.8875
1175.10432	36393.8875
1178.71056	41121.5875
1182.31434	44906.4875
1185.91565	46541.9875
1189.51451	46374.3875
1193.11091	44735.2875
1196.70485	42243.4875
1200.29634	39860.1875
1203.88538	37747.9875
1207.47197	35904.2875
1211.05612	34324.9875
1214.63782	33215.9875
1218.21708	32652.1875
1221.79391	32275.7875
1225.36829	32095.6875
1228.94024	31828.8875
1232.50976	31597.4875
1236.07685	31400.3875
1239.6415	31250.3875
1243.20374	31280.1875
1246.76355	31367.4875
1250.32093	31835.7875
1253.8759	32640.3875
1257.42845	33675.6875
1260.97859	34843.1875
1264.52631	35828.1875
1268.07163	36893.8875
1271.61453	37957.1875
1275.15503	39059.1875
1278.69312	39943.1875
1282.22882	40627.7875
1285.76211	41659.8875
1289.29301	43118.1875
1292.82151	44854.2875
1296.34761	47084.2875
1299.87133	49807.9875
1303.39266	53351.3875
1306.9116	57900.3875
1310.42815	63060.4875
1313.94233	66932.9875
1317.45412	67799.1875
1320.96354	66486.7875
1324.47058	64378.3875
1327.97525	62281.8875
1331.47754	60700.7875
1334.97747	59995.4875
1338.47502	60036.2875
1341.97022	60193.5875
1345.46305	60007.3875
1348.95352	59506.0875
1352.44163	59315.5875
1355.92738	60692.5875
1359.41078	64802.3875
1362.89183	69627.1875
1366.37053	68412.3875
1369.84688	60590.7875
1373.32088	52154.4875
1376.79254	46803.3875
1380.26186	44662.7875
1383.72883	44104.0875
1387.19347	43930.4875
1390.65578	43623.1875
1394.11575	43698.8875
1397.57339	44382.7875
1401.0287	45613.4875
1404.48168	46865.5875
1407.93234	47568.9875
1411.38068	47317.5875
1414.82669	45836.0875
1418.27039	43642.9875
1421.71177	41146.7875
1425.15083	39008.9875
1428.58758	37648.0875
1432.02203	37321.1875
1435.45416	37646.7875
1438.88399	38449.2875
1442.31151	39192.3875
1445.73673	40010.9875
1449.15965	40962.0875
1452.58027	41772.9875
1455.9986	42362.5875
1459.41463	42834.4875
1462.82837	43629.7875
1466.23982	44509.9875
1469.64898	45179.1875
1473.05586	45503.8875
1476.46045	45316.1875
1479.86276	44980.6875
1483.26279	44763.7875
1486.66054	44719.5875
1490.05602	44991.1875
1493.44922	45628.0875
1496.84016	46600.2875
1500.22882	48408.7875
1503.61521	51241.1875
1506.99934	54988.1875
1510.38121	59072.5875
1513.76081	61636.5875
1517.13816	60581.1875
1520.51324	56281.4875
1523.88607	51501.9875
1527.25665	48194.8875
1530.62498	46165.1875
1533.99105	45065.8875
1537.35488	44373.3875
1540.71647	43718.9875
1544.07581	43059.9875
1547.4329	42272.0875
1550.78776	41556.9875
1554.14038	41220.4875
1557.49077	41338.6875
1560.83892	41780.7875
1564.18484	42308.4875
1567.52853	42723.2875
1570.86999	42967.0875
1574.20922	43405.1875
1577.54624	43634.4875
1580.88103	43057.2875
1584.2136	42368.4875
1587.54395	42866.4875
1590.87208	44604.0875
1594.19801	47335.5875
1597.52172	50219.8875
1600.84321	51139.0875
1604.16251	48949.4875
1607.47959	45130.3875
1610.79447	40970.9875
1614.10715	37014.5875
1617.41763	33822.1875
1620.7259	31527.9875
1624.03199	30282.4875
1627.33587	30153.2875
1630.63757	30984.1875
1633.93707	33004.3875
1637.23439	36234.0875
1640.52951	40615.2875
1643.82246	45924.8875
1647.11321	50758.8875
1650.40179	53227.0875
1653.68819	51088.7875
1656.97241	44491.6875
1660.25446	36993.3875
1663.53433	31222.5875
1666.81203	27469.7875
1670.08756	25156.2875
1673.36092	23737.8875
1676.63211	22810.9875
1679.90115	22174.1875
1683.16801	21714.1875
1686.43272	21335.7875
1689.69527	21114.3875
1692.95567	20907.3875
1696.2139	20798.7875
1699.46999	20685.2875
1702.72392	20569.5875
1705.97571	20514.1875
1709.22535	20459.0875
1712.47284	20406.6875
1715.71819	20369.5875
1718.96139	20328.8875
1722.20246	20252.0875
1725.44139	20175.5875
1728.67818	20014.0875
1731.91284	19887.0875
1735.14537	19753.4875
1738.37576	19652.3875
1741.60403	19578.8875
1744.83017	19517.5875
1748.05418	19445.8875
1751.27607	19414.5875
1754.49584	19372.2875
1757.71349	19363.8875
1760.92903	19340.1875
1764.14244	19311.1875
1767.35375	19269.2875
1770.56294	19200.8875
1773.77002	19113.2875
1776.97499	19079.4875
1780.17785	19014.9875
1783.37861	19005.9875
1786.57727	18975.3875
1789.77382	18912.8875
1792.96828	18896.2875
1796.16064	18861.3875
1799.3509	18831.4875
1802.53907	18792.7875
1805.72514	18692.5875
1808.90913	18689.2875
1812.09102	18646.5875
1815.27083	18602.6875
1818.44856	18572.5875
1821.6242	18550.2875
1824.79776	18539.5875
1827.96924	18529.3875
1831.13864	18503.9875
1834.30597	18506.7875
1837.47122	18465.0875
1840.6344	18488.2875
1843.7955	18521.4875
1846.95454	18526.4875
1850.11151	18506.3875
1853.26642	18507.8875
1856.41926	18503.1875
1859.57004	18533.1875
1862.71876	18516.8875
1865.86542	18501.5875
1869.01003	18531.9875
1872.15258	18535.1875
1875.29308	18532.4875
1878.43152	18546.2875
1881.56792	18550.8875
1884.70227	18563.6875
1887.83457	18580.2875
1890.96482	18555.1875
1894.09304	18561.3875
1897.21921	18607.8875
1900.34335	18639.9875
1903.46544	18614.1875
1906.58551	18637.0875
1909.70353	18658.8875
1912.81953	18617.8875
1915.93349	18605.8875
1919.04543	18567.6875
1922.15534	18519.0875
1925.26322	18443.1875
1928.36908	18403.6875
1931.47292	18335.8875
1934.57473	18217.0875
1937.67453	18142.9875
1940.77232	18039.5875
1943.86808	17944.7875
1946.96184	17848.1875
1950.05358	17784.5875
1953.14331	17697.2875
1956.23103	17667.4875
1959.31675	17532.2875
1962.40046	17496.8875
1965.48217	17418.6875
1968.56188	17369.2875
1971.63959	17320.6875
1974.7153	17281.0875
1977.78901	17238.0875
1980.86073	17150.1875
1983.93046	17121.2875
1986.99819	17026.7875
1990.06394	16968.2875
1993.1277	16909.1875
1996.18947	16871.7875
1999.24925	16831.4875
2002.30706	16720.0875
2005.36288	16687.4875
2008.41672	16683.3875
2011.46859	16624.0875
2014.51848	16588.3875
2017.56639	16505.0875
2020.61233	16448.2875
2023.6563	16445.1875
2026.6983	16415.0875
2029.73833	16364.6875
2032.7764	16344.9875
2035.8125	16313.7875
2038.84664	16267.8875
2041.87881	16272.2875
2044.90903	16243.8875
2047.93729	16204.7875
2050.96359	16212.5875
2053.98794	16147.5875
2057.01034	16131.7875
2060.03078	16127.5875
2063.04927	16081.3875
2066.06582	16087.0875
2069.08042	16077.5875
2072.09307	16065.2875
2075.10378	16063.8875
2078.11255	15997.0875
2081.11938	15982.7875
2084.12426	15952.1875
2087.12722	15951.7875
2090.12824	15969.8875
2093.12732	15969.0875
2096.12447	15973.8875
2099.11969	15973.3875
2102.11299	15968.5875
2105.10435	15978.4875
2108.09379	15994.2875
2111.08131	15988.1875
2114.0669	15976.6875
2117.05057	16004.1875
2120.03233	16008.4875
2123.01216	16035.2875
2125.99008	16048.3875
2128.96609	16040.6875
2131.94018	16048.7875
2134.91236	16044.9875
2137.88263	16049.3875
2140.851	16065.3875
2143.81746	16077.4875
2146.78201	16075.4875
2149.74466	16047.9875
2152.7054	16088.2875
2155.66425	16076.4875
2158.6212	16047.2875
2161.57625	16052.0875
2164.52941	16017.8875
2167.48067	16002.8875
2170.43004	15981.6875
2173.37752	15980.0875
2176.32311	16009.9875
2179.26681	15999.9875
2182.20863	15972.4875
2185.14856	15973.5875
2188.08661	15966.7875
2191.02278	15965.4875
2193.95707	15952.6875
2196.88948	15928.1875
2199.82001	15947.3875
2202.74867	15930.8875
2205.67545	15914.7875
2208.60037	15887.7875
2211.52341	15884.4875
2214.44458	15876.1875
2217.36388	15860.6875
2220.28132	15839.9875
2223.1969	15774.5875
2226.11061	15739.4875
2229.02246	15739.9875
2231.93245	15689.3875
2234.84058	15680.9875
2237.74686	15620.0875
2240.65128	15621.2875
2243.55385	15614.4875
2246.45456	15575.9875
2249.35343	15546.0875
2252.25044	15521.4875
2255.14561	15521.5875
2258.03893	15490.6875
2260.93041	15482.4875
2263.82004	15445.5875
2266.70783	15385.3875
2269.59378	15358.2875
2272.4779	15312.5875
2275.36017	15275.9875
2278.24061	15226.4875
2281.11922	15210.7875
2283.996	15193.4875
2286.87094	15165.4875
2289.74405	15121.1875
2292.61534	15120.5875
2295.4848	15093.2875
2298.35243	15106.3875
2301.21824	15082.2875
2304.08223	15094.7875
2306.94439	15085.3875
2309.80474	15109.2875
2312.66327	15095.7875
2315.51999	15055.3875
2318.37489	15094.2875
2321.22797	15082.0875
2324.07925	15054.9875
2326.92871	15021.9875
2329.77637	15033.9875
2332.62222	14972.8875
2335.46626	14996.6875
2338.3085	15011.2875
2341.14893	15026.1875
2343.98756	14986.7875
2346.8244	15005.8875
2349.65943	15044.7875
2352.49267	15038.1875
2355.32411	15044.2875
2358.15376	15054.3875
2360.98161	15039.8875
2363.80768	15038.1875
2366.63195	15031.3875
2369.45444	14986.7875
2372.27514	14996.6875
2375.09405	14955.5875
2377.91118	14925.3875
2380.72652	14903.3875
2383.54009	14844.8875
2386.35187	14808.6875
2389.16188	14766.7875
2391.97011	14722.9875
2394.77657	14714.4875
2397.58125	14663.3875
2400.38416	14652.7875
2403.18529	14618.9875
2405.98466	14606.1875
2408.78226	14574.0875
2411.57809	14585.1875
2414.37216	14569.3875
2417.16446	14521.7875
2419.955	14510.7875
2422.74378	14484.3875
2425.5308	14473.4875
2428.31606	14469.0875
2431.09956	14475.8875
2433.88131	14441.7875
2436.6613	14442.8875
2439.43954	14449.7875
2442.21603	14453.2875
2444.99077	14393.5875
2447.76377	14418.3875
2450.53501	14431.1875
2453.30451	14433.5875
2456.07226	14418.6875
2458.83827	14443.1875
2461.60254	14431.3875
2464.36507	14462.3875
2467.12586	14417.3875
2469.88492	14413.6875
2472.64224	14398.1875
2475.39782	14414.2875
2478.15167	14444.5875
2480.90379	14445.9875
2483.65417	14489.8875
2486.40283	14457.4875
2489.14976	14529.4875
2491.89497	14506.9875
2494.63845	14537.2875
2497.3802	14520.9875
2500.12024	14527.0875
2502.85855	14525.9875
2505.59514	14508.3875
2508.33002	14514.9875
2511.06318	14477.6875
2513.79462	14466.8875
2516.52435	14409.2875
2519.25237	14382.1875
2521.97867	14345.1875
2524.70327	14365.2875
2527.42616	14335.9875
2530.14734	14362.5875
2532.86681	14299.8875
2535.58458	14304.5875
2538.30065	14287.1875
2541.01501	14297.2875
2543.72768	14250.0875
2546.43864	14249.1875
2549.14791	14256.1875
2551.85548	14256.7875
2554.56136	14248.1875
2557.26554	14256.2875
2559.96803	14220.3875
2562.66883	14202.2875
2565.36794	14209.4875
2568.06536	14206.4875
2570.7611	14167.7875
2573.45514	14151.3875
2576.14751	14157.2875
2578.83819	14142.5875
2581.52719	14169.7875
2584.21451	14129.1875
2586.90015	14141.0875
2589.58411	14111.4875
2592.2664	14110.2875
2594.94701	14111.8875
2597.62594	14108.2875
2600.30321	14083.2875
2602.9788	14092.5875
2605.65273	14081.2875
2608.32498	14112.6875
2610.99557	14085.0875
2613.66449	14108.2875
2616.33175	14094.9875
2618.99734	14140.2875
2621.66128	14115.9875
2624.32355	14115.4875
2626.98416	14119.1875
2629.64311	14137.3875
2632.30041	14121.3875
2634.95605	14110.6875
2637.61004	14092.7875
2640.26238	14068.8875
2642.91306	14053.0875
2645.56209	14060.3875
2648.20948	14039.2875
2650.85521	14034.6875
2653.4993	14047.4875
2656.14175	14038.3875
2658.78255	14053.5875
2661.42171	14093.8875
2664.05923	14076.2875
2666.6951	14077.8875
2669.32934	14104.7875
2671.96194	14145.1875
2674.59291	14121.3875
2677.22224	14114.8875
2679.84993	14124.0875
2682.476	14123.9875
2685.10043	14120.7875
2687.72324	14083.2875
2690.34441	14082.7875
2692.96396	14095.6875
2695.58188	14081.0875
2698.19818	14047.0875
2700.81285	14089.3875
2703.4259	14084.5875
2706.03733	14100.9875
2708.64714	14120.4875
2711.25533	14098.6875
2713.86191	14100.5875
2716.46687	14151.5875
2719.07021	14136.5875
2721.67194	14158.2875
2724.27206	14157.0875
2726.87057	14187.4875
2729.46747	14163.1875
2732.06276	14188.4875
2734.65644	14156.9875
2737.24852	14160.5875
2739.83899	14124.8875
2742.42786	14146.4875
2745.01513	14099.2875
2747.60079	14111.0875
2750.18486	14108.1875
2752.76733	14107.1875
2755.3482	14101.1875
2757.92747	14126.2875
2760.50515	14137.7875
2763.08123	14143.7875
2765.65573	14107.5875
2768.22863	14103.6875
2770.79994	14076.8875
2773.36967	14065.6875
2775.9378	14067.4875
2778.50435	14049.0875
2781.06932	14082.3875
2783.6327	14082.1875
2786.1945	14063.0875
2788.75471	14051.5875
2791.31335	14045.0875
2793.87041	14014.7875
2796.42589	14013.9875
2798.97979	13992.8875
2801.53212	13959.6875
2804.08288	13973.5875
2806.63206	13912.1875
2809.17967	13894.5875
2811.72571	13894.8875
2814.27018	13902.0875
2816.81308	13857.1875
2819.35442	13871.5875
2821.89419	13830.9875
2824.43239	13818.3875
2826.96904	13854.2875
2829.50412	13851.7875
2832.03763	13819.7875
2834.56959	13815.8875
2837.1	13792.0875
2839.62884	13826.6875
2842.15613	13770.2875
2844.68186	13822.7875
2847.20604	13867.5875
2849.72867	13919.1875
2852.24974	13894.3875
2854.76927	13884.0875
2857.28724	13867.4875
2859.80367	13842.5875
2862.31855	13819.2875
2864.83189	13792.3875
2867.34368	13812.2875
2869.85393	13845.3875
2872.36264	13818.6875
2874.8698	13808.9875
2877.37543	13820.0875
2879.87952	13797.8875
2882.38207	13799.7875
2884.88308	13767.4875
2887.38256	13810.0875
2889.88051	13790.8875
2892.37692	13813.2875
2894.8718	13814.7875
2897.36515	13835.5875
2899.85698	13795.5875
2902.34727	13825.0875
2904.83604	13836.7875
2907.32328	13878.2875
2909.809	13879.1875
2912.29319	13880.5875
2914.77587	13842.1875
2917.25702	13866.5875
2919.73665	13846.0875
2922.21476	13849.4875
2924.69136	13825.2875
2927.16644	13853.7875
2929.64	13852.0875
2932.11205	13821.4875
2934.58258	13772.7875
2937.05161	13760.3875
2939.51912	13741.9875
2941.98513	13728.4875
2944.44962	13661.0875
2946.91261	13587.9875
2949.37409	13606.7875
2951.83407	13579.3875
2954.29254	13552.3875
2956.74951	13548.9875
2959.20498	13530.3875
2961.65895	13499.3875
2964.11142	13487.0875
2966.56239	13479.6875
2969.01186	13432.0875
2971.45984	13393.1875
2973.90632	13383.3875
2976.35131	13303.9875
2978.7948	13287.8875
2981.23681	13236.0875
2983.67732	13220.7875
2986.11635	13185.5875
2988.55388	13168.3875
2990.98993	13159.7875
2993.4245	13112.0875
2995.85758	13086.8875
2998.28917	13059.7875
3000.71928	13042.5875
3003.14791	12993.4875
3005.57506	12984.8875
3008.00073	12948.5875
3010.42493	12931.0875
3012.84764	12899.2875
3015.26888	12897.4875
3017.68865	12865.6875
3020.10694	12861.3875
3022.52376	12816.3875
3024.9391	12788.4875
3027.35298	12766.7875
3029.76539	12733.9875
3032.17632	12736.5875
3034.5858	12740.5875
3036.9938	12745.1875
3039.40034	12679.4875
3041.80542	12694.8875
3044.20903	12643.2875
3046.61118	12603.6875
3049.01187	12599.0875
3051.4111	12576.9875
3053.80888	12536.9875
3056.20519	12514.4875
3058.60005	12464.8875
3060.99345	12439.7875
3063.3854	12454.9875
3065.7759	12383.8875
3068.16494	12359.3875
3070.55254	12303.5875
3072.93868	12252.8875
3075.32338	12210.4875
3077.70662	12215.4875
3080.08842	12150.9875
3082.46878	12141.5875
3084.84769	12114.7875
3087.22515	12102.6875
3089.60118	12102.0875
3091.97576	12096.6875
3094.3489	12099.6875
3096.72061	12055.4875
3099.09087	12060.3875
3101.4597	12040.9875
3103.82709	12019.9875
3106.19305	11996.6875
3108.55757	11996.1875
3110.92066	11937.0875
3113.28232	11904.2875
3115.64255	11856.4875
3118.00134	11838.1875
3120.35871	11807.4875
3122.71466	11788.5875
3125.06917	11769.3875
3127.42226	11804.2875
3129.77393	11761.7875
3132.12417	11741.0875
3134.47299	11735.8875
3136.82039	11728.1875
3139.16636	11726.5875
3141.51092	11689.8875
3143.85406	11719.1875
3146.19579	11699.2875
3148.53609	11697.3875
3150.87499	11715.7875
3153.21246	11694.7875
3155.54853	11711.2875
3157.88318	11676.7875
3160.21642	11676.3875
3162.54826	11677.5875
3164.87868	11658.8875
3167.2077	11657.4875
3169.5353	11646.6875
3171.86151	11639.2875
3174.18631	11635.5875
3176.5097	11622.5875
3178.83169	11596.7875
3181.15228	11591.4875
3183.47147	11577.1875
3185.78926	11569.4875
3188.10565	11539.4875
3190.42065	11571.4875
3192.73424	11557.1875
3195.04645	11541.2875
3197.35725	11571.8875
3199.66667	11522.8875
3201.97469	11548.5875
3204.28132	11507.9875
3206.58656	11556.4875
3208.8904	11549.6875
3211.19287	11533.3875
3213.49394	11557.6875
3215.79363	11548.8875
3218.09193	11544.6875
3220.38884	11550.4875
3222.68438	11557.4875
3224.97853	11531.7875
3227.2713	11523.6875
3229.56269	11513.4875
3231.8527	11482.5875
3234.14133	11474.5875
3236.42858	11439.8875
3238.71446	11435.9875
3240.99896	11411.1875
3243.28209	11412.1875
3245.56384	11403.0875
3247.84423	11389.1875
3250.12324	11384.4875
3252.40088	11389.9875
3254.67715	11363.1875
3256.95205	11337.5875
3259.22558	11327.6875
3261.49775	11298.8875
3263.76855	11273.8875
3266.03799	11247.7875
3268.30606	11232.8875
3270.57277	11220.6875
3272.83812	11189.6875
3275.10211	11167.0875
3277.36474	11145.3875
3279.62601	11136.4875
3281.88593	11133.7875
3284.14448	11156.0875
3286.40168	11148.0875
3288.65753	11131.6875
3290.91202	11093.2875
3293.16516	11054.1875
3295.41695	11036.6875
3297.66738	10955.4875
3299.91647	10904.3875
3302.16421	10854.8875
3304.4106	10801.3875
3306.65564	10742.5875
3308.89933	10686.2875
3311.14169	10611.1875
3313.38269	10542.8875
3315.62236	10468.8875
3317.86068	10378.3875
3320.09766	10267.6875
3322.3333	10187.7875
3324.5676	10163.7875
3326.80056	10024.0875
3329.03219	9955.4875
3331.26248	2.6875
3333.49143	-0.5125
3335.71905	-1.0125
