Data from AgNPs_FTO_APTES_UA_2uM_CRN_200uM_R6G_10uM_NaF_0.1M_Addition_RamanShift__8__16-28-15-358.txt Node

Date: Wed Feb 02 16:28:15 GMT 2022
User: TCL
Spectrometer: QEP01345
Trigger mode: 4
Integration Time (sec): 7.000000E0
Scans to average: 10
Electric dark correction enabled: true
Nonlinearity correction enabled: false
Boxcar width: 0
XAxis mode: Raman Shifts
Number of Pixels in Spectrum: 1044
>>>>>Begin Spectral Data<<<<<
46.04893	1
50.45542	0.6
54.85868	-1
59.25871	-1.5
63.6555	68.1
68.04907	71.8
72.43941	74.5
76.82654	83.3
81.21044	84.5
85.59113	89.7
89.96862	90
94.34289	90.2
98.71396	90.4
103.08183	99.3
107.4465	99.2
111.80798	104.3
116.16626	104.7
120.52136	108.5
124.87327	110
129.222	115.1
133.56755	124
137.90993	129.2
142.24913	142.9
146.58517	163.5
150.91804	185
155.24774	224.2
159.57429	278.6
163.89768	353.8
168.21792	461.4
172.53501	627.4
176.84895	870.7
181.15975	1214.9
185.46741	1703.5
189.77193	2337.6
194.07331	3126.5
198.37157	4029.3
202.6667	4978.4
206.9587	5905.4
211.24758	6817.6
215.53334	7747.9
219.81599	8728.9
224.09553	9799.1
228.37195	10952.7
232.64527	12205
236.91549	13530.4
241.18261	14838.5
245.44663	16122.6
249.70755	17274.9
253.96539	18251.8
258.22014	19119.6
262.4718	19782.2
266.72039	20287.8
270.96589	20590.9
275.20832	20626
279.44768	20624.2
283.68397	20514.7
287.91719	20440.7
292.14735	20474.8
296.37445	20509.9
300.59849	20673.9
304.81948	20763.7
309.03742	20688.7
313.25231	20412.4
317.46415	19935
321.67296	19348.2
325.87872	18850.4
330.08145	18558.8
334.28114	18412.7
338.47781	18429
342.67145	18585.5
346.86207	18791.3
351.04966	19003.8
355.23424	19200.2
359.4158	19376.1
363.59435	19577
367.76989	19629.7
371.94243	19746.9
376.11196	19792.2
380.27849	19852.2
384.44203	19890.4
388.60257	20104.2
392.76012	20392.5
396.91468	20786.7
401.06626	21083.5
405.21485	21302.3
409.36047	21209.3
413.50311	21035.7
417.64277	20918.5
421.77947	21004.9
425.9132	21116.7
430.04396	21280.2
434.17176	21435.9
438.2966	21534.7
442.41849	21811.3
446.53742	22389.5
450.6534	23055.2
454.76644	23552.6
458.87653	23753.3
462.98368	23769
467.08789	23570.6
471.18916	23385.4
475.2875	23308.1
479.38291	23415.3
483.4754	23394.9
487.56496	23042.1
491.6516	22377.2
495.73531	21655.6
499.81612	21219.8
503.89401	21189.5
507.96899	21245.5
512.04106	21242.1
516.11023	20989.6
520.1765	20627.6
524.23987	20271
528.30034	19955.2
532.35792	19750.7
536.41261	19545.4
540.46441	19369.9
544.51333	19502.7
548.55936	19816.9
552.60252	20384.8
556.64279	21036.6
560.6802	21595.7
564.71473	21999.3
568.7464	22652.6
572.7752	23722
576.80114	24871.8
580.82422	25826.7
584.84444	26740.1
588.86181	27854.5
592.87633	28646.7
596.888	28037.6
600.89682	26263.4
604.9028	25303.1
608.90594	25653.6
612.90624	26187.3
616.90371	24327.9
620.89834	20991.8
624.89015	19534.7
628.87913	19491.8
632.86528	19716.8
636.84862	19674.6
640.82913	19347.4
644.80683	18881.6
648.78172	18592.5
652.75379	18520.3
656.72306	18613.1
660.68952	18747.2
664.65319	18621.3
668.61405	18361.4
672.57211	18341.7
676.52738	18407.9
680.47986	18453.7
684.42955	18377.8
688.37646	18286.7
692.32058	18373.2
696.26192	18593.1
700.20048	18870.7
704.13626	19115.8
708.06928	19221.6
711.99952	19231
715.927	19228.3
719.85171	19201.4
723.77365	19058.2
727.69284	18696.6
731.60928	18419.7
735.52295	18302.3
739.43388	18221.5
743.34206	18302.2
747.24749	18426
751.15017	18726.9
755.05012	19149.1
758.94733	19841.6
762.8418	20854.3
766.73354	22219
770.62254	23284.6
774.50882	23201.5
778.39237	21970
782.27321	20435.2
786.15132	19250.1
790.02671	18523.5
793.89938	18134.8
797.76935	17971.3
801.6366	17944.3
805.50115	17944.9
809.36299	17869.6
813.22213	17757.7
817.07857	17735.3
820.93231	17721.3
824.78336	17533.6
828.63172	17313
832.47738	17227.4
836.32036	17166.1
840.16066	17181.7
843.99827	17121.1
847.8332	17086.9
851.66546	17062.5
855.49504	17097.8
859.32195	17052.4
863.1462	17014
866.96777	16967
870.78668	16907.5
874.60293	16863.3
878.41652	16888.1
882.22745	16909.9
886.03573	16941
889.84136	16972
893.64433	16914.9
897.44466	16853.6
901.24235	16824.5
905.0374	16770.5
908.8298	16749.5
912.61957	16878.3
916.40671	17151.9
920.19121	17530.3
923.97308	17741.4
927.75233	17572.7
931.52895	17240.2
935.30295	16812
939.07433	16452.4
942.84309	16159.1
946.60924	15959.3
950.37278	15915.2
954.13371	15901.4
957.89203	15978.8
961.64774	16053
965.40086	16026.5
969.15137	15923.7
972.89929	15706
976.64461	15581.6
980.38733	15496.6
984.12747	15476.1
987.86502	15538.5
991.59999	15567.8
995.33237	15688.5
999.06217	15874.5
1002.78939	16152.7
1006.51404	16456.3
1010.23611	16733.6
1013.95561	16982
1017.67255	17056.1
1021.38692	16957.7
1025.09872	16683.8
1028.80796	16376.5
1032.51465	16285.3
1036.21877	16333
1039.92035	16391.4
1043.61937	16523.9
1047.31584	16612.3
1051.00976	16695.5
1054.70114	16834.6
1058.38998	17061.7
1062.07627	17363
1065.76003	17685
1069.44126	17961.6
1073.11995	18280.5
1076.79611	18440.2
1080.46974	18443.9
1084.14085	18518.2
1087.80943	18654.9
1091.47549	18901.5
1095.13903	19096.2
1098.80005	18906.9
1102.45857	18324.6
1106.11456	17788.9
1109.76805	17493
1113.41903	17460.7
1117.06751	17591
1120.71348	17808.9
1124.35696	18020.4
1127.99793	18353
1131.63641	18594.9
1135.2724	18561.2
1138.90589	18589.6
1142.5369	18773.4
1146.16542	19154.8
1149.79145	19628.3
1153.415	20039.6
1157.03607	20557.9
1160.65467	21415.2
1164.27079	22745.8
1167.88443	24211.2
1171.49561	25730.5
1175.10432	27313.3
1178.71056	29315.3
1182.31434	31067.7
1185.91565	31901.7
1189.51451	31692.4
1193.11091	31024.5
1196.70485	30079.8
1200.29634	29110
1203.88538	28576.7
1207.47197	28616.1
1211.05612	28723.5
1214.63782	28283.4
1218.21708	27064
1221.79391	25603.4
1225.36829	24556.7
1228.94024	23913.5
1232.50976	23437.4
1236.07685	23093.6
1239.6415	22942.3
1243.20374	22980.6
1246.76355	23183.2
1250.32093	23544
1253.8759	24058.9
1257.42845	24800.5
1260.97859	25605.4
1264.52631	26398
1268.07163	27140.5
1271.61453	27957
1275.15503	28963.8
1278.69312	30107.2
1282.22882	31540.4
1285.76211	33177.3
1289.29301	35191.2
1292.82151	37591.4
1296.34761	40444.7
1299.87133	43408.9
1303.39266	45959
1306.9116	47697.4
1310.42815	48676.2
1313.94233	49027.8
1317.45412	48745.2
1320.96354	48381.4
1324.47058	48255.7
1327.97525	48425.4
1331.47754	48441.9
1334.97747	48179.4
1338.47502	47489.4
1341.97022	46492.2
1345.46305	45257.4
1348.95352	44150.8
1352.44163	43322.2
1355.92738	43351.3
1359.41078	44089.4
1362.89183	44673.8
1366.37053	43795.3
1369.84688	40958.4
1373.32088	36950.9
1376.79254	34218.8
1380.26186	33672.8
1383.72883	34366.4
1387.19347	35056.1
1390.65578	35187.2
1394.11575	35342
1397.57339	35928.7
1401.0287	36701.9
1404.48168	37061.4
1407.93234	36582.4
1411.38068	35073.4
1414.82669	33064.2
1418.27039	30906.2
1421.71177	28916.1
1425.15083	27413.4
1428.58758	26705.8
1432.02203	26996.7
1435.45416	27938.8
1438.88399	29146
1442.31151	30150.7
1445.73673	30842.2
1449.15965	31415.3
1452.58027	31858.2
1455.9986	32031.1
1459.41463	32251.8
1462.82837	32571.8
1466.23982	33012.9
1469.64898	33352.7
1473.05586	33534.6
1476.46045	33395.5
1479.86276	32919.6
1483.26279	32271.3
1486.66054	31930.5
1490.05602	31882.5
1493.44922	32044.6
1496.84016	32362.3
1500.22882	32832.3
1503.61521	33486.1
1506.99934	34234.4
1510.38121	34909
1513.76081	35182.5
1517.13816	35057.8
1520.51324	34818.6
1523.88607	34971.2
1527.25665	35392.1
1530.62498	35835.5
1533.99105	35783.2
1537.35488	35107.2
1540.71647	33989
1544.07581	32564.7
1547.4329	31107.4
1550.78776	29889.3
1554.14038	29048.4
1557.49077	28527.4
1560.83892	28228.7
1564.18484	28175.8
1567.52853	28305.5
1570.86999	28756
1574.20922	29668.2
1577.54624	30751.3
1580.88103	31650.1
1584.2136	32613.6
1587.54395	33994.6
1590.87208	35683.3
1594.19801	37553.3
1597.52172	39138.3
1600.84321	39029
1604.16251	36682.9
1607.47959	33119.6
1610.79447	29504.3
1614.10715	26441.5
1617.41763	24125.8
1620.7259	22597.5
1624.03199	21877.5
1627.33587	21968.8
1630.63757	22897
1633.93707	24910.6
1637.23439	28235.7
1640.52951	32867.1
1643.82246	38366.6
1647.11321	42759.9
1650.40179	43447.4
1653.68819	39793.5
1656.97241	33677.5
1660.25446	27717.1
1663.53433	23186.1
1666.81203	20160.8
1670.08756	18244.6
1673.36092	17083.7
1676.63211	16296.3
1679.90115	15769.7
1683.16801	15392.9
1686.43272	15087.5
1689.69527	14845.2
1692.95567	14685.9
1696.2139	14598
1699.46999	14496.3
1702.72392	14417
1705.97571	14292.7
1709.22535	14218.3
1712.47284	14122.8
1715.71819	14075.8
1718.96139	13994.6
1722.20246	13970
1725.44139	13876.7
1728.67818	13762.4
1731.91284	13695.7
1735.14537	13583.2
1738.37576	13523.3
1741.60403	13457.1
1744.83017	13400.1
1748.05418	13330.1
1751.27607	13332.3
1754.49584	13299.2
1757.71349	13306.2
1760.92903	13283.3
1764.14244	13260.4
1767.35375	13237.2
1770.56294	13165.7
1773.77002	13126.4
1776.97499	13070.3
1780.17785	13016
1783.37861	12966.9
1786.57727	12922.8
1789.77382	12906
1792.96828	12860
1796.16064	12810.2
1799.3509	12790
1802.53907	12744.1
1805.72514	12691.2
1808.90913	12671.4
1812.09102	12631.6
1815.27083	12609.9
1818.44856	12585.2
1821.6242	12538.3
1824.79776	12537
1827.96924	12519.3
1831.13864	12498.5
1834.30597	12491.7
1837.47122	12506.2
1840.6344	12490.2
1843.7955	12504
1846.95454	12475.4
1850.11151	12459.3
1853.26642	12459.1
1856.41926	12446.3
1859.57004	12426.7
1862.71876	12408.6
1865.86542	12365.9
1869.01003	12373.6
1872.15258	12329.8
1875.29308	12293
1878.43152	12289.8
1881.56792	12262
1884.70227	12236.6
1887.83457	12220.3
1890.96482	12197.9
1894.09304	12211.1
1897.21921	12173.3
1900.34335	12162.9
1903.46544	12141
1906.58551	12099.7
1909.70353	12078
1912.81953	12045.1
1915.93349	12012.3
1919.04543	11992.3
1922.15534	11947.6
1925.26322	11916.7
1928.36908	11874.7
1931.47292	11847
1934.57473	11808.8
1937.67453	11788.1
1940.77232	11741.5
1943.86808	11721.9
1946.96184	11687.4
1950.05358	11661.1
1953.14331	11606.7
1956.23103	11570.2
1959.31675	11544.8
1962.40046	11484.9
1965.48217	11452.5
1968.56188	11403
1971.63959	11344.1
1974.7153	11332.3
1977.78901	11299.8
1980.86073	11248.5
1983.93046	11179.3
1986.99819	11147.7
1990.06394	11131.3
1993.1277	11112.6
1996.18947	11054.5
1999.24925	11034.4
2002.30706	10974.4
2005.36288	10951.3
2008.41672	10909.7
2011.46859	10863.7
2014.51848	10821
2017.56639	10793.3
2020.61233	10764.2
2023.6563	10756.5
2026.6983	10764.3
2029.73833	10708.9
2032.7764	10677.7
2035.8125	10647.9
2038.84664	10623.6
2041.87881	10608.2
2044.90903	10610.7
2047.93729	10548.4
2050.96359	10535.7
2053.98794	10534.5
2057.01034	10504.8
2060.03078	10519.5
2063.04927	10516.9
2066.06582	10451.8
2069.08042	10476.6
2072.09307	10468.8
2075.10378	10440
2078.11255	10443.2
2081.11938	10430.3
2084.12426	10415.7
2087.12722	10404.7
2090.12824	10403.3
2093.12732	10407.9
2096.12447	10410.5
2099.11969	10413.2
2102.11299	10416.2
2105.10435	10403.5
2108.09379	10396.5
2111.08131	10389.4
2114.0669	10392.1
2117.05057	10401.2
2120.03233	10410.8
2123.01216	10401.3
2125.99008	10385.8
2128.96609	10383.8
2131.94018	10358.2
2134.91236	10377.2
2137.88263	10359.8
2140.851	10372.9
2143.81746	10404.1
2146.78201	10383.9
2149.74466	10349.3
2152.7054	10356.4
2155.66425	10345.2
2158.6212	10348.8
2161.57625	10325.8
2164.52941	10328.5
2167.48067	10317.1
2170.43004	10290.6
2173.37752	10282.8
2176.32311	10270.5
2179.26681	10302.7
2182.20863	10286.3
2185.14856	10284.8
2188.08661	10286.5
2191.02278	10275.8
2193.95707	10243.7
2196.88948	10229.1
2199.82001	10225.6
2202.74867	10216.4
2205.67545	10180.4
2208.60037	10150.8
2211.52341	10142
2214.44458	10126.1
2217.36388	10110
2220.28132	10091.4
2223.1969	10078.4
2226.11061	10074.1
2229.02246	10010.1
2231.93245	10037.6
2234.84058	9979.4
2237.74686	9987.8
2240.65128	9969.5
2243.55385	9959.6
2246.45456	9938.3
2249.35343	9898.7
2252.25044	9859.3
2255.14561	9833.6
2258.03893	9818.5
2260.93041	9803.9
2263.82004	9750.1
2266.70783	9709.5
2269.59378	9703
2272.4779	9679.8
2275.36017	9633.8
2278.24061	9614.1
2281.11922	9601.7
2283.996	9579.9
2286.87094	9565.6
2289.74405	9536.3
2292.61534	9509.5
2295.4848	9493.1
2298.35243	9524.9
2301.21824	9489.1
2304.08223	9480.1
2306.94439	9474.6
2309.80474	9459.5
2312.66327	9431.8
2315.51999	9436.7
2318.37489	9443.3
2321.22797	9395.9
2324.07925	9394.1
2326.92871	9389
2329.77637	9364.8
2332.62222	9363.3
2335.46626	9335.8
2338.3085	9333.5
2341.14893	9308.2
2343.98756	9315.4
2346.8244	9316.6
2349.65943	9336.5
2352.49267	9317.1
2355.32411	9354.2
2358.15376	9316.9
2360.98161	9310.3
2363.80768	9283.3
2366.63195	9288.6
2369.45444	9273.2
2372.27514	9242.5
2375.09405	9248.6
2377.91118	9241.2
2380.72652	9231
2383.54009	9201.3
2386.35187	9172.3
2389.16188	9112
2391.97011	9128.5
2394.77657	9087.8
2397.58125	9097.7
2400.38416	9069.6
2403.18529	9076
2405.98466	9057.8
2408.78226	9041.8
2411.57809	9033.7
2414.37216	9032.1
2417.16446	9029.5
2419.955	9025.5
2422.74378	9010.4
2425.5308	8988.2
2428.31606	8983.3
2431.09956	8944.8
2433.88131	8956.7
2436.6613	8960.8
2439.43954	8946.9
2442.21603	8956.9
2444.99077	8927.2
2447.76377	8941.6
2450.53501	8943.5
2453.30451	8918.9
2456.07226	8894.7
2458.83827	8906.9
2461.60254	8900.9
2464.36507	8909.2
2467.12586	8883.8
2469.88492	8884.2
2472.64224	8884.8
2475.39782	8890.7
2478.15167	8880.8
2480.90379	8865.5
2483.65417	8891.9
2486.40283	8868.2
2489.14976	8871.1
2491.89497	8873.5
2494.63845	8875.3
2497.3802	8873.1
2500.12024	8867.1
2502.85855	8857
2505.59514	8851.2
2508.33002	8865
2511.06318	8834
2513.79462	8858.3
2516.52435	8831.3
2519.25237	8832.8
2521.97867	8796.7
2524.70327	8790.8
2527.42616	8800.5
2530.14734	8787.3
2532.86681	8760.5
2535.58458	8767
2538.30065	8731.2
2541.01501	8737.3
2543.72768	8723.9
2546.43864	8705.2
2549.14791	8695.2
2551.85548	8704.2
2554.56136	8713.4
2557.26554	8709.5
2559.96803	8678.6
2562.66883	8669.7
2565.36794	8696.4
2568.06536	8699.2
2570.7611	8672.8
2573.45514	8647.7
2576.14751	8644.9
2578.83819	8613
2581.52719	8627.6
2584.21451	8612.8
2586.90015	8628.4
2589.58411	8595
2592.2664	8617
2594.94701	8602.8
2597.62594	8594.2
2600.30321	8583.8
2602.9788	8581.8
2605.65273	8571.4
2608.32498	8581
2610.99557	8572.6
2613.66449	8595.3
2616.33175	8586.3
2618.99734	8591
2621.66128	8573.5
2624.32355	8592.7
2626.98416	8544.3
2629.64311	8549.8
2632.30041	8552.8
2634.95605	8554.9
2637.61004	8539.1
2640.26238	8547.3
2642.91306	8532
2645.56209	8525.8
2648.20948	8529.1
2650.85521	8532.7
2653.4993	8551
2656.14175	8526.2
2658.78255	8558.7
2661.42171	8552.3
2664.05923	8563.5
2666.6951	8581.9
2669.32934	8581.9
2671.96194	8553.2
2674.59291	8565.3
2677.22224	8558.6
2679.84993	8564.9
2682.476	8551.6
2685.10043	8558.8
2687.72324	8546.8
2690.34441	8538
2692.96396	8544.6
2695.58188	8536.2
2698.19818	8549.7
2700.81285	8554.5
2703.4259	8576.6
2706.03733	8600.8
2708.64714	8580.5
2711.25533	8584.5
2713.86191	8555.4
2716.46687	8572.6
2719.07021	8568.4
2721.67194	8571
2724.27206	8588.3
2726.87057	8599.8
2729.46747	8579.8
2732.06276	8613.8
2734.65644	8605.9
2737.24852	8577.3
2739.83899	8588.3
2742.42786	8575
2745.01513	8555.9
2747.60079	8567.6
2750.18486	8548.5
2752.76733	8579.2
2755.3482	8560.1
2757.92747	8566.2
2760.50515	8552.4
2763.08123	8570.1
2765.65573	8559.7
2768.22863	8571.4
2770.79994	8548.5
2773.36967	8567.9
2775.9378	8549.7
2778.50435	8559.4
2781.06932	8544.2
2783.6327	8536.8
2786.1945	8551.4
2788.75471	8538
2791.31335	8508.9
2793.87041	8500.8
2796.42589	8502.9
2798.97979	8485.3
2801.53212	8457.4
2804.08288	8483.7
2806.63206	8448.5
2809.17967	8434.4
2811.72571	8395.9
2814.27018	8413.7
2816.81308	8390.8
2819.35442	8365.7
2821.89419	8370.8
2824.43239	8352.1
2826.96904	8334.2
2829.50412	8343.9
2832.03763	8328.7
2834.56959	8345.7
2837.1	8318
2839.62884	8341.5
2842.15613	8346.5
2844.68186	8377.7
2847.20604	8418
2849.72867	8434.3
2852.24974	8450
2854.76927	8429.8
2857.28724	8411.4
2859.80367	8394.5
2862.31855	8373.9
2864.83189	8360.6
2867.34368	8353.7
2869.85393	8344.8
2872.36264	8326.3
2874.8698	8320.7
2877.37543	8332.1
2879.87952	8318.8
2882.38207	8319.2
2884.88308	8304.1
2887.38256	8310.7
2889.88051	8309.1
2892.37692	8320
2894.8718	8330
2897.36515	8330.8
2899.85698	8323.7
2902.34727	8350.1
2904.83604	8341
2907.32328	8355.1
2909.809	8349
2912.29319	8343.5
2914.77587	8320.4
2917.25702	8340.2
2919.73665	8349.9
2922.21476	8333.5
2924.69136	8335
2927.16644	8352.1
2929.64	8354.5
2932.11205	8333.7
2934.58258	8336.8
2937.05161	8328.3
2939.51912	8315.5
2941.98513	8296.1
2944.44962	8264.6
2946.91261	8211.9
2949.37409	8219.9
2951.83407	8183.6
2954.29254	8185.4
2956.74951	8170
2959.20498	8152.5
2961.65895	8138
2964.11142	8126.8
2966.56239	8079
2969.01186	8081.3
2971.45984	8070.1
2973.90632	8057.7
2976.35131	7984.9
2978.7948	7985.5
2981.23681	7951.5
2983.67732	7914.5
2986.11635	7908.5
2988.55388	7874.3
2990.98993	7855
2993.4245	7839.1
2995.85758	7818.3
2998.28917	7800.6
3000.71928	7798.7
3003.14791	7775.8
3005.57506	7749.8
3008.00073	7726.4
3010.42493	7714.8
3012.84764	7694.2
3015.26888	7663
3017.68865	7659.7
3020.10694	7655.4
3022.52376	7620.6
3024.9391	7600.2
3027.35298	7593.3
3029.76539	7564.4
3032.17632	7580.3
3034.5858	7575.3
3036.9938	7558.2
3039.40034	7562.4
3041.80542	7558.2
3044.20903	7524.9
3046.61118	7514.1
3049.01187	7488.1
3051.4111	7480.2
3053.80888	7461.7
3056.20519	7448.4
3058.60005	7421.4
3060.99345	7402.2
3063.3854	7376.1
3065.7759	7348.7
3068.16494	7358.1
3070.55254	7292.8
3072.93868	7286
3075.32338	7282.5
3077.70662	7246.1
3080.08842	7217.9
3082.46878	7200.9
3084.84769	7183
3087.22515	7176.6
3089.60118	7175.3
3091.97576	7171.8
3094.3489	7181.3
3096.72061	7148.7
3099.09087	7161.7
3101.4597	7152.3
3103.82709	7144
3106.19305	7102.4
3108.55757	7111.8
3110.92066	7084.8
3113.28232	7082.6
3115.64255	7031.7
3118.00134	7020.4
3120.35871	6987.7
3122.71466	6996.5
3125.06917	6996.5
3127.42226	6988.6
3129.77393	6960.7
3132.12417	6973.5
3134.47299	6968.8
3136.82039	6930.9
3139.16636	6947.7
3141.51092	6959.4
3143.85406	6926.1
3146.19579	6949.2
3148.53609	6964
3150.87499	6951.9
3153.21246	6939.2
3155.54853	6963.3
3157.88318	6925.9
3160.21642	6933.3
3162.54826	6933.8
3164.87868	6923
3167.2077	6930.2
3169.5353	6940.8
3171.86151	6927.2
3174.18631	6913.3
3176.5097	6907.8
3178.83169	6882.6
3181.15228	6893.9
3183.47147	6880.4
3185.78926	6862.7
3188.10565	6873.3
3190.42065	6877.5
3192.73424	6870.1
3195.04645	6840.9
3197.35725	6838.1
3199.66667	6831.5
3201.97469	6840.7
3204.28132	6820.9
3206.58656	6832.3
3208.8904	6806.7
3211.19287	6804.6
3213.49394	6797.6
3215.79363	6799.2
3218.09193	6814.9
3220.38884	6806.4
3222.68438	6809.7
3224.97853	6798.7
3227.2713	6783.2
3229.56269	6770.9
3231.8527	6777.8
3234.14133	6755.9
3236.42858	6762.2
3238.71446	6740.5
3240.99896	6743.4
3243.28209	6744.8
3245.56384	6731.3
3247.84423	6730.3
3250.12324	6687.9
3252.40088	6691.3
3254.67715	6678.5
3256.95205	6667
3259.22558	6666.2
3261.49775	6628.8
3263.76855	6615.8
3266.03799	6592.8
3268.30606	6567.5
3270.57277	6557.3
3272.83812	6573.4
3275.10211	6539.4
3277.36474	6522.4
3279.62601	6527.9
3281.88593	6531.6
3284.14448	6530.6
3286.40168	6518.5
3288.65753	6525.2
3290.91202	6519.5
3293.16516	6500.8
3295.41695	6479.9
3297.66738	6436.4
3299.91647	6389.2
3302.16421	6347.2
3304.4106	6303.8
3306.65564	6256.3
3308.89933	6233.3
3311.14169	6181.6
3313.38269	6166.3
3315.62236	6109.2
3317.86068	6052.6
3320.09766	5978.1
3322.3333	5922.4
3324.5676	5925.4
3326.80056	5819.2
3329.03219	5808
3331.26248	1.7
3333.49143	-0.4
3335.71905	-0.5
