Data from AgNPs_FTO_APTES_UA_2uM_CRN_1uM_R6G_10uM_NaF_0.1M_Addition_RamanShift__10__11-30-45-011.txt Node

Date: Wed Feb 02 11:30:45 GMT 2022
User: TCL
Spectrometer: QEP01345
Trigger mode: 4
Integration Time (sec): 7.000000E0
Scans to average: 10
Electric dark correction enabled: true
Nonlinearity correction enabled: false
Boxcar width: 0
XAxis mode: Raman Shifts
Number of Pixels in Spectrum: 1044
>>>>>Begin Spectral Data<<<<<
46.04893	0.5375
50.45542	0.4375
54.85868	-1.3625
59.25871	-0.5625
63.6555	84.3375
68.04907	88.8375
72.43941	92.8375
76.82654	101.0375
81.21044	100.5375
85.59113	106.1375
89.96862	111.0375
94.34289	115.8375
98.71396	115.6375
103.08183	121.7375
107.4465	126.7375
111.80798	130.2375
116.16626	128.2375
120.52136	139.8375
124.87327	145.7375
129.222	151.4375
133.56755	164.8375
137.90993	178.1375
142.24913	198.2375
146.58517	229.0375
150.91804	263.9375
155.24774	323.7375
159.57429	402.7375
163.89768	524.6375
168.21792	690.8375
172.53501	956.2375
176.84895	1327.5375
181.15975	1863.5375
185.46741	2602.0375
189.77193	3607.9375
194.07331	4809.5375
198.37157	6187.0375
202.6667	7632.3375
206.9587	9091.3375
211.24758	10497.7375
215.53334	11959.7375
219.81599	13483.1375
224.09553	15213.8375
228.37195	17043.4375
232.64527	19119.7375
236.91549	21241.3375
241.18261	23330.4375
245.44663	25265.4375
249.70755	27023.9375
253.96539	28500.1375
258.22014	29713.1375
262.4718	30679.5375
266.72039	31279.7375
270.96589	31526.0375
275.20832	31454.4375
279.44768	31130.7375
283.68397	30761.1375
287.91719	30495.4375
292.14735	30268.4375
296.37445	30265.5375
300.59849	30393.0375
304.81948	30587.5375
309.03742	30724.3375
313.25231	30601.6375
317.46415	30119.9375
321.67296	29367.9375
325.87872	28691.4375
330.08145	28241.1375
334.28114	28142.4375
338.47781	28196.3375
342.67145	28443.1375
346.86207	28875.5375
351.04966	29335.0375
355.23424	29873.7375
359.4158	30374.7375
363.59435	30692.0375
367.76989	30859.1375
371.94243	30868.9375
376.11196	30793.3375
380.27849	30686.6375
384.44203	30684.6375
388.60257	30871.0375
392.76012	31309.1375
396.91468	31855.0375
401.06626	32467.8375
405.21485	32776.9375
409.36047	32553.4375
413.50311	32044.8375
417.64277	31825.1375
421.77947	31954.2375
425.9132	32229.4375
430.04396	32363.0375
434.17176	32384.1375
438.2966	32400.0375
442.41849	32744.6375
446.53742	33509.5375
450.6534	34285.4375
454.76644	34795.6375
458.87653	34886.7375
462.98368	34737.8375
467.08789	34482.5375
471.18916	34081.1375
475.2875	33627.5375
479.38291	33463.6375
483.4754	33469.4375
487.56496	33220.3375
491.6516	32804.9375
495.73531	32189.1375
499.81612	31728.1375
503.89401	31736.5375
507.96899	31856.9375
512.04106	31828.5375
516.11023	31583.2375
520.1765	31140.3375
524.23987	30723.5375
528.30034	30349.7375
532.35792	30000.8375
536.41261	29558.3375
540.46441	29241.8375
544.51333	29150.4375
548.55936	29549.7375
552.60252	30231.1375
556.64279	31101.2375
560.6802	31748.3375
564.71473	32259.5375
568.7464	33062.0375
572.7752	34547.6375
576.80114	36110.6375
580.82422	37759.8375
584.84444	39845.5375
588.86181	42586.5375
592.87633	44949.0375
596.888	44330.4375
600.89682	40817.0375
604.9028	38749.8375
608.90594	40313.4375
612.90624	42582.8375
616.90371	39718.3375
620.89834	33263.5375
624.89015	30412.4375
628.87913	30201.3375
632.86528	30650.0375
636.84862	30600.8375
640.82913	29804.7375
644.80683	28899.3375
648.78172	28384.0375
652.75379	28335.6375
656.72306	28725.4375
660.68952	29083.1375
664.65319	28808.7375
668.61405	28191.5375
672.57211	28035.1375
676.52738	28183.6375
680.47986	28155.1375
684.42955	27957.8375
688.37646	27750.6375
692.32058	27923.5375
696.26192	28410.9375
700.20048	29032.2375
704.13626	29397.8375
708.06928	29608.6375
711.99952	29594.1375
715.927	29596.9375
719.85171	29589.9375
723.77365	29301.6375
727.69284	28629.1375
731.60928	28040.3375
735.52295	27803.2375
739.43388	27800.0375
743.34206	27897.4375
747.24749	28133.5375
751.15017	28600.0375
755.05012	29254.3375
758.94733	30235.3375
762.8418	31932.6375
766.73354	34400.2375
770.62254	36518.7375
774.50882	36543.1375
778.39237	34540.7375
782.27321	32137.6375
786.15132	30124.7375
790.02671	28908.8375
793.89938	28231.1375
797.76935	27847.1375
801.6366	27642.2375
805.50115	27594.9375
809.36299	27435.9375
813.22213	27268.3375
817.07857	27168.5375
820.93231	27027.8375
824.78336	26786.9375
828.63172	26620.0375
832.47738	26476.6375
836.32036	26415.7375
840.16066	26401.1375
843.99827	26389.5375
847.8332	26397.0375
851.66546	26391.7375
855.49504	26436.1375
859.32195	26468.5375
863.1462	26349.2375
866.96777	26269.4375
870.78668	26217.6375
874.60293	26239.0375
878.41652	26263.2375
882.22745	26406.8375
886.03573	26591.4375
889.84136	26598.0375
893.64433	26541.1375
897.44466	26526.8375
901.24235	26544.4375
905.0374	26527.4375
908.8298	26454.7375
912.61957	26547.5375
916.40671	26876.3375
920.19121	27374.9375
923.97308	27830.8375
927.75233	27914.9375
931.52895	27561.8375
935.30295	26750.8375
939.07433	25960.8375
942.84309	25445.9375
946.60924	25116.4375
950.37278	24988.2375
954.13371	24969.4375
957.89203	24958.9375
961.64774	24945.2375
965.40086	24935.2375
969.15137	24811.0375
972.89929	24596.9375
976.64461	24416.4375
980.38733	24306.4375
984.12747	24252.1375
987.86502	24288.0375
991.59999	24432.0375
995.33237	24577.9375
999.06217	24971.9375
1002.78939	25511.4375
1006.51404	26087.0375
1010.23611	26750.2375
1013.95561	27186.3375
1017.67255	27250.1375
1021.38692	26957.7375
1025.09872	26370.0375
1028.80796	25840.3375
1032.51465	25716.3375
1036.21877	25781.9375
1039.92035	25977.1375
1043.61937	26113.8375
1047.31584	26189.6375
1051.00976	26262.8375
1054.70114	26395.5375
1058.38998	26547.1375
1062.07627	26846.0375
1065.76003	27235.0375
1069.44126	27780.6375
1073.11995	28494.3375
1076.79611	29130.4375
1080.46974	29327.1375
1084.14085	29473.0375
1087.80943	29886.0375
1091.47549	30242.8375
1095.13903	30435.7375
1098.80005	29910.0375
1102.45857	28828.3375
1106.11456	27898.2375
1109.76805	27410.1375
1113.41903	27240.8375
1117.06751	27358.0375
1120.71348	27676.1375
1124.35696	28038.9375
1127.99793	28502.2375
1131.63641	28821.4375
1135.2724	28814.7375
1138.90589	28730.5375
1142.5369	28919.1375
1146.16542	29230.3375
1149.79145	29631.1375
1153.415	30142.5375
1157.03607	30757.6375
1160.65467	31925.3375
1164.27079	33750.4375
1167.88443	35911.8375
1171.49561	38119.1375
1175.10432	40800.9375
1178.71056	44171.8375
1182.31434	47278.6375
1185.91565	48577.3375
1189.51451	48188.9375
1193.11091	46840.6375
1196.70485	44883.1375
1200.29634	42893.8375
1203.88538	41586.6375
1207.47197	41138.0375
1211.05612	41027.5375
1214.63782	40379.9375
1218.21708	38994.2375
1221.79391	37340.0375
1225.36829	36133.4375
1228.94024	35451.2375
1232.50976	35010.5375
1236.07685	34447.5375
1239.6415	34037.2375
1243.20374	33857.0375
1246.76355	34044.4375
1250.32093	34560.6375
1253.8759	35393.7375
1257.42845	36637.9375
1260.97859	38048.3375
1264.52631	39590.2375
1268.07163	40922.9375
1271.61453	42271.9375
1275.15503	43763.0375
1278.69312	45579.9375
1282.22882	47657.5375
1285.76211	50219.1375
1289.29301	52932.1375
1292.82151	55868.2375
1296.34761	59312.8375
1299.87133	63116.3375
1303.39266	66733.6375
1306.9116	69405.0375
1310.42815	70910.2375
1313.94233	71349.1375
1317.45412	70359.9375
1320.96354	69197.8375
1324.47058	68504.7375
1327.97525	68256.1375
1331.47754	67807.3375
1334.97747	66776.1375
1338.47502	65324.0375
1341.97022	63669.8375
1345.46305	62170.3375
1348.95352	61244.7375
1352.44163	61126.1375
1355.92738	62448.6375
1359.41078	65423.6375
1362.89183	68585.6375
1366.37053	69039.2375
1369.84688	64500.2375
1373.32088	56967.9375
1376.79254	51068.1375
1380.26186	48833.6375
1383.72883	48706.5375
1387.19347	48740.7375
1390.65578	48110.2375
1394.11575	47987.7375
1397.57339	48584.4375
1401.0287	49653.2375
1404.48168	50313.1375
1407.93234	49804.1375
1411.38068	48064.7375
1414.82669	45682.1375
1418.27039	43355.3375
1421.71177	41240.4375
1425.15083	39744.0375
1428.58758	39097.4375
1432.02203	39700.4375
1435.45416	40994.3375
1438.88399	42334.6375
1442.31151	43232.5375
1445.73673	43654.4375
1449.15965	44047.6375
1452.58027	44161.4375
1455.9986	44069.0375
1459.41463	44271.8375
1462.82837	44947.6375
1466.23982	45826.1375
1469.64898	46492.9375
1473.05586	46831.5375
1476.46045	46844.2375
1479.86276	46536.5375
1483.26279	46345.6375
1486.66054	46359.9375
1490.05602	47026.3375
1493.44922	48093.7375
1496.84016	49155.5375
1500.22882	50386.4375
1503.61521	51747.6375
1506.99934	53170.0375
1510.38121	54234.5375
1513.76081	54547.4375
1517.13816	53906.2375
1520.51324	52951.4375
1523.88607	52389.5375
1527.25665	52346.1375
1530.62498	52177.5375
1533.99105	51382.6375
1537.35488	49927.7375
1540.71647	47808.0375
1544.07581	45607.6375
1547.4329	43619.6375
1550.78776	42060.8375
1554.14038	41182.2375
1557.49077	40829.5375
1560.83892	40753.1375
1564.18484	40805.3375
1567.52853	40978.4375
1570.86999	41536.8375
1574.20922	42643.2375
1577.54624	43764.6375
1580.88103	44527.0375
1584.2136	45431.4375
1587.54395	47417.7375
1590.87208	50214.1375
1594.19801	53118.1375
1597.52172	55323.8375
1600.84321	54777.7375
1604.16251	50795.8375
1607.47959	45506.9375
1610.79447	40760.7375
1614.10715	36745.2375
1617.41763	33659.8375
1620.7259	31790.1375
1624.03199	30912.0375
1627.33587	31144.7375
1630.63757	32516.8375
1633.93707	35366.2375
1637.23439	40200.5375
1640.52951	47655.2375
1643.82246	56599.0375
1647.11321	63776.5375
1650.40179	65033.7375
1653.68819	59179.3375
1656.97241	49442.0375
1660.25446	40305.5375
1663.53433	33680.2375
1666.81203	29510.9375
1670.08756	26995.6375
1673.36092	25482.1375
1676.63211	24452.6375
1679.90115	23828.8375
1683.16801	23333.4375
1686.43272	22968.4375
1689.69527	22718.3375
1692.95567	22477.9375
1696.2139	22326.9375
1699.46999	22211.8375
1702.72392	22099.4375
1705.97571	21955.7375
1709.22535	21878.0375
1712.47284	21783.0375
1715.71819	21735.5375
1718.96139	21682.6375
1722.20246	21629.9375
1725.44139	21469.2375
1728.67818	21298.1375
1731.91284	21131.1375
1735.14537	21013.4375
1738.37576	20881.3375
1741.60403	20739.8375
1744.83017	20685.7375
1748.05418	20633.3375
1751.27607	20548.0375
1754.49584	20465.9375
1757.71349	20472.6375
1760.92903	20468.2375
1764.14244	20437.1375
1767.35375	20392.5375
1770.56294	20351.1375
1773.77002	20267.6375
1776.97499	20214.7375
1780.17785	20187.8375
1783.37861	20108.2375
1786.57727	20093.0375
1789.77382	20024.1375
1792.96828	20019.9375
1796.16064	19951.6375
1799.3509	19893.5375
1802.53907	19853.4375
1805.72514	19824.9375
1808.90913	19796.1375
1812.09102	19693.3375
1815.27083	19694.8375
1818.44856	19618.6375
1821.6242	19625.0375
1824.79776	19583.3375
1827.96924	19610.3375
1831.13864	19619.6375
1834.30597	19645.0375
1837.47122	19637.9375
1840.6344	19656.8375
1843.7955	19688.4375
1846.95454	19673.8375
1850.11151	19694.3375
1853.26642	19631.7375
1856.41926	19614.8375
1859.57004	19598.1375
1862.71876	19554.8375
1865.86542	19517.4375
1869.01003	19428.8375
1872.15258	19380.8375
1875.29308	19374.9375
1878.43152	19333.7375
1881.56792	19295.1375
1884.70227	19236.0375
1887.83457	19215.3375
1890.96482	19177.7375
1894.09304	19163.5375
1897.21921	19084.9375
1900.34335	19052.0375
1903.46544	18986.9375
1906.58551	18974.4375
1909.70353	18907.5375
1912.81953	18874.7375
1915.93349	18830.0375
1919.04543	18784.2375
1922.15534	18710.9375
1925.26322	18606.1375
1928.36908	18562.6375
1931.47292	18484.5375
1934.57473	18407.7375
1937.67453	18373.7375
1940.77232	18351.0375
1943.86808	18288.4375
1946.96184	18215.4375
1950.05358	18150.4375
1953.14331	18131.8375
1956.23103	18065.5375
1959.31675	18039.4375
1962.40046	17954.5375
1965.48217	17899.0375
1968.56188	17848.2375
1971.63959	17748.4375
1974.7153	17693.4375
1977.78901	17628.9375
1980.86073	17556.4375
1983.93046	17511.3375
1986.99819	17454.4375
1990.06394	17419.9375
1993.1277	17370.5375
1996.18947	17261.2375
1999.24925	17208.9375
2002.30706	17162.3375
2005.36288	17099.1375
2008.41672	17061.3375
2011.46859	17005.3375
2014.51848	16932.7375
2017.56639	16869.5375
2020.61233	16829.8375
2023.6563	16790.4375
2026.6983	16761.3375
2029.73833	16701.2375
2032.7764	16670.2375
2035.8125	16640.2375
2038.84664	16588.1375
2041.87881	16583.5375
2044.90903	16519.4375
2047.93729	16542.0375
2050.96359	16528.6375
2053.98794	16484.0375
2057.01034	16452.4375
2060.03078	16393.9375
2063.04927	16375.9375
2066.06582	16386.3375
2069.08042	16372.4375
2072.09307	16367.8375
2075.10378	16328.1375
2078.11255	16358.8375
2081.11938	16368.7375
2084.12426	16349.4375
2087.12722	16312.1375
2090.12824	16315.0375
2093.12732	16299.2375
2096.12447	16355.7375
2099.11969	16365.3375
2102.11299	16338.4375
2105.10435	16344.4375
2108.09379	16346.7375
2111.08131	16334.0375
2114.0669	16354.2375
2117.05057	16357.9375
2120.03233	16342.5375
2123.01216	16359.2375
2125.99008	16316.2375
2128.96609	16314.0375
2131.94018	16277.8375
2134.91236	16300.0375
2137.88263	16320.3375
2140.851	16259.2375
2143.81746	16261.0375
2146.78201	16230.2375
2149.74466	16225.7375
2152.7054	16221.6375
2155.66425	16179.0375
2158.6212	16227.7375
2161.57625	16179.7375
2164.52941	16174.5375
2167.48067	16156.5375
2170.43004	16166.9375
2173.37752	16160.9375
2176.32311	16106.9375
2179.26681	16131.7375
2182.20863	16144.1375
2185.14856	16130.6375
2188.08661	16110.5375
2191.02278	16094.5375
2193.95707	16094.2375
2196.88948	16052.6375
2199.82001	16038.2375
2202.74867	16011.9375
2205.67545	16017.1375
2208.60037	15958.4375
2211.52341	15929.2375
2214.44458	15938.0375
2217.36388	15874.0375
2220.28132	15870.7375
2223.1969	15826.0375
2226.11061	15772.2375
2229.02246	15814.5375
2231.93245	15767.4375
2234.84058	15715.7375
2237.74686	15751.9375
2240.65128	15783.2375
2243.55385	15683.6375
2246.45456	15674.7375
2249.35343	15606.6375
2252.25044	15546.7375
2255.14561	15526.2375
2258.03893	15516.6375
2260.93041	15465.3375
2263.82004	15426.5375
2266.70783	15366.4375
2269.59378	15334.1375
2272.4779	15302.6375
2275.36017	15245.6375
2278.24061	15191.5375
2281.11922	15172.0375
2283.996	15143.6375
2286.87094	15129.4375
2289.74405	15071.6375
2292.61534	15041.2375
2295.4848	15001.7375
2298.35243	14995.2375
2301.21824	15029.5375
2304.08223	14967.7375
2306.94439	14967.8375
2309.80474	14962.8375
2312.66327	14938.3375
2315.51999	14948.7375
2318.37489	14895.6375
2321.22797	14870.2375
2324.07925	14855.1375
2326.92871	14833.1375
2329.77637	14834.4375
2332.62222	14817.9375
2335.46626	14810.4375
2338.3085	14780.0375
2341.14893	14808.2375
2343.98756	14793.2375
2346.8244	14777.3375
2349.65943	14743.5375
2352.49267	14718.1375
2355.32411	14766.7375
2358.15376	14717.9375
2360.98161	14732.3375
2363.80768	14719.3375
2366.63195	14711.3375
2369.45444	14694.5375
2372.27514	14706.2375
2375.09405	14665.4375
2377.91118	14640.3375
2380.72652	14574.3375
2383.54009	14523.5375
2386.35187	14509.8375
2389.16188	14425.8375
2391.97011	14431.1375
2394.77657	14394.3375
2397.58125	14362.2375
2400.38416	14373.2375
2403.18529	14365.9375
2405.98466	14290.1375
2408.78226	14279.3375
2411.57809	14262.9375
2414.37216	14234.7375
2417.16446	14246.7375
2419.955	14250.6375
2422.74378	14209.9375
2425.5308	14200.8375
2428.31606	14176.0375
2431.09956	14195.5375
2433.88131	14145.5375
2436.6613	14162.6375
2439.43954	14162.3375
2442.21603	14147.6375
2444.99077	14120.2375
2447.76377	14165.6375
2450.53501	14115.4375
2453.30451	14108.3375
2456.07226	14112.6375
2458.83827	14107.3375
2461.60254	14093.2375
2464.36507	14093.4375
2467.12586	14094.7375
2469.88492	14058.0375
2472.64224	14062.0375
2475.39782	14059.8375
2478.15167	14060.9375
2480.90379	14062.2375
2483.65417	14048.3375
2486.40283	14033.2375
2489.14976	14049.9375
2491.89497	14027.7375
2494.63845	14026.4375
2497.3802	13986.3375
2500.12024	14001.7375
2502.85855	13996.8375
2505.59514	13977.9375
2508.33002	13942.3375
2511.06318	13897.5375
2513.79462	13913.6375
2516.52435	13918.7375
2519.25237	13875.3375
2521.97867	13851.8375
2524.70327	13855.8375
2527.42616	13832.2375
2530.14734	13848.6375
2532.86681	13782.0375
2535.58458	13794.1375
2538.30065	13750.5375
2541.01501	13730.7375
2543.72768	13725.0375
2546.43864	13711.5375
2549.14791	13680.1375
2551.85548	13697.1375
2554.56136	13656.9375
2557.26554	13682.3375
2559.96803	13638.7375
2562.66883	13654.9375
2565.36794	13636.9375
2568.06536	13627.9375
2570.7611	13616.7375
2573.45514	13606.4375
2576.14751	13577.5375
2578.83819	13565.4375
2581.52719	13571.2375
2584.21451	13557.0375
2586.90015	13531.6375
2589.58411	13489.1375
2592.2664	13503.4375
2594.94701	13467.9375
2597.62594	13454.6375
2600.30321	13411.7375
2602.9788	13420.0375
2605.65273	13445.9375
2608.32498	13447.6375
2610.99557	13434.1375
2613.66449	13424.8375
2616.33175	13401.0375
2618.99734	13396.0375
2621.66128	13407.9375
2624.32355	13395.2375
2626.98416	13395.8375
2629.64311	13355.5375
2632.30041	13321.9375
2634.95605	13323.7375
2637.61004	13307.7375
2640.26238	13303.7375
2642.91306	13292.0375
2645.56209	13282.0375
2648.20948	13281.6375
2650.85521	13295.1375
2653.4993	13304.8375
2656.14175	13264.4375
2658.78255	13304.4375
2661.42171	13300.6375
2664.05923	13322.3375
2666.6951	13324.2375
2669.32934	13305.6375
2671.96194	13328.2375
2674.59291	13316.6375
2677.22224	13302.6375
2679.84993	13319.2375
2682.476	13332.3375
2685.10043	13289.4375
2687.72324	13293.0375
2690.34441	13279.5375
2692.96396	13271.9375
2695.58188	13282.9375
2698.19818	13272.4375
2700.81285	13289.3375
2703.4259	13275.2375
2706.03733	13295.2375
2708.64714	13288.0375
2711.25533	13316.9375
2713.86191	13265.0375
2716.46687	13326.0375
2719.07021	13277.9375
2721.67194	13318.7375
2724.27206	13262.5375
2726.87057	13279.8375
2729.46747	13301.9375
2732.06276	13309.5375
2734.65644	13316.7375
2737.24852	13347.9375
2739.83899	13308.9375
2742.42786	13325.4375
2745.01513	13312.2375
2747.60079	13295.3375
2750.18486	13271.3375
2752.76733	13247.4375
2755.3482	13243.3375
2757.92747	13212.1375
2760.50515	13208.6375
2763.08123	13239.4375
2765.65573	13203.9375
2768.22863	13200.3375
2770.79994	13190.7375
2773.36967	13193.3375
2775.9378	13145.9375
2778.50435	13157.7375
2781.06932	13144.9375
2783.6327	13142.5375
2786.1945	13141.1375
2788.75471	13107.6375
2791.31335	13107.2375
2793.87041	13085.8375
2796.42589	13044.6375
2798.97979	13027.0375
2801.53212	13010.5375
2804.08288	13015.2375
2806.63206	12980.1375
2809.17967	12998.7375
2811.72571	12941.4375
2814.27018	12934.0375
2816.81308	12935.6375
2819.35442	12916.5375
2821.89419	12928.9375
2824.43239	12892.8375
2826.96904	12854.3375
2829.50412	12870.1375
2832.03763	12837.1375
2834.56959	12793.5375
2837.1	12815.4375
2839.62884	12814.6375
2842.15613	12846.4375
2844.68186	12879.9375
2847.20604	12886.0375
2849.72867	12906.4375
2852.24974	12878.5375
2854.76927	12910.8375
2857.28724	12876.3375
2859.80367	12875.7375
2862.31855	12868.8375
2864.83189	12834.0375
2867.34368	12790.4375
2869.85393	12820.7375
2872.36264	12804.5375
2874.8698	12788.3375
2877.37543	12836.6375
2879.87952	12837.3375
2882.38207	12849.8375
2884.88308	12844.4375
2887.38256	12852.4375
2889.88051	12837.7375
2892.37692	12840.6375
2894.8718	12856.5375
2897.36515	12882.1375
2899.85698	12885.6375
2902.34727	12887.5375
2904.83604	12883.0375
2907.32328	12908.2375
2909.809	12877.9375
2912.29319	12876.5375
2914.77587	12877.3375
2917.25702	12868.8375
2919.73665	12859.9375
2922.21476	12877.3375
2924.69136	12852.6375
2927.16644	12857.7375
2929.64	12839.8375
2932.11205	12860.7375
2934.58258	12801.4375
2937.05161	12810.5375
2939.51912	12802.2375
2941.98513	12746.1375
2944.44962	12688.5375
2946.91261	12620.7375
2949.37409	12676.4375
2951.83407	12606.8375
2954.29254	12579.0375
2956.74951	12528.6375
2959.20498	12519.1375
2961.65895	12481.9375
2964.11142	12481.7375
2966.56239	12445.9375
2969.01186	12455.6375
2971.45984	12373.6375
2973.90632	12339.2375
2976.35131	12297.5375
2978.7948	12259.4375
2981.23681	12225.7375
2983.67732	12171.8375
2986.11635	12109.2375
2988.55388	12070.5375
2990.98993	12035.7375
2993.4245	11996.5375
2995.85758	11988.2375
2998.28917	11944.5375
3000.71928	11920.2375
3003.14791	11905.3375
3005.57506	11884.6375
3008.00073	11833.4375
3010.42493	11840.3375
3012.84764	11820.4375
3015.26888	11787.7375
3017.68865	11764.6375
3020.10694	11723.0375
3022.52376	11684.4375
3024.9391	11669.4375
3027.35298	11642.4375
3029.76539	11621.7375
3032.17632	11587.3375
3034.5858	11579.8375
3036.9938	11581.8375
3039.40034	11541.9375
3041.80542	11548.3375
3044.20903	11525.0375
3046.61118	11494.6375
3049.01187	11445.1375
3051.4111	11465.0375
3053.80888	11428.4375
3056.20519	11385.1375
3058.60005	11341.9375
3060.99345	11339.3375
3063.3854	11307.6375
3065.7759	11263.9375
3068.16494	11231.5375
3070.55254	11197.1375
3072.93868	11198.8375
3075.32338	11126.4375
3077.70662	11117.8375
3080.08842	11099.7375
3082.46878	11098.1375
3084.84769	11046.6375
3087.22515	11043.7375
3089.60118	11028.6375
3091.97576	11007.3375
3094.3489	11012.5375
3096.72061	11010.8375
3099.09087	10991.9375
3101.4597	10950.0375
3103.82709	10936.7375
3106.19305	10905.0375
3108.55757	10894.7375
3110.92066	10862.2375
3113.28232	10814.4375
3115.64255	10792.7375
3118.00134	10779.0375
3120.35871	10757.8375
3122.71466	10731.3375
3125.06917	10721.7375
3127.42226	10689.5375
3129.77393	10709.1375
3132.12417	10675.4375
3134.47299	10691.8375
3136.82039	10663.8375
3139.16636	10657.4375
3141.51092	10636.5375
3143.85406	10634.5375
3146.19579	10655.4375
3148.53609	10648.0375
3150.87499	10650.6375
3153.21246	10620.2375
3155.54853	10640.1375
3157.88318	10624.8375
3160.21642	10613.3375
3162.54826	10602.6375
3164.87868	10611.9375
3167.2077	10578.0375
3169.5353	10594.9375
3171.86151	10572.1375
3174.18631	10550.3375
3176.5097	10555.1375
3178.83169	10540.7375
3181.15228	10544.9375
3183.47147	10501.6375
3185.78926	10488.3375
3188.10565	10462.0375
3190.42065	10466.3375
3192.73424	10494.7375
3195.04645	10443.7375
3197.35725	10440.8375
3199.66667	10428.1375
3201.97469	10414.6375
3204.28132	10406.4375
3206.58656	10416.0375
3208.8904	10387.2375
3211.19287	10408.2375
3213.49394	10385.9375
3215.79363	10389.3375
3218.09193	10383.0375
3220.38884	10386.2375
3222.68438	10393.8375
3224.97853	10364.6375
3227.2713	10359.3375
3229.56269	10351.3375
3231.8527	10342.7375
3234.14133	10323.8375
3236.42858	10313.6375
3238.71446	10289.2375
3240.99896	10279.4375
3243.28209	10273.3375
3245.56384	10262.0375
3247.84423	10284.1375
3250.12324	10237.2375
3252.40088	10224.5375
3254.67715	10181.4375
3256.95205	10152.6375
3259.22558	10141.8375
3261.49775	10111.2375
3263.76855	10097.6375
3266.03799	10076.3375
3268.30606	10064.8375
3270.57277	10048.7375
3272.83812	10021.5375
3275.10211	10003.3375
3277.36474	9989.2375
3279.62601	10031.5375
3281.88593	10008.1375
3284.14448	9993.6375
3286.40168	10045.9375
3288.65753	10016.6375
3290.91202	9997.7375
3293.16516	9978.1375
3295.41695	9933.1375
3297.66738	9875.8375
3299.91647	9806.2375
3302.16421	9733.2375
3304.4106	9689.8375
3306.65564	9622.0375
3308.89933	9552.3375
3311.14169	9509.1375
3313.38269	9424.4375
3315.62236	9332.5375
3317.86068	9241.7375
3320.09766	9161.5375
3322.3333	9075.4375
3324.5676	9055.4375
3326.80056	8937.7375
3329.03219	8853.6375
3331.26248	1.7375
3333.49143	-0.9625
3335.71905	-0.0625
