Data from AgNPs_FTO_APTES_UA_2uM_CRN_1uM_R6G_10uM_NaF_0.1M_Addition_RamanShift__18__11-40-05-022.txt Node

Date: Wed Feb 02 11:40:05 GMT 2022
User: TCL
Spectrometer: QEP01345
Trigger mode: 4
Integration Time (sec): 7.000000E0
Scans to average: 10
Electric dark correction enabled: true
Nonlinearity correction enabled: false
Boxcar width: 0
XAxis mode: Raman Shifts
Number of Pixels in Spectrum: 1044
>>>>>Begin Spectral Data<<<<<
46.04893	0.1375
50.45542	0.9375
54.85868	-2.1625
59.25871	-0.3625
63.6555	82.0375
68.04907	89.7375
72.43941	91.2375
76.82654	97.3375
81.21044	103.5375
85.59113	105.4375
89.96862	112.3375
94.34289	113.9375
98.71396	119.1375
103.08183	124.8375
107.4465	128.8375
111.80798	129.8375
116.16626	132.6375
120.52136	138.8375
124.87327	145.1375
129.222	153.1375
133.56755	163.6375
137.90993	177.7375
142.24913	198.8375
146.58517	226.4375
150.91804	262.9375
155.24774	318.5375
159.57429	397.8375
163.89768	518.1375
168.21792	686.6375
172.53501	951.0375
176.84895	1314.1375
181.15975	1845.9375
185.46741	2595.8375
189.77193	3582.1375
194.07331	4780.5375
198.37157	6134.8375
202.6667	7540.8375
206.9587	8976.2375
211.24758	10352.0375
215.53334	11789.9375
219.81599	13361.0375
224.09553	15076.9375
228.37195	17033.2375
232.64527	19098.6375
236.91549	21236.7375
241.18261	23264.2375
245.44663	25134.7375
249.70755	26726.7375
253.96539	28121.9375
258.22014	29310.1375
262.4718	30338.2375
266.72039	31086.8375
270.96589	31487.4375
275.20832	31539.8375
279.44768	31326.1375
283.68397	31128.8375
287.91719	30992.9375
292.14735	30987.1375
296.37445	31175.9375
300.59849	31430.4375
304.81948	31669.9375
309.03742	31711.2375
313.25231	31364.0375
317.46415	30384.2375
321.67296	29000.5375
325.87872	27788.4375
330.08145	27109.5375
334.28114	26927.8375
338.47781	27043.1375
342.67145	27362.8375
346.86207	27833.5375
351.04966	28532.9375
355.23424	29306.0375
359.4158	29884.3375
363.59435	30326.3375
367.76989	30491.4375
371.94243	30561.9375
376.11196	30637.5375
380.27849	30715.1375
384.44203	30828.6375
388.60257	31012.5375
392.76012	31354.0375
396.91468	31829.8375
401.06626	32430.3375
405.21485	32769.1375
409.36047	32465.1375
413.50311	31627.1375
417.64277	31048.0375
421.77947	30800.1375
425.9132	30900.8375
430.04396	31020.3375
434.17176	31199.5375
438.2966	31365.0375
442.41849	31870.9375
446.53742	32804.4375
450.6534	33817.3375
454.76644	34619.8375
458.87653	34931.8375
462.98368	34774.6375
467.08789	34431.2375
471.18916	34007.5375
475.2875	33699.2375
479.38291	33734.7375
483.4754	33704.7375
487.56496	33451.1375
491.6516	32765.1375
495.73531	31993.6375
499.81612	31484.9375
503.89401	31452.9375
507.96899	31468.6375
512.04106	31291.4375
516.11023	30990.6375
520.1765	30573.2375
524.23987	30133.6375
528.30034	29721.4375
532.35792	29273.0375
536.41261	28720.8375
540.46441	28213.2375
544.51333	28186.4375
548.55936	28660.1375
552.60252	29668.5375
556.64279	30706.4375
560.6802	31445.6375
564.71473	31899.2375
568.7464	32826.0375
572.7752	34051.8375
576.80114	34813.7375
580.82422	35432.4375
584.84444	35967.6375
588.86181	36437.9375
592.87633	36845.3375
596.888	36905.1375
600.89682	36584.1375
604.9028	37812.4375
608.90594	42175.2375
612.90624	46817.2375
616.90371	43378.5375
620.89834	34105.7375
624.89015	29819.6375
628.87913	29334.9375
632.86528	29609.1375
636.84862	29545.7375
640.82913	29007.3375
644.80683	27905.0375
648.78172	26995.8375
652.75379	26676.6375
656.72306	27096.3375
660.68952	27751.5375
664.65319	27566.5375
668.61405	26808.4375
672.57211	26468.6375
676.52738	26493.7375
680.47986	26471.1375
684.42955	26258.4375
688.37646	26074.0375
692.32058	26173.7375
696.26192	26548.0375
700.20048	27054.8375
704.13626	27373.5375
708.06928	27425.2375
711.99952	27211.2375
715.927	27110.5375
719.85171	27130.4375
723.77365	27071.4375
727.69284	26615.4375
731.60928	26215.4375
735.52295	26102.7375
739.43388	26111.0375
743.34206	26167.4375
747.24749	26319.5375
751.15017	26744.5375
755.05012	27487.4375
758.94733	28610.1375
762.8418	30853.0375
766.73354	34377.6375
770.62254	37829.2375
774.50882	38566.7375
778.39237	36154.1375
782.27321	32404.0375
786.15132	29407.6375
790.02671	27563.0375
793.89938	26666.2375
797.76935	26308.4375
801.6366	26177.8375
805.50115	26062.0375
809.36299	25818.9375
813.22213	25543.3375
817.07857	25419.9375
820.93231	25317.5375
824.78336	25118.6375
828.63172	24962.4375
832.47738	24867.2375
836.32036	24861.7375
840.16066	24958.3375
843.99827	25027.1375
847.8332	24912.8375
851.66546	24736.5375
855.49504	24690.4375
859.32195	24635.8375
863.1462	24526.3375
866.96777	24355.4375
870.78668	24306.5375
874.60293	24261.9375
878.41652	24275.2375
882.22745	24405.8375
886.03573	24575.1375
889.84136	24651.9375
893.64433	24562.2375
897.44466	24469.9375
901.24235	24391.2375
905.0374	24263.0375
908.8298	24113.6375
912.61957	24112.3375
916.40671	24408.1375
920.19121	24900.8375
923.97308	25403.4375
927.75233	25608.0375
931.52895	25488.3375
935.30295	24973.5375
939.07433	24153.7375
942.84309	23440.1375
946.60924	23181.1375
950.37278	23036.0375
954.13371	22975.3375
957.89203	22909.5375
961.64774	22882.1375
965.40086	22824.4375
969.15137	22717.7375
972.89929	22566.6375
976.64461	22383.9375
980.38733	22335.7375
984.12747	22389.7375
987.86502	22564.9375
991.59999	22900.5375
995.33237	23440.6375
999.06217	24355.5375
1002.78939	25457.9375
1006.51404	26184.1375
1010.23611	26604.9375
1013.95561	26905.5375
1017.67255	26901.1375
1021.38692	26472.1375
1025.09872	26012.5375
1028.80796	26036.8375
1032.51465	26782.1375
1036.21877	27515.9375
1039.92035	27647.2375
1043.61937	27307.4375
1047.31584	26579.7375
1051.00976	25918.0375
1054.70114	25546.5375
1058.38998	25549.7375
1062.07627	25717.6375
1065.76003	25957.1375
1069.44126	26321.8375
1073.11995	26873.5375
1076.79611	27392.0375
1080.46974	27642.1375
1084.14085	27897.6375
1087.80943	28391.3375
1091.47549	28851.2375
1095.13903	28913.6375
1098.80005	28396.9375
1102.45857	27386.7375
1106.11456	26502.4375
1109.76805	26100.5375
1113.41903	26076.6375
1117.06751	26242.1375
1120.71348	26691.2375
1124.35696	27170.4375
1127.99793	27756.5375
1131.63641	28179.4375
1135.2724	28006.2375
1138.90589	27660.4375
1142.5369	27564.0375
1146.16542	27665.5375
1149.79145	27912.1375
1153.415	28305.2375
1157.03607	28938.8375
1160.65467	30048.6375
1164.27079	31797.6375
1167.88443	34241.5375
1171.49561	37298.9375
1175.10432	41406.9375
1178.71056	46575.6375
1182.31434	51411.8375
1185.91565	53882.1375
1189.51451	53879.6375
1193.11091	51907.4375
1196.70485	48734.4375
1200.29634	45589.2375
1203.88538	43191.8375
1207.47197	41560.5375
1211.05612	40320.3375
1214.63782	39335.8375
1218.21708	38491.6375
1221.79391	37853.0375
1225.36829	37533.1375
1228.94024	37052.5375
1232.50976	36303.6375
1236.07685	35538.5375
1239.6415	35093.7375
1243.20374	34746.5375
1246.76355	34738.8375
1250.32093	35282.4375
1253.8759	36298.8375
1257.42845	37790.0375
1260.97859	39477.2375
1264.52631	41134.8375
1268.07163	42810.4375
1271.61453	44616.1375
1275.15503	46476.8375
1278.69312	48353.2375
1282.22882	49983.3375
1285.76211	51670.8375
1289.29301	53651.4375
1292.82151	56097.2375
1296.34761	59218.3375
1299.87133	63169.5375
1303.39266	67655.6375
1306.9116	72649.7375
1310.42815	77301.2375
1313.94233	80546.0375
1317.45412	81141.5375
1320.96354	79991.4375
1324.47058	78472.8375
1327.97525	76977.1375
1331.47754	75587.0375
1334.97747	74350.7375
1338.47502	73125.2375
1341.97022	71664.0375
1345.46305	69782.5375
1348.95352	67791.0375
1352.44163	66500.0375
1355.92738	67236.0375
1359.41078	70398.3375
1362.89183	74170.6375
1366.37053	74080.5375
1369.84688	68021.4375
1373.32088	59755.4375
1376.79254	53730.3375
1380.26186	51178.0375
1383.72883	50702.6375
1387.19347	50687.6375
1390.65578	50405.8375
1394.11575	50601.9375
1397.57339	51576.9375
1401.0287	52978.1375
1404.48168	54063.0375
1407.93234	54011.8375
1411.38068	52692.2375
1414.82669	50295.4375
1418.27039	47360.0375
1421.71177	44597.9375
1425.15083	42393.2375
1428.58758	41138.2375
1432.02203	41196.7375
1435.45416	42235.8375
1438.88399	43679.1375
1442.31151	45098.2375
1445.73673	46174.2375
1449.15965	47296.0375
1452.58027	48172.1375
1455.9986	48707.3375
1459.41463	49130.1375
1462.82837	50038.5375
1466.23982	51052.5375
1469.64898	51775.3375
1473.05586	52047.9375
1476.46045	51745.1375
1479.86276	50996.8375
1483.26279	50263.2375
1486.66054	49893.0375
1490.05602	50080.4375
1493.44922	50686.5375
1496.84016	51439.5375
1500.22882	52838.7375
1503.61521	55195.4375
1506.99934	58085.2375
1510.38121	60594.2375
1513.76081	61570.9375
1517.13816	59984.7375
1520.51324	56851.9375
1523.88607	53879.5375
1527.25665	52040.3375
1530.62498	51131.8375
1533.99105	50547.0375
1537.35488	50001.0375
1540.71647	49005.7375
1544.07581	47721.4375
1547.4329	46247.4375
1550.78776	45030.4375
1554.14038	44282.7375
1557.49077	44067.8375
1560.83892	44128.0375
1564.18484	44264.0375
1567.52853	44549.8375
1570.86999	45040.9375
1574.20922	45929.7375
1577.54624	46856.4375
1580.88103	47243.6375
1584.2136	47558.7375
1587.54395	49103.3375
1590.87208	51880.9375
1594.19801	55400.0375
1597.52172	58882.7375
1600.84321	59435.0375
1604.16251	55742.0375
1607.47959	50033.5375
1610.79447	44370.2375
1614.10715	39476.5375
1617.41763	35561.8375
1620.7259	32976.6375
1624.03199	31648.8375
1627.33587	31691.7375
1630.63757	33072.9375
1633.93707	36025.8375
1637.23439	40945.6375
1640.52951	47695.9375
1643.82246	55360.4375
1647.11321	61230.0375
1650.40179	62495.9375
1653.68819	57991.4375
1656.97241	49383.2375
1660.25446	40366.3375
1663.53433	33471.0375
1666.81203	28890.7375
1670.08756	26089.9375
1673.36092	24350.4375
1676.63211	23239.1375
1679.90115	22478.2375
1683.16801	21911.8375
1686.43272	21537.6375
1689.69527	21272.9375
1692.95567	21083.8375
1696.2139	20909.0375
1699.46999	20773.6375
1702.72392	20630.0375
1705.97571	20579.7375
1709.22535	20458.0375
1712.47284	20421.5375
1715.71819	20324.7375
1718.96139	20236.7375
1722.20246	20168.7375
1725.44139	20017.0375
1728.67818	19879.5375
1731.91284	19646.9375
1735.14537	19515.8375
1738.37576	19444.8375
1741.60403	19304.6375
1744.83017	19236.4375
1748.05418	19172.1375
1751.27607	19097.6375
1754.49584	19054.4375
1757.71349	19083.0375
1760.92903	19060.4375
1764.14244	18962.3375
1767.35375	18926.0375
1770.56294	18864.8375
1773.77002	18860.8375
1776.97499	18846.6375
1780.17785	18755.6375
1783.37861	18710.0375
1786.57727	18685.5375
1789.77382	18629.0375
1792.96828	18579.8375
1796.16064	18564.1375
1799.3509	18493.5375
1802.53907	18456.2375
1805.72514	18458.4375
1808.90913	18383.3375
1812.09102	18314.3375
1815.27083	18304.5375
1818.44856	18266.3375
1821.6242	18225.1375
1824.79776	18209.4375
1827.96924	18236.4375
1831.13864	18215.3375
1834.30597	18288.9375
1837.47122	18257.4375
1840.6344	18297.7375
1843.7955	18365.3375
1846.95454	18397.7375
1850.11151	18380.0375
1853.26642	18392.0375
1856.41926	18414.8375
1859.57004	18432.2375
1862.71876	18407.6375
1865.86542	18366.8375
1869.01003	18368.8375
1872.15258	18361.5375
1875.29308	18406.3375
1878.43152	18395.1375
1881.56792	18424.4375
1884.70227	18442.1375
1887.83457	18424.3375
1890.96482	18463.0375
1894.09304	18418.1375
1897.21921	18466.1375
1900.34335	18399.9375
1903.46544	18377.6375
1906.58551	18350.5375
1909.70353	18293.2375
1912.81953	18278.6375
1915.93349	18209.3375
1919.04543	18131.6375
1922.15534	18065.2375
1925.26322	17969.8375
1928.36908	17862.2375
1931.47292	17746.5375
1934.57473	17629.2375
1937.67453	17507.2375
1940.77232	17470.4375
1943.86808	17371.9375
1946.96184	17292.0375
1950.05358	17208.1375
1953.14331	17162.5375
1956.23103	17067.4375
1959.31675	17007.4375
1962.40046	16946.3375
1965.48217	16917.0375
1968.56188	16808.2375
1971.63959	16752.6375
1974.7153	16722.6375
1977.78901	16661.4375
1980.86073	16628.0375
1983.93046	16544.3375
1986.99819	16505.2375
1990.06394	16446.4375
1993.1277	16396.9375
1996.18947	16316.4375
1999.24925	16282.3375
2002.30706	16214.3375
2005.36288	16131.2375
2008.41672	16139.5375
2011.46859	16080.2375
2014.51848	16054.2375
2017.56639	15962.3375
2020.61233	15943.5375
2023.6563	15907.7375
2026.6983	15911.6375
2029.73833	15857.2375
2032.7764	15787.9375
2035.8125	15793.5375
2038.84664	15773.2375
2041.87881	15789.9375
2044.90903	15741.2375
2047.93729	15758.0375
2050.96359	15722.1375
2053.98794	15710.9375
2057.01034	15659.4375
2060.03078	15632.1375
2063.04927	15597.5375
2066.06582	15595.5375
2069.08042	15607.1375
2072.09307	15571.9375
2075.10378	15561.1375
2078.11255	15545.1375
2081.11938	15557.3375
2084.12426	15513.3375
2087.12722	15486.1375
2090.12824	15468.2375
2093.12732	15470.0375
2096.12447	15519.0375
2099.11969	15491.0375
2102.11299	15532.0375
2105.10435	15505.0375
2108.09379	15524.3375
2111.08131	15524.2375
2114.0669	15563.2375
2117.05057	15556.6375
2120.03233	15547.0375
2123.01216	15570.4375
2125.99008	15512.5375
2128.96609	15541.0375
2131.94018	15543.6375
2134.91236	15535.5375
2137.88263	15560.1375
2140.851	15544.4375
2143.81746	15594.4375
2146.78201	15564.3375
2149.74466	15576.8375
2152.7054	15567.1375
2155.66425	15548.2375
2158.6212	15563.6375
2161.57625	15550.5375
2164.52941	15545.3375
2167.48067	15521.0375
2170.43004	15534.4375
2173.37752	15509.7375
2176.32311	15502.2375
2179.26681	15543.1375
2182.20863	15536.6375
2185.14856	15549.3375
2188.08661	15543.0375
2191.02278	15525.4375
2193.95707	15508.9375
2196.88948	15497.5375
2199.82001	15494.8375
2202.74867	15491.1375
2205.67545	15495.6375
2208.60037	15486.5375
2211.52341	15486.9375
2214.44458	15478.8375
2217.36388	15455.7375
2220.28132	15416.2375
2223.1969	15392.1375
2226.11061	15381.3375
2229.02246	15335.2375
2231.93245	15314.2375
2234.84058	15242.4375
2237.74686	15298.2375
2240.65128	15264.1375
2243.55385	15175.2375
2246.45456	15166.8375
2249.35343	15129.7375
2252.25044	15116.7375
2255.14561	15090.0375
2258.03893	15089.7375
2260.93041	15081.8375
2263.82004	15001.0375
2266.70783	15007.0375
2269.59378	14959.1375
2272.4779	14916.1375
2275.36017	14887.4375
2278.24061	14855.4375
2281.11922	14828.4375
2283.996	14780.4375
2286.87094	14796.3375
2289.74405	14766.0375
2292.61534	14726.7375
2295.4848	14685.5375
2298.35243	14704.8375
2301.21824	14713.2375
2304.08223	14703.9375
2306.94439	14734.2375
2309.80474	14763.1375
2312.66327	14779.8375
2315.51999	14751.2375
2318.37489	14760.8375
2321.22797	14754.6375
2324.07925	14746.8375
2326.92871	14712.4375
2329.77637	14724.1375
2332.62222	14730.0375
2335.46626	14744.6375
2338.3085	14722.3375
2341.14893	14745.3375
2343.98756	14763.3375
2346.8244	14781.6375
2349.65943	14747.7375
2352.49267	14742.6375
2355.32411	14775.6375
2358.15376	14759.7375
2360.98161	14789.4375
2363.80768	14733.6375
2366.63195	14715.3375
2369.45444	14722.8375
2372.27514	14689.0375
2375.09405	14659.0375
2377.91118	14649.7375
2380.72652	14549.0375
2383.54009	14517.2375
2386.35187	14532.7375
2389.16188	14439.3375
2391.97011	14424.2375
2394.77657	14418.1375
2397.58125	14411.8375
2400.38416	14404.3375
2403.18529	14365.3375
2405.98466	14315.9375
2408.78226	14275.9375
2411.57809	14271.9375
2414.37216	14221.2375
2417.16446	14242.5375
2419.955	14210.8375
2422.74378	14233.7375
2425.5308	14210.7375
2428.31606	14209.7375
2431.09956	14222.6375
2433.88131	14160.8375
2436.6613	14182.1375
2439.43954	14177.4375
2442.21603	14205.5375
2444.99077	14196.4375
2447.76377	14183.5375
2450.53501	14188.4375
2453.30451	14181.5375
2456.07226	14197.7375
2458.83827	14232.8375
2461.60254	14241.7375
2464.36507	14253.6375
2467.12586	14234.5375
2469.88492	14205.1375
2472.64224	14235.0375
2475.39782	14240.0375
2478.15167	14246.6375
2480.90379	14255.8375
2483.65417	14265.1375
2486.40283	14295.3375
2489.14976	14319.0375
2491.89497	14363.0375
2494.63845	14303.2375
2497.3802	14320.0375
2500.12024	14327.0375
2502.85855	14299.9375
2505.59514	14296.5375
2508.33002	14273.5375
2511.06318	14269.8375
2513.79462	14269.3375
2516.52435	14235.8375
2519.25237	14201.6375
2521.97867	14198.1375
2524.70327	14185.4375
2527.42616	14157.5375
2530.14734	14195.1375
2532.86681	14164.4375
2535.58458	14156.9375
2538.30065	14133.0375
2541.01501	14138.4375
2543.72768	14133.1375
2546.43864	14107.9375
2549.14791	14098.3375
2551.85548	14109.2375
2554.56136	14098.8375
2557.26554	14101.2375
2559.96803	14092.6375
2562.66883	14062.9375
2565.36794	14091.9375
2568.06536	14092.0375
2570.7611	14081.7375
2573.45514	14031.4375
2576.14751	14066.4375
2578.83819	14076.2375
2581.52719	14066.2375
2584.21451	14047.4375
2586.90015	14067.3375
2589.58411	14043.2375
2592.2664	14075.9375
2594.94701	14049.0375
2597.62594	14031.0375
2600.30321	14035.2375
2602.9788	14042.7375
2605.65273	14045.7375
2608.32498	14062.7375
2610.99557	14048.9375
2613.66449	14051.9375
2616.33175	14046.2375
2618.99734	14058.1375
2621.66128	14104.7375
2624.32355	14082.0375
2626.98416	14117.6375
2629.64311	14086.1375
2632.30041	14087.0375
2634.95605	14078.6375
2637.61004	14056.2375
2640.26238	14063.9375
2642.91306	14036.6375
2645.56209	14047.5375
2648.20948	14020.7375
2650.85521	14017.6375
2653.4993	14022.0375
2656.14175	14018.5375
2658.78255	14015.3375
2661.42171	14033.7375
2664.05923	14028.8375
2666.6951	14023.7375
2669.32934	14060.9375
2671.96194	14045.3375
2674.59291	14098.0375
2677.22224	14073.2375
2679.84993	14069.6375
2682.476	14067.6375
2685.10043	14024.4375
2687.72324	13996.6375
2690.34441	13984.2375
2692.96396	13983.3375
2695.58188	14012.5375
2698.19818	13976.5375
2700.81285	14007.7375
2703.4259	13991.9375
2706.03733	13988.9375
2708.64714	13994.2375
2711.25533	14029.4375
2713.86191	13999.3375
2716.46687	14041.1375
2719.07021	14022.9375
2721.67194	14042.6375
2724.27206	14022.5375
2726.87057	14032.4375
2729.46747	14033.0375
2732.06276	14044.4375
2734.65644	14085.7375
2737.24852	14062.1375
2739.83899	14047.8375
2742.42786	14089.4375
2745.01513	14036.0375
2747.60079	14038.2375
2750.18486	14050.1375
2752.76733	14029.1375
2755.3482	14001.8375
2757.92747	14015.4375
2760.50515	14028.3375
2763.08123	14030.0375
2765.65573	14027.7375
2768.22863	14031.4375
2770.79994	14040.0375
2773.36967	14028.5375
2775.9378	14006.5375
2778.50435	14028.3375
2781.06932	14033.9375
2783.6327	14026.5375
2786.1945	14027.3375
2788.75471	14031.3375
2791.31335	13966.5375
2793.87041	13996.7375
2796.42589	13933.4375
2798.97979	13925.2375
2801.53212	13920.9375
2804.08288	13916.2375
2806.63206	13895.2375
2809.17967	13890.9375
2811.72571	13830.4375
2814.27018	13823.1375
2816.81308	13803.9375
2819.35442	13813.8375
2821.89419	13824.8375
2824.43239	13818.2375
2826.96904	13803.0375
2829.50412	13788.3375
2832.03763	13776.5375
2834.56959	13731.7375
2837.1	13723.0375
2839.62884	13753.4375
2842.15613	13769.0375
2844.68186	13842.0375
2847.20604	13863.9375
2849.72867	13850.8375
2852.24974	13857.0375
2854.76927	13853.8375
2857.28724	13830.4375
2859.80367	13843.0375
2862.31855	13848.2375
2864.83189	13842.2375
2867.34368	13834.6375
2869.85393	13818.0375
2872.36264	13820.1375
2874.8698	13834.8375
2877.37543	13872.6375
2879.87952	13873.2375
2882.38207	13877.6375
2884.88308	13853.5375
2887.38256	13907.4375
2889.88051	13892.6375
2892.37692	13907.4375
2894.8718	13927.4375
2897.36515	13941.8375
2899.85698	13932.5375
2902.34727	13995.6375
2904.83604	13986.0375
2907.32328	14034.1375
2909.809	14036.5375
2912.29319	14033.9375
2914.77587	14034.7375
2917.25702	14032.2375
2919.73665	14012.6375
2922.21476	14014.9375
2924.69136	14025.4375
2927.16644	14003.6375
2929.64	13983.4375
2932.11205	13967.5375
2934.58258	13909.2375
2937.05161	13907.8375
2939.51912	13888.3375
2941.98513	13875.0375
2944.44962	13797.4375
2946.91261	13736.8375
2949.37409	13732.8375
2951.83407	13701.0375
2954.29254	13702.5375
2956.74951	13640.0375
2959.20498	13628.1375
2961.65895	13601.5375
2964.11142	13594.9375
2966.56239	13535.2375
2969.01186	13498.2375
2971.45984	13450.3375
2973.90632	13425.9375
2976.35131	13375.9375
2978.7948	13377.7375
2981.23681	13292.9375
2983.67732	13248.5375
2986.11635	13209.4375
2988.55388	13174.9375
2990.98993	13134.8375
2993.4245	13106.3375
2995.85758	13055.7375
2998.28917	13028.8375
3000.71928	13021.4375
3003.14791	13012.6375
3005.57506	12962.0375
3008.00073	12948.3375
3010.42493	12926.9375
3012.84764	12888.2375
3015.26888	12888.4375
3017.68865	12852.5375
3020.10694	12838.9375
3022.52376	12777.5375
3024.9391	12777.1375
3027.35298	12758.7375
3029.76539	12734.2375
3032.17632	12701.5375
3034.5858	12698.4375
3036.9938	12704.1375
3039.40034	12706.8375
3041.80542	12678.8375
3044.20903	12662.6375
3046.61118	12638.8375
3049.01187	12593.4375
3051.4111	12616.4375
3053.80888	12561.0375
3056.20519	12541.8375
3058.60005	12497.4375
3060.99345	12485.7375
3063.3854	12479.8375
3065.7759	12429.9375
3068.16494	12428.5375
3070.55254	12348.6375
3072.93868	12337.8375
3075.32338	12329.2375
3077.70662	12285.8375
3080.08842	12228.1375
3082.46878	12253.9375
3084.84769	12246.4375
3087.22515	12200.6375
3089.60118	12202.2375
3091.97576	12195.9375
3094.3489	12183.5375
3096.72061	12193.1375
3099.09087	12169.7375
3101.4597	12133.2375
3103.82709	12112.4375
3106.19305	12062.6375
3108.55757	12065.5375
3110.92066	12044.6375
3113.28232	12017.4375
3115.64255	11983.7375
3118.00134	11966.2375
3120.35871	11960.6375
3122.71466	11937.9375
3125.06917	11915.7375
3127.42226	11857.6375
3129.77393	11887.9375
3132.12417	11895.9375
3134.47299	11886.1375
3136.82039	11847.5375
3139.16636	11873.1375
3141.51092	11849.1375
3143.85406	11862.0375
3146.19579	11864.2375
3148.53609	11884.1375
3150.87499	11875.7375
3153.21246	11854.0375
3155.54853	11858.3375
3157.88318	11828.9375
3160.21642	11865.2375
3162.54826	11867.4375
3164.87868	11851.0375
3167.2077	11842.8375
3169.5353	11832.7375
3171.86151	11832.7375
3174.18631	11808.2375
3176.5097	11816.2375
3178.83169	11810.4375
3181.15228	11827.7375
3183.47147	11780.1375
3185.78926	11766.5375
3188.10565	11776.2375
3190.42065	11756.7375
3192.73424	11832.5375
3195.04645	11797.9375
3197.35725	11800.1375
3199.66667	11760.1375
3201.97469	11751.0375
3204.28132	11783.2375
3206.58656	11778.1375
3208.8904	11776.2375
3211.19287	11749.7375
3213.49394	11791.3375
3215.79363	11791.3375
3218.09193	11798.0375
3220.38884	11786.7375
3222.68438	11802.5375
3224.97853	11765.6375
3227.2713	11761.5375
3229.56269	11746.4375
3231.8527	11768.8375
3234.14133	11751.1375
3236.42858	11714.6375
3238.71446	11692.1375
3240.99896	11699.1375
3243.28209	11687.2375
3245.56384	11708.0375
3247.84423	11682.2375
3250.12324	11677.9375
3252.40088	11634.3375
3254.67715	11629.9375
3256.95205	11621.6375
3259.22558	11563.6375
3261.49775	11563.6375
3263.76855	11564.1375
3266.03799	11514.2375
3268.30606	11505.7375
3270.57277	11493.8375
3272.83812	11469.6375
3275.10211	11440.7375
3277.36474	11450.8375
3279.62601	11479.7375
3281.88593	11437.7375
3284.14448	11484.3375
3286.40168	11486.6375
3288.65753	11471.3375
3290.91202	11432.4375
3293.16516	11406.3375
3295.41695	11362.9375
3297.66738	11317.2375
3299.91647	11246.1375
3302.16421	11205.7375
3304.4106	11138.3375
3306.65564	11084.6375
3308.89933	11036.4375
3311.14169	10957.0375
3313.38269	10867.4375
3315.62236	10780.4375
3317.86068	10688.6375
3320.09766	10584.5375
3322.3333	10479.8375
3324.5676	10516.5375
3326.80056	10347.2375
3329.03219	10295.7375
3331.26248	1.9375
3333.49143	0.4375
3335.71905	-1.0625
