Data from AgNPs_FTO_APTES_UA_2uM_CRN_500uM_R6G_10uM_NaF_0.1M_Addition_RamanShift__6__17-05-35-402.txt Node

Date: Wed Feb 02 17:05:35 GMT 2022
User: TCL
Spectrometer: QEP01345
Trigger mode: 4
Integration Time (sec): 7.000000E0
Scans to average: 10
Electric dark correction enabled: true
Nonlinearity correction enabled: false
Boxcar width: 0
XAxis mode: Raman Shifts
Number of Pixels in Spectrum: 1044
>>>>>Begin Spectral Data<<<<<
46.04893	0.3
50.45542	-0.2
54.85868	0.5
59.25871	0.2
63.6555	69
68.04907	72.9
72.43941	75.2
76.82654	80.6
81.21044	80.8
85.59113	85.9
89.96862	84.3
94.34289	92.1
98.71396	95
103.08183	100.6
107.4465	99.8
111.80798	104
116.16626	107.8
120.52136	105.6
124.87327	112.9
129.222	118.3
133.56755	121.6
137.90993	130.8
142.24913	150.3
146.58517	163.2
150.91804	188.3
155.24774	226.6
159.57429	280.4
163.89768	356.7
168.21792	474.7
172.53501	643.7
176.84895	899.5
181.15975	1263.7
185.46741	1772.6
189.77193	2419
194.07331	3242.4
198.37157	4159.7
202.6667	5143.7
206.9587	6093.9
211.24758	7048.2
215.53334	8015.5
219.81599	9019.5
224.09553	10132.6
228.37195	11371.6
232.64527	12622
236.91549	14018
241.18261	15367.8
245.44663	16662.3
249.70755	17840.5
253.96539	18871.9
258.22014	19777
262.4718	20484.6
266.72039	21003.6
270.96589	21233.6
275.20832	21361.9
279.44768	21250.4
283.68397	21195.2
287.91719	21057.4
292.14735	21023.9
296.37445	21102.2
300.59849	21184.5
304.81948	21290
309.03742	21234.8
313.25231	20960.9
317.46415	20513.5
321.67296	19955
325.87872	19503.7
330.08145	19208.2
334.28114	19041.4
338.47781	19077.7
342.67145	19229.9
346.86207	19458.9
351.04966	19703.8
355.23424	20033.7
359.4158	20279.3
363.59435	20453.5
367.76989	20618.5
371.94243	20688.8
376.11196	20713.8
380.27849	20731.6
384.44203	20893.1
388.60257	21098
392.76012	21401.9
396.91468	21701.8
401.06626	22042.2
405.21485	22241.3
409.36047	22217.4
413.50311	22019.9
417.64277	21975.7
421.77947	22044.4
425.9132	22164.3
430.04396	22330
434.17176	22467.5
438.2966	22614.8
442.41849	23010.9
446.53742	23688.2
450.6534	24477.4
454.76644	25010
458.87653	25197.9
462.98368	25133.3
467.08789	24854.3
471.18916	24608.1
475.2875	24451.5
479.38291	24558
483.4754	24603
487.56496	24248.5
491.6516	23500.8
495.73531	22726.9
499.81612	22229.3
503.89401	22120.4
507.96899	22171.6
512.04106	22053.7
516.11023	21836.5
520.1765	21438
524.23987	21087.5
528.30034	20839.2
532.35792	20641.4
536.41261	20359.8
540.46441	20208.3
544.51333	20257.9
548.55936	20643.9
552.60252	21229.6
556.64279	21955.3
560.6802	22595.5
564.71473	23085.1
568.7464	23779.8
572.7752	24841.5
576.80114	25990.1
580.82422	26904.9
584.84444	27922.1
588.86181	29184.4
592.87633	30157.9
596.888	29481.7
600.89682	27508.5
604.9028	26298.2
608.90594	26755.7
612.90624	27457.5
616.90371	25568
620.89834	22051.4
624.89015	20428.1
628.87913	20299.3
632.86528	20508
636.84862	20480.3
640.82913	20081.5
644.80683	19659.6
648.78172	19366.5
652.75379	19332.7
656.72306	19455.2
660.68952	19601.9
664.65319	19423.7
668.61405	19131.4
672.57211	19080.2
676.52738	19220.6
680.47986	19249.6
684.42955	19172.9
688.37646	19095.2
692.32058	19158.5
696.26192	19415.3
700.20048	19730.3
704.13626	19928.5
708.06928	20075.6
711.99952	20083.7
715.927	20113.9
719.85171	20107.6
723.77365	19987.5
727.69284	19677.8
731.60928	19395.8
735.52295	19257
739.43388	19225.8
743.34206	19265.2
747.24749	19398.1
751.15017	19674.1
755.05012	20131.2
758.94733	20859.4
762.8418	21863.2
766.73354	23241.1
770.62254	24299.5
774.50882	24212.6
778.39237	22970.4
782.27321	21415.4
786.15132	20155.1
790.02671	19443.4
793.89938	19078.8
797.76935	18890.5
801.6366	18910.6
805.50115	18887.4
809.36299	18776.4
813.22213	18669.1
817.07857	18692.6
820.93231	18606
824.78336	18408.7
828.63172	18218.3
832.47738	18092.5
836.32036	18002.2
840.16066	18066.1
843.99827	18042.4
847.8332	17991.6
851.66546	17973.6
855.49504	17998.1
859.32195	17932.5
863.1462	17888.7
866.96777	17820.7
870.78668	17780.6
874.60293	17769.3
878.41652	17780.1
882.22745	17816.4
886.03573	17866.7
889.84136	17888.9
893.64433	17798.3
897.44466	17748.4
901.24235	17678.1
905.0374	17629.3
908.8298	17591.1
912.61957	17656.8
916.40671	17954.4
920.19121	18342.2
923.97308	18551.8
927.75233	18465.6
931.52895	18100
935.30295	17652.5
939.07433	17236.7
942.84309	16959
946.60924	16823.5
950.37278	16784
954.13371	16801.2
957.89203	16863.1
961.64774	16913.9
965.40086	16901.7
969.15137	16820.1
972.89929	16601.7
976.64461	16426.7
980.38733	16360.1
984.12747	16333.8
987.86502	16328.5
991.59999	16417.7
995.33237	16548.8
999.06217	16752.3
1002.78939	17095.5
1006.51404	17419.5
1010.23611	17780.5
1013.95561	18032.1
1017.67255	18139.6
1021.38692	17965.7
1025.09872	17561.5
1028.80796	17250.5
1032.51465	17153.7
1036.21877	17192.2
1039.92035	17314.6
1043.61937	17379.2
1047.31584	17454.6
1051.00976	17547.1
1054.70114	17661.5
1058.38998	17812.9
1062.07627	18095
1065.76003	18376.6
1069.44126	18633.2
1073.11995	18900.4
1076.79611	19083.6
1080.46974	19188.4
1084.14085	19224.2
1087.80943	19415.7
1091.47549	19689
1095.13903	19884.3
1098.80005	19753.7
1102.45857	19157.3
1106.11456	18645.2
1109.76805	18377
1113.41903	18378.6
1117.06751	18493.5
1120.71348	18708.7
1124.35696	18964.2
1127.99793	19281.1
1131.63641	19510.6
1135.2724	19527.2
1138.90589	19503.9
1142.5369	19757.5
1146.16542	20112.8
1149.79145	20560.3
1153.415	21029
1157.03607	21591.9
1160.65467	22540.1
1164.27079	23943.2
1167.88443	25530.2
1171.49561	27021.1
1175.10432	28760.4
1178.71056	30916.6
1182.31434	32839.8
1185.91565	33615.6
1189.51451	33180.3
1193.11091	32287.9
1196.70485	31373
1200.29634	30421.8
1203.88538	29921.7
1207.47197	29970.9
1211.05612	30007.2
1214.63782	29516.3
1218.21708	28299.3
1221.79391	26951.9
1225.36829	25967.5
1228.94024	25318.8
1232.50976	24779.2
1236.07685	24343.6
1239.6415	24082
1243.20374	24054.2
1246.76355	24278.9
1250.32093	24694.5
1253.8759	25249
1257.42845	25939.9
1260.97859	26717.5
1264.52631	27559.7
1268.07163	28352.1
1271.61453	29166.2
1275.15503	30182
1278.69312	31407.8
1282.22882	32862.2
1285.76211	34646.6
1289.29301	36924.2
1292.82151	39595.9
1296.34761	42633.5
1299.87133	45944.5
1303.39266	48730.9
1306.9116	50635.3
1310.42815	51801.7
1313.94233	52379.7
1317.45412	52208.8
1320.96354	51694.4
1324.47058	51356.1
1327.97525	51306.3
1331.47754	51126.9
1334.97747	50650.4
1338.47502	49732.3
1341.97022	48443.3
1345.46305	46830.9
1348.95352	45481.3
1352.44163	44831.6
1355.92738	45293.1
1359.41078	46572.2
1362.89183	47413.5
1366.37053	46608.3
1369.84688	43323.9
1373.32088	38891.9
1376.79254	35874.4
1380.26186	35366.7
1383.72883	36184.7
1387.19347	36904.9
1390.65578	37047.3
1394.11575	37333
1397.57339	38145.8
1401.0287	39171.5
1404.48168	39737.3
1407.93234	39321.4
1411.38068	37831.3
1414.82669	35665.8
1418.27039	33287.1
1421.71177	31119.6
1425.15083	29342.3
1428.58758	28527.2
1432.02203	28794.4
1435.45416	29871.4
1438.88399	31287.2
1442.31151	32387
1445.73673	33160.7
1449.15965	33779.3
1452.58027	34120.1
1455.9986	34189.1
1459.41463	34321.9
1462.82837	34610
1466.23982	35030.1
1469.64898	35465.7
1473.05586	35678.5
1476.46045	35571.1
1479.86276	35083.7
1483.26279	34393.7
1486.66054	33864.8
1490.05602	33729.8
1493.44922	33849.7
1496.84016	34004.6
1500.22882	34295
1503.61521	34772.7
1506.99934	35404.5
1510.38121	35956.2
1513.76081	36209.3
1517.13816	36046.1
1520.51324	35834.6
1523.88607	35946
1527.25665	36370.9
1530.62498	36859
1533.99105	36989.2
1537.35488	36467.6
1540.71647	35315.7
1544.07581	33898.2
1547.4329	32414
1550.78776	31112.6
1554.14038	30220.9
1557.49077	29708.1
1560.83892	29396.3
1564.18484	29337.2
1567.52853	29412.8
1570.86999	29938.5
1574.20922	30933.6
1577.54624	32078.7
1580.88103	33079
1584.2136	34204.1
1587.54395	35811.5
1590.87208	37937.1
1594.19801	40175.9
1597.52172	42012.1
1600.84321	42010.4
1604.16251	39396.5
1607.47959	35439.8
1610.79447	31352.5
1614.10715	27864.9
1617.41763	25315.2
1620.7259	23722.7
1624.03199	23025.2
1627.33587	23207.9
1630.63757	24283.4
1633.93707	26489.6
1637.23439	30117.5
1640.52951	35263.6
1643.82246	41368.5
1647.11321	46067.9
1650.40179	46548.2
1653.68819	42241.6
1656.97241	35435.5
1660.25446	28943.1
1663.53433	24213.6
1666.81203	21101.8
1670.08756	19166.3
1673.36092	17962.9
1676.63211	17174.2
1679.90115	16683.5
1683.16801	16252.9
1686.43272	15960.4
1689.69527	15755.3
1692.95567	15579
1696.2139	15490.1
1699.46999	15372.1
1702.72392	15308.2
1705.97571	15213.3
1709.22535	15133
1712.47284	15076.1
1715.71819	15007.8
1718.96139	14930.9
1722.20246	14840.4
1725.44139	14726.4
1728.67818	14638.7
1731.91284	14550.7
1735.14537	14485.1
1738.37576	14391.3
1741.60403	14312.6
1744.83017	14230.1
1748.05418	14226.7
1751.27607	14182.9
1754.49584	14200.3
1757.71349	14208.2
1760.92903	14159.5
1764.14244	14127.1
1767.35375	14085.5
1770.56294	14059.5
1773.77002	14013.8
1776.97499	13933.3
1780.17785	13926.9
1783.37861	13872.3
1786.57727	13821.4
1789.77382	13755.4
1792.96828	13752.8
1796.16064	13708.6
1799.3509	13668.5
1802.53907	13614.6
1805.72514	13588.9
1808.90913	13529.7
1812.09102	13518.1
1815.27083	13469.7
1818.44856	13443.5
1821.6242	13417.2
1824.79776	13392.7
1827.96924	13356.2
1831.13864	13375
1834.30597	13366.5
1837.47122	13391.4
1840.6344	13370.8
1843.7955	13329.2
1846.95454	13339.1
1850.11151	13327
1853.26642	13302.4
1856.41926	13300.3
1859.57004	13270.7
1862.71876	13265
1865.86542	13215.7
1869.01003	13192.9
1872.15258	13173.4
1875.29308	13198.2
1878.43152	13159.6
1881.56792	13153.8
1884.70227	13128.8
1887.83457	13083.1
1890.96482	13087.3
1894.09304	13086
1897.21921	13037.4
1900.34335	13027
1903.46544	13011.2
1906.58551	13007.1
1909.70353	12953
1912.81953	12933
1915.93349	12912.5
1919.04543	12857
1922.15534	12823.7
1925.26322	12790.6
1928.36908	12783.1
1931.47292	12730.2
1934.57473	12678.8
1937.67453	12623.9
1940.77232	12594.3
1943.86808	12557.3
1946.96184	12564.4
1950.05358	12473.3
1953.14331	12460.1
1956.23103	12407.9
1959.31675	12397.9
1962.40046	12327.1
1965.48217	12326.6
1968.56188	12228.1
1971.63959	12184
1974.7153	12174.4
1977.78901	12137.9
1980.86073	12074.8
1983.93046	12053.1
1986.99819	11993.6
1990.06394	11973.1
1993.1277	11956
1996.18947	11891.7
1999.24925	11866.9
2002.30706	11827.3
2005.36288	11770.6
2008.41672	11741.2
2011.46859	11713.6
2014.51848	11649.7
2017.56639	11600.4
2020.61233	11595.9
2023.6563	11578.6
2026.6983	11577.5
2029.73833	11527.6
2032.7764	11524.6
2035.8125	11499.5
2038.84664	11452.7
2041.87881	11407
2044.90903	11364.6
2047.93729	11347.6
2050.96359	11358.2
2053.98794	11339.5
2057.01034	11337.4
2060.03078	11334.9
2063.04927	11314.4
2066.06582	11304.8
2069.08042	11265.3
2072.09307	11265.9
2075.10378	11269.7
2078.11255	11248
2081.11938	11239.4
2084.12426	11241.7
2087.12722	11229.5
2090.12824	11205.6
2093.12732	11206.4
2096.12447	11226.3
2099.11969	11242.6
2102.11299	11233.6
2105.10435	11233.9
2108.09379	11192.7
2111.08131	11234
2114.0669	11193.3
2117.05057	11197.7
2120.03233	11223.8
2123.01216	11207.8
2125.99008	11211.5
2128.96609	11216.3
2131.94018	11221.6
2134.91236	11200.5
2137.88263	11217.4
2140.851	11179.6
2143.81746	11189.3
2146.78201	11188.4
2149.74466	11188.6
2152.7054	11174.3
2155.66425	11152.6
2158.6212	11152.7
2161.57625	11140.6
2164.52941	11131.8
2167.48067	11124.3
2170.43004	11112
2173.37752	11120.3
2176.32311	11125.3
2179.26681	11138.2
2182.20863	11115.1
2185.14856	11132.4
2188.08661	11108.8
2191.02278	11088.9
2193.95707	11073
2196.88948	11058.8
2199.82001	11046
2202.74867	11025.3
2205.67545	10998.3
2208.60037	10995.6
2211.52341	10986.7
2214.44458	10950
2217.36388	10921.7
2220.28132	10926.4
2223.1969	10895.9
2226.11061	10871.8
2229.02246	10853.7
2231.93245	10837.1
2234.84058	10820.4
2237.74686	10792.5
2240.65128	10817.9
2243.55385	10763.4
2246.45456	10771.6
2249.35343	10729.9
2252.25044	10676.7
2255.14561	10640.2
2258.03893	10624.7
2260.93041	10594.6
2263.82004	10563.3
2266.70783	10536.3
2269.59378	10531.7
2272.4779	10470.5
2275.36017	10427.3
2278.24061	10440.9
2281.11922	10414
2283.996	10389.5
2286.87094	10365.7
2289.74405	10340.7
2292.61534	10329
2295.4848	10304
2298.35243	10296.5
2301.21824	10250.9
2304.08223	10273.8
2306.94439	10257.6
2309.80474	10274.4
2312.66327	10261
2315.51999	10236.5
2318.37489	10248.5
2321.22797	10207.2
2324.07925	10204.7
2326.92871	10184.6
2329.77637	10165.2
2332.62222	10147.6
2335.46626	10129.7
2338.3085	10124.6
2341.14893	10125.2
2343.98756	10123.8
2346.8244	10111.5
2349.65943	10106.2
2352.49267	10086.2
2355.32411	10105.2
2358.15376	10082.2
2360.98161	10072
2363.80768	10074.9
2366.63195	10057.3
2369.45444	10052.1
2372.27514	10043.5
2375.09405	10033.8
2377.91118	10008.7
2380.72652	9990.9
2383.54009	9955.7
2386.35187	9955.9
2389.16188	9928.3
2391.97011	9891.9
2394.77657	9859.3
2397.58125	9852.4
2400.38416	9834.2
2403.18529	9828.7
2405.98466	9790.2
2408.78226	9798.6
2411.57809	9814.5
2414.37216	9796.1
2417.16446	9768.5
2419.955	9756.6
2422.74378	9763.4
2425.5308	9749.9
2428.31606	9746.9
2431.09956	9726.1
2433.88131	9715.8
2436.6613	9693.5
2439.43954	9697.3
2442.21603	9678.9
2444.99077	9674.6
2447.76377	9681.5
2450.53501	9674.4
2453.30451	9656
2456.07226	9672.1
2458.83827	9676.8
2461.60254	9685
2464.36507	9666.2
2467.12586	9646.8
2469.88492	9643.9
2472.64224	9669.8
2475.39782	9640.1
2478.15167	9640.7
2480.90379	9629.3
2483.65417	9633.3
2486.40283	9632.7
2489.14976	9626.2
2491.89497	9625
2494.63845	9637.4
2497.3802	9625.3
2500.12024	9635.8
2502.85855	9630.9
2505.59514	9632
2508.33002	9603.5
2511.06318	9588
2513.79462	9591.3
2516.52435	9575.8
2519.25237	9564.7
2521.97867	9560.7
2524.70327	9552.2
2527.42616	9541.4
2530.14734	9520.9
2532.86681	9492.3
2535.58458	9501.9
2538.30065	9498.8
2541.01501	9461.8
2543.72768	9453.5
2546.43864	9462.4
2549.14791	9465.4
2551.85548	9435.1
2554.56136	9419.7
2557.26554	9438.6
2559.96803	9422
2562.66883	9422.5
2565.36794	9407.2
2568.06536	9421.2
2570.7611	9383.5
2573.45514	9391.8
2576.14751	9384.6
2578.83819	9369.3
2581.52719	9365.7
2584.21451	9355.4
2586.90015	9354.8
2589.58411	9339.2
2592.2664	9343.3
2594.94701	9312.2
2597.62594	9334
2600.30321	9342
2602.9788	9342
2605.65273	9311.8
2608.32498	9314.4
2610.99557	9326.2
2613.66449	9324.3
2616.33175	9314
2618.99734	9311.1
2621.66128	9313.9
2624.32355	9319.3
2626.98416	9316.5
2629.64311	9278
2632.30041	9267.3
2634.95605	9278.6
2637.61004	9262.3
2640.26238	9271.5
2642.91306	9276.9
2645.56209	9258.1
2648.20948	9249.3
2650.85521	9270.3
2653.4993	9262.5
2656.14175	9270.3
2658.78255	9274.3
2661.42171	9291.5
2664.05923	9301.1
2666.6951	9296.7
2669.32934	9291.5
2671.96194	9306.6
2674.59291	9296.6
2677.22224	9273.9
2679.84993	9283.6
2682.476	9304.4
2685.10043	9290
2687.72324	9308.1
2690.34441	9304.1
2692.96396	9274.6
2695.58188	9291.6
2698.19818	9266.8
2700.81285	9277.3
2703.4259	9308.5
2706.03733	9319.2
2708.64714	9307.8
2711.25533	9332.4
2713.86191	9283.7
2716.46687	9313.7
2719.07021	9306.9
2721.67194	9300.7
2724.27206	9330.2
2726.87057	9342.2
2729.46747	9325.6
2732.06276	9330.5
2734.65644	9327.1
2737.24852	9339.9
2739.83899	9322.4
2742.42786	9316.2
2745.01513	9327.8
2747.60079	9325.5
2750.18486	9309.4
2752.76733	9313
2755.3482	9337.3
2757.92747	9305.4
2760.50515	9319.7
2763.08123	9312.4
2765.65573	9326.7
2768.22863	9330.1
2770.79994	9291.8
2773.36967	9300.2
2775.9378	9286.5
2778.50435	9301.5
2781.06932	9299.6
2783.6327	9283.6
2786.1945	9270.1
2788.75471	9266.5
2791.31335	9261.1
2793.87041	9246.5
2796.42589	9227.8
2798.97979	9208.5
2801.53212	9214.9
2804.08288	9211.9
2806.63206	9194.9
2809.17967	9181.6
2811.72571	9151.2
2814.27018	9142.3
2816.81308	9111.1
2819.35442	9109.7
2821.89419	9100.1
2824.43239	9087.1
2826.96904	9059.3
2829.50412	9060.9
2832.03763	9069.8
2834.56959	9073.1
2837.1	9074.5
2839.62884	9076.4
2842.15613	9092.9
2844.68186	9112.5
2847.20604	9170.1
2849.72867	9187.3
2852.24974	9160.1
2854.76927	9156.7
2857.28724	9134.3
2859.80367	9112.8
2862.31855	9115.4
2864.83189	9090.7
2867.34368	9068.7
2869.85393	9077.4
2872.36264	9070.4
2874.8698	9053.6
2877.37543	9053.6
2879.87952	9030.5
2882.38207	9046.3
2884.88308	9029.8
2887.38256	9017.5
2889.88051	9020.8
2892.37692	9021.9
2894.8718	9059.2
2897.36515	9058.4
2899.85698	9070.7
2902.34727	9083.1
2904.83604	9065.6
2907.32328	9090
2909.809	9086.7
2912.29319	9103.1
2914.77587	9078.9
2917.25702	9065.6
2919.73665	9063.7
2922.21476	9074.5
2924.69136	9071.6
2927.16644	9063.4
2929.64	9057.5
2932.11205	9056.7
2934.58258	9014.1
2937.05161	9037.8
2939.51912	9029.7
2941.98513	9042.5
2944.44962	8960.8
2946.91261	8957.9
2949.37409	8925.7
2951.83407	8920.2
2954.29254	8930.9
2956.74951	8873.3
2959.20498	8869.1
2961.65895	8836.8
2964.11142	8849.7
2966.56239	8805.3
2969.01186	8760
2971.45984	8745.1
2973.90632	8699.2
2976.35131	8680.2
2978.7948	8668.5
2981.23681	8657.2
2983.67732	8641.7
2986.11635	8601.2
2988.55388	8556.5
2990.98993	8552.1
2993.4245	8509.5
2995.85758	8486.6
2998.28917	8468.5
3000.71928	8461
3003.14791	8420.9
3005.57506	8415.6
3008.00073	8406.5
3010.42493	8364.7
3012.84764	8371.7
3015.26888	8362.6
3017.68865	8336.7
3020.10694	8302.3
3022.52376	8296.5
3024.9391	8275.7
3027.35298	8254.2
3029.76539	8257.6
3032.17632	8242.4
3034.5858	8233.4
3036.9938	8223.3
3039.40034	8215.8
3041.80542	8209.5
3044.20903	8179
3046.61118	8164.7
3049.01187	8155.4
3051.4111	8147.9
3053.80888	8132.9
3056.20519	8129.2
3058.60005	8089.2
3060.99345	8070.6
3063.3854	8034.3
3065.7759	8007.8
3068.16494	7988.9
3070.55254	7963.6
3072.93868	7924.9
3075.32338	7897.3
3077.70662	7880.7
3080.08842	7865.6
3082.46878	7861.6
3084.84769	7817.7
3087.22515	7836
3089.60118	7826.4
3091.97576	7818.4
3094.3489	7797.1
3096.72061	7783.9
3099.09087	7777
3101.4597	7769.2
3103.82709	7779.3
3106.19305	7736.4
3108.55757	7741
3110.92066	7698.1
3113.28232	7709.2
3115.64255	7683.2
3118.00134	7665.6
3120.35871	7622.7
3122.71466	7632.1
3125.06917	7601
3127.42226	7583.3
3129.77393	7605.2
3132.12417	7563.7
3134.47299	7571.9
3136.82039	7561.3
3139.16636	7566.7
3141.51092	7558.7
3143.85406	7547.4
3146.19579	7544
3148.53609	7552.1
3150.87499	7540.8
3153.21246	7562.8
3155.54853	7555.7
3157.88318	7535.4
3160.21642	7562.2
3162.54826	7553.8
3164.87868	7528.2
3167.2077	7519.9
3169.5353	7504.3
3171.86151	7511.8
3174.18631	7504.2
3176.5097	7499.1
3178.83169	7481.9
3181.15228	7482.5
3183.47147	7469.3
3185.78926	7490
3188.10565	7479.9
3190.42065	7459.8
3192.73424	7454.8
3195.04645	7427.1
3197.35725	7439.5
3199.66667	7452.5
3201.97469	7428.5
3204.28132	7420.5
3206.58656	7435
3208.8904	7413.4
3211.19287	7427.9
3213.49394	7399.3
3215.79363	7397
3218.09193	7397.3
3220.38884	7392.9
3222.68438	7402.8
3224.97853	7394.4
3227.2713	7399.1
3229.56269	7386.3
3231.8527	7371.1
3234.14133	7353.1
3236.42858	7344.4
3238.71446	7333.3
3240.99896	7319.4
3243.28209	7302.4
3245.56384	7308.2
3247.84423	7338.5
3250.12324	7300.6
3252.40088	7283.4
3254.67715	7266.5
3256.95205	7238.5
3259.22558	7234.6
3261.49775	7221.8
3263.76855	7194.8
3266.03799	7163.7
3268.30606	7151.1
3270.57277	7138.7
3272.83812	7110.7
3275.10211	7109.8
3277.36474	7094.7
3279.62601	7099.8
3281.88593	7084.3
3284.14448	7097.3
3286.40168	7108.8
3288.65753	7094.2
3290.91202	7080.9
3293.16516	7059.5
3295.41695	7037.8
3297.66738	6987.7
3299.91647	6961.8
3302.16421	6918.9
3304.4106	6889
3306.65564	6836.4
3308.89933	6793.9
3311.14169	6736.3
3313.38269	6663.4
3315.62236	6639.6
3317.86068	6564.6
3320.09766	6507.7
3322.3333	6428.2
3324.5676	6433.8
3326.80056	6316.8
3329.03219	6295.8
3331.26248	1.5
3333.49143	0.3
3335.71905	-1
