Data from AgNPs_FTO_APTES_UA_2uM_CRN_50uM_R6G_10uM_NaF_0.1M_Addition_RamanShift__50__15-34-35-296.txt Node

Date: Wed Feb 02 15:34:35 GMT 2022
User: TCL
Spectrometer: QEP01345
Trigger mode: 4
Integration Time (sec): 7.000000E0
Scans to average: 10
Electric dark correction enabled: true
Nonlinearity correction enabled: false
Boxcar width: 0
XAxis mode: Raman Shifts
Number of Pixels in Spectrum: 1044
>>>>>Begin Spectral Data<<<<<
46.04893	0.5375
50.45542	-0.3625
54.85868	-0.4625
59.25871	-0.7625
63.6555	75.5375
68.04907	82.8375
72.43941	84.7375
76.82654	93.2375
81.21044	94.4375
85.59113	103.0375
89.96862	101.1375
94.34289	105.5375
98.71396	109.0375
103.08183	116.3375
107.4465	115.5375
111.80798	117.3375
116.16626	120.1375
120.52136	123.7375
124.87327	130.2375
129.222	130.5375
133.56755	143.3375
137.90993	151.2375
142.24913	171.0375
146.58517	189.9375
150.91804	211.0375
155.24774	257.4375
159.57429	322.5375
163.89768	403.2375
168.21792	531.6375
172.53501	718.5375
176.84895	998.9375
181.15975	1400.6375
185.46741	1961.1375
189.77193	2688.9375
194.07331	3598.9375
198.37157	4643.3375
202.6667	5736.6375
206.9587	6805.7375
211.24758	7862.5375
215.53334	8935.0375
219.81599	10055.0375
224.09553	11292.4375
228.37195	12619.6375
232.64527	14074.0375
236.91549	15606.9375
241.18261	17080.2375
245.44663	18512.9375
249.70755	19825.4375
253.96539	21003.1375
258.22014	21974.9375
262.4718	22743.0375
266.72039	23381.0375
270.96589	23735.0375
275.20832	23836.4375
279.44768	23886.3375
283.68397	23880.0375
287.91719	23877.5375
292.14735	23963.8375
296.37445	24109.5375
300.59849	24277.2375
304.81948	24387.7375
309.03742	24219.1375
313.25231	23891.3375
317.46415	23202.5375
321.67296	22445.3375
325.87872	21747.2375
330.08145	21367.1375
334.28114	21222.8375
338.47781	21326.8375
342.67145	21491.7375
346.86207	21745.2375
351.04966	21933.7375
355.23424	22171.6375
359.4158	22387.6375
363.59435	22556.2375
367.76989	22668.6375
371.94243	22701.9375
376.11196	22733.9375
380.27849	22721.5375
384.44203	22754.1375
388.60257	22925.0375
392.76012	23261.1375
396.91468	23682.5375
401.06626	24127.5375
405.21485	24310.4375
409.36047	24208.0375
413.50311	23903.5375
417.64277	23665.3375
421.77947	23700.9375
425.9132	23847.6375
430.04396	23947.9375
434.17176	24067.5375
438.2966	24227.1375
442.41849	24481.3375
446.53742	25016.4375
450.6534	25654.3375
454.76644	26163.2375
458.87653	26503.9375
462.98368	26634.8375
467.08789	26531.3375
471.18916	26424.2375
475.2875	26383.4375
479.38291	26555.4375
483.4754	26558.8375
487.56496	26199.3375
491.6516	25485.2375
495.73531	24760.1375
499.81612	24263.3375
503.89401	24167.1375
507.96899	24275.3375
512.04106	24272.3375
516.11023	24096.8375
520.1765	23783.4375
524.23987	23367.4375
528.30034	22979.6375
532.35792	22688.6375
536.41261	22423.1375
540.46441	22288.6375
544.51333	22422.7375
548.55936	22885.0375
552.60252	23510.7375
556.64279	24198.7375
560.6802	24714.0375
564.71473	25215.7375
568.7464	25961.4375
572.7752	27225.6375
576.80114	28480.7375
580.82422	29389.3375
584.84444	29876.4375
588.86181	30277.0375
592.87633	30413.9375
596.888	29829.6375
600.89682	28756.1375
604.9028	28416.0375
608.90594	29281.2375
612.90624	29990.8375
616.90371	27883.0375
620.89834	24062.3375
624.89015	22463.3375
628.87913	22400.2375
632.86528	22676.7375
636.84862	22723.8375
640.82913	22448.2375
644.80683	21884.6375
648.78172	21457.6375
652.75379	21314.6375
656.72306	21426.6375
660.68952	21609.5375
664.65319	21529.7375
668.61405	21288.1375
672.57211	21249.9375
676.52738	21294.9375
680.47986	21316.7375
684.42955	21245.6375
688.37646	21158.0375
692.32058	21193.1375
696.26192	21458.9375
700.20048	21729.0375
704.13626	21979.8375
708.06928	22152.6375
711.99952	22107.3375
715.927	22019.2375
719.85171	21955.3375
723.77365	21739.1375
727.69284	21424.9375
731.60928	21062.1375
735.52295	20847.9375
739.43388	20777.3375
743.34206	20831.4375
747.24749	20966.2375
751.15017	21229.9375
755.05012	21772.9375
758.94733	22575.7375
762.8418	23880.1375
766.73354	25595.2375
770.62254	26971.7375
774.50882	26734.9375
778.39237	25256.1375
782.27321	23487.3375
786.15132	22117.6375
790.02671	21283.7375
793.89938	20841.5375
797.76935	20581.4375
801.6366	20526.7375
805.50115	20512.8375
809.36299	20405.7375
813.22213	20286.7375
817.07857	20334.6375
820.93231	20298.3375
824.78336	20183.3375
828.63172	19935.4375
832.47738	19794.8375
836.32036	19715.7375
840.16066	19679.5375
843.99827	19668.0375
847.8332	19651.3375
851.66546	19632.0375
855.49504	19697.6375
859.32195	19670.8375
863.1462	19596.6375
866.96777	19510.5375
870.78668	19477.0375
874.60293	19425.0375
878.41652	19396.1375
882.22745	19439.4375
886.03573	19459.2375
889.84136	19490.1375
893.64433	19476.1375
897.44466	19408.2375
901.24235	19363.4375
905.0374	19339.4375
908.8298	19331.7375
912.61957	19459.1375
916.40671	19811.7375
920.19121	20236.3375
923.97308	20451.9375
927.75233	20208.6375
931.52895	19802.6375
935.30295	19393.3375
939.07433	18974.0375
942.84309	18642.0375
946.60924	18440.1375
950.37278	18352.8375
954.13371	18368.0375
957.89203	18388.1375
961.64774	18452.6375
965.40086	18470.4375
969.15137	18373.2375
972.89929	18188.6375
976.64461	18071.3375
980.38733	17983.9375
984.12747	17987.1375
987.86502	18025.0375
991.59999	18094.6375
995.33237	18201.5375
999.06217	18416.0375
1002.78939	18697.4375
1006.51404	18906.6375
1010.23611	19203.2375
1013.95561	19420.3375
1017.67255	19514.4375
1021.38692	19373.2375
1025.09872	19155.4375
1028.80796	18950.8375
1032.51465	18911.0375
1036.21877	18972.8375
1039.92035	19088.3375
1043.61937	19225.4375
1047.31584	19337.6375
1051.00976	19417.8375
1054.70114	19566.0375
1058.38998	19853.8375
1062.07627	20220.0375
1065.76003	20668.5375
1069.44126	21000.8375
1073.11995	21368.9375
1076.79611	21581.3375
1080.46974	21638.2375
1084.14085	21659.3375
1087.80943	21861.1375
1091.47549	22076.8375
1095.13903	22281.3375
1098.80005	22000.6375
1102.45857	21370.5375
1106.11456	20689.5375
1109.76805	20327.6375
1113.41903	20219.0375
1117.06751	20315.0375
1120.71348	20556.7375
1124.35696	20795.2375
1127.99793	21159.9375
1131.63641	21402.6375
1135.2724	21383.6375
1138.90589	21409.3375
1142.5369	21549.3375
1146.16542	21926.8375
1149.79145	22384.0375
1153.415	22857.1375
1157.03607	23410.8375
1160.65467	24224.3375
1164.27079	25524.2375
1167.88443	27068.0375
1171.49561	28737.9375
1175.10432	30552.4375
1178.71056	32746.2375
1182.31434	34753.8375
1185.91565	35918.8375
1189.51451	36187.7375
1193.11091	35870.0375
1196.70485	34937.8375
1200.29634	33627.7375
1203.88538	32659.0375
1207.47197	32342.8375
1211.05612	32252.5375
1214.63782	31715.7375
1218.21708	30496.6375
1221.79391	28932.9375
1225.36829	27702.6375
1228.94024	26919.8375
1232.50976	26485.6375
1236.07685	26280.9375
1239.6415	26222.7375
1243.20374	26331.5375
1246.76355	26598.3375
1250.32093	27025.8375
1253.8759	27619.2375
1257.42845	28476.4375
1260.97859	29403.0375
1264.52631	30288.3375
1268.07163	31063.1375
1271.61453	31970.2375
1275.15503	32978.5375
1278.69312	34158.9375
1282.22882	35424.5375
1285.76211	36967.1375
1289.29301	38855.1375
1292.82151	41221.4375
1296.34761	43969.3375
1299.87133	46821.0375
1303.39266	49315.8375
1306.9116	50975.7375
1310.42815	51887.0375
1313.94233	52100.0375
1317.45412	51939.1375
1320.96354	51974.9375
1324.47058	52428.5375
1327.97525	52961.7375
1331.47754	53424.8375
1334.97747	53630.7375
1338.47502	53424.5375
1341.97022	53040.2375
1345.46305	52373.3375
1348.95352	51273.0375
1352.44163	49919.0375
1355.92738	48846.9375
1359.41078	48614.8375
1362.89183	48548.3375
1366.37053	47343.6375
1369.84688	44535.9375
1373.32088	40834.8375
1376.79254	38320.3375
1380.26186	37654.9375
1383.72883	38185.9375
1387.19347	38835.6375
1390.65578	39034.5375
1394.11575	39178.9375
1397.57339	39385.0375
1401.0287	39718.9375
1404.48168	39750.6375
1407.93234	39126.5375
1411.38068	37671.5375
1414.82669	35569.3375
1418.27039	33481.0375
1421.71177	31614.2375
1425.15083	30158.0375
1428.58758	29511.2375
1432.02203	29814.8375
1435.45416	30694.1375
1438.88399	31873.0375
1442.31151	32888.6375
1445.73673	33621.1375
1449.15965	34341.5375
1452.58027	34980.2375
1455.9986	35373.6375
1459.41463	35673.5375
1462.82837	36068.0375
1466.23982	36463.7375
1469.64898	36714.9375
1473.05586	36753.8375
1476.46045	36481.9375
1479.86276	36010.8375
1483.26279	35505.3375
1486.66054	35264.5375
1490.05602	35275.4375
1493.44922	35698.1375
1496.84016	36370.9375
1500.22882	37281.6375
1503.61521	38493.0375
1506.99934	39706.4375
1510.38121	40696.8375
1513.76081	41102.4375
1517.13816	40873.8375
1520.51324	40477.9375
1523.88607	40434.4375
1527.25665	40750.1375
1530.62498	40946.7375
1533.99105	40809.3375
1537.35488	40014.9375
1540.71647	38701.0375
1544.07581	37108.0375
1547.4329	35586.2375
1550.78776	34395.5375
1554.14038	33584.7375
1557.49077	33178.5375
1560.83892	32990.2375
1564.18484	32935.9375
1567.52853	33057.5375
1570.86999	33446.7375
1574.20922	34438.4375
1577.54624	35552.4375
1580.88103	36284.1375
1584.2136	37003.8375
1587.54395	38008.4375
1590.87208	39300.6375
1594.19801	40866.5375
1597.52172	42010.1375
1600.84321	41701.9375
1604.16251	39356.2375
1607.47959	36167.7375
1610.79447	33034.3375
1614.10715	30157.5375
1617.41763	27774.2375
1620.7259	26045.8375
1624.03199	25089.7375
1627.33587	25030.1375
1630.63757	25837.7375
1633.93707	27774.4375
1637.23439	30935.5375
1640.52951	35386.9375
1643.82246	40522.5375
1647.11321	44550.3375
1650.40179	45463.0375
1653.68819	42445.7375
1656.97241	36903.6375
1660.25446	31070.5375
1663.53433	26377.1375
1666.81203	23066.7375
1670.08756	20912.8375
1673.36092	19573.6375
1676.63211	18662.4375
1679.90115	18057.6375
1683.16801	17645.8375
1686.43272	17296.3375
1689.69527	17093.1375
1692.95567	16861.6375
1696.2139	16723.9375
1699.46999	16644.8375
1702.72392	16483.4375
1705.97571	16415.2375
1709.22535	16337.7375
1712.47284	16224.3375
1715.71819	16187.4375
1718.96139	16067.5375
1722.20246	16004.2375
1725.44139	15948.4375
1728.67818	15789.3375
1731.91284	15686.5375
1735.14537	15586.4375
1738.37576	15503.3375
1741.60403	15413.2375
1744.83017	15365.3375
1748.05418	15337.8375
1751.27607	15299.6375
1754.49584	15268.5375
1757.71349	15226.9375
1760.92903	15230.0375
1764.14244	15216.6375
1767.35375	15154.4375
1770.56294	15092.0375
1773.77002	15039.0375
1776.97499	15002.6375
1780.17785	14919.9375
1783.37861	14887.9375
1786.57727	14877.8375
1789.77382	14802.9375
1792.96828	14777.2375
1796.16064	14724.9375
1799.3509	14661.7375
1802.53907	14641.2375
1805.72514	14572.2375
1808.90913	14518.7375
1812.09102	14509.2375
1815.27083	14466.7375
1818.44856	14451.2375
1821.6242	14393.9375
1824.79776	14429.8375
1827.96924	14378.1375
1831.13864	14359.2375
1834.30597	14362.3375
1837.47122	14359.3375
1840.6344	14361.0375
1843.7955	14368.4375
1846.95454	14349.2375
1850.11151	14326.9375
1853.26642	14323.2375
1856.41926	14296.8375
1859.57004	14265.3375
1862.71876	14236.9375
1865.86542	14196.0375
1869.01003	14191.0375
1872.15258	14146.3375
1875.29308	14130.3375
1878.43152	14110.8375
1881.56792	14065.1375
1884.70227	14046.7375
1887.83457	14012.3375
1890.96482	13993.4375
1894.09304	13981.3375
1897.21921	13950.8375
1900.34335	13914.5375
1903.46544	13890.5375
1906.58551	13872.7375
1909.70353	13823.0375
1912.81953	13795.2375
1915.93349	13754.4375
1919.04543	13737.4375
1922.15534	13699.3375
1925.26322	13661.4375
1928.36908	13626.0375
1931.47292	13581.0375
1934.57473	13540.5375
1937.67453	13500.2375
1940.77232	13437.4375
1943.86808	13419.0375
1946.96184	13397.6375
1950.05358	13369.5375
1953.14331	13298.9375
1956.23103	13254.2375
1959.31675	13222.7375
1962.40046	13196.7375
1965.48217	13141.6375
1968.56188	13067.8375
1971.63959	13018.8375
1974.7153	12997.0375
1977.78901	12932.5375
1980.86073	12908.7375
1983.93046	12865.8375
1986.99819	12769.6375
1990.06394	12753.4375
1993.1277	12727.5375
1996.18947	12644.3375
1999.24925	12604.6375
2002.30706	12586.8375
2005.36288	12552.2375
2008.41672	12496.3375
2011.46859	12486.7375
2014.51848	12404.0375
2017.56639	12353.6375
2020.61233	12344.1375
2023.6563	12311.4375
2026.6983	12287.6375
2029.73833	12261.6375
2032.7764	12210.7375
2035.8125	12195.5375
2038.84664	12174.5375
2041.87881	12150.8375
2044.90903	12130.0375
2047.93729	12094.6375
2050.96359	12088.9375
2053.98794	12070.2375
2057.01034	12052.7375
2060.03078	12032.3375
2063.04927	12021.2375
2066.06582	12028.7375
2069.08042	12000.0375
2072.09307	11997.1375
2075.10378	11968.1375
2078.11255	11953.5375
2081.11938	11938.2375
2084.12426	11894.0375
2087.12722	11908.1375
2090.12824	11912.1375
2093.12732	11895.5375
2096.12447	11903.0375
2099.11969	11908.9375
2102.11299	11925.4375
2105.10435	11918.4375
2108.09379	11920.6375
2111.08131	11917.9375
2114.0669	11904.9375
2117.05057	11907.6375
2120.03233	11949.3375
2123.01216	11911.2375
2125.99008	11940.4375
2128.96609	11906.7375
2131.94018	11920.1375
2134.91236	11888.0375
2137.88263	11900.2375
2140.851	11909.5375
2143.81746	11920.6375
2146.78201	11896.5375
2149.74466	11892.7375
2152.7054	11891.0375
2155.66425	11866.5375
2158.6212	11867.0375
2161.57625	11851.4375
2164.52941	11857.6375
2167.48067	11845.7375
2170.43004	11854.5375
2173.37752	11794.3375
2176.32311	11814.4375
2179.26681	11811.9375
2182.20863	11811.1375
2185.14856	11804.3375
2188.08661	11787.6375
2191.02278	11767.6375
2193.95707	11767.5375
2196.88948	11732.0375
2199.82001	11725.5375
2202.74867	11723.7375
2205.67545	11691.9375
2208.60037	11682.2375
2211.52341	11637.0375
2214.44458	11632.0375
2217.36388	11598.8375
2220.28132	11571.9375
2223.1969	11581.6375
2226.11061	11537.4375
2229.02246	11497.0375
2231.93245	11496.6375
2234.84058	11459.1375
2237.74686	11452.1375
2240.65128	11416.2375
2243.55385	11419.7375
2246.45456	11406.1375
2249.35343	11378.4375
2252.25044	11339.8375
2255.14561	11335.2375
2258.03893	11293.7375
2260.93041	11240.9375
2263.82004	11224.8375
2266.70783	11169.3375
2269.59378	11132.3375
2272.4779	11101.4375
2275.36017	11068.9375
2278.24061	11058.8375
2281.11922	11003.2375
2283.996	11031.8375
2286.87094	10981.6375
2289.74405	10950.0375
2292.61534	10955.5375
2295.4848	10948.4375
2298.35243	10937.4375
2301.21824	10908.2375
2304.08223	10916.9375
2306.94439	10870.8375
2309.80474	10870.3375
2312.66327	10883.3375
2315.51999	10847.5375
2318.37489	10835.4375
2321.22797	10817.3375
2324.07925	10808.7375
2326.92871	10783.3375
2329.77637	10787.4375
2332.62222	10762.2375
2335.46626	10761.3375
2338.3085	10753.7375
2341.14893	10754.6375
2343.98756	10732.8375
2346.8244	10725.1375
2349.65943	10734.2375
2352.49267	10738.0375
2355.32411	10712.7375
2358.15376	10711.1375
2360.98161	10720.3375
2363.80768	10711.4375
2366.63195	10665.4375
2369.45444	10663.7375
2372.27514	10669.9375
2375.09405	10656.5375
2377.91118	10631.8375
2380.72652	10627.6375
2383.54009	10599.4375
2386.35187	10561.2375
2389.16188	10525.6375
2391.97011	10512.8375
2394.77657	10514.5375
2397.58125	10468.0375
2400.38416	10427.5375
2403.18529	10439.3375
2405.98466	10413.1375
2408.78226	10415.8375
2411.57809	10418.3375
2414.37216	10402.9375
2417.16446	10384.1375
2419.955	10369.9375
2422.74378	10370.1375
2425.5308	10373.7375
2428.31606	10354.7375
2431.09956	10342.6375
2433.88131	10332.9375
2436.6613	10335.0375
2439.43954	10321.7375
2442.21603	10311.0375
2444.99077	10266.7375
2447.76377	10272.3375
2450.53501	10273.4375
2453.30451	10266.7375
2456.07226	10271.0375
2458.83827	10256.1375
2461.60254	10254.4375
2464.36507	10250.6375
2467.12586	10252.9375
2469.88492	10243.6375
2472.64224	10238.4375
2475.39782	10240.2375
2478.15167	10244.0375
2480.90379	10226.9375
2483.65417	10221.7375
2486.40283	10209.8375
2489.14976	10208.5375
2491.89497	10236.5375
2494.63845	10228.6375
2497.3802	10215.5375
2500.12024	10214.2375
2502.85855	10193.4375
2505.59514	10206.0375
2508.33002	10211.4375
2511.06318	10230.3375
2513.79462	10197.9375
2516.52435	10180.1375
2519.25237	10171.3375
2521.97867	10172.2375
2524.70327	10141.8375
2527.42616	10152.6375
2530.14734	10166.0375
2532.86681	10135.6375
2535.58458	10116.2375
2538.30065	10122.3375
2541.01501	10107.5375
2543.72768	10066.3375
2546.43864	10060.4375
2549.14791	10031.6375
2551.85548	10051.0375
2554.56136	10037.7375
2557.26554	10035.7375
2559.96803	10010.9375
2562.66883	10016.5375
2565.36794	10016.7375
2568.06536	10015.7375
2570.7611	10010.3375
2573.45514	9962.8375
2576.14751	9966.6375
2578.83819	9950.4375
2581.52719	9923.0375
2584.21451	9931.0375
2586.90015	9952.0375
2589.58411	9905.5375
2592.2664	9915.7375
2594.94701	9894.7375
2597.62594	9890.9375
2600.30321	9888.1375
2602.9788	9886.8375
2605.65273	9860.9375
2608.32498	9877.0375
2610.99557	9870.6375
2613.66449	9876.6375
2616.33175	9896.9375
2618.99734	9883.2375
2621.66128	9846.9375
2624.32355	9843.5375
2626.98416	9824.1375
2629.64311	9829.9375
2632.30041	9847.6375
2634.95605	9819.9375
2637.61004	9804.8375
2640.26238	9809.9375
2642.91306	9818.2375
2645.56209	9809.0375
2648.20948	9820.8375
2650.85521	9816.6375
2653.4993	9793.5375
2656.14175	9832.3375
2658.78255	9841.9375
2661.42171	9813.3375
2664.05923	9847.9375
2666.6951	9868.3375
2669.32934	9848.2375
2671.96194	9844.9375
2674.59291	9825.7375
2677.22224	9827.6375
2679.84993	9843.5375
2682.476	9846.5375
2685.10043	9827.4375
2687.72324	9825.7375
2690.34441	9821.7375
2692.96396	9816.3375
2695.58188	9838.7375
2698.19818	9809.4375
2700.81285	9830.7375
2703.4259	9808.5375
2706.03733	9860.3375
2708.64714	9843.3375
2711.25533	9839.4375
2713.86191	9816.8375
2716.46687	9855.7375
2719.07021	9851.5375
2721.67194	9866.9375
2724.27206	9849.5375
2726.87057	9870.5375
2729.46747	9899.7375
2732.06276	9891.0375
2734.65644	9878.2375
2737.24852	9870.7375
2739.83899	9855.8375
2742.42786	9858.3375
2745.01513	9825.6375
2747.60079	9841.3375
2750.18486	9832.4375
2752.76733	9832.9375
2755.3482	9843.5375
2757.92747	9830.2375
2760.50515	9840.8375
2763.08123	9836.0375
2765.65573	9821.4375
2768.22863	9807.5375
2770.79994	9787.7375
2773.36967	9818.1375
2775.9378	9806.0375
2778.50435	9799.4375
2781.06932	9802.4375
2783.6327	9813.1375
2786.1945	9788.5375
2788.75471	9776.7375
2791.31335	9761.9375
2793.87041	9756.4375
2796.42589	9747.6375
2798.97979	9734.6375
2801.53212	9710.7375
2804.08288	9717.2375
2806.63206	9681.2375
2809.17967	9639.6375
2811.72571	9638.6375
2814.27018	9634.8375
2816.81308	9620.5375
2819.35442	9568.7375
2821.89419	9570.3375
2824.43239	9555.3375
2826.96904	9557.7375
2829.50412	9555.2375
2832.03763	9543.1375
2834.56959	9546.8375
2837.1	9525.8375
2839.62884	9525.9375
2842.15613	9541.3375
2844.68186	9576.5375
2847.20604	9615.7375
2849.72867	9619.6375
2852.24974	9624.3375
2854.76927	9611.7375
2857.28724	9582.5375
2859.80367	9564.6375
2862.31855	9558.4375
2864.83189	9553.1375
2867.34368	9543.2375
2869.85393	9518.9375
2872.36264	9521.8375
2874.8698	9512.2375
2877.37543	9497.3375
2879.87952	9488.9375
2882.38207	9484.7375
2884.88308	9475.5375
2887.38256	9482.2375
2889.88051	9468.4375
2892.37692	9452.0375
2894.8718	9474.0375
2897.36515	9496.9375
2899.85698	9467.8375
2902.34727	9511.7375
2904.83604	9500.4375
2907.32328	9523.5375
2909.809	9503.2375
2912.29319	9512.6375
2914.77587	9498.8375
2917.25702	9515.5375
2919.73665	9493.9375
2922.21476	9479.9375
2924.69136	9492.6375
2927.16644	9515.2375
2929.64	9490.8375
2932.11205	9522.8375
2934.58258	9499.5375
2937.05161	9478.9375
2939.51912	9491.9375
2941.98513	9451.2375
2944.44962	9410.3375
2946.91261	9342.3375
2949.37409	9345.8375
2951.83407	9325.0375
2954.29254	9324.7375
2956.74951	9284.1375
2959.20498	9293.1375
2961.65895	9249.3375
2964.11142	9256.7375
2966.56239	9263.8375
2969.01186	9229.2375
2971.45984	9209.9375
2973.90632	9186.2375
2976.35131	9132.8375
2978.7948	9134.9375
2981.23681	9100.6375
2983.67732	9070.3375
2986.11635	9065.5375
2988.55388	9030.6375
2990.98993	9009.7375
2993.4245	9004.2375
2995.85758	8969.5375
2998.28917	8943.0375
3000.71928	8929.1375
3003.14791	8879.3375
3005.57506	8866.6375
3008.00073	8840.7375
3010.42493	8818.7375
3012.84764	8795.1375
3015.26888	8792.6375
3017.68865	8767.3375
3020.10694	8759.3375
3022.52376	8743.7375
3024.9391	8749.2375
3027.35298	8707.0375
3029.76539	8724.5375
3032.17632	8720.0375
3034.5858	8673.9375
3036.9938	8688.9375
3039.40034	8670.8375
3041.80542	8644.0375
3044.20903	8611.8375
3046.61118	8638.9375
3049.01187	8590.6375
3051.4111	8586.2375
3053.80888	8571.2375
3056.20519	8534.0375
3058.60005	8535.0375
3060.99345	8498.7375
3063.3854	8481.2375
3065.7759	8446.3375
3068.16494	8429.2375
3070.55254	8384.2375
3072.93868	8367.9375
3075.32338	8344.4375
3077.70662	8305.3375
3080.08842	8302.1375
3082.46878	8288.8375
3084.84769	8270.8375
3087.22515	8269.0375
3089.60118	8251.9375
3091.97576	8253.4375
3094.3489	8242.9375
3096.72061	8209.0375
3099.09087	8221.8375
3101.4597	8203.3375
3103.82709	8215.7375
3106.19305	8183.6375
3108.55757	8165.9375
3110.92066	8150.0375
3113.28232	8120.9375
3115.64255	8094.8375
3118.00134	8089.9375
3120.35871	8053.4375
3122.71466	8039.6375
3125.06917	8038.5375
3127.42226	8010.8375
3129.77393	8002.4375
3132.12417	8017.0375
3134.47299	8013.8375
3136.82039	7991.1375
3139.16636	7996.5375
3141.51092	7978.0375
3143.85406	7970.1375
3146.19579	7977.5375
3148.53609	7986.0375
3150.87499	7994.9375
3153.21246	7980.0375
3155.54853	7994.0375
3157.88318	7977.5375
3160.21642	7998.2375
3162.54826	7965.4375
3164.87868	7969.4375
3167.2077	7967.5375
3169.5353	7977.2375
3171.86151	7981.3375
3174.18631	7941.4375
3176.5097	7941.6375
3178.83169	7938.5375
3181.15228	7914.4375
3183.47147	7910.8375
3185.78926	7901.5375
3188.10565	7897.0375
3190.42065	7888.0375
3192.73424	7892.7375
3195.04645	7875.6375
3197.35725	7863.8375
3199.66667	7839.6375
3201.97469	7858.1375
3204.28132	7841.1375
3206.58656	7843.4375
3208.8904	7848.0375
3211.19287	7855.3375
3213.49394	7830.4375
3215.79363	7836.3375
3218.09193	7820.3375
3220.38884	7836.8375
3222.68438	7840.7375
3224.97853	7813.1375
3227.2713	7808.5375
3229.56269	7809.8375
3231.8527	7789.3375
3234.14133	7766.3375
3236.42858	7763.1375
3238.71446	7777.6375
3240.99896	7756.2375
3243.28209	7750.0375
3245.56384	7744.2375
3247.84423	7724.0375
3250.12324	7714.6375
3252.40088	7691.0375
3254.67715	7683.6375
3256.95205	7678.7375
3259.22558	7664.3375
3261.49775	7653.7375
3263.76855	7619.2375
3266.03799	7591.5375
3268.30606	7562.7375
3270.57277	7579.2375
3272.83812	7548.1375
3275.10211	7532.0375
3277.36474	7534.1375
3279.62601	7527.9375
3281.88593	7510.9375
3284.14448	7503.8375
3286.40168	7537.9375
3288.65753	7506.2375
3290.91202	7498.5375
3293.16516	7465.6375
3295.41695	7456.7375
3297.66738	7412.1375
3299.91647	7370.8375
3302.16421	7321.4375
3304.4106	7277.3375
3306.65564	7252.3375
3308.89933	7190.8375
3311.14169	7148.2375
3313.38269	7086.0375
3315.62236	7046.4375
3317.86068	6971.2375
3320.09766	6907.9375
3322.3333	6842.8375
3324.5676	6821.6375
3326.80056	6702.5375
3329.03219	6663.1375
3331.26248	1.4375
3333.49143	0.4375
3335.71905	-1.1625
