Data from AgNPs_FTO_APTES_UA_2uM_CRN_50uM_R6G_10uM_NaF_0.1M_Addition_RamanShift__23__15-03-05-259.txt Node

Date: Wed Feb 02 15:03:05 GMT 2022
User: TCL
Spectrometer: QEP01345
Trigger mode: 4
Integration Time (sec): 7.000000E0
Scans to average: 10
Electric dark correction enabled: true
Nonlinearity correction enabled: false
Boxcar width: 0
XAxis mode: Raman Shifts
Number of Pixels in Spectrum: 1044
>>>>>Begin Spectral Data<<<<<
46.04893	0.325
50.45542	0.025
54.85868	-0.975
59.25871	-0.575
63.6555	90.525
68.04907	96.825
72.43941	100.425
76.82654	107.125
81.21044	108.525
85.59113	114.525
89.96862	118.225
94.34289	122.525
98.71396	128.125
103.08183	134.925
107.4465	133.325
111.80798	139.825
116.16626	143.125
120.52136	151.525
124.87327	154.825
129.222	162.325
133.56755	169.825
137.90993	186.825
142.24913	201.625
146.58517	228.325
150.91804	262.525
155.24774	312.525
159.57429	387.225
163.89768	496.425
168.21792	656.625
172.53501	898.725
176.84895	1241.425
181.15975	1737.925
185.46741	2439.925
189.77193	3346.225
194.07331	4492.025
198.37157	5761.725
202.6667	7098.125
206.9587	8434.425
211.24758	9749.625
215.53334	11068.925
219.81599	12503.825
224.09553	14089.625
228.37195	15793.425
232.64527	17672.625
236.91549	19655.525
241.18261	21609.925
245.44663	23402.025
249.70755	25042.625
253.96539	26483.725
258.22014	27695.625
262.4718	28809.225
266.72039	29661.825
270.96589	30192.225
275.20832	30459.825
279.44768	30459.725
283.68397	30479.825
287.91719	30522.625
292.14735	30643.725
296.37445	30835.825
300.59849	31021.025
304.81948	31033.625
309.03742	30686.725
313.25231	30036.825
317.46415	29075.325
321.67296	27855.825
325.87872	26882.925
330.08145	26447.425
334.28114	26347.925
338.47781	26506.625
342.67145	26802.625
346.86207	27294.725
351.04966	27879.925
355.23424	28435.725
359.4158	28985.625
363.59435	29252.025
367.76989	29403.025
371.94243	29591.425
376.11196	29669.425
380.27849	29747.625
384.44203	29863.925
388.60257	30074.925
392.76012	30426.025
396.91468	30850.325
401.06626	31331.525
405.21485	31684.025
409.36047	31469.525
413.50311	30900.625
417.64277	30418.725
421.77947	30393.925
425.9132	30486.625
430.04396	30783.225
434.17176	31041.925
438.2966	31380.225
442.41849	31989.525
446.53742	32944.125
450.6534	34082.025
454.76644	35006.425
458.87653	35372.625
462.98368	35239.425
467.08789	34975.225
471.18916	34631.125
475.2875	34487.825
479.38291	34518.925
483.4754	34440.225
487.56496	33861.225
491.6516	32945.825
495.73531	32002.425
499.81612	31520.525
503.89401	31460.325
507.96899	31510.425
512.04106	31334.925
516.11023	31015.825
520.1765	30631.125
524.23987	30168.325
528.30034	29826.425
532.35792	29461.025
536.41261	29144.325
540.46441	28884.725
544.51333	29036.525
548.55936	29582.925
552.60252	30431.625
556.64279	31439.125
560.6802	32175.625
564.71473	32624.925
568.7464	33359.025
572.7752	34262.325
576.80114	34767.925
580.82422	35045.825
584.84444	35245.225
588.86181	35440.325
592.87633	35963.825
596.888	36451.925
600.89682	36646.925
604.9028	37656.125
608.90594	40525.625
612.90624	43488.525
616.90371	40468.425
620.89834	33248.125
624.89015	30115.325
628.87913	29765.425
632.86528	30078.825
636.84862	30137.925
640.82913	29650.325
644.80683	28674.425
648.78172	27832.025
652.75379	27580.225
656.72306	27817.025
660.68952	28318.025
664.65319	28247.225
668.61405	27664.025
672.57211	27472.725
676.52738	27501.925
680.47986	27466.425
684.42955	27386.125
688.37646	27323.225
692.32058	27393.525
696.26192	27670.525
700.20048	28039.825
704.13626	28269.725
708.06928	28317.525
711.99952	28085.725
715.927	27933.025
719.85171	27960.425
723.77365	27877.125
727.69284	27558.725
731.60928	27309.125
735.52295	27222.025
739.43388	27230.025
743.34206	27277.125
747.24749	27441.425
751.15017	27831.125
755.05012	28453.825
758.94733	29581.325
762.8418	31540.725
766.73354	34352.625
770.62254	36887.925
774.50882	37153.025
778.39237	34915.325
782.27321	31803.425
786.15132	29331.225
790.02671	27862.925
793.89938	27127.425
797.76935	26827.625
801.6366	26796.025
805.50115	26811.625
809.36299	26644.125
813.22213	26507.125
817.07857	26478.525
820.93231	26447.525
824.78336	26334.125
828.63172	26162.025
832.47738	26055.025
836.32036	26042.025
840.16066	26038.525
843.99827	26022.725
847.8332	25956.625
851.66546	25835.225
855.49504	25812.425
859.32195	25722.025
863.1462	25627.325
866.96777	25522.125
870.78668	25439.525
874.60293	25424.525
878.41652	25408.325
882.22745	25496.825
886.03573	25551.025
889.84136	25493.925
893.64433	25418.225
897.44466	25323.525
901.24235	25229.325
905.0374	25168.425
908.8298	25149.825
912.61957	25249.225
916.40671	25518.025
920.19121	25992.825
923.97308	26302.725
927.75233	26263.425
931.52895	26026.325
935.30295	25569.925
939.07433	25013.225
942.84309	24564.325
946.60924	24296.225
950.37278	24189.625
954.13371	24154.625
957.89203	24183.225
961.64774	24176.225
965.40086	24206.525
969.15137	24028.125
972.89929	23872.725
976.64461	23673.925
980.38733	23618.325
984.12747	23687.625
987.86502	23857.225
991.59999	24162.625
995.33237	24570.425
999.06217	25290.825
1002.78939	26151.125
1006.51404	26807.325
1010.23611	27219.225
1013.95561	27483.625
1017.67255	27503.925
1021.38692	27205.225
1025.09872	26839.125
1028.80796	26800.125
1032.51465	27133.025
1036.21877	27599.925
1039.92035	27727.825
1043.61937	27519.825
1047.31584	27132.325
1051.00976	26652.925
1054.70114	26413.925
1058.38998	26570.125
1062.07627	26871.525
1065.76003	27225.225
1069.44126	27530.625
1073.11995	27854.825
1076.79611	28071.925
1080.46974	28217.125
1084.14085	28387.925
1087.80943	28779.925
1091.47549	29084.425
1095.13903	29173.925
1098.80005	28764.825
1102.45857	28081.325
1106.11456	27452.425
1109.76805	27241.725
1113.41903	27312.925
1117.06751	27635.325
1120.71348	28091.025
1124.35696	28465.825
1127.99793	28924.625
1131.63641	29173.525
1135.2724	28947.125
1138.90589	28718.725
1142.5369	28682.425
1146.16542	28845.525
1149.79145	29145.725
1153.415	29645.125
1157.03607	30317.325
1160.65467	31369.125
1164.27079	32912.425
1167.88443	34927.325
1171.49561	37579.625
1175.10432	40991.425
1178.71056	45061.725
1182.31434	48759.825
1185.91565	50898.925
1189.51451	51217.625
1193.11091	50144.325
1196.70485	48268.925
1200.29634	45976.825
1203.88538	44014.425
1207.47197	42614.725
1211.05612	41482.325
1214.63782	40505.125
1218.21708	39584.625
1221.79391	38858.925
1225.36829	38239.725
1228.94024	37606.025
1232.50976	36989.525
1236.07685	36581.725
1239.6415	36326.925
1243.20374	36299.925
1246.76355	36479.625
1250.32093	36966.025
1253.8759	37815.225
1257.42845	39054.925
1260.97859	40305.625
1264.52631	41367.125
1268.07163	42539.625
1271.61453	43843.825
1275.15503	45329.325
1278.69312	46839.925
1282.22882	48174.625
1285.76211	49689.825
1289.29301	51514.925
1292.82151	54033.125
1296.34761	57159.425
1299.87133	60812.325
1303.39266	64659.325
1306.9116	68820.525
1310.42815	72619.225
1313.94233	75380.825
1317.45412	76350.325
1320.96354	76117.525
1324.47058	75473.025
1327.97525	74747.425
1331.47754	74272.025
1334.97747	74098.025
1338.47502	74191.425
1341.97022	74048.625
1345.46305	72767.925
1348.95352	70580.225
1352.44163	68298.725
1355.92738	67284.925
1359.41078	68232.825
1362.89183	69863.025
1366.37053	68491.225
1369.84688	63225.525
1373.32088	57000.525
1376.79254	52725.625
1380.26186	51336.325
1383.72883	51520.825
1387.19347	52160.225
1390.65578	52550.425
1394.11575	53185.525
1397.57339	54575.125
1401.0287	56307.225
1404.48168	57891.525
1407.93234	58438.925
1411.38068	57573.725
1414.82669	55301.325
1418.27039	52120.325
1421.71177	48776.825
1425.15083	46058.025
1428.58758	44387.825
1432.02203	44135.825
1435.45416	44896.425
1438.88399	46319.225
1442.31151	47743.725
1445.73673	49139.725
1449.15965	50579.325
1452.58027	51746.325
1455.9986	52557.825
1459.41463	53318.425
1462.82837	54223.125
1466.23982	55157.025
1469.64898	55912.225
1473.05586	56049.225
1476.46045	55669.825
1479.86276	54880.025
1483.26279	53794.525
1486.66054	52973.425
1490.05602	52680.725
1493.44922	52595.825
1496.84016	52564.025
1500.22882	52924.325
1503.61521	53933.525
1506.99934	55573.025
1510.38121	57389.325
1513.76081	58320.425
1517.13816	57690.325
1520.51324	55760.925
1523.88607	53856.025
1527.25665	52781.625
1530.62498	52394.825
1533.99105	52296.225
1537.35488	52208.225
1540.71647	51716.525
1544.07581	50714.625
1547.4329	49581.025
1550.78776	48500.825
1554.14038	47801.625
1557.49077	47565.125
1560.83892	47467.525
1564.18484	47452.125
1567.52853	47373.325
1570.86999	47427.125
1574.20922	48045.625
1577.54624	48838.125
1580.88103	49439.325
1584.2136	50218.425
1587.54395	51977.425
1590.87208	54736.025
1594.19801	57956.625
1597.52172	61064.125
1600.84321	61839.025
1604.16251	59096.725
1607.47959	54227.725
1610.79447	49006.525
1614.10715	44097.825
1617.41763	40057.925
1620.7259	37202.725
1624.03199	35657.725
1627.33587	35461.425
1630.63757	36557.725
1633.93707	39266.225
1637.23439	43579.725
1640.52951	49444.825
1643.82246	55887.125
1647.11321	60723.125
1650.40179	61641.225
1653.68819	57588.525
1656.97241	49981.325
1660.25446	42087.025
1663.53433	35791.825
1666.81203	31562.025
1670.08756	28832.325
1673.36092	27158.425
1676.63211	26053.725
1679.90115	25271.925
1683.16801	24691.025
1686.43272	24266.125
1689.69527	23983.525
1692.95567	23722.725
1696.2139	23557.225
1699.46999	23439.825
1702.72392	23297.325
1705.97571	23206.225
1709.22535	23079.725
1712.47284	23011.425
1715.71819	22907.225
1718.96139	22845.625
1722.20246	22777.325
1725.44139	22639.025
1728.67818	22476.625
1731.91284	22337.625
1735.14537	22199.425
1738.37576	22096.525
1741.60403	21991.625
1744.83017	21950.425
1748.05418	21898.325
1751.27607	21866.125
1754.49584	21825.025
1757.71349	21776.525
1760.92903	21734.425
1764.14244	21705.225
1767.35375	21724.225
1770.56294	21627.425
1773.77002	21566.825
1776.97499	21522.525
1780.17785	21465.725
1783.37861	21432.125
1786.57727	21384.825
1789.77382	21308.325
1792.96828	21275.425
1796.16064	21242.825
1799.3509	21224.325
1802.53907	21189.825
1805.72514	21123.825
1808.90913	21079.525
1812.09102	21041.825
1815.27083	20976.925
1818.44856	20984.225
1821.6242	20915.125
1824.79776	20931.425
1827.96924	20909.525
1831.13864	20875.025
1834.30597	20894.325
1837.47122	20934.225
1840.6344	20882.525
1843.7955	20940.725
1846.95454	20933.725
1850.11151	20943.925
1853.26642	20964.225
1856.41926	20928.625
1859.57004	20922.425
1862.71876	20890.325
1865.86542	20880.225
1869.01003	20936.625
1872.15258	20933.825
1875.29308	20921.925
1878.43152	20931.125
1881.56792	20924.425
1884.70227	20927.925
1887.83457	20929.225
1890.96482	20932.225
1894.09304	20901.025
1897.21921	20942.625
1900.34335	20933.925
1903.46544	20933.325
1906.58551	20928.725
1909.70353	20912.625
1912.81953	20866.725
1915.93349	20811.425
1919.04543	20784.425
1922.15534	20729.125
1925.26322	20642.825
1928.36908	20585.625
1931.47292	20528.525
1934.57473	20424.525
1937.67453	20350.125
1940.77232	20252.325
1943.86808	20202.225
1946.96184	20126.625
1950.05358	20000.025
1953.14331	19949.725
1956.23103	19877.025
1959.31675	19795.325
1962.40046	19749.025
1965.48217	19635.925
1968.56188	19553.925
1971.63959	19527.825
1974.7153	19474.625
1977.78901	19428.625
1980.86073	19373.325
1983.93046	19271.225
1986.99819	19198.025
1990.06394	19128.425
1993.1277	19094.725
1996.18947	19021.125
1999.24925	18977.225
2002.30706	18893.325
2005.36288	18871.725
2008.41672	18849.125
2011.46859	18774.925
2014.51848	18700.125
2017.56639	18645.525
2020.61233	18614.825
2023.6563	18570.225
2026.6983	18554.925
2029.73833	18500.125
2032.7764	18478.425
2035.8125	18464.525
2038.84664	18359.125
2041.87881	18404.825
2044.90903	18355.025
2047.93729	18325.125
2050.96359	18322.625
2053.98794	18317.525
2057.01034	18295.125
2060.03078	18253.825
2063.04927	18236.025
2066.06582	18243.825
2069.08042	18209.225
2072.09307	18215.625
2075.10378	18148.025
2078.11255	18127.225
2081.11938	18130.525
2084.12426	18106.525
2087.12722	18090.425
2090.12824	18102.225
2093.12732	18112.225
2096.12447	18099.225
2099.11969	18128.925
2102.11299	18114.925
2105.10435	18133.025
2108.09379	18136.825
2111.08131	18122.525
2114.0669	18104.925
2117.05057	18132.825
2120.03233	18133.025
2123.01216	18134.325
2125.99008	18177.925
2128.96609	18161.025
2131.94018	18163.225
2134.91236	18167.325
2137.88263	18148.725
2140.851	18170.025
2143.81746	18215.325
2146.78201	18201.925
2149.74466	18218.425
2152.7054	18181.125
2155.66425	18163.425
2158.6212	18184.925
2161.57625	18164.725
2164.52941	18176.925
2167.48067	18163.625
2170.43004	18105.725
2173.37752	18113.925
2176.32311	18095.625
2179.26681	18135.825
2182.20863	18096.025
2185.14856	18138.125
2188.08661	18104.625
2191.02278	18120.925
2193.95707	18114.325
2196.88948	18115.525
2199.82001	18118.825
2202.74867	18055.725
2205.67545	18062.025
2208.60037	18051.925
2211.52341	18007.825
2214.44458	18020.125
2217.36388	17959.025
2220.28132	17983.425
2223.1969	17910.425
2226.11061	17906.125
2229.02246	17885.225
2231.93245	17821.125
2234.84058	17791.425
2237.74686	17714.725
2240.65128	17756.525
2243.55385	17734.325
2246.45456	17718.925
2249.35343	17652.125
2252.25044	17645.325
2255.14561	17624.425
2258.03893	17591.325
2260.93041	17552.025
2263.82004	17506.725
2266.70783	17463.625
2269.59378	17366.425
2272.4779	17349.625
2275.36017	17277.825
2278.24061	17275.225
2281.11922	17229.825
2283.996	17219.225
2286.87094	17216.625
2289.74405	17164.425
2292.61534	17149.425
2295.4848	17145.925
2298.35243	17166.725
2301.21824	17141.225
2304.08223	17116.825
2306.94439	17134.825
2309.80474	17154.625
2312.66327	17158.325
2315.51999	17141.825
2318.37489	17127.825
2321.22797	17103.225
2324.07925	17119.525
2326.92871	17108.025
2329.77637	17076.225
2332.62222	17065.525
2335.46626	17085.525
2338.3085	17043.225
2341.14893	17044.425
2343.98756	17061.725
2346.8244	17063.625
2349.65943	17086.325
2352.49267	17056.525
2355.32411	17055.925
2358.15376	17054.325
2360.98161	17038.925
2363.80768	16993.125
2366.63195	17018.325
2369.45444	16993.425
2372.27514	16971.425
2375.09405	16916.325
2377.91118	16897.325
2380.72652	16853.525
2383.54009	16836.525
2386.35187	16802.825
2389.16188	16771.425
2391.97011	16720.825
2394.77657	16699.325
2397.58125	16676.825
2400.38416	16678.625
2403.18529	16643.325
2405.98466	16598.825
2408.78226	16566.425
2411.57809	16558.625
2414.37216	16525.925
2417.16446	16543.825
2419.955	16498.225
2422.74378	16491.725
2425.5308	16470.025
2428.31606	16478.825
2431.09956	16444.925
2433.88131	16432.325
2436.6613	16413.825
2439.43954	16457.825
2442.21603	16443.125
2444.99077	16408.225
2447.76377	16404.025
2450.53501	16389.425
2453.30451	16412.525
2456.07226	16375.025
2458.83827	16430.625
2461.60254	16417.825
2464.36507	16425.825
2467.12586	16406.325
2469.88492	16398.525
2472.64224	16407.325
2475.39782	16420.225
2478.15167	16443.625
2480.90379	16403.525
2483.65417	16468.525
2486.40283	16458.125
2489.14976	16491.125
2491.89497	16495.125
2494.63845	16503.025
2497.3802	16501.825
2500.12024	16518.725
2502.85855	16486.525
2505.59514	16519.625
2508.33002	16540.225
2511.06318	16501.325
2513.79462	16498.125
2516.52435	16430.725
2519.25237	16456.825
2521.97867	16432.825
2524.70327	16422.025
2527.42616	16426.725
2530.14734	16443.325
2532.86681	16387.925
2535.58458	16439.625
2538.30065	16352.525
2541.01501	16368.825
2543.72768	16338.725
2546.43864	16318.825
2549.14791	16284.825
2551.85548	16354.625
2554.56136	16297.825
2557.26554	16301.425
2559.96803	16281.325
2562.66883	16288.825
2565.36794	16285.125
2568.06536	16272.825
2570.7611	16271.225
2573.45514	16240.025
2576.14751	16238.325
2578.83819	16211.325
2581.52719	16271.725
2584.21451	16254.625
2586.90015	16238.125
2589.58411	16244.525
2592.2664	16248.425
2594.94701	16198.425
2597.62594	16237.025
2600.30321	16218.425
2602.9788	16240.525
2605.65273	16211.725
2608.32498	16257.425
2610.99557	16224.525
2613.66449	16271.525
2616.33175	16255.525
2618.99734	16279.225
2621.66128	16266.025
2624.32355	16251.025
2626.98416	16261.825
2629.64311	16308.525
2632.30041	16301.025
2634.95605	16302.625
2637.61004	16274.625
2640.26238	16243.825
2642.91306	16262.125
2645.56209	16261.625
2648.20948	16216.025
2650.85521	16222.525
2653.4993	16241.925
2656.14175	16217.025
2658.78255	16261.625
2661.42171	16237.325
2664.05923	16307.225
2666.6951	16286.325
2669.32934	16316.725
2671.96194	16300.025
2674.59291	16301.025
2677.22224	16302.225
2679.84993	16315.725
2682.476	16309.525
2685.10043	16306.525
2687.72324	16285.425
2690.34441	16269.425
2692.96396	16233.325
2695.58188	16264.025
2698.19818	16249.025
2700.81285	16272.625
2703.4259	16286.025
2706.03733	16309.525
2708.64714	16291.525
2711.25533	16348.225
2713.86191	16311.025
2716.46687	16333.525
2719.07021	16341.425
2721.67194	16375.325
2724.27206	16384.825
2726.87057	16398.825
2729.46747	16416.725
2732.06276	16382.325
2734.65644	16412.525
2737.24852	16414.025
2739.83899	16372.325
2742.42786	16385.525
2745.01513	16362.125
2747.60079	16359.925
2750.18486	16348.425
2752.76733	16367.125
2755.3482	16403.425
2757.92747	16419.825
2760.50515	16444.125
2763.08123	16446.125
2765.65573	16420.325
2768.22863	16398.425
2770.79994	16391.625
2773.36967	16409.025
2775.9378	16388.325
2778.50435	16440.725
2781.06932	16414.025
2783.6327	16416.025
2786.1945	16411.125
2788.75471	16383.425
2791.31335	16340.725
2793.87041	16357.625
2796.42589	16313.125
2798.97979	16338.725
2801.53212	16287.725
2804.08288	16283.725
2806.63206	16248.425
2809.17967	16226.425
2811.72571	16211.725
2814.27018	16170.325
2816.81308	16141.325
2819.35442	16126.125
2821.89419	16100.825
2824.43239	16089.125
2826.96904	16086.825
2829.50412	16081.425
2832.03763	16016.425
2834.56959	16025.425
2837.1	16026.125
2839.62884	15991.625
2842.15613	15983.125
2844.68186	16015.525
2847.20604	16041.525
2849.72867	16044.225
2852.24974	16077.025
2854.76927	16038.625
2857.28724	16043.225
2859.80367	16015.325
2862.31855	15954.225
2864.83189	15948.025
2867.34368	15947.225
2869.85393	15965.425
2872.36264	15958.925
2874.8698	15948.625
2877.37543	15963.325
2879.87952	15966.925
2882.38207	15950.825
2884.88308	15936.325
2887.38256	15942.925
2889.88051	15967.425
2892.37692	15970.525
2894.8718	16010.525
2897.36515	15993.025
2899.85698	16003.125
2902.34727	16038.625
2904.83604	16058.125
2907.32328	16096.625
2909.809	16070.125
2912.29319	16059.325
2914.77587	16080.225
2917.25702	16092.025
2919.73665	16056.325
2922.21476	16057.125
2924.69136	16041.925
2927.16644	16081.825
2929.64	16076.025
2932.11205	16073.825
2934.58258	16000.525
2937.05161	16029.925
2939.51912	16034.525
2941.98513	15975.125
2944.44962	15920.725
2946.91261	15851.525
2949.37409	15870.925
2951.83407	15869.425
2954.29254	15843.225
2956.74951	15787.825
2959.20498	15791.925
2961.65895	15751.825
2964.11142	15754.925
2966.56239	15689.725
2969.01186	15701.425
2971.45984	15650.925
2973.90632	15613.125
2976.35131	15549.525
2978.7948	15513.625
2981.23681	15463.225
2983.67732	15465.725
2986.11635	15426.325
2988.55388	15380.625
2990.98993	15349.125
2993.4245	15326.425
2995.85758	15288.525
2998.28917	15236.325
3000.71928	15227.025
3003.14791	15190.425
3005.57506	15158.225
3008.00073	15091.325
3010.42493	15065.525
3012.84764	15044.725
3015.26888	15068.825
3017.68865	15017.725
3020.10694	14981.925
3022.52376	14985.225
3024.9391	14924.825
3027.35298	14872.725
3029.76539	14906.125
3032.17632	14873.525
3034.5858	14867.325
3036.9938	14856.625
3039.40034	14832.025
3041.80542	14825.525
3044.20903	14795.425
3046.61118	14788.625
3049.01187	14728.125
3051.4111	14734.825
3053.80888	14672.025
3056.20519	14673.725
3058.60005	14613.725
3060.99345	14575.025
3063.3854	14534.525
3065.7759	14511.425
3068.16494	14435.725
3070.55254	14396.025
3072.93868	14364.025
3075.32338	14284.425
3077.70662	14299.425
3080.08842	14224.725
3082.46878	14220.425
3084.84769	14187.925
3087.22515	14212.725
3089.60118	14187.925
3091.97576	14181.525
3094.3489	14155.425
3096.72061	14134.925
3099.09087	14133.325
3101.4597	14083.525
3103.82709	14082.425
3106.19305	14079.325
3108.55757	14037.425
3110.92066	13984.525
3113.28232	13983.425
3115.64255	13885.625
3118.00134	13885.625
3120.35871	13818.825
3122.71466	13797.925
3125.06917	13808.225
3127.42226	13767.325
3129.77393	13775.625
3132.12417	13748.225
3134.47299	13741.925
3136.82039	13692.825
3139.16636	13701.225
3141.51092	13700.625
3143.85406	13700.025
3146.19579	13699.725
3148.53609	13663.925
3150.87499	13702.625
3153.21246	13676.625
3155.54853	13675.625
3157.88318	13697.225
3160.21642	13679.025
3162.54826	13663.325
3164.87868	13643.825
3167.2077	13638.425
3169.5353	13647.625
3171.86151	13615.825
3174.18631	13614.625
3176.5097	13598.725
3178.83169	13581.225
3181.15228	13565.325
3183.47147	13515.025
3185.78926	13574.625
3188.10565	13536.725
3190.42065	13525.725
3192.73424	13497.725
3195.04645	13549.725
3197.35725	13528.925
3199.66667	13518.025
3201.97469	13525.425
3204.28132	13474.625
3206.58656	13501.725
3208.8904	13509.425
3211.19287	13501.525
3213.49394	13515.025
3215.79363	13490.225
3218.09193	13504.125
3220.38884	13492.825
3222.68438	13487.425
3224.97853	13459.525
3227.2713	13446.025
3229.56269	13435.825
3231.8527	13423.825
3234.14133	13412.525
3236.42858	13387.825
3238.71446	13386.625
3240.99896	13356.025
3243.28209	13359.525
3245.56384	13350.725
3247.84423	13333.125
3250.12324	13299.325
3252.40088	13300.625
3254.67715	13272.425
3256.95205	13251.125
3259.22558	13227.825
3261.49775	13188.725
3263.76855	13184.525
3266.03799	13144.325
3268.30606	13127.825
3270.57277	13083.225
3272.83812	13051.925
3275.10211	13046.325
3277.36474	13026.725
3279.62601	13027.025
3281.88593	13004.125
3284.14448	13041.425
3286.40168	13034.225
3288.65753	12999.425
3290.91202	12975.925
3293.16516	12896.925
3295.41695	12895.625
3297.66738	12794.825
3299.91647	12758.025
3302.16421	12679.225
3304.4106	12605.925
3306.65564	12548.225
3308.89933	12474.525
3311.14169	12411.425
3313.38269	12325.925
3315.62236	12246.725
3317.86068	12136.425
3320.09766	12008.525
3322.3333	11889.125
3324.5676	11910.325
3326.80056	11713.925
3329.03219	11657.425
3331.26248	2.625
3333.49143	-0.375
3335.71905	-1.175
