Data from AgNPs_FTO_APTES_UA_2uM_CRN_5uM_R6G_10uM_NaF_0.1M_Addition_RamanShift__6__12-45-25-098.txt Node

Date: Wed Feb 02 12:45:25 GMT 2022
User: TCL
Spectrometer: QEP01345
Trigger mode: 4
Integration Time (sec): 7.000000E0
Scans to average: 10
Electric dark correction enabled: true
Nonlinearity correction enabled: false
Boxcar width: 0
XAxis mode: Raman Shifts
Number of Pixels in Spectrum: 1044
>>>>>Begin Spectral Data<<<<<
46.04893	1.325
50.45542	-0.675
54.85868	-1.075
59.25871	-1.475
63.6555	100.525
68.04907	104.625
72.43941	104.325
76.82654	115.625
81.21044	113.625
85.59113	121.425
89.96862	121.125
94.34289	124.825
98.71396	129.225
103.08183	134.325
107.4465	138.425
111.80798	145.125
116.16626	148.325
120.52136	157.225
124.87327	167.425
129.222	170.325
133.56755	191.225
137.90993	208.125
142.24913	236.825
146.58517	271.625
150.91804	317.725
155.24774	392.325
159.57429	492.825
163.89768	645.525
168.21792	858.725
172.53501	1176.525
176.84895	1667.425
181.15975	2345.925
185.46741	3288.325
189.77193	4531.125
194.07331	6057.725
198.37157	7769.625
202.6667	9618.725
206.9587	11410.725
211.24758	13176.925
215.53334	14947.325
219.81599	16877.325
224.09553	19006.225
228.37195	21325.725
232.64527	23882.525
236.91549	26511.025
241.18261	29128.425
245.44663	31573.325
249.70755	33780.925
253.96539	35685.825
258.22014	37334.425
262.4718	38641.825
266.72039	39576.325
270.96589	40026.425
275.20832	40022.725
279.44768	39724.925
283.68397	39368.025
287.91719	39088.125
292.14735	38877.225
296.37445	38889.925
300.59849	38918.625
304.81948	39093.725
309.03742	39174.025
313.25231	39009.725
317.46415	38507.925
321.67296	37714.125
325.87872	37084.425
330.08145	36691.425
334.28114	36525.825
338.47781	36665.325
342.67145	37037.125
346.86207	37538.625
351.04966	38182.325
355.23424	38864.625
359.4158	39456.425
363.59435	39958.725
367.76989	40234.625
371.94243	40532.325
376.11196	40577.025
380.27849	40655.025
384.44203	40782.325
388.60257	41110.725
392.76012	41652.625
396.91468	42350.125
401.06626	43069.625
405.21485	43501.525
409.36047	43323.325
413.50311	42989.325
417.64277	43003.125
421.77947	43408.025
425.9132	43718.825
430.04396	43954.225
434.17176	44113.425
438.2966	44178.525
442.41849	44717.825
446.53742	45774.425
450.6534	47085.225
454.76644	47927.025
458.87653	48161.725
462.98368	47858.125
467.08789	47188.125
471.18916	46360.025
475.2875	45598.125
479.38291	45158.625
483.4754	44938.225
487.56496	44447.825
491.6516	43753.725
495.73531	43162.325
499.81612	42784.025
503.89401	43028.625
507.96899	43318.725
512.04106	43334.625
516.11023	42908.225
520.1765	42259.725
524.23987	41680.425
528.30034	41248.825
532.35792	40762.125
536.41261	40276.225
540.46441	39825.025
544.51333	39810.625
548.55936	40288.625
552.60252	41182.825
556.64279	42211.425
560.6802	43176.625
564.71473	43729.025
568.7464	44547.825
572.7752	46156.825
576.80114	48110.725
580.82422	50304.925
584.84444	53146.225
588.86181	56551.425
592.87633	59251.625
596.888	58330.825
600.89682	54396.225
604.9028	52216.125
608.90594	53987.125
612.90624	56127.925
616.90371	52346.625
620.89834	44883.825
624.89015	41660.625
628.87913	41406.625
632.86528	41712.425
636.84862	41431.925
640.82913	40484.725
644.80683	39466.525
648.78172	38941.825
652.75379	39038.825
656.72306	39526.425
660.68952	39896.425
664.65319	39547.525
668.61405	38865.425
672.57211	38731.225
676.52738	38953.225
680.47986	38941.025
684.42955	38637.825
688.37646	38483.925
692.32058	38736.025
696.26192	39446.825
700.20048	40210.225
704.13626	40581.625
708.06928	40603.025
711.99952	40533.125
715.927	40539.825
719.85171	40718.725
723.77365	40420.225
727.69284	39625.325
731.60928	38942.125
735.52295	38610.225
739.43388	38621.825
743.34206	38816.725
747.24749	39077.425
751.15017	39609.925
755.05012	40437.825
758.94733	41690.725
762.8418	43721.025
766.73354	46342.225
770.62254	48542.525
774.50882	48416.425
778.39237	46076.125
782.27321	43203.725
786.15132	40930.925
790.02671	39577.625
793.89938	38883.725
797.76935	38641.025
801.6366	38546.425
805.50115	38518.925
809.36299	38359.025
813.22213	37962.425
817.07857	37706.425
820.93231	37476.525
824.78336	37241.925
828.63172	36969.425
832.47738	36824.225
836.32036	36854.425
840.16066	36999.025
843.99827	36957.325
847.8332	36910.525
851.66546	36894.325
855.49504	36934.925
859.32195	36934.425
863.1462	36725.325
866.96777	36663.825
870.78668	36662.225
874.60293	36619.225
878.41652	36672.725
882.22745	36821.725
886.03573	36937.925
889.84136	36994.725
893.64433	36857.025
897.44466	36617.225
901.24235	36520.425
905.0374	36443.525
908.8298	36368.625
912.61957	36552.925
916.40671	36998.425
920.19121	37615.825
923.97308	38141.625
927.75233	38217.925
931.52895	37723.725
935.30295	36981.725
939.07433	36161.825
942.84309	35610.825
946.60924	35325.225
950.37278	35299.925
954.13371	35316.925
957.89203	35307.225
961.64774	35335.525
965.40086	35401.225
969.15137	35346.525
972.89929	35109.525
976.64461	34986.525
980.38733	34970.325
984.12747	34984.825
987.86502	35115.125
991.59999	35377.525
995.33237	35771.325
999.06217	36473.925
1002.78939	37409.325
1006.51404	38405.225
1010.23611	39313.225
1013.95561	39773.325
1017.67255	39794.925
1021.38692	39231.025
1025.09872	38419.525
1028.80796	37985.525
1032.51465	38187.825
1036.21877	38717.225
1039.92035	38984.625
1043.61937	38954.325
1047.31584	38651.325
1051.00976	38313.825
1054.70114	38200.425
1058.38998	38320.525
1062.07627	38621.725
1065.76003	39126.725
1069.44126	39725.825
1073.11995	40552.525
1076.79611	41174.925
1080.46974	41531.125
1084.14085	41790.425
1087.80943	42341.825
1091.47549	42702.025
1095.13903	42821.325
1098.80005	42189.325
1102.45857	41072.225
1106.11456	40110.725
1109.76805	39553.625
1113.41903	39421.525
1117.06751	39498.525
1120.71348	39850.125
1124.35696	40274.725
1127.99793	40683.825
1131.63641	41088.225
1135.2724	41166.225
1138.90589	41162.825
1142.5369	41467.125
1146.16542	41956.025
1149.79145	42541.725
1153.415	43078.825
1157.03607	43928.725
1160.65467	45578.025
1164.27079	48281.325
1167.88443	51304.525
1171.49561	54081.225
1175.10432	57341.125
1178.71056	61470.625
1182.31434	65307.525
1185.91565	67146.725
1189.51451	66740.525
1193.11091	65170.625
1196.70485	63020.525
1200.29634	60859.425
1203.88538	59484.925
1207.47197	59089.425
1211.05612	58928.125
1214.63782	58145.025
1218.21708	56383.525
1221.79391	54270.125
1225.36829	52608.125
1228.94024	51591.025
1232.50976	50724.325
1236.07685	49936.925
1239.6415	49366.625
1243.20374	49303.725
1246.76355	49755.925
1250.32093	50647.425
1253.8759	51798.025
1257.42845	53438.225
1260.97859	55274.425
1264.52631	57212.825
1268.07163	59035.225
1271.61453	60962.425
1275.15503	63001.525
1278.69312	65099.725
1282.22882	67525.925
1285.76211	70604.325
1289.29301	73948.525
1292.82151	77843.225
1296.34761	82410.825
1299.87133	87871.425
1303.39266	93114.625
1306.9116	97444.225
1310.42815	100178.125
1313.94233	100931.725
1317.45412	99909.425
1320.96354	98397.525
1324.47058	97377.125
1327.97525	96981.725
1331.47754	96746.725
1334.97747	96103.225
1338.47502	94858.125
1341.97022	92722.325
1345.46305	90119.725
1348.95352	88035.425
1352.44163	87192.125
1355.92738	88606.425
1359.41078	92180.925
1362.89183	95116.825
1366.37053	94242.125
1369.84688	87921.025
1373.32088	78398.825
1376.79254	71324.625
1380.26186	69057.925
1383.72883	69731.425
1387.19347	70449.525
1390.65578	69666.925
1394.11575	69391.025
1397.57339	70340.725
1401.0287	72067.725
1404.48168	73666.225
1407.93234	73659.525
1411.38068	71817.725
1414.82669	69044.425
1418.27039	65772.025
1421.71177	62456.825
1425.15083	60037.025
1428.58758	59021.825
1432.02203	59837.325
1435.45416	62068.125
1438.88399	64524.825
1442.31151	66245.725
1445.73673	67112.525
1449.15965	67468.125
1452.58027	67224.825
1455.9986	66679.725
1459.41463	66742.425
1462.82837	67727.725
1466.23982	69129.625
1469.64898	70390.725
1473.05586	71136.825
1476.46045	71427.625
1479.86276	70815.725
1483.26279	69851.225
1486.66054	69326.925
1490.05602	69519.925
1493.44922	70142.925
1496.84016	70555.625
1500.22882	71053.625
1503.61521	71707.525
1506.99934	72590.525
1510.38121	73328.025
1513.76081	73421.025
1517.13816	72747.225
1520.51324	71964.025
1523.88607	71701.025
1527.25665	72343.525
1530.62498	72985.725
1533.99105	72679.125
1537.35488	71556.225
1540.71647	69550.625
1544.07581	67076.925
1547.4329	64709.925
1550.78776	62753.725
1554.14038	61325.025
1557.49077	60459.225
1560.83892	59925.425
1564.18484	59513.925
1567.52853	59348.225
1570.86999	59788.425
1574.20922	61064.625
1577.54624	62635.525
1580.88103	63872.125
1584.2136	65642.625
1587.54395	69043.925
1590.87208	73790.125
1594.19801	79160.325
1597.52172	83478.525
1600.84321	83687.325
1604.16251	78540.625
1607.47959	70627.225
1610.79447	62923.325
1614.10715	56496.825
1617.41763	51735.425
1620.7259	48567.325
1624.03199	47250.625
1627.33587	47614.725
1630.63757	49544.725
1633.93707	53638.925
1637.23439	60459.825
1640.52951	70423.025
1643.82246	82086.925
1647.11321	90685.325
1650.40179	90972.525
1653.68819	82126.225
1656.97241	68937.125
1660.25446	57091.925
1663.53433	48652.725
1666.81203	43342.125
1670.08756	40136.825
1673.36092	38103.925
1676.63211	36780.725
1679.90115	35857.425
1683.16801	35163.225
1686.43272	34731.925
1689.69527	34310.025
1692.95567	33995.525
1696.2139	33819.725
1699.46999	33630.525
1702.72392	33471.625
1705.97571	33365.025
1709.22535	33259.025
1712.47284	33162.225
1715.71819	33145.625
1718.96139	33011.025
1722.20246	32862.925
1725.44139	32719.925
1728.67818	32492.625
1731.91284	32268.325
1735.14537	32072.025
1738.37576	31925.725
1741.60403	31820.225
1744.83017	31689.225
1748.05418	31606.325
1751.27607	31538.425
1754.49584	31520.125
1757.71349	31470.325
1760.92903	31418.425
1764.14244	31377.525
1767.35375	31367.525
1770.56294	31252.025
1773.77002	31169.625
1776.97499	31090.625
1780.17785	30997.425
1783.37861	30982.625
1786.57727	30948.025
1789.77382	30880.025
1792.96828	30797.525
1796.16064	30719.725
1799.3509	30644.025
1802.53907	30562.725
1805.72514	30483.825
1808.90913	30459.225
1812.09102	30430.125
1815.27083	30381.725
1818.44856	30349.325
1821.6242	30270.525
1824.79776	30304.525
1827.96924	30299.725
1831.13864	30340.125
1834.30597	30305.225
1837.47122	30290.425
1840.6344	30258.525
1843.7955	30306.425
1846.95454	30256.325
1850.11151	30244.025
1853.26642	30233.925
1856.41926	30220.625
1859.57004	30201.825
1862.71876	30142.625
1865.86542	30082.625
1869.01003	30095.225
1872.15258	30065.625
1875.29308	30022.425
1878.43152	29933.625
1881.56792	29904.425
1884.70227	29867.225
1887.83457	29884.125
1890.96482	29860.625
1894.09304	29767.925
1897.21921	29720.425
1900.34335	29758.825
1903.46544	29674.025
1906.58551	29604.625
1909.70353	29566.725
1912.81953	29487.025
1915.93349	29416.925
1919.04543	29339.125
1922.15534	29225.525
1925.26322	29164.725
1928.36908	29110.325
1931.47292	29062.025
1934.57473	28968.025
1937.67453	28862.325
1940.77232	28743.825
1943.86808	28692.225
1946.96184	28656.525
1950.05358	28558.225
1953.14331	28490.625
1956.23103	28427.425
1959.31675	28313.525
1962.40046	28234.025
1965.48217	28172.025
1968.56188	28079.125
1971.63959	27979.425
1974.7153	27932.825
1977.78901	27840.425
1980.86073	27764.225
1983.93046	27630.925
1986.99819	27530.125
1990.06394	27466.425
1993.1277	27371.925
1996.18947	27332.425
1999.24925	27253.825
2002.30706	27145.825
2005.36288	27093.625
2008.41672	26986.125
2011.46859	26960.325
2014.51848	26842.825
2017.56639	26822.025
2020.61233	26724.125
2023.6563	26738.025
2026.6983	26685.525
2029.73833	26601.725
2032.7764	26570.825
2035.8125	26507.025
2038.84664	26450.725
2041.87881	26433.225
2044.90903	26382.125
2047.93729	26347.925
2050.96359	26321.725
2053.98794	26232.825
2057.01034	26206.525
2060.03078	26193.725
2063.04927	26209.825
2066.06582	26190.725
2069.08042	26162.325
2072.09307	26111.425
2075.10378	26118.625
2078.11255	26180.325
2081.11938	26128.125
2084.12426	26091.425
2087.12722	26070.725
2090.12824	26026.225
2093.12732	26033.225
2096.12447	26091.625
2099.11969	26082.625
2102.11299	26087.925
2105.10435	26070.025
2108.09379	26079.625
2111.08131	26074.525
2114.0669	26052.425
2117.05057	26062.425
2120.03233	26116.025
2123.01216	26102.725
2125.99008	26127.625
2128.96609	26139.625
2131.94018	26141.825
2134.91236	26154.425
2137.88263	26133.825
2140.851	26121.925
2143.81746	26160.225
2146.78201	26121.825
2149.74466	26118.225
2152.7054	26153.225
2155.66425	26144.425
2158.6212	26146.925
2161.57625	26140.725
2164.52941	26150.525
2167.48067	26069.625
2170.43004	26063.525
2173.37752	26067.025
2176.32311	26079.525
2179.26681	26098.525
2182.20863	26124.525
2185.14856	26148.325
2188.08661	26147.125
2191.02278	26153.125
2193.95707	26122.225
2196.88948	26081.825
2199.82001	26037.625
2202.74867	26035.125
2205.67545	26014.925
2208.60037	25963.925
2211.52341	25918.825
2214.44458	25933.725
2217.36388	25867.625
2220.28132	25858.325
2223.1969	25784.425
2226.11061	25778.525
2229.02246	25731.725
2231.93245	25744.225
2234.84058	25731.225
2237.74686	25699.825
2240.65128	25633.125
2243.55385	25571.825
2246.45456	25520.025
2249.35343	25499.825
2252.25044	25368.625
2255.14561	25327.325
2258.03893	25292.125
2260.93041	25222.625
2263.82004	25079.525
2266.70783	25073.625
2269.59378	24967.425
2272.4779	24933.725
2275.36017	24912.225
2278.24061	24859.925
2281.11922	24804.025
2283.996	24821.825
2286.87094	24752.325
2289.74405	24711.625
2292.61534	24695.325
2295.4848	24682.925
2298.35243	24671.425
2301.21824	24653.525
2304.08223	24661.125
2306.94439	24650.725
2309.80474	24674.725
2312.66327	24682.225
2315.51999	24593.725
2318.37489	24628.825
2321.22797	24600.425
2324.07925	24550.025
2326.92871	24556.425
2329.77637	24529.625
2332.62222	24498.125
2335.46626	24470.325
2338.3085	24464.925
2341.14893	24462.625
2343.98756	24444.225
2346.8244	24429.125
2349.65943	24466.925
2352.49267	24434.625
2355.32411	24421.025
2358.15376	24439.725
2360.98161	24430.825
2363.80768	24442.525
2366.63195	24386.425
2369.45444	24342.025
2372.27514	24263.725
2375.09405	24255.425
2377.91118	24225.125
2380.72652	24176.825
2383.54009	24085.925
2386.35187	24122.325
2389.16188	24010.525
2391.97011	24006.025
2394.77657	23983.025
2397.58125	23969.225
2400.38416	23903.825
2403.18529	23854.425
2405.98466	23858.025
2408.78226	23811.625
2411.57809	23795.925
2414.37216	23814.925
2417.16446	23817.325
2419.955	23733.625
2422.74378	23797.325
2425.5308	23705.825
2428.31606	23720.325
2431.09956	23714.225
2433.88131	23667.025
2436.6613	23700.125
2439.43954	23682.425
2442.21603	23676.825
2444.99077	23618.925
2447.76377	23620.425
2450.53501	23608.525
2453.30451	23636.225
2456.07226	23606.825
2458.83827	23591.025
2461.60254	23587.225
2464.36507	23572.825
2467.12586	23581.125
2469.88492	23593.925
2472.64224	23598.125
2475.39782	23591.625
2478.15167	23590.225
2480.90379	23570.225
2483.65417	23590.325
2486.40283	23587.525
2489.14976	23566.125
2491.89497	23575.025
2494.63845	23618.525
2497.3802	23580.125
2500.12024	23544.725
2502.85855	23576.125
2505.59514	23563.325
2508.33002	23531.425
2511.06318	23537.625
2513.79462	23544.825
2516.52435	23544.425
2519.25237	23524.025
2521.97867	23476.325
2524.70327	23462.925
2527.42616	23451.325
2530.14734	23478.525
2532.86681	23429.025
2535.58458	23393.125
2538.30065	23414.525
2541.01501	23397.625
2543.72768	23361.025
2546.43864	23372.125
2549.14791	23340.225
2551.85548	23319.325
2554.56136	23296.625
2557.26554	23320.125
2559.96803	23295.625
2562.66883	23284.625
2565.36794	23293.825
2568.06536	23245.525
2570.7611	23203.125
2573.45514	23197.225
2576.14751	23203.225
2578.83819	23189.525
2581.52719	23130.225
2584.21451	23128.525
2586.90015	23105.925
2589.58411	23094.825
2592.2664	23077.425
2594.94701	23049.525
2597.62594	23029.525
2600.30321	23006.325
2602.9788	23048.425
2605.65273	23006.225
2608.32498	22994.925
2610.99557	23061.925
2613.66449	23012.125
2616.33175	23008.125
2618.99734	23023.925
2621.66128	23019.225
2624.32355	23008.825
2626.98416	22966.925
2629.64311	22952.725
2632.30041	22944.825
2634.95605	22901.625
2637.61004	22888.625
2640.26238	22872.825
2642.91306	22875.225
2645.56209	22905.225
2648.20948	22883.425
2650.85521	22909.425
2653.4993	22901.925
2656.14175	22888.525
2658.78255	22926.425
2661.42171	22929.425
2664.05923	22966.725
2666.6951	22970.925
2669.32934	22963.125
2671.96194	22989.525
2674.59291	22995.425
2677.22224	22957.425
2679.84993	22963.025
2682.476	22947.725
2685.10043	22916.625
2687.72324	22909.425
2690.34441	22952.425
2692.96396	22993.525
2695.58188	22962.225
2698.19818	22898.625
2700.81285	22960.825
2703.4259	22989.525
2706.03733	23044.225
2708.64714	22979.225
2711.25533	22993.325
2713.86191	23040.125
2716.46687	23054.525
2719.07021	23055.925
2721.67194	23048.425
2724.27206	23081.925
2726.87057	23064.525
2729.46747	23086.225
2732.06276	23128.925
2734.65644	23145.525
2737.24852	23144.525
2739.83899	23159.025
2742.42786	23165.625
2745.01513	23097.025
2747.60079	23085.825
2750.18486	23073.025
2752.76733	23088.725
2755.3482	23046.525
2757.92747	23036.625
2760.50515	23029.925
2763.08123	23041.325
2765.65573	23006.625
2768.22863	23001.725
2770.79994	22964.725
2773.36967	23009.725
2775.9378	22972.125
2778.50435	23016.625
2781.06932	22992.525
2783.6327	22932.825
2786.1945	22931.925
2788.75471	22892.725
2791.31335	22834.325
2793.87041	22862.725
2796.42589	22820.425
2798.97979	22866.125
2801.53212	22822.525
2804.08288	22817.825
2806.63206	22738.025
2809.17967	22694.125
2811.72571	22642.225
2814.27018	22572.025
2816.81308	22575.525
2819.35442	22486.625
2821.89419	22435.425
2824.43239	22445.525
2826.96904	22442.025
2829.50412	22398.225
2832.03763	22360.325
2834.56959	22410.025
2837.1	22357.925
2839.62884	22307.925
2842.15613	22315.125
2844.68186	22351.025
2847.20604	22385.025
2849.72867	22403.925
2852.24974	22370.525
2854.76927	22323.425
2857.28724	22346.425
2859.80367	22288.125
2862.31855	22257.125
2864.83189	22232.125
2867.34368	22219.525
2869.85393	22161.225
2872.36264	22181.625
2874.8698	22170.425
2877.37543	22176.325
2879.87952	22187.225
2882.38207	22152.525
2884.88308	22110.925
2887.38256	22140.325
2889.88051	22154.725
2892.37692	22200.725
2894.8718	22221.825
2897.36515	22262.025
2899.85698	22279.925
2902.34727	22254.325
2904.83604	22238.325
2907.32328	22266.325
2909.809	22235.925
2912.29319	22248.225
2914.77587	22243.125
2917.25702	22250.825
2919.73665	22252.425
2922.21476	22261.725
2924.69136	22249.425
2927.16644	22272.125
2929.64	22251.125
2932.11205	22210.125
2934.58258	22126.525
2937.05161	22165.625
2939.51912	22154.425
2941.98513	22131.225
2944.44962	22080.025
2946.91261	21993.925
2949.37409	22054.025
2951.83407	22026.225
2954.29254	22011.625
2956.74951	21977.325
2959.20498	21938.625
2961.65895	21895.025
2964.11142	21916.025
2966.56239	21819.025
2969.01186	21817.825
2971.45984	21799.325
2973.90632	21740.525
2976.35131	21669.425
2978.7948	21656.025
2981.23681	21574.325
2983.67732	21530.925
2986.11635	21442.825
2988.55388	21373.525
2990.98993	21328.025
2993.4245	21290.725
2995.85758	21237.525
2998.28917	21182.125
3000.71928	21171.225
3003.14791	21110.525
3005.57506	21061.825
3008.00073	21041.125
3010.42493	20995.825
3012.84764	20947.225
3015.26888	20959.025
3017.68865	20871.425
3020.10694	20878.525
3022.52376	20783.125
3024.9391	20787.025
3027.35298	20757.425
3029.76539	20757.325
3032.17632	20736.125
3034.5858	20659.925
3036.9938	20622.025
3039.40034	20611.525
3041.80542	20630.325
3044.20903	20600.625
3046.61118	20549.025
3049.01187	20519.425
3051.4111	20479.025
3053.80888	20437.825
3056.20519	20417.725
3058.60005	20321.625
3060.99345	20291.725
3063.3854	20252.925
3065.7759	20155.425
3068.16494	20088.325
3070.55254	20047.725
3072.93868	20030.525
3075.32338	19947.125
3077.70662	19919.925
3080.08842	19829.125
3082.46878	19808.925
3084.84769	19791.525
3087.22515	19759.725
3089.60118	19742.525
3091.97576	19739.125
3094.3489	19735.325
3096.72061	19709.525
3099.09087	19690.525
3101.4597	19594.225
3103.82709	19592.125
3106.19305	19541.425
3108.55757	19531.425
3110.92066	19448.725
3113.28232	19435.625
3115.64255	19405.125
3118.00134	19351.125
3120.35871	19313.725
3122.71466	19277.125
3125.06917	19202.325
3127.42226	19170.525
3129.77393	19219.625
3132.12417	19164.225
3134.47299	19132.225
3136.82039	19084.425
3139.16636	19100.725
3141.51092	19071.025
3143.85406	19125.925
3146.19579	19114.225
3148.53609	19077.425
3150.87499	19060.925
3153.21246	19069.925
3155.54853	19098.625
3157.88318	18996.625
3160.21642	19035.925
3162.54826	18958.125
3164.87868	18964.025
3167.2077	18928.725
3169.5353	18914.825
3171.86151	18942.025
3174.18631	18909.225
3176.5097	18875.825
3178.83169	18858.125
3181.15228	18854.725
3183.47147	18830.025
3185.78926	18770.525
3188.10565	18765.225
3190.42065	18749.525
3192.73424	18748.825
3195.04645	18750.525
3197.35725	18760.925
3199.66667	18706.125
3201.97469	18726.925
3204.28132	18661.725
3206.58656	18642.725
3208.8904	18626.625
3211.19287	18663.825
3213.49394	18699.225
3215.79363	18651.325
3218.09193	18610.825
3220.38884	18598.325
3222.68438	18608.325
3224.97853	18574.425
3227.2713	18561.125
3229.56269	18551.925
3231.8527	18512.125
3234.14133	18497.925
3236.42858	18502.725
3238.71446	18464.225
3240.99896	18426.025
3243.28209	18389.925
3245.56384	18390.425
3247.84423	18326.725
3250.12324	18292.725
3252.40088	18250.925
3254.67715	18224.725
3256.95205	18143.325
3259.22558	18150.325
3261.49775	18123.625
3263.76855	18119.725
3266.03799	18047.425
3268.30606	18021.225
3270.57277	17966.425
3272.83812	17984.125
3275.10211	17966.825
3277.36474	17927.425
3279.62601	17919.625
3281.88593	17952.025
3284.14448	17985.425
3286.40168	17969.425
3288.65753	17940.425
3290.91202	17909.325
3293.16516	17821.925
3295.41695	17798.025
3297.66738	17725.125
3299.91647	17592.925
3302.16421	17469.125
3304.4106	17405.925
3306.65564	17288.525
3308.89933	17167.725
3311.14169	17053.525
3313.38269	16891.525
3315.62236	16800.925
3317.86068	16657.225
3320.09766	16489.225
3322.3333	16342.225
3324.5676	16336.925
3326.80056	16075.025
3329.03219	16003.525
3331.26248	3.525
3333.49143	0.125
3335.71905	-2.575
