Data from AgNPs_FTO_APTES_UA_2uM_CRN_2uM_R6G_10uM_NaF_0.1M_Addition_RamanShift__30__12-33-45-084.txt Node

Date: Wed Feb 02 12:33:45 GMT 2022
User: TCL
Spectrometer: QEP01345
Trigger mode: 4
Integration Time (sec): 7.000000E0
Scans to average: 10
Electric dark correction enabled: true
Nonlinearity correction enabled: false
Boxcar width: 0
XAxis mode: Raman Shifts
Number of Pixels in Spectrum: 1044
>>>>>Begin Spectral Data<<<<<
46.04893	1.4375
50.45542	0.6375
54.85868	0.3375
59.25871	-0.9625
63.6555	47.0375
68.04907	47.4375
72.43941	47.6375
76.82654	51.9375
81.21044	53.9375
85.59113	59.2375
89.96862	59.7375
94.34289	60.9375
98.71396	62.4375
103.08183	69.7375
107.4465	70.2375
111.80798	69.9375
116.16626	69.5375
120.52136	75.1375
124.87327	75.3375
129.222	81.2375
133.56755	87.0375
137.90993	89.0375
142.24913	101.4375
146.58517	112.4375
150.91804	131.8375
155.24774	158.9375
159.57429	196.2375
163.89768	252.2375
168.21792	336.1375
172.53501	451.3375
176.84895	628.7375
181.15975	878.6375
185.46741	1228.1375
189.77193	1679.6375
194.07331	2262.2375
198.37157	2901.6375
202.6667	3570.8375
206.9587	4252.5375
211.24758	4924.3375
215.53334	5660.7375
219.81599	6483.8375
224.09553	7465.9375
228.37195	8531.6375
232.64527	9675.5375
236.91549	10755.1375
241.18261	11695.0375
245.44663	12398.1375
249.70755	12858.7375
253.96539	13285.0375
258.22014	13662.2375
262.4718	14056.2375
266.72039	14394.7375
270.96589	14595.7375
275.20832	14616.5375
279.44768	14496.9375
283.68397	14283.3375
287.91719	14260.4375
292.14735	14383.3375
296.37445	14813.5375
300.59849	15537.0375
304.81948	16461.2375
309.03742	17195.1375
313.25231	17235.1375
317.46415	16255.5375
321.67296	14579.8375
325.87872	13196.6375
330.08145	12505.8375
334.28114	12382.8375
338.47781	12606.7375
342.67145	13036.6375
346.86207	13810.3375
351.04966	14872.8375
355.23424	16198.9375
359.4158	17121.9375
363.59435	17469.5375
367.76989	17440.7375
371.94243	17243.6375
376.11196	16923.8375
380.27849	16677.6375
384.44203	16329.3375
388.60257	15950.4375
392.76012	15764.0375
396.91468	15958.5375
401.06626	16509.4375
405.21485	16975.2375
409.36047	16559.4375
413.50311	15392.0375
417.64277	14316.8375
421.77947	13639.6375
425.9132	13394.6375
430.04396	13293.9375
434.17176	13309.8375
438.2966	13450.8375
442.41849	13842.2375
446.53742	14310.7375
450.6534	14774.3375
454.76644	15027.2375
458.87653	15044.7375
462.98368	14842.8375
467.08789	14557.2375
471.18916	14117.7375
475.2875	13618.8375
479.38291	13267.3375
483.4754	13006.4375
487.56496	12768.5375
491.6516	12659.8375
495.73531	12682.2375
499.81612	12765.4375
503.89401	12946.5375
507.96899	13184.4375
512.04106	13409.0375
516.11023	13649.6375
520.1765	13847.2375
524.23987	13757.3375
528.30034	13401.5375
532.35792	12986.9375
536.41261	12532.1375
540.46441	12073.4375
544.51333	11847.0375
548.55936	11973.1375
552.60252	12376.6375
556.64279	12857.3375
560.6802	13127.5375
564.71473	13447.0375
568.7464	14316.9375
572.7752	14905.8375
576.80114	14420.2375
580.82422	13754.5375
584.84444	13477.6375
588.86181	13274.6375
592.87633	13190.1375
596.888	13333.2375
600.89682	13957.5375
604.9028	16207.3375
608.90594	22258.4375
612.90624	30442.6375
616.90371	29482.1375
620.89834	18783.4375
624.89015	13536.5375
628.87913	12537.6375
632.86528	12632.9375
636.84862	12926.1375
640.82913	12732.5375
644.80683	11931.8375
648.78172	11404.9375
652.75379	11498.3375
656.72306	12271.0375
660.68952	13238.8375
664.65319	13034.3375
668.61405	12085.2375
672.57211	11544.3375
676.52738	11441.6375
680.47986	11408.8375
684.42955	11290.1375
688.37646	11186.4375
692.32058	11246.6375
696.26192	11390.6375
700.20048	11664.0375
704.13626	11895.6375
708.06928	11917.3375
711.99952	11781.2375
715.927	11643.1375
719.85171	11618.8375
723.77365	11577.1375
727.69284	11367.0375
731.60928	11223.3375
735.52295	11157.5375
739.43388	11209.6375
743.34206	11298.9375
747.24749	11398.9375
751.15017	11568.7375
755.05012	11937.7375
758.94733	12789.2375
762.8418	14774.1375
766.73354	18280.6375
770.62254	21939.2375
774.50882	23685.0375
778.39237	22483.0375
782.27321	18847.1375
786.15132	15131.5375
790.02671	12923.8375
793.89938	11949.1375
797.76935	11517.9375
801.6366	11354.4375
805.50115	11191.4375
809.36299	11107.7375
813.22213	11032.3375
817.07857	10957.8375
820.93231	10952.6375
824.78336	11030.9375
828.63172	11112.1375
832.47738	11168.7375
836.32036	11128.4375
840.16066	11005.6375
843.99827	10891.8375
847.8332	10843.6375
851.66546	10831.9375
855.49504	10813.4375
859.32195	10765.4375
863.1462	10652.3375
866.96777	10569.0375
870.78668	10609.0375
874.60293	10591.2375
878.41652	10631.4375
882.22745	10730.4375
886.03573	10828.1375
889.84136	10767.8375
893.64433	10684.6375
897.44466	10651.0375
901.24235	10669.2375
905.0374	10640.2375
908.8298	10599.8375
912.61957	10570.3375
916.40671	10692.0375
920.19121	10834.9375
923.97308	10995.1375
927.75233	11192.3375
931.52895	11338.9375
935.30295	11140.9375
939.07433	10654.6375
942.84309	10212.8375
946.60924	9969.7375
950.37278	9853.1375
954.13371	9767.2375
957.89203	9726.3375
961.64774	9661.6375
965.40086	9642.2375
969.15137	9592.7375
972.89929	9550.7375
976.64461	9530.5375
980.38733	9545.9375
984.12747	9574.0375
987.86502	9583.2375
991.59999	9662.1375
995.33237	9820.4375
999.06217	10075.5375
1002.78939	10415.4375
1006.51404	10786.0375
1010.23611	11137.9375
1013.95561	11339.8375
1017.67255	11272.2375
1021.38692	11016.9375
1025.09872	10750.6375
1028.80796	10584.3375
1032.51465	10644.5375
1036.21877	10848.1375
1039.92035	11073.8375
1043.61937	11173.4375
1047.31584	11119.4375
1051.00976	11014.7375
1054.70114	10946.8375
1058.38998	10900.5375
1062.07627	10941.3375
1065.76003	11051.5375
1069.44126	11224.6375
1073.11995	11425.0375
1076.79611	11620.7375
1080.46974	11859.2375
1084.14085	12309.3375
1087.80943	12825.2375
1091.47549	13048.4375
1095.13903	12740.2375
1098.80005	12061.9375
1102.45857	11497.8375
1106.11456	11184.7375
1109.76805	11203.3375
1113.41903	11463.3375
1117.06751	11973.9375
1120.71348	12660.7375
1124.35696	13492.5375
1127.99793	14292.8375
1131.63641	14281.0375
1135.2724	13372.4375
1138.90589	12468.7375
1142.5369	11949.2375
1146.16542	11618.2375
1149.79145	11432.6375
1153.415	11430.5375
1157.03607	11606.9375
1160.65467	11967.1375
1164.27079	12553.7375
1167.88443	13481.0375
1171.49561	15056.1375
1175.10432	17652.6375
1178.71056	21101.5375
1182.31434	23409.5375
1185.91565	23777.1375
1189.51451	22909.3375
1193.11091	21154.7375
1196.70485	19000.5375
1200.29634	17409.8375
1203.88538	16197.5375
1207.47197	14873.3375
1211.05612	13762.3375
1214.63782	13173.2375
1218.21708	12975.4375
1221.79391	13028.3375
1225.36829	13184.0375
1228.94024	13375.5375
1232.50976	13560.0375
1236.07685	13653.6375
1239.6415	13622.6375
1243.20374	13533.6375
1246.76355	13482.6375
1250.32093	13673.8375
1253.8759	13997.8375
1257.42845	14548.5375
1260.97859	15163.4375
1264.52631	15802.0375
1268.07163	16499.0375
1271.61453	17076.6375
1275.15503	17613.1375
1278.69312	17754.0375
1282.22882	17873.7375
1285.76211	18358.5375
1289.29301	19139.3375
1292.82151	19885.5375
1296.34761	20579.0375
1299.87133	21653.8375
1303.39266	23628.8375
1306.9116	26862.5375
1310.42815	30852.2375
1313.94233	33582.9375
1317.45412	33385.7375
1320.96354	31032.1375
1324.47058	28040.2375
1327.97525	25424.7375
1331.47754	23712.9375
1334.97747	22971.1375
1338.47502	22721.9375
1341.97022	23011.9375
1345.46305	23776.2375
1348.95352	25256.6375
1352.44163	27539.4375
1355.92738	30791.0375
1359.41078	36050.6375
1362.89183	41537.5375
1366.37053	41026.8375
1369.84688	34310.2375
1373.32088	27272.7375
1376.79254	22752.9375
1380.26186	20498.9375
1383.72883	19358.1375
1387.19347	18432.4375
1390.65578	17432.7375
1394.11575	16636.5375
1397.57339	16267.4375
1401.0287	16303.0375
1404.48168	16502.2375
1407.93234	16705.0375
1411.38068	16849.8375
1414.82669	16729.8375
1418.27039	16431.8375
1421.71177	16037.8375
1425.15083	15635.6375
1428.58758	15352.3375
1432.02203	15305.4375
1435.45416	15464.8375
1438.88399	15583.9375
1442.31151	15596.6375
1445.73673	15658.1375
1449.15965	15772.9375
1452.58027	15712.6375
1455.9986	15526.6375
1459.41463	15481.7375
1462.82837	15641.9375
1466.23982	16011.6375
1469.64898	16441.7375
1473.05586	16790.6375
1476.46045	17056.0375
1479.86276	17367.8375
1483.26279	17858.6375
1486.66054	18415.2375
1490.05602	19159.5375
1493.44922	20299.2375
1496.84016	22044.1375
1500.22882	24811.5375
1503.61521	28433.6375
1506.99934	32536.1375
1510.38121	36665.4375
1513.76081	39125.5375
1517.13816	37710.1375
1520.51324	32834.2375
1523.88607	27432.0375
1527.25665	23527.0375
1530.62498	21270.6375
1533.99105	19897.1375
1537.35488	18987.1375
1540.71647	18405.5375
1544.07581	17978.7375
1547.4329	17748.4375
1550.78776	17549.5375
1554.14038	17502.9375
1557.49077	17697.6375
1560.83892	18161.4375
1564.18484	18881.9375
1567.52853	19673.6375
1570.86999	20340.5375
1574.20922	20747.3375
1577.54624	20667.6375
1580.88103	19427.2375
1584.2136	17742.0375
1587.54395	16846.7375
1590.87208	17076.8375
1594.19801	18207.6375
1597.52172	19742.5375
1600.84321	20377.1375
1604.16251	19438.3375
1607.47959	17823.7375
1610.79447	16197.2375
1614.10715	14651.8375
1617.41763	13446.7375
1620.7259	12717.4375
1624.03199	12360.2375
1627.33587	12415.6375
1630.63757	12797.9375
1633.93707	13605.0375
1637.23439	14895.4375
1640.52951	16725.7375
1643.82246	19254.8375
1647.11321	22267.0375
1650.40179	24780.3375
1653.68819	24526.6375
1656.97241	21124.4375
1660.25446	16818.2375
1663.53433	13665.5375
1666.81203	11761.7375
1670.08756	10702.9375
1673.36092	10069.0375
1676.63211	9702.3375
1679.90115	9426.3375
1683.16801	9211.8375
1686.43272	9064.7375
1689.69527	8992.0375
1692.95567	8929.5375
1696.2139	8867.1375
1699.46999	8828.3375
1702.72392	8823.8375
1705.97571	8774.4375
1709.22535	8736.7375
1712.47284	8748.7375
1715.71819	8787.5375
1718.96139	8779.2375
1722.20246	8761.5375
1725.44139	8729.9375
1728.67818	8664.7375
1731.91284	8548.1375
1735.14537	8440.3375
1738.37576	8392.7375
1741.60403	8317.8375
1744.83017	8274.1375
1748.05418	8238.6375
1751.27607	8208.8375
1754.49584	8204.3375
1757.71349	8163.8375
1760.92903	8167.2375
1764.14244	8151.4375
1767.35375	8115.8375
1770.56294	8072.2375
1773.77002	8056.3375
1776.97499	8014.8375
1780.17785	7953.3375
1783.37861	7929.9375
1786.57727	7944.8375
1789.77382	7903.1375
1792.96828	7876.2375
1796.16064	7871.4375
1799.3509	7858.2375
1802.53907	7818.1375
1805.72514	7778.5375
1808.90913	7763.6375
1812.09102	7741.6375
1815.27083	7720.3375
1818.44856	7691.0375
1821.6242	7693.1375
1824.79776	7678.8375
1827.96924	7679.1375
1831.13864	7658.4375
1834.30597	7652.4375
1837.47122	7638.0375
1840.6344	7621.4375
1843.7955	7651.3375
1846.95454	7621.4375
1850.11151	7625.9375
1853.26642	7606.9375
1856.41926	7622.6375
1859.57004	7631.2375
1862.71876	7639.2375
1865.86542	7641.8375
1869.01003	7642.7375
1872.15258	7672.3375
1875.29308	7664.2375
1878.43152	7681.1375
1881.56792	7695.5375
1884.70227	7720.2375
1887.83457	7741.5375
1890.96482	7741.9375
1894.09304	7738.1375
1897.21921	7749.4375
1900.34335	7776.0375
1903.46544	7761.1375
1906.58551	7759.0375
1909.70353	7778.7375
1912.81953	7759.6375
1915.93349	7764.4375
1919.04543	7760.9375
1922.15534	7735.9375
1925.26322	7717.7375
1928.36908	7675.6375
1931.47292	7624.0375
1934.57473	7567.7375
1937.67453	7490.9375
1940.77232	7439.5375
1943.86808	7390.0375
1946.96184	7336.1375
1950.05358	7290.5375
1953.14331	7236.0375
1956.23103	7188.2375
1959.31675	7170.5375
1962.40046	7139.8375
1965.48217	7128.1375
1968.56188	7117.8375
1971.63959	7090.7375
1974.7153	7074.0375
1977.78901	7026.3375
1980.86073	6986.8375
1983.93046	6966.3375
1986.99819	6932.9375
1990.06394	6913.0375
1993.1277	6885.9375
1996.18947	6858.4375
1999.24925	6837.3375
2002.30706	6809.3375
2005.36288	6791.5375
2008.41672	6736.7375
2011.46859	6740.4375
2014.51848	6723.4375
2017.56639	6697.9375
2020.61233	6664.2375
2023.6563	6656.2375
2026.6983	6648.4375
2029.73833	6616.1375
2032.7764	6593.6375
2035.8125	6597.2375
2038.84664	6570.0375
2041.87881	6570.5375
2044.90903	6546.5375
2047.93729	6530.9375
2050.96359	6526.4375
2053.98794	6518.2375
2057.01034	6494.3375
2060.03078	6490.0375
2063.04927	6486.6375
2066.06582	6472.6375
2069.08042	6466.4375
2072.09307	6435.6375
2075.10378	6440.3375
2078.11255	6448.2375
2081.11938	6425.2375
2084.12426	6434.0375
2087.12722	6409.8375
2090.12824	6417.7375
2093.12732	6418.4375
2096.12447	6415.8375
2099.11969	6413.0375
2102.11299	6418.2375
2105.10435	6422.6375
2108.09379	6415.0375
2111.08131	6421.3375
2114.0669	6406.3375
2117.05057	6401.3375
2120.03233	6408.7375
2123.01216	6423.3375
2125.99008	6433.6375
2128.96609	6432.7375
2131.94018	6445.4375
2134.91236	6446.7375
2137.88263	6439.8375
2140.851	6430.7375
2143.81746	6431.4375
2146.78201	6415.5375
2149.74466	6410.7375
2152.7054	6402.2375
2155.66425	6395.9375
2158.6212	6395.0375
2161.57625	6374.3375
2164.52941	6370.4375
2167.48067	6380.5375
2170.43004	6367.6375
2173.37752	6362.8375
2176.32311	6369.2375
2179.26681	6375.7375
2182.20863	6357.7375
2185.14856	6377.4375
2188.08661	6373.8375
2191.02278	6380.8375
2193.95707	6357.6375
2196.88948	6348.8375
2199.82001	6347.3375
2202.74867	6328.4375
2205.67545	6314.5375
2208.60037	6314.2375
2211.52341	6294.1375
2214.44458	6298.6375
2217.36388	6277.6375
2220.28132	6273.8375
2223.1969	6241.5375
2226.11061	6242.1375
2229.02246	6203.3375
2231.93245	6200.8375
2234.84058	6190.8375
2237.74686	6157.4375
2240.65128	6172.8375
2243.55385	6132.5375
2246.45456	6152.8375
2249.35343	6159.8375
2252.25044	6138.2375
2255.14561	6127.2375
2258.03893	6149.9375
2260.93041	6130.0375
2263.82004	6117.7375
2266.70783	6117.8375
2269.59378	6079.1375
2272.4779	6074.2375
2275.36017	6054.8375
2278.24061	6044.6375
2281.11922	6021.2375
2283.996	6015.1375
2286.87094	5995.2375
2289.74405	5971.6375
2292.61534	5954.5375
2295.4848	5965.3375
2298.35243	5941.3375
2301.21824	5922.3375
2304.08223	5928.5375
2306.94439	5912.5375
2309.80474	5923.1375
2312.66327	5927.8375
2315.51999	5915.3375
2318.37489	5906.7375
2321.22797	5893.2375
2324.07925	5905.3375
2326.92871	5887.6375
2329.77637	5902.8375
2332.62222	5875.0375
2335.46626	5863.5375
2338.3085	5850.3375
2341.14893	5849.5375
2343.98756	5859.5375
2346.8244	5877.9375
2349.65943	5884.7375
2352.49267	5888.2375
2355.32411	5909.3375
2358.15376	5904.2375
2360.98161	5919.6375
2363.80768	5960.1375
2366.63195	5952.6375
2369.45444	5948.8375
2372.27514	5936.0375
2375.09405	5920.4375
2377.91118	5886.0375
2380.72652	5875.3375
2383.54009	5843.5375
2386.35187	5829.1375
2389.16188	5775.2375
2391.97011	5775.9375
2394.77657	5736.5375
2397.58125	5713.7375
2400.38416	5695.8375
2403.18529	5680.1375
2405.98466	5655.4375
2408.78226	5659.7375
2411.57809	5654.6375
2414.37216	5629.9375
2417.16446	5649.2375
2419.955	5636.1375
2422.74378	5628.6375
2425.5308	5630.9375
2428.31606	5615.9375
2431.09956	5621.2375
2433.88131	5605.4375
2436.6613	5625.6375
2439.43954	5611.1375
2442.21603	5624.5375
2444.99077	5621.3375
2447.76377	5623.6375
2450.53501	5634.4375
2453.30451	5641.5375
2456.07226	5657.7375
2458.83827	5641.4375
2461.60254	5624.1375
2464.36507	5634.7375
2467.12586	5635.6375
2469.88492	5601.1375
2472.64224	5620.4375
2475.39782	5639.2375
2478.15167	5651.0375
2480.90379	5654.3375
2483.65417	5653.2375
2486.40283	5678.0375
2489.14976	5689.3375
2491.89497	5694.4375
2494.63845	5708.2375
2497.3802	5684.9375
2500.12024	5684.9375
2502.85855	5666.7375
2505.59514	5668.6375
2508.33002	5625.6375
2511.06318	5595.9375
2513.79462	5583.9375
2516.52435	5561.1375
2519.25237	5529.7375
2521.97867	5492.4375
2524.70327	5490.7375
2527.42616	5480.3375
2530.14734	5483.3375
2532.86681	5472.8375
2535.58458	5441.5375
2538.30065	5468.0375
2541.01501	5441.8375
2543.72768	5452.0375
2546.43864	5453.8375
2549.14791	5462.9375
2551.85548	5450.3375
2554.56136	5457.3375
2557.26554	5435.4375
2559.96803	5427.2375
2562.66883	5417.5375
2565.36794	5430.1375
2568.06536	5402.4375
2570.7611	5391.5375
2573.45514	5392.2375
2576.14751	5373.5375
2578.83819	5376.5375
2581.52719	5377.5375
2584.21451	5372.0375
2586.90015	5370.8375
2589.58411	5359.1375
2592.2664	5344.8375
2594.94701	5344.2375
2597.62594	5329.8375
2600.30321	5334.5375
2602.9788	5322.2375
2605.65273	5312.3375
2608.32498	5331.3375
2610.99557	5309.2375
2613.66449	5315.4375
2616.33175	5310.3375
2618.99734	5313.4375
2621.66128	5302.4375
2624.32355	5311.7375
2626.98416	5308.1375
2629.64311	5279.9375
2632.30041	5296.4375
2634.95605	5277.9375
2637.61004	5264.4375
2640.26238	5246.1375
2642.91306	5248.5375
2645.56209	5249.7375
2648.20948	5248.7375
2650.85521	5250.3375
2653.4993	5231.0375
2656.14175	5246.2375
2658.78255	5234.0375
2661.42171	5232.1375
2664.05923	5254.1375
2666.6951	5234.8375
2669.32934	5263.8375
2671.96194	5277.0375
2674.59291	5277.9375
2677.22224	5268.3375
2679.84993	5273.3375
2682.476	5296.5375
2685.10043	5277.5375
2687.72324	5262.8375
2690.34441	5271.6375
2692.96396	5284.2375
2695.58188	5279.8375
2698.19818	5276.2375
2700.81285	5292.8375
2703.4259	5297.8375
2706.03733	5323.5375
2708.64714	5295.7375
2711.25533	5298.6375
2713.86191	5299.4375
2716.46687	5317.3375
2719.07021	5328.9375
2721.67194	5340.3375
2724.27206	5325.8375
2726.87057	5314.9375
2729.46747	5316.7375
2732.06276	5320.1375
2734.65644	5304.9375
2737.24852	5299.1375
2739.83899	5288.6375
2742.42786	5269.2375
2745.01513	5260.9375
2747.60079	5254.9375
2750.18486	5252.5375
2752.76733	5241.8375
2755.3482	5238.4375
2757.92747	5226.4375
2760.50515	5220.1375
2763.08123	5228.9375
2765.65573	5211.3375
2768.22863	5205.1375
2770.79994	5192.6375
2773.36967	5213.0375
2775.9378	5202.9375
2778.50435	5200.0375
2781.06932	5197.2375
2783.6327	5207.0375
2786.1945	5215.7375
2788.75471	5193.0375
2791.31335	5182.5375
2793.87041	5184.7375
2796.42589	5205.6375
2798.97979	5197.1375
2801.53212	5209.9375
2804.08288	5217.0375
2806.63206	5215.5375
2809.17967	5211.7375
2811.72571	5209.3375
2814.27018	5230.2375
2816.81308	5243.2375
2819.35442	5263.4375
2821.89419	5252.3375
2824.43239	5278.1375
2826.96904	5299.5375
2829.50412	5290.4375
2832.03763	5313.7375
2834.56959	5326.0375
2837.1	5338.0375
2839.62884	5368.1375
2842.15613	5426.4375
2844.68186	5506.7375
2847.20604	5586.7375
2849.72867	5642.7375
2852.24974	5671.6375
2854.76927	5696.9375
2857.28724	5681.3375
2859.80367	5668.6375
2862.31855	5633.7375
2864.83189	5607.7375
2867.34368	5601.8375
2869.85393	5585.2375
2872.36264	5593.7375
2874.8698	5600.7375
2877.37543	5592.9375
2879.87952	5582.8375
2882.38207	5590.7375
2884.88308	5547.8375
2887.38256	5545.7375
2889.88051	5544.6375
2892.37692	5566.0375
2894.8718	5553.2375
2897.36515	5566.8375
2899.85698	5571.0375
2902.34727	5577.7375
2904.83604	5562.7375
2907.32328	5581.5375
2909.809	5558.9375
2912.29319	5562.6375
2914.77587	5558.4375
2917.25702	5548.3375
2919.73665	5532.5375
2922.21476	5532.2375
2924.69136	5523.3375
2927.16644	5497.1375
2929.64	5490.4375
2932.11205	5446.0375
2934.58258	5446.9375
2937.05161	5402.8375
2939.51912	5370.3375
2941.98513	5323.8375
2944.44962	5278.8375
2946.91261	5219.5375
2949.37409	5175.4375
2951.83407	5157.8375
2954.29254	5130.3375
2956.74951	5093.7375
2959.20498	5064.6375
2961.65895	5043.5375
2964.11142	5048.5375
2966.56239	5009.2375
2969.01186	4986.9375
2971.45984	4961.0375
2973.90632	4951.5375
2976.35131	4913.2375
2978.7948	4901.4375
2981.23681	4864.2375
2983.67732	4852.1375
2986.11635	4843.7375
2988.55388	4799.5375
2990.98993	4797.6375
2993.4245	4761.8375
2995.85758	4765.0375
2998.28917	4751.5375
3000.71928	4739.3375
3003.14791	4734.0375
3005.57506	4723.2375
3008.00073	4707.9375
3010.42493	4707.4375
3012.84764	4694.2375
3015.26888	4690.4375
3017.68865	4682.5375
3020.10694	4683.9375
3022.52376	4671.9375
3024.9391	4650.1375
3027.35298	4639.8375
3029.76539	4640.1375
3032.17632	4624.5375
3034.5858	4611.0375
3036.9938	4606.4375
3039.40034	4600.9375
3041.80542	4580.7375
3044.20903	4574.3375
3046.61118	4560.7375
3049.01187	4548.7375
3051.4111	4566.1375
3053.80888	4548.7375
3056.20519	4542.2375
3058.60005	4519.9375
3060.99345	4515.7375
3063.3854	4522.4375
3065.7759	4515.2375
3068.16494	4469.8375
3070.55254	4479.4375
3072.93868	4454.7375
3075.32338	4456.0375
3077.70662	4433.8375
3080.08842	4418.8375
3082.46878	4414.2375
3084.84769	4381.3375
3087.22515	4380.9375
3089.60118	4384.6375
3091.97576	4360.7375
3094.3489	4359.2375
3096.72061	4343.4375
3099.09087	4341.7375
3101.4597	4323.2375
3103.82709	4333.1375
3106.19305	4312.0375
3108.55757	4316.8375
3110.92066	4298.4375
3113.28232	4301.3375
3115.64255	4271.4375
3118.00134	4274.5375
3120.35871	4274.4375
3122.71466	4268.1375
3125.06917	4255.0375
3127.42226	4243.6375
3129.77393	4242.7375
3132.12417	4231.0375
3134.47299	4243.2375
3136.82039	4250.1375
3139.16636	4250.2375
3141.51092	4270.7375
3143.85406	4279.1375
3146.19579	4281.7375
3148.53609	4267.4375
3150.87499	4284.1375
3153.21246	4288.4375
3155.54853	4292.4375
3157.88318	4274.6375
3160.21642	4276.8375
3162.54826	4278.4375
3164.87868	4277.7375
3167.2077	4278.5375
3169.5353	4276.2375
3171.86151	4291.9375
3174.18631	4274.5375
3176.5097	4284.8375
3178.83169	4266.1375
3181.15228	4265.3375
3183.47147	4257.4375
3185.78926	4281.5375
3188.10565	4282.8375
3190.42065	4274.0375
3192.73424	4270.5375
3195.04645	4277.4375
3197.35725	4276.4375
3199.66667	4291.8375
3201.97469	4287.2375
3204.28132	4284.5375
3206.58656	4290.8375
3208.8904	4278.6375
3211.19287	4314.4375
3213.49394	4304.5375
3215.79363	4302.2375
3218.09193	4320.0375
3220.38884	4310.0375
3222.68438	4308.2375
3224.97853	4310.5375
3227.2713	4307.2375
3229.56269	4294.7375
3231.8527	4293.9375
3234.14133	4293.4375
3236.42858	4281.2375
3238.71446	4270.8375
3240.99896	4257.9375
3243.28209	4263.9375
3245.56384	4246.1375
3247.84423	4254.2375
3250.12324	4246.5375
3252.40088	4245.0375
3254.67715	4231.3375
3256.95205	4222.0375
3259.22558	4221.3375
3261.49775	4211.6375
3263.76855	4226.6375
3266.03799	4195.2375
3268.30606	4212.9375
3270.57277	4186.4375
3272.83812	4174.6375
3275.10211	4179.7375
3277.36474	4165.2375
3279.62601	4177.8375
3281.88593	4181.7375
3284.14448	4170.7375
3286.40168	4165.9375
3288.65753	4176.5375
3290.91202	4153.9375
3293.16516	4119.7375
3295.41695	4142.4375
3297.66738	4108.7375
3299.91647	4086.4375
3302.16421	4080.3375
3304.4106	4050.5375
3306.65564	4014.7375
3308.89933	3988.0375
3311.14169	3971.1375
3313.38269	3931.9375
3315.62236	3907.7375
3317.86068	3881.4375
3320.09766	3839.7375
3322.3333	3807.3375
3324.5676	3810.8375
3326.80056	3740.9375
3329.03219	3724.3375
3331.26248	-0.3625
3333.49143	0.2375
3335.71905	-0.8625
