Data from AgNPs_FTO_APTES_UA_2uM_CRN_2uM_R6G_10uM_NaF_0.1M_Addition_RamanShift__4__12-03-25-049.txt Node

Date: Wed Feb 02 12:03:25 GMT 2022
User: TCL
Spectrometer: QEP01345
Trigger mode: 4
Integration Time (sec): 7.000000E0
Scans to average: 10
Electric dark correction enabled: true
Nonlinearity correction enabled: false
Boxcar width: 0
XAxis mode: Raman Shifts
Number of Pixels in Spectrum: 1044
>>>>>Begin Spectral Data<<<<<
46.04893	0.825
50.45542	0.725
54.85868	-3.075
59.25871	-1.575
63.6555	108.425
68.04907	114.025
72.43941	115.925
76.82654	122.225
81.21044	127.725
85.59113	134.625
89.96862	133.825
94.34289	136.125
98.71396	147.625
103.08183	153.225
107.4465	158.125
111.80798	159.225
116.16626	161.825
120.52136	170.625
124.87327	175.825
129.222	182.925
133.56755	198.325
137.90993	218.025
142.24913	242.125
146.58517	272.225
150.91804	319.625
155.24774	379.725
159.57429	478.525
163.89768	618.425
168.21792	801.225
172.53501	1111.325
176.84895	1552.025
181.15975	2179.825
185.46741	3050.725
189.77193	4194.925
194.07331	5601.125
198.37157	7203.825
202.6667	8896.325
206.9587	10570.625
211.24758	12238.325
215.53334	13920.725
219.81599	15735.225
224.09553	17734.025
228.37195	19953.525
232.64527	22335.525
236.91549	24812.625
241.18261	27189.925
245.44663	29433.225
249.70755	31351.125
253.96539	33062.125
258.22014	34528.525
262.4718	35721.725
266.72039	36530.225
270.96589	36875.425
275.20832	36837.625
279.44768	36533.825
283.68397	36103.425
287.91719	35780.025
292.14735	35607.825
296.37445	35573.625
300.59849	35707.525
304.81948	35917.125
309.03742	36074.925
313.25231	36020.825
317.46415	35556.725
321.67296	34888.225
325.87872	34322.225
330.08145	33966.625
334.28114	33844.025
338.47781	34058.025
342.67145	34416.425
346.86207	34884.425
351.04966	35575.525
355.23424	36343.325
359.4158	36907.525
363.59435	37452.625
367.76989	37815.725
371.94243	37988.425
376.11196	38157.025
380.27849	38279.625
384.44203	38525.525
388.60257	38905.325
392.76012	39245.925
396.91468	39790.625
401.06626	40445.625
405.21485	40839.725
409.36047	40817.625
413.50311	40552.325
417.64277	40588.725
421.77947	40949.225
425.9132	41178.725
430.04396	41372.525
434.17176	41555.925
438.2966	41794.125
442.41849	42536.225
446.53742	43934.925
450.6534	45600.625
454.76644	46643.325
458.87653	46767.025
462.98368	46180.125
467.08789	45234.725
471.18916	44109.525
475.2875	42981.125
479.38291	42326.325
483.4754	42033.825
487.56496	41666.825
491.6516	41127.925
495.73531	40645.225
499.81612	40486.625
503.89401	40764.625
507.96899	40744.525
512.04106	40565.325
516.11023	40130.125
520.1765	39674.825
524.23987	39465.525
528.30034	39234.325
532.35792	38928.825
536.41261	38351.325
540.46441	37655.925
544.51333	37455.825
548.55936	37759.625
552.60252	38670.025
556.64279	39817.525
560.6802	40763.925
564.71473	41196.225
568.7464	41823.325
572.7752	43076.025
576.80114	44426.225
580.82422	46229.325
584.84444	48710.025
588.86181	51824.125
592.87633	54314.825
596.888	53910.525
600.89682	50815.625
604.9028	49525.325
608.90594	52365.625
612.90624	55719.925
616.90371	52278.425
620.89834	44232.525
624.89015	40518.425
628.87913	39969.625
632.86528	39727.025
636.84862	39160.925
640.82913	38128.625
644.80683	37097.025
648.78172	36613.025
652.75379	36724.625
656.72306	37274.225
660.68952	37792.825
664.65319	37541.325
668.61405	36811.025
672.57211	36808.125
676.52738	36990.425
680.47986	36962.425
684.42955	36599.625
688.37646	36470.025
692.32058	36801.225
696.26192	37658.725
700.20048	38474.125
704.13626	38788.925
708.06928	38548.025
711.99952	38204.125
715.927	38338.025
719.85171	38732.725
723.77365	38633.925
727.69284	37800.825
731.60928	37071.125
735.52295	36853.425
739.43388	36960.525
743.34206	37089.025
747.24749	37367.225
751.15017	37800.125
755.05012	38554.325
758.94733	39721.225
762.8418	41508.625
766.73354	44166.825
770.62254	46518.725
774.50882	46735.225
778.39237	44617.725
782.27321	41854.625
786.15132	39568.425
790.02671	38113.825
793.89938	37587.925
797.76935	37441.325
801.6366	37379.725
805.50115	37381.825
809.36299	37244.725
813.22213	36801.425
817.07857	36516.225
820.93231	36221.025
824.78336	36115.525
828.63172	35986.625
832.47738	35981.425
836.32036	36234.225
840.16066	36588.625
843.99827	36799.725
847.8332	36682.025
851.66546	36337.725
855.49504	36238.325
859.32195	36151.025
863.1462	35973.025
866.96777	35734.025
870.78668	35630.525
874.60293	35589.625
878.41652	35692.325
882.22745	35942.025
886.03573	36115.425
889.84136	36099.925
893.64433	35885.925
897.44466	35655.925
901.24235	35462.625
905.0374	35374.125
908.8298	35385.525
912.61957	35481.525
916.40671	35872.625
920.19121	36570.225
923.97308	37297.225
927.75233	37705.725
931.52895	37498.025
935.30295	36825.925
939.07433	36037.025
942.84309	35472.125
946.60924	35290.725
950.37278	35233.225
954.13371	35160.225
957.89203	34915.425
961.64774	34846.525
965.40086	34849.025
969.15137	34804.625
972.89929	34668.925
976.64461	34608.525
980.38733	34698.825
984.12747	34934.225
987.86502	35295.225
991.59999	35895.325
995.33237	36765.225
999.06217	38271.125
1002.78939	40029.925
1006.51404	41224.725
1010.23611	41881.225
1013.95561	42152.625
1017.67255	42003.825
1021.38692	41310.525
1025.09872	40700.925
1028.80796	41335.725
1032.51465	43347.025
1036.21877	45474.025
1039.92035	46049.025
1043.61937	45250.825
1047.31584	43531.525
1051.00976	41571.125
1054.70114	40214.425
1058.38998	39739.925
1062.07627	39494.125
1065.76003	39532.125
1069.44126	39771.925
1073.11995	40449.725
1076.79611	41152.625
1080.46974	41580.425
1084.14085	41987.825
1087.80943	42462.925
1091.47549	42672.825
1095.13903	42464.825
1098.80005	41800.025
1102.45857	40771.525
1106.11456	39994.725
1109.76805	39714.625
1113.41903	39700.325
1117.06751	39745.525
1120.71348	39903.425
1124.35696	40287.925
1127.99793	40803.925
1131.63641	41101.825
1135.2724	41132.525
1138.90589	41066.325
1142.5369	41195.725
1146.16542	41526.525
1149.79145	41880.325
1153.415	42310.825
1157.03607	43070.925
1160.65467	44654.425
1164.27079	47134.625
1167.88443	50100.525
1171.49561	53125.925
1175.10432	56827.825
1178.71056	61854.025
1182.31434	66763.125
1185.91565	69085.825
1189.51451	68401.325
1193.11091	65960.725
1196.70485	63260.625
1200.29634	60783.925
1203.88538	59292.125
1207.47197	58474.125
1211.05612	57741.525
1214.63782	56776.525
1218.21708	55406.325
1221.79391	54254.925
1225.36829	53347.825
1228.94024	52397.825
1232.50976	50981.525
1236.07685	49628.525
1239.6415	48944.425
1243.20374	48859.925
1246.76355	49502.125
1250.32093	50618.525
1253.8759	52124.525
1257.42845	53878.625
1260.97859	55867.525
1264.52631	57813.725
1268.07163	59996.425
1271.61453	62349.525
1275.15503	64682.525
1278.69312	67153.525
1282.22882	69498.525
1285.76211	71958.725
1289.29301	74750.425
1292.82151	78096.025
1296.34761	82622.825
1299.87133	88593.325
1303.39266	95262.125
1306.9116	101349.925
1310.42815	105579.825
1313.94233	106675.125
1317.45412	104726.725
1320.96354	101191.525
1324.47058	97791.225
1327.97525	95399.325
1331.47754	93795.225
1334.97747	92551.425
1338.47502	90711.425
1341.97022	87838.125
1345.46305	84739.325
1348.95352	82777.725
1352.44163	83443.825
1355.92738	87413.425
1359.41078	93746.525
1362.89183	98438.625
1366.37053	97738.625
1369.84688	90263.925
1373.32088	79287.925
1376.79254	71409.025
1380.26186	68706.825
1383.72883	68883.225
1387.19347	68974.225
1390.65578	68006.025
1394.11575	67619.725
1397.57339	68399.225
1401.0287	70060.125
1404.48168	71581.325
1407.93234	71915.925
1411.38068	70668.225
1414.82669	68598.125
1418.27039	65776.225
1421.71177	62740.825
1425.15083	60275.125
1428.58758	59217.325
1432.02203	60144.125
1435.45416	62397.225
1438.88399	64831.025
1442.31151	66463.925
1445.73673	67176.725
1449.15965	67402.025
1452.58027	66968.725
1455.9986	66092.925
1459.41463	65802.225
1462.82837	66764.725
1466.23982	68413.125
1469.64898	70104.225
1473.05586	71284.025
1476.46045	71818.425
1479.86276	71645.225
1483.26279	70709.925
1486.66054	70147.225
1490.05602	70183.125
1493.44922	70494.125
1496.84016	70351.125
1500.22882	70182.625
1503.61521	70422.425
1506.99934	71190.825
1510.38121	71963.025
1513.76081	72135.525
1517.13816	71059.325
1520.51324	69377.025
1523.88607	68445.225
1527.25665	68583.725
1530.62498	69186.425
1533.99105	69338.925
1537.35488	68763.825
1540.71647	67436.125
1544.07581	65678.225
1547.4329	63843.325
1550.78776	62040.425
1554.14038	60751.325
1557.49077	59731.125
1560.83892	58916.125
1564.18484	58270.725
1567.52853	58201.025
1570.86999	58635.125
1574.20922	59649.125
1577.54624	60890.825
1580.88103	61811.225
1584.2136	63658.825
1587.54395	67343.825
1590.87208	72991.325
1594.19801	79495.225
1597.52172	84816.725
1600.84321	85929.425
1604.16251	80781.825
1607.47959	71919.825
1610.79447	63090.225
1614.10715	55985.825
1617.41763	51054.425
1620.7259	48248.025
1624.03199	47175.225
1627.33587	47777.725
1630.63757	49899.925
1633.93707	53804.425
1637.23439	59912.825
1640.52951	68909.225
1643.82246	79431.625
1647.11321	87126.525
1650.40179	86828.525
1653.68819	78091.225
1656.97241	65467.825
1660.25446	54556.225
1663.53433	47060.025
1666.81203	42503.325
1670.08756	39821.025
1673.36092	38117.025
1676.63211	37039.125
1679.90115	36244.225
1683.16801	35654.425
1686.43272	35222.125
1689.69527	34973.625
1692.95567	34744.725
1696.2139	34527.925
1699.46999	34416.525
1702.72392	34327.525
1705.97571	34166.625
1709.22535	34145.725
1712.47284	34131.425
1715.71819	34115.425
1718.96139	33972.725
1722.20246	33885.425
1725.44139	33766.525
1728.67818	33549.425
1731.91284	33406.225
1735.14537	33246.125
1738.37576	33091.325
1741.60403	32967.525
1744.83017	32798.625
1748.05418	32727.225
1751.27607	32746.125
1754.49584	32652.925
1757.71349	32579.725
1760.92903	32632.625
1764.14244	32583.825
1767.35375	32588.825
1770.56294	32527.825
1773.77002	32474.625
1776.97499	32480.225
1780.17785	32363.325
1783.37861	32405.825
1786.57727	32321.525
1789.77382	32276.425
1792.96828	32253.625
1796.16064	32190.125
1799.3509	32111.225
1802.53907	32044.825
1805.72514	31986.625
1808.90913	31949.225
1812.09102	31901.925
1815.27083	31828.325
1818.44856	31864.925
1821.6242	31799.125
1824.79776	31785.625
1827.96924	31789.125
1831.13864	31810.025
1834.30597	31783.125
1837.47122	31811.425
1840.6344	31743.225
1843.7955	31783.325
1846.95454	31774.125
1850.11151	31767.425
1853.26642	31761.825
1856.41926	31695.425
1859.57004	31698.925
1862.71876	31685.825
1865.86542	31700.125
1869.01003	31701.725
1872.15258	31659.225
1875.29308	31660.225
1878.43152	31649.625
1881.56792	31622.825
1884.70227	31623.825
1887.83457	31609.225
1890.96482	31640.325
1894.09304	31558.525
1897.21921	31529.225
1900.34335	31510.725
1903.46544	31470.525
1906.58551	31442.125
1909.70353	31464.625
1912.81953	31336.825
1915.93349	31301.225
1919.04543	31207.925
1922.15534	31169.825
1925.26322	31099.925
1928.36908	31031.725
1931.47292	30938.925
1934.57473	30864.725
1937.67453	30800.225
1940.77232	30713.425
1943.86808	30649.625
1946.96184	30598.525
1950.05358	30543.925
1953.14331	30427.025
1956.23103	30398.625
1959.31675	30293.025
1962.40046	30264.725
1965.48217	30130.025
1968.56188	30103.025
1971.63959	29974.425
1974.7153	29976.825
1977.78901	29863.425
1980.86073	29767.625
1983.93046	29671.325
1986.99819	29613.225
1990.06394	29532.025
1993.1277	29410.525
1996.18947	29343.625
1999.24925	29300.825
2002.30706	29226.825
2005.36288	29181.225
2008.41672	29102.225
2011.46859	29012.625
2014.51848	28958.025
2017.56639	28927.625
2020.61233	28873.725
2023.6563	28810.225
2026.6983	28821.725
2029.73833	28782.825
2032.7764	28720.325
2035.8125	28749.325
2038.84664	28719.525
2041.87881	28716.325
2044.90903	28638.225
2047.93729	28605.425
2050.96359	28582.625
2053.98794	28541.625
2057.01034	28552.825
2060.03078	28548.725
2063.04927	28527.825
2066.06582	28498.625
2069.08042	28456.825
2072.09307	28451.425
2075.10378	28376.625
2078.11255	28428.225
2081.11938	28425.125
2084.12426	28380.625
2087.12722	28363.025
2090.12824	28344.525
2093.12732	28356.325
2096.12447	28389.525
2099.11969	28392.825
2102.11299	28446.325
2105.10435	28412.125
2108.09379	28442.725
2111.08131	28477.925
2114.0669	28453.625
2117.05057	28518.025
2120.03233	28543.825
2123.01216	28580.725
2125.99008	28571.825
2128.96609	28561.425
2131.94018	28620.025
2134.91236	28652.425
2137.88263	28654.525
2140.851	28669.525
2143.81746	28647.525
2146.78201	28673.525
2149.74466	28699.525
2152.7054	28714.625
2155.66425	28734.825
2158.6212	28755.325
2161.57625	28757.925
2164.52941	28791.025
2167.48067	28786.125
2170.43004	28733.925
2173.37752	28747.625
2176.32311	28738.225
2179.26681	28798.325
2182.20863	28814.525
2185.14856	28847.025
2188.08661	28878.225
2191.02278	28934.325
2193.95707	28879.625
2196.88948	28857.725
2199.82001	28894.325
2202.74867	28892.425
2205.67545	28925.325
2208.60037	28868.925
2211.52341	28838.325
2214.44458	28848.725
2217.36388	28843.625
2220.28132	28787.625
2223.1969	28737.025
2226.11061	28747.625
2229.02246	28724.925
2231.93245	28714.325
2234.84058	28693.825
2237.74686	28628.825
2240.65128	28588.725
2243.55385	28509.225
2246.45456	28485.225
2249.35343	28439.525
2252.25044	28417.925
2255.14561	28304.225
2258.03893	28257.525
2260.93041	28183.125
2263.82004	28158.625
2266.70783	28129.225
2269.59378	28009.625
2272.4779	28017.325
2275.36017	27917.525
2278.24061	27954.125
2281.11922	27860.225
2283.996	27854.725
2286.87094	27897.025
2289.74405	27843.125
2292.61534	27842.825
2295.4848	27822.725
2298.35243	27855.625
2301.21824	27864.525
2304.08223	27912.425
2306.94439	27975.525
2309.80474	28026.225
2312.66327	28023.525
2315.51999	28002.525
2318.37489	28043.425
2321.22797	28071.725
2324.07925	28025.725
2326.92871	27983.425
2329.77637	28025.125
2332.62222	28021.825
2335.46626	27993.925
2338.3085	27969.125
2341.14893	27973.225
2343.98756	28033.825
2346.8244	28033.825
2349.65943	28039.725
2352.49267	28005.425
2355.32411	28051.625
2358.15376	28036.225
2360.98161	27978.225
2363.80768	27899.825
2366.63195	27890.125
2369.45444	27779.325
2372.27514	27741.425
2375.09405	27669.425
2377.91118	27617.825
2380.72652	27537.525
2383.54009	27538.125
2386.35187	27532.725
2389.16188	27514.425
2391.97011	27485.225
2394.77657	27485.125
2397.58125	27459.025
2400.38416	27407.625
2403.18529	27335.825
2405.98466	27329.325
2408.78226	27278.625
2411.57809	27288.225
2414.37216	27277.725
2417.16446	27215.925
2419.955	27173.225
2422.74378	27160.625
2425.5308	27112.925
2428.31606	27145.625
2431.09956	27148.825
2433.88131	27130.425
2436.6613	27144.025
2439.43954	27194.625
2442.21603	27165.025
2444.99077	27124.225
2447.76377	27138.825
2450.53501	27147.725
2453.30451	27161.725
2456.07226	27097.425
2458.83827	27140.125
2461.60254	27153.125
2464.36507	27191.325
2467.12586	27173.225
2469.88492	27200.425
2472.64224	27200.825
2475.39782	27241.625
2478.15167	27304.625
2480.90379	27240.625
2483.65417	27268.225
2486.40283	27262.825
2489.14976	27331.125
2491.89497	27257.425
2494.63845	27318.525
2497.3802	27329.225
2500.12024	27353.625
2502.85855	27391.125
2505.59514	27359.925
2508.33002	27340.125
2511.06318	27288.225
2513.79462	27321.825
2516.52435	27294.625
2519.25237	27310.025
2521.97867	27225.925
2524.70327	27251.625
2527.42616	27234.125
2530.14734	27269.225
2532.86681	27224.625
2535.58458	27237.025
2538.30065	27209.325
2541.01501	27221.425
2543.72768	27213.625
2546.43864	27226.325
2549.14791	27193.625
2551.85548	27175.725
2554.56136	27196.425
2557.26554	27196.625
2559.96803	27190.625
2562.66883	27193.625
2565.36794	27184.925
2568.06536	27203.525
2570.7611	27172.225
2573.45514	27184.225
2576.14751	27144.425
2578.83819	27161.825
2581.52719	27150.025
2584.21451	27183.625
2586.90015	27202.525
2589.58411	27185.925
2592.2664	27213.325
2594.94701	27128.525
2597.62594	27159.425
2600.30321	27097.425
2602.9788	27137.725
2605.65273	27079.925
2608.32498	27102.625
2610.99557	27093.725
2613.66449	27132.725
2616.33175	27136.225
2618.99734	27141.725
2621.66128	27132.425
2624.32355	27149.025
2626.98416	27107.025
2629.64311	27092.325
2632.30041	27134.225
2634.95605	27114.925
2637.61004	27067.725
2640.26238	27064.925
2642.91306	27053.925
2645.56209	27037.325
2648.20948	27004.525
2650.85521	27012.725
2653.4993	27003.325
2656.14175	26942.325
2658.78255	27025.525
2661.42171	27005.525
2664.05923	27067.525
2666.6951	27089.225
2669.32934	27099.225
2671.96194	27116.925
2674.59291	27102.825
2677.22224	27092.425
2679.84993	27089.725
2682.476	27111.225
2685.10043	27101.025
2687.72324	27051.225
2690.34441	27047.325
2692.96396	27060.225
2695.58188	27083.225
2698.19818	27068.125
2700.81285	27034.525
2703.4259	27022.825
2706.03733	27059.225
2708.64714	27060.625
2711.25533	27137.425
2713.86191	27164.725
2716.46687	27172.725
2719.07021	27228.925
2721.67194	27247.125
2724.27206	27239.225
2726.87057	27240.425
2729.46747	27275.925
2732.06276	27328.025
2734.65644	27311.225
2737.24852	27345.025
2739.83899	27362.625
2742.42786	27350.825
2745.01513	27316.725
2747.60079	27298.425
2750.18486	27252.725
2752.76733	27293.225
2755.3482	27285.125
2757.92747	27273.825
2760.50515	27265.225
2763.08123	27316.825
2765.65573	27340.625
2768.22863	27357.725
2770.79994	27276.625
2773.36967	27316.325
2775.9378	27328.825
2778.50435	27311.025
2781.06932	27289.325
2783.6327	27294.525
2786.1945	27246.025
2788.75471	27222.625
2791.31335	27210.525
2793.87041	27165.025
2796.42589	27170.825
2798.97979	27156.825
2801.53212	27163.625
2804.08288	27109.725
2806.63206	27023.525
2809.17967	26960.725
2811.72571	26903.325
2814.27018	26922.625
2816.81308	26825.925
2819.35442	26826.825
2821.89419	26745.125
2824.43239	26801.725
2826.96904	26776.325
2829.50412	26755.025
2832.03763	26738.525
2834.56959	26769.925
2837.1	26760.025
2839.62884	26766.625
2842.15613	26737.625
2844.68186	26829.625
2847.20604	26821.125
2849.72867	26893.225
2852.24974	26825.325
2854.76927	26869.725
2857.28724	26824.225
2859.80367	26803.525
2862.31855	26779.525
2864.83189	26738.225
2867.34368	26705.325
2869.85393	26724.725
2872.36264	26757.225
2874.8698	26774.625
2877.37543	26808.825
2879.87952	26843.525
2882.38207	26846.325
2884.88308	26841.525
2887.38256	26884.625
2889.88051	26883.625
2892.37692	26967.225
2894.8718	26998.925
2897.36515	27004.725
2899.85698	27018.925
2902.34727	27080.425
2904.83604	27087.525
2907.32328	27123.225
2909.809	27117.225
2912.29319	27123.125
2914.77587	27124.025
2917.25702	27103.625
2919.73665	27061.825
2922.21476	27108.325
2924.69136	27086.225
2927.16644	27091.325
2929.64	27032.825
2932.11205	26981.325
2934.58258	26924.225
2937.05161	26956.225
2939.51912	26911.825
2941.98513	26883.425
2944.44962	26852.825
2946.91261	26802.825
2949.37409	26825.925
2951.83407	26778.325
2954.29254	26800.325
2956.74951	26753.825
2959.20498	26691.025
2961.65895	26659.725
2964.11142	26688.025
2966.56239	26611.225
2969.01186	26565.125
2971.45984	26508.525
2973.90632	26448.425
2976.35131	26426.625
2978.7948	26409.325
2981.23681	26295.325
2983.67732	26217.325
2986.11635	26129.225
2988.55388	26104.725
2990.98993	26082.525
2993.4245	25947.225
2995.85758	25962.125
2998.28917	25932.025
3000.71928	25930.825
3003.14791	25818.125
3005.57506	25813.925
3008.00073	25751.425
3010.42493	25746.525
3012.84764	25665.025
3015.26888	25692.725
3017.68865	25618.425
3020.10694	25592.425
3022.52376	25579.625
3024.9391	25534.325
3027.35298	25533.525
3029.76539	25526.525
3032.17632	25492.525
3034.5858	25462.425
3036.9938	25409.825
3039.40034	25420.725
3041.80542	25421.425
3044.20903	25387.325
3046.61118	25370.025
3049.01187	25296.425
3051.4111	25295.025
3053.80888	25244.525
3056.20519	25199.125
3058.60005	25139.025
3060.99345	25095.125
3063.3854	25024.625
3065.7759	24989.125
3068.16494	24915.025
3070.55254	24858.725
3072.93868	24859.325
3075.32338	24781.125
3077.70662	24775.925
3080.08842	24740.425
3082.46878	24695.725
3084.84769	24678.825
3087.22515	24645.925
3089.60118	24605.525
3091.97576	24607.925
3094.3489	24640.825
3096.72061	24628.425
3099.09087	24588.425
3101.4597	24573.725
3103.82709	24544.525
3106.19305	24490.525
3108.55757	24440.025
3110.92066	24399.025
3113.28232	24353.625
3115.64255	24279.225
3118.00134	24253.925
3120.35871	24244.425
3122.71466	24231.825
3125.06917	24187.125
3127.42226	24101.325
3129.77393	24129.425
3132.12417	24140.725
3134.47299	24137.725
3136.82039	24090.625
3139.16636	24149.725
3141.51092	24099.225
3143.85406	24139.925
3146.19579	24106.125
3148.53609	24117.125
3150.87499	24169.325
3153.21246	24149.625
3155.54853	24142.525
3157.88318	24104.925
3160.21642	24127.225
3162.54826	24101.025
3164.87868	24117.625
3167.2077	24059.625
3169.5353	24054.825
3171.86151	24053.625
3174.18631	24020.725
3176.5097	23981.325
3178.83169	23999.625
3181.15228	24012.325
3183.47147	23938.025
3185.78926	23926.325
3188.10565	23872.125
3190.42065	23953.225
3192.73424	23959.425
3195.04645	23913.825
3197.35725	23939.025
3199.66667	23915.825
3201.97469	23886.525
3204.28132	23846.025
3206.58656	23878.025
3208.8904	23885.325
3211.19287	23903.525
3213.49394	23928.825
3215.79363	23956.725
3218.09193	23954.025
3220.38884	23886.925
3222.68438	23927.225
3224.97853	23888.625
3227.2713	23849.025
3229.56269	23826.925
3231.8527	23759.825
3234.14133	23742.025
3236.42858	23763.825
3238.71446	23758.825
3240.99896	23739.925
3243.28209	23703.825
3245.56384	23670.525
3247.84423	23697.125
3250.12324	23652.425
3252.40088	23635.925
3254.67715	23552.425
3256.95205	23505.225
3259.22558	23509.025
3261.49775	23495.725
3263.76855	23477.025
3266.03799	23391.725
3268.30606	23403.925
3270.57277	23391.025
3272.83812	23318.325
3275.10211	23311.025
3277.36474	23305.525
3279.62601	23307.525
3281.88593	23319.425
3284.14448	23312.125
3286.40168	23318.125
3288.65753	23315.025
3290.91202	23239.925
3293.16516	23131.125
3295.41695	23115.925
3297.66738	23000.725
3299.91647	22931.225
3302.16421	22795.825
3304.4106	22719.425
3306.65564	22579.925
3308.89933	22400.625
3311.14169	22290.225
3313.38269	22136.625
3315.62236	22000.125
3317.86068	21789.925
3320.09766	21609.925
3322.3333	21504.525
3324.5676	21484.825
3326.80056	21133.825
3329.03219	21062.525
3331.26248	4.025
3333.49143	-0.075
3335.71905	-0.675
