Data from AgNPs_FTO_APTES_UA_2uM_CRN_20uM_R6G_10uM_NaF_0.1M_Addition_RamanShift__3__14-01-15-186.txt Node

Date: Wed Feb 02 14:01:15 GMT 2022
User: TCL
Spectrometer: QEP01345
Trigger mode: 4
Integration Time (sec): 7.000000E0
Scans to average: 10
Electric dark correction enabled: true
Nonlinearity correction enabled: false
Boxcar width: 0
XAxis mode: Raman Shifts
Number of Pixels in Spectrum: 1044
>>>>>Begin Spectral Data<<<<<
46.04893	0.6125
50.45542	-0.7875
54.85868	-1.8875
59.25871	-2.1875
63.6555	103.5125
68.04907	109.8125
72.43941	114.1125
76.82654	118.8125
81.21044	122.8125
85.59113	131.2125
89.96862	132.2125
94.34289	137.9125
98.71396	140.1125
103.08183	151.0125
107.4465	153.1125
111.80798	157.4125
116.16626	159.4125
120.52136	164.0125
124.87327	174.3125
129.222	180.7125
133.56755	196.4125
137.90993	205.8125
142.24913	233.4125
146.58517	257.3125
150.91804	296.4125
155.24774	358.1125
159.57429	442.9125
163.89768	567.5125
168.21792	753.5125
172.53501	1026.0125
176.84895	1431.0125
181.15975	2002.8125
185.46741	2799.6125
189.77193	3841.9125
194.07331	5159.0125
198.37157	6618.1125
202.6667	8199.5125
206.9587	9732.9125
211.24758	11254.0125
215.53334	12791.5125
219.81599	14455.1125
224.09553	16260.5125
228.37195	18231.4125
232.64527	20403.9125
236.91549	22656.3125
241.18261	24864.2125
245.44663	26920.9125
249.70755	28737.5125
253.96539	30355.1125
258.22014	31719.8125
262.4718	32846.4125
266.72039	33711.6125
270.96589	34152.7125
275.20832	34166.8125
279.44768	33917.0125
283.68397	33669.0125
287.91719	33414.2125
292.14735	33292.9125
296.37445	33366.6125
300.59849	33498.2125
304.81948	33659.9125
309.03742	33700.3125
313.25231	33412.5125
317.46415	32868.5125
321.67296	32106.6125
325.87872	31371.8125
330.08145	31019.4125
334.28114	30934.4125
338.47781	31067.1125
342.67145	31395.1125
346.86207	31819.7125
351.04966	32443.1125
355.23424	33065.3125
359.4158	33624.5125
363.59435	34086.4125
367.76989	34436.2125
371.94243	34626.4125
376.11196	34710.5125
380.27849	34895.0125
384.44203	35019.6125
388.60257	35371.8125
392.76012	35793.6125
396.91468	36314.1125
401.06626	36876.7125
405.21485	37237.5125
409.36047	37187.4125
413.50311	36892.1125
417.64277	36795.4125
421.77947	36977.7125
425.9132	37141.6125
430.04396	37352.9125
434.17176	37554.9125
438.2966	37712.2125
442.41849	38406.9125
446.53742	39546.4125
450.6534	40895.6125
454.76644	41826.3125
458.87653	42036.2125
462.98368	41597.2125
467.08789	40923.7125
471.18916	40120.0125
475.2875	39294.9125
479.38291	38948.6125
483.4754	38725.9125
487.56496	38292.8125
491.6516	37733.8125
495.73531	37099.4125
499.81612	36781.4125
503.89401	36929.2125
507.96899	37024.1125
512.04106	36866.4125
516.11023	36468.2125
520.1765	35987.8125
524.23987	35669.5125
528.30034	35374.1125
532.35792	35024.5125
536.41261	34600.4125
540.46441	34117.8125
544.51333	34112.0125
548.55936	34475.8125
552.60252	35292.3125
556.64279	36291.5125
560.6802	37147.0125
564.71473	37554.8125
568.7464	38298.9125
572.7752	39455.7125
576.80114	40799.0125
580.82422	42193.0125
584.84444	44064.5125
588.86181	46244.4125
592.87633	47915.7125
596.888	47335.7125
600.89682	45048.1125
604.9028	44369.8125
608.90594	46940.9125
612.90624	49631.7125
616.90371	46404.0125
620.89834	39245.1125
624.89015	36048.2125
628.87913	35647.0125
632.86528	35630.0125
636.84862	35304.7125
640.82913	34438.8125
644.80683	33555.0125
648.78172	33086.4125
652.75379	33175.0125
656.72306	33584.9125
660.68952	34030.2125
664.65319	33757.5125
668.61405	33109.6125
672.57211	33036.0125
676.52738	33199.8125
680.47986	33187.4125
684.42955	32919.8125
688.37646	32749.8125
692.32058	33057.9125
696.26192	33673.4125
700.20048	34332.2125
704.13626	34626.8125
708.06928	34553.0125
711.99952	34308.4125
715.927	34391.4125
719.85171	34699.4125
723.77365	34583.1125
727.69284	33932.8125
731.60928	33334.8125
735.52295	33121.7125
739.43388	33027.9125
743.34206	33247.7125
747.24749	33515.8125
751.15017	33896.3125
755.05012	34617.7125
758.94733	35691.3125
762.8418	37409.1125
766.73354	39803.4125
770.62254	41903.0125
774.50882	42053.1125
778.39237	40078.4125
782.27321	37365.9125
786.15132	35294.6125
790.02671	34008.7125
793.89938	33450.1125
797.76935	33248.0125
801.6366	33280.1125
805.50115	33197.2125
809.36299	33031.6125
813.22213	32654.6125
817.07857	32381.2125
820.93231	32209.5125
824.78336	32038.7125
828.63172	31885.9125
832.47738	31886.9125
836.32036	31984.5125
840.16066	32171.7125
843.99827	32326.0125
847.8332	32201.1125
851.66546	31995.2125
855.49504	31949.1125
859.32195	31936.3125
863.1462	31775.5125
866.96777	31640.0125
870.78668	31569.2125
874.60293	31505.3125
878.41652	31514.7125
882.22745	31648.9125
886.03573	31821.3125
889.84136	31771.3125
893.64433	31603.9125
897.44466	31447.2125
901.24235	31359.9125
905.0374	31256.7125
908.8298	31190.9125
912.61957	31335.8125
916.40671	31692.4125
920.19121	32277.4125
923.97308	32792.5125
927.75233	32987.5125
931.52895	32702.7125
935.30295	32082.6125
939.07433	31439.6125
942.84309	30956.1125
946.60924	30784.6125
950.37278	30756.9125
954.13371	30747.3125
957.89203	30630.7125
961.64774	30613.2125
965.40086	30662.1125
969.15137	30551.0125
972.89929	30349.6125
976.64461	30298.2125
980.38733	30312.8125
984.12747	30468.4125
987.86502	30752.9125
991.59999	31193.3125
995.33237	31789.2125
999.06217	32848.9125
1002.78939	34125.3125
1006.51404	34975.8125
1010.23611	35482.7125
1013.95561	35754.7125
1017.67255	35759.0125
1021.38692	35285.5125
1025.09872	34806.4125
1028.80796	35026.6125
1032.51465	36186.0125
1036.21877	37456.8125
1039.92035	37876.6125
1043.61937	37361.2125
1047.31584	36274.8125
1051.00976	35049.7125
1054.70114	34389.1125
1058.38998	34192.6125
1062.07627	34207.3125
1065.76003	34382.5125
1069.44126	34700.4125
1073.11995	35201.8125
1076.79611	35719.1125
1080.46974	36044.7125
1084.14085	36336.7125
1087.80943	36787.6125
1091.47549	37060.4125
1095.13903	37080.6125
1098.80005	36467.1125
1102.45857	35614.8125
1106.11456	34918.2125
1109.76805	34600.7125
1113.41903	34646.5125
1117.06751	34860.8125
1120.71348	35101.5125
1124.35696	35423.8125
1127.99793	35868.3125
1131.63641	36154.9125
1135.2724	36130.4125
1138.90589	36091.6125
1142.5369	36304.9125
1146.16542	36641.5125
1149.79145	36978.7125
1153.415	37475.0125
1157.03607	38303.2125
1160.65467	39760.6125
1164.27079	42146.3125
1167.88443	44740.0125
1171.49561	47364.5125
1175.10432	50536.3125
1178.71056	54719.1125
1182.31434	58708.4125
1185.91565	60720.0125
1189.51451	60169.3125
1193.11091	58345.9125
1196.70485	56156.0125
1200.29634	53992.6125
1203.88538	52693.2125
1207.47197	52062.5125
1211.05612	51462.7125
1214.63782	50441.2125
1218.21708	49128.1125
1221.79391	47821.0125
1225.36829	46843.9125
1228.94024	45949.4125
1232.50976	44897.9125
1236.07685	43949.3125
1239.6415	43538.9125
1243.20374	43602.2125
1246.76355	44096.6125
1250.32093	45050.8125
1253.8759	46224.7125
1257.42845	47674.3125
1260.97859	49251.5125
1264.52631	50924.1125
1268.07163	52700.6125
1271.61453	54599.3125
1275.15503	56499.3125
1278.69312	58490.2125
1282.22882	60507.0125
1285.76211	62787.3125
1289.29301	65369.9125
1292.82151	68529.2125
1296.34761	72751.8125
1299.87133	77882.1125
1303.39266	83274.6125
1306.9116	88228.6125
1310.42815	91327.3125
1313.94233	92516.3125
1317.45412	91310.1125
1320.96354	89092.7125
1324.47058	87222.7125
1327.97525	85909.8125
1331.47754	85105.4125
1334.97747	84316.3125
1338.47502	83057.8125
1341.97022	81055.0125
1345.46305	78417.0125
1348.95352	76525.6125
1352.44163	76490.0125
1355.92738	78866.5125
1359.41078	83032.5125
1362.89183	86073.9125
1366.37053	84993.2125
1369.84688	78600.7125
1373.32088	69630.1125
1376.79254	63247.5125
1380.26186	61221.6125
1383.72883	61643.4125
1387.19347	61902.0125
1390.65578	61276.6125
1394.11575	61077.6125
1397.57339	61916.8125
1401.0287	63502.5125
1404.48168	65017.4125
1407.93234	65239.7125
1411.38068	64138.5125
1414.82669	61888.7125
1418.27039	59120.3125
1421.71177	56105.9125
1425.15083	53697.4125
1428.58758	52554.1125
1432.02203	53137.6125
1435.45416	55034.2125
1438.88399	57184.7125
1442.31151	58772.8125
1445.73673	59652.2125
1449.15965	60195.0125
1452.58027	60134.1125
1455.9986	59620.8125
1459.41463	59434.3125
1462.82837	60124.4125
1466.23982	61438.8125
1469.64898	62765.5125
1473.05586	63797.9125
1476.46045	64128.3125
1479.86276	63810.6125
1483.26279	62979.7125
1486.66054	62430.5125
1490.05602	62462.5125
1493.44922	62741.7125
1496.84016	62806.2125
1500.22882	62998.4125
1503.61521	63567.5125
1506.99934	64490.9125
1510.38121	65470.2125
1513.76081	65718.9125
1517.13816	64689.7125
1520.51324	63203.9125
1523.88607	62274.5125
1527.25665	62351.2125
1530.62498	62721.9125
1533.99105	62683.2125
1537.35488	62058.6125
1540.71647	60737.0125
1544.07581	59082.9125
1547.4329	57293.9125
1550.78776	55718.8125
1554.14038	54493.3125
1557.49077	53703.0125
1560.83892	53088.5125
1564.18484	52806.7125
1567.52853	52703.8125
1570.86999	53124.2125
1574.20922	54215.2125
1577.54624	55370.3125
1580.88103	56401.7125
1584.2136	57989.7125
1587.54395	60933.6125
1590.87208	65567.3125
1594.19801	70779.1125
1597.52172	74909.0125
1600.84321	75544.9125
1604.16251	71178.2125
1607.47959	63963.4125
1610.79447	56624.4125
1614.10715	50559.0125
1617.41763	46219.4125
1620.7259	43488.5125
1624.03199	42407.6125
1627.33587	42793.0125
1630.63757	44586.0125
1633.93707	48053.8125
1637.23439	53643.6125
1640.52951	61635.5125
1643.82246	71062.3125
1647.11321	77813.6125
1650.40179	77991.6125
1653.68819	70701.6125
1656.97241	59739.7125
1660.25446	49774.4125
1663.53433	42831.3125
1666.81203	38416.9125
1670.08756	35698.0125
1673.36092	33983.5125
1676.63211	32876.8125
1679.90115	32101.9125
1683.16801	31581.2125
1686.43272	31173.4125
1689.69527	30838.7125
1692.95567	30625.1125
1696.2139	30447.7125
1699.46999	30348.4125
1702.72392	30214.9125
1705.97571	30149.5125
1709.22535	30061.2125
1712.47284	30007.5125
1715.71819	29968.5125
1718.96139	29881.9125
1722.20246	29740.8125
1725.44139	29624.6125
1728.67818	29443.1125
1731.91284	29239.2125
1735.14537	29060.2125
1738.37576	28935.1125
1741.60403	28838.5125
1744.83017	28744.7125
1748.05418	28732.9125
1751.27607	28634.7125
1754.49584	28589.6125
1757.71349	28598.6125
1760.92903	28539.5125
1764.14244	28481.5125
1767.35375	28476.9125
1770.56294	28415.0125
1773.77002	28386.2125
1776.97499	28359.5125
1780.17785	28264.7125
1783.37861	28247.6125
1786.57727	28244.2125
1789.77382	28145.1125
1792.96828	28140.3125
1796.16064	28104.1125
1799.3509	28069.0125
1802.53907	28009.0125
1805.72514	27921.4125
1808.90913	27824.2125
1812.09102	27795.3125
1815.27083	27787.2125
1818.44856	27755.5125
1821.6242	27734.9125
1824.79776	27712.0125
1827.96924	27626.0125
1831.13864	27641.6125
1834.30597	27704.2125
1837.47122	27674.2125
1840.6344	27660.3125
1843.7955	27696.1125
1846.95454	27732.5125
1850.11151	27758.8125
1853.26642	27692.9125
1856.41926	27712.9125
1859.57004	27649.8125
1862.71876	27646.9125
1865.86542	27654.4125
1869.01003	27635.2125
1872.15258	27573.9125
1875.29308	27580.7125
1878.43152	27549.2125
1881.56792	27556.0125
1884.70227	27548.2125
1887.83457	27518.9125
1890.96482	27507.7125
1894.09304	27505.6125
1897.21921	27476.2125
1900.34335	27407.7125
1903.46544	27354.4125
1906.58551	27383.0125
1909.70353	27314.4125
1912.81953	27301.5125
1915.93349	27232.7125
1919.04543	27183.4125
1922.15534	27141.5125
1925.26322	27117.8125
1928.36908	27030.0125
1931.47292	26957.4125
1934.57473	26853.5125
1937.67453	26813.2125
1940.77232	26744.8125
1943.86808	26666.7125
1946.96184	26629.9125
1950.05358	26576.8125
1953.14331	26493.3125
1956.23103	26437.0125
1959.31675	26368.2125
1962.40046	26307.8125
1965.48217	26251.5125
1968.56188	26136.5125
1971.63959	26091.0125
1974.7153	26045.5125
1977.78901	25984.5125
1980.86073	25880.5125
1983.93046	25796.7125
1986.99819	25721.6125
1990.06394	25703.9125
1993.1277	25648.1125
1996.18947	25503.3125
1999.24925	25471.4125
2002.30706	25378.3125
2005.36288	25334.7125
2008.41672	25246.3125
2011.46859	25191.8125
2014.51848	25146.6125
2017.56639	25099.5125
2020.61233	25076.4125
2023.6563	25025.7125
2026.6983	24999.0125
2029.73833	24966.3125
2032.7764	24935.2125
2035.8125	24900.6125
2038.84664	24856.3125
2041.87881	24898.8125
2044.90903	24795.0125
2047.93729	24766.9125
2050.96359	24778.9125
2053.98794	24737.5125
2057.01034	24714.4125
2060.03078	24729.3125
2063.04927	24686.8125
2066.06582	24687.9125
2069.08042	24655.4125
2072.09307	24629.7125
2075.10378	24608.7125
2078.11255	24602.1125
2081.11938	24599.3125
2084.12426	24549.4125
2087.12722	24550.7125
2090.12824	24542.9125
2093.12732	24583.6125
2096.12447	24618.0125
2099.11969	24634.9125
2102.11299	24661.7125
2105.10435	24642.0125
2108.09379	24640.4125
2111.08131	24634.8125
2114.0669	24670.7125
2117.05057	24700.6125
2120.03233	24709.5125
2123.01216	24735.7125
2125.99008	24736.9125
2128.96609	24764.5125
2131.94018	24824.6125
2134.91236	24857.3125
2137.88263	24841.4125
2140.851	24882.6125
2143.81746	24898.1125
2146.78201	24912.9125
2149.74466	24935.1125
2152.7054	24923.3125
2155.66425	24889.6125
2158.6212	24914.0125
2161.57625	24891.5125
2164.52941	24938.6125
2167.48067	24894.1125
2170.43004	24904.4125
2173.37752	24861.9125
2176.32311	24923.1125
2179.26681	24879.3125
2182.20863	24907.8125
2185.14856	24935.2125
2188.08661	24943.5125
2191.02278	24967.6125
2193.95707	24969.0125
2196.88948	24959.1125
2199.82001	25019.3125
2202.74867	25005.9125
2205.67545	24970.8125
2208.60037	24987.0125
2211.52341	24974.4125
2214.44458	24949.8125
2217.36388	24895.0125
2220.28132	24896.9125
2223.1969	24825.5125
2226.11061	24841.3125
2229.02246	24792.9125
2231.93245	24769.6125
2234.84058	24746.8125
2237.74686	24688.5125
2240.65128	24669.4125
2243.55385	24613.2125
2246.45456	24592.4125
2249.35343	24611.9125
2252.25044	24562.9125
2255.14561	24499.1125
2258.03893	24472.1125
2260.93041	24406.3125
2263.82004	24345.4125
2266.70783	24271.3125
2269.59378	24188.9125
2272.4779	24159.6125
2275.36017	24097.8125
2278.24061	24106.8125
2281.11922	24097.1125
2283.996	24058.3125
2286.87094	24012.4125
2289.74405	24018.1125
2292.61534	23969.1125
2295.4848	24031.1125
2298.35243	24042.3125
2301.21824	24041.5125
2304.08223	24106.6125
2306.94439	24144.3125
2309.80474	24136.7125
2312.66327	24132.2125
2315.51999	24135.3125
2318.37489	24128.9125
2321.22797	24111.2125
2324.07925	24097.5125
2326.92871	24091.7125
2329.77637	24092.4125
2332.62222	24093.7125
2335.46626	24094.8125
2338.3085	24023.7125
2341.14893	24049.0125
2343.98756	24102.7125
2346.8244	24094.5125
2349.65943	24099.4125
2352.49267	24070.9125
2355.32411	24095.2125
2358.15376	24032.9125
2360.98161	24064.2125
2363.80768	23939.0125
2366.63195	23931.2125
2369.45444	23923.5125
2372.27514	23909.3125
2375.09405	23877.5125
2377.91118	23837.3125
2380.72652	23806.0125
2383.54009	23733.7125
2386.35187	23794.9125
2389.16188	23732.8125
2391.97011	23702.3125
2394.77657	23642.9125
2397.58125	23604.1125
2400.38416	23603.6125
2403.18529	23567.6125
2405.98466	23570.9125
2408.78226	23503.7125
2411.57809	23501.1125
2414.37216	23498.2125
2417.16446	23487.4125
2419.955	23456.5125
2422.74378	23455.1125
2425.5308	23420.5125
2428.31606	23433.1125
2431.09956	23392.8125
2433.88131	23359.2125
2436.6613	23389.6125
2439.43954	23401.8125
2442.21603	23373.1125
2444.99077	23334.7125
2447.76377	23359.1125
2450.53501	23331.4125
2453.30451	23344.2125
2456.07226	23341.1125
2458.83827	23386.7125
2461.60254	23385.9125
2464.36507	23383.1125
2467.12586	23395.8125
2469.88492	23400.3125
2472.64224	23395.7125
2475.39782	23445.8125
2478.15167	23495.1125
2480.90379	23507.5125
2483.65417	23481.8125
2486.40283	23513.8125
2489.14976	23527.0125
2491.89497	23546.7125
2494.63845	23584.1125
2497.3802	23567.7125
2500.12024	23569.0125
2502.85855	23551.7125
2505.59514	23561.6125
2508.33002	23542.4125
2511.06318	23549.1125
2513.79462	23500.0125
2516.52435	23514.7125
2519.25237	23536.2125
2521.97867	23520.4125
2524.70327	23533.3125
2527.42616	23525.7125
2530.14734	23510.6125
2532.86681	23490.4125
2535.58458	23529.8125
2538.30065	23474.2125
2541.01501	23409.0125
2543.72768	23427.5125
2546.43864	23427.6125
2549.14791	23367.7125
2551.85548	23393.9125
2554.56136	23431.6125
2557.26554	23447.3125
2559.96803	23430.9125
2562.66883	23396.6125
2565.36794	23419.5125
2568.06536	23401.4125
2570.7611	23415.7125
2573.45514	23382.9125
2576.14751	23368.3125
2578.83819	23410.5125
2581.52719	23391.6125
2584.21451	23384.5125
2586.90015	23380.8125
2589.58411	23374.5125
2592.2664	23392.4125
2594.94701	23411.6125
2597.62594	23426.2125
2600.30321	23350.3125
2602.9788	23362.0125
2605.65273	23359.1125
2608.32498	23335.3125
2610.99557	23383.8125
2613.66449	23406.0125
2616.33175	23361.2125
2618.99734	23377.2125
2621.66128	23399.0125
2624.32355	23378.0125
2626.98416	23426.6125
2629.64311	23425.6125
2632.30041	23390.3125
2634.95605	23363.9125
2637.61004	23350.0125
2640.26238	23361.8125
2642.91306	23308.2125
2645.56209	23272.9125
2648.20948	23247.4125
2650.85521	23296.1125
2653.4993	23277.6125
2656.14175	23306.1125
2658.78255	23389.6125
2661.42171	23342.9125
2664.05923	23406.0125
2666.6951	23443.8125
2669.32934	23448.6125
2671.96194	23442.8125
2674.59291	23459.7125
2677.22224	23465.8125
2679.84993	23474.7125
2682.476	23437.5125
2685.10043	23439.0125
2687.72324	23430.5125
2690.34441	23365.4125
2692.96396	23396.9125
2695.58188	23424.9125
2698.19818	23399.5125
2700.81285	23392.3125
2703.4259	23423.2125
2706.03733	23454.7125
2708.64714	23482.1125
2711.25533	23493.2125
2713.86191	23466.7125
2716.46687	23487.3125
2719.07021	23487.5125
2721.67194	23557.6125
2724.27206	23535.5125
2726.87057	23556.2125
2729.46747	23599.8125
2732.06276	23592.1125
2734.65644	23594.8125
2737.24852	23563.7125
2739.83899	23544.5125
2742.42786	23583.2125
2745.01513	23550.0125
2747.60079	23632.9125
2750.18486	23598.2125
2752.76733	23678.1125
2755.3482	23665.6125
2757.92747	23682.5125
2760.50515	23634.4125
2763.08123	23697.7125
2765.65573	23644.1125
2768.22863	23606.7125
2770.79994	23600.3125
2773.36967	23596.8125
2775.9378	23633.4125
2778.50435	23653.4125
2781.06932	23637.3125
2783.6327	23657.5125
2786.1945	23652.3125
2788.75471	23628.3125
2791.31335	23544.1125
2793.87041	23571.9125
2796.42589	23513.1125
2798.97979	23472.4125
2801.53212	23482.4125
2804.08288	23460.3125
2806.63206	23428.2125
2809.17967	23415.9125
2811.72571	23373.7125
2814.27018	23339.0125
2816.81308	23317.3125
2819.35442	23244.8125
2821.89419	23230.9125
2824.43239	23225.7125
2826.96904	23225.7125
2829.50412	23230.8125
2832.03763	23185.2125
2834.56959	23195.1125
2837.1	23162.5125
2839.62884	23219.6125
2842.15613	23184.0125
2844.68186	23228.9125
2847.20604	23246.1125
2849.72867	23265.0125
2852.24974	23257.7125
2854.76927	23226.0125
2857.28724	23223.7125
2859.80367	23233.0125
2862.31855	23166.5125
2864.83189	23141.9125
2867.34368	23100.5125
2869.85393	23100.7125
2872.36264	23063.6125
2874.8698	23105.3125
2877.37543	23093.7125
2879.87952	23091.1125
2882.38207	23172.3125
2884.88308	23151.7125
2887.38256	23168.3125
2889.88051	23182.4125
2892.37692	23195.2125
2894.8718	23256.3125
2897.36515	23276.9125
2899.85698	23294.3125
2902.34727	23305.6125
2904.83604	23337.1125
2907.32328	23365.1125
2909.809	23368.6125
2912.29319	23346.4125
2914.77587	23313.3125
2917.25702	23345.3125
2919.73665	23312.1125
2922.21476	23345.7125
2924.69136	23300.9125
2927.16644	23379.5125
2929.64	23360.1125
2932.11205	23327.1125
2934.58258	23272.6125
2937.05161	23342.0125
2939.51912	23336.7125
2941.98513	23292.9125
2944.44962	23253.8125
2946.91261	23172.6125
2949.37409	23210.8125
2951.83407	23195.6125
2954.29254	23178.9125
2956.74951	23174.8125
2959.20498	23173.9125
2961.65895	23111.6125
2964.11142	23112.4125
2966.56239	23094.2125
2969.01186	23100.9125
2971.45984	23036.6125
2973.90632	23031.6125
2976.35131	22919.2125
2978.7948	22896.2125
2981.23681	22831.5125
2983.67732	22840.3125
2986.11635	22754.0125
2988.55388	22711.2125
2990.98993	22679.1125
2993.4245	22662.8125
2995.85758	22595.7125
2998.28917	22567.1125
3000.71928	22541.4125
3003.14791	22490.0125
3005.57506	22502.7125
3008.00073	22431.4125
3010.42493	22459.8125
3012.84764	22375.8125
3015.26888	22353.9125
3017.68865	22299.7125
3020.10694	22243.9125
3022.52376	22238.7125
3024.9391	22200.6125
3027.35298	22178.2125
3029.76539	22161.2125
3032.17632	22096.1125
3034.5858	22079.5125
3036.9938	22135.5125
3039.40034	22113.6125
3041.80542	22158.9125
3044.20903	22078.3125
3046.61118	22081.8125
3049.01187	22006.1125
3051.4111	21972.7125
3053.80888	21972.5125
3056.20519	21914.9125
3058.60005	21877.9125
3060.99345	21889.4125
3063.3854	21806.4125
3065.7759	21734.2125
3068.16494	21722.0125
3070.55254	21604.6125
3072.93868	21562.1125
3075.32338	21566.8125
3077.70662	21503.4125
3080.08842	21488.9125
3082.46878	21485.0125
3084.84769	21455.7125
3087.22515	21470.3125
3089.60118	21425.9125
3091.97576	21428.8125
3094.3489	21403.0125
3096.72061	21360.6125
3099.09087	21388.8125
3101.4597	21311.1125
3103.82709	21365.1125
3106.19305	21317.4125
3108.55757	21323.8125
3110.92066	21252.1125
3113.28232	21195.0125
3115.64255	21171.6125
3118.00134	21146.4125
3120.35871	21122.5125
3122.71466	21053.4125
3125.06917	21024.7125
3127.42226	20967.0125
3129.77393	21020.3125
3132.12417	20986.1125
3134.47299	21005.1125
3136.82039	20993.1125
3139.16636	21004.9125
3141.51092	20947.6125
3143.85406	21000.4125
3146.19579	20951.7125
3148.53609	20938.1125
3150.87499	20939.4125
3153.21246	20975.6125
3155.54853	20991.8125
3157.88318	20945.1125
3160.21642	20962.9125
3162.54826	20903.1125
3164.87868	20920.7125
3167.2077	20904.2125
3169.5353	20881.0125
3171.86151	20868.5125
3174.18631	20902.8125
3176.5097	20857.3125
3178.83169	20837.5125
3181.15228	20870.0125
3183.47147	20844.5125
3185.78926	20841.7125
3188.10565	20828.3125
3190.42065	20862.5125
3192.73424	20809.1125
3195.04645	20773.7125
3197.35725	20771.9125
3199.66667	20761.1125
3201.97469	20809.2125
3204.28132	20765.3125
3206.58656	20753.0125
3208.8904	20767.1125
3211.19287	20840.5125
3213.49394	20805.9125
3215.79363	20779.9125
3218.09193	20781.3125
3220.38884	20778.8125
3222.68438	20769.0125
3224.97853	20769.4125
3227.2713	20753.1125
3229.56269	20730.5125
3231.8527	20711.3125
3234.14133	20682.4125
3236.42858	20642.9125
3238.71446	20627.4125
3240.99896	20628.0125
3243.28209	20609.0125
3245.56384	20597.7125
3247.84423	20608.9125
3250.12324	20578.7125
3252.40088	20556.4125
3254.67715	20580.6125
3256.95205	20493.2125
3259.22558	20507.5125
3261.49775	20469.9125
3263.76855	20416.8125
3266.03799	20356.1125
3268.30606	20379.9125
3270.57277	20358.1125
3272.83812	20338.7125
3275.10211	20302.2125
3277.36474	20292.9125
3279.62601	20286.6125
3281.88593	20274.8125
3284.14448	20290.5125
3286.40168	20289.7125
3288.65753	20252.1125
3290.91202	20213.6125
3293.16516	20172.0125
3295.41695	20128.7125
3297.66738	20039.9125
3299.91647	19954.7125
3302.16421	19815.1125
3304.4106	19772.5125
3306.65564	19651.5125
3308.89933	19543.8125
3311.14169	19445.5125
3313.38269	19309.3125
3315.62236	19180.9125
3317.86068	19056.5125
3320.09766	18853.5125
3322.3333	18665.6125
3324.5676	18682.0125
3326.80056	18399.7125
3329.03219	18319.1125
3331.26248	3.9125
3333.49143	0.1125
3335.71905	0.1125
