Data from AgNPs_FTO_APTES_UA_2uM_CRN_100uM_R6G_10uM_NaF_0.1M_Addition_RamanShift__16__15-56-45-321.txt Node

Date: Wed Feb 02 15:56:45 GMT 2022
User: TCL
Spectrometer: QEP01345
Trigger mode: 4
Integration Time (sec): 7.000000E0
Scans to average: 10
Electric dark correction enabled: true
Nonlinearity correction enabled: false
Boxcar width: 0
XAxis mode: Raman Shifts
Number of Pixels in Spectrum: 1044
>>>>>Begin Spectral Data<<<<<
46.04893	-0.2875
50.45542	0.2125
54.85868	-0.3875
59.25871	-0.0875
63.6555	67.9125
68.04907	74.3125
72.43941	76.1125
76.82654	83.2125
81.21044	83.6125
85.59113	92.1125
89.96862	92.3125
94.34289	96.2125
98.71396	100.7125
103.08183	105.9125
107.4465	105.3125
111.80798	108.6125
116.16626	109.2125
120.52136	112.4125
124.87327	113.9125
129.222	120.2125
133.56755	129.7125
137.90993	133.7125
142.24913	146.9125
146.58517	170.0125
150.91804	186.9125
155.24774	228.7125
159.57429	282.1125
163.89768	348.8125
168.21792	459.0125
172.53501	624.0125
176.84895	866.9125
181.15975	1215.9125
185.46741	1704.0125
189.77193	2319.8125
194.07331	3116.7125
198.37157	4013.5125
202.6667	4969.4125
206.9587	5888.8125
211.24758	6825.5125
215.53334	7747.6125
219.81599	8710.0125
224.09553	9777.9125
228.37195	10975.8125
232.64527	12246.8125
236.91549	13582.2125
241.18261	14943.2125
245.44663	16232.0125
249.70755	17423.0125
253.96539	18409.8125
258.22014	19298.9125
262.4718	20052.9125
266.72039	20554.7125
270.96589	20923.6125
275.20832	21014.9125
279.44768	21011.2125
283.68397	20959.3125
287.91719	20954.3125
292.14735	20995.5125
296.37445	21124.6125
300.59849	21237.7125
304.81948	21212.0125
309.03742	20984.5125
313.25231	20596.2125
317.46415	19973.8125
321.67296	19230.7125
325.87872	18656.2125
330.08145	18318.8125
334.28114	18221.5125
338.47781	18286.1125
342.67145	18455.4125
346.86207	18699.2125
351.04966	18957.6125
355.23424	19219.9125
359.4158	19448.7125
363.59435	19546.9125
367.76989	19658.4125
371.94243	19715.5125
376.11196	19812.4125
380.27849	19913.2125
384.44203	20027.9125
388.60257	20211.8125
392.76012	20442.3125
396.91468	20736.2125
401.06626	21063.8125
405.21485	21239.9125
409.36047	21180.7125
413.50311	20892.6125
417.64277	20629.3125
421.77947	20566.6125
425.9132	20624.3125
430.04396	20764.4125
434.17176	20927.0125
438.2966	21015.9125
442.41849	21304.0125
446.53742	21809.8125
450.6534	22423.9125
454.76644	22904.0125
458.87653	23135.4125
462.98368	23156.2125
467.08789	23132.8125
471.18916	23019.7125
475.2875	23039.2125
479.38291	23144.1125
483.4754	23070.1125
487.56496	22708.3125
491.6516	22114.0125
495.73531	21542.9125
499.81612	21268.4125
503.89401	21226.4125
507.96899	21234.2125
512.04106	21149.1125
516.11023	20938.4125
520.1765	20703.3125
524.23987	20394.9125
528.30034	20149.5125
532.35792	19953.0125
536.41261	19786.5125
540.46441	19642.0125
544.51333	19815.9125
548.55936	20196.7125
552.60252	20692.1125
556.64279	21335.9125
560.6802	21782.9125
564.71473	22065.1125
568.7464	22501.1125
572.7752	23152.1125
576.80114	23688.1125
580.82422	24049.3125
584.84444	24300.9125
588.86181	24403.0125
592.87633	24409.3125
596.888	24321.1125
600.89682	24251.1125
604.9028	24694.3125
608.90594	26081.0125
612.90624	27248.6125
616.90371	25428.0125
620.89834	21666.5125
624.89015	19993.0125
628.87913	19845.2125
632.86528	20125.5125
636.84862	20223.9125
640.82913	20043.7125
644.80683	19527.4125
648.78172	19051.9125
652.75379	18861.7125
656.72306	18937.9125
660.68952	19163.5125
664.65319	19081.9125
668.61405	18819.6125
672.57211	18779.7125
676.52738	18832.4125
680.47986	18880.1125
684.42955	18863.3125
688.37646	18721.2125
692.32058	18705.0125
696.26192	18852.7125
700.20048	19041.4125
704.13626	19187.0125
708.06928	19273.3125
711.99952	19202.9125
715.927	19142.8125
719.85171	19112.0125
723.77365	19044.6125
727.69284	18858.6125
731.60928	18684.5125
735.52295	18545.4125
739.43388	18522.3125
743.34206	18525.7125
747.24749	18628.5125
751.15017	18803.9125
755.05012	19199.4125
758.94733	19875.9125
762.8418	20953.2125
766.73354	22581.9125
770.62254	24042.1125
774.50882	24171.0125
778.39237	22899.2125
782.27321	21115.6125
786.15132	19739.6125
790.02671	18881.0125
793.89938	18460.7125
797.76935	18263.8125
801.6366	18211.4125
805.50115	18156.8125
809.36299	18093.3125
813.22213	17943.3125
817.07857	17922.6125
820.93231	17895.2125
824.78336	17776.4125
828.63172	17724.3125
832.47738	17605.6125
836.32036	17586.0125
840.16066	17600.7125
843.99827	17590.6125
847.8332	17563.9125
851.66546	17446.6125
855.49504	17446.2125
859.32195	17428.7125
863.1462	17387.7125
866.96777	17288.8125
870.78668	17317.7125
874.60293	17284.9125
878.41652	17298.2125
882.22745	17321.6125
886.03573	17320.5125
889.84136	17361.2125
893.64433	17324.5125
897.44466	17266.4125
901.24235	17185.8125
905.0374	17123.2125
908.8298	17082.0125
912.61957	17186.5125
916.40671	17384.4125
920.19121	17615.6125
923.97308	17800.5125
927.75233	17712.9125
931.52895	17515.9125
935.30295	17252.5125
939.07433	16897.6125
942.84309	16611.1125
946.60924	16428.5125
950.37278	16328.9125
954.13371	16304.8125
957.89203	16363.9125
961.64774	16330.6125
965.40086	16328.8125
969.15137	16266.7125
972.89929	16129.8125
976.64461	16042.9125
980.38733	15984.8125
984.12747	15998.7125
987.86502	16097.3125
991.59999	16205.9125
995.33237	16387.5125
999.06217	16683.1125
1002.78939	17042.2125
1006.51404	17295.8125
1010.23611	17457.3125
1013.95561	17603.8125
1017.67255	17672.8125
1021.38692	17545.8125
1025.09872	17362.5125
1028.80796	17218.7125
1032.51465	17363.5125
1036.21877	17528.1125
1039.92035	17668.8125
1043.61937	17618.6125
1047.31584	17524.9125
1051.00976	17492.0125
1054.70114	17468.0125
1058.38998	17632.5125
1062.07627	17899.2125
1065.76003	18196.8125
1069.44126	18332.3125
1073.11995	18563.9125
1076.79611	18742.1125
1080.46974	18834.6125
1084.14085	18899.4125
1087.80943	18998.6125
1091.47549	19227.5125
1095.13903	19345.1125
1098.80005	19206.9125
1102.45857	18770.6125
1106.11456	18281.7125
1109.76805	18053.3125
1113.41903	18027.7125
1117.06751	18160.9125
1120.71348	18352.6125
1124.35696	18614.2125
1127.99793	18875.7125
1131.63641	19070.8125
1135.2724	18972.4125
1138.90589	18862.8125
1142.5369	18895.8125
1146.16542	19060.6125
1149.79145	19289.8125
1153.415	19641.9125
1157.03607	20070.7125
1160.65467	20724.7125
1164.27079	21634.4125
1167.88443	22843.1125
1171.49561	24307.3125
1175.10432	26159.7125
1178.71056	28398.8125
1182.31434	30448.1125
1185.91565	31684.6125
1189.51451	31929.8125
1193.11091	31455.6125
1196.70485	30428.1125
1200.29634	29129.0125
1203.88538	28028.9125
1207.47197	27259.9125
1211.05612	26726.9125
1214.63782	26161.9125
1218.21708	25484.8125
1221.79391	24760.6125
1225.36829	24209.9125
1228.94024	23756.5125
1232.50976	23321.4125
1236.07685	23014.2125
1239.6415	22856.6125
1243.20374	22874.3125
1246.76355	23037.1125
1250.32093	23323.9125
1253.8759	23769.3125
1257.42845	24472.5125
1260.97859	25150.4125
1264.52631	25818.5125
1268.07163	26458.2125
1271.61453	27195.9125
1275.15503	28038.1125
1278.69312	28929.6125
1282.22882	29873.4125
1285.76211	30827.5125
1289.29301	32128.5125
1292.82151	33705.1125
1296.34761	35726.3125
1299.87133	37964.9125
1303.39266	40132.1125
1306.9116	42088.7125
1310.42815	43761.0125
1313.94233	44797.8125
1317.45412	45087.5125
1320.96354	44999.7125
1324.47058	45000.1125
1327.97525	45084.9125
1331.47754	44955.0125
1334.97747	44874.5125
1338.47502	44797.0125
1341.97022	44598.4125
1345.46305	43996.4125
1348.95352	43009.3125
1352.44163	41857.8125
1355.92738	41052.8125
1359.41078	41186.0125
1362.89183	41525.2125
1366.37053	40717.7125
1369.84688	38032.8125
1373.32088	34822.5125
1376.79254	32579.2125
1380.26186	31745.3125
1383.72883	31968.8125
1387.19347	32368.8125
1390.65578	32574.0125
1394.11575	32890.3125
1397.57339	33400.2125
1401.0287	33979.1125
1404.48168	34395.0125
1407.93234	34165.5125
1411.38068	33118.6125
1414.82669	31594.2125
1418.27039	29814.0125
1421.71177	28117.2125
1425.15083	26800.6125
1428.58758	26027.1125
1432.02203	26040.2125
1435.45416	26504.0125
1438.88399	27422.8125
1442.31151	28283.1125
1445.73673	29037.2125
1449.15965	29803.2125
1452.58027	30475.9125
1455.9986	30993.4125
1459.41463	31502.4125
1462.82837	31951.6125
1466.23982	32410.0125
1469.64898	32655.4125
1473.05586	32682.2125
1476.46045	32447.6125
1479.86276	31970.7125
1483.26279	31418.4125
1486.66054	30971.5125
1490.05602	30919.9125
1493.44922	31061.6125
1496.84016	31427.4125
1500.22882	32110.0125
1503.61521	33231.5125
1506.99934	34570.0125
1510.38121	35574.7125
1513.76081	36022.4125
1517.13816	35464.7125
1520.51324	34363.0125
1523.88607	33510.6125
1527.25665	33006.8125
1530.62498	32890.6125
1533.99105	32808.7125
1537.35488	32514.3125
1540.71647	31958.3125
1544.07581	31117.8125
1547.4329	30218.8125
1550.78776	29413.1125
1554.14038	28930.4125
1557.49077	28742.3125
1560.83892	28719.6125
1564.18484	28713.7125
1567.52853	28825.8125
1570.86999	29040.5125
1574.20922	29582.5125
1577.54624	30132.4125
1580.88103	30541.0125
1584.2136	30902.1125
1587.54395	31713.2125
1590.87208	32830.8125
1594.19801	34269.0125
1597.52172	35681.6125
1600.84321	35890.1125
1604.16251	34425.9125
1607.47959	31885.3125
1610.79447	29241.9125
1614.10715	26696.2125
1617.41763	24491.6125
1620.7259	22889.1125
1624.03199	21928.7125
1627.33587	21757.3125
1630.63757	22373.1125
1633.93707	23747.0125
1637.23439	26174.1125
1640.52951	29534.6125
1643.82246	33451.7125
1647.11321	36588.3125
1650.40179	37524.1125
1653.68819	35518.4125
1656.97241	31280.6125
1660.25446	26633.5125
1663.53433	22926.9125
1666.81203	20249.2125
1670.08756	18548.7125
1673.36092	17422.8125
1676.63211	16722.4125
1679.90115	16203.1125
1683.16801	15860.7125
1686.43272	15578.6125
1689.69527	15382.9125
1692.95567	15220.5125
1696.2139	15126.8125
1699.46999	15058.2125
1702.72392	14923.4125
1705.97571	14850.3125
1709.22535	14759.7125
1712.47284	14704.6125
1715.71819	14643.1125
1718.96139	14579.1125
1722.20246	14522.9125
1725.44139	14458.8125
1728.67818	14342.9125
1731.91284	14282.3125
1735.14537	14201.3125
1738.37576	14127.0125
1741.60403	14083.5125
1744.83017	14022.8125
1748.05418	14010.8125
1751.27607	14004.4125
1754.49584	13974.0125
1757.71349	13980.5125
1760.92903	13959.6125
1764.14244	13944.9125
1767.35375	13881.7125
1770.56294	13809.0125
1773.77002	13764.2125
1776.97499	13708.6125
1780.17785	13678.5125
1783.37861	13643.5125
1786.57727	13584.0125
1789.77382	13555.0125
1792.96828	13508.4125
1796.16064	13458.5125
1799.3509	13422.1125
1802.53907	13400.9125
1805.72514	13343.1125
1808.90913	13325.2125
1812.09102	13321.1125
1815.27083	13258.6125
1818.44856	13265.3125
1821.6242	13199.3125
1824.79776	13222.2125
1827.96924	13190.8125
1831.13864	13169.3125
1834.30597	13146.8125
1837.47122	13175.4125
1840.6344	13155.6125
1843.7955	13167.6125
1846.95454	13164.3125
1850.11151	13158.1125
1853.26642	13129.5125
1856.41926	13117.9125
1859.57004	13121.3125
1862.71876	13074.4125
1865.86542	13075.6125
1869.01003	13055.3125
1872.15258	13002.3125
1875.29308	12983.8125
1878.43152	12999.1125
1881.56792	12990.1125
1884.70227	12968.1125
1887.83457	12955.0125
1890.96482	12967.3125
1894.09304	12926.5125
1897.21921	12913.5125
1900.34335	12894.4125
1903.46544	12857.1125
1906.58551	12881.9125
1909.70353	12821.9125
1912.81953	12781.8125
1915.93349	12747.3125
1919.04543	12732.9125
1922.15534	12707.9125
1925.26322	12666.7125
1928.36908	12649.9125
1931.47292	12612.4125
1934.57473	12562.7125
1937.67453	12539.5125
1940.77232	12523.6125
1943.86808	12470.3125
1946.96184	12445.4125
1950.05358	12378.7125
1953.14331	12371.6125
1956.23103	12324.7125
1959.31675	12273.7125
1962.40046	12243.4125
1965.48217	12204.9125
1968.56188	12142.2125
1971.63959	12140.7125
1974.7153	12088.0125
1977.78901	12045.5125
1980.86073	12025.9125
1983.93046	11946.4125
1986.99819	11880.2125
1990.06394	11854.3125
1993.1277	11848.9125
1996.18947	11826.5125
1999.24925	11781.7125
2002.30706	11731.6125
2005.36288	11696.5125
2008.41672	11663.4125
2011.46859	11621.8125
2014.51848	11598.0125
2017.56639	11564.2125
2020.61233	11503.9125
2023.6563	11478.0125
2026.6983	11468.6125
2029.73833	11434.3125
2032.7764	11413.3125
2035.8125	11399.7125
2038.84664	11408.1125
2041.87881	11381.4125
2044.90903	11343.6125
2047.93729	11333.3125
2050.96359	11316.6125
2053.98794	11282.5125
2057.01034	11289.4125
2060.03078	11279.1125
2063.04927	11283.5125
2066.06582	11248.9125
2069.08042	11232.6125
2072.09307	11239.4125
2075.10378	11199.4125
2078.11255	11213.9125
2081.11938	11211.6125
2084.12426	11198.6125
2087.12722	11172.5125
2090.12824	11163.6125
2093.12732	11178.1125
2096.12447	11165.0125
2099.11969	11186.1125
2102.11299	11169.4125
2105.10435	11201.0125
2108.09379	11187.5125
2111.08131	11173.2125
2114.0669	11168.7125
2117.05057	11192.3125
2120.03233	11182.8125
2123.01216	11189.6125
2125.99008	11192.3125
2128.96609	11194.4125
2131.94018	11202.0125
2134.91236	11176.9125
2137.88263	11208.8125
2140.851	11196.9125
2143.81746	11229.4125
2146.78201	11213.6125
2149.74466	11233.9125
2152.7054	11209.5125
2155.66425	11204.5125
2158.6212	11218.6125
2161.57625	11190.9125
2164.52941	11203.6125
2167.48067	11176.4125
2170.43004	11146.1125
2173.37752	11144.3125
2176.32311	11132.6125
2179.26681	11175.6125
2182.20863	11145.5125
2185.14856	11148.6125
2188.08661	11138.2125
2191.02278	11132.7125
2193.95707	11103.2125
2196.88948	11135.7125
2199.82001	11112.1125
2202.74867	11114.9125
2205.67545	11079.6125
2208.60037	11077.5125
2211.52341	11032.4125
2214.44458	11033.3125
2217.36388	10992.3125
2220.28132	10990.0125
2223.1969	10980.3125
2226.11061	10952.4125
2229.02246	10904.7125
2231.93245	10936.0125
2234.84058	10865.8125
2237.74686	10841.5125
2240.65128	10841.8125
2243.55385	10834.6125
2246.45456	10817.0125
2249.35343	10797.6125
2252.25044	10770.5125
2255.14561	10755.5125
2258.03893	10782.2125
2260.93041	10725.4125
2263.82004	10691.4125
2266.70783	10665.4125
2269.59378	10646.3125
2272.4779	10587.1125
2275.36017	10566.3125
2278.24061	10540.2125
2281.11922	10531.1125
2283.996	10505.9125
2286.87094	10494.6125
2289.74405	10452.3125
2292.61534	10436.5125
2295.4848	10439.9125
2298.35243	10452.2125
2301.21824	10419.3125
2304.08223	10423.6125
2306.94439	10432.0125
2309.80474	10407.2125
2312.66327	10420.3125
2315.51999	10404.8125
2318.37489	10405.0125
2321.22797	10387.8125
2324.07925	10373.0125
2326.92871	10379.8125
2329.77637	10360.7125
2332.62222	10345.3125
2335.46626	10336.5125
2338.3085	10316.6125
2341.14893	10305.1125
2343.98756	10312.1125
2346.8244	10318.2125
2349.65943	10332.6125
2352.49267	10322.9125
2355.32411	10304.8125
2358.15376	10307.1125
2360.98161	10294.9125
2363.80768	10294.6125
2366.63195	10253.3125
2369.45444	10262.3125
2372.27514	10233.7125
2375.09405	10225.9125
2377.91118	10217.1125
2380.72652	10181.7125
2383.54009	10164.3125
2386.35187	10144.6125
2389.16188	10124.4125
2391.97011	10108.7125
2394.77657	10086.0125
2397.58125	10068.1125
2400.38416	10064.3125
2403.18529	10016.3125
2405.98466	10008.8125
2408.78226	9998.7125
2411.57809	9971.1125
2414.37216	9974.1125
2417.16446	9962.8125
2419.955	9960.3125
2422.74378	9967.1125
2425.5308	9955.9125
2428.31606	9951.0125
2431.09956	9936.4125
2433.88131	9906.8125
2436.6613	9913.9125
2439.43954	9913.6125
2442.21603	9920.4125
2444.99077	9888.4125
2447.76377	9895.6125
2450.53501	9897.8125
2453.30451	9888.7125
2456.07226	9856.0125
2458.83827	9886.1125
2461.60254	9875.7125
2464.36507	9860.5125
2467.12586	9880.2125
2469.88492	9867.5125
2472.64224	9871.1125
2475.39782	9864.2125
2478.15167	9863.4125
2480.90379	9847.9125
2483.65417	9862.5125
2486.40283	9875.6125
2489.14976	9857.6125
2491.89497	9868.5125
2494.63845	9883.3125
2497.3802	9866.0125
2500.12024	9854.4125
2502.85855	9863.2125
2505.59514	9864.5125
2508.33002	9873.0125
2511.06318	9853.5125
2513.79462	9836.9125
2516.52435	9812.9125
2519.25237	9814.4125
2521.97867	9814.7125
2524.70327	9788.1125
2527.42616	9773.2125
2530.14734	9777.0125
2532.86681	9764.4125
2535.58458	9781.6125
2538.30065	9742.2125
2541.01501	9734.2125
2543.72768	9720.4125
2546.43864	9712.9125
2549.14791	9684.4125
2551.85548	9692.5125
2554.56136	9681.4125
2557.26554	9687.7125
2559.96803	9651.4125
2562.66883	9655.1125
2565.36794	9651.6125
2568.06536	9626.2125
2570.7611	9639.3125
2573.45514	9619.5125
2576.14751	9634.2125
2578.83819	9576.2125
2581.52719	9597.1125
2584.21451	9588.5125
2586.90015	9608.6125
2589.58411	9580.1125
2592.2664	9579.3125
2594.94701	9566.3125
2597.62594	9567.0125
2600.30321	9550.6125
2602.9788	9543.3125
2605.65273	9549.3125
2608.32498	9541.6125
2610.99557	9543.5125
2613.66449	9544.0125
2616.33175	9538.2125
2618.99734	9565.1125
2621.66128	9535.5125
2624.32355	9533.8125
2626.98416	9519.6125
2629.64311	9534.9125
2632.30041	9551.0125
2634.95605	9531.9125
2637.61004	9513.6125
2640.26238	9491.4125
2642.91306	9518.2125
2645.56209	9492.6125
2648.20948	9494.8125
2650.85521	9496.2125
2653.4993	9488.7125
2656.14175	9508.5125
2658.78255	9503.3125
2661.42171	9504.2125
2664.05923	9517.0125
2666.6951	9516.5125
2669.32934	9541.5125
2671.96194	9482.6125
2674.59291	9512.2125
2677.22224	9510.4125
2679.84993	9516.8125
2682.476	9478.9125
2685.10043	9502.9125
2687.72324	9463.5125
2690.34441	9500.0125
2692.96396	9487.3125
2695.58188	9478.5125
2698.19818	9448.5125
2700.81285	9474.8125
2703.4259	9488.6125
2706.03733	9533.4125
2708.64714	9521.3125
2711.25533	9511.1125
2713.86191	9501.8125
2716.46687	9518.1125
2719.07021	9534.4125
2721.67194	9528.4125
2724.27206	9518.8125
2726.87057	9539.6125
2729.46747	9546.3125
2732.06276	9531.1125
2734.65644	9536.1125
2737.24852	9557.6125
2739.83899	9526.9125
2742.42786	9510.8125
2745.01513	9499.1125
2747.60079	9503.0125
2750.18486	9492.2125
2752.76733	9503.2125
2755.3482	9495.3125
2757.92747	9512.7125
2760.50515	9518.4125
2763.08123	9527.1125
2765.65573	9506.7125
2768.22863	9504.7125
2770.79994	9479.9125
2773.36967	9506.4125
2775.9378	9487.5125
2778.50435	9487.9125
2781.06932	9481.4125
2783.6327	9482.6125
2786.1945	9458.9125
2788.75471	9460.2125
2791.31335	9448.0125
2793.87041	9455.0125
2796.42589	9434.5125
2798.97979	9420.0125
2801.53212	9425.9125
2804.08288	9421.5125
2806.63206	9392.8125
2809.17967	9363.9125
2811.72571	9343.3125
2814.27018	9354.3125
2816.81308	9326.4125
2819.35442	9312.5125
2821.89419	9289.0125
2824.43239	9284.7125
2826.96904	9275.5125
2829.50412	9253.0125
2832.03763	9257.1125
2834.56959	9256.5125
2837.1	9239.1125
2839.62884	9265.3125
2842.15613	9240.3125
2844.68186	9288.0125
2847.20604	9317.1125
2849.72867	9326.5125
2852.24974	9321.0125
2854.76927	9300.4125
2857.28724	9273.1125
2859.80367	9271.6125
2862.31855	9259.0125
2864.83189	9265.0125
2867.34368	9245.0125
2869.85393	9261.7125
2872.36264	9223.7125
2874.8698	9245.4125
2877.37543	9249.5125
2879.87952	9253.7125
2882.38207	9241.8125
2884.88308	9240.4125
2887.38256	9252.2125
2889.88051	9238.9125
2892.37692	9231.8125
2894.8718	9254.9125
2897.36515	9279.7125
2899.85698	9240.5125
2902.34727	9279.6125
2904.83604	9303.5125
2907.32328	9322.3125
2909.809	9302.4125
2912.29319	9296.0125
2914.77587	9288.5125
2917.25702	9299.4125
2919.73665	9279.6125
2922.21476	9288.6125
2924.69136	9276.1125
2927.16644	9295.4125
2929.64	9296.7125
2932.11205	9301.7125
2934.58258	9291.6125
2937.05161	9301.8125
2939.51912	9293.0125
2941.98513	9294.3125
2944.44962	9237.0125
2946.91261	9184.9125
2949.37409	9169.7125
2951.83407	9161.2125
2954.29254	9134.2125
2956.74951	9147.4125
2959.20498	9126.4125
2961.65895	9109.4125
2964.11142	9098.6125
2966.56239	9070.6125
2969.01186	9047.3125
2971.45984	9062.6125
2973.90632	9018.3125
2976.35131	8960.8125
2978.7948	8951.6125
2981.23681	8942.4125
2983.67732	8909.4125
2986.11635	8888.5125
2988.55388	8896.3125
2990.98993	8868.2125
2993.4245	8869.7125
2995.85758	8825.8125
2998.28917	8801.1125
3000.71928	8785.0125
3003.14791	8765.3125
3005.57506	8761.3125
3008.00073	8723.1125
3010.42493	8717.5125
3012.84764	8687.2125
3015.26888	8707.9125
3017.68865	8670.3125
3020.10694	8672.5125
3022.52376	8657.0125
3024.9391	8622.3125
3027.35298	8593.3125
3029.76539	8605.3125
3032.17632	8590.7125
3034.5858	8578.3125
3036.9938	8604.8125
3039.40034	8573.4125
3041.80542	8568.0125
3044.20903	8563.0125
3046.61118	8539.1125
3049.01187	8533.5125
3051.4111	8484.2125
3053.80888	8490.0125
3056.20519	8472.5125
3058.60005	8447.8125
3060.99345	8434.8125
3063.3854	8403.5125
3065.7759	8404.5125
3068.16494	8370.3125
3070.55254	8343.3125
3072.93868	8325.7125
3075.32338	8296.0125
3077.70662	8300.4125
3080.08842	8265.1125
3082.46878	8268.4125
3084.84769	8232.4125
3087.22515	8250.1125
3089.60118	8251.0125
3091.97576	8234.1125
3094.3489	8236.6125
3096.72061	8239.1125
3099.09087	8240.8125
3101.4597	8225.0125
3103.82709	8246.7125
3106.19305	8194.5125
3108.55757	8193.6125
3110.92066	8152.0125
3113.28232	8124.9125
3115.64255	8093.1125
3118.00134	8097.1125
3120.35871	8068.4125
3122.71466	8070.3125
3125.06917	8075.8125
3127.42226	8035.2125
3129.77393	8044.9125
3132.12417	8048.5125
3134.47299	8040.5125
3136.82039	8024.8125
3139.16636	8029.0125
3141.51092	8024.0125
3143.85406	8019.2125
3146.19579	8047.7125
3148.53609	8049.6125
3150.87499	8040.6125
3153.21246	8049.4125
3155.54853	8052.9125
3157.88318	8038.4125
3160.21642	8047.9125
3162.54826	8040.8125
3164.87868	8025.7125
3167.2077	8039.9125
3169.5353	8070.0125
3171.86151	8043.5125
3174.18631	8008.0125
3176.5097	8033.2125
3178.83169	8015.3125
3181.15228	8012.6125
3183.47147	7996.7125
3185.78926	7979.2125
3188.10565	7983.2125
3190.42065	8000.0125
3192.73424	8009.2125
3195.04645	7997.2125
3197.35725	7997.4125
3199.66667	7984.4125
3201.97469	7981.3125
3204.28132	7977.0125
3206.58656	7993.4125
3208.8904	7986.2125
3211.19287	7996.0125
3213.49394	7987.8125
3215.79363	7996.4125
3218.09193	7993.0125
3220.38884	7964.3125
3222.68438	8008.0125
3224.97853	7974.1125
3227.2713	7979.6125
3229.56269	7952.8125
3231.8527	7969.3125
3234.14133	7945.8125
3236.42858	7947.9125
3238.71446	7927.1125
3240.99896	7908.6125
3243.28209	7911.8125
3245.56384	7906.2125
3247.84423	7910.7125
3250.12324	7869.4125
3252.40088	7877.2125
3254.67715	7855.3125
3256.95205	7855.1125
3259.22558	7874.1125
3261.49775	7810.5125
3263.76855	7816.4125
3266.03799	7797.9125
3268.30606	7789.8125
3270.57277	7769.6125
3272.83812	7745.7125
3275.10211	7727.4125
3277.36474	7724.5125
3279.62601	7725.7125
3281.88593	7722.6125
3284.14448	7729.3125
3286.40168	7732.7125
3288.65753	7756.5125
3290.91202	7721.5125
3293.16516	7673.3125
3295.41695	7655.6125
3297.66738	7613.1125
3299.91647	7592.4125
3302.16421	7539.5125
3304.4106	7500.2125
3306.65564	7464.2125
3308.89933	7436.0125
3311.14169	7378.2125
3313.38269	7330.7125
3315.62236	7297.0125
3317.86068	7240.3125
3320.09766	7156.9125
3322.3333	7085.4125
3324.5676	7098.6125
3326.80056	6983.9125
3329.03219	6935.5125
3331.26248	2.0125
3333.49143	-0.4875
3335.71905	-0.9875
