Data from AgNPs_FTO_APTES_UA_2uM_CRN_200uM_R6G_10uM_NaF_0.1M_Addition_RamanShift__5__16-24-45-354.txt Node

Date: Wed Feb 02 16:24:45 GMT 2022
User: TCL
Spectrometer: QEP01345
Trigger mode: 4
Integration Time (sec): 7.000000E0
Scans to average: 10
Electric dark correction enabled: true
Nonlinearity correction enabled: false
Boxcar width: 0
XAxis mode: Raman Shifts
Number of Pixels in Spectrum: 1044
>>>>>Begin Spectral Data<<<<<
46.04893	-0.2
50.45542	0.1
54.85868	-0.6
59.25871	0.1
63.6555	65.1
68.04907	75.1
72.43941	72.1
76.82654	80
81.21044	85.4
85.59113	86.1
89.96862	90.5
94.34289	95.7
98.71396	97.8
103.08183	102.5
107.4465	100.5
111.80798	105.5
116.16626	107.3
120.52136	111
124.87327	111.9
129.222	114.9
133.56755	125.2
137.90993	133.9
142.24913	145.6
146.58517	165.3
150.91804	189.2
155.24774	226.2
159.57429	278.1
163.89768	352.8
168.21792	466.9
172.53501	630
176.84895	885.4
181.15975	1235.4
185.46741	1733
189.77193	2371.4
194.07331	3185
198.37157	4091.4
202.6667	5029.3
206.9587	5991.6
211.24758	6911.7
215.53334	7878.5
219.81599	8872.4
224.09553	9959.2
228.37195	11162.5
232.64527	12427.7
236.91549	13791.6
241.18261	15122.5
245.44663	16374.9
249.70755	17517.3
253.96539	18534.3
258.22014	19381.3
262.4718	20095.6
266.72039	20570.2
270.96589	20876.2
275.20832	20940.2
279.44768	20892.9
283.68397	20785.5
287.91719	20694.2
292.14735	20669.1
296.37445	20729.2
300.59849	20886
304.81948	21022.1
309.03742	20954.8
313.25231	20725.5
317.46415	20265.6
321.67296	19605.9
325.87872	19117.1
330.08145	18797.4
334.28114	18640.1
338.47781	18710.6
342.67145	18846.4
346.86207	19094.9
351.04966	19346.1
355.23424	19599
359.4158	19863.3
363.59435	20025.4
367.76989	20139.3
371.94243	20236.9
376.11196	20332.7
380.27849	20389.7
384.44203	20480.3
388.60257	20710.9
392.76012	20979.1
396.91468	21304.4
401.06626	21643.5
405.21485	21865.5
409.36047	21765
413.50311	21528.9
417.64277	21421.5
421.77947	21466.7
425.9132	21599.3
430.04396	21775.1
434.17176	21912.8
438.2966	22008.8
442.41849	22373.8
446.53742	23049.1
450.6534	23852.5
454.76644	24431.4
458.87653	24602.5
462.98368	24456.6
467.08789	24190.5
471.18916	23933.7
475.2875	23783.6
479.38291	23866.3
483.4754	23831.8
487.56496	23463.7
491.6516	22835.8
495.73531	22112.3
499.81612	21688.7
503.89401	21608
507.96899	21625.6
512.04106	21556.8
516.11023	21318.6
520.1765	20960.7
524.23987	20621.6
528.30034	20332.4
532.35792	20086.2
536.41261	19884.6
540.46441	19678.1
544.51333	19740.5
548.55936	20106.6
552.60252	20712.3
556.64279	21432.5
560.6802	22038.4
564.71473	22469.1
568.7464	23065.9
572.7752	24044.1
576.80114	25036.2
580.82422	25877.5
584.84444	26814.4
588.86181	27972
592.87633	28718.4
596.888	28227.3
600.89682	26546.6
604.9028	25771.9
608.90594	26537.2
612.90624	27489.7
616.90371	25543.6
620.89834	21707.1
624.89015	19970.1
628.87913	19844.2
632.86528	19976.4
636.84862	19932.4
640.82913	19615.3
644.80683	19105.6
648.78172	18836.2
652.75379	18784.8
656.72306	18901.7
660.68952	19036.9
664.65319	18914.3
668.61405	18553.4
672.57211	18515.4
676.52738	18616.7
680.47986	18641.6
684.42955	18559.2
688.37646	18506.4
692.32058	18563.8
696.26192	18816.8
700.20048	19122.7
704.13626	19342.1
708.06928	19446.2
711.99952	19413
715.927	19419.2
719.85171	19459.2
723.77365	19340.7
727.69284	19047.4
731.60928	18779.6
735.52295	18616.7
739.43388	18584.1
743.34206	18643.4
747.24749	18776.2
751.15017	19049.6
755.05012	19507.9
758.94733	20217.6
762.8418	21320.7
766.73354	22794.7
770.62254	24009.4
774.50882	23922.9
778.39237	22661.2
782.27321	21030
786.15132	19687.5
790.02671	18906.7
793.89938	18496
797.76935	18346.3
801.6366	18324.6
805.50115	18316.7
809.36299	18233.6
813.22213	18110.8
817.07857	18056.3
820.93231	17984.6
824.78336	17828.1
828.63172	17638.8
832.47738	17579.4
836.32036	17526.4
840.16066	17558.6
843.99827	17596
847.8332	17515.1
851.66546	17444.8
855.49504	17468.1
859.32195	17427.9
863.1462	17342.1
866.96777	17297
870.78668	17247.6
874.60293	17240
878.41652	17236.5
882.22745	17254.9
886.03573	17335.2
889.84136	17292.5
893.64433	17246.6
897.44466	17191.5
901.24235	17134.5
905.0374	17080.1
908.8298	17076
912.61957	17139.2
916.40671	17385
920.19121	17748.4
923.97308	17999.9
927.75233	17888.1
931.52895	17621.2
935.30295	17188
939.07433	16795.5
942.84309	16519.1
946.60924	16313.8
950.37278	16261
954.13371	16288.1
957.89203	16342.5
961.64774	16378.3
965.40086	16405.2
969.15137	16259.5
972.89929	16106
976.64461	15993.6
980.38733	15880.6
984.12747	15904.3
987.86502	15983.5
991.59999	16101.3
995.33237	16231.9
999.06217	16533.2
1002.78939	16919.6
1006.51404	17233.4
1010.23611	17518.7
1013.95561	17766.3
1017.67255	17863.8
1021.38692	17710.7
1025.09872	17390.2
1028.80796	17132.3
1032.51465	17194.1
1036.21877	17356.6
1039.92035	17458.3
1043.61937	17526.3
1047.31584	17462.2
1051.00976	17360.6
1054.70114	17428.2
1058.38998	17578.8
1062.07627	17815.4
1065.76003	18061.3
1069.44126	18337.8
1073.11995	18614.4
1076.79611	18833.1
1080.46974	18860.1
1084.14085	19000.3
1087.80943	19159.9
1091.47549	19409
1095.13903	19550
1098.80005	19371
1102.45857	18829.7
1106.11456	18309.8
1109.76805	18069.2
1113.41903	18043.8
1117.06751	18223.6
1120.71348	18382.4
1124.35696	18666.6
1127.99793	19007.8
1131.63641	19210.8
1135.2724	19167
1138.90589	19123.1
1142.5369	19329
1146.16542	19681.5
1149.79145	20080.5
1153.415	20507.4
1157.03607	21030.8
1160.65467	21925.1
1164.27079	23344.3
1167.88443	24931.7
1171.49561	26522.5
1175.10432	28386.9
1178.71056	30680.4
1182.31434	32855.8
1185.91565	33753
1189.51451	33385.1
1193.11091	32431.2
1196.70485	31392.9
1200.29634	30321.5
1203.88538	29695.7
1207.47197	29533
1211.05612	29448.2
1214.63782	28897.3
1218.21708	27747
1221.79391	26481.2
1225.36829	25548.8
1228.94024	24970.1
1232.50976	24362
1236.07685	23952.4
1239.6415	23672.1
1243.20374	23709.8
1246.76355	23939.3
1250.32093	24300
1253.8759	24865.3
1257.42845	25640.1
1260.97859	26425.8
1264.52631	27235.3
1268.07163	28044.8
1271.61453	28899.9
1275.15503	29978.6
1278.69312	31189.2
1282.22882	32484.5
1285.76211	34196
1289.29301	36188.9
1292.82151	38686.4
1296.34761	41742.3
1299.87133	44941.7
1303.39266	47961
1306.9116	50238.7
1310.42815	51672
1313.94233	52337.4
1317.45412	52104.3
1320.96354	51438.8
1324.47058	50923.3
1327.97525	50709.4
1331.47754	50531.1
1334.97747	50148.6
1338.47502	49423.7
1341.97022	48154
1345.46305	46768.7
1348.95352	45585.8
1352.44163	44978.3
1355.92738	45386.3
1359.41078	46697.1
1362.89183	47610
1366.37053	46784.8
1369.84688	43355.6
1373.32088	38696.5
1376.79254	35522.9
1380.26186	34749.4
1383.72883	35394.5
1387.19347	36045.2
1390.65578	36194.5
1394.11575	36474.4
1397.57339	37363.4
1401.0287	38357.2
1404.48168	39068
1407.93234	38754
1411.38068	37405.3
1414.82669	35292
1418.27039	33001.2
1421.71177	30842.7
1425.15083	29112.6
1428.58758	28236.7
1432.02203	28470.5
1435.45416	29441.6
1438.88399	30803.4
1442.31151	31851.6
1445.73673	32592.8
1449.15965	33199.3
1452.58027	33584
1455.9986	33647.2
1459.41463	33847.2
1462.82837	34226.2
1466.23982	34693.5
1469.64898	35154.1
1473.05586	35397.9
1476.46045	35350.6
1479.86276	34905.4
1483.26279	34200.9
1486.66054	33665.4
1490.05602	33577.6
1493.44922	33719.8
1496.84016	33933.4
1500.22882	34287.5
1503.61521	34930.4
1506.99934	35750
1510.38121	36469.7
1513.76081	36750.3
1517.13816	36403.5
1520.51324	35800.1
1523.88607	35571.4
1527.25665	35874.4
1530.62498	36285.4
1533.99105	36359.1
1537.35488	35866.1
1540.71647	34916.2
1544.07581	33558.4
1547.4329	32200.1
1550.78776	30919.3
1554.14038	30058.1
1557.49077	29515.8
1560.83892	29243.9
1564.18484	29163.7
1567.52853	29322.8
1570.86999	29752.6
1574.20922	30638.7
1577.54624	31673
1580.88103	32525
1584.2136	33594.8
1587.54395	35113.8
1590.87208	37249.1
1594.19801	39580.8
1597.52172	41500.2
1600.84321	41654.2
1604.16251	39220.2
1607.47959	35264.9
1610.79447	31166.4
1614.10715	27754.6
1617.41763	25130.5
1620.7259	23503.9
1624.03199	22678
1627.33587	22783.6
1630.63757	23774.2
1633.93707	25881.2
1637.23439	29297.7
1640.52951	34248.3
1643.82246	40068.7
1647.11321	44764.4
1650.40179	45580.6
1653.68819	41750.1
1656.97241	35140
1660.25446	28785.7
1663.53433	24051.2
1666.81203	20935.4
1670.08756	18954.7
1673.36092	17777.1
1676.63211	16969.3
1679.90115	16431.2
1683.16801	16061.3
1686.43272	15743.9
1689.69527	15580.7
1692.95567	15385.9
1696.2139	15280.8
1699.46999	15177.3
1702.72392	15066.5
1705.97571	15011.5
1709.22535	14910.7
1712.47284	14872.9
1715.71819	14788
1718.96139	14725.8
1722.20246	14646.2
1725.44139	14553.1
1728.67818	14500.6
1731.91284	14377.4
1735.14537	14303.1
1738.37576	14237.8
1741.60403	14137
1744.83017	14087.2
1748.05418	14081.2
1751.27607	14003.4
1754.49584	14031.9
1757.71349	14018.5
1760.92903	14007.8
1764.14244	13981
1767.35375	13936.2
1770.56294	13900.5
1773.77002	13847.6
1776.97499	13784.8
1780.17785	13731.4
1783.37861	13688.2
1786.57727	13658.3
1789.77382	13628.6
1792.96828	13597.1
1796.16064	13561
1799.3509	13517.6
1802.53907	13467
1805.72514	13408.9
1808.90913	13423.1
1812.09102	13393.9
1815.27083	13345.5
1818.44856	13330.8
1821.6242	13308.4
1824.79776	13284.1
1827.96924	13284.3
1831.13864	13264.4
1834.30597	13263.6
1837.47122	13258.7
1840.6344	13243.8
1843.7955	13236
1846.95454	13227.8
1850.11151	13259.7
1853.26642	13216.4
1856.41926	13206
1859.57004	13195.3
1862.71876	13155.3
1865.86542	13150.7
1869.01003	13142.3
1872.15258	13135.5
1875.29308	13102
1878.43152	13071.5
1881.56792	13045.5
1884.70227	13039.5
1887.83457	13043.1
1890.96482	13048.2
1894.09304	13037.5
1897.21921	12985
1900.34335	12971
1903.46544	12942.1
1906.58551	12945
1909.70353	12897.8
1912.81953	12879.4
1915.93349	12844.8
1919.04543	12812.7
1922.15534	12795.7
1925.26322	12737.5
1928.36908	12699.1
1931.47292	12673.9
1934.57473	12644.4
1937.67453	12608.7
1940.77232	12557
1943.86808	12526.9
1946.96184	12513.3
1950.05358	12440.8
1953.14331	12446.1
1956.23103	12401.4
1959.31675	12341.5
1962.40046	12294.4
1965.48217	12274.3
1968.56188	12224.5
1971.63959	12174.1
1974.7153	12138.4
1977.78901	12102.7
1980.86073	12053
1983.93046	12006.6
1986.99819	11973.9
1990.06394	11941.9
1993.1277	11932.9
1996.18947	11895.9
1999.24925	11817.6
2002.30706	11774.9
2005.36288	11762.6
2008.41672	11730.3
2011.46859	11682.3
2014.51848	11643.2
2017.56639	11624.8
2020.61233	11552.7
2023.6563	11585.1
2026.6983	11562.9
2029.73833	11523.2
2032.7764	11509.2
2035.8125	11463.5
2038.84664	11449.4
2041.87881	11470.8
2044.90903	11429.6
2047.93729	11397.8
2050.96359	11385.8
2053.98794	11392.6
2057.01034	11361
2060.03078	11351
2063.04927	11354.3
2066.06582	11333.9
2069.08042	11307.5
2072.09307	11307.6
2075.10378	11294.4
2078.11255	11271.1
2081.11938	11287.4
2084.12426	11238.3
2087.12722	11264.4
2090.12824	11270.5
2093.12732	11245.6
2096.12447	11247.8
2099.11969	11265
2102.11299	11283.1
2105.10435	11251.9
2108.09379	11271.4
2111.08131	11255.1
2114.0669	11243.9
2117.05057	11253.3
2120.03233	11265.3
2123.01216	11272.4
2125.99008	11286.4
2128.96609	11285
2131.94018	11282.5
2134.91236	11286.9
2137.88263	11285.7
2140.851	11257.9
2143.81746	11293.1
2146.78201	11272.6
2149.74466	11257.4
2152.7054	11278
2155.66425	11251.4
2158.6212	11273.5
2161.57625	11236.4
2164.52941	11246.5
2167.48067	11234.5
2170.43004	11238.1
2173.37752	11222.3
2176.32311	11198.7
2179.26681	11214.7
2182.20863	11208.5
2185.14856	11210.7
2188.08661	11229.3
2191.02278	11224.3
2193.95707	11219.7
2196.88948	11172.3
2199.82001	11175
2202.74867	11153.7
2205.67545	11141.6
2208.60037	11128.2
2211.52341	11103
2214.44458	11091.2
2217.36388	11066
2220.28132	11062.8
2223.1969	11046.6
2226.11061	11026.7
2229.02246	10999.1
2231.93245	10970.3
2234.84058	10984
2237.74686	10940.4
2240.65128	10932.7
2243.55385	10922.6
2246.45456	10905.6
2249.35343	10855.4
2252.25044	10828.1
2255.14561	10800.1
2258.03893	10820.5
2260.93041	10776.1
2263.82004	10738.6
2266.70783	10715
2269.59378	10671.8
2272.4779	10612.9
2275.36017	10616.3
2278.24061	10593.8
2281.11922	10570.3
2283.996	10560.3
2286.87094	10533.5
2289.74405	10508.7
2292.61534	10520.8
2295.4848	10488.3
2298.35243	10493.1
2301.21824	10498.3
2304.08223	10486.9
2306.94439	10512.4
2309.80474	10497.3
2312.66327	10470.6
2315.51999	10458.4
2318.37489	10434.2
2321.22797	10425.1
2324.07925	10429
2326.92871	10423.4
2329.77637	10402
2332.62222	10381.4
2335.46626	10378.2
2338.3085	10377.9
2341.14893	10377.8
2343.98756	10373.8
2346.8244	10364.5
2349.65943	10378.2
2352.49267	10367.8
2355.32411	10375.3
2358.15376	10357
2360.98161	10358.3
2363.80768	10341.2
2366.63195	10340.8
2369.45444	10310.4
2372.27514	10301.1
2375.09405	10301
2377.91118	10297.7
2380.72652	10260.7
2383.54009	10229.1
2386.35187	10238.3
2389.16188	10190.9
2391.97011	10175.8
2394.77657	10165.9
2397.58125	10132.9
2400.38416	10122.6
2403.18529	10094
2405.98466	10097.7
2408.78226	10097.8
2411.57809	10079.5
2414.37216	10083.1
2417.16446	10063.4
2419.955	10044
2422.74378	10042.1
2425.5308	10038.1
2428.31606	10031.2
2431.09956	10012.8
2433.88131	9990.9
2436.6613	9996.9
2439.43954	10006.7
2442.21603	9985.4
2444.99077	9981.9
2447.76377	9982.2
2450.53501	9999.1
2453.30451	9988.6
2456.07226	9970.7
2458.83827	9987.7
2461.60254	9981.4
2464.36507	9996.3
2467.12586	9981.1
2469.88492	9967.1
2472.64224	9975.5
2475.39782	9994.9
2478.15167	9969.3
2480.90379	9952.5
2483.65417	9994.6
2486.40283	9969.6
2489.14976	9971.6
2491.89497	9992.2
2494.63845	9984.4
2497.3802	9982.2
2500.12024	9983.5
2502.85855	9979
2505.59514	9963.6
2508.33002	9992.1
2511.06318	9975
2513.79462	9945.5
2516.52435	9968
2519.25237	9936.4
2521.97867	9914
2524.70327	9925
2527.42616	9897.5
2530.14734	9903.1
2532.86681	9889.2
2535.58458	9916.7
2538.30065	9871.7
2541.01501	9885.3
2543.72768	9859.6
2546.43864	9851.6
2549.14791	9844.5
2551.85548	9839.5
2554.56136	9841
2557.26554	9848.2
2559.96803	9824.8
2562.66883	9822.5
2565.36794	9840
2568.06536	9823.9
2570.7611	9827.5
2573.45514	9789.2
2576.14751	9806.6
2578.83819	9781.6
2581.52719	9795
2584.21451	9777.4
2586.90015	9787.2
2589.58411	9761.2
2592.2664	9791.9
2594.94701	9775.6
2597.62594	9769.9
2600.30321	9746
2602.9788	9736.9
2605.65273	9741
2608.32498	9736.4
2610.99557	9751.8
2613.66449	9767.4
2616.33175	9771.1
2618.99734	9768.3
2621.66128	9750.6
2624.32355	9731.6
2626.98416	9741.8
2629.64311	9744.2
2632.30041	9750.3
2634.95605	9754.8
2637.61004	9729.7
2640.26238	9711.4
2642.91306	9718.6
2645.56209	9714.2
2648.20948	9710.7
2650.85521	9717.9
2653.4993	9714.4
2656.14175	9725.5
2658.78255	9740.5
2661.42171	9752.4
2664.05923	9768.5
2666.6951	9753.4
2669.32934	9775
2671.96194	9760.2
2674.59291	9762.7
2677.22224	9766.6
2679.84993	9779.5
2682.476	9760.1
2685.10043	9761.1
2687.72324	9759.8
2690.34441	9758.2
2692.96396	9746.3
2695.58188	9748.9
2698.19818	9747.9
2700.81285	9764.7
2703.4259	9765.6
2706.03733	9815.3
2708.64714	9793.6
2711.25533	9788.8
2713.86191	9795.4
2716.46687	9810.3
2719.07021	9792.3
2721.67194	9826.2
2724.27206	9824.6
2726.87057	9827.6
2729.46747	9842.7
2732.06276	9854.7
2734.65644	9826
2737.24852	9838.2
2739.83899	9804.5
2742.42786	9821.4
2745.01513	9808.8
2747.60079	9826.8
2750.18486	9779.9
2752.76733	9805.3
2755.3482	9820.9
2757.92747	9815.3
2760.50515	9812.2
2763.08123	9847.6
2765.65573	9828.5
2768.22863	9827
2770.79994	9819.8
2773.36967	9816.2
2775.9378	9807.9
2778.50435	9802.7
2781.06932	9814.7
2783.6327	9791.4
2786.1945	9806
2788.75471	9807.1
2791.31335	9789.3
2793.87041	9775.2
2796.42589	9764.7
2798.97979	9766.4
2801.53212	9778.6
2804.08288	9739.5
2806.63206	9732.5
2809.17967	9708.1
2811.72571	9698.5
2814.27018	9667.3
2816.81308	9662.4
2819.35442	9644.1
2821.89419	9634.6
2824.43239	9608.1
2826.96904	9619.2
2829.50412	9607.3
2832.03763	9592.6
2834.56959	9590.8
2837.1	9615.1
2839.62884	9607.4
2842.15613	9624
2844.68186	9669.8
2847.20604	9701.1
2849.72867	9695.1
2852.24974	9708.2
2854.76927	9702.1
2857.28724	9698.8
2859.80367	9666
2862.31855	9657
2864.83189	9648.7
2867.34368	9620
2869.85393	9625.5
2872.36264	9623.9
2874.8698	9609.4
2877.37543	9614.6
2879.87952	9605.3
2882.38207	9608.5
2884.88308	9621.9
2887.38256	9632.3
2889.88051	9613.1
2892.37692	9626.1
2894.8718	9606
2897.36515	9665.1
2899.85698	9661.8
2902.34727	9663.5
2904.83604	9656.8
2907.32328	9690.1
2909.809	9688.9
2912.29319	9688.5
2914.77587	9670
2917.25702	9674.3
2919.73665	9649.3
2922.21476	9675.7
2924.69136	9659.8
2927.16644	9675.6
2929.64	9680.7
2932.11205	9674.3
2934.58258	9681.9
2937.05161	9658.7
2939.51912	9645.4
2941.98513	9654.2
2944.44962	9595
2946.91261	9531
2949.37409	9543
2951.83407	9534.5
2954.29254	9512.6
2956.74951	9522.2
2959.20498	9512.4
2961.65895	9467.2
2964.11142	9452.7
2966.56239	9446.6
2969.01186	9436.2
2971.45984	9388.1
2973.90632	9376.5
2976.35131	9325.5
2978.7948	9309.8
2981.23681	9296.3
2983.67732	9271.2
2986.11635	9255.9
2988.55388	9223.8
2990.98993	9191.3
2993.4245	9189.9
2995.85758	9162.4
2998.28917	9156.1
3000.71928	9127.3
3003.14791	9082.5
3005.57506	9088.1
3008.00073	9045.4
3010.42493	9033.3
3012.84764	9014.1
3015.26888	9025.6
3017.68865	9002.3
3020.10694	8954
3022.52376	8978.2
3024.9391	8923
3027.35298	8931.4
3029.76539	8921.9
3032.17632	8937.2
3034.5858	8917.9
3036.9938	8907.9
3039.40034	8882.8
3041.80542	8892.5
3044.20903	8857
3046.61118	8841.5
3049.01187	8842.9
3051.4111	8817.6
3053.80888	8800.9
3056.20519	8769.7
3058.60005	8773.2
3060.99345	8737.6
3063.3854	8733.4
3065.7759	8688
3068.16494	8698.4
3070.55254	8629.4
3072.93868	8600.2
3075.32338	8587.6
3077.70662	8567.6
3080.08842	8536.4
3082.46878	8515.7
3084.84769	8522.9
3087.22515	8527.6
3089.60118	8513.3
3091.97576	8511.9
3094.3489	8500.4
3096.72061	8510
3099.09087	8505
3101.4597	8498
3103.82709	8489.2
3106.19305	8435.2
3108.55757	8441.7
3110.92066	8415.4
3113.28232	8396.6
3115.64255	8363.8
3118.00134	8350.6
3120.35871	8341.5
3122.71466	8320.2
3125.06917	8309.3
3127.42226	8298
3129.77393	8296.4
3132.12417	8279.1
3134.47299	8314.4
3136.82039	8276
3139.16636	8278.4
3141.51092	8268.6
3143.85406	8277.6
3146.19579	8264.4
3148.53609	8276.8
3150.87499	8288.5
3153.21246	8286.6
3155.54853	8301.7
3157.88318	8276.7
3160.21642	8297.3
3162.54826	8259.6
3164.87868	8248.2
3167.2077	8268.7
3169.5353	8255.1
3171.86151	8242.9
3174.18631	8239.9
3176.5097	8252.8
3178.83169	8237.3
3181.15228	8228.5
3183.47147	8226.6
3185.78926	8211.4
3188.10565	8228.2
3190.42065	8213.6
3192.73424	8192.6
3195.04645	8204.6
3197.35725	8195.6
3199.66667	8189.9
3201.97469	8193
3204.28132	8161
3206.58656	8183.6
3208.8904	8171.5
3211.19287	8195.2
3213.49394	8168.3
3215.79363	8175.4
3218.09193	8167.1
3220.38884	8178
3222.68438	8186.7
3224.97853	8167.6
3227.2713	8160.7
3229.56269	8128.4
3231.8527	8158.8
3234.14133	8146.3
3236.42858	8129.2
3238.71446	8123.4
3240.99896	8102.4
3243.28209	8120.6
3245.56384	8107.9
3247.84423	8087.5
3250.12324	8076.8
3252.40088	8054.7
3254.67715	8048.6
3256.95205	8017.9
3259.22558	8021.7
3261.49775	8004.1
3263.76855	7980.9
3266.03799	7947.4
3268.30606	7957.8
3270.57277	7935.8
3272.83812	7916.5
3275.10211	7897.6
3277.36474	7887.4
3279.62601	7896.1
3281.88593	7889.3
3284.14448	7911.5
3286.40168	7900
3288.65753	7884.7
3290.91202	7881.3
3293.16516	7868.5
3295.41695	7846.8
3297.66738	7787.9
3299.91647	7739.1
3302.16421	7714.4
3304.4106	7676.3
3306.65564	7650.9
3308.89933	7582.5
3311.14169	7520.4
3313.38269	7480
3315.62236	7446.6
3317.86068	7366
3320.09766	7287.1
3322.3333	7228.2
3324.5676	7238.8
3326.80056	7121.1
3329.03219	7094.4
3331.26248	2.3
3333.49143	0.1
3335.71905	-1.6
