Data from AgNPs_FTO_APTES_UA_2uM_CRN_500uM_R6G_10uM_NaF_0.1M_Addition_RamanShift__27__17-30-05-430.txt Node

Date: Wed Feb 02 17:30:05 GMT 2022
User: TCL
Spectrometer: QEP01345
Trigger mode: 4
Integration Time (sec): 7.000000E0
Scans to average: 10
Electric dark correction enabled: true
Nonlinearity correction enabled: false
Boxcar width: 0
XAxis mode: Raman Shifts
Number of Pixels in Spectrum: 1044
>>>>>Begin Spectral Data<<<<<
46.04893	-0.2125
50.45542	-0.2125
54.85868	-1.5125
59.25871	-0.9125
63.6555	71.0875
68.04907	72.0875
72.43941	74.6875
76.82654	82.5875
81.21044	82.9875
85.59113	88.3875
89.96862	89.9875
94.34289	91.1875
98.71396	97.7875
103.08183	103.2875
107.4465	100.3875
111.80798	110.2875
116.16626	110.0875
120.52136	116.2875
124.87327	117.4875
129.222	123.4875
133.56755	134.2875
137.90993	142.5875
142.24913	157.1875
146.58517	177.5875
150.91804	203.1875
155.24774	248.9875
159.57429	307.2875
163.89768	395.5875
168.21792	532.8875
172.53501	729.2875
176.84895	1008.3875
181.15975	1409.0875
185.46741	1987.4875
189.77193	2737.5875
194.07331	3665.0875
198.37157	4717.1875
202.6667	5824.2875
206.9587	6941.3875
211.24758	8049.9875
215.53334	9187.1875
219.81599	10405.1875
224.09553	11771.5875
228.37195	13312.5875
232.64527	14926.5875
236.91549	16599.8875
241.18261	18212.6875
245.44663	19572.1875
249.70755	20726.5875
253.96539	21786.3875
258.22014	22696.5875
262.4718	23542.7875
266.72039	24175.7875
270.96589	24567.7875
275.20832	24740.7875
279.44768	24722.7875
283.68397	24586.8875
287.91719	24489.6875
292.14735	24654.5875
296.37445	24988.6875
300.59849	25492.4875
304.81948	25989.2875
309.03742	26116.4875
313.25231	25753.4875
317.46415	24626.3875
321.67296	23101.9875
325.87872	21816.9875
330.08145	21181.9875
334.28114	21075.0875
338.47781	21302.0875
342.67145	21716.0875
346.86207	22360.1875
351.04966	23267.2875
355.23424	24318.1875
359.4158	25129.3875
363.59435	25559.5875
367.76989	25663.7875
371.94243	25704.4875
376.11196	25588.8875
380.27849	25574.7875
384.44203	25528.0875
388.60257	25430.4875
392.76012	25435.1875
396.91468	25670.6875
401.06626	26172.5875
405.21485	26551.5875
409.36047	26255.1875
413.50311	25301.5875
417.64277	24360.5875
421.77947	23921.9875
425.9132	23881.4875
430.04396	23990.3875
434.17176	24224.4875
438.2966	24573.9875
442.41849	25168.7875
446.53742	26017.0875
450.6534	26870.4875
454.76644	27497.1875
458.87653	27665.1875
462.98368	27453.6875
467.08789	27202.3875
471.18916	26945.6875
475.2875	26757.7875
479.38291	26677.4875
483.4754	26491.6875
487.56496	25977.7875
491.6516	25294.8875
495.73531	24672.8875
499.81612	24306.6875
503.89401	24348.5875
507.96899	24405.0875
512.04106	24439.4875
516.11023	24443.0875
520.1765	24384.1875
524.23987	24167.1875
528.30034	23799.0875
532.35792	23391.9875
536.41261	23045.7875
540.46441	22714.0875
544.51333	22682.6875
548.55936	23020.9875
552.60252	23697.4875
556.64279	24545.4875
560.6802	25185.3875
564.71473	25760.8875
568.7464	26834.6875
572.7752	27652.3875
576.80114	27398.5875
580.82422	26641.6875
584.84444	26210.5875
588.86181	26165.7875
592.87633	26503.6875
596.888	26774.9875
600.89682	26983.4875
604.9028	28579.1875
608.90594	33490.9875
612.90624	39941.6875
616.90371	38268.6875
620.89834	28534.2875
624.89015	23848.1875
628.87913	23069.4875
632.86528	23179.9875
636.84862	23439.7875
640.82913	23054.2875
644.80683	22065.2875
648.78172	21398.0875
652.75379	21261.5875
656.72306	21811.4875
660.68952	22592.7875
664.65319	22524.2875
668.61405	21756.8875
672.57211	21360.0875
676.52738	21353.6875
680.47986	21368.8875
684.42955	21306.1875
688.37646	21216.1875
692.32058	21294.0875
696.26192	21495.8875
700.20048	21738.0875
704.13626	21959.1875
708.06928	21937.1875
711.99952	21792.7875
715.927	21671.3875
719.85171	21691.7875
723.77365	21676.5875
727.69284	21481.7875
731.60928	21244.9875
735.52295	21202.4875
739.43388	21192.8875
743.34206	21194.2875
747.24749	21350.6875
751.15017	21568.3875
755.05012	22009.2875
758.94733	22938.4875
762.8418	24972.9875
766.73354	28314.6875
770.62254	31637.5875
774.50882	32971.0875
778.39237	31224.8875
782.27321	27571.2875
786.15132	24193.5875
790.02671	22230.0875
793.89938	21331.1875
797.76935	20993.3875
801.6366	20839.4875
805.50115	20763.0875
809.36299	20641.6875
813.22213	20608.9875
817.07857	20620.0875
820.93231	20663.7875
824.78336	20575.8875
828.63172	20577.6875
832.47738	20544.4875
836.32036	20458.8875
840.16066	20389.2875
843.99827	20287.0875
847.8332	20194.0875
851.66546	20120.8875
855.49504	20099.0875
859.32195	20021.0875
863.1462	19974.9875
866.96777	19898.1875
870.78668	19817.8875
874.60293	19856.5875
878.41652	19884.8875
882.22745	19968.1875
886.03573	20045.8875
889.84136	20004.5875
893.64433	19914.8875
897.44466	19816.8875
901.24235	19706.9875
905.0374	19667.4875
908.8298	19617.7875
912.61957	19652.2875
916.40671	19853.1875
920.19121	20060.5875
923.97308	20237.3875
927.75233	20312.3875
931.52895	20324.9875
935.30295	20036.8875
939.07433	19556.6875
942.84309	19073.3875
946.60924	18787.5875
950.37278	18666.6875
954.13371	18602.5875
957.89203	18588.4875
961.64774	18569.0875
965.40086	18542.4875
969.15137	18438.8875
972.89929	18303.3875
976.64461	18224.3875
980.38733	18167.0875
984.12747	18198.5875
987.86502	18287.4875
991.59999	18465.5875
995.33237	18701.6875
999.06217	19161.9875
1002.78939	19794.7875
1006.51404	20287.0875
1010.23611	20644.8875
1013.95561	20863.1875
1017.67255	20749.9875
1021.38692	20413.0875
1025.09872	20070.2875
1028.80796	19876.2875
1032.51465	19964.3875
1036.21877	20150.2875
1039.92035	20263.6875
1043.61937	20245.9875
1047.31584	20147.6875
1051.00976	19998.6875
1054.70114	19974.8875
1058.38998	20044.6875
1062.07627	20215.0875
1065.76003	20465.2875
1069.44126	20599.0875
1073.11995	20761.5875
1076.79611	20966.4875
1080.46974	21158.1875
1084.14085	21457.2875
1087.80943	21941.4875
1091.47549	22242.1875
1095.13903	22156.0875
1098.80005	21731.2875
1102.45857	21117.8875
1106.11456	20811.9875
1109.76805	20766.3875
1113.41903	20959.8875
1117.06751	21465.5875
1120.71348	22067.6875
1124.35696	22676.6875
1127.99793	23332.2875
1131.63641	23397.8875
1135.2724	22728.4875
1138.90589	22066.7875
1142.5369	21740.1875
1146.16542	21626.1875
1149.79145	21690.0875
1153.415	21936.7875
1157.03607	22271.6875
1160.65467	22892.8875
1164.27079	23832.7875
1167.88443	25241.8875
1171.49561	27325.3875
1175.10432	30347.9875
1178.71056	34183.8875
1182.31434	37283.7875
1185.91565	38494.5875
1189.51451	38155.2875
1193.11091	36715.7875
1196.70485	34915.3875
1200.29634	33159.6875
1203.88538	31767.8875
1207.47197	30364.5875
1211.05612	29100.1875
1214.63782	28229.6875
1218.21708	27712.0875
1221.79391	27373.3875
1225.36829	27038.8875
1228.94024	26615.3875
1232.50976	26155.5875
1236.07685	25931.0875
1239.6415	25811.9875
1243.20374	25869.8875
1246.76355	26019.8875
1250.32093	26451.5875
1253.8759	27037.3875
1257.42845	27944.6875
1260.97859	28766.3875
1264.52631	29541.1875
1268.07163	30406.5875
1271.61453	31219.2875
1275.15503	31979.3875
1278.69312	32583.5875
1282.22882	32996.5875
1285.76211	33829.3875
1289.29301	35112.1875
1292.82151	36872.8875
1296.34761	38915.6875
1299.87133	41368.6875
1303.39266	44448.6875
1306.9116	48394.4875
1310.42815	52681.4875
1313.94233	55822.2875
1317.45412	56315.5875
1320.96354	54895.9875
1324.47058	52999.1875
1327.97525	51035.1875
1331.47754	49689.1875
1334.97747	49061.9875
1338.47502	49061.8875
1341.97022	49209.8875
1345.46305	48960.5875
1348.95352	48536.7875
1352.44163	48450.2875
1355.92738	49850.2875
1359.41078	53386.9875
1362.89183	57677.9875
1366.37053	56779.2875
1369.84688	50103.4875
1373.32088	42887.5875
1376.79254	38379.9875
1380.26186	36608.4875
1383.72883	36297.5875
1387.19347	36393.5875
1390.65578	36378.2875
1394.11575	36633.4875
1397.57339	37457.1875
1401.0287	38575.5875
1404.48168	39788.0875
1407.93234	40354.9875
1411.38068	40107.3875
1414.82669	38764.7875
1418.27039	36766.9875
1421.71177	34536.2875
1425.15083	32583.3875
1428.58758	31291.1875
1432.02203	30948.5875
1435.45416	31350.9875
1438.88399	32017.9875
1442.31151	32747.1875
1445.73673	33524.2875
1449.15965	34369.2875
1452.58027	35086.9875
1455.9986	35603.6875
1459.41463	36107.2875
1462.82837	36680.5875
1466.23982	37412.5875
1469.64898	37964.4875
1473.05586	38123.9875
1476.46045	37862.2875
1479.86276	37536.9875
1483.26279	37187.3875
1486.66054	37020.1875
1490.05602	37064.3875
1493.44922	37390.8875
1496.84016	37925.7875
1500.22882	39217.7875
1503.61521	41505.0875
1506.99934	44615.2875
1510.38121	48094.0875
1513.76081	50228.0875
1517.13816	49300.9875
1520.51324	45573.8875
1523.88607	41444.2875
1527.25665	38562.8875
1530.62498	37080.0875
1533.99105	36441.7875
1537.35488	36032.3875
1540.71647	35605.3875
1544.07581	35143.9875
1547.4329	34554.7875
1550.78776	33954.5875
1554.14038	33639.1875
1557.49077	33655.1875
1560.83892	33966.0875
1564.18484	34439.4875
1567.52853	34885.6875
1570.86999	35279.9875
1574.20922	35786.9875
1577.54624	36044.3875
1580.88103	35755.6875
1584.2136	35266.1875
1587.54395	35554.4875
1590.87208	37025.4875
1594.19801	39338.0875
1597.52172	41888.6875
1600.84321	42841.6875
1604.16251	41165.2875
1607.47959	37830.5875
1610.79447	34110.0875
1614.10715	30557.0875
1617.41763	27739.4875
1620.7259	25805.8875
1624.03199	24832.6875
1627.33587	24734.0875
1630.63757	25353.8875
1633.93707	26899.9875
1637.23439	29505.2875
1640.52951	33174.6875
1643.82246	37812.8875
1647.11321	42362.4875
1650.40179	44669.0875
1653.68819	42926.8875
1656.97241	37326.9875
1660.25446	30962.5875
1663.53433	26035.2875
1666.81203	22875.2875
1670.08756	20963.9875
1673.36092	19732.7875
1676.63211	18989.1875
1679.90115	18454.4875
1683.16801	18089.1875
1686.43272	17789.1875
1689.69527	17616.3875
1692.95567	17413.0875
1696.2139	17329.7875
1699.46999	17266.7875
1702.72392	17244.4875
1705.97571	17135.8875
1709.22535	17066.7875
1712.47284	17018.3875
1715.71819	16998.5875
1718.96139	16933.0875
1722.20246	16871.4875
1725.44139	16792.1875
1728.67818	16666.4875
1731.91284	16586.3875
1735.14537	16474.7875
1738.37576	16436.7875
1741.60403	16369.8875
1744.83017	16287.5875
1748.05418	16253.8875
1751.27607	16196.6875
1754.49584	16198.1875
1757.71349	16187.3875
1760.92903	16155.7875
1764.14244	16136.9875
1767.35375	16113.0875
1770.56294	16052.9875
1773.77002	16029.1875
1776.97499	15949.1875
1780.17785	15920.8875
1783.37861	15877.7875
1786.57727	15838.0875
1789.77382	15807.2875
1792.96828	15792.4875
1796.16064	15758.1875
1799.3509	15717.9875
1802.53907	15649.4875
1805.72514	15650.2875
1808.90913	15593.0875
1812.09102	15541.6875
1815.27083	15516.7875
1818.44856	15506.5875
1821.6242	15476.3875
1824.79776	15397.2875
1827.96924	15377.5875
1831.13864	15381.8875
1834.30597	15377.5875
1837.47122	15392.1875
1840.6344	15353.2875
1843.7955	15342.7875
1846.95454	15344.9875
1850.11151	15333.0875
1853.26642	15359.1875
1856.41926	15322.3875
1859.57004	15339.4875
1862.71876	15341.4875
1865.86542	15307.4875
1869.01003	15292.6875
1872.15258	15296.9875
1875.29308	15335.1875
1878.43152	15319.3875
1881.56792	15319.0875
1884.70227	15307.7875
1887.83457	15345.8875
1890.96482	15312.9875
1894.09304	15321.7875
1897.21921	15295.4875
1900.34335	15328.2875
1903.46544	15344.3875
1906.58551	15317.1875
1909.70353	15362.0875
1912.81953	15307.0875
1915.93349	15301.9875
1919.04543	15255.3875
1922.15534	15219.4875
1925.26322	15187.9875
1928.36908	15128.8875
1931.47292	15087.7875
1934.57473	15047.0875
1937.67453	14994.0875
1940.77232	14887.4875
1943.86808	14829.6875
1946.96184	14780.4875
1950.05358	14740.8875
1953.14331	14658.1875
1956.23103	14627.4875
1959.31675	14600.1875
1962.40046	14519.9875
1965.48217	14464.0875
1968.56188	14418.3875
1971.63959	14388.4875
1974.7153	14345.8875
1977.78901	14320.8875
1980.86073	14256.1875
1983.93046	14185.2875
1986.99819	14115.4875
1990.06394	14117.6875
1993.1277	14068.7875
1996.18947	13980.0875
1999.24925	13966.0875
2002.30706	13909.2875
2005.36288	13884.1875
2008.41672	13849.7875
2011.46859	13808.9875
2014.51848	13757.6875
2017.56639	13708.8875
2020.61233	13703.8875
2023.6563	13672.9875
2026.6983	13670.7875
2029.73833	13628.7875
2032.7764	13592.9875
2035.8125	13559.3875
2038.84664	13542.9875
2041.87881	13521.5875
2044.90903	13467.5875
2047.93729	13445.6875
2050.96359	13438.3875
2053.98794	13421.2875
2057.01034	13390.9875
2060.03078	13371.0875
2063.04927	13366.9875
2066.06582	13363.5875
2069.08042	13340.1875
2072.09307	13340.8875
2075.10378	13319.6875
2078.11255	13309.7875
2081.11938	13295.7875
2084.12426	13265.5875
2087.12722	13260.7875
2090.12824	13269.0875
2093.12732	13240.4875
2096.12447	13284.5875
2099.11969	13255.3875
2102.11299	13275.3875
2105.10435	13247.2875
2108.09379	13259.2875
2111.08131	13269.2875
2114.0669	13254.5875
2117.05057	13256.1875
2120.03233	13258.8875
2123.01216	13285.6875
2125.99008	13292.2875
2128.96609	13269.8875
2131.94018	13298.2875
2134.91236	13297.5875
2137.88263	13296.9875
2140.851	13298.9875
2143.81746	13311.1875
2146.78201	13294.4875
2149.74466	13291.7875
2152.7054	13301.3875
2155.66425	13255.2875
2158.6212	13294.0875
2161.57625	13242.5875
2164.52941	13252.8875
2167.48067	13242.4875
2170.43004	13230.1875
2173.37752	13238.3875
2176.32311	13230.0875
2179.26681	13214.5875
2182.20863	13246.0875
2185.14856	13228.0875
2188.08661	13244.5875
2191.02278	13206.3875
2193.95707	13195.5875
2196.88948	13188.0875
2199.82001	13181.6875
2202.74867	13151.1875
2205.67545	13172.5875
2208.60037	13161.0875
2211.52341	13109.7875
2214.44458	13089.9875
2217.36388	13100.4875
2220.28132	13059.4875
2223.1969	13035.6875
2226.11061	13016.4875
2229.02246	12987.4875
2231.93245	12981.9875
2234.84058	12928.7875
2237.74686	12901.6875
2240.65128	12909.3875
2243.55385	12863.6875
2246.45456	12873.6875
2249.35343	12841.7875
2252.25044	12815.3875
2255.14561	12772.8875
2258.03893	12755.4875
2260.93041	12762.4875
2263.82004	12728.8875
2266.70783	12718.1875
2269.59378	12677.2875
2272.4779	12617.0875
2275.36017	12599.2875
2278.24061	12577.8875
2281.11922	12572.7875
2283.996	12528.8875
2286.87094	12496.2875
2289.74405	12474.3875
2292.61534	12458.5875
2295.4848	12451.1875
2298.35243	12427.9875
2301.21824	12422.7875
2304.08223	12433.2875
2306.94439	12390.9875
2309.80474	12403.7875
2312.66327	12405.9875
2315.51999	12403.4875
2318.37489	12399.3875
2321.22797	12383.3875
2324.07925	12373.7875
2326.92871	12335.3875
2329.77637	12344.7875
2332.62222	12338.6875
2335.46626	12332.2875
2338.3085	12319.0875
2341.14893	12339.2875
2343.98756	12324.4875
2346.8244	12307.2875
2349.65943	12286.3875
2352.49267	12308.1875
2355.32411	12311.5875
2358.15376	12300.0875
2360.98161	12335.4875
2363.80768	12297.5875
2366.63195	12328.1875
2369.45444	12323.9875
2372.27514	12299.3875
2375.09405	12283.2875
2377.91118	12262.9875
2380.72652	12196.2875
2383.54009	12155.6875
2386.35187	12156.5875
2389.16188	12111.0875
2391.97011	12077.9875
2394.77657	12003.4875
2397.58125	12024.5875
2400.38416	12004.1875
2403.18529	11977.7875
2405.98466	11944.4875
2408.78226	11944.6875
2411.57809	11931.9875
2414.37216	11932.1875
2417.16446	11886.5875
2419.955	11862.7875
2422.74378	11873.5875
2425.5308	11837.0875
2428.31606	11856.8875
2431.09956	11842.6875
2433.88131	11813.7875
2436.6613	11832.4875
2439.43954	11835.2875
2442.21603	11821.1875
2444.99077	11825.9875
2447.76377	11843.1875
2450.53501	11824.9875
2453.30451	11830.2875
2456.07226	11811.5875
2458.83827	11786.3875
2461.60254	11789.2875
2464.36507	11810.6875
2467.12586	11783.1875
2469.88492	11767.7875
2472.64224	11790.6875
2475.39782	11810.8875
2478.15167	11819.0875
2480.90379	11823.2875
2483.65417	11833.9875
2486.40283	11859.1875
2489.14976	11865.9875
2491.89497	11884.6875
2494.63845	11903.4875
2497.3802	11870.9875
2500.12024	11849.7875
2502.85855	11854.7875
2505.59514	11875.7875
2508.33002	11830.0875
2511.06318	11814.1875
2513.79462	11794.3875
2516.52435	11769.8875
2519.25237	11731.8875
2521.97867	11697.5875
2524.70327	11711.9875
2527.42616	11662.5875
2530.14734	11686.5875
2532.86681	11644.4875
2535.58458	11645.3875
2538.30065	11643.7875
2541.01501	11611.7875
2543.72768	11613.7875
2546.43864	11598.6875
2549.14791	11580.3875
2551.85548	11564.9875
2554.56136	11591.2875
2557.26554	11575.3875
2559.96803	11555.5875
2562.66883	11550.6875
2565.36794	11566.1875
2568.06536	11558.8875
2570.7611	11503.6875
2573.45514	11508.9875
2576.14751	11488.4875
2578.83819	11504.3875
2581.52719	11493.3875
2584.21451	11468.1875
2586.90015	11473.6875
2589.58411	11456.8875
2592.2664	11464.8875
2594.94701	11441.5875
2597.62594	11453.3875
2600.30321	11424.1875
2602.9788	11449.0875
2605.65273	11437.6875
2608.32498	11448.4875
2610.99557	11428.9875
2613.66449	11431.4875
2616.33175	11430.0875
2618.99734	11432.6875
2621.66128	11445.7875
2624.32355	11444.9875
2626.98416	11447.9875
2629.64311	11436.4875
2632.30041	11453.4875
2634.95605	11429.4875
2637.61004	11383.9875
2640.26238	11388.0875
2642.91306	11373.2875
2645.56209	11369.9875
2648.20948	11384.7875
2650.85521	11375.5875
2653.4993	11343.4875
2656.14175	11371.5875
2658.78255	11366.7875
2661.42171	11367.6875
2664.05923	11399.4875
2666.6951	11405.7875
2669.32934	11419.6875
2671.96194	11425.5875
2674.59291	11423.0875
2677.22224	11418.5875
2679.84993	11418.6875
2682.476	11408.9875
2685.10043	11426.4875
2687.72324	11432.9875
2690.34441	11412.2875
2692.96396	11414.5875
2695.58188	11435.7875
2698.19818	11385.6875
2700.81285	11417.4875
2703.4259	11418.3875
2706.03733	11453.6875
2708.64714	11417.0875
2711.25533	11438.8875
2713.86191	11436.9875
2716.46687	11456.4875
2719.07021	11426.2875
2721.67194	11459.8875
2724.27206	11439.4875
2726.87057	11445.7875
2729.46747	11462.5875
2732.06276	11465.8875
2734.65644	11462.4875
2737.24852	11489.1875
2739.83899	11449.7875
2742.42786	11456.0875
2745.01513	11431.7875
2747.60079	11436.3875
2750.18486	11437.8875
2752.76733	11444.7875
2755.3482	11417.8875
2757.92747	11436.3875
2760.50515	11438.7875
2763.08123	11420.3875
2765.65573	11410.1875
2768.22863	11420.5875
2770.79994	11385.6875
2773.36967	11392.4875
2775.9378	11364.3875
2778.50435	11379.2875
2781.06932	11382.8875
2783.6327	11366.7875
2786.1945	11395.7875
2788.75471	11359.0875
2791.31335	11354.8875
2793.87041	11347.1875
2796.42589	11305.8875
2798.97979	11318.9875
2801.53212	11302.8875
2804.08288	11306.4875
2806.63206	11287.6875
2809.17967	11273.9875
2811.72571	11250.5875
2814.27018	11229.5875
2816.81308	11226.6875
2819.35442	11205.2875
2821.89419	11202.2875
2824.43239	11213.0875
2826.96904	11176.0875
2829.50412	11186.4875
2832.03763	11179.4875
2834.56959	11181.1875
2837.1	11192.6875
2839.62884	11228.5875
2842.15613	11203.5875
2844.68186	11230.1875
2847.20604	11266.2875
2849.72867	11318.7875
2852.24974	11316.8875
2854.76927	11305.8875
2857.28724	11272.3875
2859.80367	11248.2875
2862.31855	11239.7875
2864.83189	11241.8875
2867.34368	11218.5875
2869.85393	11224.1875
2872.36264	11220.4875
2874.8698	11249.4875
2877.37543	11217.5875
2879.87952	11217.8875
2882.38207	11244.5875
2884.88308	11211.0875
2887.38256	11196.0875
2889.88051	11159.7875
2892.37692	11161.0875
2894.8718	11196.4875
2897.36515	11234.4875
2899.85698	11216.0875
2902.34727	11256.8875
2904.83604	11239.7875
2907.32328	11283.6875
2909.809	11275.0875
2912.29319	11282.7875
2914.77587	11291.7875
2917.25702	11275.9875
2919.73665	11262.7875
2922.21476	11275.6875
2924.69136	11255.4875
2927.16644	11244.7875
2929.64	11244.3875
2932.11205	11220.3875
2934.58258	11167.2875
2937.05161	11173.2875
2939.51912	11166.2875
2941.98513	11124.4875
2944.44962	11087.4875
2946.91261	11023.7875
2949.37409	11019.1875
2951.83407	10977.9875
2954.29254	10937.8875
2956.74951	10923.7875
2959.20498	10919.4875
2961.65895	10910.0875
2964.11142	10893.4875
2966.56239	10849.2875
2969.01186	10838.9875
2971.45984	10777.0875
2973.90632	10764.1875
2976.35131	10718.8875
2978.7948	10704.8875
2981.23681	10685.6875
2983.67732	10656.6875
2986.11635	10642.5875
2988.55388	10631.7875
2990.98993	10585.5875
2993.4245	10546.8875
2995.85758	10535.6875
2998.28917	10493.9875
3000.71928	10482.2875
3003.14791	10488.9875
3005.57506	10459.7875
3008.00073	10456.7875
3010.42493	10413.7875
3012.84764	10416.4875
3015.26888	10401.7875
3017.68865	10385.3875
3020.10694	10349.7875
3022.52376	10304.8875
3024.9391	10293.1875
3027.35298	10277.2875
3029.76539	10267.9875
3032.17632	10253.2875
3034.5858	10226.6875
3036.9938	10232.3875
3039.40034	10216.8875
3041.80542	10186.8875
3044.20903	10177.0875
3046.61118	10169.6875
3049.01187	10140.8875
3051.4111	10118.3875
3053.80888	10110.8875
3056.20519	10073.9875
3058.60005	10061.7875
3060.99345	10037.7875
3063.3854	9997.4875
3065.7759	9982.4875
3068.16494	9938.8875
3070.55254	9884.1875
3072.93868	9887.5875
3075.32338	9843.0875
3077.70662	9820.0875
3080.08842	9767.6875
3082.46878	9767.6875
3084.84769	9755.6875
3087.22515	9765.7875
3089.60118	9734.4875
3091.97576	9719.7875
3094.3489	9710.5875
3096.72061	9691.5875
3099.09087	9687.2875
3101.4597	9683.0875
3103.82709	9663.2875
3106.19305	9657.2875
3108.55757	9647.6875
3110.92066	9602.5875
3113.28232	9584.6875
3115.64255	9559.7875
3118.00134	9553.9875
3120.35871	9505.2875
3122.71466	9501.0875
3125.06917	9491.6875
3127.42226	9463.8875
3129.77393	9459.8875
3132.12417	9464.4875
3134.47299	9444.3875
3136.82039	9455.5875
3139.16636	9444.4875
3141.51092	9432.7875
3143.85406	9433.0875
3146.19579	9423.3875
3148.53609	9435.9875
3150.87499	9418.2875
3153.21246	9431.0875
3155.54853	9440.7875
3157.88318	9437.4875
3160.21642	9435.5875
3162.54826	9422.9875
3164.87868	9398.4875
3167.2077	9421.3875
3169.5353	9379.0875
3171.86151	9360.8875
3174.18631	9367.9875
3176.5097	9348.1875
3178.83169	9335.0875
3181.15228	9357.2875
3183.47147	9325.4875
3185.78926	9341.8875
3188.10565	9320.3875
3190.42065	9337.6875
3192.73424	9316.2875
3195.04645	9312.6875
3197.35725	9341.0875
3199.66667	9322.0875
3201.97469	9321.6875
3204.28132	9311.2875
3206.58656	9337.0875
3208.8904	9339.0875
3211.19287	9352.5875
3213.49394	9331.0875
3215.79363	9321.2875
3218.09193	9327.2875
3220.38884	9304.5875
3222.68438	9334.2875
3224.97853	9315.4875
3227.2713	9290.6875
3229.56269	9281.3875
3231.8527	9266.8875
3234.14133	9261.6875
3236.42858	9232.5875
3238.71446	9230.5875
3240.99896	9206.7875
3243.28209	9198.6875
3245.56384	9200.8875
3247.84423	9232.7875
3250.12324	9180.7875
3252.40088	9168.7875
3254.67715	9154.0875
3256.95205	9133.1875
3259.22558	9140.0875
3261.49775	9110.8875
3263.76855	9096.2875
3266.03799	9050.4875
3268.30606	9062.5875
3270.57277	9017.4875
3272.83812	9040.6875
3275.10211	8991.9875
3277.36474	8979.7875
3279.62601	8981.6875
3281.88593	8986.8875
3284.14448	9000.6875
3286.40168	8983.4875
3288.65753	8953.1875
3290.91202	8962.1875
3293.16516	8919.7875
3295.41695	8914.2875
3297.66738	8825.9875
3299.91647	8798.6875
3302.16421	8757.3875
3304.4106	8723.2875
3306.65564	8686.7875
3308.89933	8621.0875
3311.14169	8571.6875
3313.38269	8482.5875
3315.62236	8421.6875
3317.86068	8355.5875
3320.09766	8267.0875
3322.3333	8193.9875
3324.5676	8190.5875
3326.80056	8061.6875
3329.03219	8002.4875
3331.26248	2.4875
3333.49143	-0.0125
3335.71905	-0.6125
