Data from AgNPs_FTO_APTES_UA_2uM_CRN_50uM_R6G_10uM_NaF_0.1M_Addition_RamanShift__10__14-47-55-241.txt Node

Date: Wed Feb 02 14:47:55 GMT 2022
User: TCL
Spectrometer: QEP01345
Trigger mode: 4
Integration Time (sec): 7.000000E0
Scans to average: 10
Electric dark correction enabled: true
Nonlinearity correction enabled: false
Boxcar width: 0
XAxis mode: Raman Shifts
Number of Pixels in Spectrum: 1044
>>>>>Begin Spectral Data<<<<<
46.04893	-0.1625
50.45542	0.8375
54.85868	-0.4625
59.25871	-1.3625
63.6555	88.1375
68.04907	94.0375
72.43941	95.3375
76.82654	103.4375
81.21044	107.9375
85.59113	112.8375
89.96862	115.4375
94.34289	118.3375
98.71396	121.7375
103.08183	130.7375
107.4465	137.0375
111.80798	139.7375
116.16626	137.8375
120.52136	146.9375
124.87327	150.0375
129.222	157.8375
133.56755	173.5375
137.90993	176.5375
142.24913	200.0375
146.58517	226.9375
150.91804	259.3375
155.24774	311.9375
159.57429	384.5375
163.89768	493.4375
168.21792	650.3375
172.53501	890.6375
176.84895	1247.0375
181.15975	1737.9375
185.46741	2438.8375
189.77193	3344.0375
194.07331	4468.5375
198.37157	5769.0375
202.6667	7118.6375
206.9587	8451.8375
211.24758	9765.0375
215.53334	11093.6375
219.81599	12466.3375
224.09553	14009.2375
228.37195	15644.4375
232.64527	17451.2375
236.91549	19354.2375
241.18261	21257.5375
245.44663	23065.6375
249.70755	24713.7375
253.96539	26108.6375
258.22014	27345.0375
262.4718	28342.7375
266.72039	28994.2375
270.96589	29389.2375
275.20832	29455.9375
279.44768	29373.7375
283.68397	29260.4375
287.91719	29150.4375
292.14735	29120.3375
296.37445	29157.1375
300.59849	29280.5375
304.81948	29420.5375
309.03742	29348.8375
313.25231	29161.1375
317.46415	28573.5375
321.67296	27786.5375
325.87872	27139.5375
330.08145	26710.7375
334.28114	26587.8375
338.47781	26691.6375
342.67145	26915.1375
346.86207	27183.2375
351.04966	27537.0375
355.23424	27849.8375
359.4158	28136.9375
363.59435	28428.7375
367.76989	28556.6375
371.94243	28690.6375
376.11196	28674.7375
380.27849	28600.2375
384.44203	28575.7375
388.60257	28777.0375
392.76012	29189.5375
396.91468	29741.8375
401.06626	30336.3375
405.21485	30608.5375
409.36047	30483.2375
413.50311	30131.5375
417.64277	29980.5375
421.77947	30115.8375
425.9132	30367.2375
430.04396	30554.7375
434.17176	30653.0375
438.2966	30741.1375
442.41849	31018.1375
446.53742	31697.3375
450.6534	32462.8375
454.76644	33057.8375
458.87653	33321.3375
462.98368	33311.9375
467.08789	33133.7375
471.18916	32836.3375
475.2875	32644.8375
479.38291	32662.6375
483.4754	32646.6375
487.56496	32327.9375
491.6516	31681.4375
495.73531	30906.2375
499.81612	30410.1375
503.89401	30414.7375
507.96899	30456.5375
512.04106	30512.8375
516.11023	30324.7375
520.1765	29930.3375
524.23987	29418.9375
528.30034	28958.4375
532.35792	28547.5375
536.41261	28254.4375
540.46441	28043.4375
544.51333	28126.6375
548.55936	28628.2375
552.60252	29303.2375
556.64279	30094.1375
560.6802	30735.9375
564.71473	31256.7375
568.7464	32202.1375
572.7752	33659.7375
576.80114	35392.2375
580.82422	36865.2375
584.84444	38151.4375
588.86181	39545.9375
592.87633	40676.0375
596.888	40165.6375
600.89682	37925.3375
604.9028	36637.4375
608.90594	37397.8375
612.90624	38104.6375
616.90371	35393.5375
620.89834	30707.2375
624.89015	28788.6375
628.87913	28861.7375
632.86528	29243.3375
636.84862	29229.9375
640.82913	28636.6375
644.80683	27829.1375
648.78172	27334.3375
652.75379	27233.8375
656.72306	27489.3375
660.68952	27761.2375
664.65319	27593.5375
668.61405	27214.0375
672.57211	27147.3375
676.52738	27205.9375
680.47986	27209.3375
684.42955	27055.2375
688.37646	26917.9375
692.32058	27058.6375
696.26192	27400.9375
700.20048	27810.5375
704.13626	28143.2375
708.06928	28396.2375
711.99952	28417.9375
715.927	28377.6375
719.85171	28245.4375
723.77365	27911.6375
727.69284	27374.1375
731.60928	26915.5375
735.52295	26641.0375
739.43388	26548.1375
743.34206	26613.6375
747.24749	26871.7375
751.15017	27223.5375
755.05012	27923.5375
758.94733	28905.0375
762.8418	30385.2375
766.73354	32398.9375
770.62254	33957.9375
774.50882	33772.6375
778.39237	31896.4375
782.27321	29802.9375
786.15132	28245.1375
790.02671	27193.2375
793.89938	26658.1375
797.76935	26355.7375
801.6366	26264.6375
805.50115	26210.6375
809.36299	26047.7375
813.22213	25931.5375
817.07857	25853.0375
820.93231	25802.4375
824.78336	25624.1375
828.63172	25426.4375
832.47738	25255.5375
836.32036	25144.0375
840.16066	25142.1375
843.99827	25123.8375
847.8332	25070.2375
851.66546	25105.3375
855.49504	25173.4375
859.32195	25175.4375
863.1462	25076.0375
866.96777	24999.5375
870.78668	24941.9375
874.60293	24902.6375
878.41652	24856.4375
882.22745	24969.0375
886.03573	24984.9375
889.84136	25036.5375
893.64433	24900.5375
897.44466	24867.1375
901.24235	24865.6375
905.0374	24786.7375
908.8298	24844.4375
912.61957	24940.7375
916.40671	25382.6375
920.19121	25884.7375
923.97308	26265.1375
927.75233	26122.4375
931.52895	25610.7375
935.30295	24982.4375
939.07433	24394.0375
942.84309	23964.1375
946.60924	23689.7375
950.37278	23594.7375
954.13371	23610.1375
957.89203	23662.8375
961.64774	23731.7375
965.40086	23748.6375
969.15137	23672.0375
972.89929	23469.5375
976.64461	23250.2375
980.38733	23141.1375
984.12747	23089.9375
987.86502	23152.0375
991.59999	23228.8375
995.33237	23414.8375
999.06217	23659.8375
1002.78939	24063.0375
1006.51404	24475.2375
1010.23611	24877.3375
1013.95561	25249.2375
1017.67255	25293.6375
1021.38692	25141.8375
1025.09872	24758.9375
1028.80796	24461.4375
1032.51465	24287.8375
1036.21877	24343.5375
1039.92035	24479.0375
1043.61937	24626.5375
1047.31584	24788.9375
1051.00976	24875.1375
1054.70114	25057.7375
1058.38998	25365.9375
1062.07627	25822.2375
1065.76003	26307.1375
1069.44126	26769.3375
1073.11995	27276.4375
1076.79611	27687.0375
1080.46974	27746.6375
1084.14085	27814.9375
1087.80943	28128.0375
1091.47549	28520.7375
1095.13903	28651.8375
1098.80005	28308.4375
1102.45857	27417.9375
1106.11456	26530.8375
1109.76805	26071.6375
1113.41903	25965.9375
1117.06751	26057.7375
1120.71348	26325.5375
1124.35696	26626.0375
1127.99793	27039.3375
1131.63641	27327.3375
1135.2724	27350.8375
1138.90589	27459.7375
1142.5369	27657.8375
1146.16542	28074.7375
1149.79145	28620.3375
1153.415	29140.1375
1157.03607	29791.2375
1160.65467	30912.2375
1164.27079	32567.6375
1167.88443	34455.8375
1171.49561	36375.0375
1175.10432	38470.2375
1178.71056	41022.0375
1182.31434	43377.1375
1185.91565	44727.5375
1189.51451	44868.7375
1193.11091	44335.8375
1196.70485	43112.4375
1200.29634	41564.5375
1203.88538	40526.2375
1207.47197	40385.4375
1211.05612	40460.9375
1214.63782	39891.5375
1218.21708	38527.4375
1221.79391	36674.7375
1225.36829	35208.0375
1228.94024	34249.0375
1232.50976	33721.1375
1236.07685	33353.9375
1239.6415	33211.7375
1243.20374	33345.9375
1246.76355	33619.0375
1250.32093	34140.3375
1253.8759	34911.5375
1257.42845	35991.8375
1260.97859	37161.9375
1264.52631	38320.0375
1268.07163	39554.2375
1271.61453	40723.0375
1275.15503	42032.5375
1278.69312	43589.5375
1282.22882	45385.5375
1285.76211	47459.2375
1289.29301	49869.4375
1292.82151	52663.9375
1296.34761	55900.0375
1299.87133	59371.7375
1303.39266	62355.3375
1306.9116	64409.4375
1310.42815	65470.6375
1313.94233	65648.9375
1317.45412	65171.6375
1320.96354	64796.1375
1324.47058	64934.7375
1327.97525	65432.3375
1331.47754	65815.9375
1334.97747	65795.9375
1338.47502	65428.4375
1341.97022	64651.9375
1345.46305	63768.9375
1348.95352	62610.6375
1352.44163	61378.3375
1355.92738	60785.9375
1359.41078	61189.7375
1362.89183	61704.8375
1366.37053	60767.1375
1369.84688	57174.1375
1373.32088	52078.0375
1376.79254	48317.1375
1380.26186	47254.1375
1383.72883	47765.0375
1387.19347	48278.0375
1390.65578	48317.2375
1394.11575	48174.4375
1397.57339	48460.4375
1401.0287	49114.4375
1404.48168	49442.7375
1407.93234	48795.3375
1411.38068	47081.7375
1414.82669	44718.7375
1418.27039	42283.9375
1421.71177	40038.9375
1425.15083	38407.9375
1428.58758	37727.3375
1432.02203	38086.7375
1435.45416	39303.6375
1438.88399	40789.2375
1442.31151	42007.3375
1445.73673	42791.2375
1449.15965	43463.9375
1452.58027	43985.0375
1455.9986	44232.4375
1459.41463	44592.6375
1462.82837	45121.8375
1466.23982	45764.1375
1469.64898	46305.1375
1473.05586	46553.4375
1476.46045	46439.1375
1479.86276	45989.8375
1483.26279	45429.0375
1486.66054	45215.9375
1490.05602	45387.4375
1493.44922	46023.8375
1496.84016	46793.7375
1500.22882	47767.0375
1503.61521	48850.2375
1506.99934	49961.1375
1510.38121	50879.4375
1513.76081	51168.4375
1517.13816	51112.7375
1520.51324	50924.1375
1523.88607	51133.4375
1527.25665	51645.6375
1530.62498	51864.5375
1533.99105	51430.7375
1537.35488	50234.9375
1540.71647	48435.5375
1544.07581	46384.1375
1547.4329	44414.0375
1550.78776	42948.2375
1554.14038	41903.0375
1557.49077	41390.6375
1560.83892	41037.8375
1564.18484	40911.0375
1567.52853	40946.5375
1570.86999	41407.7375
1574.20922	42554.5375
1577.54624	43811.8375
1580.88103	44678.9375
1584.2136	45634.7375
1587.54395	47162.7375
1590.87208	49293.2375
1594.19801	51626.6375
1597.52172	53417.7375
1600.84321	53035.7375
1604.16251	49910.7375
1607.47959	45587.8375
1610.79447	41393.7375
1614.10715	37741.9375
1617.41763	34766.5375
1620.7259	32673.5375
1624.03199	31627.2375
1627.33587	31645.5375
1630.63757	32843.8375
1633.93707	35395.1375
1637.23439	39684.4375
1640.52951	45882.7375
1643.82246	53108.1375
1647.11321	58877.5375
1650.40179	59970.9375
1653.68819	55493.7375
1656.97241	47666.5375
1660.25446	39759.3375
1663.53433	33710.6375
1666.81203	29572.1375
1670.08756	26932.1375
1673.36092	25272.4375
1676.63211	24219.6375
1679.90115	23476.6375
1683.16801	22942.1375
1686.43272	22605.9375
1689.69527	22281.7375
1692.95567	22017.4375
1696.2139	21866.8375
1699.46999	21716.8375
1702.72392	21587.2375
1705.97571	21497.5375
1709.22535	21383.1375
1712.47284	21265.4375
1715.71819	21187.6375
1718.96139	21090.9375
1722.20246	20999.6375
1725.44139	20880.0375
1728.67818	20745.8375
1731.91284	20543.5375
1735.14537	20457.6375
1738.37576	20327.9375
1741.60403	20221.2375
1744.83017	20139.3375
1748.05418	20120.9375
1751.27607	20048.5375
1754.49584	20009.4375
1757.71349	19991.7375
1760.92903	19935.1375
1764.14244	19911.3375
1767.35375	19840.4375
1770.56294	19774.6375
1773.77002	19734.1375
1776.97499	19647.4375
1780.17785	19622.9375
1783.37861	19544.2375
1786.57727	19535.3375
1789.77382	19460.5375
1792.96828	19381.3375
1796.16064	19349.6375
1799.3509	19276.1375
1802.53907	19264.9375
1805.72514	19191.8375
1808.90913	19116.0375
1812.09102	19064.6375
1815.27083	19055.0375
1818.44856	19001.9375
1821.6242	18978.4375
1824.79776	18984.0375
1827.96924	18940.6375
1831.13864	18912.9375
1834.30597	18925.3375
1837.47122	18956.4375
1840.6344	18944.1375
1843.7955	18937.3375
1846.95454	18918.8375
1850.11151	18902.0375
1853.26642	18900.0375
1856.41926	18849.8375
1859.57004	18830.3375
1862.71876	18744.8375
1865.86542	18731.8375
1869.01003	18702.6375
1872.15258	18641.5375
1875.29308	18650.0375
1878.43152	18601.7375
1881.56792	18581.7375
1884.70227	18492.7375
1887.83457	18484.7375
1890.96482	18442.1375
1894.09304	18387.3375
1897.21921	18443.8375
1900.34335	18375.8375
1903.46544	18337.8375
1906.58551	18311.7375
1909.70353	18258.3375
1912.81953	18186.4375
1915.93349	18131.0375
1919.04543	18077.5375
1922.15534	18054.5375
1925.26322	18011.4375
1928.36908	17983.8375
1931.47292	17920.6375
1934.57473	17847.5375
1937.67453	17794.2375
1940.77232	17726.5375
1943.86808	17698.8375
1946.96184	17689.4375
1950.05358	17619.1375
1953.14331	17548.9375
1956.23103	17492.5375
1959.31675	17438.5375
1962.40046	17390.1375
1965.48217	17312.2375
1968.56188	17238.8375
1971.63959	17160.4375
1974.7153	17132.4375
1977.78901	17078.3375
1980.86073	17008.2375
1983.93046	16939.3375
1986.99819	16866.1375
1990.06394	16857.3375
1993.1277	16809.2375
1996.18947	16729.4375
1999.24925	16676.5375
2002.30706	16590.7375
2005.36288	16554.5375
2008.41672	16519.2375
2011.46859	16427.3375
2014.51848	16374.5375
2017.56639	16287.5375
2020.61233	16271.6375
2023.6563	16237.9375
2026.6983	16209.7375
2029.73833	16159.8375
2032.7764	16131.7375
2035.8125	16088.8375
2038.84664	16026.3375
2041.87881	16025.1375
2044.90903	15959.2375
2047.93729	15943.0375
2050.96359	15929.8375
2053.98794	15889.0375
2057.01034	15871.0375
2060.03078	15877.4375
2063.04927	15840.3375
2066.06582	15853.0375
2069.08042	15825.5375
2072.09307	15816.6375
2075.10378	15781.0375
2078.11255	15758.6375
2081.11938	15709.1375
2084.12426	15698.2375
2087.12722	15696.6375
2090.12824	15729.7375
2093.12732	15697.9375
2096.12447	15720.3375
2099.11969	15708.5375
2102.11299	15717.3375
2105.10435	15739.8375
2108.09379	15736.7375
2111.08131	15726.9375
2114.0669	15698.8375
2117.05057	15703.3375
2120.03233	15719.8375
2123.01216	15729.2375
2125.99008	15747.0375
2128.96609	15733.1375
2131.94018	15706.6375
2134.91236	15694.1375
2137.88263	15713.6375
2140.851	15687.3375
2143.81746	15722.4375
2146.78201	15686.4375
2149.74466	15708.9375
2152.7054	15674.0375
2155.66425	15671.2375
2158.6212	15669.9375
2161.57625	15663.2375
2164.52941	15632.0375
2167.48067	15590.2375
2170.43004	15602.1375
2173.37752	15560.4375
2176.32311	15542.6375
2179.26681	15573.3375
2182.20863	15560.9375
2185.14856	15553.8375
2188.08661	15527.5375
2191.02278	15558.0375
2193.95707	15517.1375
2196.88948	15498.6375
2199.82001	15471.7375
2202.74867	15438.6375
2205.67545	15409.1375
2208.60037	15385.2375
2211.52341	15345.6375
2214.44458	15310.7375
2217.36388	15296.0375
2220.28132	15270.2375
2223.1969	15249.7375
2226.11061	15224.6375
2229.02246	15215.6375
2231.93245	15198.4375
2234.84058	15170.7375
2237.74686	15118.4375
2240.65128	15116.8375
2243.55385	15113.5375
2246.45456	15074.0375
2249.35343	15031.5375
2252.25044	14992.5375
2255.14561	14906.3375
2258.03893	14886.4375
2260.93041	14856.6375
2263.82004	14796.1375
2266.70783	14745.9375
2269.59378	14696.3375
2272.4779	14662.1375
2275.36017	14623.1375
2278.24061	14603.4375
2281.11922	14587.6375
2283.996	14548.0375
2286.87094	14496.8375
2289.74405	14476.9375
2292.61534	14445.0375
2295.4848	14425.7375
2298.35243	14418.7375
2301.21824	14393.3375
2304.08223	14359.5375
2306.94439	14390.0375
2309.80474	14362.7375
2312.66327	14344.0375
2315.51999	14306.4375
2318.37489	14315.8375
2321.22797	14278.4375
2324.07925	14277.3375
2326.92871	14246.0375
2329.77637	14240.5375
2332.62222	14185.1375
2335.46626	14176.7375
2338.3085	14185.9375
2341.14893	14133.9375
2343.98756	14141.3375
2346.8244	14133.2375
2349.65943	14154.0375
2352.49267	14112.0375
2355.32411	14141.1375
2358.15376	14133.4375
2360.98161	14126.4375
2363.80768	14121.0375
2366.63195	14090.3375
2369.45444	14074.0375
2372.27514	14065.3375
2375.09405	14039.3375
2377.91118	13985.4375
2380.72652	13976.8375
2383.54009	13985.8375
2386.35187	13948.6375
2389.16188	13901.2375
2391.97011	13815.6375
2394.77657	13838.7375
2397.58125	13785.3375
2400.38416	13774.9375
2403.18529	13771.4375
2405.98466	13729.4375
2408.78226	13707.9375
2411.57809	13707.3375
2414.37216	13699.7375
2417.16446	13706.6375
2419.955	13686.1375
2422.74378	13667.6375
2425.5308	13649.7375
2428.31606	13633.4375
2431.09956	13631.3375
2433.88131	13586.4375
2436.6613	13583.1375
2439.43954	13574.5375
2442.21603	13592.3375
2444.99077	13564.7375
2447.76377	13560.7375
2450.53501	13552.4375
2453.30451	13552.4375
2456.07226	13508.5375
2458.83827	13518.2375
2461.60254	13522.4375
2464.36507	13519.5375
2467.12586	13478.1375
2469.88492	13461.3375
2472.64224	13470.3375
2475.39782	13480.5375
2478.15167	13480.7375
2480.90379	13445.2375
2483.65417	13443.9375
2486.40283	13469.7375
2489.14976	13456.5375
2491.89497	13423.6375
2494.63845	13435.2375
2497.3802	13431.6375
2500.12024	13423.2375
2502.85855	13426.3375
2505.59514	13438.0375
2508.33002	13414.6375
2511.06318	13420.6375
2513.79462	13396.5375
2516.52435	13384.2375
2519.25237	13355.8375
2521.97867	13358.9375
2524.70327	13339.8375
2527.42616	13329.3375
2530.14734	13324.0375
2532.86681	13312.7375
2535.58458	13286.8375
2538.30065	13268.7375
2541.01501	13271.6375
2543.72768	13246.4375
2546.43864	13225.3375
2549.14791	13187.8375
2551.85548	13211.4375
2554.56136	13175.7375
2557.26554	13200.8375
2559.96803	13153.2375
2562.66883	13147.4375
2565.36794	13160.1375
2568.06536	13138.7375
2570.7611	13136.9375
2573.45514	13096.3375
2576.14751	13091.4375
2578.83819	13065.6375
2581.52719	13057.2375
2584.21451	13034.4375
2586.90015	13038.2375
2589.58411	13014.7375
2592.2664	13016.7375
2594.94701	12990.8375
2597.62594	12996.0375
2600.30321	12962.5375
2602.9788	12985.3375
2605.65273	12957.2375
2608.32498	12954.0375
2610.99557	12960.5375
2613.66449	12975.3375
2616.33175	12931.4375
2618.99734	12946.3375
2621.66128	12925.0375
2624.32355	12941.9375
2626.98416	12898.7375
2629.64311	12923.2375
2632.30041	12914.4375
2634.95605	12879.6375
2637.61004	12872.4375
2640.26238	12864.9375
2642.91306	12857.7375
2645.56209	12855.4375
2648.20948	12859.4375
2650.85521	12852.3375
2653.4993	12853.7375
2656.14175	12851.6375
2658.78255	12876.8375
2661.42171	12885.9375
2664.05923	12887.2375
2666.6951	12886.3375
2669.32934	12909.0375
2671.96194	12889.5375
2674.59291	12876.6375
2677.22224	12890.2375
2679.84993	12891.4375
2682.476	12880.5375
2685.10043	12871.0375
2687.72324	12885.2375
2690.34441	12855.6375
2692.96396	12847.6375
2695.58188	12863.8375
2698.19818	12861.9375
2700.81285	12864.6375
2703.4259	12891.5375
2706.03733	12933.9375
2708.64714	12881.3375
2711.25533	12885.5375
2713.86191	12864.2375
2716.46687	12900.6375
2719.07021	12920.2375
2721.67194	12943.1375
2724.27206	12897.6375
2726.87057	12933.6375
2729.46747	12932.9375
2732.06276	12942.6375
2734.65644	12914.1375
2737.24852	12938.4375
2739.83899	12913.6375
2742.42786	12875.6375
2745.01513	12861.6375
2747.60079	12876.6375
2750.18486	12833.8375
2752.76733	12861.0375
2755.3482	12861.0375
2757.92747	12864.8375
2760.50515	12846.8375
2763.08123	12876.9375
2765.65573	12863.5375
2768.22863	12860.9375
2770.79994	12786.8375
2773.36967	12822.6375
2775.9378	12813.7375
2778.50435	12805.7375
2781.06932	12781.6375
2783.6327	12789.0375
2786.1945	12806.3375
2788.75471	12755.1375
2791.31335	12764.3375
2793.87041	12754.9375
2796.42589	12708.7375
2798.97979	12711.3375
2801.53212	12694.5375
2804.08288	12664.7375
2806.63206	12644.7375
2809.17967	12623.3375
2811.72571	12577.8375
2814.27018	12586.9375
2816.81308	12555.2375
2819.35442	12520.6375
2821.89419	12495.7375
2824.43239	12484.9375
2826.96904	12472.7375
2829.50412	12464.9375
2832.03763	12463.6375
2834.56959	12447.9375
2837.1	12458.6375
2839.62884	12421.5375
2842.15613	12400.6375
2844.68186	12442.4375
2847.20604	12470.0375
2849.72867	12471.7375
2852.24974	12479.3375
2854.76927	12471.0375
2857.28724	12454.8375
2859.80367	12445.0375
2862.31855	12371.0375
2864.83189	12351.1375
2867.34368	12357.2375
2869.85393	12349.3375
2872.36264	12338.3375
2874.8698	12324.5375
2877.37543	12326.9375
2879.87952	12293.2375
2882.38207	12301.5375
2884.88308	12283.5375
2887.38256	12289.9375
2889.88051	12268.1375
2892.37692	12285.3375
2894.8718	12253.4375
2897.36515	12288.5375
2899.85698	12275.6375
2902.34727	12310.2375
2904.83604	12302.1375
2907.32328	12329.5375
2909.809	12301.7375
2912.29319	12297.7375
2914.77587	12280.9375
2917.25702	12268.2375
2919.73665	12290.3375
2922.21476	12293.4375
2924.69136	12292.6375
2927.16644	12290.1375
2929.64	12309.5375
2932.11205	12280.4375
2934.58258	12250.2375
2937.05161	12278.7375
2939.51912	12283.0375
2941.98513	12247.2375
2944.44962	12175.3375
2946.91261	12151.3375
2949.37409	12160.4375
2951.83407	12110.3375
2954.29254	12126.7375
2956.74951	12084.7375
2959.20498	12055.2375
2961.65895	12033.9375
2964.11142	12030.5375
2966.56239	12000.9375
2969.01186	12013.0375
2971.45984	11947.7375
2973.90632	11944.9375
2976.35131	11889.3375
2978.7948	11868.0375
2981.23681	11818.9375
2983.67732	11779.5375
2986.11635	11771.6375
2988.55388	11755.2375
2990.98993	11718.1375
2993.4245	11653.2375
2995.85758	11636.6375
2998.28917	11626.9375
3000.71928	11582.5375
3003.14791	11568.6375
3005.57506	11524.7375
3008.00073	11486.4375
3010.42493	11454.6375
3012.84764	11440.6375
3015.26888	11420.2375
3017.68865	11403.1375
3020.10694	11379.6375
3022.52376	11357.6375
3024.9391	11298.1375
3027.35298	11297.8375
3029.76539	11299.7375
3032.17632	11293.3375
3034.5858	11293.9375
3036.9938	11261.3375
3039.40034	11254.1375
3041.80542	11242.7375
3044.20903	11178.7375
3046.61118	11190.0375
3049.01187	11158.1375
3051.4111	11124.8375
3053.80888	11099.9375
3056.20519	11070.0375
3058.60005	11021.9375
3060.99345	11030.8375
3063.3854	10982.5375
3065.7759	10957.9375
3068.16494	10905.4375
3070.55254	10844.9375
3072.93868	10844.9375
3075.32338	10805.0375
3077.70662	10768.0375
3080.08842	10738.1375
3082.46878	10719.5375
3084.84769	10703.3375
3087.22515	10708.6375
3089.60118	10698.8375
3091.97576	10658.4375
3094.3489	10636.7375
3096.72061	10618.2375
3099.09087	10637.8375
3101.4597	10607.0375
3103.82709	10593.7375
3106.19305	10574.7375
3108.55757	10580.9375
3110.92066	10516.7375
3113.28232	10504.5375
3115.64255	10469.2375
3118.00134	10422.6375
3120.35871	10408.5375
3122.71466	10371.7375
3125.06917	10378.9375
3127.42226	10351.2375
3129.77393	10363.5375
3132.12417	10326.1375
3134.47299	10323.9375
3136.82039	10310.3375
3139.16636	10317.0375
3141.51092	10274.2375
3143.85406	10285.9375
3146.19579	10324.1375
3148.53609	10292.8375
3150.87499	10279.7375
3153.21246	10274.5375
3155.54853	10282.9375
3157.88318	10254.2375
3160.21642	10260.6375
3162.54826	10248.5375
3164.87868	10225.3375
3167.2077	10214.4375
3169.5353	10242.4375
3171.86151	10198.0375
3174.18631	10176.3375
3176.5097	10173.4375
3178.83169	10156.9375
3181.15228	10180.3375
3183.47147	10123.6375
3185.78926	10136.8375
3188.10565	10091.9375
3190.42065	10099.4375
3192.73424	10083.0375
3195.04645	10059.5375
3197.35725	10082.3375
3199.66667	10040.0375
3201.97469	10040.2375
3204.28132	10014.0375
3206.58656	10020.9375
3208.8904	10009.1375
3211.19287	10012.2375
3213.49394	10002.1375
3215.79363	10011.3375
3218.09193	9994.2375
3220.38884	9981.4375
3222.68438	9991.5375
3224.97853	9974.9375
3227.2713	9971.2375
3229.56269	9937.4375
3231.8527	9959.3375
3234.14133	9928.6375
3236.42858	9905.9375
3238.71446	9903.2375
3240.99896	9875.5375
3243.28209	9868.6375
3245.56384	9877.8375
3247.84423	9828.9375
3250.12324	9838.6375
3252.40088	9820.6375
3254.67715	9778.5375
3256.95205	9750.7375
3259.22558	9737.6375
3261.49775	9717.2375
3263.76855	9717.3375
3266.03799	9656.7375
3268.30606	9654.6375
3270.57277	9623.1375
3272.83812	9604.1375
3275.10211	9596.7375
3277.36474	9593.0375
3279.62601	9560.7375
3281.88593	9567.5375
3284.14448	9600.5375
3286.40168	9571.7375
3288.65753	9556.1375
3290.91202	9547.2375
3293.16516	9501.7375
3295.41695	9476.9375
3297.66738	9410.0375
3299.91647	9353.8375
3302.16421	9318.7375
3304.4106	9260.8375
3306.65564	9194.6375
3308.89933	9141.4375
3311.14169	9082.1375
3313.38269	9004.0375
3315.62236	8963.7375
3317.86068	8862.0375
3320.09766	8755.1375
3322.3333	8665.5375
3324.5676	8682.7375
3326.80056	8539.6375
3329.03219	8485.4375
3331.26248	2.6375
3333.49143	0.0375
3335.71905	-1.3625
