Data from AgNPs_FTO_APTES_UA_2uM_CRN_5uM_R6G_10uM_NaF_0.1M_Addition_RamanShift__20__13-01-45-117.txt Node

Date: Wed Feb 02 13:01:45 GMT 2022
User: TCL
Spectrometer: QEP01345
Trigger mode: 4
Integration Time (sec): 7.000000E0
Scans to average: 10
Electric dark correction enabled: true
Nonlinearity correction enabled: false
Boxcar width: 0
XAxis mode: Raman Shifts
Number of Pixels in Spectrum: 1044
>>>>>Begin Spectral Data<<<<<
46.04893	0.0875
50.45542	0.7875
54.85868	-2.0125
59.25871	-0.6125
63.6555	87.3875
68.04907	95.2875
72.43941	94.4875
76.82654	103.8875
81.21044	107.1875
85.59113	114.0875
89.96862	108.3875
94.34289	113.3875
98.71396	120.5875
103.08183	126.4875
107.4465	130.4875
111.80798	131.9875
116.16626	136.6875
120.52136	145.4875
124.87327	152.5875
129.222	159.0875
133.56755	176.6875
137.90993	189.2875
142.24913	214.1875
146.58517	246.4875
150.91804	286.0875
155.24774	347.2875
159.57429	439.1875
163.89768	567.6875
168.21792	762.1875
172.53501	1046.8875
176.84895	1460.4875
181.15975	2061.0875
185.46741	2895.7875
189.77193	3984.2875
194.07331	5318.8875
198.37157	6882.4875
202.6667	8482.1875
206.9587	10043.0875
211.24758	11596.1875
215.53334	13201.3875
219.81599	14878.1875
224.09553	16782.8875
228.37195	18904.1875
232.64527	21225.2875
236.91549	23627.3875
241.18261	25956.4875
245.44663	28106.3875
249.70755	30086.9875
253.96539	31712.4875
258.22014	33145.7875
262.4718	34418.3875
266.72039	35398.6875
270.96589	35981.4875
275.20832	36200.8875
279.44768	36143.4875
283.68397	35971.3875
287.91719	35857.1875
292.14735	35879.4875
296.37445	36021.7875
300.59849	36260.5875
304.81948	36377.8875
309.03742	36251.5875
313.25231	35712.1875
317.46415	34517.9875
321.67296	33172.9875
325.87872	32041.7875
330.08145	31476.7875
334.28114	31375.2875
338.47781	31580.2875
342.67145	32069.7875
346.86207	32704.3875
351.04966	33564.5875
355.23424	34484.9875
359.4158	35167.3875
363.59435	35648.4875
367.76989	35935.0875
371.94243	36173.8875
376.11196	36289.5875
380.27849	36425.3875
384.44203	36520.4875
388.60257	36677.7875
392.76012	37033.0875
396.91468	37496.2875
401.06626	38172.1875
405.21485	38694.1875
409.36047	38452.9875
413.50311	37661.2875
417.64277	37003.2875
421.77947	36839.1875
425.9132	36930.9875
430.04396	37183.4875
434.17176	37438.5875
438.2966	37734.1875
442.41849	38314.9875
446.53742	39288.1875
450.6534	40481.1875
454.76644	41404.1875
458.87653	41838.3875
462.98368	41718.2875
467.08789	41342.4875
471.18916	40723.0875
475.2875	40200.9875
479.38291	39849.0875
483.4754	39553.8875
487.56496	39026.9875
491.6516	38384.4875
495.73531	37864.9875
499.81612	37583.7875
503.89401	37709.0875
507.96899	37806.0875
512.04106	37748.3875
516.11023	37537.8875
520.1765	37225.4875
524.23987	36817.4875
528.30034	36335.7875
532.35792	35893.1875
536.41261	35393.6875
540.46441	34974.0875
544.51333	35006.5875
548.55936	35572.6875
552.60252	36552.4875
556.64279	37549.4875
560.6802	38092.1875
564.71473	38429.4875
568.7464	39107.7875
572.7752	40070.2875
576.80114	40661.0875
580.82422	41027.3875
584.84444	41381.3875
588.86181	41549.3875
592.87633	41848.3875
596.888	42296.0875
600.89682	42783.4875
604.9028	44758.1875
608.90594	49831.2875
612.90624	55064.7875
616.90371	51596.0875
620.89834	41863.5875
624.89015	37641.5875
628.87913	37225.4875
632.86528	37253.3875
636.84862	36944.4875
640.82913	36154.2875
644.80683	35010.7875
648.78172	34124.3875
652.75379	33975.5875
656.72306	34495.6875
660.68952	35348.6875
664.65319	35173.7875
668.61405	34410.9875
672.57211	34108.2875
676.52738	34097.2875
680.47986	34139.1875
684.42955	33977.3875
688.37646	33889.0875
692.32058	34073.7875
696.26192	34432.3875
700.20048	34833.4875
704.13626	35130.7875
708.06928	35039.1875
711.99952	34707.9875
715.927	34551.7875
719.85171	34575.2875
723.77365	34431.0875
727.69284	33991.5875
731.60928	33592.6875
735.52295	33514.2875
739.43388	33600.9875
743.34206	33763.6875
747.24749	34041.4875
751.15017	34463.7875
755.05012	35210.4875
758.94733	36486.3875
762.8418	38874.0875
766.73354	42481.2875
770.62254	45968.0875
774.50882	46777.7875
778.39237	44166.0875
782.27321	40170.8875
786.15132	36929.1875
790.02671	35015.3875
793.89938	34144.8875
797.76935	33803.5875
801.6366	33666.6875
805.50115	33563.0875
809.36299	33350.7875
813.22213	33063.8875
817.07857	32957.2875
820.93231	32911.9875
824.78336	32830.7875
828.63172	32675.7875
832.47738	32719.7875
836.32036	32818.1875
840.16066	32977.4875
843.99827	33004.3875
847.8332	32941.1875
851.66546	32686.1875
855.49504	32607.3875
859.32195	32567.2875
863.1462	32401.8875
866.96777	32177.2875
870.78668	32110.5875
874.60293	32024.9875
878.41652	32088.5875
882.22745	32240.8875
886.03573	32327.7875
889.84136	32302.3875
893.64433	32178.8875
897.44466	31988.0875
901.24235	31898.1875
905.0374	31797.4875
908.8298	31729.1875
912.61957	31851.4875
916.40671	32239.9875
920.19121	32716.2875
923.97308	33237.4875
927.75233	33364.0875
931.52895	33295.2875
935.30295	32841.7875
939.07433	32076.4875
942.84309	31458.5875
946.60924	31186.7875
950.37278	31059.0875
954.13371	30869.1875
957.89203	30692.4875
961.64774	30602.6875
965.40086	30592.1875
969.15137	30454.6875
972.89929	30296.3875
976.64461	30207.9875
980.38733	30273.7875
984.12747	30387.3875
987.86502	30730.6875
991.59999	31229.6875
995.33237	32014.9875
999.06217	33166.1875
1002.78939	34622.1875
1006.51404	35546.0875
1010.23611	35961.0875
1013.95561	36256.3875
1017.67255	36286.2875
1021.38692	35822.8875
1025.09872	35472.6875
1028.80796	35890.4875
1032.51465	37124.8875
1036.21877	38433.1875
1039.92035	38606.9875
1043.61937	37879.4875
1047.31584	36618.4875
1051.00976	35317.7875
1054.70114	34606.9875
1058.38998	34479.7875
1062.07627	34638.8875
1065.76003	34879.9875
1069.44126	35166.7875
1073.11995	35516.1875
1076.79611	35919.7875
1080.46974	36177.4875
1084.14085	36513.6875
1087.80943	37014.4875
1091.47549	37308.1875
1095.13903	37209.3875
1098.80005	36574.6875
1102.45857	35753.9875
1106.11456	35107.8875
1109.76805	34919.9875
1113.41903	35043.7875
1117.06751	35400.1875
1120.71348	35878.6875
1124.35696	36417.9875
1127.99793	36962.5875
1131.63641	37176.5875
1135.2724	36875.4875
1138.90589	36435.9875
1142.5369	36169.1875
1146.16542	36128.2875
1149.79145	36203.4875
1153.415	36561.9875
1157.03607	37208.8875
1160.65467	38261.1875
1164.27079	39867.9875
1167.88443	42185.5875
1171.49561	45272.8875
1175.10432	49439.9875
1178.71056	54675.7875
1182.31434	59539.5875
1185.91565	62394.3875
1189.51451	62864.5875
1193.11091	60955.4875
1196.70485	57756.1875
1200.29634	54518.9875
1203.88538	51869.9875
1207.47197	49798.0875
1211.05612	48322.0875
1214.63782	47283.3875
1218.21708	46717.9875
1221.79391	46467.3875
1225.36829	46341.2875
1228.94024	46060.7875
1232.50976	45457.7875
1236.07685	45040.8875
1239.6415	44676.0875
1243.20374	44469.5875
1246.76355	44536.3875
1250.32093	45130.1875
1253.8759	46249.1875
1257.42845	47803.0875
1260.97859	49484.2875
1264.52631	50900.1875
1268.07163	52419.2875
1271.61453	54106.1875
1275.15503	56053.2875
1278.69312	57972.2875
1282.22882	59604.5875
1285.76211	61052.5875
1289.29301	62580.6875
1292.82151	64490.4875
1296.34761	66978.0875
1299.87133	70456.7875
1303.39266	74928.3875
1306.9116	80479.7875
1310.42815	86060.0875
1313.94233	89839.1875
1317.45412	90547.5875
1320.96354	89222.2875
1324.47058	87136.7875
1327.97525	84994.1875
1331.47754	83659.6875
1334.97747	82996.1875
1338.47502	83123.1875
1341.97022	83163.2875
1345.46305	82310.5875
1348.95352	80551.0875
1352.44163	78932.4875
1355.92738	79206.5875
1359.41078	82403.9875
1362.89183	85933.5875
1366.37053	84314.4875
1369.84688	77116.4875
1373.32088	68741.1875
1376.79254	63055.8875
1380.26186	60586.1875
1383.72883	59946.2875
1387.19347	59645.4875
1390.65578	59048.4875
1394.11575	59004.6875
1397.57339	59895.5875
1401.0287	61251.7875
1404.48168	62770.6875
1407.93234	63571.9875
1411.38068	63283.3875
1414.82669	61896.2875
1418.27039	59402.0875
1421.71177	56569.8875
1425.15083	54269.7875
1428.58758	52867.8875
1432.02203	52593.2875
1435.45416	53282.0875
1438.88399	54416.7875
1442.31151	55576.0875
1445.73673	56563.8875
1449.15965	57530.8875
1452.58027	58191.6875
1455.9986	58452.0875
1459.41463	58965.4875
1462.82837	59939.9875
1466.23982	61088.4875
1469.64898	62156.7875
1473.05586	62846.4875
1476.46045	62843.0875
1479.86276	62534.1875
1483.26279	62025.3875
1486.66054	61803.8875
1490.05602	62088.6875
1493.44922	62633.6875
1496.84016	63319.9875
1500.22882	64386.3875
1503.61521	66158.4875
1506.99934	68755.9875
1510.38121	71392.6875
1513.76081	72735.5875
1517.13816	71501.3875
1520.51324	68390.8875
1523.88607	65116.9875
1527.25665	63008.7875
1530.62498	61719.2875
1533.99105	61010.7875
1537.35488	60507.8875
1540.71647	59909.1875
1544.07581	59046.9875
1547.4329	58043.4875
1550.78776	57142.8875
1554.14038	56594.5875
1557.49077	56402.6875
1560.83892	56338.6875
1564.18484	56348.1875
1567.52853	56303.0875
1570.86999	56269.9875
1574.20922	56629.8875
1577.54624	57185.1875
1580.88103	57310.8875
1584.2136	57587.9875
1587.54395	59140.5875
1590.87208	62203.8875
1594.19801	66247.6875
1597.52172	70195.6875
1600.84321	71389.3875
1604.16251	68353.1875
1607.47959	62856.0875
1610.79447	57161.3875
1614.10715	51960.9875
1617.41763	47568.2875
1620.7259	44483.0875
1624.03199	43026.5875
1627.33587	42979.1875
1630.63757	44390.2875
1633.93707	47329.3875
1637.23439	51938.9875
1640.52951	57781.7875
1643.82246	63817.9875
1647.11321	68131.8875
1650.40179	68694.4875
1653.68819	64295.6875
1656.97241	56359.8875
1660.25446	48163.3875
1663.53433	41803.5875
1666.81203	37665.3875
1670.08756	35129.6875
1673.36092	33446.5875
1676.63211	32349.3875
1679.90115	31598.6875
1683.16801	31017.9875
1686.43272	30544.3875
1689.69527	30276.8875
1692.95567	30020.4875
1696.2139	29869.1875
1699.46999	29750.2875
1702.72392	29616.5875
1705.97571	29507.3875
1709.22535	29387.6875
1712.47284	29371.2875
1715.71819	29316.7875
1718.96139	29249.3875
1722.20246	29169.3875
1725.44139	29013.5875
1728.67818	28834.5875
1731.91284	28670.5875
1735.14537	28517.8875
1738.37576	28409.9875
1741.60403	28313.9875
1744.83017	28186.1875
1748.05418	28146.8875
1751.27607	28096.9875
1754.49584	28059.3875
1757.71349	28004.7875
1760.92903	27975.4875
1764.14244	27946.6875
1767.35375	27932.4875
1770.56294	27889.4875
1773.77002	27815.0875
1776.97499	27761.9875
1780.17785	27703.4875
1783.37861	27716.4875
1786.57727	27665.9875
1789.77382	27623.9875
1792.96828	27537.4875
1796.16064	27467.8875
1799.3509	27438.1875
1802.53907	27381.9875
1805.72514	27302.6875
1808.90913	27303.0875
1812.09102	27254.8875
1815.27083	27214.4875
1818.44856	27167.6875
1821.6242	27163.0875
1824.79776	27164.4875
1827.96924	27159.4875
1831.13864	27189.6875
1834.30597	27168.2875
1837.47122	27130.6875
1840.6344	27142.9875
1843.7955	27171.0875
1846.95454	27175.1875
1850.11151	27218.9875
1853.26642	27221.3875
1856.41926	27266.8875
1859.57004	27268.7875
1862.71876	27286.2875
1865.86542	27296.4875
1869.01003	27312.9875
1872.15258	27283.6875
1875.29308	27345.1875
1878.43152	27355.6875
1881.56792	27358.1875
1884.70227	27384.4875
1887.83457	27416.6875
1890.96482	27450.8875
1894.09304	27398.4875
1897.21921	27486.4875
1900.34335	27525.2875
1903.46544	27470.2875
1906.58551	27470.9875
1909.70353	27439.4875
1912.81953	27398.5875
1915.93349	27371.0875
1919.04543	27288.2875
1922.15534	27171.2875
1925.26322	27117.4875
1928.36908	27039.6875
1931.47292	26916.6875
1934.57473	26777.2875
1937.67453	26583.8875
1940.77232	26461.5875
1943.86808	26368.0875
1946.96184	26231.8875
1950.05358	26123.7875
1953.14331	25995.6875
1956.23103	25942.8875
1959.31675	25849.9875
1962.40046	25701.8875
1965.48217	25631.6875
1968.56188	25535.0875
1971.63959	25486.0875
1974.7153	25421.8875
1977.78901	25361.6875
1980.86073	25227.8875
1983.93046	25210.2875
1986.99819	25078.7875
1990.06394	24949.7875
1993.1277	24915.1875
1996.18947	24833.5875
1999.24925	24799.1875
2002.30706	24701.5875
2005.36288	24652.0875
2008.41672	24592.3875
2011.46859	24521.3875
2014.51848	24447.4875
2017.56639	24417.8875
2020.61233	24360.3875
2023.6563	24302.0875
2026.6983	24265.1875
2029.73833	24278.1875
2032.7764	24232.9875
2035.8125	24138.4875
2038.84664	24143.6875
2041.87881	24132.8875
2044.90903	24049.5875
2047.93729	24038.7875
2050.96359	24010.3875
2053.98794	23942.6875
2057.01034	23925.7875
2060.03078	23895.7875
2063.04927	23877.8875
2066.06582	23912.4875
2069.08042	23849.0875
2072.09307	23818.5875
2075.10378	23780.7875
2078.11255	23808.3875
2081.11938	23794.9875
2084.12426	23752.2875
2087.12722	23705.9875
2090.12824	23712.8875
2093.12732	23692.5875
2096.12447	23726.9875
2099.11969	23708.3875
2102.11299	23713.3875
2105.10435	23745.0875
2108.09379	23757.2875
2111.08131	23759.3875
2114.0669	23688.5875
2117.05057	23717.9875
2120.03233	23787.9875
2123.01216	23800.5875
2125.99008	23787.9875
2128.96609	23789.5875
2131.94018	23847.7875
2134.91236	23821.8875
2137.88263	23800.7875
2140.851	23823.1875
2143.81746	23840.1875
2146.78201	23874.2875
2149.74466	23879.3875
2152.7054	23877.3875
2155.66425	23907.7875
2158.6212	23886.8875
2161.57625	23900.9875
2164.52941	23863.1875
2167.48067	23878.9875
2170.43004	23824.3875
2173.37752	23818.1875
2176.32311	23799.9875
2179.26681	23874.5875
2182.20863	23861.0875
2185.14856	23915.5875
2188.08661	23893.6875
2191.02278	23917.1875
2193.95707	23864.3875
2196.88948	23850.9875
2199.82001	23890.8875
2202.74867	23846.5875
2205.67545	23885.4875
2208.60037	23873.9875
2211.52341	23856.8875
2214.44458	23804.3875
2217.36388	23823.3875
2220.28132	23767.7875
2223.1969	23750.0875
2226.11061	23723.7875
2229.02246	23642.3875
2231.93245	23643.8875
2234.84058	23577.7875
2237.74686	23552.2875
2240.65128	23504.7875
2243.55385	23439.4875
2246.45456	23392.7875
2249.35343	23392.2875
2252.25044	23356.6875
2255.14561	23327.0875
2258.03893	23291.3875
2260.93041	23187.2875
2263.82004	23135.9875
2266.70783	23075.7875
2269.59378	23020.2875
2272.4779	22985.9875
2275.36017	22964.3875
2278.24061	22892.5875
2281.11922	22863.5875
2283.996	22862.3875
2286.87094	22816.0875
2289.74405	22807.1875
2292.61534	22797.1875
2295.4848	22759.0875
2298.35243	22773.8875
2301.21824	22762.7875
2304.08223	22790.7875
2306.94439	22820.0875
2309.80474	22828.5875
2312.66327	22828.8875
2315.51999	22870.7875
2318.37489	22892.0875
2321.22797	22851.0875
2324.07925	22839.9875
2326.92871	22838.0875
2329.77637	22826.4875
2332.62222	22817.6875
2335.46626	22805.0875
2338.3085	22821.2875
2341.14893	22807.6875
2343.98756	22860.6875
2346.8244	22847.9875
2349.65943	22875.2875
2352.49267	22873.5875
2355.32411	22926.8875
2358.15376	22914.0875
2360.98161	22884.8875
2363.80768	22866.7875
2366.63195	22790.0875
2369.45444	22738.6875
2372.27514	22699.2875
2375.09405	22624.2875
2377.91118	22592.9875
2380.72652	22489.4875
2383.54009	22443.3875
2386.35187	22423.5875
2389.16188	22381.2875
2391.97011	22389.2875
2394.77657	22352.0875
2397.58125	22321.8875
2400.38416	22281.6875
2403.18529	22219.6875
2405.98466	22206.6875
2408.78226	22120.8875
2411.57809	22138.0875
2414.37216	22105.0875
2417.16446	22060.1875
2419.955	22018.4875
2422.74378	22033.1875
2425.5308	22017.5875
2428.31606	21967.5875
2431.09956	22029.6875
2433.88131	21965.6875
2436.6613	22018.3875
2439.43954	21950.9875
2442.21603	21966.3875
2444.99077	21936.3875
2447.76377	21963.0875
2450.53501	21917.6875
2453.30451	21942.5875
2456.07226	21919.2875
2458.83827	21903.9875
2461.60254	21895.6875
2464.36507	21903.5875
2467.12586	21914.8875
2469.88492	21889.2875
2472.64224	21938.2875
2475.39782	21978.6875
2478.15167	21970.5875
2480.90379	21926.1875
2483.65417	21993.4875
2486.40283	22003.2875
2489.14976	22026.3875
2491.89497	22047.7875
2494.63845	22098.1875
2497.3802	22073.8875
2500.12024	22055.7875
2502.85855	22069.0875
2505.59514	22063.5875
2508.33002	22074.4875
2511.06318	22051.2875
2513.79462	22037.0875
2516.52435	21984.5875
2519.25237	21933.4875
2521.97867	21940.2875
2524.70327	21959.7875
2527.42616	21931.0875
2530.14734	21940.7875
2532.86681	21890.7875
2535.58458	21881.3875
2538.30065	21854.6875
2541.01501	21911.5875
2543.72768	21841.9875
2546.43864	21897.6875
2549.14791	21841.0875
2551.85548	21782.0875
2554.56136	21804.2875
2557.26554	21804.4875
2559.96803	21782.9875
2562.66883	21780.9875
2565.36794	21725.5875
2568.06536	21708.3875
2570.7611	21703.6875
2573.45514	21695.9875
2576.14751	21694.9875
2578.83819	21668.2875
2581.52719	21654.9875
2584.21451	21667.8875
2586.90015	21695.7875
2589.58411	21674.4875
2592.2664	21663.4875
2594.94701	21636.9875
2597.62594	21696.5875
2600.30321	21638.8875
2602.9788	21638.3875
2605.65273	21626.4875
2608.32498	21635.6875
2610.99557	21635.5875
2613.66449	21650.4875
2616.33175	21638.8875
2618.99734	21661.1875
2621.66128	21690.3875
2624.32355	21712.4875
2626.98416	21731.7875
2629.64311	21686.3875
2632.30041	21718.8875
2634.95605	21724.1875
2637.61004	21667.5875
2640.26238	21654.9875
2642.91306	21636.4875
2645.56209	21605.1875
2648.20948	21598.1875
2650.85521	21565.7875
2653.4993	21614.5875
2656.14175	21528.1875
2658.78255	21558.0875
2661.42171	21538.5875
2664.05923	21577.9875
2666.6951	21593.0875
2669.32934	21606.8875
2671.96194	21644.7875
2674.59291	21686.3875
2677.22224	21629.8875
2679.84993	21606.2875
2682.476	21582.2875
2685.10043	21583.4875
2687.72324	21552.3875
2690.34441	21596.6875
2692.96396	21614.2875
2695.58188	21594.9875
2698.19818	21537.0875
2700.81285	21566.0875
2703.4259	21537.7875
2706.03733	21586.3875
2708.64714	21582.4875
2711.25533	21547.5875
2713.86191	21574.2875
2716.46687	21607.7875
2719.07021	21601.3875
2721.67194	21632.5875
2724.27206	21616.8875
2726.87057	21623.0875
2729.46747	21637.4875
2732.06276	21620.6875
2734.65644	21616.4875
2737.24852	21639.4875
2739.83899	21636.6875
2742.42786	21656.0875
2745.01513	21618.5875
2747.60079	21593.0875
2750.18486	21605.3875
2752.76733	21588.8875
2755.3482	21605.4875
2757.92747	21601.5875
2760.50515	21591.0875
2763.08123	21573.8875
2765.65573	21572.7875
2768.22863	21564.6875
2770.79994	21516.5875
2773.36967	21533.6875
2775.9378	21564.8875
2778.50435	21541.3875
2781.06932	21527.0875
2783.6327	21523.5875
2786.1945	21506.6875
2788.75471	21481.1875
2791.31335	21419.2875
2793.87041	21421.5875
2796.42589	21354.0875
2798.97979	21416.6875
2801.53212	21375.8875
2804.08288	21373.2875
2806.63206	21307.4875
2809.17967	21291.8875
2811.72571	21188.9875
2814.27018	21230.4875
2816.81308	21161.6875
2819.35442	21168.2875
2821.89419	21125.4875
2824.43239	21137.7875
2826.96904	21099.1875
2829.50412	21090.5875
2832.03763	21051.1875
2834.56959	21101.8875
2837.1	21086.1875
2839.62884	21008.2875
2842.15613	21008.8875
2844.68186	21060.1875
2847.20604	21077.4875
2849.72867	21080.9875
2852.24974	21069.1875
2854.76927	21056.2875
2857.28724	21030.7875
2859.80367	21031.0875
2862.31855	20984.1875
2864.83189	20977.3875
2867.34368	20967.9875
2869.85393	20940.0875
2872.36264	20933.1875
2874.8698	20962.7875
2877.37543	20965.5875
2879.87952	20951.1875
2882.38207	20942.3875
2884.88308	20903.9875
2887.38256	20924.2875
2889.88051	20956.1875
2892.37692	20969.1875
2894.8718	21054.8875
2897.36515	21039.8875
2899.85698	21039.6875
2902.34727	21037.4875
2904.83604	21047.4875
2907.32328	21082.0875
2909.809	21101.6875
2912.29319	21106.1875
2914.77587	21124.5875
2917.25702	21127.2875
2919.73665	21099.9875
2922.21476	21129.8875
2924.69136	21074.8875
2927.16644	21069.4875
2929.64	21054.9875
2932.11205	21010.9875
2934.58258	20942.4875
2937.05161	20962.3875
2939.51912	20951.9875
2941.98513	20903.2875
2944.44962	20854.8875
2946.91261	20770.1875
2949.37409	20834.1875
2951.83407	20803.3875
2954.29254	20786.2875
2956.74951	20775.9875
2959.20498	20759.3875
2961.65895	20701.9875
2964.11142	20712.0875
2966.56239	20662.5875
2969.01186	20619.0875
2971.45984	20581.6875
2973.90632	20564.3875
2976.35131	20521.5875
2978.7948	20437.5875
2981.23681	20403.8875
2983.67732	20354.3875
2986.11635	20272.8875
2988.55388	20249.0875
2990.98993	20205.5875
2993.4245	20094.3875
2995.85758	20071.6875
2998.28917	20036.4875
3000.71928	20029.9875
3003.14791	20004.6875
3005.57506	19948.6875
3008.00073	19901.0875
3010.42493	19871.4875
3012.84764	19871.7875
3015.26888	19830.3875
3017.68865	19781.8875
3020.10694	19756.7875
3022.52376	19715.4875
3024.9391	19666.7875
3027.35298	19684.4875
3029.76539	19613.2875
3032.17632	19619.5875
3034.5858	19582.1875
3036.9938	19576.0875
3039.40034	19553.3875
3041.80542	19548.0875
3044.20903	19523.5875
3046.61118	19492.3875
3049.01187	19429.0875
3051.4111	19436.6875
3053.80888	19391.8875
3056.20519	19338.0875
3058.60005	19275.6875
3060.99345	19215.2875
3063.3854	19218.8875
3065.7759	19112.3875
3068.16494	19058.2875
3070.55254	19038.8875
3072.93868	18975.1875
3075.32338	18931.4875
3077.70662	18905.1875
3080.08842	18843.0875
3082.46878	18826.2875
3084.84769	18749.3875
3087.22515	18736.3875
3089.60118	18762.8875
3091.97576	18749.2875
3094.3489	18743.0875
3096.72061	18710.5875
3099.09087	18691.6875
3101.4597	18645.8875
3103.82709	18639.8875
3106.19305	18572.7875
3108.55757	18599.5875
3110.92066	18506.9875
3113.28232	18470.5875
3115.64255	18461.1875
3118.00134	18405.1875
3120.35871	18392.5875
3122.71466	18327.8875
3125.06917	18275.0875
3127.42226	18228.9875
3129.77393	18269.6875
3132.12417	18251.6875
3134.47299	18235.0875
3136.82039	18194.0875
3139.16636	18218.6875
3141.51092	18211.2875
3143.85406	18235.6875
3146.19579	18181.9875
3148.53609	18181.9875
3150.87499	18180.0875
3153.21246	18170.6875
3155.54853	18191.1875
3157.88318	18188.7875
3160.21642	18150.7875
3162.54826	18174.9875
3164.87868	18140.0875
3167.2077	18102.4875
3169.5353	18125.4875
3171.86151	18086.3875
3174.18631	18093.9875
3176.5097	18074.9875
3178.83169	18035.4875
3181.15228	18050.2875
3183.47147	18029.1875
3185.78926	17999.2875
3188.10565	17971.7875
3190.42065	17989.0875
3192.73424	18000.5875
3195.04645	17997.8875
3197.35725	18019.3875
3199.66667	18002.4875
3201.97469	18000.6875
3204.28132	17989.1875
3206.58656	17971.9875
3208.8904	17972.9875
3211.19287	18014.2875
3213.49394	18003.4875
3215.79363	18020.3875
3218.09193	17986.8875
3220.38884	17959.5875
3222.68438	18049.3875
3224.97853	17959.8875
3227.2713	17954.4875
3229.56269	17899.4875
3231.8527	17925.9875
3234.14133	17867.7875
3236.42858	17853.9875
3238.71446	17857.8875
3240.99896	17776.5875
3243.28209	17797.6875
3245.56384	17750.8875
3247.84423	17738.9875
3250.12324	17750.9875
3252.40088	17686.1875
3254.67715	17652.6875
3256.95205	17592.7875
3259.22558	17598.2875
3261.49775	17592.1875
3263.76855	17542.7875
3266.03799	17533.4875
3268.30606	17529.8875
3270.57277	17473.4875
3272.83812	17496.4875
3275.10211	17449.4875
3277.36474	17450.0875
3279.62601	17417.2875
3281.88593	17424.3875
3284.14448	17425.2875
3286.40168	17462.4875
3288.65753	17409.9875
3290.91202	17386.2875
3293.16516	17325.7875
3295.41695	17257.1875
3297.66738	17187.8875
3299.91647	17125.1875
3302.16421	17032.7875
3304.4106	16911.5875
3306.65564	16812.7875
3308.89933	16720.7875
3311.14169	16619.8875
3313.38269	16483.9875
3315.62236	16403.6875
3317.86068	16260.2875
3320.09766	16105.9875
3322.3333	15956.7875
3324.5676	15943.8875
3326.80056	15718.1875
3329.03219	15627.5875
3331.26248	4.2875
3333.49143	-0.6125
3335.71905	-1.3125
