Data from AgNPs_FTO_APTES_UA_2uM_CRN_10uM_R6G_10uM_NaF_0.1M_Addition_RamanShift__26__13-48-25-171.txt Node

Date: Wed Feb 02 13:48:25 GMT 2022
User: TCL
Spectrometer: QEP01345
Trigger mode: 4
Integration Time (sec): 7.000000E0
Scans to average: 10
Electric dark correction enabled: true
Nonlinearity correction enabled: false
Boxcar width: 0
XAxis mode: Raman Shifts
Number of Pixels in Spectrum: 1044
>>>>>Begin Spectral Data<<<<<
46.04893	0.6875
50.45542	1.3875
54.85868	-2.3125
59.25871	-1.1125
63.6555	78.8875
68.04907	84.8875
72.43941	91.4875
76.82654	98.4875
81.21044	97.2875
85.59113	102.4875
89.96862	104.0875
94.34289	109.8875
98.71396	114.1875
103.08183	121.2875
107.4465	124.7875
111.80798	124.6875
116.16626	128.4875
120.52136	135.2875
124.87327	136.0875
129.222	144.9875
133.56755	153.7875
137.90993	161.2875
142.24913	180.4875
146.58517	204.9875
150.91804	237.7875
155.24774	287.8875
159.57429	353.4875
163.89768	460.9875
168.21792	603.1875
172.53501	823.2875
176.84895	1143.6875
181.15975	1607.8875
185.46741	2236.5875
189.77193	3083.7875
194.07331	4136.5875
198.37157	5310.6875
202.6667	6558.3875
206.9587	7812.3875
211.24758	9040.5875
215.53334	10306.3875
219.81599	11714.6875
224.09553	13302.2875
228.37195	15091.3875
232.64527	16978.0875
236.91549	18955.5875
241.18261	20769.6875
245.44663	22240.0875
249.70755	23560.1875
253.96539	24662.0875
258.22014	25675.4875
262.4718	26554.2875
266.72039	27327.7875
270.96589	27732.5875
275.20832	27863.6875
279.44768	27800.8875
283.68397	27641.8875
287.91719	27561.8875
292.14735	27705.6875
296.37445	28121.7875
300.59849	28744.0875
304.81948	29466.5875
309.03742	29919.9875
313.25231	29678.5875
317.46415	28336.4875
321.67296	26485.0875
325.87872	24792.9875
330.08145	24000.4875
334.28114	23899.6875
338.47781	24217.0875
342.67145	24753.4875
346.86207	25565.4875
351.04966	26807.8875
355.23424	28184.9875
359.4158	29283.7875
363.59435	29703.6875
367.76989	29846.4875
371.94243	29832.0875
376.11196	29658.5875
380.27849	29514.4875
384.44203	29328.9875
388.60257	29090.8875
392.76012	29107.6875
396.91468	29481.7875
401.06626	30190.9875
405.21485	30693.7875
409.36047	30263.4875
413.50311	29007.6875
417.64277	27874.4875
421.77947	27309.2875
425.9132	27094.9875
430.04396	27192.9875
434.17176	27316.2875
438.2966	27590.3875
442.41849	28187.6875
446.53742	28985.6875
450.6534	29837.6875
454.76644	30479.7875
458.87653	30663.8875
462.98368	30562.3875
467.08789	30166.0875
471.18916	29578.3875
475.2875	29001.7875
479.38291	28499.0875
483.4754	28117.6875
487.56496	27670.5875
491.6516	27266.0875
495.73531	27007.2875
499.81612	26945.7875
503.89401	27139.2875
507.96899	27330.3875
512.04106	27535.5875
516.11023	27613.7875
520.1765	27698.4875
524.23987	27485.6875
528.30034	27039.5875
532.35792	26495.2875
536.41261	25957.9875
540.46441	25477.6875
544.51333	25403.7875
548.55936	25747.3875
552.60252	26516.5875
556.64279	27410.8875
560.6802	27848.0875
564.71473	28333.7875
568.7464	29294.9875
572.7752	30178.2875
576.80114	29878.1875
580.82422	29325.5875
584.84444	28971.5875
588.86181	28871.4875
592.87633	28957.5875
596.888	29300.4875
600.89682	30221.0875
604.9028	32943.8875
608.90594	40099.4875
612.90624	48778.0875
616.90371	46317.3875
620.89834	33746.4875
624.89015	27764.2875
628.87913	26753.3875
632.86528	26923.5875
636.84862	27128.5875
640.82913	26560.6875
644.80683	25396.2875
648.78172	24633.3875
652.75379	24679.5875
656.72306	25487.2875
660.68952	26574.5875
664.65319	26447.6875
668.61405	25395.3875
672.57211	24861.8875
676.52738	24821.6875
680.47986	24842.1875
684.42955	24670.2875
688.37646	24558.9875
692.32058	24648.1875
696.26192	24952.7875
700.20048	25303.3875
704.13626	25623.0875
708.06928	25579.5875
711.99952	25356.4875
715.927	25214.7875
719.85171	25257.9875
723.77365	25110.1875
727.69284	24789.6875
731.60928	24469.9875
735.52295	24402.4875
739.43388	24462.9875
743.34206	24598.6875
747.24749	24763.0875
751.15017	25062.4875
755.05012	25647.4875
758.94733	26928.1875
762.8418	29547.1875
766.73354	33939.0875
770.62254	38464.0875
774.50882	40160.2875
778.39237	37822.3875
782.27321	33119.4875
786.15132	28848.0875
790.02671	26335.7875
793.89938	25140.1875
797.76935	24625.3875
801.6366	24407.9875
805.50115	24263.9875
809.36299	24073.4875
813.22213	23904.7875
817.07857	23844.5875
820.93231	23850.7875
824.78336	23896.0875
828.63172	23957.9875
832.47738	23997.2875
836.32036	23954.8875
840.16066	23890.6875
843.99827	23840.4875
847.8332	23740.7875
851.66546	23688.5875
855.49504	23624.4875
859.32195	23574.4875
863.1462	23420.3875
866.96777	23313.0875
870.78668	23281.1875
874.60293	23274.2875
878.41652	23349.3875
882.22745	23438.2875
886.03573	23557.5875
889.84136	23521.4875
893.64433	23354.1875
897.44466	23258.6875
901.24235	23239.0875
905.0374	23214.8875
908.8298	23126.5875
912.61957	23214.1875
916.40671	23444.8875
920.19121	23751.9875
923.97308	24061.6875
927.75233	24238.3875
931.52895	24291.7875
935.30295	23972.2875
939.07433	23280.7875
942.84309	22694.3875
946.60924	22395.4875
950.37278	22228.4875
954.13371	22084.6875
957.89203	21979.2875
961.64774	21914.9875
965.40086	21887.9875
969.15137	21801.9875
972.89929	21747.3875
976.64461	21649.4875
980.38733	21668.5875
984.12747	21741.5875
987.86502	21969.1875
991.59999	22239.1875
995.33237	22569.5875
999.06217	23230.8875
1002.78939	24132.8875
1006.51404	24824.6875
1010.23611	25430.4875
1013.95561	25772.3875
1017.67255	25772.0875
1021.38692	25393.7875
1025.09872	25045.7875
1028.80796	24973.1875
1032.51465	25324.7875
1036.21877	25760.6875
1039.92035	25924.7875
1043.61937	25741.5875
1047.31584	25259.6875
1051.00976	24794.5875
1054.70114	24520.6875
1058.38998	24500.2875
1062.07627	24723.2875
1065.76003	24944.5875
1069.44126	25177.3875
1073.11995	25463.8875
1076.79611	25742.2875
1080.46974	26017.4875
1084.14085	26454.7875
1087.80943	27088.8875
1091.47549	27408.5875
1095.13903	27127.5875
1098.80005	26387.1875
1102.45857	25579.6875
1106.11456	25097.1875
1109.76805	25039.7875
1113.41903	25361.7875
1117.06751	25934.4875
1120.71348	26719.1875
1124.35696	27577.9875
1127.99793	28429.8875
1131.63641	28538.5875
1135.2724	27642.2875
1138.90589	26722.1875
1142.5369	26203.6875
1146.16542	25921.8875
1149.79145	25791.4875
1153.415	25967.5875
1157.03607	26338.5875
1160.65467	27071.4875
1164.27079	28167.6875
1167.88443	29782.1875
1171.49561	32188.0875
1175.10432	35896.1875
1178.71056	40665.3875
1182.31434	44654.3875
1185.91565	46404.6875
1189.51451	46047.1875
1193.11091	44054.6875
1196.70485	41151.4875
1200.29634	38509.4875
1203.88538	36340.1875
1207.47197	34276.7875
1211.05612	32546.7875
1214.63782	31568.5875
1218.21708	31239.3875
1221.79391	31301.8875
1225.36829	31382.1875
1228.94024	31536.4875
1232.50976	31578.8875
1236.07685	31462.0875
1239.6415	31347.3875
1243.20374	31148.2875
1246.76355	31214.0875
1250.32093	31578.0875
1253.8759	32410.3875
1257.42845	33467.5875
1260.97859	34636.7875
1264.52631	35698.6875
1268.07163	36723.7875
1271.61453	37841.0875
1275.15503	38957.5875
1278.69312	39769.7875
1282.22882	40377.4875
1285.76211	41265.5875
1289.29301	42505.7875
1292.82151	43841.8875
1296.34761	45422.8875
1299.87133	47594.2875
1303.39266	50873.3875
1306.9116	55587.1875
1310.42815	61086.1875
1313.94233	65138.7875
1317.45412	65766.9875
1320.96354	63642.6875
1324.47058	60668.5875
1327.97525	57849.3875
1331.47754	55853.1875
1334.97747	54843.6875
1338.47502	54788.5875
1341.97022	55152.4875
1345.46305	55467.4875
1348.95352	55827.7875
1352.44163	56840.8875
1355.92738	59448.6875
1359.41078	64842.4875
1362.89183	70797.5875
1366.37053	70057.1875
1369.84688	61550.0875
1373.32088	52348.6875
1376.79254	46376.5875
1380.26186	43669.1875
1383.72883	42495.4875
1387.19347	41637.0875
1390.65578	40700.3875
1394.11575	40143.1875
1397.57339	40239.4875
1401.0287	40976.7875
1404.48168	41941.5875
1407.93234	42659.4875
1411.38068	42904.0875
1414.82669	42261.7875
1418.27039	40874.6875
1421.71177	39162.1875
1425.15083	37748.1875
1428.58758	36827.4875
1432.02203	36555.0875
1435.45416	36806.3875
1438.88399	37265.1875
1442.31151	37567.1875
1445.73673	37984.8875
1449.15965	38509.8875
1452.58027	38884.5875
1455.9986	38881.5875
1459.41463	39091.2875
1462.82837	39585.8875
1466.23982	40406.7875
1469.64898	41197.6875
1473.05586	41752.2875
1476.46045	41905.3875
1479.86276	42158.0875
1483.26279	42485.8875
1486.66054	42958.1875
1490.05602	43772.7875
1493.44922	44817.8875
1496.84016	46286.6875
1500.22882	48679.8875
1503.61521	52223.3875
1506.99934	56509.0875
1510.38121	61147.9875
1513.76081	63954.3875
1517.13816	62588.4875
1520.51324	57593.0875
1523.88607	51897.1875
1527.25665	47700.0875
1530.62498	45147.3875
1533.99105	43531.4875
1537.35488	42518.0875
1540.71647	41848.1875
1544.07581	41192.1875
1547.4329	40609.3875
1550.78776	40185.6875
1554.14038	39984.8875
1557.49077	40235.2875
1560.83892	40763.0875
1564.18484	41385.5875
1567.52853	41885.8875
1570.86999	42138.8875
1574.20922	42412.9875
1577.54624	42435.7875
1580.88103	41345.1875
1584.2136	40150.2875
1587.54395	40026.8875
1590.87208	41427.7875
1594.19801	44097.9875
1597.52172	47017.3875
1600.84321	48104.7875
1604.16251	46279.3875
1607.47959	42856.6875
1610.79447	39261.1875
1614.10715	35763.1875
1617.41763	32980.8875
1620.7259	31063.2875
1624.03199	30105.1875
1627.33587	30091.6875
1630.63757	30973.3875
1633.93707	32804.8875
1637.23439	35739.3875
1640.52951	39496.2875
1643.82246	43932.1875
1647.11321	48120.3875
1650.40179	50492.2875
1653.68819	48834.2875
1656.97241	42877.8875
1660.25446	36001.0875
1663.53433	30725.0875
1666.81203	27390.6875
1670.08756	25392.7875
1673.36092	24165.9875
1676.63211	23392.3875
1679.90115	22814.6875
1683.16801	22408.1875
1686.43272	22086.6875
1689.69527	21881.0875
1692.95567	21728.3875
1696.2139	21659.7875
1699.46999	21568.4875
1702.72392	21517.8875
1705.97571	21446.5875
1709.22535	21407.5875
1712.47284	21352.3875
1715.71819	21344.6875
1718.96139	21348.6875
1722.20246	21306.2875
1725.44139	21186.0875
1728.67818	21036.5875
1731.91284	20922.5875
1735.14537	20762.2875
1738.37576	20636.6875
1741.60403	20587.2875
1744.83017	20491.2875
1748.05418	20447.8875
1751.27607	20424.9875
1754.49584	20337.8875
1757.71349	20398.1875
1760.92903	20328.9875
1764.14244	20310.2875
1767.35375	20254.4875
1770.56294	20247.1875
1773.77002	20195.5875
1776.97499	20148.9875
1780.17785	20042.3875
1783.37861	20029.4875
1786.57727	19983.5875
1789.77382	19939.8875
1792.96828	19939.4875
1796.16064	19919.9875
1799.3509	19907.4875
1802.53907	19850.8875
1805.72514	19804.6875
1808.90913	19748.1875
1812.09102	19675.3875
1815.27083	19662.2875
1818.44856	19680.4875
1821.6242	19638.4875
1824.79776	19614.5875
1827.96924	19564.0875
1831.13864	19591.2875
1834.30597	19585.9875
1837.47122	19531.2875
1840.6344	19547.4875
1843.7955	19584.9875
1846.95454	19587.3875
1850.11151	19568.9875
1853.26642	19582.6875
1856.41926	19593.9875
1859.57004	19626.3875
1862.71876	19644.9875
1865.86542	19641.2875
1869.01003	19705.3875
1872.15258	19677.4875
1875.29308	19675.1875
1878.43152	19710.6875
1881.56792	19743.2875
1884.70227	19787.1875
1887.83457	19808.3875
1890.96482	19821.1875
1894.09304	19858.2875
1897.21921	19855.2875
1900.34335	19893.7875
1903.46544	19858.0875
1906.58551	19927.0875
1909.70353	19903.9875
1912.81953	19918.1875
1915.93349	19879.7875
1919.04543	19861.9875
1922.15534	19861.9875
1925.26322	19785.7875
1928.36908	19706.0875
1931.47292	19622.0875
1934.57473	19466.5875
1937.67453	19351.6875
1940.77232	19244.2875
1943.86808	19137.8875
1946.96184	19033.5875
1950.05358	18937.5875
1953.14331	18842.2875
1956.23103	18777.9875
1959.31675	18693.3875
1962.40046	18669.0875
1965.48217	18590.1875
1968.56188	18522.5875
1971.63959	18451.2875
1974.7153	18410.5875
1977.78901	18371.7875
1980.86073	18243.8875
1983.93046	18221.5875
1986.99819	18158.2875
1990.06394	18124.6875
1993.1277	18044.5875
1996.18947	17971.4875
1999.24925	17916.9875
2002.30706	17869.8875
2005.36288	17797.8875
2008.41672	17749.0875
2011.46859	17719.1875
2014.51848	17660.6875
2017.56639	17645.5875
2020.61233	17570.0875
2023.6563	17545.3875
2026.6983	17518.9875
2029.73833	17465.6875
2032.7764	17423.5875
2035.8125	17383.9875
2038.84664	17345.5875
2041.87881	17351.9875
2044.90903	17320.5875
2047.93729	17276.4875
2050.96359	17254.8875
2053.98794	17225.5875
2057.01034	17248.6875
2060.03078	17201.4875
2063.04927	17188.9875
2066.06582	17158.6875
2069.08042	17165.6875
2072.09307	17128.2875
2075.10378	17120.9875
2078.11255	17090.3875
2081.11938	17057.5875
2084.12426	17072.8875
2087.12722	17084.7875
2090.12824	17050.4875
2093.12732	17044.6875
2096.12447	17020.4875
2099.11969	17068.9875
2102.11299	17042.7875
2105.10435	17043.8875
2108.09379	17033.6875
2111.08131	17061.9875
2114.0669	17072.7875
2117.05057	17090.6875
2120.03233	17111.1875
2123.01216	17126.7875
2125.99008	17123.5875
2128.96609	17128.7875
2131.94018	17155.7875
2134.91236	17166.5875
2137.88263	17157.9875
2140.851	17155.2875
2143.81746	17203.7875
2146.78201	17183.2875
2149.74466	17165.7875
2152.7054	17168.3875
2155.66425	17169.1875
2158.6212	17134.6875
2161.57625	17146.8875
2164.52941	17145.3875
2167.48067	17130.3875
2170.43004	17107.4875
2173.37752	17116.0875
2176.32311	17078.6875
2179.26681	17106.8875
2182.20863	17119.6875
2185.14856	17084.8875
2188.08661	17066.4875
2191.02278	17125.1875
2193.95707	17119.3875
2196.88948	17092.9875
2199.82001	17107.0875
2202.74867	17106.5875
2205.67545	17080.7875
2208.60037	17054.8875
2211.52341	17031.6875
2214.44458	17043.8875
2217.36388	17008.4875
2220.28132	16973.7875
2223.1969	16935.7875
2226.11061	16953.2875
2229.02246	16876.3875
2231.93245	16852.1875
2234.84058	16824.4875
2237.74686	16777.9875
2240.65128	16752.6875
2243.55385	16723.6875
2246.45456	16744.5875
2249.35343	16706.8875
2252.25044	16694.1875
2255.14561	16701.1875
2258.03893	16658.8875
2260.93041	16644.5875
2263.82004	16634.0875
2266.70783	16580.2875
2269.59378	16519.9875
2272.4779	16499.7875
2275.36017	16451.1875
2278.24061	16404.8875
2281.11922	16378.3875
2283.996	16328.0875
2286.87094	16354.9875
2289.74405	16284.2875
2292.61534	16275.5875
2295.4848	16252.3875
2298.35243	16241.8875
2301.21824	16266.7875
2304.08223	16278.7875
2306.94439	16256.9875
2309.80474	16264.9875
2312.66327	16278.6875
2315.51999	16280.3875
2318.37489	16274.8875
2321.22797	16246.3875
2324.07925	16189.4875
2326.92871	16217.8875
2329.77637	16212.1875
2332.62222	16201.1875
2335.46626	16184.0875
2338.3085	16201.1875
2341.14893	16210.3875
2343.98756	16229.5875
2346.8244	16239.1875
2349.65943	16240.3875
2352.49267	16218.3875
2355.32411	16276.5875
2358.15376	16253.7875
2360.98161	16241.1875
2363.80768	16262.6875
2366.63195	16221.9875
2369.45444	16203.3875
2372.27514	16163.2875
2375.09405	16178.2875
2377.91118	16117.0875
2380.72652	16063.5875
2383.54009	15993.5875
2386.35187	15995.6875
2389.16188	15947.4875
2391.97011	15918.7875
2394.77657	15862.8875
2397.58125	15842.0875
2400.38416	15802.8875
2403.18529	15785.0875
2405.98466	15734.9875
2408.78226	15712.4875
2411.57809	15687.0875
2414.37216	15688.6875
2417.16446	15661.8875
2419.955	15660.2875
2422.74378	15650.8875
2425.5308	15623.3875
2428.31606	15633.5875
2431.09956	15617.9875
2433.88131	15596.1875
2436.6613	15602.5875
2439.43954	15600.9875
2442.21603	15560.7875
2444.99077	15547.9875
2447.76377	15575.4875
2450.53501	15555.0875
2453.30451	15550.1875
2456.07226	15578.5875
2458.83827	15551.8875
2461.60254	15579.3875
2464.36507	15549.8875
2467.12586	15569.2875
2469.88492	15558.3875
2472.64224	15520.0875
2475.39782	15546.5875
2478.15167	15564.3875
2480.90379	15591.3875
2483.65417	15607.1875
2486.40283	15634.6875
2489.14976	15656.6875
2491.89497	15672.6875
2494.63845	15699.1875
2497.3802	15691.5875
2500.12024	15683.6875
2502.85855	15692.7875
2505.59514	15696.7875
2508.33002	15653.9875
2511.06318	15618.2875
2513.79462	15566.1875
2516.52435	15524.1875
2519.25237	15527.3875
2521.97867	15491.1875
2524.70327	15449.5875
2527.42616	15457.1875
2530.14734	15437.4875
2532.86681	15412.0875
2535.58458	15410.6875
2538.30065	15369.4875
2541.01501	15386.9875
2543.72768	15362.8875
2546.43864	15380.8875
2549.14791	15333.5875
2551.85548	15377.2875
2554.56136	15347.9875
2557.26554	15330.1875
2559.96803	15322.1875
2562.66883	15284.6875
2565.36794	15266.9875
2568.06536	15254.0875
2570.7611	15235.0875
2573.45514	15231.2875
2576.14751	15209.7875
2578.83819	15215.6875
2581.52719	15197.0875
2584.21451	15185.2875
2586.90015	15199.0875
2589.58411	15173.6875
2592.2664	15224.3875
2594.94701	15199.5875
2597.62594	15211.8875
2600.30321	15178.4875
2602.9788	15146.3875
2605.65273	15147.8875
2608.32498	15128.7875
2610.99557	15122.7875
2613.66449	15179.9875
2616.33175	15188.7875
2618.99734	15160.7875
2621.66128	15160.9875
2624.32355	15126.4875
2626.98416	15163.4875
2629.64311	15182.1875
2632.30041	15162.2875
2634.95605	15156.3875
2637.61004	15137.1875
2640.26238	15100.0875
2642.91306	15080.5875
2645.56209	15029.0875
2648.20948	15029.5875
2650.85521	15016.1875
2653.4993	15036.0875
2656.14175	15031.0875
2658.78255	15054.7875
2661.42171	15048.8875
2664.05923	15095.2875
2666.6951	15088.2875
2669.32934	15113.9875
2671.96194	15094.0875
2674.59291	15125.2875
2677.22224	15110.0875
2679.84993	15110.4875
2682.476	15106.1875
2685.10043	15112.5875
2687.72324	15103.2875
2690.34441	15117.8875
2692.96396	15085.4875
2695.58188	15093.9875
2698.19818	15100.1875
2700.81285	15081.4875
2703.4259	15104.8875
2706.03733	15122.2875
2708.64714	15103.7875
2711.25533	15123.8875
2713.86191	15100.7875
2716.46687	15114.8875
2719.07021	15124.0875
2721.67194	15129.5875
2724.27206	15115.1875
2726.87057	15107.8875
2729.46747	15125.2875
2732.06276	15111.7875
2734.65644	15088.8875
2737.24852	15098.8875
2739.83899	15068.2875
2742.42786	15096.1875
2745.01513	15081.6875
2747.60079	15066.6875
2750.18486	15057.8875
2752.76733	15059.1875
2755.3482	15049.5875
2757.92747	15044.7875
2760.50515	15049.8875
2763.08123	15065.3875
2765.65573	15002.4875
2768.22863	14998.9875
2770.79994	14989.6875
2773.36967	14987.7875
2775.9378	15006.3875
2778.50435	14974.4875
2781.06932	14995.4875
2783.6327	14948.7875
2786.1945	14952.3875
2788.75471	14944.8875
2791.31335	14916.6875
2793.87041	14888.7875
2796.42589	14857.7875
2798.97979	14855.3875
2801.53212	14799.7875
2804.08288	14840.5875
2806.63206	14792.6875
2809.17967	14789.8875
2811.72571	14748.1875
2814.27018	14764.9875
2816.81308	14748.0875
2819.35442	14758.2875
2821.89419	14729.8875
2824.43239	14742.4875
2826.96904	14753.4875
2829.50412	14777.1875
2832.03763	14716.3875
2834.56959	14726.1875
2837.1	14694.4875
2839.62884	14728.1875
2842.15613	14744.3875
2844.68186	14791.3875
2847.20604	14841.8875
2849.72867	14844.8875
2852.24974	14871.9875
2854.76927	14814.4875
2857.28724	14853.8875
2859.80367	14840.1875
2862.31855	14814.7875
2864.83189	14759.0875
2867.34368	14779.7875
2869.85393	14750.7875
2872.36264	14748.6875
2874.8698	14753.7875
2877.37543	14749.3875
2879.87952	14724.1875
2882.38207	14746.5875
2884.88308	14723.3875
2887.38256	14751.5875
2889.88051	14722.1875
2892.37692	14742.2875
2894.8718	14734.1875
2897.36515	14749.0875
2899.85698	14748.1875
2902.34727	14791.4875
2904.83604	14769.6875
2907.32328	14827.8875
2909.809	14754.9875
2912.29319	14772.1875
2914.77587	14772.2875
2917.25702	14773.3875
2919.73665	14757.9875
2922.21476	14760.6875
2924.69136	14744.0875
2927.16644	14752.9875
2929.64	14730.8875
2932.11205	14717.0875
2934.58258	14667.1875
2937.05161	14671.6875
2939.51912	14644.1875
2941.98513	14624.6875
2944.44962	14578.7875
2946.91261	14481.5875
2949.37409	14480.5875
2951.83407	14435.7875
2954.29254	14463.7875
2956.74951	14430.4875
2959.20498	14433.9875
2961.65895	14376.2875
2964.11142	14353.4875
2966.56239	14319.9875
2969.01186	14309.4875
2971.45984	14247.3875
2973.90632	14235.0875
2976.35131	14162.6875
2978.7948	14157.2875
2981.23681	14108.9875
2983.67732	14088.4875
2986.11635	14047.0875
2988.55388	14016.2875
2990.98993	14009.8875
2993.4245	13966.2875
2995.85758	13921.5875
2998.28917	13908.4875
3000.71928	13893.1875
3003.14791	13834.8875
3005.57506	13816.8875
3008.00073	13792.3875
3010.42493	13769.9875
3012.84764	13767.8875
3015.26888	13748.6875
3017.68865	13709.8875
3020.10694	13655.2875
3022.52376	13672.0875
3024.9391	13622.3875
3027.35298	13600.9875
3029.76539	13562.5875
3032.17632	13532.8875
3034.5858	13516.4875
3036.9938	13513.7875
3039.40034	13515.0875
3041.80542	13460.0875
3044.20903	13446.4875
3046.61118	13442.3875
3049.01187	13410.9875
3051.4111	13420.6875
3053.80888	13382.3875
3056.20519	13343.4875
3058.60005	13284.5875
3060.99345	13251.2875
3063.3854	13239.2875
3065.7759	13227.9875
3068.16494	13163.4875
3070.55254	13130.6875
3072.93868	13087.3875
3075.32338	13041.1875
3077.70662	13020.5875
3080.08842	12979.7875
3082.46878	12974.5875
3084.84769	12954.2875
3087.22515	12923.4875
3089.60118	12928.0875
3091.97576	12894.6875
3094.3489	12873.5875
3096.72061	12880.4875
3099.09087	12864.5875
3101.4597	12843.1875
3103.82709	12868.0875
3106.19305	12811.1875
3108.55757	12824.0875
3110.92066	12753.3875
3113.28232	12725.0875
3115.64255	12678.2875
3118.00134	12655.7875
3120.35871	12625.4875
3122.71466	12640.0875
3125.06917	12581.7875
3127.42226	12555.5875
3129.77393	12565.5875
3132.12417	12562.9875
3134.47299	12566.0875
3136.82039	12524.3875
3139.16636	12530.0875
3141.51092	12537.2875
3143.85406	12546.1875
3146.19579	12520.8875
3148.53609	12527.2875
3150.87499	12528.5875
3153.21246	12529.8875
3155.54853	12552.9875
3157.88318	12503.2875
3160.21642	12525.5875
3162.54826	12522.0875
3164.87868	12493.6875
3167.2077	12492.0875
3169.5353	12458.1875
3171.86151	12473.7875
3174.18631	12455.9875
3176.5097	12446.4875
3178.83169	12447.6875
3181.15228	12439.6875
3183.47147	12420.3875
3185.78926	12425.2875
3188.10565	12408.8875
3190.42065	12416.9875
3192.73424	12389.7875
3195.04645	12378.4875
3197.35725	12400.4875
3199.66667	12397.7875
3201.97469	12408.8875
3204.28132	12395.1875
3206.58656	12432.7875
3208.8904	12396.8875
3211.19287	12431.1875
3213.49394	12424.3875
3215.79363	12418.6875
3218.09193	12408.4875
3220.38884	12413.1875
3222.68438	12406.9875
3224.97853	12385.0875
3227.2713	12387.4875
3229.56269	12365.3875
3231.8527	12322.9875
3234.14133	12288.9875
3236.42858	12271.7875
3238.71446	12278.8875
3240.99896	12242.7875
3243.28209	12233.1875
3245.56384	12246.8875
3247.84423	12219.8875
3250.12324	12217.7875
3252.40088	12226.9875
3254.67715	12208.4875
3256.95205	12187.2875
3259.22558	12148.3875
3261.49775	12124.6875
3263.76855	12122.6875
3266.03799	12086.7875
3268.30606	12084.8875
3270.57277	12063.1875
3272.83812	12028.7875
3275.10211	12034.4875
3277.36474	12029.2875
3279.62601	12014.9875
3281.88593	11989.4875
3284.14448	11988.2875
3286.40168	11957.3875
3288.65753	11965.0875
3290.91202	11943.9875
3293.16516	11899.2875
3295.41695	11890.3875
3297.66738	11824.4875
3299.91647	11769.1875
3302.16421	11717.5875
3304.4106	11640.0875
3306.65564	11581.8875
3308.89933	11536.5875
3311.14169	11447.5875
3313.38269	11370.8875
3315.62236	11312.3875
3317.86068	11187.7875
3320.09766	11092.5875
3322.3333	10976.7875
3324.5676	10969.8875
3326.80056	10808.5875
3329.03219	10745.3875
3331.26248	2.3875
3333.49143	-1.1125
3335.71905	-0.8125
