Data from AgNPs_FTO_APTES_UA_2uM_CRN_0uM_R6G_10uM_NaF_0.1M_Addition_RamanShift__0__10-04-24-925.txt Node

Date: Wed Feb 02 10:04:24 GMT 2022
User: TCL
Spectrometer: QEP01345
Trigger mode: 4
Integration Time (sec): 7.000000E0
Scans to average: 10
Electric dark correction enabled: true
Nonlinearity correction enabled: false
Boxcar width: 0
XAxis mode: Raman Shifts
Number of Pixels in Spectrum: 1044
>>>>>Begin Spectral Data<<<<<
46.04893	1.1
50.45542	0.4
54.85868	-0.1
59.25871	0.3
63.6555	30.8
68.04907	36.2
72.43941	37.2
76.82654	41.7
81.21044	43.5
85.59113	48.4
89.96862	48
94.34289	49.2
98.71396	54.8
103.08183	53.3
107.4465	55.2
111.80798	55.4
116.16626	53.1
120.52136	56
124.87327	55.5
129.222	55.7
133.56755	59.3
137.90993	56.7
142.24913	63.7
146.58517	66
150.91804	71.3
155.24774	83
159.57429	91.9
163.89768	113.7
168.21792	137.1
172.53501	180.7
176.84895	233.7
181.15975	314.5
185.46741	435.9
189.77193	597.8
194.07331	802.4
198.37157	1054.9
202.6667	1316.7
206.9587	1582.4
211.24758	1839.2
215.53334	2112.9
219.81599	2379.4
224.09553	2663.6
228.37195	2976.3
232.64527	3316.5
236.91549	3664.4
241.18261	4011.6
245.44663	4333.4
249.70755	4591.1
253.96539	4826.6
258.22014	4983.3
262.4718	5066.2
266.72039	5110.5
270.96589	5058.3
275.20832	4963.7
279.44768	4836.1
283.68397	4677.5
287.91719	4530.7
292.14735	4408.8
296.37445	4327.8
300.59849	4253.3
304.81948	4219.5
309.03742	4202.3
313.25231	4171.3
317.46415	4118.5
321.67296	4064.1
325.87872	4000.5
330.08145	3967.6
334.28114	3954
338.47781	3968
342.67145	3975.8
346.86207	3954
351.04966	3966
355.23424	3969.9
359.4158	3936.7
363.59435	3889.9
367.76989	3844.2
371.94243	3793.1
376.11196	3751.1
380.27849	3715.8
384.44203	3670.7
388.60257	3681.6
392.76012	3659.7
396.91468	3642.2
401.06626	3667.2
405.21485	3671.8
409.36047	3683.3
413.50311	3647.8
417.64277	3600.2
421.77947	3595.4
425.9132	3612.8
430.04396	3642.9
434.17176	3661.5
438.2966	3695.1
442.41849	3749.8
446.53742	3791.1
450.6534	3823.2
454.76644	3862.9
458.87653	3883.2
462.98368	3905.4
467.08789	3890.9
471.18916	3886.6
475.2875	3880.8
479.38291	3884.1
483.4754	3853.2
487.56496	3879.2
491.6516	3871.6
495.73531	3888.1
499.81612	3890.2
503.89401	3913.9
507.96899	3934.7
512.04106	3930.9
516.11023	3942.4
520.1765	3962.1
524.23987	3938
528.30034	3901.4
532.35792	3864.8
536.41261	3797.4
540.46441	3770.9
544.51333	3745.5
548.55936	3729.9
552.60252	3734.7
556.64279	3746
560.6802	3756
564.71473	3774.2
568.7464	3792.5
572.7752	3801.3
576.80114	3749.7
580.82422	3710.3
584.84444	3711.8
588.86181	3719.2
592.87633	3749
596.888	3808.3
600.89682	3887.5
604.9028	4067.8
608.90594	4436.5
612.90624	4900.7
616.90371	4959.6
620.89834	4446.1
624.89015	4055.8
628.87913	3901.1
632.86528	3854.9
636.84862	3819.4
640.82913	3821.1
644.80683	3791.2
648.78172	3776.1
652.75379	3803.7
656.72306	3848.5
660.68952	3923.3
664.65319	3979.5
668.61405	3973.7
672.57211	4014.3
676.52738	4114.9
680.47986	4210.9
684.42955	4265.5
688.37646	4291.4
692.32058	4269.8
696.26192	4254.5
700.20048	4244.5
704.13626	4278.4
708.06928	4276.1
711.99952	4286.6
715.927	4287.7
719.85171	4237.9
723.77365	4244.7
727.69284	4193.3
731.60928	4162.2
735.52295	4140
739.43388	4103.5
743.34206	4068.9
747.24749	4064.4
751.15017	4064.4
755.05012	4054.6
758.94733	4090.5
762.8418	4148.6
766.73354	4296.7
770.62254	4471.1
774.50882	4596.4
778.39237	4560.5
782.27321	4388.4
786.15132	4237.8
790.02671	4145.4
793.89938	4108.3
797.76935	4097
801.6366	4112.9
805.50115	4132.2
809.36299	4116.4
813.22213	4079.4
817.07857	4067.8
820.93231	4059.9
824.78336	4030.6
828.63172	4036.1
832.47738	4026.5
836.32036	4020.8
840.16066	4029.1
843.99827	4037
847.8332	4036.7
851.66546	4009.4
855.49504	3980.9
859.32195	3957.8
863.1462	3978.1
866.96777	3982.9
870.78668	4042.5
874.60293	4081.1
878.41652	4143.9
882.22745	4219.1
886.03573	4310.5
889.84136	4416.9
893.64433	4480.3
897.44466	4508.4
901.24235	4507.6
905.0374	4525.4
908.8298	4577.2
912.61957	4698.5
916.40671	4870.6
920.19121	5093.8
923.97308	5268.6
927.75233	5414.2
931.52895	5439.4
935.30295	5366.7
939.07433	5163.8
942.84309	5011.2
946.60924	4837.4
950.37278	4713.5
954.13371	4632.2
957.89203	4551
961.64774	4478.3
965.40086	4400.8
969.15137	4327.1
972.89929	4261.7
976.64461	4208.4
980.38733	4141.4
984.12747	4098.3
987.86502	4090.8
991.59999	4101.5
995.33237	4106
999.06217	4145.6
1002.78939	4192.9
1006.51404	4228.9
1010.23611	4248.7
1013.95561	4258.7
1017.67255	4237.4
1021.38692	4210
1025.09872	4188.8
1028.80796	4172.4
1032.51465	4190.7
1036.21877	4216.7
1039.92035	4243.2
1043.61937	4290.3
1047.31584	4330.5
1051.00976	4356.4
1054.70114	4433.2
1058.38998	4459.8
1062.07627	4464.9
1065.76003	4434.5
1069.44126	4382.5
1073.11995	4318.8
1076.79611	4259.3
1080.46974	4225.4
1084.14085	4187.1
1087.80943	4157.6
1091.47549	4132.9
1095.13903	4090.3
1098.80005	4058.8
1102.45857	4016.5
1106.11456	4000
1109.76805	4004.5
1113.41903	4006.3
1117.06751	4031.8
1120.71348	4092.6
1124.35696	4119.8
1127.99793	4219.5
1131.63641	4269.1
1135.2724	4217.2
1138.90589	4158.9
1142.5369	4097.7
1146.16542	4052
1149.79145	3993.1
1153.415	3963.2
1157.03607	3932.5
1160.65467	3930.3
1164.27079	3998.8
1167.88443	4051.4
1171.49561	4185.4
1175.10432	4378
1178.71056	4707.3
1182.31434	5025.5
1185.91565	5256.9
1189.51451	5347
1193.11091	5263.7
1196.70485	5033.4
1200.29634	4789.5
1203.88538	4571.5
1207.47197	4363.6
1211.05612	4207.5
1214.63782	4150.1
1218.21708	4153.1
1221.79391	4220.2
1225.36829	4317.7
1228.94024	4398.3
1232.50976	4425
1236.07685	4420.6
1239.6415	4360.5
1243.20374	4338.6
1246.76355	4342.8
1250.32093	4345.1
1253.8759	4378.6
1257.42845	4418.5
1260.97859	4490.5
1264.52631	4562.2
1268.07163	4639.2
1271.61453	4710.4
1275.15503	4816.3
1278.69312	4862.3
1282.22882	4949.3
1285.76211	5075.2
1289.29301	5217.1
1292.82151	5346
1296.34761	5448.2
1299.87133	5563
1303.39266	5672.3
1306.9116	5824.3
1310.42815	6011.3
1313.94233	6111.6
1317.45412	6047.5
1320.96354	5904.1
1324.47058	5738.3
1327.97525	5644.2
1331.47754	5588.2
1334.97747	5635.3
1338.47502	5713.4
1341.97022	5848.6
1345.46305	5995.5
1348.95352	6198.5
1352.44163	6433.8
1355.92738	6728.8
1359.41078	7103.2
1362.89183	7509.6
1366.37053	7634.3
1369.84688	7349.9
1373.32088	6927.2
1376.79254	6688.5
1380.26186	6573.8
1383.72883	6566.9
1387.19347	6554
1390.65578	6530.3
1394.11575	6514.5
1397.57339	6484
1401.0287	6448.2
1404.48168	6408
1407.93234	6335.9
1411.38068	6257.7
1414.82669	6193.4
1418.27039	6127.6
1421.71177	6071.8
1425.15083	5994.7
1428.58758	5916.1
1432.02203	5832.7
1435.45416	5791.5
1438.88399	5790.7
1442.31151	5765.2
1445.73673	5749.1
1449.15965	5737.9
1452.58027	5732.8
1455.9986	5711.9
1459.41463	5738.4
1462.82837	5798
1466.23982	5860.1
1469.64898	5941.2
1473.05586	5998.8
1476.46045	6048.7
1479.86276	6101.2
1483.26279	6133
1486.66054	6157.4
1490.05602	6135.8
1493.44922	6127.8
1496.84016	6179
1500.22882	6228.3
1503.61521	6339.1
1506.99934	6498.2
1510.38121	6664.2
1513.76081	6687.4
1517.13816	6481.9
1520.51324	6161.4
1523.88607	5817.7
1527.25665	5554.5
1530.62498	5425.4
1533.99105	5317.8
1537.35488	5243.7
1540.71647	5165.3
1544.07581	5103.9
1547.4329	5079.1
1550.78776	5044.3
1554.14038	4994.4
1557.49077	4981.3
1560.83892	4953.3
1564.18484	4929.1
1567.52853	4917.4
1570.86999	4917.1
1574.20922	4900.9
1577.54624	4869
1580.88103	4767.8
1584.2136	4623
1587.54395	4523.9
1590.87208	4446.4
1594.19801	4425.9
1597.52172	4437.6
1600.84321	4427.1
1604.16251	4386.1
1607.47959	4300.2
1610.79447	4259.5
1614.10715	4185.7
1617.41763	4124
1620.7259	4074
1624.03199	4044.3
1627.33587	4033.5
1630.63757	4021.1
1633.93707	4015.8
1637.23439	4009.8
1640.52951	4031.7
1643.82246	4097.2
1647.11321	4175
1650.40179	4258.4
1653.68819	4197.7
1656.97241	3971.5
1660.25446	3688.4
1663.53433	3440.2
1666.81203	3287.9
1670.08756	3176.7
1673.36092	3088.4
1676.63211	3009.7
1679.90115	2963.6
1683.16801	2895.4
1686.43272	2851.3
1689.69527	2808.2
1692.95567	2759.6
1696.2139	2725.5
1699.46999	2695.2
1702.72392	2670.3
1705.97571	2653.3
1709.22535	2627.7
1712.47284	2618.4
1715.71819	2598.8
1718.96139	2584.4
1722.20246	2562.9
1725.44139	2548
1728.67818	2546.4
1731.91284	2524.7
1735.14537	2504.4
1738.37576	2490.8
1741.60403	2487.8
1744.83017	2486.3
1748.05418	2471.2
1751.27607	2466.2
1754.49584	2469.9
1757.71349	2462.3
1760.92903	2455.1
1764.14244	2441
1767.35375	2428
1770.56294	2405.7
1773.77002	2390.6
1776.97499	2375.7
1780.17785	2367.3
1783.37861	2363.3
1786.57727	2355.3
1789.77382	2346.1
1792.96828	2335.3
1796.16064	2330.6
1799.3509	2309.5
1802.53907	2308.6
1805.72514	2321.3
1808.90913	2293.5
1812.09102	2299.6
1815.27083	2278.3
1818.44856	2280
1821.6242	2267
1824.79776	2262.5
1827.96924	2258.6
1831.13864	2256.8
1834.30597	2251.4
1837.47122	2247.9
1840.6344	2236.7
1843.7955	2256.3
1846.95454	2240.3
1850.11151	2237.6
1853.26642	2244.3
1856.41926	2235.4
1859.57004	2217.4
1862.71876	2214.7
1865.86542	2213.4
1869.01003	2216.1
1872.15258	2207.9
1875.29308	2211.9
1878.43152	2203
1881.56792	2199.2
1884.70227	2199.3
1887.83457	2192.5
1890.96482	2191.9
1894.09304	2176.2
1897.21921	2180.2
1900.34335	2186.6
1903.46544	2175.1
1906.58551	2183.1
1909.70353	2173.3
1912.81953	2170.7
1915.93349	2161.7
1919.04543	2164
1922.15534	2153.6
1925.26322	2147.9
1928.36908	2138.5
1931.47292	2158.6
1934.57473	2142.8
1937.67453	2141
1940.77232	2125.1
1943.86808	2132.6
1946.96184	2119.3
1950.05358	2111.9
1953.14331	2106.2
1956.23103	2107.3
1959.31675	2097.7
1962.40046	2086.1
1965.48217	2083.2
1968.56188	2076.9
1971.63959	2067.8
1974.7153	2059.1
1977.78901	2045.8
1980.86073	2052.3
1983.93046	2050.4
1986.99819	2045
1990.06394	2038
1993.1277	2020.4
1996.18947	2022.2
1999.24925	2016.3
2002.30706	2006
2005.36288	1995
2008.41672	1998
2011.46859	1991.8
2014.51848	1979.7
2017.56639	1969.2
2020.61233	1963.5
2023.6563	1956.6
2026.6983	1966.8
2029.73833	1952.6
2032.7764	1952.2
2035.8125	1950.5
2038.84664	1942.3
2041.87881	1934.4
2044.90903	1926.7
2047.93729	1936.9
2050.96359	1942.4
2053.98794	1932.9
2057.01034	1928.1
2060.03078	1938.2
2063.04927	1931.2
2066.06582	1939.2
2069.08042	1947.1
2072.09307	1956.1
2075.10378	1956.3
2078.11255	1979.7
2081.11938	1978.5
2084.12426	1991.2
2087.12722	2005.1
2090.12824	2023.9
2093.12732	2039
2096.12447	2055.7
2099.11969	2056.5
2102.11299	2068.3
2105.10435	2070.1
2108.09379	2066.3
2111.08131	2068.4
2114.0669	2065.5
2117.05057	2051
2120.03233	2032
2123.01216	2023.5
2125.99008	2026.7
2128.96609	1999.1
2131.94018	1996.9
2134.91236	1971.6
2137.88263	1956
2140.851	1961.2
2143.81746	1958.1
2146.78201	1942.2
2149.74466	1935.7
2152.7054	1927.5
2155.66425	1915.9
2158.6212	1921.6
2161.57625	1911.7
2164.52941	1913.1
2167.48067	1903.6
2170.43004	1902.9
2173.37752	1902
2176.32311	1891.2
2179.26681	1905.2
2182.20863	1883
2185.14856	1889
2188.08661	1877.6
2191.02278	1889.5
2193.95707	1874.5
2196.88948	1875.7
2199.82001	1876
2202.74867	1877.2
2205.67545	1871.6
2208.60037	1873.4
2211.52341	1862.9
2214.44458	1856
2217.36388	1867.1
2220.28132	1857.4
2223.1969	1848
2226.11061	1846.8
2229.02246	1831.4
2231.93245	1814.9
2234.84058	1824.3
2237.74686	1823.8
2240.65128	1817.8
2243.55385	1810.9
2246.45456	1814.7
2249.35343	1807.1
2252.25044	1800.6
2255.14561	1796.2
2258.03893	1799.9
2260.93041	1793.6
2263.82004	1788.5
2266.70783	1790.2
2269.59378	1780.4
2272.4779	1784
2275.36017	1768.1
2278.24061	1766.9
2281.11922	1772.4
2283.996	1769.8
2286.87094	1776.6
2289.74405	1752.9
2292.61534	1760.9
2295.4848	1759.1
2298.35243	1749.8
2301.21824	1739.9
2304.08223	1751
2306.94439	1737.3
2309.80474	1732.8
2312.66327	1728.1
2315.51999	1728.8
2318.37489	1737.8
2321.22797	1728.6
2324.07925	1726.1
2326.92871	1723.9
2329.77637	1729.3
2332.62222	1716.6
2335.46626	1716.2
2338.3085	1709.8
2341.14893	1715.3
2343.98756	1713.1
2346.8244	1702.6
2349.65943	1708.6
2352.49267	1696.8
2355.32411	1690.2
2358.15376	1700.8
2360.98161	1702.6
2363.80768	1695.6
2366.63195	1697.4
2369.45444	1692.7
2372.27514	1684.1
2375.09405	1693.8
2377.91118	1686.3
2380.72652	1677.9
2383.54009	1680.5
2386.35187	1674.1
2389.16188	1657.5
2391.97011	1664.4
2394.77657	1652
2397.58125	1656
2400.38416	1647.8
2403.18529	1649.2
2405.98466	1649.1
2408.78226	1639.9
2411.57809	1641.3
2414.37216	1643.7
2417.16446	1636.2
2419.955	1624.1
2422.74378	1630.6
2425.5308	1629.8
2428.31606	1619.6
2431.09956	1619.8
2433.88131	1615.6
2436.6613	1614
2439.43954	1611
2442.21603	1619.9
2444.99077	1611.3
2447.76377	1616.8
2450.53501	1611.5
2453.30451	1600.4
2456.07226	1599
2458.83827	1602
2461.60254	1586.6
2464.36507	1597.9
2467.12586	1589.9
2469.88492	1590.3
2472.64224	1588.5
2475.39782	1589.1
2478.15167	1578.2
2480.90379	1570.7
2483.65417	1580.6
2486.40283	1576.8
2489.14976	1573.9
2491.89497	1585.9
2494.63845	1582.5
2497.3802	1570.1
2500.12024	1574.9
2502.85855	1577.2
2505.59514	1574
2508.33002	1566.7
2511.06318	1562.5
2513.79462	1561.5
2516.52435	1564.4
2519.25237	1559
2521.97867	1555.5
2524.70327	1556.8
2527.42616	1548.8
2530.14734	1537.4
2532.86681	1541.3
2535.58458	1531.5
2538.30065	1534.5
2541.01501	1527.4
2543.72768	1528.2
2546.43864	1534.5
2549.14791	1518.5
2551.85548	1520.4
2554.56136	1513.6
2557.26554	1508
2559.96803	1510.8
2562.66883	1510.3
2565.36794	1511.5
2568.06536	1510.6
2570.7611	1505.5
2573.45514	1505.4
2576.14751	1495.7
2578.83819	1499
2581.52719	1497.7
2584.21451	1493.7
2586.90015	1492.1
2589.58411	1497.5
2592.2664	1489.8
2594.94701	1489.6
2597.62594	1474.5
2600.30321	1488.4
2602.9788	1477.4
2605.65273	1467
2608.32498	1472.8
2610.99557	1465.1
2613.66449	1466.8
2616.33175	1467
2618.99734	1469.5
2621.66128	1461.9
2624.32355	1461.8
2626.98416	1463
2629.64311	1462.6
2632.30041	1465.2
2634.95605	1457.9
2637.61004	1463.8
2640.26238	1468.5
2642.91306	1466.8
2645.56209	1461.5
2648.20948	1469.1
2650.85521	1459.1
2653.4993	1454.4
2656.14175	1458.5
2658.78255	1461.8
2661.42171	1467.3
2664.05923	1467.9
2666.6951	1461.7
2669.32934	1466.2
2671.96194	1456.9
2674.59291	1472.4
2677.22224	1465.1
2679.84993	1467.3
2682.476	1480.4
2685.10043	1471.9
2687.72324	1472.8
2690.34441	1479.6
2692.96396	1483.7
2695.58188	1473.6
2698.19818	1485.7
2700.81285	1479.1
2703.4259	1483.9
2706.03733	1473.1
2708.64714	1487.4
2711.25533	1491
2713.86191	1483.5
2716.46687	1485.6
2719.07021	1492.9
2721.67194	1495.8
2724.27206	1502.2
2726.87057	1491.3
2729.46747	1495.5
2732.06276	1501.8
2734.65644	1490.8
2737.24852	1502.3
2739.83899	1504.6
2742.42786	1511.1
2745.01513	1509
2747.60079	1509
2750.18486	1501.8
2752.76733	1511
2755.3482	1505.8
2757.92747	1514.5
2760.50515	1517.6
2763.08123	1525.1
2765.65573	1508
2768.22863	1523.3
2770.79994	1523
2773.36967	1525.2
2775.9378	1515.9
2778.50435	1516.9
2781.06932	1523.1
2783.6327	1528.5
2786.1945	1523.4
2788.75471	1524.4
2791.31335	1518.9
2793.87041	1523.9
2796.42589	1521.8
2798.97979	1515.7
2801.53212	1520.4
2804.08288	1519
2806.63206	1517.6
2809.17967	1512
2811.72571	1513.4
2814.27018	1516.2
2816.81308	1504.7
2819.35442	1504.5
2821.89419	1507
2824.43239	1498.7
2826.96904	1509
2829.50412	1508.1
2832.03763	1508.4
2834.56959	1507.5
2837.1	1512.3
2839.62884	1520.3
2842.15613	1534.4
2844.68186	1567.5
2847.20604	1582.3
2849.72867	1608.9
2852.24974	1628.4
2854.76927	1631.8
2857.28724	1652.8
2859.80367	1661.9
2862.31855	1671.9
2864.83189	1685.4
2867.34368	1703.3
2869.85393	1709.6
2872.36264	1724.3
2874.8698	1731.3
2877.37543	1753.1
2879.87952	1771
2882.38207	1777.3
2884.88308	1780.2
2887.38256	1797.4
2889.88051	1799.3
2892.37692	1805.6
2894.8718	1823.8
2897.36515	1823.5
2899.85698	1820.4
2902.34727	1840.4
2904.83604	1850
2907.32328	1864.1
2909.809	1860.2
2912.29319	1863.1
2914.77587	1871.6
2917.25702	1878.1
2919.73665	1889.9
2922.21476	1905.6
2924.69136	1928.2
2927.16644	1921.5
2929.64	1916
2932.11205	1926.6
2934.58258	1922.7
2937.05161	1907.9
2939.51912	1893.7
2941.98513	1873.3
2944.44962	1851.6
2946.91261	1805.9
2949.37409	1791.2
2951.83407	1762.5
2954.29254	1742.4
2956.74951	1709.5
2959.20498	1677.3
2961.65895	1650.7
2964.11142	1628.8
2966.56239	1595.7
2969.01186	1587.7
2971.45984	1557.1
2973.90632	1545.1
2976.35131	1508.8
2978.7948	1498.4
2981.23681	1493.4
2983.67732	1471.1
2986.11635	1451.9
2988.55388	1452.3
2990.98993	1434.5
2993.4245	1426.8
2995.85758	1428.2
2998.28917	1416.5
3000.71928	1417.1
3003.14791	1409
3005.57506	1405.9
3008.00073	1398.9
3010.42493	1401.8
3012.84764	1394.2
3015.26888	1392.7
3017.68865	1383.1
3020.10694	1380.4
3022.52376	1389.7
3024.9391	1369.4
3027.35298	1376.3
3029.76539	1370.4
3032.17632	1375.4
3034.5858	1369.8
3036.9938	1366.6
3039.40034	1368.4
3041.80542	1373.6
3044.20903	1360.7
3046.61118	1364.3
3049.01187	1364.7
3051.4111	1355.8
3053.80888	1361.8
3056.20519	1361.5
3058.60005	1353.1
3060.99345	1363.8
3063.3854	1352.4
3065.7759	1354.6
3068.16494	1350.4
3070.55254	1346.6
3072.93868	1363.1
3075.32338	1361.1
3077.70662	1361.3
3080.08842	1361.4
3082.46878	1356.6
3084.84769	1362.7
3087.22515	1369.1
3089.60118	1367.8
3091.97576	1373.9
3094.3489	1370.6
3096.72061	1382.1
3099.09087	1381.3
3101.4597	1378.8
3103.82709	1386.8
3106.19305	1387.6
3108.55757	1385.3
3110.92066	1392.4
3113.28232	1402.8
3115.64255	1397.1
3118.00134	1398.7
3120.35871	1397.1
3122.71466	1406.2
3125.06917	1413.1
3127.42226	1414.6
3129.77393	1413.8
3132.12417	1423
3134.47299	1431.9
3136.82039	1437
3139.16636	1447.1
3141.51092	1453.6
3143.85406	1447.2
3146.19579	1464.9
3148.53609	1463.2
3150.87499	1468.7
3153.21246	1481.4
3155.54853	1484.9
3157.88318	1495.3
3160.21642	1506.3
3162.54826	1507
3164.87868	1506.8
3167.2077	1514.9
3169.5353	1516
3171.86151	1534.2
3174.18631	1533.5
3176.5097	1530.9
3178.83169	1534.6
3181.15228	1544.9
3183.47147	1550.7
3185.78926	1546.8
3188.10565	1555.8
3190.42065	1563.6
3192.73424	1571.3
3195.04645	1571.5
3197.35725	1578.1
3199.66667	1580.1
3201.97469	1593.9
3204.28132	1584.9
3206.58656	1597.5
3208.8904	1599.9
3211.19287	1601.6
3213.49394	1611.2
3215.79363	1620.3
3218.09193	1619.1
3220.38884	1620.3
3222.68438	1618.5
3224.97853	1621.6
3227.2713	1630.8
3229.56269	1623.8
3231.8527	1631.6
3234.14133	1627
3236.42858	1633
3238.71446	1640.2
3240.99896	1638.3
3243.28209	1645.4
3245.56384	1647.1
3247.84423	1646.3
3250.12324	1655.1
3252.40088	1654.3
3254.67715	1658.6
3256.95205	1665.4
3259.22558	1661
3261.49775	1663.4
3263.76855	1662.7
3266.03799	1661.7
3268.30606	1665.1
3270.57277	1658.4
3272.83812	1660.4
3275.10211	1658.4
3277.36474	1663
3279.62601	1646.3
3281.88593	1655
3284.14448	1646.7
3286.40168	1647
3288.65753	1635.7
3290.91202	1633.2
3293.16516	1630.8
3295.41695	1628
3297.66738	1610.3
3299.91647	1600.7
3302.16421	1597.1
3304.4106	1597.9
3306.65564	1591.1
3308.89933	1578.9
3311.14169	1577.9
3313.38269	1556.4
3315.62236	1553.8
3317.86068	1539.1
3320.09766	1528.5
3322.3333	1523.3
3324.5676	1523.3
3326.80056	1493.7
3329.03219	1484.8
3331.26248	-0.6
3333.49143	0
3335.71905	-1.2
