Data from AgNPs_FTO_APTES_UA_2uM_CRN_10uM_R6G_10uM_NaF_0.1M_Addition_RamanShift__0__13-18-05-136.txt Node

Date: Wed Feb 02 13:18:05 GMT 2022
User: TCL
Spectrometer: QEP01345
Trigger mode: 4
Integration Time (sec): 7.000000E0
Scans to average: 10
Electric dark correction enabled: true
Nonlinearity correction enabled: false
Boxcar width: 0
XAxis mode: Raman Shifts
Number of Pixels in Spectrum: 1044
>>>>>Begin Spectral Data<<<<<
46.04893	0.9625
50.45542	2.3625
54.85868	0.2625
59.25871	-0.0375
63.6555	-6.0375
68.04907	-5.7375
72.43941	-7.1375
76.82654	-2.9375
81.21044	-5.4375
85.59113	-3.7375
89.96862	-5.5375
94.34289	-4.9375
98.71396	-4.5375
103.08183	-2.2375
107.4465	-5.5375
111.80798	-1.6375
116.16626	-6.3375
120.52136	-1.6375
124.87327	-5.3375
129.222	-4.3375
133.56755	-4.4375
137.90993	-5.6375
142.24913	-3.1375
146.58517	-3.3375
150.91804	-1.3375
155.24774	0.3625
159.57429	-2.9375
163.89768	-2.8375
168.21792	-2.9375
172.53501	4.0625
176.84895	3.9625
181.15975	7.6625
185.46741	17.6625
189.77193	18.7625
194.07331	30.8625
198.37157	40.7625
202.6667	53.1625
206.9587	69.2625
211.24758	74.3625
215.53334	84.3625
219.81599	92.4625
224.09553	105.2625
228.37195	117.3625
232.64527	136.5625
236.91549	146.3625
241.18261	163.0625
245.44663	179.3625
249.70755	196.2625
253.96539	211.5625
258.22014	219.9625
262.4718	233.0625
266.72039	242.8625
270.96589	240.8625
275.20832	243.7625
279.44768	243.5625
283.68397	237.4625
287.91719	231.5625
292.14735	237.9625
296.37445	236.6625
300.59849	224.1625
304.81948	230.3625
309.03742	220.8625
313.25231	221.7625
317.46415	222.7625
321.67296	220.7625
325.87872	221.9625
330.08145	218.1625
334.28114	221.5625
338.47781	225.4625
342.67145	224.8625
346.86207	233.1625
351.04966	231.9625
355.23424	238.8625
359.4158	238.8625
363.59435	243.7625
367.76989	244.0625
371.94243	251.0625
376.11196	255.9625
380.27849	258.1625
384.44203	267.6625
388.60257	271.7625
392.76012	279.8625
396.91468	295.3625
401.06626	312.1625
405.21485	336.1625
409.36047	373.3625
413.50311	431.0625
417.64277	523.7625
421.77947	668.5625
425.9132	839.9625
430.04396	986.5625
434.17176	980.3625
438.2966	841.9625
442.41849	690.8625
446.53742	582.7625
450.6534	528.9625
454.76644	492.8625
458.87653	448.8625
462.98368	396.6625
467.08789	364.5625
471.18916	354.5625
475.2875	365.1625
479.38291	390.3625
483.4754	435.2625
487.56496	484.3625
491.6516	524.0625
495.73531	526.2625
499.81612	484.5625
503.89401	438.3625
507.96899	408.2625
512.04106	379.2625
516.11023	357.9625
520.1765	348.6625
524.23987	335.2625
528.30034	338.2625
532.35792	331.1625
536.41261	334.2625
540.46441	327.4625
544.51333	318.0625
548.55936	316.9625
552.60252	313.0625
556.64279	309.9625
560.6802	305.4625
564.71473	301.0625
568.7464	301.4625
572.7752	303.4625
576.80114	304.9625
580.82422	314.4625
584.84444	324.0625
588.86181	336.7625
592.87633	350.5625
596.888	375.8625
600.89682	391.0625
604.9028	403.0625
608.90594	393.5625
612.90624	365.2625
616.90371	332.2625
620.89834	309.5625
624.89015	275.4625
628.87913	275.8625
632.86528	266.8625
636.84862	261.5625
640.82913	261.0625
644.80683	263.0625
648.78172	262.7625
652.75379	257.7625
656.72306	255.7625
660.68952	250.1625
664.65319	249.9625
668.61405	252.9625
672.57211	256.7625
676.52738	261.1625
680.47986	279.1625
684.42955	300.1625
688.37646	337.7625
692.32058	404.3625
696.26192	503.2625
700.20048	638.0625
704.13626	784.4625
708.06928	847.0625
711.99952	827.0625
715.927	685.4625
719.85171	545.4625
723.77365	465.7625
727.69284	409.7625
731.60928	390.4625
735.52295	384.0625
739.43388	365.8625
743.34206	349.4625
747.24749	323.2625
751.15017	309.0625
755.05012	299.9625
758.94733	289.5625
762.8418	286.0625
766.73354	286.5625
770.62254	281.9625
774.50882	287.5625
778.39237	301.0625
782.27321	277.4625
786.15132	284.7625
790.02671	277.3625
793.89938	282.8625
797.76935	280.2625
801.6366	290.6625
805.50115	292.4625
809.36299	301.8625
813.22213	301.1625
817.07857	307.6625
820.93231	303.9625
824.78336	297.7625
828.63172	297.6625
832.47738	292.7625
836.32036	286.3625
840.16066	287.2625
843.99827	282.7625
847.8332	279.8625
851.66546	278.5625
855.49504	274.9625
859.32195	275.0625
863.1462	270.5625
866.96777	272.4625
870.78668	272.6625
874.60293	269.0625
878.41652	272.2625
882.22745	266.9625
886.03573	267.6625
889.84136	275.3625
893.64433	266.9625
897.44466	272.7625
901.24235	273.6625
905.0374	275.3625
908.8298	270.7625
912.61957	277.2625
916.40671	285.3625
920.19121	269.6625
923.97308	257.4625
927.75233	259.5625
931.52895	261.6625
935.30295	254.0625
939.07433	252.3625
942.84309	242.4625
946.60924	241.2625
950.37278	247.6625
954.13371	246.5625
957.89203	241.4625
961.64774	238.2625
965.40086	241.8625
969.15137	237.4625
972.89929	237.1625
976.64461	231.5625
980.38733	231.5625
984.12747	225.4625
987.86502	231.0625
991.59999	229.5625
995.33237	224.9625
999.06217	228.2625
1002.78939	227.1625
1006.51404	223.4625
1010.23611	221.5625
1013.95561	228.4625
1017.67255	223.5625
1021.38692	220.2625
1025.09872	223.1625
1028.80796	223.6625
1032.51465	221.7625
1036.21877	223.9625
1039.92035	225.7625
1043.61937	222.0625
1047.31584	231.3625
1051.00976	228.6625
1054.70114	235.8625
1058.38998	234.0625
1062.07627	231.2625
1065.76003	244.2625
1069.44126	247.3625
1073.11995	249.3625
1076.79611	255.9625
1080.46974	261.2625
1084.14085	265.6625
1087.80943	271.8625
1091.47549	276.6625
1095.13903	284.5625
1098.80005	284.7625
1102.45857	291.2625
1106.11456	296.5625
1109.76805	305.2625
1113.41903	298.8625
1117.06751	302.3625
1120.71348	296.3625
1124.35696	292.4625
1127.99793	285.2625
1131.63641	280.9625
1135.2724	273.0625
1138.90589	268.1625
1142.5369	260.0625
1146.16542	255.6625
1149.79145	248.8625
1153.415	249.7625
1157.03607	247.0625
1160.65467	244.6625
1164.27079	239.2625
1167.88443	247.0625
1171.49561	242.7625
1175.10432	245.6625
1178.71056	244.4625
1182.31434	245.2625
1185.91565	243.4625
1189.51451	239.5625
1193.11091	244.7625
1196.70485	249.0625
1200.29634	252.1625
1203.88538	256.2625
1207.47197	260.4625
1211.05612	273.8625
1214.63782	274.2625
1218.21708	283.5625
1221.79391	296.2625
1225.36829	315.4625
1228.94024	331.3625
1232.50976	349.1625
1236.07685	376.8625
1239.6415	420.8625
1243.20374	465.7625
1246.76355	527.2625
1250.32093	602.6625
1253.8759	678.1625
1257.42845	735.3625
1260.97859	772.5625
1264.52631	771.1625
1268.07163	744.6625
1271.61453	695.3625
1275.15503	618.8625
1278.69312	535.5625
1282.22882	458.3625
1285.76211	405.1625
1289.29301	356.3625
1292.82151	317.1625
1296.34761	284.6625
1299.87133	268.0625
1303.39266	244.5625
1306.9116	227.6625
1310.42815	214.4625
1313.94233	196.8625
1317.45412	192.1625
1320.96354	196.0625
1324.47058	282.6625
1327.97525	398.7625
1331.47754	218.5625
1334.97747	167.3625
1338.47502	157.2625
1341.97022	154.7625
1345.46305	157.6625
1348.95352	155.8625
1352.44163	156.5625
1355.92738	166.2625
1359.41078	166.3625
1362.89183	172.1625
1366.37053	192.7625
1369.84688	212.8625
1373.32088	249.9625
1376.79254	315.4625
1380.26186	441.1625
1383.72883	627.5625
1387.19347	823.4625
1390.65578	828.0625
1394.11575	639.2625
1397.57339	436.2625
1401.0287	311.9625
1404.48168	243.4625
1407.93234	195.8625
1411.38068	169.9625
1414.82669	154.2625
1418.27039	145.9625
1421.71177	140.4625
1425.15083	136.9625
1428.58758	138.1625
1432.02203	141.7625
1435.45416	142.7625
1438.88399	136.8625
1442.31151	145.2625
1445.73673	249.2625
1449.15965	286.2625
1452.58027	145.4625
1455.9986	115.0625
1459.41463	115.2625
1462.82837	112.2625
1466.23982	112.4625
1469.64898	108.0625
1473.05586	106.4625
1476.46045	107.6625
1479.86276	113.8625
1483.26279	113.6625
1486.66054	112.6625
1490.05602	112.7625
1493.44922	112.1625
1496.84016	113.1625
1500.22882	115.8625
1503.61521	117.0625
1506.99934	121.1625
1510.38121	121.4625
1513.76081	123.5625
1517.13816	125.3625
1520.51324	126.0625
1523.88607	125.3625
1527.25665	128.6625
1530.62498	127.6625
1533.99105	135.0625
1537.35488	132.1625
1540.71647	135.7625
1544.07581	136.0625
1547.4329	139.0625
1550.78776	139.5625
1554.14038	147.6625
1557.49077	153.3625
1560.83892	153.0625
1564.18484	157.9625
1567.52853	157.6625
1570.86999	165.5625
1574.20922	166.0625
1577.54624	183.9625
1580.88103	194.4625
1584.2136	213.8625
1587.54395	228.7625
1590.87208	251.8625
1594.19801	287.0625
1597.52172	325.3625
1600.84321	349.6625
1604.16251	336.1625
1607.47959	314.6625
1610.79447	311.4625
1614.10715	326.7625
1617.41763	348.9625
1620.7259	391.5625
1624.03199	440.6625
1627.33587	504.1625
1630.63757	578.6625
1633.93707	674.0625
1637.23439	779.8625
1640.52951	903.4625
1643.82246	1044.3625
1647.11321	1223.7625
1650.40179	1418.5625
1653.68819	1700.1625
1656.97241	1779.5625
1660.25446	1782.1625
1663.53433	1741.5625
1666.81203	1627.2625
1670.08756	1423.3625
1673.36092	1175.8625
1676.63211	956.2625
1679.90115	814.7625
1683.16801	784.7625
1686.43272	808.3625
1689.69527	987.0625
1692.95567	1405.2625
1696.2139	2112.6625
1699.46999	2805.6625
1702.72392	2861.4625
1705.97571	2221.9625
1709.22535	1471.3625
1712.47284	952.5625
1715.71819	663.8625
1718.96139	513.5625
1722.20246	433.6625
1725.44139	386.4625
1728.67818	363.7625
1731.91284	355.6625
1735.14537	371.1625
1738.37576	403.6625
1741.60403	470.0625
1744.83017	541.0625
1748.05418	665.1625
1751.27607	875.5625
1754.49584	1238.1625
1757.71349	1678.0625
1760.92903	1908.5625
1764.14244	1871.1625
1767.35375	1822.6625
1770.56294	1838.7625
1773.77002	1632.4625
1776.97499	1197.3625
1780.17785	803.7625
1783.37861	545.2625
1786.57727	399.7625
1789.77382	320.4625
1792.96828	263.9625
1796.16064	227.2625
1799.3509	204.5625
1802.53907	178.8625
1805.72514	165.3625
1808.90913	153.7625
1812.09102	154.1625
1815.27083	136.3625
1818.44856	125.8625
1821.6242	125.7625
1824.79776	118.3625
1827.96924	109.7625
1831.13864	111.2625
1834.30597	107.1625
1837.47122	106.3625
1840.6344	103.5625
1843.7955	105.8625
1846.95454	94.0625
1850.11151	94.5625
1853.26642	94.1625
1856.41926	90.0625
1859.57004	89.2625
1862.71876	88.2625
1865.86542	83.0625
1869.01003	82.9625
1872.15258	76.4625
1875.29308	84.7625
1878.43152	83.4625
1881.56792	79.4625
1884.70227	76.7625
1887.83457	72.7625
1890.96482	75.5625
1894.09304	79.6625
1897.21921	81.9625
1900.34335	77.6625
1903.46544	76.4625
1906.58551	76.9625
1909.70353	80.5625
1912.81953	77.6625
1915.93349	73.7625
1919.04543	73.5625
1922.15534	69.8625
1925.26322	76.3625
1928.36908	79.6625
1931.47292	77.0625
1934.57473	78.5625
1937.67453	81.4625
1940.77232	83.4625
1943.86808	81.4625
1946.96184	79.5625
1950.05358	81.6625
1953.14331	82.7625
1956.23103	83.8625
1959.31675	76.6625
1962.40046	77.5625
1965.48217	76.0625
1968.56188	73.7625
1971.63959	74.4625
1974.7153	76.9625
1977.78901	66.2625
1980.86073	62.5625
1983.93046	64.0625
1986.99819	61.0625
1990.06394	70.7625
1993.1277	70.3625
1996.18947	66.5625
1999.24925	69.0625
2002.30706	77.2625
2005.36288	69.3625
2008.41672	70.2625
2011.46859	69.7625
2014.51848	63.7625
2017.56639	64.7625
2020.61233	65.0625
2023.6563	65.0625
2026.6983	67.8625
2029.73833	67.3625
2032.7764	64.9625
2035.8125	66.6625
2038.84664	57.8625
2041.87881	65.9625
2044.90903	62.6625
2047.93729	65.1625
2050.96359	81.1625
2053.98794	105.7625
2057.01034	84.5625
2060.03078	73.0625
2063.04927	65.1625
2066.06582	65.6625
2069.08042	66.5625
2072.09307	65.6625
2075.10378	64.1625
2078.11255	67.7625
2081.11938	63.0625
2084.12426	60.7625
2087.12722	60.6625
2090.12824	58.4625
2093.12732	61.5625
2096.12447	62.3625
2099.11969	63.4625
2102.11299	64.7625
2105.10435	63.5625
2108.09379	59.2625
2111.08131	57.8625
2114.0669	60.9625
2117.05057	60.4625
2120.03233	64.3625
2123.01216	59.0625
2125.99008	61.8625
2128.96609	58.1625
2131.94018	64.0625
2134.91236	62.5625
2137.88263	57.1625
2140.851	58.1625
2143.81746	62.9625
2146.78201	64.4625
2149.74466	58.4625
2152.7054	59.2625
2155.66425	56.7625
2158.6212	57.4625
2161.57625	56.9625
2164.52941	56.2625
2167.48067	59.3625
2170.43004	56.4625
2173.37752	61.4625
2176.32311	55.4625
2179.26681	59.6625
2182.20863	55.0625
2185.14856	58.8625
2188.08661	52.5625
2191.02278	57.0625
2193.95707	51.1625
2196.88948	54.7625
2199.82001	54.4625
2202.74867	52.8625
2205.67545	56.7625
2208.60037	55.2625
2211.52341	53.1625
2214.44458	55.2625
2217.36388	57.1625
2220.28132	55.8625
2223.1969	55.3625
2226.11061	54.5625
2229.02246	54.9625
2231.93245	54.0625
2234.84058	56.9625
2237.74686	59.4625
2240.65128	56.4625
2243.55385	56.7625
2246.45456	58.2625
2249.35343	59.0625
2252.25044	56.1625
2255.14561	66.7625
2258.03893	155.2625
2260.93041	326.2625
2263.82004	187.9625
2266.70783	114.8625
2269.59378	91.8625
2272.4779	68.3625
2275.36017	56.6625
2278.24061	52.5625
2281.11922	54.1625
2283.996	53.9625
2286.87094	57.7625
2289.74405	51.3625
2292.61534	56.7625
2295.4848	57.8625
2298.35243	58.3625
2301.21824	58.3625
2304.08223	59.8625
2306.94439	62.1625
2309.80474	64.2625
2312.66327	69.7625
2315.51999	73.8625
2318.37489	72.3625
2321.22797	78.7625
2324.07925	85.0625
2326.92871	91.2625
2329.77637	96.4625
2332.62222	98.9625
2335.46626	105.8625
2338.3085	108.6625
2341.14893	111.0625
2343.98756	105.7625
2346.8244	99.6625
2349.65943	96.7625
2352.49267	89.6625
2355.32411	78.9625
2358.15376	73.4625
2360.98161	70.4625
2363.80768	61.3625
2366.63195	55.1625
2369.45444	58.0625
2372.27514	53.5625
2375.09405	49.8625
2377.91118	54.2625
2380.72652	51.4625
2383.54009	52.0625
2386.35187	54.0625
2389.16188	54.5625
2391.97011	55.4625
2394.77657	53.8625
2397.58125	54.4625
2400.38416	59.7625
2403.18529	60.7625
2405.98466	64.4625
2408.78226	74.0625
2411.57809	77.7625
2414.37216	81.4625
2417.16446	78.1625
2419.955	68.0625
2422.74378	62.7625
2425.5308	58.5625
2428.31606	57.1625
2431.09956	52.4625
2433.88131	50.7625
2436.6613	48.4625
2439.43954	46.7625
2442.21603	50.3625
2444.99077	48.0625
2447.76377	47.2625
2450.53501	47.5625
2453.30451	46.8625
2456.07226	44.2625
2458.83827	46.0625
2461.60254	48.3625
2464.36507	45.7625
2467.12586	41.7625
2469.88492	50.7625
2472.64224	68.7625
2475.39782	194.4625
2478.15167	234.8625
2480.90379	128.3625
2483.65417	92.9625
2486.40283	82.7625
2489.14976	68.4625
2491.89497	77.5625
2494.63845	225.7625
2497.3802	267.5625
2500.12024	138.3625
2502.85855	100.2625
2505.59514	82.9625
2508.33002	63.7625
2511.06318	52.6625
2513.79462	45.9625
2516.52435	46.3625
2519.25237	49.2625
2521.97867	50.8625
2524.70327	50.0625
2527.42616	46.5625
2530.14734	49.9625
2532.86681	43.8625
2535.58458	47.5625
2538.30065	46.2625
2541.01501	41.5625
2543.72768	44.6625
2546.43864	42.5625
2549.14791	44.9625
2551.85548	37.6625
2554.56136	36.9625
2557.26554	43.4625
2559.96803	41.6625
2562.66883	37.0625
2565.36794	36.3625
2568.06536	41.1625
2570.7611	35.9625
2573.45514	35.6625
2576.14751	39.6625
2578.83819	38.1625
2581.52719	40.5625
2584.21451	39.1625
2586.90015	39.1625
2589.58411	39.9625
2592.2664	39.2625
2594.94701	42.8625
2597.62594	40.7625
2600.30321	43.6625
2602.9788	38.4625
2605.65273	39.2625
2608.32498	39.6625
2610.99557	40.5625
2613.66449	41.0625
2616.33175	37.7625
2618.99734	34.9625
2621.66128	42.7625
2624.32355	49.8625
2626.98416	44.2625
2629.64311	40.6625
2632.30041	38.2625
2634.95605	29.3625
2637.61004	24.0625
2640.26238	17.4625
2642.91306	18.0625
2645.56209	34.2625
2648.20948	63.0625
2650.85521	39.5625
2653.4993	25.3625
2656.14175	19.0625
2658.78255	21.1625
2661.42171	13.7625
2664.05923	13.1625
2666.6951	11.0625
2669.32934	12.0625
2671.96194	17.2625
2674.59291	21.3625
2677.22224	24.3625
2679.84993	28.1625
2682.476	24.7625
2685.10043	21.2625
2687.72324	22.5625
2690.34441	21.5625
2692.96396	20.8625
2695.58188	21.0625
2698.19818	28.6625
2700.81285	65.4625
2703.4259	381.2625
2706.03733	1053.7625
2708.64714	597.5625
2711.25533	311.6625
2713.86191	218.7625
2716.46687	169.9625
2719.07021	112.8625
2721.67194	57.5625
2724.27206	32.8625
2726.87057	32.5625
2729.46747	27.2625
2732.06276	26.0625
2734.65644	27.7625
2737.24852	27.8625
2739.83899	23.6625
2742.42786	29.9625
2745.01513	30.3625
2747.60079	25.1625
2750.18486	22.7625
2752.76733	31.2625
2755.3482	29.2625
2757.92747	29.9625
2760.50515	28.3625
2763.08123	33.1625
2765.65573	31.9625
2768.22863	31.2625
2770.79994	33.8625
2773.36967	33.6625
2775.9378	34.8625
2778.50435	33.9625
2781.06932	35.3625
2783.6327	33.9625
2786.1945	34.3625
2788.75471	35.6625
2791.31335	35.0625
2793.87041	38.5625
2796.42589	35.2625
2798.97979	30.6625
2801.53212	36.0625
2804.08288	36.1625
2806.63206	46.8625
2809.17967	40.6625
2811.72571	37.6625
2814.27018	35.0625
2816.81308	39.4625
2819.35442	37.8625
2821.89419	40.0625
2824.43239	37.9625
2826.96904	36.6625
2829.50412	35.5625
2832.03763	37.6625
2834.56959	37.5625
2837.1	36.5625
2839.62884	39.1625
2842.15613	37.2625
2844.68186	36.0625
2847.20604	37.5625
2849.72867	40.0625
2852.24974	57.7625
2854.76927	199.5625
2857.28724	363.6625
2859.80367	202.4625
2862.31855	139.3625
2864.83189	125.9625
2867.34368	103.6625
2869.85393	80.6625
2872.36264	63.5625
2874.8698	46.8625
2877.37543	44.8625
2879.87952	42.0625
2882.38207	45.4625
2884.88308	35.9625
2887.38256	36.1625
2889.88051	37.5625
2892.37692	37.7625
2894.8718	37.4625
2897.36515	38.3625
2899.85698	33.9625
2902.34727	34.5625
2904.83604	32.2625
2907.32328	39.3625
2909.809	37.2625
2912.29319	35.0625
2914.77587	36.1625
2917.25702	33.6625
2919.73665	32.6625
2922.21476	30.4625
2924.69136	33.4625
2927.16644	32.7625
2929.64	31.0625
2932.11205	32.5625
2934.58258	35.3625
2937.05161	30.5625
2939.51912	29.6625
2941.98513	28.7625
2944.44962	31.0625
2946.91261	29.6625
2949.37409	27.1625
2951.83407	30.3625
2954.29254	33.3625
2956.74951	29.6625
2959.20498	29.7625
2961.65895	32.8625
2964.11142	27.1625
2966.56239	31.9625
2969.01186	34.1625
2971.45984	31.7625
2973.90632	34.2625
2976.35131	27.5625
2978.7948	29.0625
2981.23681	26.9625
2983.67732	29.7625
2986.11635	31.3625
2988.55388	29.4625
2990.98993	30.3625
2993.4245	29.2625
2995.85758	28.6625
2998.28917	24.7625
3000.71928	30.5625
3003.14791	30.2625
3005.57506	31.1625
3008.00073	33.2625
3010.42493	30.4625
3012.84764	29.3625
3015.26888	28.9625
3017.68865	34.7625
3020.10694	30.3625
3022.52376	33.2625
3024.9391	28.4625
3027.35298	30.2625
3029.76539	29.6625
3032.17632	27.4625
3034.5858	28.0625
3036.9938	26.3625
3039.40034	27.5625
3041.80542	27.6625
3044.20903	24.3625
3046.61118	26.1625
3049.01187	24.2625
3051.4111	27.5625
3053.80888	30.5625
3056.20519	26.4625
3058.60005	29.3625
3060.99345	27.4625
3063.3854	31.1625
3065.7759	29.2625
3068.16494	23.0625
3070.55254	26.9625
3072.93868	32.6625
3075.32338	29.6625
3077.70662	29.2625
3080.08842	26.3625
3082.46878	26.2625
3084.84769	28.0625
3087.22515	26.0625
3089.60118	26.7625
3091.97576	26.5625
3094.3489	23.2625
3096.72061	25.1625
3099.09087	30.0625
3101.4597	25.0625
3103.82709	25.7625
3106.19305	23.7625
3108.55757	22.5625
3110.92066	27.1625
3113.28232	25.3625
3115.64255	25.5625
3118.00134	29.4625
3120.35871	23.3625
3122.71466	25.5625
3125.06917	22.4625
3127.42226	23.3625
3129.77393	21.9625
3132.12417	24.8625
3134.47299	24.6625
3136.82039	23.1625
3139.16636	27.2625
3141.51092	23.8625
3143.85406	25.5625
3146.19579	22.9625
3148.53609	24.4625
3150.87499	22.9625
3153.21246	24.5625
3155.54853	20.6625
3157.88318	25.5625
3160.21642	23.3625
3162.54826	23.2625
3164.87868	25.2625
3167.2077	28.3625
3169.5353	23.2625
3171.86151	25.5625
3174.18631	24.0625
3176.5097	23.4625
3178.83169	24.9625
3181.15228	23.2625
3183.47147	22.8625
3185.78926	23.2625
3188.10565	27.3625
3190.42065	23.5625
3192.73424	24.6625
3195.04645	22.9625
3197.35725	24.7625
3199.66667	25.1625
3201.97469	25.2625
3204.28132	22.7625
3206.58656	25.1625
3208.8904	25.3625
3211.19287	26.1625
3213.49394	28.7625
3215.79363	28.1625
3218.09193	44.7625
3220.38884	180.5625
3222.68438	325.2625
3224.97853	176.2625
3227.2713	114.6625
3229.56269	86.4625
3231.8527	74.6625
3234.14133	66.1625
3236.42858	54.5625
3238.71446	40.9625
3240.99896	35.2625
3243.28209	30.9625
3245.56384	24.6625
3247.84423	30.0625
3250.12324	25.2625
3252.40088	24.6625
3254.67715	25.7625
3256.95205	23.0625
3259.22558	24.2625
3261.49775	25.5625
3263.76855	28.1625
3266.03799	28.6625
3268.30606	24.0625
3270.57277	25.2625
3272.83812	26.9625
3275.10211	23.1625
3277.36474	25.1625
3279.62601	22.0625
3281.88593	23.9625
3284.14448	23.3625
3286.40168	24.3625
3288.65753	27.8625
3290.91202	22.6625
3293.16516	24.7625
3295.41695	25.6625
3297.66738	25.4625
3299.91647	21.8625
3302.16421	27.3625
3304.4106	21.2625
3306.65564	26.5625
3308.89933	31.4625
3311.14169	78.3625
3313.38269	167.1625
3315.62236	110.0625
3317.86068	75.7625
3320.09766	63.8625
3322.3333	61.8625
3324.5676	163.4625
3326.80056	346.7625
3329.03219	230.7625
3331.26248	-0.9375
3333.49143	-1.0375
3335.71905	-2.0375
