Data from AgNPs_FTO_APTES_UA_2uM_CRN_10uM_R6G_10uM_NaF_0.1M_Addition_RamanShift__24__13-46-05-169.txt Node

Date: Wed Feb 02 13:46:05 GMT 2022
User: TCL
Spectrometer: QEP01345
Trigger mode: 4
Integration Time (sec): 7.000000E0
Scans to average: 10
Electric dark correction enabled: true
Nonlinearity correction enabled: false
Boxcar width: 0
XAxis mode: Raman Shifts
Number of Pixels in Spectrum: 1044
>>>>>Begin Spectral Data<<<<<
46.04893	0.0375
50.45542	0.4375
54.85868	-1.3625
59.25871	0.2375
63.6555	92.5375
68.04907	93.5375
72.43941	100.9375
76.82654	109.2375
81.21044	111.1375
85.59113	115.1375
89.96862	117.1375
94.34289	119.6375
98.71396	125.1375
103.08183	133.7375
107.4465	132.6375
111.80798	138.2375
116.16626	139.4375
120.52136	147.6375
124.87327	153.8375
129.222	162.3375
133.56755	174.0375
137.90993	185.8375
142.24913	206.3375
146.58517	234.3375
150.91804	272.2375
155.24774	330.7375
159.57429	407.6375
163.89768	526.0375
168.21792	699.5375
172.53501	966.5375
176.84895	1338.7375
181.15975	1876.6375
185.46741	2649.6375
189.77193	3640.9375
194.07331	4868.9375
198.37157	6278.4375
202.6667	7739.9375
206.9587	9196.7375
211.24758	10650.3375
215.53334	12111.5375
219.81599	13721.1375
224.09553	15481.8375
228.37195	17448.7375
232.64527	19648.4375
236.91549	21907.6375
241.18261	24032.6375
245.44663	26001.3375
249.70755	27648.2375
253.96539	29123.7375
258.22014	30410.8375
262.4718	31575.5375
266.72039	32462.3375
270.96589	33017.3375
275.20832	33191.5375
279.44768	33100.9375
283.68397	32921.3375
287.91719	32866.0375
292.14735	32954.7375
296.37445	33291.9375
300.59849	33632.0375
304.81948	34030.1375
309.03742	34142.4375
313.25231	33735.0375
317.46415	32487.7375
321.67296	30894.0375
325.87872	29496.5375
330.08145	28847.6375
334.28114	28777.9375
338.47781	29043.1375
342.67145	29512.4375
346.86207	30277.4375
351.04966	31236.6375
355.23424	32372.0375
359.4158	33286.8375
363.59435	33728.6375
367.76989	33962.6375
371.94243	34053.0375
376.11196	34091.8375
380.27849	34135.6375
384.44203	34114.8375
388.60257	34148.0375
392.76012	34330.0375
396.91468	34713.3375
401.06626	35412.5375
405.21485	35934.1375
409.36047	35634.1375
413.50311	34672.8375
417.64277	33777.7375
421.77947	33449.7375
425.9132	33414.7375
430.04396	33589.9375
434.17176	33788.2375
438.2966	34092.0375
442.41849	34766.3375
446.53742	35713.4375
450.6534	36764.8375
454.76644	37566.5375
458.87653	37912.5375
462.98368	37784.8375
467.08789	37366.8375
471.18916	36795.3375
475.2875	36202.2375
479.38291	35883.5375
483.4754	35505.5375
487.56496	34928.0375
491.6516	34377.5375
495.73531	33928.9375
499.81612	33670.2375
503.89401	33806.9375
507.96899	33994.2375
512.04106	33994.8375
516.11023	33950.8375
520.1765	33845.8375
524.23987	33577.8375
528.30034	33131.0375
532.35792	32674.0375
536.41261	32135.0375
540.46441	31712.8375
544.51333	31706.2375
548.55936	32157.6375
552.60252	33003.6375
556.64279	33965.8375
560.6802	34512.6375
564.71473	34988.6375
568.7464	35804.7375
572.7752	36727.8375
576.80114	36826.2375
580.82422	36747.5375
584.84444	36764.7375
588.86181	36852.8375
592.87633	37130.0375
596.888	37576.7375
600.89682	38300.3375
604.9028	40525.5375
608.90594	46414.3375
612.90624	53225.1375
616.90371	50365.6375
620.89834	39284.4375
624.89015	34240.0375
628.87913	33446.6375
632.86528	33561.4375
636.84862	33613.2375
640.82913	32962.1375
644.80683	31764.0375
648.78172	30915.9375
652.75379	30803.2375
656.72306	31508.2375
660.68952	32424.4375
664.65319	32346.4375
668.61405	31485.8375
672.57211	31061.7375
676.52738	31066.2375
680.47986	31047.7375
684.42955	30876.1375
688.37646	30821.6375
692.32058	30944.2375
696.26192	31239.2375
700.20048	31615.0375
704.13626	31950.3375
708.06928	31911.5375
711.99952	31620.5375
715.927	31451.3375
719.85171	31487.4375
723.77365	31360.2375
727.69284	30964.8375
731.60928	30693.9375
735.52295	30569.3375
739.43388	30618.3375
743.34206	30777.8375
747.24749	30971.7375
751.15017	31342.1375
755.05012	32058.3375
758.94733	33304.4375
762.8418	35776.0375
766.73354	39707.0375
770.62254	43732.3375
774.50882	45050.3375
778.39237	42567.9375
782.27321	38168.2375
786.15132	34382.2375
790.02671	32224.9375
793.89938	31157.9375
797.76935	30684.3375
801.6366	30566.0375
805.50115	30448.6375
809.36299	30233.7375
813.22213	30053.9375
817.07857	29980.3375
820.93231	29947.8375
824.78336	29945.0375
828.63172	29953.2375
832.47738	29975.4375
836.32036	29990.4375
840.16066	30039.4375
843.99827	30063.3375
847.8332	29942.9375
851.66546	29751.7375
855.49504	29664.1375
859.32195	29654.7375
863.1462	29515.0375
866.96777	29374.8375
870.78668	29276.6375
874.60293	29305.4375
878.41652	29302.7375
882.22745	29402.9375
886.03573	29523.1375
889.84136	29535.0375
893.64433	29366.8375
897.44466	29239.7375
901.24235	29184.7375
905.0374	29162.0375
908.8298	29047.7375
912.61957	29135.4375
916.40671	29413.8375
920.19121	29875.2375
923.97308	30260.1375
927.75233	30396.5375
931.52895	30372.6375
935.30295	29958.3375
939.07433	29203.0375
942.84309	28633.2375
946.60924	28338.9375
950.37278	28220.3375
954.13371	28117.5375
957.89203	27929.9375
961.64774	27867.6375
965.40086	27842.4375
969.15137	27748.4375
972.89929	27579.1375
976.64461	27497.1375
980.38733	27523.8375
984.12747	27611.0375
987.86502	27920.6375
991.59999	28279.6375
995.33237	28815.3375
999.06217	29780.8375
1002.78939	30925.3375
1006.51404	31745.0375
1010.23611	32281.6375
1013.95561	32683.9375
1017.67255	32681.8375
1021.38692	32312.2375
1025.09872	31963.2375
1028.80796	32099.8375
1032.51465	32859.1375
1036.21877	33638.8375
1039.92035	33718.1375
1043.61937	33268.9375
1047.31584	32489.0375
1051.00976	31639.9375
1054.70114	31169.2375
1058.38998	31082.2375
1062.07627	31310.0375
1065.76003	31593.8375
1069.44126	31891.4375
1073.11995	32178.9375
1076.79611	32489.9375
1080.46974	32700.5375
1084.14085	33063.0375
1087.80943	33632.1375
1091.47549	33933.8375
1095.13903	33728.0375
1098.80005	33055.7375
1102.45857	32263.9375
1106.11456	31634.9375
1109.76805	31521.5375
1113.41903	31790.6375
1117.06751	32291.5375
1120.71348	32983.4375
1124.35696	33654.0375
1127.99793	34361.1375
1131.63641	34516.3375
1135.2724	33935.5375
1138.90589	33276.5375
1142.5369	32885.8375
1146.16542	32688.7375
1149.79145	32717.6375
1153.415	33004.0375
1157.03607	33517.3375
1160.65467	34384.9375
1164.27079	35739.2375
1167.88443	37638.4375
1171.49561	40385.9375
1175.10432	44357.2375
1178.71056	49453.0375
1182.31434	53845.0375
1185.91565	56170.6375
1189.51451	56278.7375
1193.11091	54429.6375
1196.70485	51419.0375
1200.29634	48531.8375
1203.88538	46101.3375
1207.47197	44038.7375
1211.05612	42390.8375
1214.63782	41362.9375
1218.21708	40883.1375
1221.79391	40836.6375
1225.36829	40805.7375
1228.94024	40700.7375
1232.50976	40479.1375
1236.07685	40192.1375
1239.6415	39964.3375
1243.20374	39787.1375
1246.76355	39793.1375
1250.32093	40344.3375
1253.8759	41316.0375
1257.42845	42683.3375
1260.97859	44061.5375
1264.52631	45253.1375
1268.07163	46493.1375
1271.61453	47880.3375
1275.15503	49388.9375
1278.69312	50789.6375
1282.22882	51898.0375
1285.76211	53162.7375
1289.29301	54585.4375
1292.82151	56298.2375
1296.34761	58495.3375
1299.87133	61387.4375
1303.39266	65314.3375
1306.9116	70419.3375
1310.42815	76006.0375
1313.94233	79953.9375
1317.45412	80572.8375
1320.96354	78895.7375
1324.47058	76488.9375
1327.97525	74095.2375
1331.47754	72417.6375
1334.97747	71575.0375
1338.47502	71596.3375
1341.97022	71846.5375
1345.46305	71538.5375
1348.95352	70782.1375
1352.44163	70385.9375
1355.92738	71796.6375
1359.41078	76046.6375
1362.89183	80633.8375
1366.37053	79432.4375
1369.84688	71577.0375
1373.32088	62713.2375
1376.79254	56923.0375
1380.26186	54341.1375
1383.72883	53434.9375
1387.19347	52880.1375
1390.65578	52366.1375
1394.11575	52253.3375
1397.57339	52779.4375
1401.0287	53945.7375
1404.48168	55241.9375
1407.93234	56103.2375
1411.38068	56073.1375
1414.82669	54938.2375
1418.27039	52878.0375
1421.71177	50490.7375
1425.15083	48410.7375
1428.58758	47205.4375
1432.02203	46959.2375
1435.45416	47404.9375
1438.88399	48198.1375
1442.31151	48940.7375
1445.73673	49591.6375
1449.15965	50349.5375
1452.58027	50969.9375
1455.9986	51260.7375
1459.41463	51607.4375
1462.82837	52358.2375
1466.23982	53278.3375
1469.64898	54294.1375
1473.05586	54801.7375
1476.46045	54874.7375
1479.86276	54806.1375
1483.26279	54742.7375
1486.66054	54717.8375
1490.05602	55277.7375
1493.44922	56080.2375
1496.84016	57073.6375
1500.22882	58853.7375
1503.61521	61450.6375
1506.99934	64916.3375
1510.38121	68456.2375
1513.76081	70410.0375
1517.13816	69057.2375
1520.51324	64926.9375
1523.88607	60531.5375
1527.25665	57474.8375
1530.62498	55577.2375
1533.99105	54542.4375
1537.35488	53751.2375
1540.71647	53106.6375
1544.07581	52410.8375
1547.4329	51637.0375
1550.78776	50985.0375
1554.14038	50551.6375
1557.49077	50598.1375
1560.83892	50837.4375
1564.18484	51166.2375
1567.52853	51320.0375
1570.86999	51406.0375
1574.20922	51771.9375
1577.54624	51957.4375
1580.88103	51514.9375
1584.2136	51150.1375
1587.54395	51946.7375
1590.87208	54242.1375
1594.19801	57688.7375
1597.52172	61219.2375
1600.84321	62436.2375
1604.16251	60016.5375
1607.47959	55541.9375
1610.79447	50713.8375
1614.10715	46227.9375
1617.41763	42489.5375
1620.7259	39953.9375
1624.03199	38654.2375
1627.33587	38665.4375
1630.63757	39769.4375
1633.93707	42241.9375
1637.23439	46067.0375
1640.52951	50939.2375
1643.82246	56362.3375
1647.11321	60588.7375
1650.40179	62007.9375
1653.68819	58963.1375
1656.97241	51897.6375
1660.25446	44189.0375
1663.53433	38350.9375
1666.81203	34514.3375
1670.08756	32133.4375
1673.36092	30660.7375
1676.63211	29715.5375
1679.90115	29045.0375
1683.16801	28521.7375
1686.43272	28171.1375
1689.69527	27871.5375
1692.95567	27680.4375
1696.2139	27559.1375
1699.46999	27497.8375
1702.72392	27401.9375
1705.97571	27282.2375
1709.22535	27179.3375
1712.47284	27169.4375
1715.71819	27144.0375
1718.96139	27095.9375
1722.20246	26988.2375
1725.44139	26863.8375
1728.67818	26726.1375
1731.91284	26532.5375
1735.14537	26390.1375
1738.37576	26331.5375
1741.60403	26224.1375
1744.83017	26129.0375
1748.05418	26070.5375
1751.27607	26034.7375
1754.49584	25982.3375
1757.71349	25970.4375
1760.92903	25973.1375
1764.14244	25906.0375
1767.35375	25862.2375
1770.56294	25840.9375
1773.77002	25775.0375
1776.97499	25736.2375
1780.17785	25634.7375
1783.37861	25620.3375
1786.57727	25572.7375
1789.77382	25518.8375
1792.96828	25469.5375
1796.16064	25512.6375
1799.3509	25491.0375
1802.53907	25408.5375
1805.72514	25384.8375
1808.90913	25266.5375
1812.09102	25229.3375
1815.27083	25208.1375
1818.44856	25221.0375
1821.6242	25138.4375
1824.79776	25128.8375
1827.96924	25121.4375
1831.13864	25090.9375
1834.30597	25150.9375
1837.47122	25110.2375
1840.6344	25078.3375
1843.7955	25117.3375
1846.95454	25139.7375
1850.11151	25173.0375
1853.26642	25165.5375
1856.41926	25200.2375
1859.57004	25211.2375
1862.71876	25200.0375
1865.86542	25265.4375
1869.01003	25200.3375
1872.15258	25229.9375
1875.29308	25260.5375
1878.43152	25281.4375
1881.56792	25278.1375
1884.70227	25319.0375
1887.83457	25356.0375
1890.96482	25415.9375
1894.09304	25408.2375
1897.21921	25417.9375
1900.34335	25443.2375
1903.46544	25417.2375
1906.58551	25403.6375
1909.70353	25379.3375
1912.81953	25378.7375
1915.93349	25357.8375
1919.04543	25348.6375
1922.15534	25304.7375
1925.26322	25195.1375
1928.36908	25118.1375
1931.47292	24996.1375
1934.57473	24854.4375
1937.67453	24759.0375
1940.77232	24643.9375
1943.86808	24490.7375
1946.96184	24448.4375
1950.05358	24267.4375
1953.14331	24209.5375
1956.23103	24060.7375
1959.31675	23973.6375
1962.40046	23951.2375
1965.48217	23825.4375
1968.56188	23764.7375
1971.63959	23708.2375
1974.7153	23673.8375
1977.78901	23584.1375
1980.86073	23458.1375
1983.93046	23404.4375
1986.99819	23314.2375
1990.06394	23262.5375
1993.1277	23198.1375
1996.18947	23108.8375
1999.24925	23045.9375
2002.30706	22963.3375
2005.36288	22881.1375
2008.41672	22798.6375
2011.46859	22807.0375
2014.51848	22724.9375
2017.56639	22667.9375
2020.61233	22620.9375
2023.6563	22599.5375
2026.6983	22571.1375
2029.73833	22479.8375
2032.7764	22418.5375
2035.8125	22418.9375
2038.84664	22351.2375
2041.87881	22360.9375
2044.90903	22333.0375
2047.93729	22258.7375
2050.96359	22262.0375
2053.98794	22250.5375
2057.01034	22229.4375
2060.03078	22198.0375
2063.04927	22154.1375
2066.06582	22146.6375
2069.08042	22122.7375
2072.09307	22085.8375
2075.10378	22116.1375
2078.11255	22042.3375
2081.11938	22020.4375
2084.12426	22020.2375
2087.12722	22000.4375
2090.12824	22014.6375
2093.12732	22003.7375
2096.12447	22019.0375
2099.11969	22027.5375
2102.11299	22015.7375
2105.10435	22013.1375
2108.09379	21998.0375
2111.08131	22025.1375
2114.0669	22010.5375
2117.05057	22023.5375
2120.03233	22059.0375
2123.01216	22089.4375
2125.99008	22117.4375
2128.96609	22077.2375
2131.94018	22113.7375
2134.91236	22135.0375
2137.88263	22153.6375
2140.851	22188.0375
2143.81746	22211.8375
2146.78201	22188.3375
2149.74466	22200.5375
2152.7054	22212.1375
2155.66425	22208.1375
2158.6212	22168.8375
2161.57625	22141.8375
2164.52941	22168.7375
2167.48067	22144.8375
2170.43004	22104.6375
2173.37752	22116.8375
2176.32311	22122.6375
2179.26681	22170.7375
2182.20863	22100.3375
2185.14856	22162.5375
2188.08661	22152.7375
2191.02278	22179.2375
2193.95707	22143.9375
2196.88948	22138.4375
2199.82001	22127.3375
2202.74867	22116.1375
2205.67545	22145.8375
2208.60037	22094.3375
2211.52341	22068.0375
2214.44458	22105.5375
2217.36388	22065.7375
2220.28132	22016.8375
2223.1969	21951.5375
2226.11061	21954.8375
2229.02246	21922.0375
2231.93245	21855.1375
2234.84058	21821.5375
2237.74686	21763.6375
2240.65128	21747.2375
2243.55385	21671.9375
2246.45456	21676.3375
2249.35343	21678.6375
2252.25044	21652.0375
2255.14561	21617.4375
2258.03893	21609.3375
2260.93041	21553.1375
2263.82004	21499.0375
2266.70783	21433.5375
2269.59378	21395.0375
2272.4779	21312.3375
2275.36017	21315.1375
2278.24061	21278.8375
2281.11922	21248.4375
2283.996	21175.2375
2286.87094	21158.1375
2289.74405	21155.5375
2292.61534	21154.7375
2295.4848	21108.3375
2298.35243	21123.1375
2301.21824	21103.5375
2304.08223	21156.0375
2306.94439	21119.0375
2309.80474	21129.7375
2312.66327	21159.3375
2315.51999	21158.5375
2318.37489	21161.0375
2321.22797	21113.1375
2324.07925	21107.9375
2326.92871	21102.6375
2329.77637	21090.9375
2332.62222	21087.8375
2335.46626	21090.7375
2338.3085	21077.8375
2341.14893	21099.5375
2343.98756	21136.7375
2346.8244	21109.0375
2349.65943	21132.0375
2352.49267	21153.3375
2355.32411	21115.1375
2358.15376	21138.4375
2360.98161	21125.0375
2363.80768	21095.7375
2366.63195	21049.4375
2369.45444	21019.5375
2372.27514	21003.5375
2375.09405	20953.5375
2377.91118	20920.0375
2380.72652	20849.1375
2383.54009	20816.8375
2386.35187	20778.7375
2389.16188	20720.6375
2391.97011	20701.8375
2394.77657	20636.7375
2397.58125	20649.5375
2400.38416	20615.0375
2403.18529	20573.5375
2405.98466	20535.9375
2408.78226	20500.2375
2411.57809	20410.2375
2414.37216	20397.2375
2417.16446	20402.3375
2419.955	20368.8375
2422.74378	20365.7375
2425.5308	20389.0375
2428.31606	20365.1375
2431.09956	20308.8375
2433.88131	20334.5375
2436.6613	20315.1375
2439.43954	20318.7375
2442.21603	20246.3375
2444.99077	20265.3375
2447.76377	20253.6375
2450.53501	20246.9375
2453.30451	20236.2375
2456.07226	20218.8375
2458.83827	20277.6375
2461.60254	20283.8375
2464.36507	20257.4375
2467.12586	20250.5375
2469.88492	20236.2375
2472.64224	20253.2375
2475.39782	20254.8375
2478.15167	20293.8375
2480.90379	20272.2375
2483.65417	20301.1375
2486.40283	20335.6375
2489.14976	20345.6375
2491.89497	20368.0375
2494.63845	20453.6375
2497.3802	20395.1375
2500.12024	20378.4375
2502.85855	20375.3375
2505.59514	20384.7375
2508.33002	20360.7375
2511.06318	20348.0375
2513.79462	20284.6375
2516.52435	20242.8375
2519.25237	20270.1375
2521.97867	20233.7375
2524.70327	20235.5375
2527.42616	20214.1375
2530.14734	20170.9375
2532.86681	20164.3375
2535.58458	20134.4375
2538.30065	20121.3375
2541.01501	20120.8375
2543.72768	20076.9375
2546.43864	20075.7375
2549.14791	20060.3375
2551.85548	20060.8375
2554.56136	20079.5375
2557.26554	20067.7375
2559.96803	20008.2375
2562.66883	19988.6375
2565.36794	19981.8375
2568.06536	19979.7375
2570.7611	19951.0375
2573.45514	19881.8375
2576.14751	19945.6375
2578.83819	19933.0375
2581.52719	19915.6375
2584.21451	19923.0375
2586.90015	19911.4375
2589.58411	19890.5375
2592.2664	19919.2375
2594.94701	19900.9375
2597.62594	19918.9375
2600.30321	19874.6375
2602.9788	19888.1375
2605.65273	19845.2375
2608.32498	19862.2375
2610.99557	19856.7375
2613.66449	19875.7375
2616.33175	19881.9375
2618.99734	19886.4375
2621.66128	19877.0375
2624.32355	19889.2375
2626.98416	19894.3375
2629.64311	19935.9375
2632.30041	19904.4375
2634.95605	19903.3375
2637.61004	19888.7375
2640.26238	19830.7375
2642.91306	19808.4375
2645.56209	19801.1375
2648.20948	19758.7375
2650.85521	19778.5375
2653.4993	19745.7375
2656.14175	19787.6375
2658.78255	19789.2375
2661.42171	19764.6375
2664.05923	19840.4375
2666.6951	19835.6375
2669.32934	19862.0375
2671.96194	19847.5375
2674.59291	19840.8375
2677.22224	19846.4375
2679.84993	19850.4375
2682.476	19835.6375
2685.10043	19867.0375
2687.72324	19856.4375
2690.34441	19849.0375
2692.96396	19772.5375
2695.58188	19813.6375
2698.19818	19806.4375
2700.81285	19798.7375
2703.4259	19800.4375
2706.03733	19835.1375
2708.64714	19841.3375
2711.25533	19851.3375
2713.86191	19814.5375
2716.46687	19812.2375
2719.07021	19816.1375
2721.67194	19864.2375
2724.27206	19817.9375
2726.87057	19854.1375
2729.46747	19841.7375
2732.06276	19851.2375
2734.65644	19803.5375
2737.24852	19815.6375
2739.83899	19823.3375
2742.42786	19827.5375
2745.01513	19806.4375
2747.60079	19797.2375
2750.18486	19790.2375
2752.76733	19827.5375
2755.3482	19836.4375
2757.92747	19833.1375
2760.50515	19814.4375
2763.08123	19831.9375
2765.65573	19767.9375
2768.22863	19781.3375
2770.79994	19751.0375
2773.36967	19764.5375
2775.9378	19763.1375
2778.50435	19734.4375
2781.06932	19727.1375
2783.6327	19751.6375
2786.1945	19721.8375
2788.75471	19717.4375
2791.31335	19644.7375
2793.87041	19625.6375
2796.42589	19537.1375
2798.97979	19588.2375
2801.53212	19557.0375
2804.08288	19525.7375
2806.63206	19478.1375
2809.17967	19492.5375
2811.72571	19434.2375
2814.27018	19403.7375
2816.81308	19411.1375
2819.35442	19393.9375
2821.89419	19344.8375
2824.43239	19405.8375
2826.96904	19411.6375
2829.50412	19385.7375
2832.03763	19349.4375
2834.56959	19319.1375
2837.1	19326.3375
2839.62884	19327.8375
2842.15613	19327.0375
2844.68186	19323.7375
2847.20604	19347.5375
2849.72867	19381.6375
2852.24974	19381.3375
2854.76927	19366.9375
2857.28724	19355.2375
2859.80367	19337.8375
2862.31855	19306.2375
2864.83189	19268.7375
2867.34368	19272.7375
2869.85393	19273.4375
2872.36264	19240.6375
2874.8698	19274.7375
2877.37543	19228.6375
2879.87952	19231.1375
2882.38207	19255.1375
2884.88308	19237.1375
2887.38256	19272.1375
2889.88051	19268.6375
2892.37692	19297.7375
2894.8718	19285.3375
2897.36515	19295.7375
2899.85698	19297.7375
2902.34727	19306.5375
2904.83604	19340.3375
2907.32328	19377.7375
2909.809	19351.7375
2912.29319	19345.3375
2914.77587	19286.5375
2917.25702	19297.7375
2919.73665	19293.7375
2922.21476	19328.5375
2924.69136	19356.2375
2927.16644	19310.1375
2929.64	19277.7375
2932.11205	19265.0375
2934.58258	19208.6375
2937.05161	19209.4375
2939.51912	19228.4375
2941.98513	19163.2375
2944.44962	19129.5375
2946.91261	19060.6375
2949.37409	19044.0375
2951.83407	19023.7375
2954.29254	19005.0375
2956.74951	19015.5375
2959.20498	18964.7375
2961.65895	18918.2375
2964.11142	18937.3375
2966.56239	18843.5375
2969.01186	18859.6375
2971.45984	18808.6375
2973.90632	18748.1375
2976.35131	18694.1375
2978.7948	18641.4375
2981.23681	18611.1375
2983.67732	18616.2375
2986.11635	18512.5375
2988.55388	18509.4375
2990.98993	18470.7375
2993.4245	18403.0375
2995.85758	18380.8375
2998.28917	18341.6375
3000.71928	18311.8375
3003.14791	18284.9375
3005.57506	18264.3375
3008.00073	18191.0375
3010.42493	18191.6375
3012.84764	18140.9375
3015.26888	18154.0375
3017.68865	18081.7375
3020.10694	18055.9375
3022.52376	18016.3375
3024.9391	17991.5375
3027.35298	17931.3375
3029.76539	17934.8375
3032.17632	17873.7375
3034.5858	17873.2375
3036.9938	17879.3375
3039.40034	17822.9375
3041.80542	17832.6375
3044.20903	17785.4375
3046.61118	17793.8375
3049.01187	17742.9375
3051.4111	17713.4375
3053.80888	17671.7375
3056.20519	17647.8375
3058.60005	17593.1375
3060.99345	17548.9375
3063.3854	17514.6375
3065.7759	17464.4375
3068.16494	17414.9375
3070.55254	17337.6375
3072.93868	17303.6375
3075.32338	17277.6375
3077.70662	17240.5375
3080.08842	17173.4375
3082.46878	17192.7375
3084.84769	17123.8375
3087.22515	17133.8375
3089.60118	17123.5375
3091.97576	17044.4375
3094.3489	17025.1375
3096.72061	17007.4375
3099.09087	17056.0375
3101.4597	17013.5375
3103.82709	16988.2375
3106.19305	16994.3375
3108.55757	16971.4375
3110.92066	16890.0375
3113.28232	16878.2375
3115.64255	16811.8375
3118.00134	16780.2375
3120.35871	16746.4375
3122.71466	16710.9375
3125.06917	16693.9375
3127.42226	16666.8375
3129.77393	16662.0375
3132.12417	16623.4375
3134.47299	16663.2375
3136.82039	16611.8375
3139.16636	16608.7375
3141.51092	16596.5375
3143.85406	16617.7375
3146.19579	16597.8375
3148.53609	16604.1375
3150.87499	16596.5375
3153.21246	16591.2375
3155.54853	16593.5375
3157.88318	16585.7375
3160.21642	16616.5375
3162.54826	16558.3375
3164.87868	16552.2375
3167.2077	16538.8375
3169.5353	16500.1375
3171.86151	16498.9375
3174.18631	16472.8375
3176.5097	16456.5375
3178.83169	16461.4375
3181.15228	16477.1375
3183.47147	16445.7375
3185.78926	16441.4375
3188.10565	16457.8375
3190.42065	16455.9375
3192.73424	16428.9375
3195.04645	16398.1375
3197.35725	16405.3375
3199.66667	16401.2375
3201.97469	16407.3375
3204.28132	16385.2375
3206.58656	16392.0375
3208.8904	16392.8375
3211.19287	16435.2375
3213.49394	16453.8375
3215.79363	16415.5375
3218.09193	16410.8375
3220.38884	16383.5375
3222.68438	16408.0375
3224.97853	16368.4375
3227.2713	16375.3375
3229.56269	16327.6375
3231.8527	16305.6375
3234.14133	16254.6375
3236.42858	16258.1375
3238.71446	16242.4375
3240.99896	16232.9375
3243.28209	16240.3375
3245.56384	16197.0375
3247.84423	16199.4375
3250.12324	16158.4375
3252.40088	16170.1375
3254.67715	16149.2375
3256.95205	16126.3375
3259.22558	16139.0375
3261.49775	16086.9375
3263.76855	16036.6375
3266.03799	15988.8375
3268.30606	15987.9375
3270.57277	15977.7375
3272.83812	15941.2375
3275.10211	15940.1375
3277.36474	15886.9375
3279.62601	15912.7375
3281.88593	15851.0375
3284.14448	15880.0375
3286.40168	15862.6375
3288.65753	15870.2375
3290.91202	15826.7375
3293.16516	15756.3375
3295.41695	15756.5375
3297.66738	15658.6375
3299.91647	15581.7375
3302.16421	15509.7375
3304.4106	15466.3375
3306.65564	15375.8375
3308.89933	15280.3375
3311.14169	15146.0375
3313.38269	15084.7375
3315.62236	14965.7375
3317.86068	14857.4375
3320.09766	14701.6375
3322.3333	14577.9375
3324.5676	14559.1375
3326.80056	14320.9375
3329.03219	14257.4375
3331.26248	3.5375
3333.49143	-0.7625
3335.71905	-1.2625
