Data from AgNPs_FTO_APTES_UA_2uM_CRN_10uM_R6G_10uM_NaF_0.1M_Addition_RamanShift__21__13-42-35-165.txt Node

Date: Wed Feb 02 13:42:35 GMT 2022
User: TCL
Spectrometer: QEP01345
Trigger mode: 4
Integration Time (sec): 7.000000E0
Scans to average: 10
Electric dark correction enabled: true
Nonlinearity correction enabled: false
Boxcar width: 0
XAxis mode: Raman Shifts
Number of Pixels in Spectrum: 1044
>>>>>Begin Spectral Data<<<<<
46.04893	0.3375
50.45542	-0.0625
54.85868	-1.0625
59.25871	-0.1625
63.6555	93.1375
68.04907	97.3375
72.43941	100.9375
76.82654	105.0375
81.21044	111.8375
85.59113	114.3375
89.96862	117.3375
94.34289	122.4375
98.71396	126.7375
103.08183	134.5375
107.4465	133.6375
111.80798	136.5375
116.16626	142.3375
120.52136	148.6375
124.87327	153.6375
129.222	163.2375
133.56755	173.7375
137.90993	189.9375
142.24913	208.2375
146.58517	235.7375
150.91804	279.5375
155.24774	336.2375
159.57429	415.2375
163.89768	536.5375
168.21792	709.9375
172.53501	984.3375
176.84895	1370.6375
181.15975	1923.7375
185.46741	2697.2375
189.77193	3718.3375
194.07331	4989.0375
198.37157	6412.8375
202.6667	7911.9375
206.9587	9398.8375
211.24758	10869.3375
215.53334	12347.8375
219.81599	13919.7375
224.09553	15691.4375
228.37195	17650.2375
232.64527	19832.2375
236.91549	22095.4375
241.18261	24338.1375
245.44663	26328.6375
249.70755	28122.5375
253.96539	29672.1375
258.22014	31065.2375
262.4718	32196.9375
266.72039	33110.7375
270.96589	33651.8375
275.20832	33842.2375
279.44768	33710.2375
283.68397	33595.8375
287.91719	33499.1375
292.14735	33563.8375
296.37445	33723.9375
300.59849	33972.3375
304.81948	34176.6375
309.03742	34128.8375
313.25231	33526.6375
317.46415	32431.0375
321.67296	31056.6375
325.87872	29895.5375
330.08145	29377.0375
334.28114	29263.1375
338.47781	29520.5375
342.67145	29889.8375
346.86207	30543.8375
351.04966	31359.1375
355.23424	32252.9375
359.4158	33003.1375
363.59435	33366.8375
367.76989	33630.9375
371.94243	33851.7375
376.11196	33928.6375
380.27849	34057.0375
384.44203	34176.5375
388.60257	34323.5375
392.76012	34600.6375
396.91468	35081.7375
401.06626	35699.4375
405.21485	36125.8375
409.36047	35896.2375
413.50311	35099.1375
417.64277	34429.9375
421.77947	34234.1375
425.9132	34287.5375
430.04396	34489.1375
434.17176	34730.3375
438.2966	35008.0375
442.41849	35577.1375
446.53742	36572.2375
450.6534	37610.0375
454.76644	38495.2375
458.87653	38854.4375
462.98368	38767.4375
467.08789	38450.6375
471.18916	37884.3375
475.2875	37388.8375
479.38291	37146.4375
483.4754	36871.4375
487.56496	36296.2375
491.6516	35673.4375
495.73531	35087.5375
499.81612	34803.7375
503.89401	34856.9375
507.96899	34948.1375
512.04106	34884.6375
516.11023	34764.1375
520.1765	34511.1375
524.23987	34201.6375
528.30034	33785.9375
532.35792	33384.0375
536.41261	32872.3375
540.46441	32485.2375
544.51333	32520.9375
548.55936	33076.2375
552.60252	33978.9375
556.64279	34910.9375
560.6802	35443.4375
564.71473	35833.5375
568.7464	36522.5375
572.7752	37361.5375
576.80114	37811.7375
580.82422	37952.7375
584.84444	38169.9375
588.86181	38395.0375
592.87633	38757.1375
596.888	39254.3375
600.89682	39696.0375
604.9028	41579.4375
608.90594	46315.7375
612.90624	51483.2375
616.90371	48406.8375
620.89834	39028.7375
624.89015	34802.6375
628.87913	34256.9375
632.86528	34351.8375
636.84862	34275.9375
640.82913	33627.5375
644.80683	32500.3375
648.78172	31654.5375
652.75379	31470.5375
656.72306	31948.9375
660.68952	32753.2375
664.65319	32634.4375
668.61405	31953.9375
672.57211	31585.3375
676.52738	31650.9375
680.47986	31637.3375
684.42955	31492.9375
688.37646	31393.7375
692.32058	31544.5375
696.26192	31868.8375
700.20048	32262.4375
704.13626	32508.6375
708.06928	32474.0375
711.99952	32154.5375
715.927	32040.1375
719.85171	32054.1375
723.77365	31937.9375
727.69284	31568.8375
731.60928	31271.3375
735.52295	31131.9375
739.43388	31186.6375
743.34206	31333.7375
747.24749	31505.2375
751.15017	31880.8375
755.05012	32554.0375
758.94733	33774.0375
762.8418	35941.2375
766.73354	39398.3375
770.62254	42766.9375
774.50882	43791.0375
778.39237	41421.1375
782.27321	37545.5375
786.15132	34374.0375
790.02671	32561.0375
793.89938	31590.9375
797.76935	31271.6375
801.6366	31159.4375
805.50115	31024.4375
809.36299	30817.7375
813.22213	30603.8375
817.07857	30515.2375
820.93231	30481.8375
824.78336	30378.1375
828.63172	30346.9375
832.47738	30329.9375
836.32036	30334.6375
840.16066	30431.2375
843.99827	30526.1375
847.8332	30441.1375
851.66546	30260.3375
855.49504	30149.2375
859.32195	30055.5375
863.1462	29920.8375
866.96777	29803.9375
870.78668	29707.1375
874.60293	29663.0375
878.41652	29723.7375
882.22745	29818.1375
886.03573	29878.0375
889.84136	29892.5375
893.64433	29722.6375
897.44466	29578.4375
901.24235	29513.0375
905.0374	29400.1375
908.8298	29387.9375
912.61957	29500.6375
916.40671	29777.1375
920.19121	30241.9375
923.97308	30656.3375
927.75233	30779.4375
931.52895	30726.6375
935.30295	30258.3375
939.07433	29592.7375
942.84309	29014.1375
946.60924	28756.4375
950.37278	28642.7375
954.13371	28496.4375
957.89203	28348.9375
961.64774	28302.8375
965.40086	28221.8375
969.15137	28166.6375
972.89929	28015.9375
976.64461	27882.7375
980.38733	27886.4375
984.12747	28044.0375
987.86502	28300.3375
991.59999	28776.0375
995.33237	29380.7375
999.06217	30417.8375
1002.78939	31653.1375
1006.51404	32441.9375
1010.23611	32873.8375
1013.95561	33186.3375
1017.67255	33211.0375
1021.38692	32815.3375
1025.09872	32521.8375
1028.80796	32769.2375
1032.51465	33765.0375
1036.21877	34749.4375
1039.92035	34891.9375
1043.61937	34395.2375
1047.31584	33361.0375
1051.00976	32242.6375
1054.70114	31694.8375
1058.38998	31629.1375
1062.07627	31849.6375
1065.76003	32054.4375
1069.44126	32310.1375
1073.11995	32687.6375
1076.79611	33030.8375
1080.46974	33200.9375
1084.14085	33523.1375
1087.80943	33972.5375
1091.47549	34273.7375
1095.13903	34195.5375
1098.80005	33654.4375
1102.45857	32823.1375
1106.11456	32218.2375
1109.76805	32067.4375
1113.41903	32247.9375
1117.06751	32651.0375
1120.71348	33153.6375
1124.35696	33699.0375
1127.99793	34205.4375
1131.63641	34425.3375
1135.2724	34077.4375
1138.90589	33633.8375
1142.5369	33370.3375
1146.16542	33330.5375
1149.79145	33415.0375
1153.415	33771.3375
1157.03607	34359.9375
1160.65467	35291.6375
1164.27079	36750.2375
1167.88443	38823.8375
1171.49561	41589.4375
1175.10432	45459.2375
1178.71056	50335.1375
1182.31434	54756.3375
1185.91565	57362.5375
1189.51451	57673.0375
1193.11091	55931.4375
1196.70485	53119.9375
1200.29634	50235.0375
1203.88538	47770.2375
1207.47197	45915.4375
1211.05612	44466.4375
1214.63782	43493.8375
1218.21708	42960.0375
1221.79391	42663.4375
1225.36829	42546.4375
1228.94024	42188.3375
1232.50976	41778.6375
1236.07685	41311.9375
1239.6415	41030.3375
1243.20374	40848.3375
1246.76355	40978.8375
1250.32093	41606.4375
1253.8759	42616.6375
1257.42845	44050.4375
1260.97859	45431.7375
1264.52631	46790.5375
1268.07163	48072.9375
1271.61453	49597.7375
1275.15503	51311.7375
1278.69312	53033.3375
1282.22882	54346.8375
1285.76211	55650.9375
1289.29301	57089.9375
1292.82151	58996.9375
1296.34761	61456.2375
1299.87133	64794.0375
1303.39266	68899.7375
1306.9116	73882.2375
1310.42815	78891.7375
1313.94233	82447.7375
1317.45412	82962.6375
1320.96354	81557.4375
1324.47058	79695.4375
1327.97525	77836.8375
1331.47754	76419.7375
1334.97747	75844.0375
1338.47502	75845.6375
1341.97022	75930.4375
1345.46305	75219.4375
1348.95352	73852.9375
1352.44163	72533.8375
1355.92738	73082.7375
1359.41078	76061.5375
1362.89183	79566.6375
1366.37053	78298.8375
1369.84688	71419.9375
1373.32088	63540.4375
1376.79254	58065.7375
1380.26186	55727.0375
1383.72883	55202.7375
1387.19347	54978.0375
1390.65578	54508.7375
1394.11575	54676.3375
1397.57339	55424.9375
1401.0287	56752.7375
1404.48168	58082.4375
1407.93234	58868.9375
1411.38068	58546.2375
1414.82669	57123.0375
1418.27039	54773.0375
1421.71177	52135.8375
1425.15083	49933.1375
1428.58758	48605.6375
1432.02203	48369.4375
1435.45416	48974.5375
1438.88399	50040.2375
1442.31151	51035.6375
1445.73673	51882.6375
1449.15965	52837.3375
1452.58027	53611.2375
1455.9986	53996.9375
1459.41463	54519.0375
1462.82837	55340.5375
1466.23982	56374.6375
1469.64898	57349.3375
1473.05586	57850.9375
1476.46045	57729.7375
1479.86276	57452.4375
1483.26279	57023.6375
1486.66054	56799.2375
1490.05602	57025.2375
1493.44922	57580.2375
1496.84016	58218.8375
1500.22882	59413.8375
1503.61521	61415.6375
1506.99934	64035.9375
1510.38121	66763.0375
1513.76081	68049.2375
1517.13816	66712.6375
1520.51324	63535.0375
1523.88607	60256.9375
1527.25665	57980.4375
1530.62498	56789.5375
1533.99105	56025.1375
1537.35488	55548.4375
1540.71647	54991.2375
1544.07581	54200.1375
1547.4329	53285.3375
1550.78776	52474.7375
1554.14038	51989.7375
1557.49077	51841.9375
1560.83892	51917.2375
1564.18484	51991.8375
1567.52853	51994.6375
1570.86999	51999.1375
1574.20922	52392.7375
1577.54624	52854.0375
1580.88103	52914.3375
1584.2136	53085.1375
1587.54395	54304.3375
1590.87208	56941.4375
1594.19801	60561.3375
1597.52172	64121.6375
1600.84321	65291.5375
1604.16251	62604.5375
1607.47959	57715.1375
1610.79447	52526.6375
1614.10715	47699.0375
1617.41763	43693.9375
1620.7259	40913.3375
1624.03199	39520.7375
1627.33587	39473.9375
1630.63757	40749.1375
1633.93707	43378.9375
1637.23439	47571.2375
1640.52951	52971.0375
1643.82246	58600.3375
1647.11321	62805.5375
1650.40179	63644.8375
1653.68819	59790.5375
1656.97241	52485.2375
1660.25446	44744.8375
1663.53433	38792.1375
1666.81203	34883.7375
1670.08756	32421.4375
1673.36092	30817.7375
1676.63211	29833.2375
1679.90115	29123.7375
1683.16801	28571.4375
1686.43272	28200.2375
1689.69527	27893.9375
1692.95567	27708.7375
1696.2139	27518.5375
1699.46999	27451.6375
1702.72392	27336.5375
1705.97571	27230.4375
1709.22535	27170.5375
1712.47284	27083.8375
1715.71819	27013.5375
1718.96139	26936.3375
1722.20246	26849.0375
1725.44139	26718.9375
1728.67818	26591.3375
1731.91284	26413.9375
1735.14537	26245.5375
1738.37576	26118.3375
1741.60403	26061.8375
1744.83017	25976.8375
1748.05418	25905.1375
1751.27607	25894.1375
1754.49584	25838.4375
1757.71349	25821.8375
1760.92903	25757.1375
1764.14244	25710.1375
1767.35375	25696.5375
1770.56294	25675.4375
1773.77002	25624.3375
1776.97499	25585.3375
1780.17785	25480.4375
1783.37861	25425.0375
1786.57727	25425.3375
1789.77382	25301.0375
1792.96828	25308.0375
1796.16064	25299.9375
1799.3509	25262.1375
1802.53907	25201.7375
1805.72514	25138.2375
1808.90913	25102.3375
1812.09102	25048.4375
1815.27083	25028.0375
1818.44856	24978.3375
1821.6242	24923.2375
1824.79776	24939.7375
1827.96924	24905.1375
1831.13864	24899.3375
1834.30597	24921.4375
1837.47122	24912.1375
1840.6344	24906.4375
1843.7955	24969.8375
1846.95454	24964.0375
1850.11151	24970.3375
1853.26642	24998.2375
1856.41926	25020.7375
1859.57004	24998.4375
1862.71876	24979.3375
1865.86542	25021.5375
1869.01003	25053.9375
1872.15258	25025.8375
1875.29308	25073.0375
1878.43152	25052.1375
1881.56792	25039.4375
1884.70227	25067.8375
1887.83457	25086.3375
1890.96482	25123.3375
1894.09304	25132.4375
1897.21921	25146.0375
1900.34335	25129.7375
1903.46544	25076.0375
1906.58551	25126.4375
1909.70353	25092.0375
1912.81953	25062.5375
1915.93349	25031.6375
1919.04543	24941.5375
1922.15534	24946.3375
1925.26322	24823.4375
1928.36908	24741.3375
1931.47292	24629.3375
1934.57473	24483.1375
1937.67453	24413.5375
1940.77232	24279.0375
1943.86808	24174.8375
1946.96184	24075.8375
1950.05358	23987.8375
1953.14331	23872.3375
1956.23103	23801.2375
1959.31675	23700.3375
1962.40046	23663.8375
1965.48217	23575.2375
1968.56188	23489.9375
1971.63959	23409.9375
1974.7153	23362.9375
1977.78901	23246.5375
1980.86073	23192.5375
1983.93046	23138.9375
1986.99819	23046.1375
1990.06394	22991.4375
1993.1277	22885.1375
1996.18947	22816.0375
1999.24925	22760.0375
2002.30706	22642.7375
2005.36288	22618.3375
2008.41672	22577.2375
2011.46859	22475.3375
2014.51848	22438.5375
2017.56639	22400.4375
2020.61233	22338.4375
2023.6563	22327.8375
2026.6983	22276.2375
2029.73833	22232.9375
2032.7764	22189.0375
2035.8125	22135.9375
2038.84664	22124.7375
2041.87881	22106.5375
2044.90903	22034.8375
2047.93729	22011.1375
2050.96359	22006.8375
2053.98794	22004.5375
2057.01034	21953.3375
2060.03078	21945.7375
2063.04927	21914.4375
2066.06582	21939.9375
2069.08042	21900.7375
2072.09307	21870.7375
2075.10378	21813.0375
2078.11255	21761.3375
2081.11938	21752.6375
2084.12426	21748.5375
2087.12722	21714.2375
2090.12824	21694.7375
2093.12732	21727.2375
2096.12447	21738.9375
2099.11969	21790.9375
2102.11299	21752.0375
2105.10435	21748.6375
2108.09379	21768.9375
2111.08131	21715.6375
2114.0669	21768.6375
2117.05057	21811.8375
2120.03233	21796.2375
2123.01216	21825.2375
2125.99008	21852.7375
2128.96609	21851.7375
2131.94018	21845.6375
2134.91236	21915.3375
2137.88263	21900.6375
2140.851	21909.6375
2143.81746	21952.6375
2146.78201	21902.1375
2149.74466	21924.9375
2152.7054	21919.2375
2155.66425	21882.6375
2158.6212	21887.1375
2161.57625	21897.0375
2164.52941	21875.5375
2167.48067	21882.4375
2170.43004	21866.3375
2173.37752	21814.9375
2176.32311	21851.5375
2179.26681	21858.4375
2182.20863	21825.4375
2185.14856	21843.5375
2188.08661	21880.4375
2191.02278	21873.5375
2193.95707	21853.1375
2196.88948	21847.3375
2199.82001	21871.2375
2202.74867	21885.5375
2205.67545	21873.9375
2208.60037	21856.8375
2211.52341	21838.3375
2214.44458	21804.8375
2217.36388	21796.2375
2220.28132	21783.9375
2223.1969	21746.2375
2226.11061	21751.9375
2229.02246	21658.0375
2231.93245	21634.9375
2234.84058	21595.6375
2237.74686	21517.5375
2240.65128	21480.5375
2243.55385	21464.9375
2246.45456	21440.0375
2249.35343	21397.2375
2252.25044	21382.8375
2255.14561	21335.1375
2258.03893	21354.4375
2260.93041	21283.9375
2263.82004	21246.7375
2266.70783	21217.1375
2269.59378	21074.5375
2272.4779	21088.6375
2275.36017	21035.1375
2278.24061	20981.5375
2281.11922	20946.7375
2283.996	20911.7375
2286.87094	20913.6375
2289.74405	20891.1375
2292.61534	20903.0375
2295.4848	20842.2375
2298.35243	20852.1375
2301.21824	20854.6375
2304.08223	20882.5375
2306.94439	20891.3375
2309.80474	20929.0375
2312.66327	20935.2375
2315.51999	20943.1375
2318.37489	20926.3375
2321.22797	20897.4375
2324.07925	20865.8375
2326.92871	20845.6375
2329.77637	20845.3375
2332.62222	20868.4375
2335.46626	20872.0375
2338.3085	20852.6375
2341.14893	20878.0375
2343.98756	20885.3375
2346.8244	20900.2375
2349.65943	20913.7375
2352.49267	20910.8375
2355.32411	20908.0375
2358.15376	20909.0375
2360.98161	20890.4375
2363.80768	20839.7375
2366.63195	20794.9375
2369.45444	20772.6375
2372.27514	20753.9375
2375.09405	20715.9375
2377.91118	20644.0375
2380.72652	20603.3375
2383.54009	20558.9375
2386.35187	20526.7375
2389.16188	20487.8375
2391.97011	20478.6375
2394.77657	20386.0375
2397.58125	20406.4375
2400.38416	20378.0375
2403.18529	20353.1375
2405.98466	20312.2375
2408.78226	20254.0375
2411.57809	20277.5375
2414.37216	20196.8375
2417.16446	20176.1375
2419.955	20153.2375
2422.74378	20162.2375
2425.5308	20132.4375
2428.31606	20146.3375
2431.09956	20100.3375
2433.88131	20059.9375
2436.6613	20108.1375
2439.43954	20038.0375
2442.21603	20019.3375
2444.99077	20004.7375
2447.76377	20023.5375
2450.53501	19996.2375
2453.30451	20039.2375
2456.07226	20022.7375
2458.83827	20070.3375
2461.60254	20007.3375
2464.36507	20050.9375
2467.12586	20016.6375
2469.88492	20038.7375
2472.64224	20024.5375
2475.39782	20046.4375
2478.15167	20089.5375
2480.90379	20059.2375
2483.65417	20096.9375
2486.40283	20106.8375
2489.14976	20162.2375
2491.89497	20179.6375
2494.63845	20223.7375
2497.3802	20184.7375
2500.12024	20192.9375
2502.85855	20194.0375
2505.59514	20193.0375
2508.33002	20183.3375
2511.06318	20145.5375
2513.79462	20132.3375
2516.52435	20075.3375
2519.25237	20056.8375
2521.97867	20062.8375
2524.70327	20070.0375
2527.42616	20020.3375
2530.14734	20001.1375
2532.86681	19982.7375
2535.58458	20002.5375
2538.30065	19976.3375
2541.01501	19985.2375
2543.72768	19947.9375
2546.43864	19954.6375
2549.14791	19907.6375
2551.85548	19898.9375
2554.56136	19893.3375
2557.26554	19895.0375
2559.96803	19874.6375
2562.66883	19837.2375
2565.36794	19830.0375
2568.06536	19841.7375
2570.7611	19813.4375
2573.45514	19759.5375
2576.14751	19814.3375
2578.83819	19782.7375
2581.52719	19794.5375
2584.21451	19774.6375
2586.90015	19785.5375
2589.58411	19787.9375
2592.2664	19799.2375
2594.94701	19792.4375
2597.62594	19797.7375
2600.30321	19754.2375
2602.9788	19752.6375
2605.65273	19745.1375
2608.32498	19746.6375
2610.99557	19753.4375
2613.66449	19793.6375
2616.33175	19747.1375
2618.99734	19771.9375
2621.66128	19782.5375
2624.32355	19815.3375
2626.98416	19815.8375
2629.64311	19851.6375
2632.30041	19842.5375
2634.95605	19846.2375
2637.61004	19788.3375
2640.26238	19775.4375
2642.91306	19717.3375
2645.56209	19703.6375
2648.20948	19684.1375
2650.85521	19701.8375
2653.4993	19708.3375
2656.14175	19698.9375
2658.78255	19717.7375
2661.42171	19672.5375
2664.05923	19713.0375
2666.6951	19729.5375
2669.32934	19779.0375
2671.96194	19776.3375
2674.59291	19764.1375
2677.22224	19778.8375
2679.84993	19760.9375
2682.476	19743.5375
2685.10043	19735.5375
2687.72324	19734.5375
2690.34441	19756.2375
2692.96396	19685.0375
2695.58188	19719.4375
2698.19818	19686.4375
2700.81285	19711.0375
2703.4259	19696.5375
2706.03733	19725.9375
2708.64714	19718.1375
2711.25533	19715.7375
2713.86191	19696.6375
2716.46687	19723.3375
2719.07021	19714.9375
2721.67194	19738.3375
2724.27206	19728.0375
2726.87057	19759.2375
2729.46747	19749.7375
2732.06276	19741.9375
2734.65644	19717.6375
2737.24852	19762.5375
2739.83899	19721.5375
2742.42786	19730.4375
2745.01513	19720.7375
2747.60079	19718.9375
2750.18486	19767.7375
2752.76733	19719.4375
2755.3482	19732.5375
2757.92747	19746.1375
2760.50515	19736.3375
2763.08123	19730.4375
2765.65573	19681.6375
2768.22863	19696.2375
2770.79994	19672.1375
2773.36967	19664.8375
2775.9378	19691.0375
2778.50435	19688.5375
2781.06932	19689.5375
2783.6327	19690.1375
2786.1945	19690.3375
2788.75471	19632.9375
2791.31335	19609.2375
2793.87041	19566.2375
2796.42589	19515.6375
2798.97979	19521.4375
2801.53212	19514.8375
2804.08288	19522.2375
2806.63206	19446.2375
2809.17967	19428.0375
2811.72571	19378.3375
2814.27018	19355.8375
2816.81308	19353.8375
2819.35442	19348.6375
2821.89419	19320.2375
2824.43239	19291.8375
2826.96904	19317.2375
2829.50412	19330.7375
2832.03763	19255.0375
2834.56959	19269.4375
2837.1	19215.8375
2839.62884	19252.6375
2842.15613	19222.9375
2844.68186	19245.2375
2847.20604	19243.4375
2849.72867	19310.5375
2852.24974	19270.8375
2854.76927	19279.2375
2857.28724	19257.7375
2859.80367	19237.3375
2862.31855	19191.4375
2864.83189	19173.2375
2867.34368	19140.9375
2869.85393	19117.8375
2872.36264	19139.9375
2874.8698	19153.5375
2877.37543	19146.5375
2879.87952	19143.8375
2882.38207	19187.5375
2884.88308	19157.6375
2887.38256	19169.1375
2889.88051	19156.0375
2892.37692	19209.8375
2894.8718	19211.3375
2897.36515	19253.9375
2899.85698	19209.6375
2902.34727	19273.8375
2904.83604	19269.6375
2907.32328	19293.2375
2909.809	19289.6375
2912.29319	19255.7375
2914.77587	19263.0375
2917.25702	19253.4375
2919.73665	19200.3375
2922.21476	19262.9375
2924.69136	19213.1375
2927.16644	19253.6375
2929.64	19194.6375
2932.11205	19206.2375
2934.58258	19134.6375
2937.05161	19159.0375
2939.51912	19131.7375
2941.98513	19117.1375
2944.44962	19072.0375
2946.91261	18983.9375
2949.37409	19023.8375
2951.83407	18991.7375
2954.29254	18963.0375
2956.74951	18965.6375
2959.20498	18961.1375
2961.65895	18864.9375
2964.11142	18882.8375
2966.56239	18810.9375
2969.01186	18826.4375
2971.45984	18787.7375
2973.90632	18701.2375
2976.35131	18657.0375
2978.7948	18612.1375
2981.23681	18557.8375
2983.67732	18524.0375
2986.11635	18487.7375
2988.55388	18417.0375
2990.98993	18408.5375
2993.4245	18350.3375
2995.85758	18327.4375
2998.28917	18285.4375
3000.71928	18263.9375
3003.14791	18255.2375
3005.57506	18195.1375
3008.00073	18162.9375
3010.42493	18177.9375
3012.84764	18116.1375
3015.26888	18098.2375
3017.68865	18059.5375
3020.10694	18005.0375
3022.52376	17977.2375
3024.9391	17925.5375
3027.35298	17897.9375
3029.76539	17911.7375
3032.17632	17843.7375
3034.5858	17853.6375
3036.9938	17818.0375
3039.40034	17798.7375
3041.80542	17791.6375
3044.20903	17765.3375
3046.61118	17737.9375
3049.01187	17725.3375
3051.4111	17678.4375
3053.80888	17655.1375
3056.20519	17607.3375
3058.60005	17540.1375
3060.99345	17532.4375
3063.3854	17489.7375
3065.7759	17439.3375
3068.16494	17383.6375
3070.55254	17305.5375
3072.93868	17298.5375
3075.32338	17242.6375
3077.70662	17213.3375
3080.08842	17167.4375
3082.46878	17160.0375
3084.84769	17138.0375
3087.22515	17119.9375
3089.60118	17095.8375
3091.97576	17067.4375
3094.3489	17031.8375
3096.72061	17026.3375
3099.09087	17070.4375
3101.4597	17004.5375
3103.82709	17011.1375
3106.19305	16962.0375
3108.55757	16979.7375
3110.92066	16882.6375
3113.28232	16829.8375
3115.64255	16787.5375
3118.00134	16796.6375
3120.35871	16755.8375
3122.71466	16750.3375
3125.06917	16678.7375
3127.42226	16638.8375
3129.77393	16657.0375
3132.12417	16644.1375
3134.47299	16607.0375
3136.82039	16621.3375
3139.16636	16615.4375
3141.51092	16566.2375
3143.85406	16604.7375
3146.19579	16594.1375
3148.53609	16563.3375
3150.87499	16578.8375
3153.21246	16594.6375
3155.54853	16625.9375
3157.88318	16547.0375
3160.21642	16576.0375
3162.54826	16543.6375
3164.87868	16561.5375
3167.2077	16525.5375
3169.5353	16501.6375
3171.86151	16489.5375
3174.18631	16480.1375
3176.5097	16501.1375
3178.83169	16491.5375
3181.15228	16485.6375
3183.47147	16430.8375
3185.78926	16449.7375
3188.10565	16457.2375
3190.42065	16458.6375
3192.73424	16424.0375
3195.04645	16388.7375
3197.35725	16452.1375
3199.66667	16403.9375
3201.97469	16447.2375
3204.28132	16429.4375
3206.58656	16435.7375
3208.8904	16408.9375
3211.19287	16447.0375
3213.49394	16447.4375
3215.79363	16412.8375
3218.09193	16402.1375
3220.38884	16406.9375
3222.68438	16438.3375
3224.97853	16359.5375
3227.2713	16363.2375
3229.56269	16329.5375
3231.8527	16329.9375
3234.14133	16302.0375
3236.42858	16281.1375
3238.71446	16249.0375
3240.99896	16190.4375
3243.28209	16235.4375
3245.56384	16209.5375
3247.84423	16178.7375
3250.12324	16183.0375
3252.40088	16175.4375
3254.67715	16131.4375
3256.95205	16091.3375
3259.22558	16130.3375
3261.49775	16111.4375
3263.76855	16051.0375
3266.03799	16013.0375
3268.30606	15991.0375
3270.57277	15968.0375
3272.83812	15953.0375
3275.10211	15921.5375
3277.36474	15956.5375
3279.62601	15937.9375
3281.88593	15885.5375
3284.14448	15905.0375
3286.40168	15887.3375
3288.65753	15838.1375
3290.91202	15831.9375
3293.16516	15794.2375
3295.41695	15755.9375
3297.66738	15691.2375
3299.91647	15616.7375
3302.16421	15537.3375
3304.4106	15479.9375
3306.65564	15383.1375
3308.89933	15304.8375
3311.14169	15203.3375
3313.38269	15118.7375
3315.62236	15017.3375
3317.86068	14905.3375
3320.09766	14746.2375
3322.3333	14589.4375
3324.5676	14589.2375
3326.80056	14389.4375
3329.03219	14286.8375
3331.26248	2.9375
3333.49143	0.1375
3335.71905	-0.9625
