Data from AgNPs_FTO_APTES_UA_2uM_CRN_0uM_R6G_10uM_NaF_0.1M_Addition_RamanShift__33__10-42-54-956.txt Node

Date: Wed Feb 02 10:42:54 GMT 2022
User: TCL
Spectrometer: QEP01345
Trigger mode: 4
Integration Time (sec): 7.000000E0
Scans to average: 10
Electric dark correction enabled: true
Nonlinearity correction enabled: false
Boxcar width: 0
XAxis mode: Raman Shifts
Number of Pixels in Spectrum: 1044
>>>>>Begin Spectral Data<<<<<
46.04893	-0.3125
50.45542	0.0875
54.85868	-0.4125
59.25871	-0.5125
63.6555	51.9875
68.04907	56.5875
72.43941	54.3875
76.82654	61.7875
81.21044	65.0875
85.59113	66.8875
89.96862	71.0875
94.34289	66.7875
98.71396	71.0875
103.08183	74.6875
107.4465	76.6875
111.80798	77.0875
116.16626	79.3875
120.52136	86.7875
124.87327	84.0875
129.222	88.1875
133.56755	93.6875
137.90993	102.8875
142.24913	117.9875
146.58517	129.4875
150.91804	147.8875
155.24774	177.4875
159.57429	221.2875
163.89768	280.8875
168.21792	369.4875
172.53501	505.3875
176.84895	706.1875
181.15975	994.6875
185.46741	1388.7875
189.77193	1913.5875
194.07331	2542.9875
198.37157	3286.3875
202.6667	4051.1875
206.9587	4831.8875
211.24758	5574.9875
215.53334	6352.1875
219.81599	7175.5875
224.09553	8086.0875
228.37195	9135.4875
232.64527	10230.9875
236.91549	11345.0875
241.18261	12467.8875
245.44663	13451.0875
249.70755	14306.7875
253.96539	15031.5875
258.22014	15650.0875
262.4718	16139.2875
266.72039	16461.8875
270.96589	16553.4875
275.20832	16442.4875
279.44768	16268.9875
283.68397	16039.1875
287.91719	15820.4875
292.14735	15676.6875
296.37445	15662.5875
300.59849	15770.1875
304.81948	15960.5875
309.03742	16144.6875
313.25231	16208.3875
317.46415	16119.9875
321.67296	15893.4875
325.87872	15723.1875
330.08145	15628.5875
334.28114	15592.4875
338.47781	15676.0875
342.67145	15786.1875
346.86207	16034.8875
351.04966	16274.2875
355.23424	16602.3875
359.4158	16793.1875
363.59435	16958.9875
367.76989	17046.5875
371.94243	17079.9875
376.11196	17128.8875
380.27849	17174.5875
384.44203	17239.0875
388.60257	17367.0875
392.76012	17476.4875
396.91468	17591.3875
401.06626	17822.0875
405.21485	18004.4875
409.36047	18073.1875
413.50311	18032.4875
417.64277	18135.1875
421.77947	18288.5875
425.9132	18232.9875
430.04396	18306.3875
434.17176	18382.4875
438.2966	18612.8875
442.41849	19071.9875
446.53742	19883.5875
450.6534	20729.3875
454.76644	21188.6875
458.87653	21058.9875
462.98368	20546.1875
467.08789	19932.6875
471.18916	19357.4875
475.2875	18643.6875
479.38291	18198.6875
483.4754	17944.9875
487.56496	17822.1875
491.6516	17718.3875
495.73531	17652.8875
499.81612	17688.2875
503.89401	17835.7875
507.96899	17873.1875
512.04106	17727.0875
516.11023	17554.9875
520.1765	17456.8875
524.23987	17471.3875
528.30034	17517.4875
532.35792	17473.6875
536.41261	17176.6875
540.46441	16826.0875
544.51333	16601.8875
548.55936	16684.1875
552.60252	17095.5875
556.64279	17699.8875
560.6802	18184.7875
564.71473	18239.4875
568.7464	18242.2875
572.7752	18580.6875
576.80114	19003.5875
580.82422	19752.1875
584.84444	21019.7875
588.86181	22885.7875
592.87633	24844.2875
596.888	25382.9875
600.89682	23647.7875
604.9028	22215.5875
608.90594	23094.7875
612.90624	24727.8875
616.90371	23570.6875
620.89834	19945.9875
624.89015	18089.9875
628.87913	17740.6875
632.86528	17675.3875
636.84862	17376.0875
640.82913	16966.1875
644.80683	16535.1875
648.78172	16339.6875
652.75379	16379.6875
656.72306	16649.4875
660.68952	16922.1875
664.65319	16830.2875
668.61405	16464.8875
672.57211	16445.9875
676.52738	16567.5875
680.47986	16553.0875
684.42955	16364.0875
688.37646	16208.1875
692.32058	16444.2875
696.26192	16802.0875
700.20048	17215.6875
704.13626	17395.4875
708.06928	17282.7875
711.99952	17145.5875
715.927	17242.7875
719.85171	17400.4875
723.77365	17393.1875
727.69284	17043.8875
731.60928	16751.6875
735.52295	16680.5875
739.43388	16742.9875
743.34206	16847.2875
747.24749	16949.3875
751.15017	17109.6875
755.05012	17381.5875
758.94733	17807.2875
762.8418	18624.0875
766.73354	19913.0875
770.62254	21230.3875
774.50882	21568.1875
778.39237	20741.3875
782.27321	19357.5875
786.15132	18176.3875
790.02671	17453.4875
793.89938	17097.8875
797.76935	16982.4875
801.6366	16977.5875
805.50115	16943.9875
809.36299	16860.1875
813.22213	16713.1875
817.07857	16611.9875
820.93231	16447.5875
824.78336	16373.7875
828.63172	16386.3875
832.47738	16427.7875
836.32036	16507.6875
840.16066	16630.1875
843.99827	16721.3875
847.8332	16712.9875
851.66546	16565.1875
855.49504	16515.9875
859.32195	16528.2875
863.1462	16445.2875
866.96777	16389.6875
870.78668	16309.9875
874.60293	16340.3875
878.41652	16386.2875
882.22745	16499.2875
886.03573	16561.8875
889.84136	16609.6875
893.64433	16514.4875
897.44466	16430.2875
901.24235	16363.2875
905.0374	16306.4875
908.8298	16295.8875
912.61957	16375.5875
916.40671	16533.1875
920.19121	16785.1875
923.97308	17143.4875
927.75233	17349.1875
931.52895	17317.8875
935.30295	16962.1875
939.07433	16611.2875
942.84309	16282.9875
946.60924	16164.8875
950.37278	16127.2875
954.13371	16058.6875
957.89203	15921.4875
961.64774	15860.0875
965.40086	15846.2875
969.15137	15775.1875
972.89929	15738.6875
976.64461	15727.1875
980.38733	15766.1875
984.12747	15898.6875
987.86502	16044.1875
991.59999	16262.7875
995.33237	16612.0875
999.06217	17201.4875
1002.78939	17949.6875
1006.51404	18409.4875
1010.23611	18690.3875
1013.95561	18874.5875
1017.67255	18918.5875
1021.38692	18633.3875
1025.09872	18304.8875
1028.80796	18450.4875
1032.51465	19121.6875
1036.21877	19855.4875
1039.92035	20113.6875
1043.61937	19816.0875
1047.31584	19223.2875
1051.00976	18525.2875
1054.70114	18089.2875
1058.38998	17871.0875
1062.07627	17746.7875
1065.76003	17706.7875
1069.44126	17767.6875
1073.11995	18043.5875
1076.79611	18317.3875
1080.46974	18536.3875
1084.14085	18759.7875
1087.80943	18961.2875
1091.47549	19076.6875
1095.13903	18956.5875
1098.80005	18559.5875
1102.45857	18081.1875
1106.11456	17850.4875
1109.76805	17774.9875
1113.41903	17858.7875
1117.06751	17948.2875
1120.71348	18104.2875
1124.35696	18279.3875
1127.99793	18528.4875
1131.63641	18637.3875
1135.2724	18545.6875
1138.90589	18448.7875
1142.5369	18436.4875
1146.16542	18489.3875
1149.79145	18652.7875
1153.415	18765.1875
1157.03607	18974.2875
1160.65467	19524.3875
1164.27079	20503.7875
1167.88443	21714.8875
1171.49561	23095.1875
1175.10432	24930.4875
1178.71056	27388.3875
1182.31434	29795.3875
1185.91565	30820.9875
1189.51451	30059.0875
1193.11091	28553.9875
1196.70485	27086.1875
1200.29634	25858.3875
1203.88538	25072.3875
1207.47197	24502.0875
1211.05612	24040.3875
1214.63782	23564.2875
1218.21708	23197.9875
1221.79391	23106.7875
1225.36829	23233.8875
1228.94024	23021.4875
1232.50976	22396.5875
1236.07685	21652.0875
1239.6415	21103.8875
1243.20374	20982.3875
1246.76355	21134.9875
1250.32093	21487.8875
1253.8759	22117.0875
1257.42845	22839.2875
1260.97859	23607.3875
1264.52631	24361.0875
1268.07163	25186.8875
1271.61453	26048.4875
1275.15503	26923.2875
1278.69312	27910.6875
1282.22882	28921.3875
1285.76211	30100.4875
1289.29301	31470.8875
1292.82151	33029.1875
1296.34761	35002.9875
1299.87133	37473.9875
1303.39266	40372.4875
1306.9116	43053.9875
1310.42815	45229.3875
1313.94233	46209.1875
1317.45412	45364.2875
1320.96354	43152.0875
1324.47058	40752.4875
1327.97525	38793.3875
1331.47754	37390.0875
1334.97747	36422.4875
1338.47502	35462.5875
1341.97022	34342.8875
1345.46305	33310.9875
1348.95352	33240.8875
1352.44163	34565.6875
1355.92738	37482.1875
1359.41078	41245.4875
1362.89183	44081.4875
1366.37053	44289.7875
1369.84688	40629.5875
1373.32088	34898.1875
1376.79254	30852.7875
1380.26186	29414.6875
1383.72883	29281.2875
1387.19347	29052.6875
1390.65578	28387.6875
1394.11575	28037.3875
1397.57339	28297.2875
1401.0287	28889.2875
1404.48168	29450.3875
1407.93234	29446.6875
1411.38068	29002.2875
1414.82669	28239.3875
1418.27039	27349.8875
1421.71177	26339.4875
1425.15083	25441.4875
1428.58758	25110.7875
1432.02203	25505.5875
1435.45416	26476.3875
1438.88399	27342.5875
1442.31151	27734.9875
1445.73673	27895.6875
1449.15965	27850.2875
1452.58027	27459.9875
1455.9986	26856.5875
1459.41463	26584.2875
1462.82837	26858.9875
1466.23982	27590.6875
1469.64898	28336.4875
1473.05586	28888.6875
1476.46045	29311.7875
1479.86276	29451.3875
1483.26279	29273.3875
1486.66054	29220.8875
1490.05602	29364.1875
1493.44922	29575.5875
1496.84016	29638.1875
1500.22882	29635.4875
1503.61521	29927.7875
1506.99934	30463.6875
1510.38121	31069.6875
1513.76081	31344.4875
1517.13816	30884.7875
1520.51324	29972.8875
1523.88607	29250.3875
1527.25665	29042.8875
1530.62498	29221.7875
1533.99105	29161.0875
1537.35488	28793.3875
1540.71647	28139.3875
1544.07581	27376.2875
1547.4329	26596.9875
1550.78776	25801.4875
1554.14038	25158.4875
1557.49077	24759.2875
1560.83892	24467.7875
1564.18484	24306.8875
1567.52853	24384.6875
1570.86999	24633.7875
1574.20922	25073.5875
1577.54624	25444.8875
1580.88103	25600.7875
1584.2136	25982.4875
1587.54395	27231.7875
1590.87208	29426.9875
1594.19801	32286.5875
1597.52172	34882.3875
1600.84321	35843.4875
1604.16251	34104.7875
1607.47959	30466.6875
1610.79447	26663.2875
1614.10715	23629.4875
1617.41763	21639.1875
1620.7259	20590.5875
1624.03199	20187.9875
1627.33587	20364.4875
1630.63757	21167.2875
1633.93707	22549.9875
1637.23439	24936.3875
1640.52951	28647.3875
1643.82246	33338.5875
1647.11321	37114.0875
1650.40179	37468.6875
1653.68819	33711.3875
1656.97241	28196.2875
1660.25446	23479.4875
1663.53433	20373.6875
1666.81203	18603.0875
1670.08756	17610.9875
1673.36092	16972.4875
1676.63211	16543.9875
1679.90115	16258.2875
1683.16801	16013.2875
1686.43272	15841.8875
1689.69527	15736.0875
1692.95567	15652.7875
1696.2139	15637.3875
1699.46999	15596.6875
1702.72392	15530.7875
1705.97571	15504.5875
1709.22535	15442.9875
1712.47284	15437.4875
1715.71819	15464.7875
1718.96139	15429.1875
1722.20246	15393.3875
1725.44139	15313.0875
1728.67818	15249.9875
1731.91284	15163.6875
1735.14537	15084.7875
1738.37576	15040.3875
1741.60403	15002.8875
1744.83017	14945.2875
1748.05418	14904.2875
1751.27607	14844.7875
1754.49584	14810.4875
1757.71349	14829.1875
1760.92903	14828.6875
1764.14244	14828.7875
1767.35375	14790.0875
1770.56294	14791.2875
1773.77002	14767.9875
1776.97499	14756.6875
1780.17785	14712.1875
1783.37861	14728.8875
1786.57727	14686.3875
1789.77382	14689.7875
1792.96828	14671.2875
1796.16064	14619.7875
1799.3509	14610.0875
1802.53907	14627.2875
1805.72514	14574.1875
1808.90913	14570.2875
1812.09102	14545.2875
1815.27083	14489.7875
1818.44856	14488.2875
1821.6242	14486.9875
1824.79776	14457.5875
1827.96924	14418.8875
1831.13864	14433.7875
1834.30597	14445.8875
1837.47122	14481.1875
1840.6344	14427.0875
1843.7955	14452.0875
1846.95454	14436.3875
1850.11151	14431.1875
1853.26642	14428.9875
1856.41926	14418.0875
1859.57004	14445.3875
1862.71876	14407.0875
1865.86542	14406.5875
1869.01003	14422.1875
1872.15258	14389.2875
1875.29308	14403.8875
1878.43152	14417.3875
1881.56792	14401.8875
1884.70227	14403.9875
1887.83457	14355.1875
1890.96482	14360.7875
1894.09304	14344.8875
1897.21921	14337.6875
1900.34335	14302.2875
1903.46544	14331.3875
1906.58551	14320.8875
1909.70353	14315.9875
1912.81953	14319.6875
1915.93349	14302.2875
1919.04543	14248.5875
1922.15534	14248.9875
1925.26322	14174.3875
1928.36908	14180.4875
1931.47292	14174.1875
1934.57473	14104.3875
1937.67453	14100.0875
1940.77232	14099.1875
1943.86808	14079.0875
1946.96184	14053.2875
1950.05358	14015.3875
1953.14331	13949.9875
1956.23103	13934.2875
1959.31675	13900.3875
1962.40046	13865.7875
1965.48217	13841.5875
1968.56188	13778.8875
1971.63959	13743.9875
1974.7153	13736.8875
1977.78901	13673.3875
1980.86073	13669.3875
1983.93046	13638.7875
1986.99819	13568.6875
1990.06394	13546.3875
1993.1277	13539.5875
1996.18947	13492.9875
1999.24925	13456.9875
2002.30706	13415.5875
2005.36288	13375.6875
2008.41672	13350.8875
2011.46859	13335.4875
2014.51848	13296.8875
2017.56639	13247.5875
2020.61233	13217.8875
2023.6563	13204.1875
2026.6983	13184.7875
2029.73833	13201.1875
2032.7764	13185.2875
2035.8125	13162.3875
2038.84664	13156.1875
2041.87881	13166.7875
2044.90903	13133.5875
2047.93729	13122.4875
2050.96359	13101.5875
2053.98794	13088.6875
2057.01034	13082.3875
2060.03078	13083.7875
2063.04927	13093.6875
2066.06582	13083.5875
2069.08042	13042.5875
2072.09307	13075.1875
2075.10378	13068.7875
2078.11255	13084.4875
2081.11938	13081.4875
2084.12426	13067.5875
2087.12722	13101.5875
2090.12824	13053.9875
2093.12732	13120.9875
2096.12447	13144.8875
2099.11969	13141.9875
2102.11299	13167.6875
2105.10435	13167.2875
2108.09379	13155.8875
2111.08131	13153.4875
2114.0669	13148.6875
2117.05057	13136.1875
2120.03233	13150.2875
2123.01216	13149.9875
2125.99008	13150.2875
2128.96609	13154.4875
2131.94018	13194.1875
2134.91236	13189.6875
2137.88263	13186.3875
2140.851	13214.4875
2143.81746	13206.1875
2146.78201	13218.8875
2149.74466	13198.8875
2152.7054	13214.0875
2155.66425	13198.3875
2158.6212	13225.0875
2161.57625	13257.7875
2164.52941	13249.7875
2167.48067	13228.0875
2170.43004	13254.9875
2173.37752	13248.6875
2176.32311	13213.2875
2179.26681	13245.1875
2182.20863	13249.8875
2185.14856	13288.8875
2188.08661	13284.5875
2191.02278	13285.3875
2193.95707	13296.7875
2196.88948	13301.4875
2199.82001	13288.8875
2202.74867	13297.2875
2205.67545	13312.7875
2208.60037	13306.1875
2211.52341	13267.5875
2214.44458	13274.3875
2217.36388	13234.4875
2220.28132	13279.8875
2223.1969	13220.2875
2226.11061	13230.4875
2229.02246	13202.6875
2231.93245	13213.9875
2234.84058	13215.0875
2237.74686	13200.8875
2240.65128	13180.0875
2243.55385	13164.9875
2246.45456	13135.0875
2249.35343	13096.9875
2252.25044	13058.5875
2255.14561	13044.4875
2258.03893	13049.9875
2260.93041	13021.6875
2263.82004	13000.7875
2266.70783	12987.3875
2269.59378	12969.0875
2272.4779	12947.2875
2275.36017	12924.2875
2278.24061	12882.0875
2281.11922	12881.8875
2283.996	12873.2875
2286.87094	12914.4875
2289.74405	12866.6875
2292.61534	12849.9875
2295.4848	12877.6875
2298.35243	12860.0875
2301.21824	12866.3875
2304.08223	12877.8875
2306.94439	12885.7875
2309.80474	12937.2875
2312.66327	12916.1875
2315.51999	12922.8875
2318.37489	12908.9875
2321.22797	12912.6875
2324.07925	12900.1875
2326.92871	12895.9875
2329.77637	12894.3875
2332.62222	12885.9875
2335.46626	12923.4875
2338.3085	12895.3875
2341.14893	12890.9875
2343.98756	12913.0875
2346.8244	12905.3875
2349.65943	12902.4875
2352.49267	12891.6875
2355.32411	12900.5875
2358.15376	12865.8875
2360.98161	12867.9875
2363.80768	12833.3875
2366.63195	12829.0875
2369.45444	12830.9875
2372.27514	12818.3875
2375.09405	12765.3875
2377.91118	12754.3875
2380.72652	12741.1875
2383.54009	12718.5875
2386.35187	12734.7875
2389.16188	12685.5875
2391.97011	12665.6875
2394.77657	12669.1875
2397.58125	12651.5875
2400.38416	12655.9875
2403.18529	12634.9875
2405.98466	12606.8875
2408.78226	12579.9875
2411.57809	12572.7875
2414.37216	12547.9875
2417.16446	12530.0875
2419.955	12538.5875
2422.74378	12531.4875
2425.5308	12506.1875
2428.31606	12542.0875
2431.09956	12550.0875
2433.88131	12516.4875
2436.6613	12515.2875
2439.43954	12525.9875
2442.21603	12519.1875
2444.99077	12494.9875
2447.76377	12527.9875
2450.53501	12512.1875
2453.30451	12536.1875
2456.07226	12502.6875
2458.83827	12520.7875
2461.60254	12529.3875
2464.36507	12538.9875
2467.12586	12549.7875
2469.88492	12536.9875
2472.64224	12519.8875
2475.39782	12559.0875
2478.15167	12580.8875
2480.90379	12573.9875
2483.65417	12572.7875
2486.40283	12598.1875
2489.14976	12584.2875
2491.89497	12603.2875
2494.63845	12623.4875
2497.3802	12628.3875
2500.12024	12591.9875
2502.85855	12595.7875
2505.59514	12585.4875
2508.33002	12571.9875
2511.06318	12558.5875
2513.79462	12588.6875
2516.52435	12564.2875
2519.25237	12571.9875
2521.97867	12535.6875
2524.70327	12538.8875
2527.42616	12534.8875
2530.14734	12532.3875
2532.86681	12527.2875
2535.58458	12513.6875
2538.30065	12514.5875
2541.01501	12508.1875
2543.72768	12487.4875
2546.43864	12455.3875
2549.14791	12469.4875
2551.85548	12461.0875
2554.56136	12469.1875
2557.26554	12451.1875
2559.96803	12471.9875
2562.66883	12436.7875
2565.36794	12448.6875
2568.06536	12468.4875
2570.7611	12439.1875
2573.45514	12462.7875
2576.14751	12478.8875
2578.83819	12479.3875
2581.52719	12449.7875
2584.21451	12485.0875
2586.90015	12434.2875
2589.58411	12435.3875
2592.2664	12449.1875
2594.94701	12414.5875
2597.62594	12407.8875
2600.30321	12389.3875
2602.9788	12382.6875
2605.65273	12391.7875
2608.32498	12428.9875
2610.99557	12407.9875
2613.66449	12383.5875
2616.33175	12405.5875
2618.99734	12412.4875
2621.66128	12417.0875
2624.32355	12412.6875
2626.98416	12402.3875
2629.64311	12410.2875
2632.30041	12382.6875
2634.95605	12407.8875
2637.61004	12397.9875
2640.26238	12337.9875
2642.91306	12370.6875
2645.56209	12328.3875
2648.20948	12327.7875
2650.85521	12331.2875
2653.4993	12316.9875
2656.14175	12348.1875
2658.78255	12360.2875
2661.42171	12337.4875
2664.05923	12389.2875
2666.6951	12369.8875
2669.32934	12405.8875
2671.96194	12400.6875
2674.59291	12432.4875
2677.22224	12389.1875
2679.84993	12427.7875
2682.476	12421.0875
2685.10043	12406.3875
2687.72324	12357.7875
2690.34441	12383.7875
2692.96396	12377.8875
2695.58188	12386.8875
2698.19818	12377.2875
2700.81285	12390.6875
2703.4259	12393.9875
2706.03733	12405.6875
2708.64714	12415.9875
2711.25533	12445.2875
2713.86191	12421.0875
2716.46687	12489.5875
2719.07021	12478.8875
2721.67194	12489.7875
2724.27206	12467.6875
2726.87057	12463.9875
2729.46747	12509.4875
2732.06276	12500.9875
2734.65644	12507.1875
2737.24852	12503.0875
2739.83899	12484.8875
2742.42786	12524.4875
2745.01513	12497.4875
2747.60079	12498.7875
2750.18486	12493.3875
2752.76733	12517.5875
2755.3482	12526.3875
2757.92747	12566.1875
2760.50515	12547.2875
2763.08123	12556.9875
2765.65573	12510.2875
2768.22863	12512.7875
2770.79994	12517.8875
2773.36967	12514.4875
2775.9378	12543.3875
2778.50435	12526.2875
2781.06932	12515.8875
2783.6327	12537.9875
2786.1945	12532.2875
2788.75471	12501.0875
2791.31335	12468.5875
2793.87041	12487.3875
2796.42589	12444.3875
2798.97979	12480.5875
2801.53212	12449.7875
2804.08288	12435.1875
2806.63206	12427.9875
2809.17967	12437.3875
2811.72571	12386.9875
2814.27018	12413.0875
2816.81308	12393.0875
2819.35442	12371.8875
2821.89419	12347.7875
2824.43239	12379.8875
2826.96904	12380.2875
2829.50412	12366.0875
2832.03763	12360.2875
2834.56959	12367.5875
2837.1	12369.7875
2839.62884	12404.5875
2842.15613	12409.5875
2844.68186	12493.9875
2847.20604	12553.3875
2849.72867	12566.8875
2852.24974	12594.1875
2854.76927	12591.0875
2857.28724	12571.2875
2859.80367	12570.1875
2862.31855	12537.3875
2864.83189	12546.5875
2867.34368	12557.2875
2869.85393	12578.1875
2872.36264	12600.0875
2874.8698	12593.7875
2877.37543	12602.5875
2879.87952	12633.4875
2882.38207	12650.5875
2884.88308	12668.8875
2887.38256	12707.2875
2889.88051	12725.1875
2892.37692	12728.7875
2894.8718	12693.0875
2897.36515	12734.4875
2899.85698	12755.7875
2902.34727	12780.2875
2904.83604	12797.5875
2907.32328	12820.6875
2909.809	12812.9875
2912.29319	12796.1875
2914.77587	12789.1875
2917.25702	12775.5875
2919.73665	12797.7875
2922.21476	12791.1875
2924.69136	12740.8875
2927.16644	12755.3875
2929.64	12719.6875
2932.11205	12715.4875
2934.58258	12731.4875
2937.05161	12738.8875
2939.51912	12711.4875
2941.98513	12694.5875
2944.44962	12625.7875
2946.91261	12542.5875
2949.37409	12567.7875
2951.83407	12530.5875
2954.29254	12522.6875
2956.74951	12462.8875
2959.20498	12451.5875
2961.65895	12385.2875
2964.11142	12398.9875
2966.56239	12359.2875
2969.01186	12371.3875
2971.45984	12310.5875
2973.90632	12273.7875
2976.35131	12226.7875
2978.7948	12219.5875
2981.23681	12147.3875
2983.67732	12125.9875
2986.11635	12130.6875
2988.55388	12062.4875
2990.98993	12050.3875
2993.4245	12040.4875
2995.85758	12025.9875
2998.28917	11993.2875
3000.71928	11985.4875
3003.14791	12016.6875
3005.57506	11985.0875
3008.00073	11960.2875
3010.42493	11940.3875
3012.84764	11940.5875
3015.26888	11917.0875
3017.68865	11880.8875
3020.10694	11876.8875
3022.52376	11869.7875
3024.9391	11849.2875
3027.35298	11838.8875
3029.76539	11841.4875
3032.17632	11847.9875
3034.5858	11764.2875
3036.9938	11788.5875
3039.40034	11787.8875
3041.80542	11776.8875
3044.20903	11795.3875
3046.61118	11789.2875
3049.01187	11770.8875
3051.4111	11752.3875
3053.80888	11728.7875
3056.20519	11729.2875
3058.60005	11702.0875
3060.99345	11677.0875
3063.3854	11673.1875
3065.7759	11669.3875
3068.16494	11654.8875
3070.55254	11605.0875
3072.93868	11618.0875
3075.32338	11556.9875
3077.70662	11553.8875
3080.08842	11530.1875
3082.46878	11554.1875
3084.84769	11557.2875
3087.22515	11511.2875
3089.60118	11518.1875
3091.97576	11522.5875
3094.3489	11525.7875
3096.72061	11517.0875
3099.09087	11524.8875
3101.4597	11508.6875
3103.82709	11491.7875
3106.19305	11470.3875
3108.55757	11494.3875
3110.92066	11462.9875
3113.28232	11423.3875
3115.64255	11398.5875
3118.00134	11371.4875
3120.35871	11391.7875
3122.71466	11390.1875
3125.06917	11357.8875
3127.42226	11369.1875
3129.77393	11383.7875
3132.12417	11369.6875
3134.47299	11355.4875
3136.82039	11368.0875
3139.16636	11369.5875
3141.51092	11374.7875
3143.85406	11392.3875
3146.19579	11393.6875
3148.53609	11396.0875
3150.87499	11397.6875
3153.21246	11410.9875
3155.54853	11433.8875
3157.88318	11429.6875
3160.21642	11441.6875
3162.54826	11408.9875
3164.87868	11403.4875
3167.2077	11404.9875
3169.5353	11391.8875
3171.86151	11404.6875
3174.18631	11394.6875
3176.5097	11402.2875
3178.83169	11376.1875
3181.15228	11382.3875
3183.47147	11381.4875
3185.78926	11374.8875
3188.10565	11372.6875
3190.42065	11386.0875
3192.73424	11392.8875
3195.04645	11379.1875
3197.35725	11406.5875
3199.66667	11391.5875
3201.97469	11407.5875
3204.28132	11365.4875
3206.58656	11397.0875
3208.8904	11405.2875
3211.19287	11395.7875
3213.49394	11411.0875
3215.79363	11403.6875
3218.09193	11429.5875
3220.38884	11402.7875
3222.68438	11428.5875
3224.97853	11424.9875
3227.2713	11424.2875
3229.56269	11394.9875
3231.8527	11404.5875
3234.14133	11386.8875
3236.42858	11354.4875
3238.71446	11371.9875
3240.99896	11360.4875
3243.28209	11380.9875
3245.56384	11372.4875
3247.84423	11409.5875
3250.12324	11397.7875
3252.40088	11378.7875
3254.67715	11367.8875
3256.95205	11329.1875
3259.22558	11332.6875
3261.49775	11320.9875
3263.76855	11305.7875
3266.03799	11287.7875
3268.30606	11289.0875
3270.57277	11246.0875
3272.83812	11257.6875
3275.10211	11205.4875
3277.36474	11232.1875
3279.62601	11236.4875
3281.88593	11229.1875
3284.14448	11253.6875
3286.40168	11254.4875
3288.65753	11220.4875
3290.91202	11213.9875
3293.16516	11187.9875
3295.41695	11174.3875
3297.66738	11117.1875
3299.91647	11057.0875
3302.16421	10977.8875
3304.4106	10987.9875
3306.65564	10892.5875
3308.89933	10847.4875
3311.14169	10810.8875
3313.38269	10716.1875
3315.62236	10677.3875
3317.86068	10598.0875
3320.09766	10489.2875
3322.3333	10426.6875
3324.5676	10434.9875
3326.80056	10280.6875
3329.03219	10219.7875
3331.26248	2.7875
3333.49143	-0.4125
3335.71905	-1.3125
