Data from AgNPs_FTO_APTES_UA_2uM_CRN_5uM_R6G_10uM_NaF_0.1M_Addition_RamanShift__14__12-54-45-109.txt Node

Date: Wed Feb 02 12:54:45 GMT 2022
User: TCL
Spectrometer: QEP01345
Trigger mode: 4
Integration Time (sec): 7.000000E0
Scans to average: 10
Electric dark correction enabled: true
Nonlinearity correction enabled: false
Boxcar width: 0
XAxis mode: Raman Shifts
Number of Pixels in Spectrum: 1044
>>>>>Begin Spectral Data<<<<<
46.04893	0.1875
50.45542	1.3875
54.85868	-0.9125
59.25871	-2.1125
63.6555	92.0875
68.04907	98.3875
72.43941	100.4875
76.82654	108.4875
81.21044	109.3875
85.59113	112.6875
89.96862	113.1875
94.34289	120.6875
98.71396	123.9875
103.08183	130.4875
107.4465	133.6875
111.80798	137.8875
116.16626	142.9875
120.52136	148.8875
124.87327	160.9875
129.222	167.2875
133.56755	181.9875
137.90993	198.7875
142.24913	223.8875
146.58517	259.3875
150.91804	302.2875
155.24774	369.4875
159.57429	464.5875
163.89768	604.0875
168.21792	814.2875
172.53501	1112.8875
176.84895	1553.1875
181.15975	2195.7875
185.46741	3101.6875
189.77193	4273.9875
194.07331	5739.8875
198.37157	7398.6875
202.6667	9153.3875
206.9587	10859.6875
211.24758	12560.5875
215.53334	14234.1875
219.81599	16033.6875
224.09553	18002.7875
228.37195	20195.3875
232.64527	22568.5875
236.91549	25097.1875
241.18261	27631.3875
245.44663	29991.0875
249.70755	32187.6875
253.96539	34101.9875
258.22014	35715.9875
262.4718	37081.6875
266.72039	37998.5875
270.96589	38530.6875
275.20832	38658.6875
279.44768	38493.9875
283.68397	38124.3875
287.91719	37898.9875
292.14735	37757.8875
296.37445	37700.0875
300.59849	37683.0875
304.81948	37740.5875
309.03742	37645.9875
313.25231	37290.9875
317.46415	36604.4875
321.67296	35706.8875
325.87872	35005.2875
330.08145	34583.9875
334.28114	34544.5875
338.47781	34684.6875
342.67145	35101.7875
346.86207	35594.8875
351.04966	36099.6875
355.23424	36716.5875
359.4158	37173.0875
363.59435	37576.3875
367.76989	37917.7875
371.94243	38182.6875
376.11196	38354.4875
380.27849	38406.9875
384.44203	38530.3875
388.60257	38819.6875
392.76012	39251.2875
396.91468	39845.7875
401.06626	40419.3875
405.21485	40734.0875
409.36047	40650.7875
413.50311	40134.0875
417.64277	39834.3875
421.77947	39819.4875
425.9132	40044.1875
430.04396	40174.9875
434.17176	40324.7875
438.2966	40490.8875
442.41849	40874.2875
446.53742	41564.0875
450.6534	42476.0875
454.76644	43111.2875
458.87653	43439.9875
462.98368	43444.5875
467.08789	43335.1875
471.18916	43016.8875
475.2875	42708.3875
479.38291	42600.3875
483.4754	42497.8875
487.56496	42207.9875
491.6516	41664.0875
495.73531	41166.4875
499.81612	40832.4875
503.89401	40917.5875
507.96899	41152.8875
512.04106	41164.3875
516.11023	41016.8875
520.1765	40628.1875
524.23987	40143.8875
528.30034	39632.6875
532.35792	39300.8875
536.41261	38923.8875
540.46441	38656.6875
544.51333	38758.3875
548.55936	39227.0875
552.60252	40004.4875
556.64279	40841.7875
560.6802	41469.3875
564.71473	41912.4875
568.7464	42618.2875
572.7752	43798.9875
576.80114	45065.8875
580.82422	46246.7875
584.84444	47257.3875
588.86181	48037.1875
592.87633	48430.8875
596.888	47910.4875
600.89682	46818.4875
604.9028	46988.1875
608.90594	49485.1875
612.90624	52014.4875
616.90371	49061.6875
620.89834	42783.3875
624.89015	40013.8875
628.87913	39769.0875
632.86528	40098.4875
636.84862	40149.6875
640.82913	39655.1875
644.80683	38880.6875
648.78172	38185.3875
652.75379	38117.0875
656.72306	38490.1875
660.68952	38905.4875
664.65319	38804.8875
668.61405	38298.5875
672.57211	38233.5875
676.52738	38360.5875
680.47986	38341.5875
684.42955	38068.9875
688.37646	38003.8875
692.32058	38172.5875
696.26192	38593.6875
700.20048	38997.8875
704.13626	39336.6875
708.06928	39397.4875
711.99952	39283.4875
715.927	39211.6875
719.85171	39181.1875
723.77365	39037.2875
727.69284	38499.2875
731.60928	38049.0875
735.52295	37843.0875
739.43388	37768.2875
743.34206	37838.6875
747.24749	38074.8875
751.15017	38400.3875
755.05012	39068.9875
758.94733	40107.9875
762.8418	41718.7875
766.73354	44183.3875
770.62254	46346.6875
774.50882	46600.9875
778.39237	44784.1875
782.27321	42329.8875
786.15132	40316.4875
790.02671	38941.8875
793.89938	38228.2875
797.76935	37884.9875
801.6366	37747.2875
805.50115	37651.1875
809.36299	37448.7875
813.22213	37242.0875
817.07857	37166.1875
820.93231	37145.7875
824.78336	36958.2875
828.63172	36770.9875
832.47738	36646.6875
836.32036	36599.5875
840.16066	36640.5875
843.99827	36650.2875
847.8332	36547.1875
851.66546	36567.3875
855.49504	36620.4875
859.32195	36664.7875
863.1462	36533.7875
866.96777	36514.8875
870.78668	36481.6875
874.60293	36465.8875
878.41652	36521.0875
882.22745	36638.8875
886.03573	36761.6875
889.84136	36808.5875
893.64433	36691.5875
897.44466	36597.0875
901.24235	36510.7875
905.0374	36442.3875
908.8298	36403.0875
912.61957	36465.6875
916.40671	36794.7875
920.19121	37271.8875
923.97308	37522.1875
927.75233	37419.9875
931.52895	37110.9875
935.30295	36660.8875
939.07433	36085.3875
942.84309	35601.4875
946.60924	35361.2875
950.37278	35215.9875
954.13371	35164.3875
957.89203	35175.9875
961.64774	35199.2875
965.40086	35173.5875
969.15137	35155.2875
972.89929	34972.6875
976.64461	34893.0875
980.38733	34792.2875
984.12747	34855.3875
987.86502	34942.0875
991.59999	35110.4875
995.33237	35356.8875
999.06217	35697.0875
1002.78939	36219.5875
1006.51404	36786.1875
1010.23611	37218.9875
1013.95561	37595.1875
1017.67255	37682.9875
1021.38692	37386.2875
1025.09872	36928.8875
1028.80796	36579.1875
1032.51465	36553.5875
1036.21877	36824.0875
1039.92035	36996.5875
1043.61937	37007.6875
1047.31584	37044.1875
1051.00976	37056.4875
1054.70114	37128.5875
1058.38998	37386.6875
1062.07627	37696.1875
1065.76003	38217.2875
1069.44126	38686.1875
1073.11995	39248.9875
1076.79611	39691.7875
1080.46974	39965.4875
1084.14085	40192.9875
1087.80943	40476.4875
1091.47549	40852.9875
1095.13903	41038.1875
1098.80005	40750.2875
1102.45857	39953.4875
1106.11456	39221.5875
1109.76805	38702.2875
1113.41903	38507.1875
1117.06751	38494.5875
1120.71348	38757.7875
1124.35696	39059.8875
1127.99793	39458.4875
1131.63641	39734.7875
1135.2724	39692.4875
1138.90589	39550.8875
1142.5369	39637.3875
1146.16542	39848.2875
1149.79145	40196.6875
1153.415	40546.2875
1157.03607	41123.4875
1160.65467	42123.4875
1164.27079	43695.9875
1167.88443	45706.2875
1171.49561	47901.7875
1175.10432	50548.0875
1178.71056	53757.3875
1182.31434	56818.9875
1185.91565	58715.3875
1189.51451	59186.5875
1193.11091	58478.0875
1196.70485	56861.7875
1200.29634	54867.9875
1203.88538	53199.0875
1207.47197	52351.8875
1211.05612	51832.0875
1214.63782	51110.0875
1218.21708	49834.3875
1221.79391	48375.8875
1225.36829	47198.4875
1228.94024	46439.4875
1232.50976	45903.1875
1236.07685	45586.5875
1239.6415	45472.9875
1243.20374	45536.3875
1246.76355	45781.8875
1250.32093	46274.5875
1253.8759	47083.9875
1257.42845	48210.8875
1260.97859	49550.9875
1264.52631	50887.8875
1268.07163	52182.4875
1271.61453	53410.1875
1275.15503	54694.9875
1278.69312	56043.4875
1282.22882	57521.6875
1285.76211	59089.4875
1289.29301	61060.9875
1292.82151	63410.5875
1296.34761	66023.3875
1299.87133	69127.7875
1303.39266	72227.5875
1306.9116	75070.3875
1310.42815	77207.0875
1313.94233	78057.3875
1317.45412	77908.7875
1320.96354	77676.5875
1324.47058	77667.1875
1327.97525	77858.4875
1331.47754	78109.9875
1334.97747	78229.5875
1338.47502	78136.3875
1341.97022	78013.8875
1345.46305	77532.6875
1348.95352	76634.3875
1352.44163	75391.0875
1355.92738	74702.0875
1359.41078	75186.7875
1362.89183	75876.8875
1366.37053	74572.3875
1369.84688	70219.6875
1373.32088	64556.3875
1376.79254	60399.5875
1380.26186	58721.0875
1383.72883	58674.2875
1387.19347	58866.4875
1390.65578	58434.8875
1394.11575	58187.8875
1397.57339	58366.6875
1401.0287	58893.5875
1404.48168	59432.7875
1407.93234	59161.6875
1411.38068	57884.3875
1414.82669	56021.9875
1418.27039	53917.9875
1421.71177	51872.4875
1425.15083	50311.6875
1428.58758	49581.5875
1432.02203	49853.0875
1435.45416	50879.1875
1438.88399	52204.1875
1442.31151	53311.1875
1445.73673	54058.3875
1449.15965	54705.6875
1452.58027	55101.5875
1455.9986	55295.9875
1459.41463	55678.0875
1462.82837	56391.1875
1466.23982	57077.6875
1469.64898	57590.2875
1473.05586	57962.4875
1476.46045	57942.4875
1479.86276	57556.4875
1483.26279	57085.3875
1486.66054	56906.2875
1490.05602	57247.6875
1493.44922	57950.7875
1496.84016	58968.3875
1500.22882	60444.5875
1503.61521	62191.2875
1506.99934	64074.0875
1510.38121	65441.4875
1513.76081	65698.6875
1517.13816	64882.2875
1520.51324	63550.3875
1523.88607	62384.6875
1527.25665	61915.0875
1530.62498	61686.9875
1533.99105	61203.8875
1537.35488	60439.1875
1540.71647	59059.8875
1544.07581	57398.1875
1547.4329	55854.0875
1550.78776	54619.4875
1554.14038	53802.1875
1557.49077	53422.3875
1560.83892	53313.3875
1564.18484	53316.8875
1567.52853	53399.9875
1570.86999	53805.0875
1574.20922	54683.2875
1577.54624	55647.7875
1580.88103	56143.5875
1584.2136	56702.2875
1587.54395	57932.4875
1590.87208	59856.3875
1594.19801	62242.0875
1597.52172	64326.8875
1600.84321	64374.6875
1604.16251	61701.7875
1607.47959	57656.1875
1610.79447	53678.9875
1614.10715	49895.2875
1617.41763	46567.9875
1620.7259	44181.4875
1624.03199	42910.1875
1627.33587	42766.7875
1630.63757	43699.2875
1633.93707	46125.3875
1637.23439	50085.2875
1640.52951	55841.8875
1643.82246	62498.8875
1647.11321	67555.3875
1650.40179	68591.1875
1653.68819	64670.3875
1656.97241	57414.0875
1660.25446	50010.6875
1663.53433	44166.7875
1666.81203	40141.4875
1670.08756	37532.9875
1673.36092	35883.1875
1676.63211	34844.6875
1679.90115	34036.9875
1683.16801	33434.9875
1686.43272	33069.9875
1689.69527	32764.8875
1692.95567	32524.8875
1696.2139	32329.6875
1699.46999	32193.7875
1702.72392	32074.5875
1705.97571	31920.7875
1709.22535	31837.5875
1712.47284	31761.7875
1715.71819	31787.4875
1718.96139	31628.0875
1722.20246	31511.5875
1725.44139	31411.7875
1728.67818	31193.0875
1731.91284	31060.1875
1735.14537	30916.3875
1738.37576	30793.9875
1741.60403	30677.5875
1744.83017	30533.0875
1748.05418	30503.8875
1751.27607	30480.6875
1754.49584	30386.3875
1757.71349	30356.6875
1760.92903	30334.7875
1764.14244	30303.8875
1767.35375	30247.0875
1770.56294	30163.0875
1773.77002	30083.8875
1776.97499	30028.9875
1780.17785	29967.2875
1783.37861	29948.8875
1786.57727	29891.6875
1789.77382	29812.5875
1792.96828	29754.4875
1796.16064	29667.4875
1799.3509	29575.9875
1802.53907	29492.0875
1805.72514	29401.5875
1808.90913	29377.6875
1812.09102	29335.2875
1815.27083	29310.9875
1818.44856	29316.6875
1821.6242	29226.4875
1824.79776	29235.7875
1827.96924	29220.7875
1831.13864	29240.5875
1834.30597	29213.8875
1837.47122	29166.5875
1840.6344	29170.0875
1843.7955	29171.6875
1846.95454	29179.8875
1850.11151	29149.6875
1853.26642	29140.4875
1856.41926	29162.2875
1859.57004	29123.7875
1862.71876	29080.8875
1865.86542	28991.2875
1869.01003	28977.3875
1872.15258	28905.1875
1875.29308	28880.9875
1878.43152	28850.2875
1881.56792	28764.7875
1884.70227	28700.1875
1887.83457	28720.8875
1890.96482	28649.9875
1894.09304	28536.9875
1897.21921	28552.8875
1900.34335	28502.7875
1903.46544	28428.0875
1906.58551	28374.0875
1909.70353	28328.3875
1912.81953	28226.3875
1915.93349	28198.0875
1919.04543	28087.6875
1922.15534	28013.8875
1925.26322	27963.8875
1928.36908	27888.9875
1931.47292	27871.8875
1934.57473	27785.3875
1937.67453	27662.6875
1940.77232	27568.9875
1943.86808	27489.7875
1946.96184	27419.8875
1950.05358	27348.0875
1953.14331	27277.3875
1956.23103	27218.2875
1959.31675	27106.3875
1962.40046	27018.4875
1965.48217	26964.1875
1968.56188	26864.6875
1971.63959	26787.3875
1974.7153	26755.1875
1977.78901	26654.3875
1980.86073	26564.7875
1983.93046	26478.4875
1986.99819	26331.7875
1990.06394	26252.2875
1993.1277	26175.5875
1996.18947	26097.6875
1999.24925	26017.0875
2002.30706	25978.5875
2005.36288	25870.0875
2008.41672	25784.4875
2011.46859	25701.1875
2014.51848	25660.1875
2017.56639	25614.9875
2020.61233	25532.4875
2023.6563	25445.1875
2026.6983	25440.7875
2029.73833	25355.7875
2032.7764	25297.1875
2035.8125	25213.0875
2038.84664	25172.9875
2041.87881	25147.5875
2044.90903	25078.9875
2047.93729	25027.9875
2050.96359	24978.4875
2053.98794	24930.7875
2057.01034	24925.8875
2060.03078	24890.8875
2063.04927	24847.2875
2066.06582	24851.6875
2069.08042	24827.5875
2072.09307	24801.6875
2075.10378	24805.2875
2078.11255	24797.9875
2081.11938	24777.4875
2084.12426	24746.8875
2087.12722	24696.1875
2090.12824	24706.2875
2093.12732	24739.0875
2096.12447	24731.3875
2099.11969	24757.7875
2102.11299	24771.3875
2105.10435	24771.9875
2108.09379	24769.8875
2111.08131	24719.2875
2114.0669	24691.5875
2117.05057	24716.8875
2120.03233	24758.5875
2123.01216	24772.8875
2125.99008	24809.5875
2128.96609	24791.9875
2131.94018	24746.5875
2134.91236	24751.6875
2137.88263	24739.1875
2140.851	24744.2875
2143.81746	24768.5875
2146.78201	24783.3875
2149.74466	24761.7875
2152.7054	24759.9875
2155.66425	24785.1875
2158.6212	24769.6875
2161.57625	24744.7875
2164.52941	24744.4875
2167.48067	24716.6875
2170.43004	24687.8875
2173.37752	24660.3875
2176.32311	24658.3875
2179.26681	24697.5875
2182.20863	24685.3875
2185.14856	24711.8875
2188.08661	24668.9875
2191.02278	24695.3875
2193.95707	24638.5875
2196.88948	24564.5875
2199.82001	24564.5875
2202.74867	24555.2875
2205.67545	24543.1875
2208.60037	24491.7875
2211.52341	24421.0875
2214.44458	24407.1875
2217.36388	24391.4875
2220.28132	24355.8875
2223.1969	24264.5875
2226.11061	24243.8875
2229.02246	24201.4875
2231.93245	24175.5875
2234.84058	24134.1875
2237.74686	24132.4875
2240.65128	24010.7875
2243.55385	23968.8875
2246.45456	23925.0875
2249.35343	23892.7875
2252.25044	23861.5875
2255.14561	23810.0875
2258.03893	23759.7875
2260.93041	23662.5875
2263.82004	23622.4875
2266.70783	23528.7875
2269.59378	23443.2875
2272.4779	23448.9875
2275.36017	23373.8875
2278.24061	23303.3875
2281.11922	23253.8875
2283.996	23260.3875
2286.87094	23208.4875
2289.74405	23163.8875
2292.61534	23132.1875
2295.4848	23080.7875
2298.35243	23099.2875
2301.21824	23028.0875
2304.08223	23020.5875
2306.94439	23008.7875
2309.80474	23037.4875
2312.66327	23026.7875
2315.51999	22975.3875
2318.37489	22936.8875
2321.22797	22936.7875
2324.07925	22898.4875
2326.92871	22854.2875
2329.77637	22804.6875
2332.62222	22797.8875
2335.46626	22703.8875
2338.3085	22674.7875
2341.14893	22702.2875
2343.98756	22690.5875
2346.8244	22637.6875
2349.65943	22652.4875
2352.49267	22608.6875
2355.32411	22665.1875
2358.15376	22645.3875
2360.98161	22692.9875
2363.80768	22669.0875
2366.63195	22601.7875
2369.45444	22562.1875
2372.27514	22519.4875
2375.09405	22499.7875
2377.91118	22467.0875
2380.72652	22392.6875
2383.54009	22306.8875
2386.35187	22324.4875
2389.16188	22240.0875
2391.97011	22221.9875
2394.77657	22182.3875
2397.58125	22134.6875
2400.38416	22127.7875
2403.18529	22012.3875
2405.98466	22029.3875
2408.78226	21992.8875
2411.57809	21983.3875
2414.37216	21936.5875
2417.16446	21946.1875
2419.955	21939.1875
2422.74378	21917.6875
2425.5308	21866.9875
2428.31606	21874.7875
2431.09956	21849.1875
2433.88131	21822.3875
2436.6613	21848.8875
2439.43954	21789.1875
2442.21603	21766.9875
2444.99077	21745.4875
2447.76377	21719.8875
2450.53501	21729.5875
2453.30451	21730.7875
2456.07226	21704.1875
2458.83827	21632.1875
2461.60254	21633.5875
2464.36507	21610.2875
2467.12586	21596.3875
2469.88492	21581.1875
2472.64224	21592.9875
2475.39782	21592.0875
2478.15167	21562.5875
2480.90379	21537.5875
2483.65417	21562.7875
2486.40283	21480.9875
2489.14976	21523.8875
2491.89497	21487.7875
2494.63845	21537.9875
2497.3802	21455.7875
2500.12024	21448.0875
2502.85855	21469.7875
2505.59514	21468.8875
2508.33002	21439.6875
2511.06318	21411.6875
2513.79462	21398.0875
2516.52435	21373.4875
2519.25237	21360.9875
2521.97867	21292.8875
2524.70327	21323.4875
2527.42616	21289.8875
2530.14734	21254.4875
2532.86681	21232.0875
2535.58458	21214.6875
2538.30065	21179.6875
2541.01501	21170.9875
2543.72768	21119.2875
2546.43864	21134.8875
2549.14791	21105.9875
2551.85548	21032.0875
2554.56136	21027.6875
2557.26554	21037.8875
2559.96803	20981.8875
2562.66883	20970.4875
2565.36794	20898.3875
2568.06536	20878.2875
2570.7611	20871.4875
2573.45514	20862.4875
2576.14751	20805.0875
2578.83819	20785.5875
2581.52719	20713.8875
2584.21451	20683.6875
2586.90015	20690.9875
2589.58411	20648.5875
2592.2664	20647.4875
2594.94701	20567.4875
2597.62594	20570.8875
2600.30321	20520.2875
2602.9788	20511.8875
2605.65273	20457.5875
2608.32498	20497.1875
2610.99557	20461.5875
2613.66449	20448.0875
2616.33175	20417.8875
2618.99734	20395.3875
2621.66128	20417.5875
2624.32355	20392.8875
2626.98416	20385.3875
2629.64311	20321.1875
2632.30041	20350.3875
2634.95605	20326.0875
2637.61004	20294.9875
2640.26238	20255.0875
2642.91306	20268.3875
2645.56209	20232.6875
2648.20948	20192.6875
2650.85521	20201.6875
2653.4993	20225.9875
2656.14175	20207.4875
2658.78255	20206.8875
2661.42171	20213.7875
2664.05923	20193.1875
2666.6951	20187.0875
2669.32934	20202.7875
2671.96194	20197.6875
2674.59291	20214.3875
2677.22224	20197.3875
2679.84993	20210.4875
2682.476	20151.7875
2685.10043	20144.8875
2687.72324	20168.7875
2690.34441	20191.6875
2692.96396	20195.0875
2695.58188	20233.9875
2698.19818	20180.0875
2700.81285	20203.2875
2703.4259	20180.0875
2706.03733	20194.9875
2708.64714	20158.2875
2711.25533	20174.0875
2713.86191	20171.8875
2716.46687	20202.2875
2719.07021	20211.6875
2721.67194	20229.5875
2724.27206	20178.9875
2726.87057	20169.0875
2729.46747	20177.6875
2732.06276	20195.5875
2734.65644	20168.1875
2737.24852	20159.9875
2739.83899	20174.7875
2742.42786	20196.5875
2745.01513	20074.5875
2747.60079	20078.2875
2750.18486	20077.2875
2752.76733	20111.1875
2755.3482	20048.4875
2757.92747	20031.8875
2760.50515	19998.1875
2763.08123	20015.4875
2765.65573	19976.8875
2768.22863	19939.7875
2770.79994	19904.0875
2773.36967	19901.1875
2775.9378	19902.1875
2778.50435	19857.0875
2781.06932	19871.0875
2783.6327	19856.6875
2786.1945	19798.2875
2788.75471	19755.9875
2791.31335	19728.5875
2793.87041	19688.4875
2796.42589	19668.3875
2798.97979	19698.8875
2801.53212	19644.4875
2804.08288	19635.1875
2806.63206	19568.6875
2809.17967	19513.6875
2811.72571	19438.4875
2814.27018	19396.2875
2816.81308	19373.9875
2819.35442	19334.0875
2821.89419	19293.7875
2824.43239	19296.2875
2826.96904	19278.6875
2829.50412	19226.0875
2832.03763	19175.8875
2834.56959	19247.3875
2837.1	19198.1875
2839.62884	19163.3875
2842.15613	19143.3875
2844.68186	19154.8875
2847.20604	19203.8875
2849.72867	19196.3875
2852.24974	19178.0875
2854.76927	19167.3875
2857.28724	19140.3875
2859.80367	19091.8875
2862.31855	19055.5875
2864.83189	19057.2875
2867.34368	19003.0875
2869.85393	18987.6875
2872.36264	18963.8875
2874.8698	18953.6875
2877.37543	18946.1875
2879.87952	18955.5875
2882.38207	18899.2875
2884.88308	18880.9875
2887.38256	18906.8875
2889.88051	18891.3875
2892.37692	18900.9875
2894.8718	18921.1875
2897.36515	18941.7875
2899.85698	18956.1875
2902.34727	18900.0875
2904.83604	18926.7875
2907.32328	18947.9875
2909.809	18881.2875
2912.29319	18917.1875
2914.77587	18877.1875
2917.25702	18912.9875
2919.73665	18914.5875
2922.21476	18904.2875
2924.69136	18878.8875
2927.16644	18892.9875
2929.64	18852.4875
2932.11205	18838.4875
2934.58258	18793.2875
2937.05161	18836.1875
2939.51912	18785.0875
2941.98513	18759.4875
2944.44962	18725.9875
2946.91261	18651.0875
2949.37409	18699.6875
2951.83407	18667.2875
2954.29254	18670.5875
2956.74951	18603.0875
2959.20498	18606.5875
2961.65895	18561.8875
2964.11142	18569.0875
2966.56239	18485.8875
2969.01186	18494.1875
2971.45984	18437.8875
2973.90632	18452.1875
2976.35131	18383.6875
2978.7948	18378.0875
2981.23681	18308.6875
2983.67732	18279.9875
2986.11635	18184.8875
2988.55388	18168.5875
2990.98993	18150.1875
2993.4245	18075.1875
2995.85758	17976.3875
2998.28917	17965.4875
3000.71928	17956.4875
3003.14791	17885.5875
3005.57506	17884.3875
3008.00073	17797.4875
3010.42493	17799.3875
3012.84764	17774.6875
3015.26888	17751.0875
3017.68865	17735.0875
3020.10694	17710.3875
3022.52376	17660.8875
3024.9391	17605.1875
3027.35298	17607.4875
3029.76539	17591.9875
3032.17632	17582.1875
3034.5858	17512.6875
3036.9938	17481.3875
3039.40034	17472.3875
3041.80542	17451.4875
3044.20903	17412.0875
3046.61118	17395.6875
3049.01187	17346.5875
3051.4111	17337.0875
3053.80888	17286.4875
3056.20519	17275.2875
3058.60005	17187.0875
3060.99345	17121.2875
3063.3854	17137.5875
3065.7759	17058.7875
3068.16494	16999.5875
3070.55254	16953.0875
3072.93868	16932.2875
3075.32338	16890.5875
3077.70662	16888.7875
3080.08842	16792.6875
3082.46878	16767.1875
3084.84769	16713.4875
3087.22515	16747.3875
3089.60118	16722.7875
3091.97576	16707.5875
3094.3489	16675.4875
3096.72061	16641.3875
3099.09087	16640.8875
3101.4597	16570.1875
3103.82709	16565.5875
3106.19305	16545.7875
3108.55757	16514.4875
3110.92066	16457.8875
3113.28232	16450.5875
3115.64255	16406.3875
3118.00134	16383.0875
3120.35871	16362.9875
3122.71466	16271.8875
3125.06917	16275.3875
3127.42226	16206.4875
3129.77393	16208.1875
3132.12417	16169.3875
3134.47299	16195.2875
3136.82039	16155.9875
3139.16636	16186.8875
3141.51092	16136.6875
3143.85406	16176.3875
3146.19579	16142.8875
3148.53609	16131.9875
3150.87499	16151.4875
3153.21246	16144.9875
3155.54853	16124.3875
3157.88318	16108.7875
3160.21642	16110.8875
3162.54826	16106.9875
3164.87868	16096.3875
3167.2077	16049.4875
3169.5353	16013.9875
3171.86151	16012.7875
3174.18631	16014.2875
3176.5097	15972.7875
3178.83169	15938.5875
3181.15228	15911.7875
3183.47147	15916.5875
3185.78926	15903.0875
3188.10565	15836.1875
3190.42065	15849.8875
3192.73424	15834.6875
3195.04645	15827.2875
3197.35725	15820.5875
3199.66667	15802.6875
3201.97469	15819.4875
3204.28132	15744.5875
3206.58656	15765.3875
3208.8904	15767.7875
3211.19287	15809.2875
3213.49394	15787.0875
3215.79363	15782.9875
3218.09193	15763.9875
3220.38884	15731.8875
3222.68438	15739.8875
3224.97853	15680.5875
3227.2713	15681.9875
3229.56269	15651.7875
3231.8527	15644.6875
3234.14133	15588.0875
3236.42858	15600.8875
3238.71446	15569.1875
3240.99896	15490.6875
3243.28209	15512.4875
3245.56384	15479.2875
3247.84423	15466.3875
3250.12324	15412.1875
3252.40088	15411.1875
3254.67715	15355.9875
3256.95205	15298.0875
3259.22558	15281.2875
3261.49775	15267.9875
3263.76855	15263.2875
3266.03799	15220.7875
3268.30606	15193.0875
3270.57277	15177.1875
3272.83812	15149.1875
3275.10211	15133.0875
3277.36474	15111.5875
3279.62601	15120.8875
3281.88593	15108.5875
3284.14448	15124.6875
3286.40168	15111.1875
3288.65753	15076.8875
3290.91202	15019.9875
3293.16516	14972.9875
3295.41695	14976.7875
3297.66738	14871.9875
3299.91647	14800.2875
3302.16421	14666.5875
3304.4106	14624.8875
3306.65564	14510.8875
3308.89933	14416.6875
3311.14169	14319.7875
3313.38269	14193.8875
3315.62236	14111.9875
3317.86068	13983.4875
3320.09766	13829.0875
3322.3333	13688.4875
3324.5676	13740.0875
3326.80056	13490.3875
3329.03219	13459.4875
3331.26248	2.8875
3333.49143	-0.1125
3335.71905	-0.7125
