Data from AgNPs_FTO_APTES_UA_2uM_CRN_5uM_R6G_10uM_NaF_0.1M_Addition_RamanShift__19__13-00-35-116.txt Node

Date: Wed Feb 02 13:00:35 GMT 2022
User: TCL
Spectrometer: QEP01345
Trigger mode: 4
Integration Time (sec): 7.000000E0
Scans to average: 10
Electric dark correction enabled: true
Nonlinearity correction enabled: false
Boxcar width: 0
XAxis mode: Raman Shifts
Number of Pixels in Spectrum: 1044
>>>>>Begin Spectral Data<<<<<
46.04893	0.4875
50.45542	0.2875
54.85868	-0.9125
59.25871	-0.6125
63.6555	82.2875
68.04907	87.2875
72.43941	88.3875
76.82654	98.3875
81.21044	98.3875
85.59113	102.0875
89.96862	105.0875
94.34289	106.3875
98.71396	111.0875
103.08183	116.0875
107.4465	122.5875
111.80798	127.0875
116.16626	128.7875
120.52136	133.1875
124.87327	138.5875
129.222	143.8875
133.56755	159.7875
137.90993	175.8875
142.24913	197.9875
146.58517	227.4875
150.91804	265.5875
155.24774	326.0875
159.57429	408.4875
163.89768	528.0875
168.21792	705.1875
172.53501	969.7875
176.84895	1357.4875
181.15975	1922.9875
185.46741	2673.8875
189.77193	3714.0875
194.07331	4952.3875
198.37157	6355.0875
202.6667	7827.4875
206.9587	9296.3875
211.24758	10727.1875
215.53334	12211.1875
219.81599	13770.9875
224.09553	15518.6875
228.37195	17449.8875
232.64527	19562.0875
236.91549	21752.5875
241.18261	23947.3875
245.44663	25936.1875
249.70755	27733.7875
253.96539	29246.0875
258.22014	30564.5875
262.4718	31746.7875
266.72039	32619.5875
270.96589	33156.6875
275.20832	33320.7875
279.44768	33199.3875
283.68397	33041.5875
287.91719	32963.5875
292.14735	33019.6875
296.37445	33152.3875
300.59849	33275.9875
304.81948	33367.0875
309.03742	33181.4875
313.25231	32646.8875
317.46415	31727.0875
321.67296	30522.2875
325.87872	29634.7875
330.08145	29101.7875
334.28114	28976.5875
338.47781	29129.8875
342.67145	29454.7875
346.86207	30015.3875
351.04966	30640.3875
355.23424	31316.4875
359.4158	31881.7875
363.59435	32196.2875
367.76989	32496.3875
371.94243	32682.7875
376.11196	32789.6875
380.27849	32923.3875
384.44203	33102.8875
388.60257	33343.9875
392.76012	33697.6875
396.91468	34199.9875
401.06626	34764.3875
405.21485	35109.2875
409.36047	34902.3875
413.50311	34282.7875
417.64277	33791.1875
421.77947	33677.1875
425.9132	33829.5875
430.04396	34066.5875
434.17176	34259.1875
438.2966	34541.6875
442.41849	35084.9875
446.53742	35988.2875
450.6534	37090.7875
454.76644	37968.8875
458.87653	38373.6875
462.98368	38306.1875
467.08789	37915.4875
471.18916	37408.6875
475.2875	36967.1875
479.38291	36811.9875
483.4754	36685.7875
487.56496	36124.2875
491.6516	35451.0875
495.73531	34881.5875
499.81612	34527.1875
503.89401	34667.9875
507.96899	34762.0875
512.04106	34672.3875
516.11023	34349.6875
520.1765	33942.4875
524.23987	33555.3875
528.30034	33084.4875
532.35792	32649.2875
536.41261	32224.9875
540.46441	31830.9875
544.51333	31882.8875
548.55936	32496.7875
552.60252	33403.7875
556.64279	34402.8875
560.6802	35016.3875
564.71473	35362.9875
568.7464	35980.8875
572.7752	36947.5875
576.80114	37727.2875
580.82422	38387.8875
584.84444	38969.6875
588.86181	39262.9875
592.87633	39583.6875
596.888	39779.1875
600.89682	39910.4875
604.9028	41382.5875
608.90594	45222.0875
612.90624	48878.1875
616.90371	45372.8875
620.89834	37345.1875
624.89015	33860.0875
628.87913	33619.5875
632.86528	33708.4875
636.84862	33444.8875
640.82913	32740.4875
644.80683	31727.2875
648.78172	30868.2875
652.75379	30679.7875
656.72306	31067.8875
660.68952	31680.8875
664.65319	31472.0875
668.61405	30887.7875
672.57211	30635.4875
676.52738	30699.4875
680.47986	30647.2875
684.42955	30503.0875
688.37646	30434.5875
692.32058	30612.2875
696.26192	30967.0875
700.20048	31389.9875
704.13626	31661.9875
708.06928	31573.9875
711.99952	31273.5875
715.927	31164.3875
719.85171	31264.1875
723.77365	31119.8875
727.69284	30671.8875
731.60928	30303.4875
735.52295	30138.2875
739.43388	30193.8875
743.34206	30350.2875
747.24749	30536.0875
751.15017	30957.8875
755.05012	31650.2875
758.94733	32866.6875
762.8418	34923.4875
766.73354	38008.4875
770.62254	40851.3875
774.50882	41307.1875
778.39237	38830.2875
782.27321	35553.1875
786.15132	32908.0875
790.02671	31357.1875
793.89938	30628.7875
797.76935	30351.9875
801.6366	30301.3875
805.50115	30232.4875
809.36299	29966.4875
813.22213	29708.8875
817.07857	29531.4875
820.93231	29443.0875
824.78336	29303.4875
828.63172	29138.4875
832.47738	29022.1875
836.32036	29112.4875
840.16066	29279.0875
843.99827	29431.3875
847.8332	29266.8875
851.66546	29094.8875
855.49504	29004.1875
859.32195	28949.1875
863.1462	28833.3875
866.96777	28664.7875
870.78668	28567.8875
874.60293	28529.9875
878.41652	28552.9875
882.22745	28638.3875
886.03573	28786.0875
889.84136	28826.1875
893.64433	28665.4875
897.44466	28494.5875
901.24235	28397.5875
905.0374	28276.5875
908.8298	28241.1875
912.61957	28301.0875
916.40671	28678.2875
920.19121	29222.7875
923.97308	29628.5875
927.75233	29759.9875
931.52895	29559.1875
935.30295	29137.6875
939.07433	28400.7875
942.84309	27855.6875
946.60924	27606.6875
950.37278	27489.5875
954.13371	27434.5875
957.89203	27282.1875
961.64774	27266.2875
965.40086	27210.2875
969.15137	27079.1875
972.89929	26933.9875
976.64461	26852.6875
980.38733	26845.1875
984.12747	26969.5875
987.86502	27255.1875
991.59999	27675.9875
995.33237	28359.0875
999.06217	29421.5875
1002.78939	30670.7875
1006.51404	31425.1875
1010.23611	31829.9875
1013.95561	32057.9875
1017.67255	32074.6875
1021.38692	31682.9875
1025.09872	31310.4875
1028.80796	31563.9875
1032.51465	32710.2875
1036.21877	33864.1875
1039.92035	34033.6875
1043.61937	33431.8875
1047.31584	32401.9875
1051.00976	31255.4875
1054.70114	30769.4875
1058.38998	30697.1875
1062.07627	30887.1875
1065.76003	31098.4875
1069.44126	31391.6875
1073.11995	31820.0875
1076.79611	32209.6875
1080.46974	32519.6875
1084.14085	32814.4875
1087.80943	33237.9875
1091.47549	33610.3875
1095.13903	33564.0875
1098.80005	33137.0875
1102.45857	32281.6875
1106.11456	31570.3875
1109.76805	31341.3875
1113.41903	31328.9875
1117.06751	31537.3875
1120.71348	31953.3875
1124.35696	32307.2875
1127.99793	32802.9875
1131.63641	33067.2875
1135.2724	32923.3875
1138.90589	32699.2875
1142.5369	32612.5875
1146.16542	32740.9875
1149.79145	32949.7875
1153.415	33355.7875
1157.03607	34022.8875
1160.65467	35136.0875
1164.27079	36919.0875
1167.88443	39314.3875
1171.49561	42284.8875
1175.10432	46158.5875
1178.71056	50875.1875
1182.31434	55373.3875
1185.91565	58012.4875
1189.51451	58338.1875
1193.11091	56634.6875
1196.70485	53873.3875
1200.29634	50890.8875
1203.88538	48600.3875
1207.47197	47000.2875
1211.05612	45876.4875
1214.63782	44901.8875
1218.21708	44146.2875
1221.79391	43462.2875
1225.36829	43060.4875
1228.94024	42543.9875
1232.50976	41755.6875
1236.07685	41168.6875
1239.6415	40776.7875
1243.20374	40620.0875
1246.76355	40756.6875
1250.32093	41383.1875
1253.8759	42429.3875
1257.42845	44016.0875
1260.97859	45560.3875
1264.52631	47126.3875
1268.07163	48737.6875
1271.61453	50421.5875
1275.15503	52325.4875
1278.69312	54230.3875
1282.22882	56000.2875
1285.76211	57494.3875
1289.29301	59176.8875
1292.82151	61365.2875
1296.34761	64188.1875
1299.87133	67930.6875
1303.39266	72511.2875
1306.9116	77550.8875
1310.42815	82281.9875
1313.94233	85325.9875
1317.45412	85841.5875
1320.96354	84834.6875
1324.47058	83428.3875
1327.97525	81936.6875
1331.47754	80961.2875
1334.97747	80373.1875
1338.47502	80183.0875
1341.97022	79583.4875
1345.46305	78335.2875
1348.95352	76411.3875
1352.44163	74453.6875
1355.92738	74278.6875
1359.41078	76505.6875
1362.89183	78854.5875
1366.37053	77214.3875
1369.84688	71131.3875
1373.32088	63818.5875
1376.79254	58665.6875
1380.26186	56705.0875
1383.72883	56617.8875
1387.19347	56671.6875
1390.65578	56319.2875
1394.11575	56374.1875
1397.57339	57210.1875
1401.0287	58546.8875
1404.48168	59831.3875
1407.93234	60170.5875
1411.38068	59251.7875
1414.82669	57286.9875
1418.27039	54578.2875
1421.71177	51748.1875
1425.15083	49555.6875
1428.58758	48267.0875
1432.02203	48231.7875
1435.45416	49285.4875
1438.88399	50764.0875
1442.31151	52246.6875
1445.73673	53351.9875
1449.15965	54358.8875
1452.58027	55120.9875
1455.9986	55440.8875
1459.41463	55931.8875
1462.82837	57007.3875
1466.23982	58073.3875
1469.64898	59076.3875
1473.05586	59575.1875
1476.46045	59510.0875
1479.86276	58770.6875
1483.26279	57847.8875
1486.66054	57232.3875
1490.05602	57178.0875
1493.44922	57473.0875
1496.84016	57790.0875
1500.22882	58627.5875
1503.61521	60216.7875
1506.99934	62249.6875
1510.38121	64215.4875
1513.76081	65039.8875
1517.13816	63930.6875
1520.51324	61682.4875
1523.88607	59478.9875
1527.25665	58209.4875
1530.62498	57662.2875
1533.99105	57394.7875
1537.35488	57057.1875
1540.71647	56478.2875
1544.07581	55365.0875
1547.4329	54143.1875
1550.78776	52977.2875
1554.14038	52180.6875
1557.49077	51835.5875
1560.83892	51607.1875
1564.18484	51515.8875
1567.52853	51426.7875
1570.86999	51558.6875
1574.20922	52193.4875
1577.54624	53010.2875
1580.88103	53411.2875
1584.2136	54131.2875
1587.54395	55950.5875
1590.87208	58976.9875
1594.19801	62917.8875
1597.52172	66592.3875
1600.84321	67568.0875
1604.16251	64210.1875
1607.47959	58690.9875
1610.79447	52982.2875
1614.10715	47847.1875
1617.41763	43567.8875
1620.7259	40550.2875
1624.03199	39023.3875
1627.33587	39028.1875
1630.63757	40382.3875
1633.93707	43492.3875
1637.23439	48320.9875
1640.52951	54730.8875
1643.82246	61576.4875
1647.11321	66247.9875
1650.40179	66332.6875
1653.68819	61380.9875
1656.97241	53060.7875
1660.25446	44850.3875
1663.53433	38505.0875
1666.81203	34322.9875
1670.08756	31627.5875
1673.36092	29922.8875
1676.63211	28842.7875
1679.90115	28076.6875
1683.16801	27488.3875
1686.43272	27045.6875
1689.69527	26749.1875
1692.95567	26522.7875
1696.2139	26288.2875
1699.46999	26165.7875
1702.72392	26078.0875
1705.97571	25921.0875
1709.22535	25811.6875
1712.47284	25739.0875
1715.71819	25677.3875
1718.96139	25620.2875
1722.20246	25522.6875
1725.44139	25385.2875
1728.67818	25210.9875
1731.91284	25041.1875
1735.14537	24895.2875
1738.37576	24823.6875
1741.60403	24695.7875
1744.83017	24555.8875
1748.05418	24543.9875
1751.27607	24484.5875
1754.49584	24467.6875
1757.71349	24408.0875
1760.92903	24394.8875
1764.14244	24331.3875
1767.35375	24353.6875
1770.56294	24269.0875
1773.77002	24214.4875
1776.97499	24119.8875
1780.17785	24076.5875
1783.37861	24050.0875
1786.57727	24053.7875
1789.77382	23949.8875
1792.96828	23912.6875
1796.16064	23834.0875
1799.3509	23752.9875
1802.53907	23737.3875
1805.72514	23671.3875
1808.90913	23634.7875
1812.09102	23623.0875
1815.27083	23575.0875
1818.44856	23560.4875
1821.6242	23554.9875
1824.79776	23546.1875
1827.96924	23557.9875
1831.13864	23562.0875
1834.30597	23539.2875
1837.47122	23544.1875
1840.6344	23568.1875
1843.7955	23614.6875
1846.95454	23614.4875
1850.11151	23614.7875
1853.26642	23605.9875
1856.41926	23642.0875
1859.57004	23601.8875
1862.71876	23634.2875
1865.86542	23622.6875
1869.01003	23632.6875
1872.15258	23632.5875
1875.29308	23632.1875
1878.43152	23623.1875
1881.56792	23628.8875
1884.70227	23664.7875
1887.83457	23697.4875
1890.96482	23678.5875
1894.09304	23655.0875
1897.21921	23657.6875
1900.34335	23648.1875
1903.46544	23648.2875
1906.58551	23607.0875
1909.70353	23591.0875
1912.81953	23495.0875
1915.93349	23442.0875
1919.04543	23352.6875
1922.15534	23283.1875
1925.26322	23218.1875
1928.36908	23128.6875
1931.47292	23076.1875
1934.57473	22934.1875
1937.67453	22836.5875
1940.77232	22719.3875
1943.86808	22638.0875
1946.96184	22532.4875
1950.05358	22432.0875
1953.14331	22360.1875
1956.23103	22269.7875
1959.31675	22201.6875
1962.40046	22122.5875
1965.48217	22061.8875
1968.56188	21991.7875
1971.63959	21957.3875
1974.7153	21882.6875
1977.78901	21832.5875
1980.86073	21729.1875
1983.93046	21681.4875
1986.99819	21554.6875
1990.06394	21502.0875
1993.1277	21434.3875
1996.18947	21381.1875
1999.24925	21341.6875
2002.30706	21298.0875
2005.36288	21223.1875
2008.41672	21161.3875
2011.46859	21093.9875
2014.51848	21021.3875
2017.56639	21016.1875
2020.61233	20975.2875
2023.6563	20950.4875
2026.6983	20934.8875
2029.73833	20900.2875
2032.7764	20790.4875
2035.8125	20803.9875
2038.84664	20767.7875
2041.87881	20746.8875
2044.90903	20736.0875
2047.93729	20686.2875
2050.96359	20672.4875
2053.98794	20606.9875
2057.01034	20614.3875
2060.03078	20601.5875
2063.04927	20574.7875
2066.06582	20566.4875
2069.08042	20553.3875
2072.09307	20507.7875
2075.10378	20510.3875
2078.11255	20521.1875
2081.11938	20534.0875
2084.12426	20433.3875
2087.12722	20450.1875
2090.12824	20424.9875
2093.12732	20445.4875
2096.12447	20443.2875
2099.11969	20426.7875
2102.11299	20461.8875
2105.10435	20486.5875
2108.09379	20459.7875
2111.08131	20490.0875
2114.0669	20466.3875
2117.05057	20471.5875
2120.03233	20511.2875
2123.01216	20518.8875
2125.99008	20495.4875
2128.96609	20485.3875
2131.94018	20508.3875
2134.91236	20514.1875
2137.88263	20505.3875
2140.851	20545.4875
2143.81746	20551.6875
2146.78201	20587.7875
2149.74466	20579.3875
2152.7054	20620.4875
2155.66425	20590.6875
2158.6212	20592.9875
2161.57625	20585.2875
2164.52941	20597.4875
2167.48067	20544.4875
2170.43004	20549.0875
2173.37752	20547.0875
2176.32311	20524.9875
2179.26681	20557.5875
2182.20863	20563.9875
2185.14856	20576.7875
2188.08661	20606.2875
2191.02278	20630.2875
2193.95707	20552.3875
2196.88948	20552.0875
2199.82001	20590.8875
2202.74867	20563.4875
2205.67545	20556.9875
2208.60037	20538.8875
2211.52341	20525.8875
2214.44458	20519.5875
2217.36388	20504.8875
2220.28132	20524.9875
2223.1969	20611.8875
2226.11061	20505.4875
2229.02246	20367.7875
2231.93245	20343.1875
2234.84058	20309.8875
2237.74686	20304.5875
2240.65128	20255.6875
2243.55385	20177.9875
2246.45456	20161.7875
2249.35343	20132.4875
2252.25044	20087.2875
2255.14561	20058.3875
2258.03893	20002.5875
2260.93041	19992.0875
2263.82004	19917.5875
2266.70783	19896.8875
2269.59378	19821.0875
2272.4779	19790.3875
2275.36017	19722.5875
2278.24061	19684.6875
2281.11922	19675.0875
2283.996	19668.9875
2286.87094	19646.0875
2289.74405	19629.2875
2292.61534	19602.0875
2295.4848	19614.3875
2298.35243	19601.4875
2301.21824	19599.5875
2304.08223	19620.3875
2306.94439	19649.5875
2309.80474	19635.5875
2312.66327	19681.5875
2315.51999	19697.3875
2318.37489	19706.3875
2321.22797	19692.2875
2324.07925	19635.7875
2326.92871	19643.3875
2329.77637	19647.1875
2332.62222	19639.4875
2335.46626	19615.6875
2338.3085	19618.1875
2341.14893	19646.4875
2343.98756	19654.4875
2346.8244	19689.6875
2349.65943	19685.3875
2352.49267	19677.6875
2355.32411	19704.2875
2358.15376	19676.8875
2360.98161	19678.2875
2363.80768	19682.7875
2366.63195	19648.2875
2369.45444	19567.0875
2372.27514	19550.7875
2375.09405	19493.3875
2377.91118	19423.7875
2380.72652	19384.4875
2383.54009	19355.8875
2386.35187	19311.4875
2389.16188	19274.0875
2391.97011	19282.9875
2394.77657	19266.3875
2397.58125	19216.4875
2400.38416	19193.7875
2403.18529	19135.5875
2405.98466	19128.3875
2408.78226	19108.1875
2411.57809	19085.8875
2414.37216	19029.2875
2417.16446	19027.4875
2419.955	19023.9875
2422.74378	18996.3875
2425.5308	18968.4875
2428.31606	18976.5875
2431.09956	18949.3875
2433.88131	18971.7875
2436.6613	18949.2875
2439.43954	18969.5875
2442.21603	18969.3875
2444.99077	18948.2875
2447.76377	18928.1875
2450.53501	18963.9875
2453.30451	18926.9875
2456.07226	18937.3875
2458.83827	18925.1875
2461.60254	18946.7875
2464.36507	18956.4875
2467.12586	18891.1875
2469.88492	18964.7875
2472.64224	18953.2875
2475.39782	18951.5875
2478.15167	18998.6875
2480.90379	18969.4875
2483.65417	19033.1875
2486.40283	19036.8875
2489.14976	19039.2875
2491.89497	19039.5875
2494.63845	19101.2875
2497.3802	19085.1875
2500.12024	19082.8875
2502.85855	19101.8875
2505.59514	19079.1875
2508.33002	19081.7875
2511.06318	19069.1875
2513.79462	19039.4875
2516.52435	19013.0875
2519.25237	19017.8875
2521.97867	18982.9875
2524.70327	18968.2875
2527.42616	18949.1875
2530.14734	19010.2875
2532.86681	18950.1875
2535.58458	18973.1875
2538.30065	18961.6875
2541.01501	18961.3875
2543.72768	18934.7875
2546.43864	18974.9875
2549.14791	18865.8875
2551.85548	18880.2875
2554.56136	18891.6875
2557.26554	18881.8875
2559.96803	18871.2875
2562.66883	18827.0875
2565.36794	18828.0875
2568.06536	18849.3875
2570.7611	18825.4875
2573.45514	18806.7875
2576.14751	18823.0875
2578.83819	18776.5875
2581.52719	18797.1875
2584.21451	18798.1875
2586.90015	18813.1875
2589.58411	18790.1875
2592.2664	18793.5875
2594.94701	18762.5875
2597.62594	18765.5875
2600.30321	18754.7875
2602.9788	18776.3875
2605.65273	18766.2875
2608.32498	18788.2875
2610.99557	18799.3875
2613.66449	18782.6875
2616.33175	18761.2875
2618.99734	18803.9875
2621.66128	18840.6875
2624.32355	18831.6875
2626.98416	18854.1875
2629.64311	18844.5875
2632.30041	18854.8875
2634.95605	18890.5875
2637.61004	18835.3875
2640.26238	18801.7875
2642.91306	18788.6875
2645.56209	18784.3875
2648.20948	18747.9875
2650.85521	18751.2875
2653.4993	18737.2875
2656.14175	18732.0875
2658.78255	18739.5875
2661.42171	18750.5875
2664.05923	18778.7875
2666.6951	18774.6875
2669.32934	18778.8875
2671.96194	18755.4875
2674.59291	18820.3875
2677.22224	18801.6875
2679.84993	18781.0875
2682.476	18734.1875
2685.10043	18750.0875
2687.72324	18733.3875
2690.34441	18727.6875
2692.96396	18745.1875
2695.58188	18748.9875
2698.19818	18740.1875
2700.81285	18713.0875
2703.4259	18710.4875
2706.03733	18759.6875
2708.64714	18737.6875
2711.25533	18756.0875
2713.86191	18726.6875
2716.46687	18791.0875
2719.07021	18824.4875
2721.67194	18828.2875
2724.27206	18809.6875
2726.87057	18820.4875
2729.46747	18790.0875
2732.06276	18822.7875
2734.65644	18828.7875
2737.24852	18853.7875
2739.83899	18861.0875
2742.42786	18863.8875
2745.01513	18799.0875
2747.60079	18802.5875
2750.18486	18842.4875
2752.76733	18821.4875
2755.3482	18797.9875
2757.92747	18799.1875
2760.50515	18803.2875
2763.08123	18817.1875
2765.65573	18774.1875
2768.22863	18796.3875
2770.79994	18759.1875
2773.36967	18755.3875
2775.9378	18792.6875
2778.50435	18789.5875
2781.06932	18791.2875
2783.6327	18783.7875
2786.1945	18740.9875
2788.75471	18735.6875
2791.31335	18700.1875
2793.87041	18688.7875
2796.42589	18691.8875
2798.97979	18703.1875
2801.53212	18655.9875
2804.08288	18686.2875
2806.63206	18602.6875
2809.17967	18535.2875
2811.72571	18502.1875
2814.27018	18475.6875
2816.81308	18496.3875
2819.35442	18489.5875
2821.89419	18426.3875
2824.43239	18404.9875
2826.96904	18398.3875
2829.50412	18386.2875
2832.03763	18353.6875
2834.56959	18372.6875
2837.1	18349.7875
2839.62884	18350.6875
2842.15613	18314.0875
2844.68186	18341.6875
2847.20604	18367.6875
2849.72867	18381.4875
2852.24974	18372.7875
2854.76927	18362.9875
2857.28724	18375.6875
2859.80367	18351.4875
2862.31855	18275.8875
2864.83189	18309.2875
2867.34368	18297.9875
2869.85393	18278.0875
2872.36264	18255.0875
2874.8698	18300.4875
2877.37543	18306.7875
2879.87952	18305.3875
2882.38207	18307.7875
2884.88308	18278.0875
2887.38256	18285.7875
2889.88051	18275.0875
2892.37692	18353.5875
2894.8718	18357.7875
2897.36515	18415.5875
2899.85698	18354.5875
2902.34727	18380.4875
2904.83604	18420.4875
2907.32328	18468.7875
2909.809	18423.4875
2912.29319	18439.3875
2914.77587	18455.8875
2917.25702	18468.2875
2919.73665	18481.0875
2922.21476	18477.6875
2924.69136	18464.1875
2927.16644	18446.5875
2929.64	18413.5875
2932.11205	18373.7875
2934.58258	18302.6875
2937.05161	18321.5875
2939.51912	18303.7875
2941.98513	18321.3875
2944.44962	18242.7875
2946.91261	18169.3875
2949.37409	18236.0875
2951.83407	18209.6875
2954.29254	18231.3875
2956.74951	18160.4875
2959.20498	18129.1875
2961.65895	18125.0875
2964.11142	18084.3875
2966.56239	18043.3875
2969.01186	18057.8875
2971.45984	18004.2875
2973.90632	17975.2875
2976.35131	17923.0875
2978.7948	17862.3875
2981.23681	17831.2875
2983.67732	17776.2875
2986.11635	17714.6875
2988.55388	17658.9875
2990.98993	17637.6875
2993.4245	17567.4875
2995.85758	17557.9875
2998.28917	17537.6875
3000.71928	17493.5875
3003.14791	17452.0875
3005.57506	17431.1875
3008.00073	17402.8875
3010.42493	17371.3875
3012.84764	17331.1875
3015.26888	17352.6875
3017.68865	17288.6875
3020.10694	17278.1875
3022.52376	17208.7875
3024.9391	17179.6875
3027.35298	17189.8875
3029.76539	17182.9875
3032.17632	17178.7875
3034.5858	17134.3875
3036.9938	17131.5875
3039.40034	17062.4875
3041.80542	17151.5875
3044.20903	17076.5875
3046.61118	17053.6875
3049.01187	17039.0875
3051.4111	17004.8875
3053.80888	16976.2875
3056.20519	16935.3875
3058.60005	16900.8875
3060.99345	16853.5875
3063.3854	16814.1875
3065.7759	16776.5875
3068.16494	16732.0875
3070.55254	16656.6875
3072.93868	16648.8875
3075.32338	16603.6875
3077.70662	16574.1875
3080.08842	16504.7875
3082.46878	16506.3875
3084.84769	16453.9875
3087.22515	16450.2875
3089.60118	16445.1875
3091.97576	16451.8875
3094.3489	16444.9875
3096.72061	16415.1875
3099.09087	16383.3875
3101.4597	16372.0875
3103.82709	16346.6875
3106.19305	16296.2875
3108.55757	16297.5875
3110.92066	16237.8875
3113.28232	16213.1875
3115.64255	16210.5875
3118.00134	16148.5875
3120.35871	16141.7875
3122.71466	16130.0875
3125.06917	16078.0875
3127.42226	16017.8875
3129.77393	16036.4875
3132.12417	16044.8875
3134.47299	16023.7875
3136.82039	15994.1875
3139.16636	15999.2875
3141.51092	16002.4875
3143.85406	16001.2875
3146.19579	15969.6875
3148.53609	15956.4875
3150.87499	16012.3875
3153.21246	15997.6875
3155.54853	16036.0875
3157.88318	15968.7875
3160.21642	15996.1875
3162.54826	15959.6875
3164.87868	15965.1875
3167.2077	15947.6875
3169.5353	15901.2875
3171.86151	15909.7875
3174.18631	15918.4875
3176.5097	15903.0875
3178.83169	15888.1875
3181.15228	15917.3875
3183.47147	15859.1875
3185.78926	15826.7875
3188.10565	15831.8875
3190.42065	15830.7875
3192.73424	15860.5875
3195.04645	15859.1875
3197.35725	15879.0875
3199.66667	15858.3875
3201.97469	15838.2875
3204.28132	15820.1875
3206.58656	15796.4875
3208.8904	15855.8875
3211.19287	15867.3875
3213.49394	15867.0875
3215.79363	15856.8875
3218.09193	15833.0875
3220.38884	15815.7875
3222.68438	15858.3875
3224.97853	15836.1875
3227.2713	15827.8875
3229.56269	15774.8875
3231.8527	15778.3875
3234.14133	15768.7875
3236.42858	15753.9875
3238.71446	15718.0875
3240.99896	15720.4875
3243.28209	15688.3875
3245.56384	15671.9875
3247.84423	15639.3875
3250.12324	15597.0875
3252.40088	15612.6875
3254.67715	15562.8875
3256.95205	15508.9875
3259.22558	15504.1875
3261.49775	15512.4875
3263.76855	15490.2875
3266.03799	15483.5875
3268.30606	15407.1875
3270.57277	15380.1875
3272.83812	15411.2875
3275.10211	15384.0875
3277.36474	15345.3875
3279.62601	15370.8875
3281.88593	15385.9875
3284.14448	15405.3875
3286.40168	15419.1875
3288.65753	15374.5875
3290.91202	15335.9875
3293.16516	15265.5875
3295.41695	15252.2875
3297.66738	15148.7875
3299.91647	15076.0875
3302.16421	15012.2875
3304.4106	14938.3875
3306.65564	14874.0875
3308.89933	14750.4875
3311.14169	14660.4875
3313.38269	14550.4875
3315.62236	14466.9875
3317.86068	14300.3875
3320.09766	14194.2875
3322.3333	14091.8875
3324.5676	14060.4875
3326.80056	13844.2875
3329.03219	13788.0875
3331.26248	4.0875
3333.49143	-2.3125
3335.71905	-0.5125
