Data from AgNPs_FTO_APTES_UA_2uM_CRN_200uM_R6G_10uM_NaF_0.1M_Addition_RamanShift__3__16-22-25-351.txt Node

Date: Wed Feb 02 16:22:25 GMT 2022
User: TCL
Spectrometer: QEP01345
Trigger mode: 4
Integration Time (sec): 7.000000E0
Scans to average: 10
Electric dark correction enabled: true
Nonlinearity correction enabled: false
Boxcar width: 0
XAxis mode: Raman Shifts
Number of Pixels in Spectrum: 1044
>>>>>Begin Spectral Data<<<<<
46.04893	-0.4125
50.45542	0.6875
54.85868	-1.4125
59.25871	0.2875
63.6555	65.5875
68.04907	71.3875
72.43941	71.2875
76.82654	81.7875
81.21044	83.0875
85.59113	85.7875
89.96862	89.8875
94.34289	93.2875
98.71396	94.2875
103.08183	99.9875
107.4465	102.2875
111.80798	102.4875
116.16626	105.3875
120.52136	106.6875
124.87327	115.6875
129.222	118.3875
133.56755	123.4875
137.90993	127.3875
142.24913	145.9875
146.58517	162.6875
150.91804	186.5875
155.24774	223.0875
159.57429	272.1875
163.89768	345.9875
168.21792	458.6875
172.53501	619.6875
176.84895	867.6875
181.15975	1219.4875
185.46741	1699.6875
189.77193	2332.8875
194.07331	3116.0875
198.37157	4018.1875
202.6667	4962.8875
206.9587	5878.2875
211.24758	6802.5875
215.53334	7712.9875
219.81599	8709.7875
224.09553	9792.0875
228.37195	10962.3875
232.64527	12242.8875
236.91549	13550.1875
241.18261	14882.7875
245.44663	16142.5875
249.70755	17229.0875
253.96539	18231.4875
258.22014	19061.1875
262.4718	19760.4875
266.72039	20237.8875
270.96589	20528.1875
275.20832	20581.2875
279.44768	20503.9875
283.68397	20408.8875
287.91719	20296.4875
292.14735	20285.2875
296.37445	20378.4875
300.59849	20509.7875
304.81948	20629.3875
309.03742	20545.3875
313.25231	20317.4875
317.46415	19845.6875
321.67296	19260.9875
325.87872	18742.8875
330.08145	18448.0875
334.28114	18296.3875
338.47781	18324.6875
342.67145	18474.4875
346.86207	18749.5875
351.04966	19009.2875
355.23424	19283.4875
359.4158	19551.2875
363.59435	19784.2875
367.76989	19869.3875
371.94243	19975.2875
376.11196	20020.6875
380.27849	20120.5875
384.44203	20221.4875
388.60257	20450.7875
392.76012	20712.7875
396.91468	21028.2875
401.06626	21376.2875
405.21485	21527.8875
409.36047	21498.7875
413.50311	21229.4875
417.64277	21082.8875
421.77947	21079.7875
425.9132	21154.0875
430.04396	21303.1875
434.17176	21442.9875
438.2966	21569.1875
442.41849	21946.3875
446.53742	22621.6875
450.6534	23384.3875
454.76644	23977.2875
458.87653	24134.3875
462.98368	23950.5875
467.08789	23667.9875
471.18916	23429.6875
475.2875	23275.5875
479.38291	23352.1875
483.4754	23344.6875
487.56496	22991.7875
491.6516	22364.4875
495.73531	21704.4875
499.81612	21218.5875
503.89401	21206.0875
507.96899	21224.9875
512.04106	21080.1875
516.11023	20881.1875
520.1765	20583.0875
524.23987	20251.8875
528.30034	20021.8875
532.35792	19787.4875
536.41261	19563.3875
540.46441	19376.3875
544.51333	19404.4875
548.55936	19742.9875
552.60252	20345.5875
556.64279	21039.6875
560.6802	21654.9875
564.71473	22046.5875
568.7464	22614.2875
572.7752	23557.4875
576.80114	24425.1875
580.82422	25204.7875
584.84444	26062.2875
588.86181	27111.7875
592.87633	27880.8875
596.888	27388.8875
600.89682	25893.6875
604.9028	25222.7875
608.90594	26234.4875
612.90624	27484.4875
616.90371	25551.8875
620.89834	21534.2875
624.89015	19722.7875
628.87913	19501.8875
632.86528	19680.2875
636.84862	19614.9875
640.82913	19300.5875
644.80683	18841.2875
648.78172	18534.3875
652.75379	18469.6875
656.72306	18619.2875
660.68952	18785.6875
664.65319	18656.3875
668.61405	18315.0875
672.57211	18241.6875
676.52738	18356.8875
680.47986	18370.7875
684.42955	18276.0875
688.37646	18175.9875
692.32058	18254.7875
696.26192	18486.3875
700.20048	18804.4875
704.13626	19005.7875
708.06928	19120.5875
711.99952	19054.3875
715.927	19079.3875
719.85171	19101.9875
723.77365	19036.5875
727.69284	18723.5875
731.60928	18452.1875
735.52295	18340.1875
739.43388	18332.5875
743.34206	18371.7875
747.24749	18484.1875
751.15017	18744.4875
755.05012	19207.1875
758.94733	19899.4875
762.8418	21018.8875
766.73354	22518.4875
770.62254	23862.2875
774.50882	23888.9875
778.39237	22677.2875
782.27321	20975.8875
786.15132	19549.1875
790.02671	18727.0875
793.89938	18335.7875
797.76935	18158.2875
801.6366	18107.6875
805.50115	18109.6875
809.36299	18015.5875
813.22213	17868.0875
817.07857	17834.5875
820.93231	17763.9875
824.78336	17603.6875
828.63172	17439.9875
832.47738	17361.9875
836.32036	17390.1875
840.16066	17403.1875
843.99827	17414.9875
847.8332	17339.0875
851.66546	17302.7875
855.49504	17291.1875
859.32195	17239.6875
863.1462	17191.8875
866.96777	17098.6875
870.78668	17067.2875
874.60293	17043.2875
878.41652	17062.9875
882.22745	17123.7875
886.03573	17136.9875
889.84136	17144.0875
893.64433	17092.9875
897.44466	17010.7875
901.24235	16936.4875
905.0374	16893.8875
908.8298	16853.3875
912.61957	16961.7875
916.40671	17174.6875
920.19121	17540.6875
923.97308	17751.4875
927.75233	17737.2875
931.52895	17440.6875
935.30295	17088.7875
939.07433	16706.2875
942.84309	16396.6875
946.60924	16194.8875
950.37278	16152.2875
954.13371	16163.0875
957.89203	16187.9875
961.64774	16239.5875
965.40086	16205.2875
969.15137	16104.9875
972.89929	15968.3875
976.64461	15837.5875
980.38733	15771.1875
984.12747	15796.5875
987.86502	15889.2875
991.59999	15989.9875
995.33237	16157.5875
999.06217	16537.5875
1002.78939	16919.2875
1006.51404	17229.6875
1010.23611	17476.0875
1013.95561	17706.5875
1017.67255	17804.5875
1021.38692	17675.6875
1025.09872	17324.6875
1028.80796	17104.6875
1032.51465	17226.5875
1036.21877	17470.4875
1039.92035	17597.7875
1043.61937	17605.8875
1047.31584	17512.7875
1051.00976	17371.0875
1054.70114	17362.3875
1058.38998	17472.3875
1062.07627	17673.8875
1065.76003	17926.4875
1069.44126	18168.3875
1073.11995	18434.7875
1076.79611	18638.2875
1080.46974	18691.0875
1084.14085	18798.2875
1087.80943	18986.0875
1091.47549	19261.7875
1095.13903	19405.2875
1098.80005	19209.2875
1102.45857	18662.9875
1106.11456	18175.8875
1109.76805	17964.2875
1113.41903	17988.9875
1117.06751	18099.2875
1120.71348	18340.8875
1124.35696	18581.2875
1127.99793	18928.9875
1131.63641	19140.0875
1135.2724	19044.1875
1138.90589	18991.5875
1142.5369	19124.2875
1146.16542	19444.5875
1149.79145	19796.2875
1153.415	20213.5875
1157.03607	20703.1875
1160.65467	21577.3875
1164.27079	22867.1875
1167.88443	24417.6875
1171.49561	25987.2875
1175.10432	27878.4875
1178.71056	30236.1875
1182.31434	32453.5875
1185.91565	33370.5875
1189.51451	32976.7875
1193.11091	32008.5875
1196.70485	30856.4875
1200.29634	29733.4875
1203.88538	29041.9875
1207.47197	28805.5875
1211.05612	28633.4875
1214.63782	28063.0875
1218.21708	27027.7875
1221.79391	25914.4875
1225.36829	25103.1875
1228.94024	24537.4875
1232.50976	24043.0875
1236.07685	23564.3875
1239.6415	23302.3875
1243.20374	23351.9875
1246.76355	23564.0875
1250.32093	23960.2875
1253.8759	24511.5875
1257.42845	25261.8875
1260.97859	26027.9875
1264.52631	26807.3875
1268.07163	27591.6875
1271.61453	28481.1875
1275.15503	29409.2875
1278.69312	30573.4875
1282.22882	31856.8875
1285.76211	33387.1875
1289.29301	35286.8875
1292.82151	37706.6875
1296.34761	40542.8875
1299.87133	43667.4875
1303.39266	46583.2875
1306.9116	48860.8875
1310.42815	50491.1875
1313.94233	51273.7875
1317.45412	51028.0875
1320.96354	50320.3875
1324.47058	49604.9875
1327.97525	49200.6875
1331.47754	48884.4875
1334.97747	48473.7875
1338.47502	47679.8875
1341.97022	46593.1875
1345.46305	45309.5875
1348.95352	44184.2875
1352.44163	43839.1875
1355.92738	44443.8875
1359.41078	45934.5875
1362.89183	47090.7875
1366.37053	46240.3875
1369.84688	42657.0875
1373.32088	37972.9875
1376.79254	34785.6875
1380.26186	34002.5875
1383.72883	34566.9875
1387.19347	35066.3875
1390.65578	35153.0875
1394.11575	35367.6875
1397.57339	36112.7875
1401.0287	37121.9875
1404.48168	37758.3875
1407.93234	37441.6875
1411.38068	36148.2875
1414.82669	34211.7875
1418.27039	32146.1875
1421.71177	30135.4875
1425.15083	28500.4875
1428.58758	27632.1875
1432.02203	27873.0875
1435.45416	28807.7875
1438.88399	30066.1875
1442.31151	31080.8875
1445.73673	31717.4875
1449.15965	32322.3875
1452.58027	32639.0875
1455.9986	32779.0875
1459.41463	32892.1875
1462.82837	33202.3875
1466.23982	33759.0875
1469.64898	34147.7875
1473.05586	34426.1875
1476.46045	34382.7875
1479.86276	34003.1875
1483.26279	33383.7875
1486.66054	32932.2875
1490.05602	32894.0875
1493.44922	33059.0875
1496.84016	33308.3875
1500.22882	33871.9875
1503.61521	34606.1875
1506.99934	35616.5875
1510.38121	36501.7875
1513.76081	36794.0875
1517.13816	36325.7875
1520.51324	35463.8875
1523.88607	34920.6875
1527.25665	34951.7875
1530.62498	35278.8875
1533.99105	35322.3875
1537.35488	34807.7875
1540.71647	33936.4875
1544.07581	32653.0875
1547.4329	31399.1875
1550.78776	30279.7875
1554.14038	29479.6875
1557.49077	28983.4875
1560.83892	28781.3875
1564.18484	28752.6875
1567.52853	28841.0875
1570.86999	29333.8875
1574.20922	30132.8875
1577.54624	31058.0875
1580.88103	31824.7875
1584.2136	32668.8875
1587.54395	34040.5875
1590.87208	36105.4875
1594.19801	38314.3875
1597.52172	40218.3875
1600.84321	40455.5875
1604.16251	38187.8875
1607.47959	34445.5875
1610.79447	30520.3875
1614.10715	27166.0875
1617.41763	24680.2875
1620.7259	23109.2875
1624.03199	22350.1875
1627.33587	22420.7875
1630.63757	23353.0875
1633.93707	25318.3875
1637.23439	28536.7875
1640.52951	33178.0875
1643.82246	38731.5875
1647.11321	43288.3875
1650.40179	44185.7875
1653.68819	40571.7875
1656.97241	34324.5875
1660.25446	28223.8875
1663.53433	23635.9875
1666.81203	20660.6875
1670.08756	18792.0875
1673.36092	17623.8875
1676.63211	16875.8875
1679.90115	16368.4875
1683.16801	16005.0875
1686.43272	15730.0875
1689.69527	15542.7875
1692.95567	15367.9875
1696.2139	15268.2875
1699.46999	15159.8875
1702.72392	15057.3875
1705.97571	15005.3875
1709.22535	14912.1875
1712.47284	14851.4875
1715.71819	14780.9875
1718.96139	14752.2875
1722.20246	14698.5875
1725.44139	14605.9875
1728.67818	14525.0875
1731.91284	14414.6875
1735.14537	14310.3875
1738.37576	14255.4875
1741.60403	14184.4875
1744.83017	14152.8875
1748.05418	14145.8875
1751.27607	14085.6875
1754.49584	14054.3875
1757.71349	14071.1875
1760.92903	14033.0875
1764.14244	14017.2875
1767.35375	13982.7875
1770.56294	13931.9875
1773.77002	13880.4875
1776.97499	13873.9875
1780.17785	13794.6875
1783.37861	13767.1875
1786.57727	13736.9875
1789.77382	13697.4875
1792.96828	13650.3875
1796.16064	13615.5875
1799.3509	13580.0875
1802.53907	13523.1875
1805.72514	13506.3875
1808.90913	13498.7875
1812.09102	13446.4875
1815.27083	13402.8875
1818.44856	13413.6875
1821.6242	13378.6875
1824.79776	13354.1875
1827.96924	13372.5875
1831.13864	13349.5875
1834.30597	13364.7875
1837.47122	13342.8875
1840.6344	13311.6875
1843.7955	13339.5875
1846.95454	13317.2875
1850.11151	13342.9875
1853.26642	13335.6875
1856.41926	13265.7875
1859.57004	13282.0875
1862.71876	13266.7875
1865.86542	13236.4875
1869.01003	13234.3875
1872.15258	13234.8875
1875.29308	13196.0875
1878.43152	13187.5875
1881.56792	13153.1875
1884.70227	13150.5875
1887.83457	13132.4875
1890.96482	13122.4875
1894.09304	13107.1875
1897.21921	13057.9875
1900.34335	13092.5875
1903.46544	13054.3875
1906.58551	13018.7875
1909.70353	12995.0875
1912.81953	12954.7875
1915.93349	12938.4875
1919.04543	12922.4875
1922.15534	12882.5875
1925.26322	12864.7875
1928.36908	12805.3875
1931.47292	12794.0875
1934.57473	12750.7875
1937.67453	12718.9875
1940.77232	12671.9875
1943.86808	12676.8875
1946.96184	12627.5875
1950.05358	12590.0875
1953.14331	12532.3875
1956.23103	12510.3875
1959.31675	12478.2875
1962.40046	12424.4875
1965.48217	12358.4875
1968.56188	12344.7875
1971.63959	12308.4875
1974.7153	12262.0875
1977.78901	12254.4875
1980.86073	12199.6875
1983.93046	12132.8875
1986.99819	12102.3875
1990.06394	12078.7875
1993.1277	12045.1875
1996.18947	12005.8875
1999.24925	11964.4875
2002.30706	11931.2875
2005.36288	11882.9875
2008.41672	11850.6875
2011.46859	11810.0875
2014.51848	11782.9875
2017.56639	11745.2875
2020.61233	11736.7875
2023.6563	11704.7875
2026.6983	11678.8875
2029.73833	11675.2875
2032.7764	11649.6875
2035.8125	11623.8875
2038.84664	11593.0875
2041.87881	11596.0875
2044.90903	11564.4875
2047.93729	11559.9875
2050.96359	11532.1875
2053.98794	11496.6875
2057.01034	11534.0875
2060.03078	11493.8875
2063.04927	11485.8875
2066.06582	11486.6875
2069.08042	11471.4875
2072.09307	11469.9875
2075.10378	11419.1875
2078.11255	11446.8875
2081.11938	11417.6875
2084.12426	11428.7875
2087.12722	11403.9875
2090.12824	11407.0875
2093.12732	11413.2875
2096.12447	11390.9875
2099.11969	11423.8875
2102.11299	11417.9875
2105.10435	11440.1875
2108.09379	11421.2875
2111.08131	11428.6875
2114.0669	11417.8875
2117.05057	11439.0875
2120.03233	11430.1875
2123.01216	11448.4875
2125.99008	11451.6875
2128.96609	11455.5875
2131.94018	11450.2875
2134.91236	11436.2875
2137.88263	11429.1875
2140.851	11442.2875
2143.81746	11447.8875
2146.78201	11450.5875
2149.74466	11435.9875
2152.7054	11440.3875
2155.66425	11428.8875
2158.6212	11451.2875
2161.57625	11414.4875
2164.52941	11433.2875
2167.48067	11417.9875
2170.43004	11395.7875
2173.37752	11404.8875
2176.32311	11376.0875
2179.26681	11406.1875
2182.20863	11392.8875
2185.14856	11417.5875
2188.08661	11384.2875
2191.02278	11388.9875
2193.95707	11385.9875
2196.88948	11393.0875
2199.82001	11359.3875
2202.74867	11350.1875
2205.67545	11335.0875
2208.60037	11315.8875
2211.52341	11291.6875
2214.44458	11275.2875
2217.36388	11254.9875
2220.28132	11251.7875
2223.1969	11243.1875
2226.11061	11228.2875
2229.02246	11195.4875
2231.93245	11158.9875
2234.84058	11160.1875
2237.74686	11140.3875
2240.65128	11127.0875
2243.55385	11105.2875
2246.45456	11087.7875
2249.35343	11087.2875
2252.25044	11063.9875
2255.14561	11035.5875
2258.03893	11019.3875
2260.93041	10993.6875
2263.82004	10975.7875
2266.70783	10924.3875
2269.59378	10875.4875
2272.4779	10875.6875
2275.36017	10807.1875
2278.24061	10809.6875
2281.11922	10770.8875
2283.996	10781.4875
2286.87094	10735.7875
2289.74405	10721.0875
2292.61534	10723.9875
2295.4848	10708.0875
2298.35243	10707.3875
2301.21824	10705.1875
2304.08223	10695.7875
2306.94439	10711.8875
2309.80474	10684.4875
2312.66327	10710.4875
2315.51999	10694.0875
2318.37489	10685.9875
2321.22797	10660.4875
2324.07925	10634.8875
2326.92871	10632.9875
2329.77637	10636.4875
2332.62222	10629.1875
2335.46626	10605.7875
2338.3085	10612.4875
2341.14893	10611.5875
2343.98756	10608.7875
2346.8244	10604.2875
2349.65943	10612.3875
2352.49267	10619.5875
2355.32411	10607.7875
2358.15376	10592.4875
2360.98161	10595.6875
2363.80768	10575.0875
2366.63195	10564.5875
2369.45444	10538.3875
2372.27514	10551.1875
2375.09405	10529.3875
2377.91118	10522.2875
2380.72652	10502.9875
2383.54009	10469.3875
2386.35187	10475.7875
2389.16188	10435.4875
2391.97011	10408.2875
2394.77657	10391.7875
2397.58125	10390.2875
2400.38416	10346.1875
2403.18529	10338.6875
2405.98466	10334.4875
2408.78226	10311.3875
2411.57809	10308.1875
2414.37216	10267.3875
2417.16446	10306.3875
2419.955	10277.5875
2422.74378	10284.4875
2425.5308	10269.2875
2428.31606	10273.4875
2431.09956	10282.8875
2433.88131	10222.5875
2436.6613	10251.0875
2439.43954	10246.8875
2442.21603	10219.6875
2444.99077	10205.0875
2447.76377	10213.6875
2450.53501	10226.5875
2453.30451	10243.1875
2456.07226	10209.4875
2458.83827	10207.1875
2461.60254	10207.9875
2464.36507	10252.9875
2467.12586	10215.7875
2469.88492	10235.5875
2472.64224	10226.6875
2475.39782	10231.8875
2478.15167	10238.3875
2480.90379	10232.6875
2483.65417	10219.1875
2486.40283	10218.0875
2489.14976	10243.0875
2491.89497	10240.2875
2494.63845	10245.3875
2497.3802	10227.1875
2500.12024	10236.7875
2502.85855	10224.6875
2505.59514	10233.2875
2508.33002	10225.1875
2511.06318	10203.5875
2513.79462	10217.9875
2516.52435	10194.4875
2519.25237	10184.8875
2521.97867	10166.2875
2524.70327	10155.2875
2527.42616	10159.9875
2530.14734	10148.5875
2532.86681	10131.5875
2535.58458	10177.1875
2538.30065	10143.8875
2541.01501	10126.4875
2543.72768	10119.0875
2546.43864	10080.8875
2549.14791	10071.9875
2551.85548	10112.8875
2554.56136	10093.4875
2557.26554	10090.2875
2559.96803	10067.0875
2562.66883	10083.8875
2565.36794	10089.5875
2568.06536	10085.1875
2570.7611	10058.1875
2573.45514	10063.2875
2576.14751	10061.7875
2578.83819	10033.0875
2581.52719	10041.3875
2584.21451	10023.8875
2586.90015	10026.0875
2589.58411	10058.4875
2592.2664	10019.8875
2594.94701	10031.9875
2597.62594	10002.0875
2600.30321	10002.8875
2602.9788	10005.4875
2605.65273	9960.4875
2608.32498	10004.0875
2610.99557	10004.4875
2613.66449	9998.5875
2616.33175	10003.6875
2618.99734	10001.0875
2621.66128	9982.6875
2624.32355	9990.3875
2626.98416	10021.2875
2629.64311	10001.6875
2632.30041	9981.0875
2634.95605	9995.3875
2637.61004	9976.5875
2640.26238	9966.0875
2642.91306	9966.7875
2645.56209	9959.2875
2648.20948	9979.0875
2650.85521	9967.4875
2653.4993	9969.5875
2656.14175	9964.4875
2658.78255	9976.0875
2661.42171	9991.8875
2664.05923	10015.5875
2666.6951	10009.0875
2669.32934	10009.9875
2671.96194	10007.7875
2674.59291	10018.9875
2677.22224	10003.1875
2679.84993	10005.3875
2682.476	10007.6875
2685.10043	9999.5875
2687.72324	10001.9875
2690.34441	9981.2875
2692.96396	9997.4875
2695.58188	10028.5875
2698.19818	9974.3875
2700.81285	9997.1875
2703.4259	10020.9875
2706.03733	10062.8875
2708.64714	10051.5875
2711.25533	10060.3875
2713.86191	10028.4875
2716.46687	10046.9875
2719.07021	10069.2875
2721.67194	10079.9875
2724.27206	10069.4875
2726.87057	10061.6875
2729.46747	10085.9875
2732.06276	10083.6875
2734.65644	10081.2875
2737.24852	10087.2875
2739.83899	10072.8875
2742.42786	10088.4875
2745.01513	10068.0875
2747.60079	10077.2875
2750.18486	10076.7875
2752.76733	10058.6875
2755.3482	10049.8875
2757.92747	10075.1875
2760.50515	10062.4875
2763.08123	10087.7875
2765.65573	10083.9875
2768.22863	10078.0875
2770.79994	10079.2875
2773.36967	10072.2875
2775.9378	10071.6875
2778.50435	10049.1875
2781.06932	10044.5875
2783.6327	10059.2875
2786.1945	10041.2875
2788.75471	10048.3875
2791.31335	10047.5875
2793.87041	10008.6875
2796.42589	10010.6875
2798.97979	10025.2875
2801.53212	9990.8875
2804.08288	9996.7875
2806.63206	9979.5875
2809.17967	9969.5875
2811.72571	9935.3875
2814.27018	9933.1875
2816.81308	9910.0875
2819.35442	9874.9875
2821.89419	9867.3875
2824.43239	9865.4875
2826.96904	9856.4875
2829.50412	9854.6875
2832.03763	9833.0875
2834.56959	9850.5875
2837.1	9848.6875
2839.62884	9883.3875
2842.15613	9871.4875
2844.68186	9889.9875
2847.20604	9940.8875
2849.72867	9961.9875
2852.24974	9989.7875
2854.76927	9959.0875
2857.28724	9950.4875
2859.80367	9909.9875
2862.31855	9888.4875
2864.83189	9877.0875
2867.34368	9898.4875
2869.85393	9883.4875
2872.36264	9878.2875
2874.8698	9885.0875
2877.37543	9891.6875
2879.87952	9871.9875
2882.38207	9888.9875
2884.88308	9893.9875
2887.38256	9883.9875
2889.88051	9861.8875
2892.37692	9874.1875
2894.8718	9875.7875
2897.36515	9890.1875
2899.85698	9909.5875
2902.34727	9928.6875
2904.83604	9923.0875
2907.32328	9946.8875
2909.809	9951.3875
2912.29319	9944.3875
2914.77587	9947.8875
2917.25702	9954.1875
2919.73665	9931.9875
2922.21476	9920.6875
2924.69136	9958.0875
2927.16644	9939.8875
2929.64	9954.6875
2932.11205	9960.7875
2934.58258	9933.2875
2937.05161	9947.0875
2939.51912	9912.7875
2941.98513	9898.8875
2944.44962	9858.4875
2946.91261	9776.1875
2949.37409	9799.4875
2951.83407	9794.4875
2954.29254	9785.3875
2956.74951	9774.3875
2959.20498	9771.3875
2961.65895	9743.7875
2964.11142	9734.9875
2966.56239	9705.2875
2969.01186	9705.5875
2971.45984	9679.8875
2973.90632	9652.9875
2976.35131	9583.0875
2978.7948	9561.3875
2981.23681	9551.9875
2983.67732	9529.6875
2986.11635	9505.3875
2988.55388	9489.5875
2990.98993	9459.7875
2993.4245	9454.4875
2995.85758	9418.0875
2998.28917	9412.4875
3000.71928	9410.4875
3003.14791	9369.9875
3005.57506	9357.8875
3008.00073	9349.4875
3010.42493	9322.1875
3012.84764	9273.0875
3015.26888	9284.3875
3017.68865	9283.0875
3020.10694	9260.2875
3022.52376	9263.8875
3024.9391	9223.1875
3027.35298	9190.7875
3029.76539	9208.2875
3032.17632	9194.6875
3034.5858	9168.0875
3036.9938	9182.6875
3039.40034	9188.4875
3041.80542	9173.5875
3044.20903	9173.8875
3046.61118	9161.4875
3049.01187	9122.7875
3051.4111	9106.0875
3053.80888	9088.9875
3056.20519	9054.0875
3058.60005	9037.8875
3060.99345	9043.4875
3063.3854	9011.9875
3065.7759	8976.2875
3068.16494	8982.0875
3070.55254	8932.2875
3072.93868	8926.1875
3075.32338	8897.1875
3077.70662	8880.2875
3080.08842	8824.1875
3082.46878	8850.0875
3084.84769	8816.9875
3087.22515	8811.0875
3089.60118	8835.0875
3091.97576	8822.1875
3094.3489	8825.3875
3096.72061	8815.9875
3099.09087	8801.7875
3101.4597	8795.8875
3103.82709	8787.0875
3106.19305	8753.0875
3108.55757	8745.6875
3110.92066	8728.7875
3113.28232	8694.0875
3115.64255	8673.7875
3118.00134	8666.0875
3120.35871	8638.8875
3122.71466	8629.3875
3125.06917	8627.0875
3127.42226	8601.3875
3129.77393	8596.2875
3132.12417	8597.6875
3134.47299	8587.4875
3136.82039	8580.0875
3139.16636	8583.7875
3141.51092	8585.8875
3143.85406	8581.8875
3146.19579	8609.0875
3148.53609	8613.6875
3150.87499	8611.6875
3153.21246	8599.5875
3155.54853	8609.6875
3157.88318	8594.6875
3160.21642	8598.5875
3162.54826	8592.2875
3164.87868	8587.9875
3167.2077	8575.5875
3169.5353	8575.0875
3171.86151	8588.2875
3174.18631	8559.2875
3176.5097	8582.7875
3178.83169	8564.2875
3181.15228	8558.6875
3183.47147	8549.3875
3185.78926	8545.2875
3188.10565	8547.3875
3190.42065	8534.3875
3192.73424	8537.3875
3195.04645	8532.3875
3197.35725	8529.4875
3199.66667	8490.5875
3201.97469	8496.6875
3204.28132	8521.8875
3206.58656	8507.9875
3208.8904	8496.9875
3211.19287	8508.2875
3213.49394	8503.0875
3215.79363	8504.8875
3218.09193	8509.6875
3220.38884	8508.0875
3222.68438	8497.7875
3224.97853	8496.1875
3227.2713	8496.0875
3229.56269	8467.4875
3231.8527	8473.3875
3234.14133	8455.9875
3236.42858	8456.3875
3238.71446	8470.2875
3240.99896	8440.8875
3243.28209	8443.6875
3245.56384	8436.6875
3247.84423	8430.3875
3250.12324	8408.3875
3252.40088	8412.2875
3254.67715	8398.5875
3256.95205	8383.3875
3259.22558	8378.2875
3261.49775	8340.5875
3263.76855	8320.5875
3266.03799	8300.4875
3268.30606	8289.9875
3270.57277	8269.5875
3272.83812	8248.2875
3275.10211	8239.0875
3277.36474	8228.8875
3279.62601	8257.7875
3281.88593	8233.7875
3284.14448	8245.2875
3286.40168	8250.2875
3288.65753	8247.4875
3290.91202	8244.6875
3293.16516	8191.7875
3295.41695	8181.0875
3297.66738	8151.1875
3299.91647	8083.7875
3302.16421	8058.5875
3304.4106	8000.9875
3306.65564	7968.2875
3308.89933	7921.6875
3311.14169	7871.9875
3313.38269	7811.9875
3315.62236	7789.4875
3317.86068	7717.3875
3320.09766	7615.2875
3322.3333	7554.2875
3324.5676	7545.9875
3326.80056	7429.8875
3329.03219	7399.1875
3331.26248	1.7875
3333.49143	-0.3125
3335.71905	-1.2125
