Data from AgNPs_FTO_APTES_UA_2uM_CRN_1uM_R6G_10uM_NaF_0.1M_Addition_RamanShift__1__11-20-14-999.txt Node

Date: Wed Feb 02 11:20:14 GMT 2022
User: TCL
Spectrometer: QEP01345
Trigger mode: 4
Integration Time (sec): 7.000000E0
Scans to average: 10
Electric dark correction enabled: true
Nonlinearity correction enabled: false
Boxcar width: 0
XAxis mode: Raman Shifts
Number of Pixels in Spectrum: 1044
>>>>>Begin Spectral Data<<<<<
46.04893	0.5375
50.45542	0.9375
54.85868	-1.0625
59.25871	-0.6625
63.6555	68.2375
68.04907	73.8375
72.43941	77.3375
76.82654	79.9375
81.21044	83.8375
85.59113	89.9375
89.96862	89.3375
94.34289	96.0375
98.71396	91.8375
103.08183	103.1375
107.4465	103.2375
111.80798	104.4375
116.16626	109.2375
120.52136	111.0375
124.87327	116.1375
129.222	119.0375
133.56755	130.4375
137.90993	138.1375
142.24913	151.9375
146.58517	169.1375
150.91804	195.3375
155.24774	236.8375
159.57429	292.6375
163.89768	371.7375
168.21792	493.7375
172.53501	669.2375
176.84895	930.8375
181.15975	1305.7375
185.46741	1825.6375
189.77193	2513.4375
194.07331	3375.2375
198.37157	4361.1375
202.6667	5369.4375
206.9587	6394.1375
211.24758	7414.3375
215.53334	8436.1375
219.81599	9555.3375
224.09553	10783.4375
228.37195	12165.5375
232.64527	13632.8375
236.91549	15162.8375
241.18261	16650.6375
245.44663	17971.7375
249.70755	19128.2375
253.96539	20048.9375
258.22014	20848.6375
262.4718	21529.1375
266.72039	21940.2375
270.96589	22077.9375
275.20832	21977.8375
279.44768	21645.7375
283.68397	21303.3375
287.91719	20979.7375
292.14735	20809.3375
296.37445	20843.8375
300.59849	21097.0375
304.81948	21444.6375
309.03742	21701.5375
313.25231	21804.8375
317.46415	21540.2375
321.67296	21023.5375
325.87872	20536.2375
330.08145	20332.0375
334.28114	20293.2375
338.47781	20401.7375
342.67145	20612.0375
346.86207	20973.0375
351.04966	21414.0375
355.23424	21916.2375
359.4158	22286.4375
363.59435	22503.0375
367.76989	22653.5375
371.94243	22675.0375
376.11196	22663.6375
380.27849	22658.9375
384.44203	22725.5375
388.60257	22760.1375
392.76012	22876.4375
396.91468	23072.6375
401.06626	23427.6375
405.21485	23693.2375
409.36047	23602.7375
413.50311	23278.6375
417.64277	22972.5375
421.77947	22830.0375
425.9132	22885.4375
430.04396	22920.2375
434.17176	23029.9375
438.2966	23162.4375
442.41849	23655.4375
446.53742	24464.0375
450.6534	25271.4375
454.76644	25673.7375
458.87653	25562.8375
462.98368	25147.3375
467.08789	24662.0375
471.18916	24137.4375
475.2875	23497.3375
479.38291	23083.6375
483.4754	22845.1375
487.56496	22692.5375
491.6516	22592.7375
495.73531	22487.8375
499.81612	22495.0375
503.89401	22673.3375
507.96899	22723.6375
512.04106	22626.4375
516.11023	22553.9375
520.1765	22514.8375
524.23987	22581.6375
528.30034	22614.6375
532.35792	22482.1375
536.41261	22148.9375
540.46441	21637.1375
544.51333	21383.5375
548.55936	21475.8375
552.60252	21890.5375
556.64279	22488.5375
560.6802	22913.7375
564.71473	23047.2375
568.7464	23208.2375
572.7752	23651.3375
576.80114	23917.7375
580.82422	24410.9375
584.84444	25456.3375
588.86181	27143.9375
592.87633	28940.9375
596.888	29403.2375
600.89682	27950.4375
604.9028	27386.1375
608.90594	29838.7375
612.90624	33402.3375
616.90371	32028.6375
620.89834	26118.0375
624.89015	23154.5375
628.87913	22665.4375
632.86528	22596.6375
636.84862	22509.3375
640.82913	22047.5375
644.80683	21420.0375
648.78172	21056.6375
652.75379	21127.9375
656.72306	21567.1375
660.68952	22024.9375
664.65319	21871.6375
668.61405	21344.0375
672.57211	21219.4375
676.52738	21336.0375
680.47986	21361.1375
684.42955	21106.5375
688.37646	20999.8375
692.32058	21109.3375
696.26192	21519.5375
700.20048	21976.5375
704.13626	22149.9375
708.06928	22056.8375
711.99952	21870.3375
715.927	21939.8375
719.85171	22189.7375
723.77365	22079.3375
727.69284	21733.1375
731.60928	21371.9375
735.52295	21319.4375
739.43388	21378.7375
743.34206	21477.1375
747.24749	21557.7375
751.15017	21787.0375
755.05012	22074.9375
758.94733	22644.8375
762.8418	23812.6375
766.73354	25862.5375
770.62254	27966.1375
774.50882	28734.4375
778.39237	27651.5375
782.27321	25646.6375
786.15132	23739.0375
790.02671	22515.8375
793.89938	21963.1375
797.76935	21717.8375
801.6366	21608.6375
805.50115	21492.5375
809.36299	21368.7375
813.22213	21185.0375
817.07857	21065.5375
820.93231	20943.0375
824.78336	20947.1375
828.63172	20971.5375
832.47738	21064.7375
836.32036	21170.7375
840.16066	21285.7375
843.99827	21386.5375
847.8332	21306.6375
851.66546	21150.0375
855.49504	21159.2375
859.32195	21097.1375
863.1462	21039.1375
866.96777	20910.7375
870.78668	20838.3375
874.60293	20887.6375
878.41652	20971.6375
882.22745	21091.3375
886.03573	21242.2375
889.84136	21300.2375
893.64433	21150.7375
897.44466	21092.3375
901.24235	20991.8375
905.0374	20949.6375
908.8298	20902.2375
912.61957	20953.4375
916.40671	21057.7375
920.19121	21316.0375
923.97308	21701.9375
927.75233	21997.9375
931.52895	22025.3375
935.30295	21796.9375
939.07433	21245.4375
942.84309	20851.1375
946.60924	20611.0375
950.37278	20479.9375
954.13371	20411.6375
957.89203	20258.0375
961.64774	20211.8375
965.40086	20169.2375
969.15137	20108.6375
972.89929	20082.5375
976.64461	20120.4375
980.38733	20163.3375
984.12747	20261.5375
987.86502	20417.3375
991.59999	20640.4375
995.33237	21067.6375
999.06217	21690.9375
1002.78939	22414.9375
1006.51404	22869.2375
1010.23611	23054.8375
1013.95561	23260.1375
1017.67255	23260.1375
1021.38692	23006.4375
1025.09872	22702.5375
1028.80796	22877.2375
1032.51465	23615.3375
1036.21877	24449.6375
1039.92035	24740.1375
1043.61937	24495.1375
1047.31584	23885.5375
1051.00976	23183.3375
1054.70114	22736.9375
1058.38998	22531.2375
1062.07627	22472.8375
1065.76003	22395.8375
1069.44126	22528.5375
1073.11995	22867.7375
1076.79611	23247.3375
1080.46974	23513.3375
1084.14085	23764.1375
1087.80943	23978.0375
1091.47549	24132.4375
1095.13903	24007.2375
1098.80005	23515.6375
1102.45857	22943.6375
1106.11456	22566.8375
1109.76805	22415.8375
1113.41903	22502.7375
1117.06751	22645.6375
1120.71348	22943.7375
1124.35696	23301.6375
1127.99793	23681.6375
1131.63641	23800.7375
1135.2724	23521.9375
1138.90589	23137.5375
1142.5369	23025.9375
1146.16542	22931.7375
1149.79145	22970.8375
1153.415	23023.2375
1157.03607	23245.4375
1160.65467	23767.5375
1164.27079	24754.5375
1167.88443	26092.8375
1171.49561	27710.4375
1175.10432	29987.8375
1178.71056	33037.3375
1182.31434	35824.1375
1185.91565	36871.4375
1189.51451	36225.4375
1193.11091	34597.9375
1196.70485	32640.5375
1200.29634	31106.0375
1203.88538	29877.7375
1207.47197	28941.5375
1211.05612	28131.4375
1214.63782	27523.5375
1218.21708	27139.2375
1221.79391	27040.2375
1225.36829	27101.8375
1228.94024	26989.5375
1232.50976	26443.3375
1236.07685	25790.3375
1239.6415	25402.4375
1243.20374	25267.8375
1246.76355	25410.1375
1250.32093	25793.2375
1253.8759	26387.1375
1257.42845	27191.1375
1260.97859	28056.3375
1264.52631	28992.0375
1268.07163	29946.9375
1271.61453	30940.4375
1275.15503	31909.5375
1278.69312	32889.5375
1282.22882	33839.4375
1285.76211	34812.3375
1289.29301	36041.5375
1292.82151	37470.4375
1296.34761	39221.1375
1299.87133	41539.1375
1303.39266	44433.3375
1306.9116	47569.0375
1310.42815	50288.5375
1313.94233	51684.1375
1317.45412	50710.3375
1320.96354	48221.2375
1324.47058	45421.2375
1327.97525	43058.1375
1331.47754	41328.8375
1334.97747	40151.3375
1338.47502	39225.0375
1341.97022	38276.8375
1345.46305	37724.6375
1348.95352	38230.7375
1352.44163	40056.7375
1355.92738	43362.7375
1359.41078	47859.4375
1362.89183	51815.4375
1366.37053	52148.2375
1369.84688	47367.1375
1373.32088	40626.2375
1376.79254	35857.2375
1380.26186	33858.9375
1383.72883	33291.8375
1387.19347	32800.9375
1390.65578	31873.8375
1394.11575	31373.6375
1397.57339	31482.6375
1401.0287	31853.6375
1404.48168	32110.1375
1407.93234	32033.2375
1411.38068	31605.4375
1414.82669	30970.3375
1418.27039	30272.9375
1421.71177	29543.8375
1425.15083	28834.9375
1428.58758	28569.8375
1432.02203	28963.6375
1435.45416	29727.3375
1438.88399	30331.9375
1442.31151	30590.8375
1445.73673	30612.5375
1449.15965	30585.5375
1452.58027	30288.2375
1455.9986	29851.5375
1459.41463	29626.5375
1462.82837	29896.9375
1466.23982	30587.9375
1469.64898	31337.6375
1473.05586	31903.3375
1476.46045	32296.7375
1479.86276	32490.3375
1483.26279	32628.4375
1486.66054	32859.9375
1490.05602	33402.5375
1493.44922	34090.6375
1496.84016	34716.6375
1500.22882	35557.8375
1503.61521	36901.5375
1506.99934	38650.0375
1510.38121	40309.7375
1513.76081	41038.8375
1517.13816	40081.9375
1520.51324	37820.8375
1523.88607	35684.9375
1527.25665	34293.8375
1530.62498	33599.2375
1533.99105	33058.6375
1537.35488	32395.4375
1540.71647	31593.7375
1544.07581	30785.4375
1547.4329	30034.9375
1550.78776	29424.5375
1554.14038	29011.4375
1557.49077	28836.3375
1560.83892	28731.2375
1564.18484	28841.3375
1567.52853	29151.8375
1570.86999	29627.2375
1574.20922	30106.7375
1577.54624	30414.0375
1580.88103	30284.4375
1584.2136	30136.8375
1587.54395	30798.8375
1590.87208	32552.3375
1594.19801	34896.9375
1597.52172	37215.3375
1600.84321	37981.0375
1604.16251	36243.7375
1607.47959	32991.6375
1610.79447	29674.3375
1614.10715	26944.6375
1617.41763	25066.8375
1620.7259	24002.8375
1624.03199	23635.1375
1627.33587	23795.9375
1630.63757	24499.9375
1633.93707	25869.7375
1637.23439	28130.7375
1640.52951	31759.7375
1643.82246	36524.9375
1647.11321	40632.2375
1650.40179	41711.9375
1653.68819	38734.5375
1656.97241	33132.8375
1660.25446	27938.9375
1663.53433	24408.3375
1666.81203	22337.1375
1670.08756	21185.5375
1673.36092	20455.3375
1676.63211	19974.8375
1679.90115	19673.6375
1683.16801	19384.8375
1686.43272	19232.5375
1689.69527	19122.9375
1692.95567	19069.8375
1696.2139	19021.9375
1699.46999	18923.7375
1702.72392	18860.7375
1705.97571	18847.4375
1709.22535	18821.8375
1712.47284	18820.0375
1715.71819	18803.4375
1718.96139	18767.7375
1722.20246	18730.5375
1725.44139	18651.4375
1728.67818	18587.0375
1731.91284	18459.7375
1735.14537	18339.4375
1738.37576	18280.2375
1741.60403	18227.5375
1744.83017	18143.8375
1748.05418	18139.2375
1751.27607	18108.1375
1754.49584	18072.0375
1757.71349	18064.2375
1760.92903	18061.4375
1764.14244	18077.0375
1767.35375	18024.3375
1770.56294	17997.4375
1773.77002	17973.0375
1776.97499	17961.9375
1780.17785	17917.2375
1783.37861	17919.7375
1786.57727	17887.3375
1789.77382	17805.1375
1792.96828	17815.4375
1796.16064	17787.4375
1799.3509	17770.2375
1802.53907	17745.4375
1805.72514	17732.6375
1808.90913	17672.3375
1812.09102	17640.0375
1815.27083	17604.9375
1818.44856	17575.6375
1821.6242	17553.3375
1824.79776	17526.6375
1827.96924	17510.9375
1831.13864	17504.2375
1834.30597	17536.4375
1837.47122	17507.2375
1840.6344	17497.6375
1843.7955	17522.1375
1846.95454	17514.0375
1850.11151	17469.4375
1853.26642	17475.4375
1856.41926	17488.2375
1859.57004	17484.9375
1862.71876	17474.6375
1865.86542	17440.5375
1869.01003	17447.8375
1872.15258	17395.3375
1875.29308	17401.9375
1878.43152	17374.4375
1881.56792	17418.6375
1884.70227	17356.6375
1887.83457	17344.2375
1890.96482	17339.8375
1894.09304	17330.4375
1897.21921	17292.8375
1900.34335	17281.0375
1903.46544	17222.6375
1906.58551	17262.3375
1909.70353	17259.7375
1912.81953	17211.1375
1915.93349	17191.7375
1919.04543	17143.0375
1922.15534	17142.6375
1925.26322	17108.3375
1928.36908	17052.2375
1931.47292	17028.3375
1934.57473	16936.7375
1937.67453	16914.5375
1940.77232	16886.1375
1943.86808	16880.1375
1946.96184	16817.3375
1950.05358	16777.3375
1953.14331	16744.6375
1956.23103	16714.8375
1959.31675	16692.6375
1962.40046	16651.8375
1965.48217	16607.4375
1968.56188	16566.1375
1971.63959	16499.4375
1974.7153	16459.1375
1977.78901	16417.0375
1980.86073	16397.0375
1983.93046	16323.6375
1986.99819	16270.5375
1990.06394	16239.8375
1993.1277	16206.0375
1996.18947	16105.0375
1999.24925	16113.0375
2002.30706	16053.2375
2005.36288	15989.5375
2008.41672	15941.4375
2011.46859	15946.3375
2014.51848	15887.1375
2017.56639	15849.7375
2020.61233	15808.1375
2023.6563	15779.9375
2026.6983	15774.5375
2029.73833	15757.8375
2032.7764	15698.3375
2035.8125	15713.1375
2038.84664	15675.4375
2041.87881	15666.7375
2044.90903	15673.1375
2047.93729	15643.7375
2050.96359	15641.0375
2053.98794	15613.3375
2057.01034	15584.9375
2060.03078	15563.3375
2063.04927	15564.9375
2066.06582	15537.4375
2069.08042	15522.2375
2072.09307	15542.5375
2075.10378	15525.7375
2078.11255	15530.8375
2081.11938	15593.8375
2084.12426	15554.2375
2087.12722	15560.9375
2090.12824	15522.2375
2093.12732	15594.0375
2096.12447	15598.0375
2099.11969	15607.4375
2102.11299	15644.3375
2105.10435	15642.2375
2108.09379	15619.3375
2111.08131	15632.0375
2114.0669	15662.8375
2117.05057	15683.3375
2120.03233	15632.4375
2123.01216	15660.2375
2125.99008	15677.4375
2128.96609	15632.1375
2131.94018	15662.3375
2134.91236	15682.3375
2137.88263	15675.0375
2140.851	15694.8375
2143.81746	15700.2375
2146.78201	15669.8375
2149.74466	15678.2375
2152.7054	15714.0375
2155.66425	15702.6375
2158.6212	15680.1375
2161.57625	15687.0375
2164.52941	15655.0375
2167.48067	15678.0375
2170.43004	15667.3375
2173.37752	15677.4375
2176.32311	15694.6375
2179.26681	15737.8375
2182.20863	15706.4375
2185.14856	15725.7375
2188.08661	15680.6375
2191.02278	15679.8375
2193.95707	15719.0375
2196.88948	15681.7375
2199.82001	15720.3375
2202.74867	15699.3375
2205.67545	15700.8375
2208.60037	15681.7375
2211.52341	15695.2375
2214.44458	15684.0375
2217.36388	15649.1375
2220.28132	15630.7375
2223.1969	15629.1375
2226.11061	15595.1375
2229.02246	15556.1375
2231.93245	15549.5375
2234.84058	15525.5375
2237.74686	15532.4375
2240.65128	15536.3375
2243.55385	15490.4375
2246.45456	15482.1375
2249.35343	15452.7375
2252.25044	15402.2375
2255.14561	15402.0375
2258.03893	15434.7375
2260.93041	15370.2375
2263.82004	15332.1375
2266.70783	15336.3375
2269.59378	15278.2375
2272.4779	15255.9375
2275.36017	15208.1375
2278.24061	15229.3375
2281.11922	15186.5375
2283.996	15152.1375
2286.87094	15165.3375
2289.74405	15085.0375
2292.61534	15099.1375
2295.4848	15076.1375
2298.35243	15087.4375
2301.21824	15130.0375
2304.08223	15094.7375
2306.94439	15087.4375
2309.80474	15131.8375
2312.66327	15141.5375
2315.51999	15132.6375
2318.37489	15171.8375
2321.22797	15106.1375
2324.07925	15108.2375
2326.92871	15101.4375
2329.77637	15100.1375
2332.62222	15107.6375
2335.46626	15088.9375
2338.3085	15061.8375
2341.14893	15098.7375
2343.98756	15059.8375
2346.8244	15082.5375
2349.65943	15038.0375
2352.49267	15051.3375
2355.32411	15018.3375
2358.15376	15043.6375
2360.98161	15041.6375
2363.80768	15026.5375
2366.63195	15000.5375
2369.45444	14976.8375
2372.27514	14967.0375
2375.09405	14949.7375
2377.91118	14924.2375
2380.72652	14893.8375
2383.54009	14852.1375
2386.35187	14815.7375
2389.16188	14792.0375
2391.97011	14765.6375
2394.77657	14759.6375
2397.58125	14752.7375
2400.38416	14753.8375
2403.18529	14694.7375
2405.98466	14696.6375
2408.78226	14644.2375
2411.57809	14623.4375
2414.37216	14605.7375
2417.16446	14610.9375
2419.955	14619.3375
2422.74378	14618.7375
2425.5308	14605.2375
2428.31606	14601.4375
2431.09956	14594.9375
2433.88131	14553.9375
2436.6613	14559.6375
2439.43954	14578.0375
2442.21603	14555.8375
2444.99077	14551.9375
2447.76377	14543.9375
2450.53501	14536.7375
2453.30451	14541.5375
2456.07226	14533.5375
2458.83827	14553.7375
2461.60254	14567.5375
2464.36507	14543.3375
2467.12586	14530.7375
2469.88492	14552.9375
2472.64224	14530.1375
2475.39782	14539.8375
2478.15167	14583.2375
2480.90379	14529.3375
2483.65417	14537.3375
2486.40283	14550.2375
2489.14976	14582.6375
2491.89497	14579.3375
2494.63845	14562.9375
2497.3802	14545.3375
2500.12024	14535.9375
2502.85855	14550.0375
2505.59514	14541.2375
2508.33002	14511.6375
2511.06318	14504.9375
2513.79462	14467.4375
2516.52435	14464.1375
2519.25237	14437.8375
2521.97867	14422.5375
2524.70327	14407.4375
2527.42616	14365.9375
2530.14734	14386.5375
2532.86681	14399.9375
2535.58458	14392.6375
2538.30065	14328.9375
2541.01501	14363.4375
2543.72768	14337.4375
2546.43864	14315.0375
2549.14791	14316.5375
2551.85548	14329.9375
2554.56136	14280.3375
2557.26554	14269.9375
2559.96803	14271.7375
2562.66883	14295.8375
2565.36794	14269.2375
2568.06536	14299.4375
2570.7611	14276.7375
2573.45514	14251.0375
2576.14751	14252.6375
2578.83819	14249.6375
2581.52719	14269.4375
2584.21451	14228.9375
2586.90015	14251.9375
2589.58411	14192.9375
2592.2664	14192.0375
2594.94701	14184.3375
2597.62594	14153.8375
2600.30321	14146.3375
2602.9788	14135.4375
2605.65273	14115.5375
2608.32498	14126.0375
2610.99557	14122.8375
2613.66449	14124.2375
2616.33175	14105.5375
2618.99734	14133.7375
2621.66128	14123.8375
2624.32355	14093.2375
2626.98416	14095.6375
2629.64311	14094.8375
2632.30041	14105.7375
2634.95605	14056.6375
2637.61004	14057.4375
2640.26238	14013.0375
2642.91306	14000.9375
2645.56209	13998.1375
2648.20948	13964.8375
2650.85521	13960.0375
2653.4993	13988.3375
2656.14175	13981.5375
2658.78255	14000.2375
2661.42171	13977.5375
2664.05923	14006.8375
2666.6951	13990.7375
2669.32934	14029.8375
2671.96194	14026.7375
2674.59291	14078.8375
2677.22224	14025.7375
2679.84993	14043.7375
2682.476	14037.7375
2685.10043	14039.0375
2687.72324	14007.4375
2690.34441	13999.8375
2692.96396	13997.0375
2695.58188	14042.6375
2698.19818	13982.5375
2700.81285	13984.1375
2703.4259	14031.3375
2706.03733	14033.0375
2708.64714	14028.6375
2711.25533	14076.8375
2713.86191	14022.9375
2716.46687	14097.9375
2719.07021	14061.8375
2721.67194	14092.1375
2724.27206	14061.4375
2726.87057	14069.7375
2729.46747	14087.8375
2732.06276	14101.9375
2734.65644	14104.7375
2737.24852	14129.9375
2739.83899	14100.4375
2742.42786	14104.8375
2745.01513	14083.1375
2747.60079	14101.3375
2750.18486	14062.7375
2752.76733	14061.1375
2755.3482	14041.8375
2757.92747	14107.5375
2760.50515	14052.5375
2763.08123	14067.9375
2765.65573	14040.0375
2768.22863	14078.5375
2770.79994	14021.1375
2773.36967	14017.1375
2775.9378	14016.2375
2778.50435	14042.5375
2781.06932	14018.7375
2783.6327	14047.2375
2786.1945	14024.2375
2788.75471	13996.6375
2791.31335	13972.5375
2793.87041	13981.1375
2796.42589	13924.8375
2798.97979	13914.5375
2801.53212	13893.8375
2804.08288	13887.5375
2806.63206	13894.0375
2809.17967	13874.2375
2811.72571	13849.5375
2814.27018	13858.7375
2816.81308	13838.3375
2819.35442	13847.6375
2821.89419	13870.5375
2824.43239	13808.1375
2826.96904	13808.7375
2829.50412	13819.8375
2832.03763	13793.8375
2834.56959	13801.0375
2837.1	13798.8375
2839.62884	13825.8375
2842.15613	13895.7375
2844.68186	13924.0375
2847.20604	13989.8375
2849.72867	14035.8375
2852.24974	14014.1375
2854.76927	14062.4375
2857.28724	14087.2375
2859.80367	14058.0375
2862.31855	14071.6375
2864.83189	14052.5375
2867.34368	14022.0375
2869.85393	14078.4375
2872.36264	14069.6375
2874.8698	14089.6375
2877.37543	14118.9375
2879.87952	14162.5375
2882.38207	14155.2375
2884.88308	14153.5375
2887.38256	14160.1375
2889.88051	14202.4375
2892.37692	14227.3375
2894.8718	14218.5375
2897.36515	14249.2375
2899.85698	14210.9375
2902.34727	14251.4375
2904.83604	14208.8375
2907.32328	14280.7375
2909.809	14252.3375
2912.29319	14248.0375
2914.77587	14255.9375
2917.25702	14258.5375
2919.73665	14224.8375
2922.21476	14220.3375
2924.69136	14208.2375
2927.16644	14207.1375
2929.64	14173.9375
2932.11205	14201.1375
2934.58258	14138.5375
2937.05161	14128.5375
2939.51912	14112.6375
2941.98513	14085.5375
2944.44962	14025.6375
2946.91261	13909.9375
2949.37409	13905.5375
2951.83407	13871.7375
2954.29254	13858.3375
2956.74951	13794.5375
2959.20498	13775.5375
2961.65895	13766.6375
2964.11142	13721.1375
2966.56239	13686.8375
2969.01186	13704.1375
2971.45984	13615.9375
2973.90632	13566.7375
2976.35131	13530.6375
2978.7948	13479.8375
2981.23681	13458.2375
2983.67732	13413.9375
2986.11635	13359.1375
2988.55388	13345.8375
2990.98993	13312.2375
2993.4245	13292.5375
2995.85758	13253.9375
2998.28917	13218.7375
3000.71928	13245.4375
3003.14791	13198.7375
3005.57506	13207.6375
3008.00073	13177.7375
3010.42493	13157.4375
3012.84764	13114.0375
3015.26888	13113.1375
3017.68865	13124.4375
3020.10694	13080.2375
3022.52376	13060.2375
3024.9391	13048.5375
3027.35298	12998.4375
3029.76539	13004.9375
3032.17632	12991.1375
3034.5858	12972.6375
3036.9938	12985.4375
3039.40034	12949.5375
3041.80542	12946.8375
3044.20903	12937.6375
3046.61118	12923.9375
3049.01187	12893.9375
3051.4111	12916.2375
3053.80888	12889.1375
3056.20519	12871.4375
3058.60005	12840.2375
3060.99345	12833.9375
3063.3854	12791.8375
3065.7759	12778.3375
3068.16494	12771.8375
3070.55254	12744.3375
3072.93868	12760.7375
3075.32338	12714.6375
3077.70662	12709.3375
3080.08842	12666.9375
3082.46878	12677.6375
3084.84769	12649.6375
3087.22515	12679.3375
3089.60118	12651.4375
3091.97576	12662.6375
3094.3489	12619.6375
3096.72061	12641.1375
3099.09087	12633.5375
3101.4597	12602.5375
3103.82709	12588.0375
3106.19305	12566.9375
3108.55757	12554.2375
3110.92066	12528.4375
3113.28232	12504.3375
3115.64255	12460.5375
3118.00134	12453.7375
3120.35871	12455.8375
3122.71466	12433.4375
3125.06917	12448.4375
3127.42226	12422.3375
3129.77393	12436.3375
3132.12417	12403.9375
3134.47299	12422.0375
3136.82039	12416.2375
3139.16636	12432.9375
3141.51092	12439.5375
3143.85406	12442.8375
3146.19579	12437.2375
3148.53609	12447.7375
3150.87499	12463.2375
3153.21246	12458.5375
3155.54853	12458.2375
3157.88318	12452.8375
3160.21642	12454.2375
3162.54826	12470.1375
3164.87868	12434.4375
3167.2077	12441.1375
3169.5353	12451.7375
3171.86151	12446.8375
3174.18631	12427.2375
3176.5097	12439.6375
3178.83169	12416.3375
3181.15228	12445.3375
3183.47147	12394.4375
3185.78926	12367.2375
3188.10565	12402.0375
3190.42065	12397.8375
3192.73424	12408.9375
3195.04645	12399.0375
3197.35725	12397.6375
3199.66667	12368.7375
3201.97469	12401.8375
3204.28132	12352.6375
3206.58656	12434.7375
3208.8904	12415.5375
3211.19287	12402.6375
3213.49394	12429.0375
3215.79363	12447.8375
3218.09193	12451.5375
3220.38884	12424.6375
3222.68438	12451.8375
3224.97853	12422.9375
3227.2713	12442.2375
3229.56269	12398.3375
3231.8527	12407.5375
3234.14133	12384.5375
3236.42858	12358.9375
3238.71446	12339.2375
3240.99896	12338.7375
3243.28209	12356.7375
3245.56384	12354.7375
3247.84423	12381.0375
3250.12324	12352.0375
3252.40088	12339.5375
3254.67715	12321.2375
3256.95205	12280.7375
3259.22558	12302.9375
3261.49775	12262.8375
3263.76855	12264.3375
3266.03799	12295.5375
3268.30606	12253.2375
3270.57277	12220.8375
3272.83812	12204.5375
3275.10211	12200.0375
3277.36474	12202.0375
3279.62601	12224.5375
3281.88593	12178.1375
3284.14448	12222.5375
3286.40168	12222.5375
3288.65753	12196.9375
3290.91202	12184.8375
3293.16516	12162.5375
3295.41695	12114.6375
3297.66738	12029.6375
3299.91647	11959.6375
3302.16421	11919.5375
3304.4106	11874.2375
3306.65564	11812.4375
3308.89933	11754.3375
3311.14169	11695.9375
3313.38269	11600.2375
3315.62236	11549.9375
3317.86068	11456.5375
3320.09766	11328.0375
3322.3333	11246.5375
3324.5676	11260.1375
3326.80056	11106.4375
3329.03219	11047.2375
3331.26248	2.0375
3333.49143	-0.4625
3335.71905	-1.4625
