Data from AgNPs_FTO_APTES_UA_2uM_CRN_500uM_R6G_10uM_NaF_0.1M_Addition_RamanShift__31__17-34-45-436.txt Node

Date: Wed Feb 02 17:34:45 GMT 2022
User: TCL
Spectrometer: QEP01345
Trigger mode: 4
Integration Time (sec): 7.000000E0
Scans to average: 10
Electric dark correction enabled: true
Nonlinearity correction enabled: false
Boxcar width: 0
XAxis mode: Raman Shifts
Number of Pixels in Spectrum: 1044
>>>>>Begin Spectral Data<<<<<
46.04893	0.7125
50.45542	0.9125
54.85868	-0.6875
59.25871	0.8125
63.6555	36.9125
68.04907	43.4125
72.43941	43.6125
76.82654	51.1125
81.21044	53.2125
85.59113	52.3125
89.96862	52.9125
94.34289	58.3125
98.71396	58.8125
103.08183	65.6125
107.4465	64.3125
111.80798	68.7125
116.16626	64.4125
120.52136	65.7125
124.87327	70.4125
129.222	66.3125
133.56755	71.3125
137.90993	77.1125
142.24913	82.3125
146.58517	87.9125
150.91804	95.9125
155.24774	118.4125
159.57429	137.4125
163.89768	174.6125
168.21792	221.6125
172.53501	298.3125
176.84895	408.6125
181.15975	568.8125
185.46741	781.7125
189.77193	1072.8125
194.07331	1427.3125
198.37157	1837.5125
202.6667	2266.3125
206.9587	2692.2125
211.24758	3118.8125
215.53334	3571.3125
219.81599	4061.6125
224.09553	4627.7125
228.37195	5232.6125
232.64527	5925.7125
236.91549	6563.3125
241.18261	7170.3125
245.44663	7649.9125
249.70755	8047.9125
253.96539	8367.9125
258.22014	8673.1125
262.4718	8925.1125
266.72039	9131.4125
270.96589	9277.2125
275.20832	9327.6125
279.44768	9311.3125
283.68397	9272.6125
287.91719	9257.4125
292.14735	9326.3125
296.37445	9538.7125
300.59849	9827.6125
304.81948	10202.8125
309.03742	10449.9125
313.25231	10422.3125
317.46415	9862.3125
321.67296	9033.3125
325.87872	8338.7125
330.08145	8002.7125
334.28114	7947.5125
338.47781	8068.4125
342.67145	8281.3125
346.86207	8662.7125
351.04966	9205.4125
355.23424	9810.5125
359.4158	10246.3125
363.59435	10433.5125
367.76989	10446.0125
371.94243	10329.6125
376.11196	10226.0125
380.27849	10114.6125
384.44203	9972.9125
388.60257	9851.9125
392.76012	9777.1125
396.91468	9884.9125
401.06626	10192.5125
405.21485	10433.3125
409.36047	10294.8125
413.50311	9730.7125
417.64277	9191.0125
421.77947	8895.0125
425.9132	8767.9125
430.04396	8740.9125
434.17176	8754.2125
438.2966	8838.9125
442.41849	8978.4125
446.53742	9218.2125
450.6534	9496.8125
454.76644	9638.1125
458.87653	9692.1125
462.98368	9647.8125
467.08789	9559.9125
471.18916	9374.3125
475.2875	9160.6125
479.38291	9018.0125
483.4754	8862.5125
487.56496	8731.3125
491.6516	8616.1125
495.73531	8578.6125
499.81612	8607.9125
503.89401	8724.1125
507.96899	8822.5125
512.04106	8910.7125
516.11023	9019.1125
520.1765	9082.1125
524.23987	9020.9125
528.30034	8809.4125
532.35792	8581.9125
536.41261	8377.4125
540.46441	8172.7125
544.51333	8128.4125
548.55936	8196.3125
552.60252	8466.0125
556.64279	8768.5125
560.6802	8946.7125
564.71473	9135.3125
568.7464	9595.3125
572.7752	9885.7125
576.80114	9612.5125
580.82422	9201.7125
584.84444	8994.2125
588.86181	8880.4125
592.87633	8791.2125
596.888	8868.9125
600.89682	9166.3125
604.9028	10274.9125
608.90594	13189.3125
612.90624	17143.1125
616.90371	16676.0125
620.89834	11472.3125
624.89015	8849.3125
628.87913	8365.4125
632.86528	8409.7125
636.84862	8584.6125
640.82913	8458.7125
644.80683	8086.0125
648.78172	7823.6125
652.75379	7864.8125
656.72306	8220.5125
660.68952	8703.8125
664.65319	8645.6125
668.61405	8179.1125
672.57211	7949.2125
676.52738	7958.0125
680.47986	7968.2125
684.42955	7915.6125
688.37646	7866.1125
692.32058	7884.3125
696.26192	7996.1125
700.20048	8104.6125
704.13626	8220.5125
708.06928	8225.8125
711.99952	8134.0125
715.927	8064.3125
719.85171	8021.6125
723.77365	7990.0125
727.69284	7872.8125
731.60928	7770.0125
735.52295	7721.0125
739.43388	7719.6125
743.34206	7756.8125
747.24749	7808.8125
751.15017	7902.4125
755.05012	8111.7125
758.94733	8557.6125
762.8418	9599.2125
766.73354	11408.3125
770.62254	13301.2125
774.50882	14139.6125
778.39237	13462.7125
782.27321	11516.8125
786.15132	9616.8125
790.02671	8515.5125
793.89938	8026.4125
797.76935	7801.0125
801.6366	7715.1125
805.50115	7633.4125
809.36299	7586.3125
813.22213	7552.1125
817.07857	7535.9125
820.93231	7552.9125
824.78336	7572.1125
828.63172	7622.6125
832.47738	7621.1125
836.32036	7626.3125
840.16066	7551.3125
843.99827	7462.4125
847.8332	7442.6125
851.66546	7401.7125
855.49504	7392.8125
859.32195	7351.2125
863.1462	7320.6125
866.96777	7309.5125
870.78668	7261.8125
874.60293	7277.3125
878.41652	7292.7125
882.22745	7332.5125
886.03573	7368.6125
889.84136	7359.4125
893.64433	7283.7125
897.44466	7261.2125
901.24235	7271.6125
905.0374	7252.9125
908.8298	7227.6125
912.61957	7210.2125
916.40671	7303.6125
920.19121	7388.8125
923.97308	7451.0125
927.75233	7507.5125
931.52895	7558.2125
935.30295	7436.9125
939.07433	7182.0125
942.84309	6954.3125
946.60924	6815.8125
950.37278	6724.1125
954.13371	6669.4125
957.89203	6658.9125
961.64774	6632.0125
965.40086	6598.2125
969.15137	6582.6125
972.89929	6540.5125
976.64461	6553.9125
980.38733	6525.7125
984.12747	6539.1125
987.86502	6557.9125
991.59999	6567.3125
995.33237	6633.8125
999.06217	6743.8125
1002.78939	6924.1125
1006.51404	7075.7125
1010.23611	7262.9125
1013.95561	7333.9125
1017.67255	7312.0125
1021.38692	7186.9125
1025.09872	7056.5125
1028.80796	6982.5125
1032.51465	6986.2125
1036.21877	7068.1125
1039.92035	7198.9125
1043.61937	7302.2125
1047.31584	7306.9125
1051.00976	7317.2125
1054.70114	7341.5125
1058.38998	7342.6125
1062.07627	7417.4125
1065.76003	7516.9125
1069.44126	7563.6125
1073.11995	7652.6125
1076.79611	7736.7125
1080.46974	7830.0125
1084.14085	8037.6125
1087.80943	8261.1125
1091.47549	8401.8125
1095.13903	8331.3125
1098.80005	7981.2125
1102.45857	7684.7125
1106.11456	7500.5125
1109.76805	7474.2125
1113.41903	7607.2125
1117.06751	7870.3125
1120.71348	8243.3125
1124.35696	8643.2125
1127.99793	9040.2125
1131.63641	9030.2125
1135.2724	8559.4125
1138.90589	8125.3125
1142.5369	7861.1125
1146.16542	7706.2125
1149.79145	7667.2125
1153.415	7662.2125
1157.03607	7780.8125
1160.65467	7970.8125
1164.27079	8295.9125
1167.88443	8809.0125
1171.49561	9606.9125
1175.10432	10979.5125
1178.71056	12663.7125
1182.31434	13793.5125
1185.91565	13858.0125
1189.51451	13447.6125
1193.11091	12628.0125
1196.70485	11757.0125
1200.29634	11063.2125
1203.88538	10446.7125
1207.47197	9764.9125
1211.05612	9177.5125
1214.63782	8846.1125
1218.21708	8705.9125
1221.79391	8720.8125
1225.36829	8751.9125
1228.94024	8836.8125
1232.50976	8870.2125
1236.07685	8863.5125
1239.6415	8869.5125
1243.20374	8871.1125
1246.76355	8934.8125
1250.32093	9073.8125
1253.8759	9260.1125
1257.42845	9553.3125
1260.97859	9861.8125
1264.52631	10174.8125
1268.07163	10474.2125
1271.61453	10765.7125
1275.15503	10986.3125
1278.69312	11040.5125
1282.22882	11067.2125
1285.76211	11289.2125
1289.29301	11667.7125
1292.82151	12127.2125
1296.34761	12566.5125
1299.87133	13222.4125
1303.39266	14301.5125
1306.9116	15945.9125
1310.42815	17911.9125
1313.94233	19172.9125
1317.45412	19087.1125
1320.96354	17972.0125
1324.47058	16575.1125
1327.97525	15402.9125
1331.47754	14650.3125
1334.97747	14333.2125
1338.47502	14302.5125
1341.97022	14509.0125
1345.46305	14924.9125
1348.95352	15605.4125
1352.44163	16540.7125
1355.92738	18056.8125
1359.41078	20530.8125
1362.89183	23121.8125
1366.37053	22693.5125
1369.84688	19223.4125
1373.32088	15814.1125
1376.79254	13644.1125
1380.26186	12546.0125
1383.72883	12031.8125
1387.19347	11634.8125
1390.65578	11246.2125
1394.11575	10911.6125
1397.57339	10733.8125
1401.0287	10798.8125
1404.48168	10882.4125
1407.93234	10993.5125
1411.38068	11011.2125
1414.82669	10849.2125
1418.27039	10576.6125
1421.71177	10208.9125
1425.15083	9897.5125
1428.58758	9652.4125
1432.02203	9617.5125
1435.45416	9687.7125
1438.88399	9734.6125
1442.31151	9790.5125
1445.73673	9829.2125
1449.15965	9947.2125
1452.58027	10000.2125
1455.9986	10002.1125
1459.41463	10046.4125
1462.82837	10192.1125
1466.23982	10400.6125
1469.64898	10632.5125
1473.05586	10789.2125
1476.46045	10894.1125
1479.86276	11055.0125
1483.26279	11258.3125
1486.66054	11541.1125
1490.05602	11893.7125
1493.44922	12412.8125
1496.84016	13283.4125
1500.22882	14671.8125
1503.61521	16525.3125
1506.99934	18579.5125
1510.38121	20697.3125
1513.76081	21934.3125
1517.13816	21288.6125
1520.51324	18860.1125
1523.88607	16156.7125
1527.25665	14304.5125
1530.62498	13186.1125
1533.99105	12552.1125
1537.35488	12112.6125
1540.71647	11830.6125
1544.07581	11618.9125
1547.4329	11459.2125
1550.78776	11337.5125
1554.14038	11283.8125
1557.49077	11402.2125
1560.83892	11686.2125
1564.18484	12094.1125
1567.52853	12498.1125
1570.86999	12845.3125
1574.20922	13013.8125
1577.54624	12918.0125
1580.88103	12287.6125
1584.2136	11424.1125
1587.54395	10930.3125
1590.87208	11019.9125
1594.19801	11548.2125
1597.52172	12298.1125
1600.84321	12603.0125
1604.16251	12090.8125
1607.47959	11244.4125
1610.79447	10367.8125
1614.10715	9545.6125
1617.41763	8868.3125
1620.7259	8408.5125
1624.03199	8153.3125
1627.33587	8130.5125
1630.63757	8271.5125
1633.93707	8618.7125
1637.23439	9213.3125
1640.52951	10170.0125
1643.82246	11498.1125
1647.11321	13152.6125
1650.40179	14467.2125
1653.68819	14386.1125
1656.97241	12656.4125
1660.25446	10424.8125
1663.53433	8745.2125
1666.81203	7720.2125
1670.08756	7105.3125
1673.36092	6720.1125
1676.63211	6497.2125
1679.90115	6332.5125
1683.16801	6202.1125
1686.43272	6115.1125
1689.69527	6035.0125
1692.95567	5998.8125
1696.2139	5953.7125
1699.46999	5948.3125
1702.72392	5918.6125
1705.97571	5878.6125
1709.22535	5866.4125
1712.47284	5834.6125
1715.71819	5845.8125
1718.96139	5832.7125
1722.20246	5822.2125
1725.44139	5790.2125
1728.67818	5726.3125
1731.91284	5681.3125
1735.14537	5640.6125
1738.37576	5598.3125
1741.60403	5569.3125
1744.83017	5541.0125
1748.05418	5522.7125
1751.27607	5518.2125
1754.49584	5520.2125
1757.71349	5482.6125
1760.92903	5484.4125
1764.14244	5467.9125
1767.35375	5446.8125
1770.56294	5432.1125
1773.77002	5419.4125
1776.97499	5366.9125
1780.17785	5321.7125
1783.37861	5298.0125
1786.57727	5276.1125
1789.77382	5262.2125
1792.96828	5261.2125
1796.16064	5252.6125
1799.3509	5236.5125
1802.53907	5226.8125
1805.72514	5200.6125
1808.90913	5193.8125
1812.09102	5174.7125
1815.27083	5141.1125
1818.44856	5123.9125
1821.6242	5123.6125
1824.79776	5107.4125
1827.96924	5111.8125
1831.13864	5101.3125
1834.30597	5099.6125
1837.47122	5084.8125
1840.6344	5090.8125
1843.7955	5071.3125
1846.95454	5066.9125
1850.11151	5060.7125
1853.26642	5062.1125
1856.41926	5074.7125
1859.57004	5053.4125
1862.71876	5039.7125
1865.86542	5048.7125
1869.01003	5046.5125
1872.15258	5031.3125
1875.29308	5033.5125
1878.43152	5033.8125
1881.56792	5027.4125
1884.70227	5057.0125
1887.83457	5046.1125
1890.96482	5048.3125
1894.09304	5042.3125
1897.21921	5045.7125
1900.34335	5043.9125
1903.46544	5046.4125
1906.58551	5048.4125
1909.70353	5057.0125
1912.81953	5053.9125
1915.93349	5055.3125
1919.04543	5048.8125
1922.15534	5014.8125
1925.26322	5015.4125
1928.36908	5007.5125
1931.47292	4976.3125
1934.57473	4959.9125
1937.67453	4911.6125
1940.77232	4904.3125
1943.86808	4847.2125
1946.96184	4839.8125
1950.05358	4816.1125
1953.14331	4779.4125
1956.23103	4769.7125
1959.31675	4761.6125
1962.40046	4750.1125
1965.48217	4737.2125
1968.56188	4710.1125
1971.63959	4701.6125
1974.7153	4691.7125
1977.78901	4685.6125
1980.86073	4654.3125
1983.93046	4642.0125
1986.99819	4609.5125
1990.06394	4599.0125
1993.1277	4584.1125
1996.18947	4561.1125
1999.24925	4543.3125
2002.30706	4529.6125
2005.36288	4521.1125
2008.41672	4496.7125
2011.46859	4495.1125
2014.51848	4471.7125
2017.56639	4445.5125
2020.61233	4438.6125
2023.6563	4436.9125
2026.6983	4433.0125
2029.73833	4399.8125
2032.7764	4405.3125
2035.8125	4389.9125
2038.84664	4365.6125
2041.87881	4366.1125
2044.90903	4362.4125
2047.93729	4338.7125
2050.96359	4334.1125
2053.98794	4339.3125
2057.01034	4316.3125
2060.03078	4315.3125
2063.04927	4318.8125
2066.06582	4307.2125
2069.08042	4297.9125
2072.09307	4301.9125
2075.10378	4278.3125
2078.11255	4270.0125
2081.11938	4286.2125
2084.12426	4285.7125
2087.12722	4276.6125
2090.12824	4270.7125
2093.12732	4262.9125
2096.12447	4273.5125
2099.11969	4254.1125
2102.11299	4273.1125
2105.10435	4273.1125
2108.09379	4275.1125
2111.08131	4271.8125
2114.0669	4259.2125
2117.05057	4264.4125
2120.03233	4290.0125
2123.01216	4286.0125
2125.99008	4285.8125
2128.96609	4275.2125
2131.94018	4271.6125
2134.91236	4286.9125
2137.88263	4294.4125
2140.851	4272.6125
2143.81746	4279.5125
2146.78201	4282.0125
2149.74466	4265.9125
2152.7054	4278.3125
2155.66425	4259.2125
2158.6212	4249.4125
2161.57625	4246.2125
2164.52941	4243.9125
2167.48067	4246.3125
2170.43004	4247.1125
2173.37752	4241.7125
2176.32311	4233.1125
2179.26681	4227.6125
2182.20863	4248.7125
2185.14856	4227.2125
2188.08661	4222.9125
2191.02278	4203.3125
2193.95707	4199.1125
2196.88948	4199.2125
2199.82001	4193.2125
2202.74867	4187.7125
2205.67545	4188.0125
2208.60037	4180.8125
2211.52341	4160.9125
2214.44458	4176.7125
2217.36388	4147.2125
2220.28132	4156.0125
2223.1969	4135.6125
2226.11061	4149.1125
2229.02246	4110.7125
2231.93245	4104.1125
2234.84058	4086.6125
2237.74686	4085.2125
2240.65128	4082.2125
2243.55385	4082.9125
2246.45456	4074.2125
2249.35343	4065.6125
2252.25044	4056.2125
2255.14561	4050.4125
2258.03893	4052.9125
2260.93041	4065.5125
2263.82004	4044.5125
2266.70783	4035.3125
2269.59378	4027.4125
2272.4779	4014.8125
2275.36017	4015.1125
2278.24061	3998.9125
2281.11922	3978.5125
2283.996	3972.9125
2286.87094	3967.3125
2289.74405	3952.0125
2292.61534	3953.4125
2295.4848	3936.4125
2298.35243	3936.4125
2301.21824	3917.1125
2304.08223	3898.5125
2306.94439	3909.0125
2309.80474	3900.8125
2312.66327	3913.5125
2315.51999	3905.3125
2318.37489	3889.3125
2321.22797	3886.7125
2324.07925	3891.4125
2326.92871	3880.1125
2329.77637	3882.0125
2332.62222	3891.7125
2335.46626	3866.2125
2338.3085	3859.4125
2341.14893	3856.2125
2343.98756	3852.9125
2346.8244	3858.3125
2349.65943	3856.6125
2352.49267	3859.0125
2355.32411	3862.9125
2358.15376	3871.3125
2360.98161	3874.6125
2363.80768	3881.0125
2366.63195	3885.4125
2369.45444	3888.1125
2372.27514	3897.4125
2375.09405	3891.4125
2377.91118	3862.2125
2380.72652	3858.3125
2383.54009	3834.4125
2386.35187	3810.0125
2389.16188	3793.1125
2391.97011	3794.2125
2394.77657	3767.0125
2397.58125	3760.6125
2400.38416	3750.4125
2403.18529	3753.9125
2405.98466	3734.7125
2408.78226	3720.1125
2411.57809	3727.8125
2414.37216	3716.5125
2417.16446	3718.6125
2419.955	3691.4125
2422.74378	3694.4125
2425.5308	3689.3125
2428.31606	3698.1125
2431.09956	3693.1125
2433.88131	3677.6125
2436.6613	3687.2125
2439.43954	3687.0125
2442.21603	3692.7125
2444.99077	3704.9125
2447.76377	3696.5125
2450.53501	3689.6125
2453.30451	3691.1125
2456.07226	3676.4125
2458.83827	3687.4125
2461.60254	3682.7125
2464.36507	3678.5125
2467.12586	3674.3125
2469.88492	3671.0125
2472.64224	3682.1125
2475.39782	3679.0125
2478.15167	3695.5125
2480.90379	3690.9125
2483.65417	3695.1125
2486.40283	3696.7125
2489.14976	3707.7125
2491.89497	3708.4125
2494.63845	3705.5125
2497.3802	3717.7125
2500.12024	3709.5125
2502.85855	3687.4125
2505.59514	3676.4125
2508.33002	3669.7125
2511.06318	3652.8125
2513.79462	3647.8125
2516.52435	3624.0125
2519.25237	3604.8125
2521.97867	3598.6125
2524.70327	3598.5125
2527.42616	3564.6125
2530.14734	3584.5125
2532.86681	3565.0125
2535.58458	3564.2125
2538.30065	3546.4125
2541.01501	3564.4125
2543.72768	3548.3125
2546.43864	3560.1125
2549.14791	3548.1125
2551.85548	3539.1125
2554.56136	3535.4125
2557.26554	3546.4125
2559.96803	3537.8125
2562.66883	3529.2125
2565.36794	3528.8125
2568.06536	3518.0125
2570.7611	3503.7125
2573.45514	3511.0125
2576.14751	3497.1125
2578.83819	3485.8125
2581.52719	3492.3125
2584.21451	3478.8125
2586.90015	3480.9125
2589.58411	3462.4125
2592.2664	3473.8125
2594.94701	3464.6125
2597.62594	3466.9125
2600.30321	3453.1125
2602.9788	3458.7125
2605.65273	3451.3125
2608.32498	3451.0125
2610.99557	3449.9125
2613.66449	3445.5125
2616.33175	3435.3125
2618.99734	3436.7125
2621.66128	3438.7125
2624.32355	3426.4125
2626.98416	3435.8125
2629.64311	3420.7125
2632.30041	3417.0125
2634.95605	3412.8125
2637.61004	3404.9125
2640.26238	3398.5125
2642.91306	3393.2125
2645.56209	3392.4125
2648.20948	3390.3125
2650.85521	3392.1125
2653.4993	3396.7125
2656.14175	3388.6125
2658.78255	3404.7125
2661.42171	3398.5125
2664.05923	3395.6125
2666.6951	3406.0125
2669.32934	3411.5125
2671.96194	3396.9125
2674.59291	3410.0125
2677.22224	3401.4125
2679.84993	3414.2125
2682.476	3421.0125
2685.10043	3415.5125
2687.72324	3408.5125
2690.34441	3418.0125
2692.96396	3421.1125
2695.58188	3417.2125
2698.19818	3414.0125
2700.81285	3426.3125
2703.4259	3427.3125
2706.03733	3452.8125
2708.64714	3426.7125
2711.25533	3439.4125
2713.86191	3435.2125
2716.46687	3444.7125
2719.07021	3443.1125
2721.67194	3431.7125
2724.27206	3426.7125
2726.87057	3450.2125
2729.46747	3436.9125
2732.06276	3436.2125
2734.65644	3425.3125
2737.24852	3421.1125
2739.83899	3403.9125
2742.42786	3406.3125
2745.01513	3394.8125
2747.60079	3385.1125
2750.18486	3373.3125
2752.76733	3388.1125
2755.3482	3375.5125
2757.92747	3378.1125
2760.50515	3362.8125
2763.08123	3354.5125
2765.65573	3357.0125
2768.22863	3358.9125
2770.79994	3352.2125
2773.36967	3348.1125
2775.9378	3355.7125
2778.50435	3346.2125
2781.06932	3347.2125
2783.6327	3347.3125
2786.1945	3342.4125
2788.75471	3345.4125
2791.31335	3342.5125
2793.87041	3352.4125
2796.42589	3334.2125
2798.97979	3331.1125
2801.53212	3348.9125
2804.08288	3351.4125
2806.63206	3346.9125
2809.17967	3341.3125
2811.72571	3342.1125
2814.27018	3357.8125
2816.81308	3364.3125
2819.35442	3369.8125
2821.89419	3371.4125
2824.43239	3369.5125
2826.96904	3380.4125
2829.50412	3388.8125
2832.03763	3384.9125
2834.56959	3398.7125
2837.1	3416.3125
2839.62884	3448.9125
2842.15613	3502.8125
2844.68186	3570.7125
2847.20604	3650.2125
2849.72867	3713.5125
2852.24974	3749.6125
2854.76927	3750.8125
2857.28724	3744.3125
2859.80367	3716.7125
2862.31855	3701.9125
2864.83189	3685.7125
2867.34368	3645.7125
2869.85393	3648.7125
2872.36264	3657.5125
2874.8698	3668.6125
2877.37543	3673.0125
2879.87952	3648.5125
2882.38207	3653.5125
2884.88308	3642.4125
2887.38256	3647.3125
2889.88051	3644.7125
2892.37692	3637.7125
2894.8718	3649.4125
2897.36515	3645.2125
2899.85698	3663.5125
2902.34727	3657.6125
2904.83604	3686.3125
2907.32328	3668.9125
2909.809	3671.3125
2912.29319	3673.3125
2914.77587	3672.4125
2917.25702	3658.9125
2919.73665	3643.7125
2922.21476	3648.5125
2924.69136	3655.2125
2927.16644	3637.5125
2929.64	3637.7125
2932.11205	3619.6125
2934.58258	3599.4125
2937.05161	3578.2125
2939.51912	3563.8125
2941.98513	3528.5125
2944.44962	3480.1125
2946.91261	3429.8125
2949.37409	3394.6125
2951.83407	3361.1125
2954.29254	3342.9125
2956.74951	3315.4125
2959.20498	3319.1125
2961.65895	3288.8125
2964.11142	3271.8125
2966.56239	3266.0125
2969.01186	3267.2125
2971.45984	3229.4125
2973.90632	3215.4125
2976.35131	3203.9125
2978.7948	3183.0125
2981.23681	3163.5125
2983.67732	3170.4125
2986.11635	3148.8125
2988.55388	3131.9125
2990.98993	3122.4125
2993.4245	3120.1125
2995.85758	3115.9125
2998.28917	3094.6125
3000.71928	3097.5125
3003.14791	3088.9125
3005.57506	3092.9125
3008.00073	3090.9125
3010.42493	3070.3125
3012.84764	3078.9125
3015.26888	3077.8125
3017.68865	3071.9125
3020.10694	3062.6125
3022.52376	3067.0125
3024.9391	3049.7125
3027.35298	3061.0125
3029.76539	3050.0125
3032.17632	3031.1125
3034.5858	3035.2125
3036.9938	3023.8125
3039.40034	3015.8125
3041.80542	3013.8125
3044.20903	3013.5125
3046.61118	3012.4125
3049.01187	3009.9125
3051.4111	3001.8125
3053.80888	3016.9125
3056.20519	3002.7125
3058.60005	2996.0125
3060.99345	2987.5125
3063.3854	2980.5125
3065.7759	2990.9125
3068.16494	2978.7125
3070.55254	2981.9125
3072.93868	2975.7125
3075.32338	2961.7125
3077.70662	2959.2125
3080.08842	2944.0125
3082.46878	2944.0125
3084.84769	2939.4125
3087.22515	2948.2125
3089.60118	2922.5125
3091.97576	2916.6125
3094.3489	2907.0125
3096.72061	2916.2125
3099.09087	2903.4125
3101.4597	2908.2125
3103.82709	2906.0125
3106.19305	2899.7125
3108.55757	2907.1125
3110.92066	2884.8125
3113.28232	2893.8125
3115.64255	2895.9125
3118.00134	2893.3125
3120.35871	2883.2125
3122.71466	2885.7125
3125.06917	2886.7125
3127.42226	2890.4125
3129.77393	2903.5125
3132.12417	2883.8125
3134.47299	2898.9125
3136.82039	2899.7125
3139.16636	2900.1125
3141.51092	2912.5125
3143.85406	2919.7125
3146.19579	2927.1125
3148.53609	2930.3125
3150.87499	2923.2125
3153.21246	2933.2125
3155.54853	2952.0125
3157.88318	2940.4125
3160.21642	2947.3125
3162.54826	2953.8125
3164.87868	2945.8125
3167.2077	2964.1125
3169.5353	2956.6125
3171.86151	2957.9125
3174.18631	2966.5125
3176.5097	2958.6125
3178.83169	2958.4125
3181.15228	2963.6125
3183.47147	2964.7125
3185.78926	2973.7125
3188.10565	2965.9125
3190.42065	2970.9125
3192.73424	2973.6125
3195.04645	2976.8125
3197.35725	2981.8125
3199.66667	2993.7125
3201.97469	2992.5125
3204.28132	2997.4125
3206.58656	3000.3125
3208.8904	3015.0125
3211.19287	2999.6125
3213.49394	3014.9125
3215.79363	3012.1125
3218.09193	3017.6125
3220.38884	3012.7125
3222.68438	3030.7125
3224.97853	3014.6125
3227.2713	3019.3125
3229.56269	3006.2125
3231.8527	3007.9125
3234.14133	3011.9125
3236.42858	3004.3125
3238.71446	2996.3125
3240.99896	3002.4125
3243.28209	3000.9125
3245.56384	2992.6125
3247.84423	2998.3125
3250.12324	2990.9125
3252.40088	3003.3125
3254.67715	2986.3125
3256.95205	2978.5125
3259.22558	2985.6125
3261.49775	2977.3125
3263.76855	2974.6125
3266.03799	2958.9125
3268.30606	2963.5125
3270.57277	2955.9125
3272.83812	2950.2125
3275.10211	2944.3125
3277.36474	2946.7125
3279.62601	2941.1125
3281.88593	2937.3125
3284.14448	2935.5125
3286.40168	2947.4125
3288.65753	2928.1125
3290.91202	2932.9125
3293.16516	2914.0125
3295.41695	2927.7125
3297.66738	2905.9125
3299.91647	2894.2125
3302.16421	2879.3125
3304.4106	2861.8125
3306.65564	2862.1125
3308.89933	2840.3125
3311.14169	2831.3125
3313.38269	2783.7125
3315.62236	2767.6125
3317.86068	2750.2125
3320.09766	2718.9125
3322.3333	2699.1125
3324.5676	2684.9125
3326.80056	2658.8125
3329.03219	2633.8125
3331.26248	-0.8875
3333.49143	-0.7875
3335.71905	-0.4875
