Data from AgNPs_FTO_APTES_UA_2uM_CRN_50uM_R6G_10uM_NaF_0.1M_Addition_RamanShift__51__15-35-45-297.txt Node

Date: Wed Feb 02 15:35:45 GMT 2022
User: TCL
Spectrometer: QEP01345
Trigger mode: 4
Integration Time (sec): 7.000000E0
Scans to average: 10
Electric dark correction enabled: true
Nonlinearity correction enabled: false
Boxcar width: 0
XAxis mode: Raman Shifts
Number of Pixels in Spectrum: 1044
>>>>>Begin Spectral Data<<<<<
46.04893	1.0375
50.45542	1.2375
54.85868	-0.7625
59.25871	-0.8625
63.6555	70.6375
68.04907	81.4375
72.43941	80.9375
76.82654	91.3375
81.21044	97.5375
85.59113	101.1375
89.96862	101.0375
94.34289	104.1375
98.71396	107.4375
103.08183	117.4375
107.4465	119.1375
111.80798	117.7375
116.16626	118.7375
120.52136	127.3375
124.87327	130.3375
129.222	132.4375
133.56755	142.3375
137.90993	152.3375
142.24913	169.1375
146.58517	187.6375
150.91804	216.4375
155.24774	259.1375
159.57429	315.1375
163.89768	399.4375
168.21792	519.7375
172.53501	704.7375
176.84895	983.7375
181.15975	1372.7375
185.46741	1936.1375
189.77193	2659.0375
194.07331	3549.0375
198.37157	4592.2375
202.6667	5641.8375
206.9587	6722.3375
211.24758	7776.0375
215.53334	8818.3375
219.81599	9912.6375
224.09553	11142.2375
228.37195	12455.8375
232.64527	13864.7375
236.91549	15366.3375
241.18261	16884.9375
245.44663	18293.5375
249.70755	19583.8375
253.96539	20705.2375
258.22014	21688.7375
262.4718	22469.2375
266.72039	23041.7375
270.96589	23444.0375
275.20832	23526.0375
279.44768	23586.0375
283.68397	23574.5375
287.91719	23608.4375
292.14735	23709.6375
296.37445	23849.5375
300.59849	24019.3375
304.81948	24105.5375
309.03742	23966.5375
313.25231	23552.6375
317.46415	22944.1375
321.67296	22173.0375
325.87872	21510.9375
330.08145	21138.0375
334.28114	21001.6375
338.47781	21083.4375
342.67145	21244.6375
346.86207	21433.6375
351.04966	21678.4375
355.23424	21902.7375
359.4158	22070.0375
363.59435	22263.4375
367.76989	22345.4375
371.94243	22444.5375
376.11196	22435.5375
380.27849	22423.3375
384.44203	22469.6375
388.60257	22586.6375
392.76012	22943.7375
396.91468	23383.5375
401.06626	23802.2375
405.21485	23994.3375
409.36047	23901.8375
413.50311	23562.6375
417.64277	23382.6375
421.77947	23378.7375
425.9132	23494.8375
430.04396	23615.5375
434.17176	23733.8375
438.2966	23850.5375
442.41849	24152.8375
446.53742	24694.9375
450.6534	25357.6375
454.76644	25834.8375
458.87653	26132.1375
462.98368	26232.8375
467.08789	26202.4375
471.18916	26071.0375
475.2875	26070.6375
479.38291	26261.8375
483.4754	26212.5375
487.56496	25816.3375
491.6516	25143.0375
495.73531	24420.3375
499.81612	23993.6375
503.89401	23905.5375
507.96899	23944.5375
512.04106	23988.4375
516.11023	23828.5375
520.1765	23456.6375
524.23987	23102.7375
528.30034	22699.9375
532.35792	22406.2375
536.41261	22165.0375
540.46441	22017.9375
544.51333	22156.3375
548.55936	22602.9375
552.60252	23247.9375
556.64279	23888.5375
560.6802	24452.5375
564.71473	24898.1375
568.7464	25668.3375
572.7752	26915.9375
576.80114	28146.9375
580.82422	29045.6375
584.84444	29530.9375
588.86181	29844.0375
592.87633	29918.0375
596.888	29360.8375
600.89682	28350.4375
604.9028	28028.8375
608.90594	28867.6375
612.90624	29635.7375
616.90371	27516.3375
620.89834	23762.3375
624.89015	22188.4375
628.87913	22161.0375
632.86528	22421.4375
636.84862	22483.7375
640.82913	22170.3375
644.80683	21618.5375
648.78172	21191.9375
652.75379	21070.3375
656.72306	21144.2375
660.68952	21369.5375
664.65319	21283.7375
668.61405	21055.1375
672.57211	21001.2375
676.52738	21073.2375
680.47986	21075.3375
684.42955	21004.3375
688.37646	20918.2375
692.32058	20988.2375
696.26192	21186.7375
700.20048	21465.3375
704.13626	21704.2375
708.06928	21851.7375
711.99952	21833.8375
715.927	21760.7375
719.85171	21695.1375
723.77365	21453.1375
727.69284	21117.7375
731.60928	20810.6375
735.52295	20639.3375
739.43388	20524.6375
743.34206	20559.1375
747.24749	20731.5375
751.15017	21004.8375
755.05012	21510.7375
758.94733	22304.2375
762.8418	23551.5375
766.73354	25309.4375
770.62254	26628.0375
774.50882	26466.4375
778.39237	24947.7375
782.27321	23198.7375
786.15132	21868.9375
790.02671	21056.9375
793.89938	20597.2375
797.76935	20332.5375
801.6366	20313.1375
805.50115	20265.4375
809.36299	20172.6375
813.22213	20080.5375
817.07857	20110.8375
820.93231	20061.4375
824.78336	19949.7375
828.63172	19709.5375
832.47738	19538.6375
836.32036	19475.5375
840.16066	19470.9375
843.99827	19430.9375
847.8332	19388.9375
851.66546	19391.0375
855.49504	19435.4375
859.32195	19430.3375
863.1462	19343.0375
866.96777	19268.3375
870.78668	19240.9375
874.60293	19182.4375
878.41652	19169.5375
882.22745	19192.0375
886.03573	19223.8375
889.84136	19263.7375
893.64433	19196.2375
897.44466	19190.6375
901.24235	19162.9375
905.0374	19093.0375
908.8298	19098.6375
912.61957	19283.1375
916.40671	19578.7375
920.19121	20006.4375
923.97308	20197.5375
927.75233	19965.0375
931.52895	19596.9375
935.30295	19163.5375
939.07433	18732.3375
942.84309	18472.5375
946.60924	18208.7375
950.37278	18107.4375
954.13371	18155.5375
957.89203	18178.5375
961.64774	18227.1375
965.40086	18253.4375
969.15137	18146.1375
972.89929	17979.0375
976.64461	17838.8375
980.38733	17746.6375
984.12747	17756.0375
987.86502	17803.8375
991.59999	17887.4375
995.33237	18017.0375
999.06217	18179.2375
1002.78939	18461.9375
1006.51404	18671.6375
1010.23611	18949.7375
1013.95561	19192.0375
1017.67255	19244.6375
1021.38692	19143.8375
1025.09872	18928.5375
1028.80796	18707.8375
1032.51465	18666.0375
1036.21877	18758.3375
1039.92035	18899.7375
1043.61937	19012.1375
1047.31584	19101.9375
1051.00976	19182.2375
1054.70114	19350.2375
1058.38998	19641.5375
1062.07627	19981.5375
1065.76003	20420.0375
1069.44126	20755.0375
1073.11995	21080.1375
1076.79611	21336.4375
1080.46974	21358.3375
1084.14085	21368.5375
1087.80943	21552.8375
1091.47549	21812.9375
1095.13903	21920.8375
1098.80005	21760.7375
1102.45857	21105.0375
1106.11456	20438.4375
1109.76805	20062.6375
1113.41903	19985.7375
1117.06751	20046.2375
1120.71348	20301.9375
1124.35696	20590.9375
1127.99793	20890.1375
1131.63641	21099.4375
1135.2724	21130.2375
1138.90589	21119.8375
1142.5369	21311.4375
1146.16542	21645.6375
1149.79145	22094.1375
1153.415	22555.9375
1157.03607	23120.0375
1160.65467	23893.8375
1164.27079	25202.9375
1167.88443	26686.6375
1171.49561	28301.4375
1175.10432	30132.9375
1178.71056	32304.4375
1182.31434	34250.4375
1185.91565	35415.8375
1189.51451	35670.1375
1193.11091	35426.5375
1196.70485	34487.6375
1200.29634	33176.9375
1203.88538	32231.6375
1207.47197	31930.0375
1211.05612	31814.3375
1214.63782	31283.2375
1218.21708	30021.5375
1221.79391	28544.2375
1225.36829	27312.4375
1228.94024	26554.3375
1232.50976	26137.9375
1236.07685	25943.2375
1239.6415	25884.5375
1243.20374	26011.7375
1246.76355	26293.7375
1250.32093	26656.8375
1253.8759	27233.7375
1257.42845	28120.1375
1260.97859	28965.5375
1264.52631	29867.6375
1268.07163	30682.6375
1271.61453	31548.9375
1275.15503	32538.7375
1278.69312	33678.4375
1282.22882	34905.8375
1285.76211	36462.9375
1289.29301	38285.5375
1292.82151	40587.8375
1296.34761	43281.0375
1299.87133	46076.1375
1303.39266	48485.4375
1306.9116	50072.7375
1310.42815	50857.9375
1313.94233	51157.0375
1317.45412	51002.8375
1320.96354	51119.0375
1324.47058	51543.1375
1327.97525	52232.5375
1331.47754	52664.7375
1334.97747	52790.3375
1338.47502	52648.5375
1341.97022	52303.2375
1345.46305	51653.4375
1348.95352	50649.0375
1352.44163	49252.2375
1355.92738	48194.7375
1359.41078	47844.2375
1362.89183	47750.4375
1366.37053	46593.0375
1369.84688	43791.9375
1373.32088	40276.9375
1376.79254	37792.9375
1380.26186	37122.8375
1383.72883	37630.5375
1387.19347	38259.6375
1390.65578	38505.0375
1394.11575	38570.4375
1397.57339	38762.7375
1401.0287	39053.0375
1404.48168	39086.6375
1407.93234	38376.5375
1411.38068	36965.3375
1414.82669	34950.6375
1418.27039	32850.3375
1421.71177	31034.3375
1425.15083	29707.8375
1428.58758	29086.2375
1432.02203	29276.5375
1435.45416	30170.8375
1438.88399	31304.7375
1442.31151	32293.1375
1445.73673	33017.1375
1449.15965	33774.0375
1452.58027	34405.2375
1455.9986	34817.4375
1459.41463	35151.4375
1462.82837	35495.1375
1466.23982	35901.4375
1469.64898	36114.9375
1473.05586	36146.4375
1476.46045	35900.1375
1479.86276	35438.6375
1483.26279	34913.1375
1486.66054	34665.5375
1490.05602	34712.8375
1493.44922	35130.0375
1496.84016	35737.9375
1500.22882	36710.2375
1503.61521	37881.3375
1506.99934	39144.9375
1510.38121	40130.4375
1513.76081	40497.0375
1517.13816	40285.0375
1520.51324	39961.5375
1523.88607	39891.6375
1527.25665	40137.5375
1530.62498	40339.1375
1533.99105	40200.0375
1537.35488	39425.8375
1540.71647	38152.2375
1544.07581	36593.3375
1547.4329	35131.7375
1550.78776	33892.1375
1554.14038	33132.8375
1557.49077	32712.6375
1560.83892	32536.2375
1564.18484	32466.8375
1567.52853	32568.7375
1570.86999	33001.9375
1574.20922	33953.0375
1577.54624	34975.4375
1580.88103	35741.8375
1584.2136	36447.4375
1587.54395	37419.1375
1590.87208	38704.1375
1594.19801	40124.8375
1597.52172	41247.1375
1600.84321	40900.9375
1604.16251	38631.1375
1607.47959	35529.9375
1610.79447	32541.9375
1614.10715	29739.3375
1617.41763	27378.2375
1620.7259	25651.3375
1624.03199	24676.1375
1627.33587	24625.1375
1630.63757	25444.4375
1633.93707	27303.3375
1637.23439	30430.4375
1640.52951	34778.0375
1643.82246	39723.0375
1647.11321	43665.9375
1650.40179	44555.1375
1653.68819	41676.2375
1656.97241	36304.2375
1660.25446	30587.0375
1663.53433	25988.5375
1666.81203	22744.9375
1670.08756	20606.7375
1673.36092	19198.0375
1676.63211	18401.2375
1679.90115	17803.7375
1683.16801	17367.9375
1686.43272	17056.6375
1689.69527	16822.4375
1692.95567	16597.4375
1696.2139	16501.7375
1699.46999	16400.1375
1702.72392	16299.6375
1705.97571	16168.9375
1709.22535	16057.1375
1712.47284	15997.6375
1715.71819	15928.8375
1718.96139	15863.4375
1722.20246	15764.7375
1725.44139	15652.3375
1728.67818	15549.2375
1731.91284	15451.2375
1735.14537	15369.4375
1738.37576	15277.5375
1741.60403	15211.0375
1744.83017	15116.1375
1748.05418	15077.9375
1751.27607	15065.9375
1754.49584	15035.2375
1757.71349	15017.5375
1760.92903	14997.6375
1764.14244	14982.5375
1767.35375	14913.2375
1770.56294	14859.4375
1773.77002	14791.2375
1776.97499	14754.7375
1780.17785	14719.2375
1783.37861	14674.0375
1786.57727	14638.6375
1789.77382	14582.4375
1792.96828	14555.8375
1796.16064	14501.1375
1799.3509	14408.5375
1802.53907	14379.7375
1805.72514	14352.8375
1808.90913	14294.3375
1812.09102	14265.1375
1815.27083	14266.3375
1818.44856	14224.3375
1821.6242	14194.6375
1824.79776	14176.8375
1827.96924	14175.4375
1831.13864	14123.5375
1834.30597	14140.4375
1837.47122	14155.3375
1840.6344	14161.7375
1843.7955	14152.8375
1846.95454	14130.2375
1850.11151	14097.7375
1853.26642	14088.9375
1856.41926	14075.5375
1859.57004	14059.8375
1862.71876	14039.2375
1865.86542	13971.3375
1869.01003	13974.8375
1872.15258	13934.4375
1875.29308	13919.1375
1878.43152	13893.3375
1881.56792	13874.6375
1884.70227	13833.2375
1887.83457	13821.4375
1890.96482	13760.3375
1894.09304	13748.8375
1897.21921	13751.6375
1900.34335	13713.9375
1903.46544	13688.4375
1906.58551	13649.7375
1909.70353	13610.6375
1912.81953	13595.8375
1915.93349	13538.5375
1919.04543	13518.9375
1922.15534	13479.4375
1925.26322	13461.1375
1928.36908	13414.4375
1931.47292	13396.2375
1934.57473	13318.6375
1937.67453	13317.0375
1940.77232	13238.3375
1943.86808	13240.6375
1946.96184	13192.6375
1950.05358	13155.6375
1953.14331	13092.4375
1956.23103	13056.0375
1959.31675	13028.1375
1962.40046	12981.5375
1965.48217	12929.0375
1968.56188	12895.1375
1971.63959	12838.8375
1974.7153	12809.4375
1977.78901	12769.2375
1980.86073	12708.9375
1983.93046	12651.8375
1986.99819	12592.6375
1990.06394	12569.6375
1993.1277	12549.9375
1996.18947	12461.3375
1999.24925	12431.7375
2002.30706	12389.4375
2005.36288	12355.3375
2008.41672	12337.3375
2011.46859	12289.1375
2014.51848	12220.7375
2017.56639	12169.6375
2020.61233	12176.7375
2023.6563	12115.2375
2026.6983	12079.5375
2029.73833	12079.1375
2032.7764	12026.6375
2035.8125	12003.6375
2038.84664	11955.2375
2041.87881	11951.7375
2044.90903	11923.9375
2047.93729	11934.6375
2050.96359	11892.2375
2053.98794	11862.7375
2057.01034	11851.4375
2060.03078	11838.7375
2063.04927	11829.8375
2066.06582	11818.0375
2069.08042	11811.3375
2072.09307	11785.6375
2075.10378	11779.7375
2078.11255	11750.2375
2081.11938	11714.3375
2084.12426	11718.4375
2087.12722	11739.7375
2090.12824	11706.9375
2093.12732	11704.5375
2096.12447	11735.2375
2099.11969	11731.9375
2102.11299	11748.2375
2105.10435	11756.8375
2108.09379	11729.1375
2111.08131	11742.8375
2114.0669	11735.4375
2117.05057	11765.7375
2120.03233	11755.4375
2123.01216	11757.7375
2125.99008	11734.0375
2128.96609	11745.1375
2131.94018	11726.2375
2134.91236	11711.8375
2137.88263	11744.1375
2140.851	11736.6375
2143.81746	11730.1375
2146.78201	11744.0375
2149.74466	11704.5375
2152.7054	11713.6375
2155.66425	11704.4375
2158.6212	11708.4375
2161.57625	11668.2375
2164.52941	11681.9375
2167.48067	11637.5375
2170.43004	11636.1375
2173.37752	11622.6375
2176.32311	11617.2375
2179.26681	11602.2375
2182.20863	11600.3375
2185.14856	11622.0375
2188.08661	11601.3375
2191.02278	11585.8375
2193.95707	11585.5375
2196.88948	11550.1375
2199.82001	11550.0375
2202.74867	11516.7375
2205.67545	11526.8375
2208.60037	11497.1375
2211.52341	11476.1375
2214.44458	11448.8375
2217.36388	11407.8375
2220.28132	11424.8375
2223.1969	11374.1375
2226.11061	11381.9375
2229.02246	11321.4375
2231.93245	11340.7375
2234.84058	11293.2375
2237.74686	11269.2375
2240.65128	11275.1375
2243.55385	11212.6375
2246.45456	11215.3375
2249.35343	11199.1375
2252.25044	11161.5375
2255.14561	11127.8375
2258.03893	11113.9375
2260.93041	11073.0375
2263.82004	11023.8375
2266.70783	11001.6375
2269.59378	10966.6375
2272.4779	10924.1375
2275.36017	10912.6375
2278.24061	10886.0375
2281.11922	10837.4375
2283.996	10822.5375
2286.87094	10826.9375
2289.74405	10771.8375
2292.61534	10794.7375
2295.4848	10761.6375
2298.35243	10765.8375
2301.21824	10736.3375
2304.08223	10707.7375
2306.94439	10745.6375
2309.80474	10716.6375
2312.66327	10702.0375
2315.51999	10677.7375
2318.37489	10683.5375
2321.22797	10659.4375
2324.07925	10636.9375
2326.92871	10627.8375
2329.77637	10608.6375
2332.62222	10584.1375
2335.46626	10589.8375
2338.3085	10579.9375
2341.14893	10562.9375
2343.98756	10580.1375
2346.8244	10542.0375
2349.65943	10555.8375
2352.49267	10565.5375
2355.32411	10559.4375
2358.15376	10552.8375
2360.98161	10549.3375
2363.80768	10552.3375
2366.63195	10527.4375
2369.45444	10514.5375
2372.27514	10505.3375
2375.09405	10480.2375
2377.91118	10436.7375
2380.72652	10438.9375
2383.54009	10428.0375
2386.35187	10409.7375
2389.16188	10343.4375
2391.97011	10345.1375
2394.77657	10297.2375
2397.58125	10318.3375
2400.38416	10293.3375
2403.18529	10289.7375
2405.98466	10249.9375
2408.78226	10237.9375
2411.57809	10239.1375
2414.37216	10215.0375
2417.16446	10222.5375
2419.955	10198.2375
2422.74378	10192.0375
2425.5308	10190.7375
2428.31606	10199.6375
2431.09956	10172.8375
2433.88131	10154.0375
2436.6613	10172.8375
2439.43954	10137.4375
2442.21603	10128.4375
2444.99077	10127.0375
2447.76377	10089.6375
2450.53501	10101.6375
2453.30451	10089.4375
2456.07226	10112.4375
2458.83827	10102.7375
2461.60254	10076.6375
2464.36507	10086.9375
2467.12586	10063.7375
2469.88492	10062.9375
2472.64224	10061.7375
2475.39782	10057.6375
2478.15167	10060.3375
2480.90379	10054.9375
2483.65417	10042.4375
2486.40283	10063.6375
2489.14976	10061.4375
2491.89497	10064.7375
2494.63845	10056.6375
2497.3802	10064.8375
2500.12024	10045.3375
2502.85855	10046.7375
2505.59514	10047.0375
2508.33002	10034.1375
2511.06318	10027.1375
2513.79462	10031.6375
2516.52435	10017.6375
2519.25237	9996.3375
2521.97867	9972.3375
2524.70327	9995.4375
2527.42616	9951.5375
2530.14734	9993.4375
2532.86681	9958.0375
2535.58458	9956.1375
2538.30065	9941.0375
2541.01501	9931.1375
2543.72768	9906.7375
2546.43864	9910.5375
2549.14791	9896.3375
2551.85548	9875.8375
2554.56136	9859.8375
2557.26554	9874.7375
2559.96803	9822.7375
2562.66883	9864.7375
2565.36794	9861.3375
2568.06536	9832.4375
2570.7611	9834.2375
2573.45514	9820.5375
2576.14751	9779.9375
2578.83819	9764.6375
2581.52719	9790.3375
2584.21451	9762.6375
2586.90015	9752.7375
2589.58411	9766.4375
2592.2664	9746.3375
2594.94701	9706.0375
2597.62594	9727.7375
2600.30321	9683.6375
2602.9788	9711.5375
2605.65273	9695.0375
2608.32498	9702.8375
2610.99557	9709.8375
2613.66449	9690.0375
2616.33175	9706.0375
2618.99734	9717.5375
2621.66128	9675.9375
2624.32355	9677.7375
2626.98416	9691.6375
2629.64311	9680.2375
2632.30041	9665.1375
2634.95605	9654.5375
2637.61004	9669.0375
2640.26238	9659.4375
2642.91306	9642.8375
2645.56209	9644.5375
2648.20948	9653.3375
2650.85521	9634.4375
2653.4993	9656.4375
2656.14175	9639.3375
2658.78255	9658.1375
2661.42171	9638.1375
2664.05923	9670.1375
2666.6951	9680.9375
2669.32934	9677.5375
2671.96194	9658.3375
2674.59291	9688.6375
2677.22224	9671.8375
2679.84993	9683.8375
2682.476	9635.6375
2685.10043	9638.2375
2687.72324	9637.7375
2690.34441	9632.8375
2692.96396	9651.5375
2695.58188	9649.6375
2698.19818	9643.6375
2700.81285	9658.7375
2703.4259	9653.8375
2706.03733	9671.7375
2708.64714	9672.4375
2711.25533	9668.4375
2713.86191	9650.7375
2716.46687	9672.8375
2719.07021	9667.0375
2721.67194	9702.5375
2724.27206	9692.5375
2726.87057	9714.9375
2729.46747	9713.4375
2732.06276	9708.7375
2734.65644	9682.5375
2737.24852	9706.7375
2739.83899	9665.1375
2742.42786	9689.5375
2745.01513	9657.0375
2747.60079	9656.2375
2750.18486	9647.3375
2752.76733	9655.8375
2755.3482	9662.1375
2757.92747	9680.0375
2760.50515	9669.8375
2763.08123	9668.9375
2765.65573	9654.9375
2768.22863	9654.4375
2770.79994	9638.6375
2773.36967	9635.7375
2775.9378	9616.2375
2778.50435	9630.8375
2781.06932	9598.7375
2783.6327	9610.9375
2786.1945	9605.3375
2788.75471	9606.7375
2791.31335	9564.8375
2793.87041	9543.6375
2796.42589	9553.1375
2798.97979	9567.6375
2801.53212	9546.5375
2804.08288	9521.2375
2806.63206	9515.8375
2809.17967	9468.8375
2811.72571	9460.0375
2814.27018	9462.9375
2816.81308	9443.0375
2819.35442	9413.2375
2821.89419	9386.7375
2824.43239	9382.4375
2826.96904	9370.2375
2829.50412	9383.6375
2832.03763	9354.3375
2834.56959	9375.2375
2837.1	9382.3375
2839.62884	9369.7375
2842.15613	9359.3375
2844.68186	9413.8375
2847.20604	9421.0375
2849.72867	9443.8375
2852.24974	9448.0375
2854.76927	9448.8375
2857.28724	9427.0375
2859.80367	9392.5375
2862.31855	9386.0375
2864.83189	9367.6375
2867.34368	9376.3375
2869.85393	9374.7375
2872.36264	9339.3375
2874.8698	9331.6375
2877.37543	9346.1375
2879.87952	9312.5375
2882.38207	9327.3375
2884.88308	9305.9375
2887.38256	9302.9375
2889.88051	9303.8375
2892.37692	9300.8375
2894.8718	9319.2375
2897.36515	9302.5375
2899.85698	9304.0375
2902.34727	9340.8375
2904.83604	9322.0375
2907.32328	9356.2375
2909.809	9350.6375
2912.29319	9340.0375
2914.77587	9321.2375
2917.25702	9336.2375
2919.73665	9320.3375
2922.21476	9341.3375
2924.69136	9320.1375
2927.16644	9327.8375
2929.64	9340.6375
2932.11205	9336.5375
2934.58258	9327.3375
2937.05161	9320.7375
2939.51912	9309.8375
2941.98513	9297.4375
2944.44962	9254.9375
2946.91261	9183.5375
2949.37409	9182.7375
2951.83407	9140.5375
2954.29254	9137.5375
2956.74951	9138.1375
2959.20498	9121.4375
2961.65895	9106.1375
2964.11142	9059.1375
2966.56239	9089.1375
2969.01186	9076.5375
2971.45984	9039.1375
2973.90632	9023.0375
2976.35131	8969.5375
2978.7948	8954.1375
2981.23681	8934.9375
2983.67732	8909.6375
2986.11635	8882.3375
2988.55388	8853.5375
2990.98993	8862.4375
2993.4245	8813.8375
2995.85758	8796.7375
2998.28917	8770.8375
3000.71928	8777.5375
3003.14791	8733.3375
3005.57506	8717.1375
3008.00073	8667.8375
3010.42493	8643.3375
3012.84764	8623.7375
3015.26888	8655.5375
3017.68865	8618.9375
3020.10694	8589.8375
3022.52376	8572.5375
3024.9391	8558.1375
3027.35298	8548.5375
3029.76539	8558.4375
3032.17632	8545.8375
3034.5858	8529.1375
3036.9938	8520.2375
3039.40034	8509.0375
3041.80542	8490.5375
3044.20903	8486.1375
3046.61118	8465.8375
3049.01187	8444.8375
3051.4111	8424.9375
3053.80888	8404.2375
3056.20519	8398.0375
3058.60005	8379.6375
3060.99345	8331.5375
3063.3854	8321.4375
3065.7759	8308.2375
3068.16494	8274.3375
3070.55254	8223.8375
3072.93868	8209.5375
3075.32338	8198.5375
3077.70662	8194.9375
3080.08842	8147.8375
3082.46878	8143.0375
3084.84769	8125.8375
3087.22515	8095.8375
3089.60118	8096.4375
3091.97576	8096.7375
3094.3489	8073.2375
3096.72061	8069.1375
3099.09087	8074.8375
3101.4597	8057.8375
3103.82709	8065.1375
3106.19305	8029.1375
3108.55757	8032.7375
3110.92066	7988.8375
3113.28232	8003.8375
3115.64255	7948.0375
3118.00134	7929.3375
3120.35871	7912.6375
3122.71466	7881.2375
3125.06917	7892.6375
3127.42226	7872.3375
3129.77393	7866.6375
3132.12417	7835.2375
3134.47299	7868.0375
3136.82039	7838.2375
3139.16636	7835.9375
3141.51092	7856.5375
3143.85406	7842.9375
3146.19579	7837.8375
3148.53609	7852.8375
3150.87499	7849.8375
3153.21246	7848.4375
3155.54853	7847.5375
3157.88318	7841.3375
3160.21642	7827.3375
3162.54826	7812.0375
3164.87868	7819.8375
3167.2077	7833.1375
3169.5353	7821.0375
3171.86151	7823.9375
3174.18631	7822.2375
3176.5097	7790.4375
3178.83169	7796.8375
3181.15228	7798.1375
3183.47147	7770.7375
3185.78926	7768.6375
3188.10565	7765.4375
3190.42065	7743.2375
3192.73424	7777.8375
3195.04645	7742.8375
3197.35725	7710.2375
3199.66667	7727.0375
3201.97469	7714.9375
3204.28132	7693.5375
3206.58656	7719.9375
3208.8904	7703.7375
3211.19287	7729.3375
3213.49394	7704.4375
3215.79363	7697.4375
3218.09193	7699.6375
3220.38884	7681.9375
3222.68438	7687.5375
3224.97853	7674.3375
3227.2713	7679.9375
3229.56269	7681.7375
3231.8527	7670.3375
3234.14133	7654.3375
3236.42858	7620.2375
3238.71446	7633.9375
3240.99896	7620.9375
3243.28209	7607.1375
3245.56384	7599.7375
3247.84423	7571.6375
3250.12324	7565.4375
3252.40088	7568.7375
3254.67715	7554.3375
3256.95205	7535.4375
3259.22558	7523.6375
3261.49775	7508.2375
3263.76855	7490.9375
3266.03799	7471.3375
3268.30606	7443.5375
3270.57277	7425.9375
3272.83812	7423.2375
3275.10211	7411.4375
3277.36474	7400.4375
3279.62601	7391.2375
3281.88593	7383.9375
3284.14448	7399.2375
3286.40168	7388.0375
3288.65753	7376.1375
3290.91202	7370.0375
3293.16516	7332.8375
3295.41695	7319.5375
3297.66738	7265.0375
3299.91647	7235.2375
3302.16421	7197.5375
3304.4106	7166.1375
3306.65564	7106.2375
3308.89933	7074.4375
3311.14169	7029.8375
3313.38269	6963.3375
3315.62236	6923.2375
3317.86068	6865.2375
3320.09766	6779.5375
3322.3333	6720.3375
3324.5676	6706.7375
3326.80056	6621.0375
3329.03219	6570.0375
3331.26248	0.8375
3333.49143	0.1375
3335.71905	-1.9625
