Data from AgNPs_FTO_APTES_UA_2uM_CRN_10uM_R6G_10uM_NaF_0.1M_Addition_RamanShift__6__13-25-05-146.txt Node

Date: Wed Feb 02 13:25:05 GMT 2022
User: TCL
Spectrometer: QEP01345
Trigger mode: 4
Integration Time (sec): 7.000000E0
Scans to average: 10
Electric dark correction enabled: true
Nonlinearity correction enabled: false
Boxcar width: 0
XAxis mode: Raman Shifts
Number of Pixels in Spectrum: 1044
>>>>>Begin Spectral Data<<<<<
46.04893	-0.3125
50.45542	-0.5125
54.85868	-1.9125
59.25871	-1.8125
63.6555	98.1875
68.04907	102.2875
72.43941	104.5875
76.82654	115.2875
81.21044	118.1875
85.59113	122.9875
89.96862	121.4875
94.34289	129.8875
98.71396	131.6875
103.08183	137.5875
107.4465	144.5875
111.80798	145.3875
116.16626	144.8875
120.52136	155.1875
124.87327	159.7875
129.222	171.5875
133.56755	185.0875
137.90993	199.9875
142.24913	220.7875
146.58517	251.4875
150.91804	288.6875
155.24774	351.8875
159.57429	438.2875
163.89768	562.9875
168.21792	753.3875
172.53501	1027.2875
176.84895	1435.7875
181.15975	2017.0875
185.46741	2823.3875
189.77193	3902.3875
194.07331	5207.3875
198.37157	6688.3875
202.6667	8242.5875
206.9587	9862.9875
211.24758	11383.4875
215.53334	12888.9875
219.81599	14568.4875
224.09553	16364.5875
228.37195	18315.6875
232.64527	20539.3875
236.91549	22786.8875
241.18261	25063.4875
245.44663	27219.9875
249.70755	29057.3875
253.96539	30742.8875
258.22014	32127.4875
262.4718	33213.2875
266.72039	34056.4875
270.96589	34410.4875
275.20832	34412.2875
279.44768	34162.3875
283.68397	33826.0875
287.91719	33537.7875
292.14735	33399.2875
296.37445	33343.0875
300.59849	33396.8875
304.81948	33667.1875
309.03742	33751.6875
313.25231	33560.2875
317.46415	33098.1875
321.67296	32407.0875
325.87872	31768.2875
330.08145	31464.3875
334.28114	31389.1875
338.47781	31456.4875
342.67145	31757.5875
346.86207	32225.7875
351.04966	32713.6875
355.23424	33307.9875
359.4158	33814.8875
363.59435	34170.1875
367.76989	34474.8875
371.94243	34665.4875
376.11196	34689.3875
380.27849	34812.2875
384.44203	34937.7875
388.60257	35256.4875
392.76012	35702.7875
396.91468	36268.2875
401.06626	36859.8875
405.21485	37234.2875
409.36047	37053.3875
413.50311	36744.1875
417.64277	36697.1875
421.77947	36909.2875
425.9132	37106.8875
430.04396	37311.6875
434.17176	37406.1875
438.2966	37564.4875
442.41849	38056.6875
446.53742	39048.5875
450.6534	40136.3875
454.76644	40803.9875
458.87653	40996.9875
462.98368	40689.4875
467.08789	40191.4875
471.18916	39493.5875
475.2875	38857.9875
479.38291	38539.9875
483.4754	38322.2875
487.56496	37949.1875
491.6516	37338.8875
495.73531	36775.8875
499.81612	36428.7875
503.89401	36591.5875
507.96899	36784.4875
512.04106	36690.9875
516.11023	36354.3875
520.1765	35872.8875
524.23987	35520.0875
528.30034	35183.5875
532.35792	34810.5875
536.41261	34399.9875
540.46441	33979.1875
544.51333	33988.3875
548.55936	34388.7875
552.60252	35122.8875
556.64279	36068.5875
560.6802	36783.8875
564.71473	37327.2875
568.7464	38009.5875
572.7752	39406.0875
576.80114	40856.0875
580.82422	42581.9875
584.84444	44738.9875
588.86181	47488.8875
592.87633	49595.1875
596.888	49016.6875
600.89682	46012.8875
604.9028	44341.5875
608.90594	46098.2875
612.90624	48273.8875
616.90371	45069.4875
620.89834	38514.3875
624.89015	35628.7875
628.87913	35298.5875
632.86528	35596.3875
636.84862	35379.8875
640.82913	34645.9875
644.80683	33721.1875
648.78172	33197.4875
652.75379	33332.6875
656.72306	33771.0875
660.68952	34171.5875
664.65319	33843.0875
668.61405	33187.6875
672.57211	33155.6875
676.52738	33357.5875
680.47986	33337.8875
684.42955	33080.4875
688.37646	32907.5875
692.32058	33185.8875
696.26192	33733.1875
700.20048	34313.2875
704.13626	34680.5875
708.06928	34776.2875
711.99952	34604.3875
715.927	34675.0875
719.85171	34837.5875
723.77365	34663.1875
727.69284	34001.2875
731.60928	33442.6875
735.52295	33196.2875
739.43388	33124.9875
743.34206	33234.2875
747.24749	33548.1875
751.15017	33974.7875
755.05012	34647.9875
758.94733	35758.5875
762.8418	37361.1875
766.73354	39696.3875
770.62254	41685.4875
774.50882	41758.3875
778.39237	39771.6875
782.27321	37249.2875
786.15132	35223.2875
790.02671	33952.1875
793.89938	33389.9875
797.76935	33101.2875
801.6366	33034.4875
805.50115	32965.9875
809.36299	32759.4875
813.22213	32503.7875
817.07857	32305.1875
820.93231	32146.0875
824.78336	31927.5875
828.63172	31799.3875
832.47738	31761.1875
836.32036	31741.9875
840.16066	31832.9875
843.99827	31882.7875
847.8332	31843.2875
851.66546	31733.5875
855.49504	31768.4875
859.32195	31714.0875
863.1462	31652.9875
866.96777	31565.3875
870.78668	31440.3875
874.60293	31469.4875
878.41652	31462.7875
882.22745	31584.9875
886.03573	31702.5875
889.84136	31689.9875
893.64433	31530.4875
897.44466	31424.3875
901.24235	31358.0875
905.0374	31260.5875
908.8298	31302.7875
912.61957	31394.3875
916.40671	31712.3875
920.19121	32226.5875
923.97308	32721.5875
927.75233	32795.0875
931.52895	32456.7875
935.30295	31757.5875
939.07433	31091.9875
942.84309	30590.5875
946.60924	30398.1875
950.37278	30346.5875
954.13371	30393.4875
957.89203	30367.4875
961.64774	30381.0875
965.40086	30408.5875
969.15137	30361.8875
972.89929	30182.6875
976.64461	30070.0875
980.38733	30065.2875
984.12747	30098.5875
987.86502	30273.4875
991.59999	30553.5875
995.33237	30870.5875
999.06217	31504.3875
1002.78939	32324.3875
1006.51404	33094.2875
1010.23611	33760.5875
1013.95561	34085.0875
1017.67255	34102.7875
1021.38692	33661.1875
1025.09872	33011.6875
1028.80796	32749.6875
1032.51465	33023.6875
1036.21877	33498.5875
1039.92035	33755.3875
1043.61937	33696.5875
1047.31584	33380.3875
1051.00976	33022.7875
1054.70114	32860.5875
1058.38998	32981.6875
1062.07627	33234.8875
1065.76003	33620.6875
1069.44126	34089.1875
1073.11995	34807.7875
1076.79611	35273.4875
1080.46974	35508.4875
1084.14085	35745.2875
1087.80943	36120.3875
1091.47549	36532.6875
1095.13903	36661.7875
1098.80005	36133.1875
1102.45857	35149.9875
1106.11456	34307.6875
1109.76805	33882.6875
1113.41903	33811.9875
1117.06751	33943.8875
1120.71348	34236.8875
1124.35696	34593.2875
1127.99793	35046.3875
1131.63641	35373.2875
1135.2724	35340.9875
1138.90589	35279.7875
1142.5369	35562.9875
1146.16542	35929.0875
1149.79145	36346.4875
1153.415	36840.2875
1157.03607	37570.6875
1160.65467	38915.6875
1164.27079	41029.8875
1167.88443	43442.0875
1171.49561	45762.7875
1175.10432	48526.4875
1178.71056	52031.1875
1182.31434	55357.4875
1185.91565	56833.9875
1189.51451	56312.4875
1193.11091	54799.5875
1196.70485	53101.3875
1200.29634	51267.4875
1203.88538	50130.8875
1207.47197	49749.5875
1211.05612	49590.2875
1214.63782	48860.0875
1218.21708	47398.9875
1221.79391	45760.3875
1225.36829	44521.9875
1228.94024	43663.6875
1232.50976	43019.5875
1236.07685	42326.7875
1239.6415	41894.9875
1243.20374	41853.0875
1246.76355	42254.7875
1250.32093	43035.1875
1253.8759	44143.1875
1257.42845	45398.6875
1260.97859	46930.2875
1264.52631	48426.5875
1268.07163	50038.5875
1271.61453	51612.3875
1275.15503	53241.2875
1278.69312	55017.0875
1282.22882	57046.4875
1285.76211	59486.7875
1289.29301	62202.6875
1292.82151	65420.1875
1296.34761	69353.6875
1299.87133	73765.6875
1303.39266	78155.9875
1306.9116	81681.9875
1310.42815	83983.4875
1313.94233	84793.2875
1317.45412	83932.8875
1320.96354	82387.7875
1324.47058	81327.2875
1327.97525	80708.6875
1331.47754	80363.2875
1334.97747	79635.4875
1338.47502	78342.3875
1341.97022	76439.1875
1345.46305	74350.2875
1348.95352	72678.9875
1352.44163	72389.9875
1355.92738	74229.4875
1359.41078	77554.6875
1362.89183	80390.7875
1366.37053	79953.7875
1369.84688	74509.0875
1373.32088	66330.7875
1376.79254	60341.9875
1380.26186	58332.5875
1383.72883	58698.2875
1387.19347	59060.0875
1390.65578	58489.4875
1394.11575	58287.4875
1397.57339	58986.7875
1401.0287	60270.8875
1404.48168	61381.2875
1407.93234	61371.2875
1411.38068	59965.7875
1414.82669	57645.4875
1418.27039	55014.4875
1421.71177	52352.8875
1425.15083	50236.6875
1428.58758	49409.0875
1432.02203	50029.7875
1435.45416	51712.9875
1438.88399	53685.8875
1442.31151	55039.1875
1445.73673	55687.1875
1449.15965	56148.8875
1452.58027	56103.2875
1455.9986	55685.0875
1459.41463	55716.4875
1462.82837	56392.6875
1466.23982	57612.3875
1469.64898	58695.1875
1473.05586	59431.6875
1476.46045	59667.5875
1479.86276	59331.9875
1483.26279	58762.2875
1486.66054	58327.9875
1490.05602	58572.5875
1493.44922	59156.9875
1496.84016	59642.7875
1500.22882	60224.9875
1503.61521	61090.1875
1506.99934	62089.8875
1510.38121	62893.0875
1513.76081	63047.7875
1517.13816	62318.7875
1520.51324	61142.8875
1523.88607	60656.9875
1527.25665	60729.9875
1530.62498	60909.9875
1533.99105	60644.8875
1537.35488	59598.9875
1540.71647	57878.2875
1544.07581	55939.3875
1547.4329	54052.2875
1550.78776	52427.8875
1554.14038	51406.3875
1557.49077	50759.0875
1560.83892	50335.0875
1564.18484	50157.1875
1567.52853	50165.3875
1570.86999	50644.3875
1574.20922	51689.3875
1577.54624	52888.8875
1580.88103	53806.3875
1584.2136	55132.5875
1587.54395	57656.6875
1590.87208	61449.9875
1594.19801	65798.0875
1597.52172	69260.4875
1600.84321	69453.9875
1604.16251	65278.5875
1607.47959	58897.8875
1610.79447	52618.3875
1614.10715	47322.1875
1617.41763	43502.4875
1620.7259	41053.3875
1624.03199	40034.1875
1627.33587	40302.1875
1630.63757	41842.4875
1633.93707	45170.3875
1637.23439	50705.6875
1640.52951	58800.0875
1643.82246	68280.6875
1647.11321	75518.4875
1650.40179	76077.8875
1653.68819	69217.2875
1656.97241	58494.4875
1660.25446	48666.8875
1663.53433	41595.0875
1666.81203	37172.1875
1670.08756	34389.2875
1673.36092	32718.1875
1676.63211	31606.9875
1679.90115	30807.6875
1683.16801	30291.9875
1686.43272	29828.4875
1689.69527	29519.8875
1692.95567	29316.6875
1696.2139	29141.3875
1699.46999	29043.8875
1702.72392	28919.3875
1705.97571	28791.3875
1709.22535	28715.4875
1712.47284	28633.7875
1715.71819	28566.2875
1718.96139	28499.4875
1722.20246	28382.6875
1725.44139	28228.0875
1728.67818	28093.9875
1731.91284	27873.2875
1735.14537	27719.2875
1738.37576	27613.0875
1741.60403	27452.7875
1744.83017	27398.2875
1748.05418	27328.5875
1751.27607	27305.8875
1754.49584	27207.1875
1757.71349	27250.4875
1760.92903	27146.6875
1764.14244	27094.2875
1767.35375	27078.7875
1770.56294	27047.0875
1773.77002	26997.0875
1776.97499	26921.9875
1780.17785	26809.8875
1783.37861	26790.9875
1786.57727	26724.8875
1789.77382	26675.5875
1792.96828	26638.6875
1796.16064	26606.8875
1799.3509	26559.0875
1802.53907	26485.6875
1805.72514	26436.8875
1808.90913	26301.4875
1812.09102	26305.4875
1815.27083	26278.5875
1818.44856	26255.3875
1821.6242	26184.3875
1824.79776	26199.2875
1827.96924	26202.6875
1831.13864	26197.5875
1834.30597	26178.1875
1837.47122	26204.6875
1840.6344	26185.8875
1843.7955	26226.0875
1846.95454	26194.5875
1850.11151	26195.3875
1853.26642	26185.0875
1856.41926	26108.8875
1859.57004	26079.0875
1862.71876	26101.4875
1865.86542	26076.8875
1869.01003	26027.5875
1872.15258	26002.9875
1875.29308	25951.0875
1878.43152	25952.6875
1881.56792	25865.2875
1884.70227	25866.9875
1887.83457	25834.6875
1890.96482	25845.8875
1894.09304	25750.3875
1897.21921	25781.8875
1900.34335	25712.3875
1903.46544	25674.8875
1906.58551	25649.1875
1909.70353	25571.5875
1912.81953	25509.0875
1915.93349	25472.0875
1919.04543	25384.6875
1922.15534	25380.6875
1925.26322	25331.4875
1928.36908	25256.3875
1931.47292	25175.9875
1934.57473	25087.0875
1937.67453	25024.3875
1940.77232	24993.8875
1943.86808	24918.6875
1946.96184	24836.1875
1950.05358	24793.9875
1953.14331	24740.5875
1956.23103	24665.0875
1959.31675	24614.9875
1962.40046	24529.4875
1965.48217	24432.9875
1968.56188	24382.7875
1971.63959	24307.0875
1974.7153	24225.1875
1977.78901	24193.1875
1980.86073	24091.7875
1983.93046	23995.7875
1986.99819	23926.3875
1990.06394	23911.3875
1993.1277	23815.3875
1996.18947	23717.6875
1999.24925	23668.8875
2002.30706	23559.2875
2005.36288	23537.6875
2008.41672	23459.5875
2011.46859	23396.9875
2014.51848	23333.3875
2017.56639	23313.3875
2020.61233	23235.8875
2023.6563	23210.5875
2026.6983	23177.8875
2029.73833	23102.6875
2032.7764	23026.4875
2035.8125	23043.1875
2038.84664	22984.1875
2041.87881	22956.3875
2044.90903	22881.7875
2047.93729	22834.8875
2050.96359	22871.7875
2053.98794	22823.4875
2057.01034	22817.7875
2060.03078	22778.4875
2063.04927	22753.3875
2066.06582	22802.3875
2069.08042	22738.8875
2072.09307	22709.1875
2075.10378	22674.5875
2078.11255	22704.2875
2081.11938	22696.5875
2084.12426	22661.4875
2087.12722	22660.9875
2090.12824	22654.7875
2093.12732	22667.0875
2096.12447	22668.3875
2099.11969	22697.5875
2102.11299	22681.6875
2105.10435	22700.3875
2108.09379	22636.9875
2111.08131	22679.0875
2114.0669	22693.8875
2117.05057	22705.7875
2120.03233	22731.2875
2123.01216	22723.9875
2125.99008	22772.8875
2128.96609	22785.8875
2131.94018	22806.8875
2134.91236	22799.9875
2137.88263	22823.9875
2140.851	22804.6875
2143.81746	22827.7875
2146.78201	22850.6875
2149.74466	22834.0875
2152.7054	22777.2875
2155.66425	22775.0875
2158.6212	22750.5875
2161.57625	22772.4875
2164.52941	22778.5875
2167.48067	22745.8875
2170.43004	22730.3875
2173.37752	22696.1875
2176.32311	22738.1875
2179.26681	22739.9875
2182.20863	22754.1875
2185.14856	22759.0875
2188.08661	22724.2875
2191.02278	22780.0875
2193.95707	22749.1875
2196.88948	22700.4875
2199.82001	22733.2875
2202.74867	22724.1875
2205.67545	22716.2875
2208.60037	22637.7875
2211.52341	22595.6875
2214.44458	22588.1875
2217.36388	22565.5875
2220.28132	22518.9875
2223.1969	22486.2875
2226.11061	22484.5875
2229.02246	22437.9875
2231.93245	22441.4875
2234.84058	22428.0875
2237.74686	22382.4875
2240.65128	22358.3875
2243.55385	22279.0875
2246.45456	22285.3875
2249.35343	22247.9875
2252.25044	22222.0875
2255.14561	22146.0875
2258.03893	22127.0875
2260.93041	22036.5875
2263.82004	21979.6875
2266.70783	21960.6875
2269.59378	21858.3875
2272.4779	21790.6875
2275.36017	21780.4875
2278.24061	21737.4875
2281.11922	21688.4875
2283.996	21671.2875
2286.87094	21646.7875
2289.74405	21621.9875
2292.61534	21614.7875
2295.4848	21599.6875
2298.35243	21608.6875
2301.21824	21613.2875
2304.08223	21593.2875
2306.94439	21605.1875
2309.80474	21602.0875
2312.66327	21584.5875
2315.51999	21571.5875
2318.37489	21581.0875
2321.22797	21559.6875
2324.07925	21470.2875
2326.92871	21457.7875
2329.77637	21493.3875
2332.62222	21429.4875
2335.46626	21451.3875
2338.3085	21378.8875
2341.14893	21399.6875
2343.98756	21418.9875
2346.8244	21428.4875
2349.65943	21345.9875
2352.49267	21364.5875
2355.32411	21384.5875
2358.15376	21350.5875
2360.98161	21356.6875
2363.80768	21346.1875
2366.63195	21319.2875
2369.45444	21276.1875
2372.27514	21290.9875
2375.09405	21246.9875
2377.91118	21195.1875
2380.72652	21132.6875
2383.54009	21088.4875
2386.35187	21106.1875
2389.16188	21040.7875
2391.97011	21031.7875
2394.77657	20989.6875
2397.58125	20966.9875
2400.38416	20962.7875
2403.18529	20909.5875
2405.98466	20904.7875
2408.78226	20893.3875
2411.57809	20862.8875
2414.37216	20824.4875
2417.16446	20821.2875
2419.955	20813.5875
2422.74378	20818.9875
2425.5308	20768.3875
2428.31606	20797.8875
2431.09956	20752.4875
2433.88131	20730.5875
2436.6613	20735.0875
2439.43954	20737.5875
2442.21603	20706.6875
2444.99077	20641.8875
2447.76377	20654.9875
2450.53501	20620.9875
2453.30451	20685.4875
2456.07226	20674.5875
2458.83827	20646.5875
2461.60254	20654.3875
2464.36507	20666.1875
2467.12586	20639.5875
2469.88492	20628.0875
2472.64224	20627.0875
2475.39782	20640.1875
2478.15167	20671.6875
2480.90379	20665.0875
2483.65417	20701.5875
2486.40283	20673.9875
2489.14976	20689.8875
2491.89497	20654.3875
2494.63845	20676.8875
2497.3802	20712.1875
2500.12024	20701.0875
2502.85855	20702.4875
2505.59514	20682.4875
2508.33002	20664.6875
2511.06318	20631.5875
2513.79462	20621.8875
2516.52435	20578.0875
2519.25237	20592.6875
2521.97867	20588.2875
2524.70327	20585.9875
2527.42616	20578.8875
2530.14734	20574.4875
2532.86681	20556.9875
2535.58458	20537.6875
2538.30065	20503.5875
2541.01501	20497.7875
2543.72768	20490.1875
2546.43864	20448.7875
2549.14791	20424.5875
2551.85548	20416.3875
2554.56136	20454.9875
2557.26554	20406.1875
2559.96803	20410.1875
2562.66883	20418.8875
2565.36794	20387.0875
2568.06536	20373.4875
2570.7611	20330.9875
2573.45514	20312.7875
2576.14751	20294.8875
2578.83819	20333.0875
2581.52719	20317.8875
2584.21451	20259.2875
2586.90015	20239.9875
2589.58411	20250.6875
2592.2664	20259.1875
2594.94701	20221.4875
2597.62594	20224.0875
2600.30321	20224.1875
2602.9788	20192.7875
2605.65273	20171.6875
2608.32498	20199.9875
2610.99557	20181.5875
2613.66449	20236.7875
2616.33175	20191.8875
2618.99734	20203.0875
2621.66128	20187.4875
2624.32355	20169.6875
2626.98416	20178.0875
2629.64311	20112.3875
2632.30041	20130.8875
2634.95605	20123.2875
2637.61004	20093.2875
2640.26238	20076.1875
2642.91306	20065.3875
2645.56209	20043.8875
2648.20948	20036.5875
2650.85521	20066.9875
2653.4993	20110.1875
2656.14175	20076.5875
2658.78255	20114.3875
2661.42171	20095.6875
2664.05923	20145.3875
2666.6951	20164.8875
2669.32934	20170.6875
2671.96194	20169.8875
2674.59291	20143.2875
2677.22224	20159.0875
2679.84993	20167.6875
2682.476	20106.7875
2685.10043	20147.1875
2687.72324	20148.7875
2690.34441	20144.2875
2692.96396	20120.6875
2695.58188	20143.2875
2698.19818	20125.2875
2700.81285	20137.9875
2703.4259	20175.4875
2706.03733	20178.5875
2708.64714	20171.9875
2711.25533	20173.6875
2713.86191	20171.1875
2716.46687	20174.5875
2719.07021	20180.5875
2721.67194	20218.1875
2724.27206	20190.4875
2726.87057	20258.9875
2729.46747	20260.7875
2732.06276	20249.2875
2734.65644	20240.5875
2737.24852	20225.6875
2739.83899	20200.1875
2742.42786	20233.9875
2745.01513	20201.6875
2747.60079	20207.3875
2750.18486	20200.6875
2752.76733	20249.8875
2755.3482	20216.5875
2757.92747	20223.4875
2760.50515	20231.5875
2763.08123	20213.1875
2765.65573	20170.7875
2768.22863	20153.0875
2770.79994	20139.4875
2773.36967	20123.9875
2775.9378	20126.2875
2778.50435	20134.8875
2781.06932	20157.7875
2783.6327	20126.4875
2786.1945	20157.2875
2788.75471	20149.3875
2791.31335	20108.2875
2793.87041	20039.7875
2796.42589	20004.2875
2798.97979	19992.5875
2801.53212	19964.5875
2804.08288	19952.5875
2806.63206	19908.3875
2809.17967	19861.6875
2811.72571	19837.3875
2814.27018	19818.7875
2816.81308	19763.9875
2819.35442	19733.0875
2821.89419	19698.2875
2824.43239	19705.5875
2826.96904	19695.5875
2829.50412	19689.9875
2832.03763	19635.0875
2834.56959	19628.4875
2837.1	19612.5875
2839.62884	19625.1875
2842.15613	19614.7875
2844.68186	19635.2875
2847.20604	19635.5875
2849.72867	19670.1875
2852.24974	19621.3875
2854.76927	19625.0875
2857.28724	19614.7875
2859.80367	19637.7875
2862.31855	19579.5875
2864.83189	19569.4875
2867.34368	19500.3875
2869.85393	19457.1875
2872.36264	19426.0875
2874.8698	19461.0875
2877.37543	19470.7875
2879.87952	19456.2875
2882.38207	19458.8875
2884.88308	19461.7875
2887.38256	19495.7875
2889.88051	19488.8875
2892.37692	19527.4875
2894.8718	19493.3875
2897.36515	19527.2875
2899.85698	19506.2875
2902.34727	19551.1875
2904.83604	19553.8875
2907.32328	19575.3875
2909.809	19583.8875
2912.29319	19521.2875
2914.77587	19504.5875
2917.25702	19506.9875
2919.73665	19460.2875
2922.21476	19521.3875
2924.69136	19533.1875
2927.16644	19552.3875
2929.64	19521.4875
2932.11205	19522.0875
2934.58258	19449.8875
2937.05161	19487.2875
2939.51912	19470.5875
2941.98513	19438.8875
2944.44962	19421.2875
2946.91261	19327.8875
2949.37409	19336.3875
2951.83407	19332.2875
2954.29254	19341.8875
2956.74951	19320.2875
2959.20498	19279.4875
2961.65895	19247.0875
2964.11142	19235.7875
2966.56239	19179.3875
2969.01186	19167.7875
2971.45984	19146.0875
2973.90632	19110.1875
2976.35131	19043.2875
2978.7948	18996.9875
2981.23681	18938.6875
2983.67732	18935.0875
2986.11635	18903.3875
2988.55388	18796.4875
2990.98993	18802.9875
2993.4245	18738.3875
2995.85758	18696.9875
2998.28917	18658.3875
3000.71928	18600.2875
3003.14791	18612.7875
3005.57506	18562.9875
3008.00073	18526.5875
3010.42493	18517.9875
3012.84764	18473.4875
3015.26888	18462.1875
3017.68865	18436.1875
3020.10694	18377.8875
3022.52376	18351.5875
3024.9391	18321.2875
3027.35298	18250.9875
3029.76539	18225.8875
3032.17632	18207.6875
3034.5858	18198.1875
3036.9938	18178.0875
3039.40034	18162.2875
3041.80542	18174.1875
3044.20903	18118.5875
3046.61118	18134.3875
3049.01187	18057.9875
3051.4111	18054.3875
3053.80888	18039.0875
3056.20519	17991.2875
3058.60005	17947.4875
3060.99345	17901.4875
3063.3854	17858.3875
3065.7759	17792.9875
3068.16494	17799.5875
3070.55254	17680.0875
3072.93868	17654.0875
3075.32338	17589.3875
3077.70662	17610.7875
3080.08842	17540.5875
3082.46878	17498.0875
3084.84769	17477.0875
3087.22515	17468.4875
3089.60118	17477.5875
3091.97576	17441.6875
3094.3489	17422.4875
3096.72061	17412.9875
3099.09087	17425.2875
3101.4597	17384.5875
3103.82709	17405.5875
3106.19305	17343.0875
3108.55757	17326.2875
3110.92066	17247.4875
3113.28232	17221.0875
3115.64255	17159.0875
3118.00134	17148.0875
3120.35871	17092.2875
3122.71466	17056.4875
3125.06917	17045.7875
3127.42226	16972.5875
3129.77393	16998.8875
3132.12417	16994.2875
3134.47299	16962.9875
3136.82039	16990.2875
3139.16636	16969.9875
3141.51092	16938.8875
3143.85406	16963.2875
3146.19579	16958.0875
3148.53609	16905.6875
3150.87499	16908.2875
3153.21246	16893.8875
3155.54853	16916.1875
3157.88318	16895.8875
3160.21642	16897.9875
3162.54826	16862.6875
3164.87868	16857.9875
3167.2077	16849.8875
3169.5353	16805.5875
3171.86151	16818.4875
3174.18631	16772.6875
3176.5097	16798.7875
3178.83169	16774.8875
3181.15228	16810.5875
3183.47147	16755.6875
3185.78926	16738.2875
3188.10565	16722.8875
3190.42065	16707.6875
3192.73424	16708.0875
3195.04645	16655.5875
3197.35725	16678.9875
3199.66667	16639.4875
3201.97469	16676.2875
3204.28132	16628.3875
3206.58656	16639.0875
3208.8904	16589.1875
3211.19287	16650.7875
3213.49394	16659.8875
3215.79363	16624.5875
3218.09193	16602.8875
3220.38884	16597.3875
3222.68438	16577.4875
3224.97853	16561.2875
3227.2713	16559.0875
3229.56269	16524.3875
3231.8527	16519.3875
3234.14133	16469.3875
3236.42858	16471.0875
3238.71446	16457.3875
3240.99896	16400.3875
3243.28209	16432.0875
3245.56384	16405.8875
3247.84423	16416.0875
3250.12324	16391.3875
3252.40088	16365.5875
3254.67715	16321.9875
3256.95205	16262.0875
3259.22558	16302.3875
3261.49775	16220.6875
3263.76855	16211.9875
3266.03799	16166.8875
3268.30606	16133.4875
3270.57277	16107.7875
3272.83812	16127.9875
3275.10211	16073.2875
3277.36474	16070.2875
3279.62601	16063.7875
3281.88593	16052.4875
3284.14448	16067.6875
3286.40168	16050.5875
3288.65753	16020.9875
3290.91202	15983.4875
3293.16516	15944.1875
3295.41695	15927.7875
3297.66738	15844.4875
3299.91647	15754.5875
3302.16421	15684.5875
3304.4106	15591.8875
3306.65564	15502.9875
3308.89933	15408.0875
3311.14169	15304.4875
3313.38269	15209.7875
3315.62236	15087.8875
3317.86068	14982.3875
3320.09766	14806.3875
3322.3333	14672.5875
3324.5676	14661.7875
3326.80056	14444.3875
3329.03219	14380.3875
3331.26248	3.5875
3333.49143	0.5875
3335.71905	0.2875
