Data from AgNPs_FTO_APTES_UA_2uM_CRN_5uM_R6G_10uM_NaF_0.1M_Addition_RamanShift__22__13-04-05-120.txt Node

Date: Wed Feb 02 13:04:05 GMT 2022
User: TCL
Spectrometer: QEP01345
Trigger mode: 4
Integration Time (sec): 7.000000E0
Scans to average: 10
Electric dark correction enabled: true
Nonlinearity correction enabled: false
Boxcar width: 0
XAxis mode: Raman Shifts
Number of Pixels in Spectrum: 1044
>>>>>Begin Spectral Data<<<<<
46.04893	0.2875
50.45542	-0.2125
54.85868	-1.1125
59.25871	-1.1125
63.6555	81.6875
68.04907	87.8875
72.43941	90.4875
76.82654	96.9875
81.21044	97.2875
85.59113	102.4875
89.96862	107.2875
94.34289	107.8875
98.71396	111.9875
103.08183	118.3875
107.4465	119.9875
111.80798	124.2875
116.16626	129.2875
120.52136	135.4875
124.87327	141.0875
129.222	149.7875
133.56755	166.3875
137.90993	178.3875
142.24913	201.1875
146.58517	232.8875
150.91804	265.4875
155.24774	331.1875
159.57429	413.3875
163.89768	538.3875
168.21792	717.0875
172.53501	991.5875
176.84895	1389.4875
181.15975	1950.3875
185.46741	2735.5875
189.77193	3783.2875
194.07331	5021.3875
198.37157	6479.5875
202.6667	8001.0875
206.9587	9469.1875
211.24758	10972.0875
215.53334	12478.9875
219.81599	14103.7875
224.09553	15933.9875
228.37195	17931.4875
232.64527	20136.1875
236.91549	22486.6875
241.18261	24696.7875
245.44663	26693.7875
249.70755	28471.3875
253.96539	29956.6875
258.22014	31303.8875
262.4718	32534.6875
266.72039	33446.7875
270.96589	34015.4875
275.20832	34237.7875
279.44768	34155.3875
283.68397	33988.5875
287.91719	33905.6875
292.14735	34016.7875
296.37445	34186.0875
300.59849	34414.2875
304.81948	34630.8875
309.03742	34643.8875
313.25231	34093.2875
317.46415	32958.2875
321.67296	31493.4875
325.87872	30310.3875
330.08145	29694.2875
334.28114	29590.5875
338.47781	29853.2875
342.67145	30311.9875
346.86207	30979.5875
351.04966	31918.9875
355.23424	32867.4875
359.4158	33618.3875
363.59435	34091.9875
367.76989	34343.8875
371.94243	34552.5875
376.11196	34583.9875
380.27849	34681.9875
384.44203	34684.5875
388.60257	34871.2875
392.76012	35096.3875
396.91468	35586.2875
401.06626	36265.9875
405.21485	36752.8875
409.36047	36454.7875
413.50311	35564.7875
417.64277	34849.5875
421.77947	34588.3875
425.9132	34699.7875
430.04396	34868.4875
434.17176	35107.4875
438.2966	35386.8875
442.41849	36071.6875
446.53742	37056.6875
450.6534	38163.0875
454.76644	39057.4875
458.87653	39434.9875
462.98368	39353.4875
467.08789	38917.0875
471.18916	38276.1875
475.2875	37653.1875
479.38291	37390.0875
483.4754	37085.5875
487.56496	36551.5875
491.6516	35895.8875
495.73531	35382.0875
499.81612	35141.9875
503.89401	35283.1875
507.96899	35357.1875
512.04106	35367.7875
516.11023	35128.2875
520.1765	34888.0875
524.23987	34554.2875
528.30034	34073.5875
532.35792	33619.4875
536.41261	33108.5875
540.46441	32661.7875
544.51333	32716.7875
548.55936	33190.7875
552.60252	34110.3875
556.64279	35103.8875
560.6802	35700.2875
564.71473	36038.0875
568.7464	36821.7875
572.7752	37770.4875
576.80114	38203.5875
580.82422	38446.1875
584.84444	38750.4875
588.86181	38943.5875
592.87633	39274.3875
596.888	39739.2875
600.89682	40224.3875
604.9028	42255.6875
608.90594	47665.7875
612.90624	53517.4875
616.90371	50160.6875
620.89834	39836.6875
624.89015	35200.3875
628.87913	34632.5875
632.86528	34673.0875
636.84862	34557.8875
640.82913	33876.9875
644.80683	32636.7875
648.78172	31776.5875
652.75379	31590.8875
656.72306	32187.9875
660.68952	33024.5875
664.65319	32954.2875
668.61405	32099.9875
672.57211	31737.0875
676.52738	31765.0875
680.47986	31719.3875
684.42955	31531.1875
688.37646	31477.7875
692.32058	31623.0875
696.26192	31966.5875
700.20048	32416.2875
704.13626	32675.3875
708.06928	32585.6875
711.99952	32250.5875
715.927	32153.2875
719.85171	32111.8875
723.77365	32011.8875
727.69284	31590.0875
731.60928	31248.7875
735.52295	31155.9875
739.43388	31280.7875
743.34206	31463.5875
747.24749	31662.3875
751.15017	32002.0875
755.05012	32774.4875
758.94733	34065.5875
762.8418	36500.7875
766.73354	40319.3875
770.62254	43988.7875
774.50882	44952.8875
778.39237	42331.6875
782.27321	38196.9875
786.15132	34706.0875
790.02671	32705.0875
793.89938	31716.5875
797.76935	31397.9875
801.6366	31256.2875
805.50115	31147.2875
809.36299	30919.1875
813.22213	30679.5875
817.07857	30554.9875
820.93231	30581.9875
824.78336	30505.4875
828.63172	30421.7875
832.47738	30425.0875
836.32036	30494.9875
840.16066	30570.3875
843.99827	30634.1875
847.8332	30533.8875
851.66546	30337.3875
855.49504	30240.1875
859.32195	30142.4875
863.1462	29973.0875
866.96777	29788.5875
870.78668	29744.0875
874.60293	29707.4875
878.41652	29737.4875
882.22745	29840.0875
886.03573	30010.4875
889.84136	29977.6875
893.64433	29836.2875
897.44466	29646.5875
901.24235	29547.9875
905.0374	29489.6875
908.8298	29439.9875
912.61957	29521.3875
916.40671	29878.3875
920.19121	30348.0875
923.97308	30820.5875
927.75233	30986.2875
931.52895	30852.0875
935.30295	30417.0875
939.07433	29730.7875
942.84309	29124.7875
946.60924	28854.6875
950.37278	28682.0875
954.13371	28530.6875
957.89203	28337.3875
961.64774	28309.6875
965.40086	28262.4875
969.15137	28131.2875
972.89929	28012.6875
976.64461	27904.2875
980.38733	27920.6875
984.12747	28085.4875
987.86502	28307.1875
991.59999	28811.0875
995.33237	29441.3875
999.06217	30599.4875
1002.78939	31947.6875
1006.51404	32862.4875
1010.23611	33400.8875
1013.95561	33733.9875
1017.67255	33670.7875
1021.38692	33235.5875
1025.09872	32866.4875
1028.80796	33099.7875
1032.51465	34221.4875
1036.21877	35288.7875
1039.92035	35500.4875
1043.61937	34881.3875
1047.31584	33807.3875
1051.00976	32601.1875
1054.70114	31953.4875
1058.38998	31824.7875
1062.07627	31948.4875
1065.76003	32252.5875
1069.44126	32490.9875
1073.11995	32884.4875
1076.79611	33262.2875
1080.46974	33474.2875
1084.14085	33865.9875
1087.80943	34370.9875
1091.47549	34694.0875
1095.13903	34544.0875
1098.80005	33869.8875
1102.45857	33081.2875
1106.11456	32410.1875
1109.76805	32274.7875
1113.41903	32457.3875
1117.06751	32820.2875
1120.71348	33378.1875
1124.35696	33998.8875
1127.99793	34605.4875
1131.63641	34801.5875
1135.2724	34405.5875
1138.90589	33880.8875
1142.5369	33608.6875
1146.16542	33517.7875
1149.79145	33633.4875
1153.415	33912.6875
1157.03607	34521.8875
1160.65467	35475.8875
1164.27079	37069.8875
1167.88443	39260.3875
1171.49561	42286.1875
1175.10432	46449.2875
1178.71056	51770.8875
1182.31434	56475.5875
1185.91565	59166.3875
1189.51451	59394.8875
1193.11091	57410.7875
1196.70485	54239.0875
1200.29634	51093.0875
1203.88538	48512.6875
1207.47197	46445.0875
1211.05612	44930.0875
1214.63782	43859.6875
1218.21708	43300.0875
1221.79391	43141.5875
1225.36829	43064.1875
1228.94024	42794.1875
1232.50976	42354.5875
1236.07685	41966.1875
1239.6415	41687.2875
1243.20374	41411.7875
1246.76355	41458.4875
1250.32093	42042.7875
1253.8759	43098.5875
1257.42845	44620.3875
1260.97859	46131.5875
1264.52631	47551.1875
1268.07163	48980.2875
1271.61453	50599.9875
1275.15503	52419.9875
1278.69312	54133.8875
1282.22882	55598.6875
1285.76211	57009.2875
1289.29301	58562.1875
1292.82151	60523.3875
1296.34761	62949.8875
1299.87133	66237.3875
1303.39266	70544.9875
1306.9116	75991.9875
1310.42815	81674.5875
1313.94233	85602.3875
1317.45412	86396.7875
1320.96354	84998.8875
1324.47058	82777.6875
1327.97525	80499.4875
1331.47754	78937.7875
1334.97747	78200.7875
1338.47502	78228.7875
1341.97022	78180.1875
1345.46305	77477.9875
1348.95352	76060.7875
1352.44163	74803.4875
1355.92738	75596.7875
1359.41078	79219.0875
1362.89183	83328.5875
1366.37053	81953.5875
1369.84688	74296.3875
1373.32088	65581.4875
1376.79254	59654.5875
1380.26186	57186.8875
1383.72883	56545.5875
1387.19347	56221.9875
1390.65578	55615.4875
1394.11575	55576.1875
1397.57339	56415.7875
1401.0287	57820.9875
1404.48168	59279.1875
1407.93234	60143.4875
1411.38068	59958.7875
1414.82669	58469.9875
1418.27039	56077.8875
1421.71177	53392.0875
1425.15083	51107.3875
1428.58758	49746.2875
1432.02203	49427.2875
1435.45416	50061.4875
1438.88399	51127.5875
1442.31151	52240.8875
1445.73673	53197.5875
1449.15965	54183.4875
1452.58027	54841.1875
1455.9986	55177.9875
1459.41463	55538.6875
1462.82837	56453.9875
1466.23982	57575.9875
1469.64898	58668.2875
1473.05586	59233.6875
1476.46045	59276.4875
1479.86276	58949.5875
1483.26279	58552.0875
1486.66054	58349.3875
1490.05602	58711.1875
1493.44922	59324.1875
1496.84016	60058.8875
1500.22882	61287.7875
1503.61521	63357.0875
1506.99934	66233.5875
1510.38121	69219.5875
1513.76081	70765.4875
1517.13816	69533.7875
1520.51324	65997.5875
1523.88607	62305.0875
1527.25665	59781.2875
1530.62498	58314.8875
1533.99105	57408.0875
1537.35488	56820.8875
1540.71647	56229.4875
1544.07581	55424.2875
1547.4329	54494.5875
1550.78776	53590.6875
1554.14038	53134.4875
1557.49077	53024.4875
1560.83892	53106.8875
1564.18484	53258.5875
1567.52853	53218.5875
1570.86999	53208.3875
1574.20922	53647.9875
1577.54624	54110.0875
1580.88103	54071.9875
1584.2136	54148.0875
1587.54395	55555.5875
1590.87208	58436.6875
1594.19801	62253.6875
1597.52172	66047.0875
1600.84321	67240.1875
1604.16251	64337.8875
1607.47959	59087.0875
1610.79447	53542.8875
1614.10715	48534.1875
1617.41763	44456.9875
1620.7259	41465.5875
1624.03199	40081.0875
1627.33587	40081.4875
1630.63757	41434.7875
1633.93707	44403.7875
1637.23439	48710.6875
1640.52951	54415.1875
1643.82246	60500.2875
1647.11321	64985.1875
1650.40179	65754.6875
1653.68819	61722.3875
1656.97241	53836.0875
1660.25446	45640.5875
1663.53433	39354.3875
1666.81203	35192.0875
1670.08756	32636.8875
1673.36092	31033.0875
1676.63211	29983.8875
1679.90115	29237.7875
1683.16801	28670.6875
1686.43272	28277.0875
1689.69527	28014.2875
1692.95567	27774.9875
1696.2139	27587.4875
1699.46999	27513.1875
1702.72392	27365.8875
1705.97571	27265.8875
1709.22535	27199.1875
1712.47284	27149.7875
1715.71819	27111.1875
1718.96139	27050.8875
1722.20246	26931.9875
1725.44139	26793.8875
1728.67818	26654.5875
1731.91284	26526.2875
1735.14537	26311.8875
1738.37576	26217.8875
1741.60403	26132.5875
1744.83017	26059.3875
1748.05418	25969.4875
1751.27607	25934.2875
1754.49584	25886.8875
1757.71349	25841.4875
1760.92903	25837.7875
1764.14244	25815.1875
1767.35375	25778.0875
1770.56294	25693.4875
1773.77002	25660.6875
1776.97499	25615.1875
1780.17785	25545.6875
1783.37861	25543.4875
1786.57727	25522.8875
1789.77382	25447.1875
1792.96828	25385.2875
1796.16064	25348.6875
1799.3509	25291.2875
1802.53907	25269.4875
1805.72514	25139.7875
1808.90913	25137.5875
1812.09102	25102.5875
1815.27083	25082.4875
1818.44856	25044.0875
1821.6242	25041.0875
1824.79776	25024.8875
1827.96924	25023.2875
1831.13864	25017.6875
1834.30597	25023.5875
1837.47122	25006.0875
1840.6344	25004.8875
1843.7955	25015.9875
1846.95454	25051.6875
1850.11151	25075.5875
1853.26642	25071.9875
1856.41926	25074.6875
1859.57004	25148.0875
1862.71876	25092.9875
1865.86542	25174.8875
1869.01003	25134.4875
1872.15258	25179.3875
1875.29308	25224.3875
1878.43152	25215.7875
1881.56792	25209.5875
1884.70227	25317.3875
1887.83457	25316.5875
1890.96482	25324.5875
1894.09304	25338.6875
1897.21921	25342.4875
1900.34335	25413.2875
1903.46544	25375.8875
1906.58551	25400.3875
1909.70353	25356.2875
1912.81953	25312.6875
1915.93349	25322.1875
1919.04543	25265.5875
1922.15534	25161.1875
1925.26322	25070.6875
1928.36908	24998.5875
1931.47292	24906.6875
1934.57473	24689.8875
1937.67453	24560.9875
1940.77232	24419.7875
1943.86808	24330.1875
1946.96184	24208.4875
1950.05358	24090.2875
1953.14331	23986.9875
1956.23103	23897.7875
1959.31675	23813.5875
1962.40046	23708.1875
1965.48217	23629.9875
1968.56188	23554.3875
1971.63959	23472.3875
1974.7153	23432.1875
1977.78901	23369.0875
1980.86073	23318.0875
1983.93046	23203.2875
1986.99819	23086.0875
1990.06394	22980.7875
1993.1277	22951.9875
1996.18947	22879.5875
1999.24925	22805.3875
2002.30706	22750.5875
2005.36288	22714.1875
2008.41672	22631.0875
2011.46859	22539.4875
2014.51848	22484.5875
2017.56639	22449.3875
2020.61233	22386.5875
2023.6563	22405.1875
2026.6983	22321.8875
2029.73833	22290.9875
2032.7764	22243.4875
2035.8125	22214.9875
2038.84664	22172.9875
2041.87881	22193.6875
2044.90903	22143.9875
2047.93729	22118.7875
2050.96359	22072.1875
2053.98794	22029.8875
2057.01034	21996.0875
2060.03078	22001.1875
2063.04927	21966.1875
2066.06582	21931.1875
2069.08042	21903.7875
2072.09307	21916.5875
2075.10378	21893.4875
2078.11255	21860.6875
2081.11938	21837.2875
2084.12426	21837.2875
2087.12722	21828.4875
2090.12824	21783.1875
2093.12732	21784.3875
2096.12447	21810.7875
2099.11969	21800.8875
2102.11299	21783.2875
2105.10435	21806.6875
2108.09379	21807.2875
2111.08131	21811.8875
2114.0669	21807.6875
2117.05057	21815.7875
2120.03233	21812.2875
2123.01216	21864.4875
2125.99008	21814.5875
2128.96609	21879.7875
2131.94018	21873.1875
2134.91236	21862.0875
2137.88263	21862.6875
2140.851	21880.4875
2143.81746	21894.9875
2146.78201	21908.2875
2149.74466	21923.1875
2152.7054	21925.4875
2155.66425	21910.7875
2158.6212	21919.6875
2161.57625	21923.5875
2164.52941	21936.3875
2167.48067	21880.8875
2170.43004	21862.5875
2173.37752	21826.8875
2176.32311	21879.5875
2179.26681	21890.3875
2182.20863	21886.9875
2185.14856	21915.3875
2188.08661	21924.8875
2191.02278	21960.2875
2193.95707	21925.0875
2196.88948	21894.1875
2199.82001	21885.8875
2202.74867	21929.5875
2205.67545	21897.6875
2208.60037	21853.5875
2211.52341	21849.1875
2214.44458	21839.9875
2217.36388	21812.8875
2220.28132	21809.7875
2223.1969	21773.0875
2226.11061	21747.9875
2229.02246	21675.4875
2231.93245	21683.1875
2234.84058	21642.3875
2237.74686	21616.6875
2240.65128	21577.6875
2243.55385	21479.6875
2246.45456	21490.4875
2249.35343	21437.0875
2252.25044	21422.1875
2255.14561	21371.4875
2258.03893	21365.0875
2260.93041	21254.2875
2263.82004	21212.4875
2266.70783	21189.7875
2269.59378	21134.7875
2272.4779	21059.2875
2275.36017	21007.7875
2278.24061	20994.3875
2281.11922	20950.3875
2283.996	20922.5875
2286.87094	20913.5875
2289.74405	20884.8875
2292.61534	20858.5875
2295.4848	20885.5875
2298.35243	20872.6875
2301.21824	20863.8875
2304.08223	20858.6875
2306.94439	20911.3875
2309.80474	20931.3875
2312.66327	20942.6875
2315.51999	20945.0875
2318.37489	20969.0875
2321.22797	20949.3875
2324.07925	20912.9875
2326.92871	20907.4875
2329.77637	20898.3875
2332.62222	20920.7875
2335.46626	20880.9875
2338.3085	20876.9875
2341.14893	20907.2875
2343.98756	20923.1875
2346.8244	20927.6875
2349.65943	20962.4875
2352.49267	20971.4875
2355.32411	20968.6875
2358.15376	20993.4875
2360.98161	20940.4875
2363.80768	20953.4875
2366.63195	20879.6875
2369.45444	20872.4875
2372.27514	20787.5875
2375.09405	20719.7875
2377.91118	20707.0875
2380.72652	20634.9875
2383.54009	20562.6875
2386.35187	20527.9875
2389.16188	20491.5875
2391.97011	20512.0875
2394.77657	20443.2875
2397.58125	20424.1875
2400.38416	20406.8875
2403.18529	20324.2875
2405.98466	20325.0875
2408.78226	20273.5875
2411.57809	20268.4875
2414.37216	20217.5875
2417.16446	20200.0875
2419.955	20179.1875
2422.74378	20155.2875
2425.5308	20130.8875
2428.31606	20147.7875
2431.09956	20126.9875
2433.88131	20114.4875
2436.6613	20143.2875
2439.43954	20099.0875
2442.21603	20092.9875
2444.99077	20058.8875
2447.76377	20103.1875
2450.53501	20088.0875
2453.30451	20070.1875
2456.07226	20092.9875
2458.83827	20068.1875
2461.60254	20082.4875
2464.36507	20098.1875
2467.12586	20060.0875
2469.88492	20070.4875
2472.64224	20112.2875
2475.39782	20113.2875
2478.15167	20162.0875
2480.90379	20088.2875
2483.65417	20157.9875
2486.40283	20177.6875
2489.14976	20170.6875
2491.89497	20181.9875
2494.63845	20245.7875
2497.3802	20211.7875
2500.12024	20219.9875
2502.85855	20231.7875
2505.59514	20239.6875
2508.33002	20203.6875
2511.06318	20212.6875
2513.79462	20194.9875
2516.52435	20109.9875
2519.25237	20134.2875
2521.97867	20056.3875
2524.70327	20078.1875
2527.42616	20036.9875
2530.14734	20068.5875
2532.86681	20027.1875
2535.58458	20007.1875
2538.30065	20039.2875
2541.01501	20011.9875
2543.72768	20012.2875
2546.43864	20026.6875
2549.14791	19990.5875
2551.85548	19947.1875
2554.56136	19930.6875
2557.26554	19948.7875
2559.96803	19936.1875
2562.66883	19909.4875
2565.36794	19894.9875
2568.06536	19889.7875
2570.7611	19859.2875
2573.45514	19839.1875
2576.14751	19857.2875
2578.83819	19845.5875
2581.52719	19818.1875
2584.21451	19821.8875
2586.90015	19853.0875
2589.58411	19880.6875
2592.2664	19863.5875
2594.94701	19816.0875
2597.62594	19839.8875
2600.30321	19782.0875
2602.9788	19831.4875
2605.65273	19808.9875
2608.32498	19808.3875
2610.99557	19819.1875
2613.66449	19856.4875
2616.33175	19828.2875
2618.99734	19847.9875
2621.66128	19911.1875
2624.32355	19913.5875
2626.98416	19926.1875
2629.64311	19923.0875
2632.30041	19913.3875
2634.95605	19891.5875
2637.61004	19873.8875
2640.26238	19827.1875
2642.91306	19851.1875
2645.56209	19800.9875
2648.20948	19787.2875
2650.85521	19775.8875
2653.4993	19776.5875
2656.14175	19756.4875
2658.78255	19759.7875
2661.42171	19737.3875
2664.05923	19805.1875
2666.6951	19803.2875
2669.32934	19854.4875
2671.96194	19835.3875
2674.59291	19868.0875
2677.22224	19855.3875
2679.84993	19868.0875
2682.476	19812.0875
2685.10043	19793.8875
2687.72324	19820.7875
2690.34441	19826.9875
2692.96396	19788.5875
2695.58188	19798.5875
2698.19818	19757.4875
2700.81285	19790.6875
2703.4259	19749.1875
2706.03733	19765.1875
2708.64714	19744.9875
2711.25533	19758.0875
2713.86191	19787.0875
2716.46687	19781.7875
2719.07021	19784.3875
2721.67194	19829.4875
2724.27206	19804.8875
2726.87057	19818.4875
2729.46747	19830.6875
2732.06276	19837.5875
2734.65644	19813.7875
2737.24852	19838.4875
2739.83899	19817.0875
2742.42786	19891.4875
2745.01513	19801.2875
2747.60079	19789.2875
2750.18486	19791.8875
2752.76733	19837.3875
2755.3482	19831.3875
2757.92747	19808.6875
2760.50515	19798.8875
2763.08123	19809.0875
2765.65573	19764.9875
2768.22863	19744.5875
2770.79994	19712.0875
2773.36967	19739.2875
2775.9378	19735.1875
2778.50435	19764.3875
2781.06932	19725.9875
2783.6327	19751.6875
2786.1945	19703.9875
2788.75471	19708.0875
2791.31335	19654.6875
2793.87041	19640.9875
2796.42589	19619.7875
2798.97979	19659.5875
2801.53212	19630.7875
2804.08288	19610.5875
2806.63206	19524.7875
2809.17967	19493.1875
2811.72571	19459.4875
2814.27018	19413.7875
2816.81308	19418.4875
2819.35442	19402.1875
2821.89419	19337.9875
2824.43239	19381.2875
2826.96904	19366.2875
2829.50412	19371.7875
2832.03763	19306.2875
2834.56959	19387.2875
2837.1	19325.5875
2839.62884	19311.6875
2842.15613	19307.1875
2844.68186	19346.0875
2847.20604	19352.0875
2849.72867	19380.9875
2852.24974	19340.7875
2854.76927	19364.1875
2857.28724	19313.7875
2859.80367	19273.5875
2862.31855	19238.8875
2864.83189	19254.7875
2867.34368	19247.4875
2869.85393	19249.4875
2872.36264	19215.1875
2874.8698	19242.1875
2877.37543	19247.7875
2879.87952	19245.7875
2882.38207	19251.6875
2884.88308	19208.9875
2887.38256	19246.5875
2889.88051	19193.0875
2892.37692	19270.8875
2894.8718	19285.1875
2897.36515	19318.5875
2899.85698	19281.6875
2902.34727	19314.0875
2904.83604	19336.7875
2907.32328	19386.2875
2909.809	19351.4875
2912.29319	19373.8875
2914.77587	19375.3875
2917.25702	19379.2875
2919.73665	19394.3875
2922.21476	19358.2875
2924.69136	19355.3875
2927.16644	19319.9875
2929.64	19320.3875
2932.11205	19223.7875
2934.58258	19193.8875
2937.05161	19216.8875
2939.51912	19216.0875
2941.98513	19169.6875
2944.44962	19121.1875
2946.91261	19059.8875
2949.37409	19076.2875
2951.83407	19071.8875
2954.29254	19058.7875
2956.74951	19008.5875
2959.20498	18991.0875
2961.65895	18935.9875
2964.11142	18969.8875
2966.56239	18879.4875
2969.01186	18878.1875
2971.45984	18853.7875
2973.90632	18787.0875
2976.35131	18734.3875
2978.7948	18692.9875
2981.23681	18663.9875
2983.67732	18582.8875
2986.11635	18524.8875
2988.55388	18501.7875
2990.98993	18461.1875
2993.4245	18383.6875
2995.85758	18385.8875
2998.28917	18305.5875
3000.71928	18302.4875
3003.14791	18276.7875
3005.57506	18251.7875
3008.00073	18189.9875
3010.42493	18158.4875
3012.84764	18138.1875
3015.26888	18109.3875
3017.68865	18080.3875
3020.10694	18057.1875
3022.52376	17957.9875
3024.9391	17969.3875
3027.35298	17949.7875
3029.76539	17943.7875
3032.17632	17917.8875
3034.5858	17867.2875
3036.9938	17874.0875
3039.40034	17834.8875
3041.80542	17896.5875
3044.20903	17833.8875
3046.61118	17795.5875
3049.01187	17748.9875
3051.4111	17716.5875
3053.80888	17652.8875
3056.20519	17640.9875
3058.60005	17553.1875
3060.99345	17525.4875
3063.3854	17480.5875
3065.7759	17421.3875
3068.16494	17389.2875
3070.55254	17348.1875
3072.93868	17354.9875
3075.32338	17252.2875
3077.70662	17239.2875
3080.08842	17169.3875
3082.46878	17164.0875
3084.84769	17127.8875
3087.22515	17057.1875
3089.60118	17065.6875
3091.97576	17093.9875
3094.3489	17057.7875
3096.72061	17009.3875
3099.09087	16994.4875
3101.4597	16945.2875
3103.82709	16959.1875
3106.19305	16917.8875
3108.55757	16906.2875
3110.92066	16865.5875
3113.28232	16821.0875
3115.64255	16792.4875
3118.00134	16759.7875
3120.35871	16716.1875
3122.71466	16674.3875
3125.06917	16635.6875
3127.42226	16601.0875
3129.77393	16581.6875
3132.12417	16570.2875
3134.47299	16563.8875
3136.82039	16573.3875
3139.16636	16549.1875
3141.51092	16554.1875
3143.85406	16559.6875
3146.19579	16518.6875
3148.53609	16491.7875
3150.87499	16538.7875
3153.21246	16538.5875
3155.54853	16590.2875
3157.88318	16497.4875
3160.21642	16479.6875
3162.54826	16474.4875
3164.87868	16514.8875
3167.2077	16443.0875
3169.5353	16428.9875
3171.86151	16417.6875
3174.18631	16425.7875
3176.5097	16404.9875
3178.83169	16369.3875
3181.15228	16390.9875
3183.47147	16357.9875
3185.78926	16360.2875
3188.10565	16307.0875
3190.42065	16341.8875
3192.73424	16328.4875
3195.04645	16349.4875
3197.35725	16366.4875
3199.66667	16333.0875
3201.97469	16344.0875
3204.28132	16326.4875
3206.58656	16333.7875
3208.8904	16314.4875
3211.19287	16330.9875
3213.49394	16350.0875
3215.79363	16359.2875
3218.09193	16340.0875
3220.38884	16333.8875
3222.68438	16344.9875
3224.97853	16303.4875
3227.2713	16287.8875
3229.56269	16240.0875
3231.8527	16233.7875
3234.14133	16217.2875
3236.42858	16214.1875
3238.71446	16178.4875
3240.99896	16136.5875
3243.28209	16137.8875
3245.56384	16126.2875
3247.84423	16093.2875
3250.12324	16053.8875
3252.40088	16037.0875
3254.67715	16038.8875
3256.95205	15971.6875
3259.22558	15936.8875
3261.49775	15955.5875
3263.76855	15937.9875
3266.03799	15897.7875
3268.30606	15873.5875
3270.57277	15827.0875
3272.83812	15839.1875
3275.10211	15828.0875
3277.36474	15806.4875
3279.62601	15808.7875
3281.88593	15783.2875
3284.14448	15812.1875
3286.40168	15775.8875
3288.65753	15776.7875
3290.91202	15747.5875
3293.16516	15676.1875
3295.41695	15654.8875
3297.66738	15559.5875
3299.91647	15516.5875
3302.16421	15412.1875
3304.4106	15350.4875
3306.65564	15230.9875
3308.89933	15140.2875
3311.14169	15028.3875
3313.38269	14919.9875
3315.62236	14864.7875
3317.86068	14696.9875
3320.09766	14558.8875
3322.3333	14455.2875
3324.5676	14423.4875
3326.80056	14216.8875
3329.03219	14159.3875
3331.26248	4.6875
3333.49143	-0.2125
3335.71905	-1.0125
