Data from AgNPs_FTO_APTES_UA_2uM_CRN_50uM_R6G_10uM_NaF_0.1M_Addition_RamanShift__27__15-07-45-264.txt Node

Date: Wed Feb 02 15:07:45 GMT 2022
User: TCL
Spectrometer: QEP01345
Trigger mode: 4
Integration Time (sec): 7.000000E0
Scans to average: 10
Electric dark correction enabled: true
Nonlinearity correction enabled: false
Boxcar width: 0
XAxis mode: Raman Shifts
Number of Pixels in Spectrum: 1044
>>>>>Begin Spectral Data<<<<<
46.04893	0.1125
50.45542	0.2125
54.85868	-1.0875
59.25871	0.0125
63.6555	87.6125
68.04907	93.2125
72.43941	98.2125
76.82654	102.6125
81.21044	108.3125
85.59113	117.3125
89.96862	116.7125
94.34289	125.8125
98.71396	122.4125
103.08183	131.7125
107.4465	132.9125
111.80798	137.8125
116.16626	139.0125
120.52136	140.3125
124.87327	144.5125
129.222	153.9125
133.56755	164.4125
137.90993	175.4125
142.24913	192.7125
146.58517	217.1125
150.91804	243.3125
155.24774	297.4125
159.57429	368.6125
163.89768	468.4125
168.21792	621.1125
172.53501	844.8125
176.84895	1166.3125
181.15975	1640.5125
185.46741	2302.2125
189.77193	3137.5125
194.07331	4207.9125
198.37157	5399.7125
202.6667	6666.8125
206.9587	7935.9125
211.24758	9166.5125
215.53334	10460.7125
219.81599	11882.5125
224.09553	13467.6125
228.37195	15203.4125
232.64527	17092.7125
236.91549	19020.9125
241.18261	20840.4125
245.44663	22411.7125
249.70755	23764.5125
253.96539	24909.1125
258.22014	25951.4125
262.4718	26942.0125
266.72039	27734.2125
270.96589	28253.5125
275.20832	28437.2125
279.44768	28465.8125
283.68397	28411.9125
287.91719	28430.9125
292.14735	28623.9125
296.37445	29070.9125
300.59849	29626.1125
304.81948	30052.9125
309.03742	30196.9125
313.25231	29748.8125
317.46415	28429.3125
321.67296	26627.8125
325.87872	25139.8125
330.08145	24376.3125
334.28114	24200.4125
338.47781	24474.4125
342.67145	24965.8125
346.86207	25710.6125
351.04966	26802.1125
355.23424	27962.0125
359.4158	28862.5125
363.59435	29289.3125
367.76989	29378.1125
371.94243	29347.9125
376.11196	29276.5125
380.27849	29159.9125
384.44203	29045.7125
388.60257	28883.4125
392.76012	28956.4125
396.91468	29255.6125
401.06626	29919.2125
405.21485	30357.0125
409.36047	29941.8125
413.50311	28788.9125
417.64277	27700.2125
421.77947	27225.2125
425.9132	27153.2125
430.04396	27274.5125
434.17176	27475.7125
438.2966	27817.9125
442.41849	28384.6125
446.53742	29271.3125
450.6534	30257.1125
454.76644	31025.7125
458.87653	31247.5125
462.98368	31041.1125
467.08789	30792.2125
471.18916	30399.2125
475.2875	30043.1125
479.38291	29893.7125
483.4754	29560.5125
487.56496	28992.7125
491.6516	28294.3125
495.73531	27699.8125
499.81612	27502.9125
503.89401	27591.1125
507.96899	27693.7125
512.04106	27755.6125
516.11023	27718.9125
520.1765	27604.2125
524.23987	27268.9125
528.30034	26785.5125
532.35792	26347.0125
536.41261	25898.2125
540.46441	25474.6125
544.51333	25461.3125
548.55936	25907.8125
552.60252	26795.0125
556.64279	27750.6125
560.6802	28426.6125
564.71473	28932.1125
568.7464	29922.4125
572.7752	30838.6125
576.80114	30632.3125
580.82422	30064.5125
584.84444	29767.3125
588.86181	29733.4125
592.87633	29921.3125
596.888	30244.0125
600.89682	30760.2125
604.9028	32986.7125
608.90594	39035.1125
612.90624	46579.3125
616.90371	44056.6125
620.89834	32480.6125
624.89015	27058.1125
628.87913	26214.0125
632.86528	26419.3125
636.84862	26610.9125
640.82913	26104.0125
644.80683	24949.6125
648.78172	24112.8125
652.75379	23998.3125
656.72306	24697.9125
660.68952	25629.2125
664.65319	25568.0125
668.61405	24625.2125
672.57211	24117.7125
676.52738	24082.9125
680.47986	24129.0125
684.42955	23972.7125
688.37646	23871.4125
692.32058	23938.3125
696.26192	24227.7125
700.20048	24591.1125
704.13626	24856.0125
708.06928	24889.1125
711.99952	24692.8125
715.927	24530.9125
719.85171	24532.0125
723.77365	24443.4125
727.69284	24132.8125
731.60928	23836.7125
735.52295	23691.3125
739.43388	23712.0125
743.34206	23837.0125
747.24749	23950.8125
751.15017	24228.2125
755.05012	24915.2125
758.94733	26124.5125
762.8418	28737.7125
766.73354	32906.9125
770.62254	37000.1125
774.50882	38312.3125
778.39237	35885.6125
782.27321	31396.4125
786.15132	27461.4125
790.02671	25174.8125
793.89938	24057.7125
797.76935	23591.4125
801.6366	23400.3125
805.50115	23290.5125
809.36299	23159.5125
813.22213	23035.8125
817.07857	23061.0125
820.93231	23040.3125
824.78336	23012.8125
828.63172	23021.4125
832.47738	23002.7125
836.32036	22916.5125
840.16066	22832.0125
843.99827	22726.4125
847.8332	22638.2125
851.66546	22557.5125
855.49504	22497.3125
859.32195	22434.6125
863.1462	22323.8125
866.96777	22218.2125
870.78668	22165.8125
874.60293	22142.4125
878.41652	22149.3125
882.22745	22269.3125
886.03573	22356.8125
889.84136	22304.2125
893.64433	22177.6125
897.44466	22094.7125
901.24235	22052.5125
905.0374	21995.3125
908.8298	21945.6125
912.61957	22008.0125
916.40671	22283.8125
920.19121	22652.5125
923.97308	22856.8125
927.75233	22920.3125
931.52895	22892.6125
935.30295	22534.3125
939.07433	21911.5125
942.84309	21328.5125
946.60924	20999.4125
950.37278	20855.8125
954.13371	20784.7125
957.89203	20768.7125
961.64774	20747.2125
965.40086	20722.4125
969.15137	20659.7125
972.89929	20562.4125
976.64461	20449.6125
980.38733	20423.3125
984.12747	20437.3125
987.86502	20577.2125
991.59999	20794.8125
995.33237	21105.8125
999.06217	21639.8125
1002.78939	22460.3125
1006.51404	23106.6125
1010.23611	23564.8125
1013.95561	23879.2125
1017.67255	23811.9125
1021.38692	23464.9125
1025.09872	23071.3125
1028.80796	22903.7125
1032.51465	23142.4125
1036.21877	23411.0125
1039.92035	23563.6125
1043.61937	23515.2125
1047.31584	23238.6125
1051.00976	22980.6125
1054.70114	22843.4125
1058.38998	22972.2125
1062.07627	23277.9125
1065.76003	23573.8125
1069.44126	23791.9125
1073.11995	24026.9125
1076.79611	24251.2125
1080.46974	24488.3125
1084.14085	24883.9125
1087.80943	25458.4125
1091.47549	25818.1125
1095.13903	25642.4125
1098.80005	24992.7125
1102.45857	24256.9125
1106.11456	23703.1125
1109.76805	23591.9125
1113.41903	23899.0125
1117.06751	24432.3125
1120.71348	25152.0125
1124.35696	25865.2125
1127.99793	26618.3125
1131.63641	26741.3125
1135.2724	25980.8125
1138.90589	25220.6125
1142.5369	24807.2125
1146.16542	24664.0125
1149.79145	24748.0125
1153.415	25034.2125
1157.03607	25499.4125
1160.65467	26314.8125
1164.27079	27538.4125
1167.88443	29271.2125
1171.49561	31805.8125
1175.10432	35494.7125
1178.71056	40205.6125
1182.31434	44035.3125
1185.91565	45655.1125
1189.51451	45337.4125
1193.11091	43631.0125
1196.70485	41186.8125
1200.29634	38808.4125
1203.88538	36778.6125
1207.47197	34851.9125
1211.05612	33290.7125
1214.63782	32189.0125
1218.21708	31615.5125
1221.79391	31301.5125
1225.36829	31110.4125
1228.94024	30830.5125
1232.50976	30580.7125
1236.07685	30399.0125
1239.6415	30284.1125
1243.20374	30278.9125
1246.76355	30455.0125
1250.32093	30856.6125
1253.8759	31628.4125
1257.42845	32715.1125
1260.97859	33776.9125
1264.52631	34835.6125
1268.07163	35814.9125
1271.61453	36946.8125
1275.15503	37996.4125
1278.69312	38844.2125
1282.22882	39493.8125
1285.76211	40497.4125
1289.29301	41935.9125
1292.82151	43743.2125
1296.34761	45852.1125
1299.87133	48530.9125
1303.39266	52037.2125
1306.9116	56650.0125
1310.42815	61862.0125
1313.94233	65770.9125
1317.45412	66660.1125
1320.96354	65229.1125
1324.47058	63096.6125
1327.97525	60894.3125
1331.47754	59303.9125
1334.97747	58572.5125
1338.47502	58607.5125
1341.97022	58659.1125
1345.46305	58519.8125
1348.95352	58071.5125
1352.44163	58012.5125
1355.92738	59592.6125
1359.41078	63861.7125
1362.89183	68856.1125
1366.37053	67751.7125
1369.84688	59836.7125
1373.32088	51217.1125
1376.79254	45780.0125
1380.26186	43563.4125
1383.72883	43012.6125
1387.19347	42788.7125
1390.65578	42540.5125
1394.11575	42558.6125
1397.57339	43245.4125
1401.0287	44475.4125
1404.48168	45706.7125
1407.93234	46380.3125
1411.38068	46128.0125
1414.82669	44723.2125
1418.27039	42475.3125
1421.71177	40087.4125
1425.15083	37950.2125
1428.58758	36566.8125
1432.02203	36201.7125
1435.45416	36582.1125
1438.88399	37345.4125
1442.31151	38091.8125
1445.73673	38921.8125
1449.15965	39870.1125
1452.58027	40604.8125
1455.9986	41151.2125
1459.41463	41636.8125
1462.82837	42383.8125
1466.23982	43280.8125
1469.64898	44027.3125
1473.05586	44275.8125
1476.46045	44126.6125
1479.86276	43838.3125
1483.26279	43578.0125
1486.66054	43565.3125
1490.05602	43869.3125
1493.44922	44469.7125
1496.84016	45491.0125
1500.22882	47342.9125
1503.61521	50227.7125
1506.99934	54116.4125
1510.38121	58321.3125
1513.76081	60901.8125
1517.13816	59871.5125
1520.51324	55481.9125
1523.88607	50606.7125
1527.25665	47139.0125
1530.62498	44988.1125
1533.99105	43918.8125
1537.35488	43226.1125
1540.71647	42571.8125
1544.07581	41884.9125
1547.4329	41102.8125
1550.78776	40409.9125
1554.14038	40013.9125
1557.49077	40166.8125
1560.83892	40595.9125
1564.18484	41249.9125
1567.52853	41671.1125
1570.86999	41890.0125
1574.20922	42345.4125
1577.54624	42573.1125
1580.88103	42003.0125
1584.2136	41170.9125
1587.54395	41579.6125
1590.87208	43281.9125
1594.19801	46014.7125
1597.52172	48917.0125
1600.84321	49813.5125
1604.16251	47641.9125
1607.47959	43839.7125
1610.79447	39775.0125
1614.10715	35833.6125
1617.41763	32644.5125
1620.7259	30438.8125
1624.03199	29240.0125
1627.33587	29091.9125
1630.63757	29982.6125
1633.93707	31924.2125
1637.23439	35102.5125
1640.52951	39482.2125
1643.82246	44695.6125
1647.11321	49642.3125
1650.40179	52274.8125
1653.68819	50173.7125
1656.97241	43622.4125
1660.25446	36110.5125
1663.53433	30342.6125
1666.81203	26563.4125
1670.08756	24253.7125
1673.36092	22851.4125
1676.63211	21963.3125
1679.90115	21313.7125
1683.16801	20836.7125
1686.43272	20562.6125
1689.69527	20296.6125
1692.95567	20069.5125
1696.2139	19993.3125
1699.46999	19881.0125
1702.72392	19766.4125
1705.97571	19692.9125
1709.22535	19636.2125
1712.47284	19587.6125
1715.71819	19555.8125
1718.96139	19487.1125
1722.20246	19416.8125
1725.44139	19343.9125
1728.67818	19184.7125
1731.91284	19048.3125
1735.14537	18916.9125
1738.37576	18825.9125
1741.60403	18768.7125
1744.83017	18685.4125
1748.05418	18658.8125
1751.27607	18604.2125
1754.49584	18548.3125
1757.71349	18545.2125
1760.92903	18491.4125
1764.14244	18460.0125
1767.35375	18440.9125
1770.56294	18368.2125
1773.77002	18322.4125
1776.97499	18283.4125
1780.17785	18219.5125
1783.37861	18208.1125
1786.57727	18139.1125
1789.77382	18088.1125
1792.96828	18076.7125
1796.16064	18070.6125
1799.3509	18017.8125
1802.53907	18010.9125
1805.72514	17934.9125
1808.90913	17882.7125
1812.09102	17830.8125
1815.27083	17813.2125
1818.44856	17765.6125
1821.6242	17743.1125
1824.79776	17739.4125
1827.96924	17714.7125
1831.13864	17665.2125
1834.30597	17703.1125
1837.47122	17692.8125
1840.6344	17650.9125
1843.7955	17704.3125
1846.95454	17695.5125
1850.11151	17701.7125
1853.26642	17732.7125
1856.41926	17701.4125
1859.57004	17696.4125
1862.71876	17683.8125
1865.86542	17726.3125
1869.01003	17723.6125
1872.15258	17725.2125
1875.29308	17752.3125
1878.43152	17755.8125
1881.56792	17755.8125
1884.70227	17742.7125
1887.83457	17746.8125
1890.96482	17772.3125
1894.09304	17811.0125
1897.21921	17804.8125
1900.34335	17846.2125
1903.46544	17800.4125
1906.58551	17828.6125
1909.70353	17838.3125
1912.81953	17819.9125
1915.93349	17816.7125
1919.04543	17736.1125
1922.15534	17782.9125
1925.26322	17679.9125
1928.36908	17603.8125
1931.47292	17541.5125
1934.57473	17442.1125
1937.67453	17298.0125
1940.77232	17246.2125
1943.86808	17166.2125
1946.96184	17106.8125
1950.05358	17027.8125
1953.14331	16934.6125
1956.23103	16842.4125
1959.31675	16789.5125
1962.40046	16732.5125
1965.48217	16679.9125
1968.56188	16618.4125
1971.63959	16565.3125
1974.7153	16504.0125
1977.78901	16476.9125
1980.86073	16409.4125
1983.93046	16333.1125
1986.99819	16298.0125
1990.06394	16224.2125
1993.1277	16178.7125
1996.18947	16109.9125
1999.24925	16060.2125
2002.30706	16008.1125
2005.36288	15959.4125
2008.41672	15940.9125
2011.46859	15911.4125
2014.51848	15810.6125
2017.56639	15796.4125
2020.61233	15745.6125
2023.6563	15706.9125
2026.6983	15661.1125
2029.73833	15614.4125
2032.7764	15612.9125
2035.8125	15599.3125
2038.84664	15548.5125
2041.87881	15539.5125
2044.90903	15503.5125
2047.93729	15480.9125
2050.96359	15440.8125
2053.98794	15433.9125
2057.01034	15432.0125
2060.03078	15411.6125
2063.04927	15376.0125
2066.06582	15382.9125
2069.08042	15362.6125
2072.09307	15344.7125
2075.10378	15309.5125
2078.11255	15297.3125
2081.11938	15302.7125
2084.12426	15251.8125
2087.12722	15230.9125
2090.12824	15245.6125
2093.12732	15230.9125
2096.12447	15243.5125
2099.11969	15266.3125
2102.11299	15293.2125
2105.10435	15265.6125
2108.09379	15259.2125
2111.08131	15260.9125
2114.0669	15273.6125
2117.05057	15286.7125
2120.03233	15293.8125
2123.01216	15332.0125
2125.99008	15295.0125
2128.96609	15297.9125
2131.94018	15289.3125
2134.91236	15309.2125
2137.88263	15308.0125
2140.851	15324.0125
2143.81746	15358.2125
2146.78201	15336.2125
2149.74466	15313.9125
2152.7054	15322.1125
2155.66425	15306.9125
2158.6212	15295.8125
2161.57625	15297.5125
2164.52941	15267.6125
2167.48067	15269.5125
2170.43004	15260.4125
2173.37752	15237.0125
2176.32311	15231.4125
2179.26681	15262.9125
2182.20863	15245.4125
2185.14856	15246.1125
2188.08661	15259.8125
2191.02278	15239.4125
2193.95707	15236.0125
2196.88948	15216.5125
2199.82001	15194.5125
2202.74867	15178.7125
2205.67545	15177.3125
2208.60037	15132.5125
2211.52341	15117.5125
2214.44458	15121.5125
2217.36388	15090.1125
2220.28132	15083.1125
2223.1969	15035.6125
2226.11061	15000.4125
2229.02246	14980.8125
2231.93245	14975.9125
2234.84058	14891.1125
2237.74686	14877.0125
2240.65128	14874.5125
2243.55385	14872.1125
2246.45456	14871.4125
2249.35343	14844.3125
2252.25044	14791.1125
2255.14561	14784.4125
2258.03893	14795.0125
2260.93041	14762.9125
2263.82004	14715.8125
2266.70783	14700.9125
2269.59378	14641.6125
2272.4779	14620.2125
2275.36017	14580.0125
2278.24061	14530.7125
2281.11922	14485.5125
2283.996	14470.3125
2286.87094	14457.2125
2289.74405	14419.1125
2292.61534	14421.9125
2295.4848	14376.9125
2298.35243	14401.0125
2301.21824	14361.3125
2304.08223	14354.6125
2306.94439	14358.5125
2309.80474	14377.8125
2312.66327	14375.3125
2315.51999	14367.3125
2318.37489	14385.0125
2321.22797	14346.5125
2324.07925	14362.2125
2326.92871	14350.0125
2329.77637	14340.5125
2332.62222	14300.1125
2335.46626	14312.6125
2338.3085	14316.0125
2341.14893	14298.9125
2343.98756	14302.9125
2346.8244	14321.6125
2349.65943	14313.8125
2352.49267	14320.7125
2355.32411	14345.0125
2358.15376	14331.6125
2360.98161	14322.8125
2363.80768	14314.4125
2366.63195	14356.2125
2369.45444	14310.6125
2372.27514	14310.5125
2375.09405	14282.6125
2377.91118	14218.1125
2380.72652	14205.7125
2383.54009	14164.2125
2386.35187	14141.2125
2389.16188	14097.4125
2391.97011	14037.8125
2394.77657	14023.8125
2397.58125	13979.6125
2400.38416	13956.6125
2403.18529	13913.2125
2405.98466	13918.9125
2408.78226	13869.6125
2411.57809	13872.1125
2414.37216	13852.6125
2417.16446	13824.6125
2419.955	13802.2125
2422.74378	13804.7125
2425.5308	13763.8125
2428.31606	13762.5125
2431.09956	13776.6125
2433.88131	13755.5125
2436.6613	13763.8125
2439.43954	13757.6125
2442.21603	13748.6125
2444.99077	13744.1125
2447.76377	13750.1125
2450.53501	13754.1125
2453.30451	13768.5125
2456.07226	13705.4125
2458.83827	13735.1125
2461.60254	13724.8125
2464.36507	13743.8125
2467.12586	13740.9125
2469.88492	13736.7125
2472.64224	13732.5125
2475.39782	13749.2125
2478.15167	13767.8125
2480.90379	13806.9125
2483.65417	13782.5125
2486.40283	13830.0125
2489.14976	13843.4125
2491.89497	13833.8125
2494.63845	13870.4125
2497.3802	13851.1125
2500.12024	13857.4125
2502.85855	13836.6125
2505.59514	13848.2125
2508.33002	13820.5125
2511.06318	13793.0125
2513.79462	13776.0125
2516.52435	13741.6125
2519.25237	13701.5125
2521.97867	13674.6125
2524.70327	13680.6125
2527.42616	13644.8125
2530.14734	13652.3125
2532.86681	13624.1125
2535.58458	13637.3125
2538.30065	13616.6125
2541.01501	13624.0125
2543.72768	13600.4125
2546.43864	13571.8125
2549.14791	13570.7125
2551.85548	13567.2125
2554.56136	13554.7125
2557.26554	13583.2125
2559.96803	13548.3125
2562.66883	13524.4125
2565.36794	13523.6125
2568.06536	13520.7125
2570.7611	13499.8125
2573.45514	13491.0125
2576.14751	13493.0125
2578.83819	13466.5125
2581.52719	13447.7125
2584.21451	13447.2125
2586.90015	13468.7125
2589.58411	13437.9125
2592.2664	13444.1125
2594.94701	13415.0125
2597.62594	13450.7125
2600.30321	13430.7125
2602.9788	13411.3125
2605.65273	13392.5125
2608.32498	13425.9125
2610.99557	13441.2125
2613.66449	13456.9125
2616.33175	13429.4125
2618.99734	13473.2125
2621.66128	13420.6125
2624.32355	13435.8125
2626.98416	13448.3125
2629.64311	13434.6125
2632.30041	13456.2125
2634.95605	13444.6125
2637.61004	13416.1125
2640.26238	13395.6125
2642.91306	13395.4125
2645.56209	13380.4125
2648.20948	13401.9125
2650.85521	13401.3125
2653.4993	13377.8125
2656.14175	13386.4125
2658.78255	13375.8125
2661.42171	13398.4125
2664.05923	13432.5125
2666.6951	13426.4125
2669.32934	13421.4125
2671.96194	13461.2125
2674.59291	13456.6125
2677.22224	13452.3125
2679.84993	13470.1125
2682.476	13444.4125
2685.10043	13454.8125
2687.72324	13433.5125
2690.34441	13423.8125
2692.96396	13406.5125
2695.58188	13416.0125
2698.19818	13398.2125
2700.81285	13435.7125
2703.4259	13418.2125
2706.03733	13466.4125
2708.64714	13466.3125
2711.25533	13445.1125
2713.86191	13435.0125
2716.46687	13474.6125
2719.07021	13479.7125
2721.67194	13506.1125
2724.27206	13457.0125
2726.87057	13512.8125
2729.46747	13527.7125
2732.06276	13512.9125
2734.65644	13492.0125
2737.24852	13475.3125
2739.83899	13457.2125
2742.42786	13471.7125
2745.01513	13432.3125
2747.60079	13434.6125
2750.18486	13439.7125
2752.76733	13438.3125
2755.3482	13438.7125
2757.92747	13476.2125
2760.50515	13476.6125
2763.08123	13485.6125
2765.65573	13457.1125
2768.22863	13424.8125
2770.79994	13389.6125
2773.36967	13427.2125
2775.9378	13423.6125
2778.50435	13414.6125
2781.06932	13411.7125
2783.6327	13430.4125
2786.1945	13412.4125
2788.75471	13393.6125
2791.31335	13363.2125
2793.87041	13350.7125
2796.42589	13363.2125
2798.97979	13365.9125
2801.53212	13317.2125
2804.08288	13322.6125
2806.63206	13282.1125
2809.17967	13266.5125
2811.72571	13249.1125
2814.27018	13264.2125
2816.81308	13234.1125
2819.35442	13229.5125
2821.89419	13189.3125
2824.43239	13195.3125
2826.96904	13195.4125
2829.50412	13185.9125
2832.03763	13164.4125
2834.56959	13161.1125
2837.1	13167.2125
2839.62884	13155.4125
2842.15613	13184.2125
2844.68186	13217.6125
2847.20604	13252.9125
2849.72867	13276.5125
2852.24974	13275.5125
2854.76927	13235.1125
2857.28724	13257.7125
2859.80367	13212.5125
2862.31855	13215.4125
2864.83189	13215.2125
2867.34368	13194.0125
2869.85393	13178.8125
2872.36264	13183.1125
2874.8698	13186.6125
2877.37543	13212.1125
2879.87952	13152.1125
2882.38207	13151.5125
2884.88308	13145.3125
2887.38256	13153.3125
2889.88051	13157.6125
2892.37692	13163.9125
2894.8718	13154.7125
2897.36515	13201.5125
2899.85698	13183.2125
2902.34727	13214.9125
2904.83604	13198.5125
2907.32328	13229.9125
2909.809	13230.0125
2912.29319	13242.8125
2914.77587	13223.3125
2917.25702	13226.0125
2919.73665	13214.0125
2922.21476	13225.2125
2924.69136	13208.1125
2927.16644	13232.2125
2929.64	13216.6125
2932.11205	13184.7125
2934.58258	13156.9125
2937.05161	13136.9125
2939.51912	13123.3125
2941.98513	13088.4125
2944.44962	13002.4125
2946.91261	12968.4125
2949.37409	12959.4125
2951.83407	12951.5125
2954.29254	12916.9125
2956.74951	12904.5125
2959.20498	12883.2125
2961.65895	12870.1125
2964.11142	12836.4125
2966.56239	12820.7125
2969.01186	12792.2125
2971.45984	12753.3125
2973.90632	12727.6125
2976.35131	12671.5125
2978.7948	12648.6125
2981.23681	12633.8125
2983.67732	12592.0125
2986.11635	12556.7125
2988.55388	12562.0125
2990.98993	12511.4125
2993.4245	12511.2125
2995.85758	12472.1125
2998.28917	12428.1125
3000.71928	12453.8125
3003.14791	12386.5125
3005.57506	12353.5125
3008.00073	12313.6125
3010.42493	12315.6125
3012.84764	12290.9125
3015.26888	12294.3125
3017.68865	12256.4125
3020.10694	12245.5125
3022.52376	12204.6125
3024.9391	12176.5125
3027.35298	12140.1125
3029.76539	12154.8125
3032.17632	12137.5125
3034.5858	12113.4125
3036.9938	12103.3125
3039.40034	12079.3125
3041.80542	12060.5125
3044.20903	12009.5125
3046.61118	12031.1125
3049.01187	12002.0125
3051.4111	11989.3125
3053.80888	11933.9125
3056.20519	11918.3125
3058.60005	11887.2125
3060.99345	11862.4125
3063.3854	11833.1125
3065.7759	11781.5125
3068.16494	11748.4125
3070.55254	11702.3125
3072.93868	11686.7125
3075.32338	11637.8125
3077.70662	11603.4125
3080.08842	11585.6125
3082.46878	11558.5125
3084.84769	11535.5125
3087.22515	11507.0125
3089.60118	11513.7125
3091.97576	11515.8125
3094.3489	11506.7125
3096.72061	11472.1125
3099.09087	11478.7125
3101.4597	11444.4125
3103.82709	11434.0125
3106.19305	11413.9125
3108.55757	11416.0125
3110.92066	11319.5125
3113.28232	11326.5125
3115.64255	11294.7125
3118.00134	11267.1125
3120.35871	11243.6125
3122.71466	11213.6125
3125.06917	11186.3125
3127.42226	11169.2125
3129.77393	11191.5125
3132.12417	11154.5125
3134.47299	11161.6125
3136.82039	11148.8125
3139.16636	11127.4125
3141.51092	11130.7125
3143.85406	11130.8125
3146.19579	11140.3125
3148.53609	11138.8125
3150.87499	11140.5125
3153.21246	11118.8125
3155.54853	11151.2125
3157.88318	11103.9125
3160.21642	11111.0125
3162.54826	11103.4125
3164.87868	11085.4125
3167.2077	11080.4125
3169.5353	11094.1125
3171.86151	11079.1125
3174.18631	11049.0125
3176.5097	11058.3125
3178.83169	11030.1125
3181.15228	11024.1125
3183.47147	11017.1125
3185.78926	11008.5125
3188.10565	10999.2125
3190.42065	11011.5125
3192.73424	10985.5125
3195.04645	11005.6125
3197.35725	10986.9125
3199.66667	10976.7125
3201.97469	10973.0125
3204.28132	10971.1125
3206.58656	10969.9125
3208.8904	10989.2125
3211.19287	10994.1125
3213.49394	10993.3125
3215.79363	10974.7125
3218.09193	10976.0125
3220.38884	10969.2125
3222.68438	10985.6125
3224.97853	10962.9125
3227.2713	10947.9125
3229.56269	10930.1125
3231.8527	10931.2125
3234.14133	10908.1125
3236.42858	10913.0125
3238.71446	10876.4125
3240.99896	10857.0125
3243.28209	10831.0125
3245.56384	10840.9125
3247.84423	10827.1125
3250.12324	10817.6125
3252.40088	10807.9125
3254.67715	10792.0125
3256.95205	10767.1125
3259.22558	10781.2125
3261.49775	10752.0125
3263.76855	10726.9125
3266.03799	10709.6125
3268.30606	10681.4125
3270.57277	10663.6125
3272.83812	10641.3125
3275.10211	10620.6125
3277.36474	10603.6125
3279.62601	10584.8125
3281.88593	10583.3125
3284.14448	10596.9125
3286.40168	10590.5125
3288.65753	10551.7125
3290.91202	10573.2125
3293.16516	10506.3125
3295.41695	10496.3125
3297.66738	10431.1125
3299.91647	10393.4125
3302.16421	10315.8125
3304.4106	10275.1125
3306.65564	10242.3125
3308.89933	10162.0125
3311.14169	10078.2125
3313.38269	10026.3125
3315.62236	9961.3125
3317.86068	9879.7125
3320.09766	9752.6125
3322.3333	9668.2125
3324.5676	9663.6125
3326.80056	9504.1125
3329.03219	9465.0125
3331.26248	2.8125
3333.49143	-0.2875
3335.71905	-1.3875
