Data from AgNPs_FTO_APTES_UA_2uM_CRN_20uM_R6G_10uM_NaF_0.1M_Addition_RamanShift__6__14-04-45-191.txt Node

Date: Wed Feb 02 14:04:45 GMT 2022
User: TCL
Spectrometer: QEP01345
Trigger mode: 4
Integration Time (sec): 7.000000E0
Scans to average: 10
Electric dark correction enabled: true
Nonlinearity correction enabled: false
Boxcar width: 0
XAxis mode: Raman Shifts
Number of Pixels in Spectrum: 1044
>>>>>Begin Spectral Data<<<<<
46.04893	-0.0125
50.45542	0.6875
54.85868	-1.7125
59.25871	0.4875
63.6555	100.6875
68.04907	105.5875
72.43941	110.7875
76.82654	118.9875
81.21044	116.4875
85.59113	127.3875
89.96862	131.3875
94.34289	132.7875
98.71396	134.5875
103.08183	143.1875
107.4465	151.5875
111.80798	154.4875
116.16626	155.4875
120.52136	165.5875
124.87327	167.0875
129.222	177.4875
133.56755	190.1875
137.90993	202.7875
142.24913	227.2875
146.58517	256.9875
150.91804	302.8875
155.24774	364.0875
159.57429	450.3875
163.89768	575.7875
168.21792	773.3875
172.53501	1055.9875
176.84895	1462.7875
181.15975	2068.9875
185.46741	2892.0875
189.77193	3974.1875
194.07331	5330.6875
198.37157	6842.9875
202.6667	8445.9875
206.9587	10057.4875
211.24758	11600.5875
215.53334	13186.1875
219.81599	14839.9875
224.09553	16735.0875
228.37195	18693.1875
232.64527	20900.5875
236.91549	23187.9875
241.18261	25472.9875
245.44663	27601.9875
249.70755	29491.7875
253.96539	31226.8875
258.22014	32576.5875
262.4718	33825.8875
266.72039	34646.9875
270.96589	35034.6875
275.20832	35069.6875
279.44768	34889.3875
283.68397	34622.1875
287.91719	34387.4875
292.14735	34224.6875
296.37445	34272.5875
300.59849	34394.9875
304.81948	34493.8875
309.03742	34574.5875
313.25231	34322.9875
317.46415	33775.9875
321.67296	33064.6875
325.87872	32338.8875
330.08145	32022.4875
334.28114	31893.8875
338.47781	31940.0875
342.67145	32322.8875
346.86207	32738.5875
351.04966	33293.5875
355.23424	33809.0875
359.4158	34321.9875
363.59435	34736.6875
367.76989	34991.3875
371.94243	35148.4875
376.11196	35194.3875
380.27849	35221.6875
384.44203	35326.3875
388.60257	35622.7875
392.76012	36083.2875
396.91468	36698.1875
401.06626	37313.6875
405.21485	37673.4875
409.36047	37534.3875
413.50311	37190.7875
417.64277	37156.7875
421.77947	37443.2875
425.9132	37648.3875
430.04396	37864.9875
434.17176	37970.5875
438.2966	38096.1875
442.41849	38588.8875
446.53742	39557.0875
450.6534	40642.8875
454.76644	41429.7875
458.87653	41639.5875
462.98368	41344.1875
467.08789	40844.0875
471.18916	40212.7875
475.2875	39583.7875
479.38291	39317.3875
483.4754	39146.8875
487.56496	38689.0875
491.6516	38064.3875
495.73531	37364.1875
499.81612	36910.6875
503.89401	37055.8875
507.96899	37258.1875
512.04106	37214.4875
516.11023	36873.8875
520.1765	36324.6875
524.23987	35794.3875
528.30034	35388.7875
532.35792	35002.6875
536.41261	34587.1875
540.46441	34201.5875
544.51333	34247.7875
548.55936	34681.5875
552.60252	35467.3875
556.64279	36443.9875
560.6802	37244.6875
564.71473	37810.7875
568.7464	38599.9875
572.7752	40096.2875
576.80114	41868.5875
580.82422	43732.5875
584.84444	45934.0875
588.86181	48736.8875
592.87633	50877.7875
596.888	50194.5875
600.89682	46856.0875
604.9028	44976.3875
608.90594	46266.1875
612.90624	47934.5875
616.90371	44591.2875
620.89834	38259.1875
624.89015	35478.6875
628.87913	35296.9875
632.86528	35582.3875
636.84862	35468.0875
640.82913	34625.2875
644.80683	33705.3875
648.78172	33304.0875
652.75379	33306.3875
656.72306	33671.1875
660.68952	34022.9875
664.65319	33728.9875
668.61405	33090.9875
672.57211	33038.6875
676.52738	33150.3875
680.47986	33160.6875
684.42955	32940.6875
688.37646	32781.5875
692.32058	33012.8875
696.26192	33568.5875
700.20048	34190.4875
704.13626	34538.2875
708.06928	34641.7875
711.99952	34615.4875
715.927	34605.9875
719.85171	34737.4875
723.77365	34474.3875
727.69284	33783.4875
731.60928	33171.2875
735.52295	32907.4875
739.43388	32819.5875
743.34206	32938.0875
747.24749	33292.2875
751.15017	33713.1875
755.05012	34455.8875
758.94733	35562.9875
762.8418	37319.3875
766.73354	39572.8875
770.62254	41535.8875
774.50882	41397.3875
778.39237	39321.0875
782.27321	36820.3875
786.15132	34803.0875
790.02671	33555.5875
793.89938	32930.6875
797.76935	32739.6875
801.6366	32627.1875
805.50115	32593.7875
809.36299	32368.3875
813.22213	32111.3875
817.07857	31950.4875
820.93231	31778.3875
824.78336	31523.4875
828.63172	31304.9875
832.47738	31201.6875
836.32036	31149.4875
840.16066	31186.2875
843.99827	31175.1875
847.8332	31151.5875
851.66546	31123.9875
855.49504	31169.9875
859.32195	31118.1875
863.1462	31052.2875
866.96777	30969.0875
870.78668	30910.7875
874.60293	30852.3875
878.41652	30912.6875
882.22745	30970.1875
886.03573	31096.1875
889.84136	31008.9875
893.64433	30878.2875
897.44466	30853.3875
901.24235	30720.5875
905.0374	30634.0875
908.8298	30607.8875
912.61957	30731.9875
916.40671	31122.4875
920.19121	31710.6875
923.97308	32187.1875
927.75233	32168.4875
931.52895	31709.4875
935.30295	30959.6875
939.07433	30229.6875
942.84309	29775.4875
946.60924	29558.5875
950.37278	29538.2875
954.13371	29565.9875
957.89203	29636.1875
961.64774	29662.6875
965.40086	29656.0875
969.15137	29582.7875
972.89929	29321.0875
976.64461	29202.9875
980.38733	29065.1875
984.12747	29110.6875
987.86502	29260.1875
991.59999	29440.4875
995.33237	29743.1875
999.06217	30264.8875
1002.78939	31009.2875
1006.51404	31731.7875
1010.23611	32380.3875
1013.95561	32811.0875
1017.67255	32917.1875
1021.38692	32463.6875
1025.09872	31882.3875
1028.80796	31474.0875
1032.51465	31517.1875
1036.21877	31811.3875
1039.92035	32027.4875
1043.61937	32060.4875
1047.31584	31921.3875
1051.00976	31706.3875
1054.70114	31692.6875
1058.38998	31903.8875
1062.07627	32230.5875
1065.76003	32678.8875
1069.44126	33231.7875
1073.11995	33873.0875
1076.79611	34418.1875
1080.46974	34592.4875
1084.14085	34799.6875
1087.80943	35254.4875
1091.47549	35667.0875
1095.13903	35804.1875
1098.80005	35284.3875
1102.45857	34249.3875
1106.11456	33378.4875
1109.76805	32949.5875
1113.41903	32844.7875
1117.06751	33045.9875
1120.71348	33344.8875
1124.35696	33794.8875
1127.99793	34169.8875
1131.63641	34438.6875
1135.2724	34454.1875
1138.90589	34527.0875
1142.5369	34831.5875
1146.16542	35338.9875
1149.79145	35835.2875
1153.415	36413.4875
1157.03607	37219.6875
1160.65467	38683.1875
1164.27079	41014.5875
1167.88443	43520.9875
1171.49561	45837.6875
1175.10432	48580.8875
1178.71056	52031.4875
1182.31434	55262.0875
1185.91565	56727.3875
1189.51451	56371.7875
1193.11091	55074.9875
1196.70485	53407.5875
1200.29634	51567.7875
1203.88538	50421.3875
1207.47197	50195.0875
1211.05612	50132.8875
1214.63782	49468.6875
1218.21708	47822.0875
1221.79391	45838.7875
1225.36829	44380.1875
1228.94024	43416.9875
1232.50976	42746.1875
1236.07685	42039.8875
1239.6415	41664.0875
1243.20374	41697.6875
1246.76355	42174.6875
1250.32093	42853.3875
1253.8759	43890.2875
1257.42845	45212.5875
1260.97859	46663.5875
1264.52631	48188.0875
1268.07163	49793.0875
1271.61453	51327.0875
1275.15503	52977.6875
1278.69312	54818.2875
1282.22882	57022.0875
1285.76211	59728.3875
1289.29301	62679.9875
1292.82151	66234.1875
1296.34761	70451.8875
1299.87133	75257.0875
1303.39266	79703.9875
1306.9116	83160.5875
1310.42815	85216.9875
1313.94233	85789.3875
1317.45412	84907.9875
1320.96354	83612.2875
1324.47058	82943.5875
1327.97525	82681.8875
1331.47754	82665.5875
1334.97747	82213.5875
1338.47502	81107.8875
1341.97022	79436.8875
1345.46305	77333.4875
1348.95352	75399.7875
1352.44163	74590.5875
1355.92738	75656.7875
1359.41078	78420.1875
1362.89183	80667.5875
1366.37053	79882.6875
1369.84688	74587.0875
1373.32088	66590.3875
1376.79254	60741.8875
1380.26186	59002.4875
1383.72883	59637.8875
1387.19347	60291.6875
1390.65578	59807.8875
1394.11575	59642.8875
1397.57339	60415.6875
1401.0287	61926.0875
1404.48168	63113.9875
1407.93234	62990.3875
1411.38068	61408.5875
1414.82669	58727.4875
1418.27039	55653.1875
1421.71177	52753.5875
1425.15083	50444.8875
1428.58758	49507.8875
1432.02203	50180.3875
1435.45416	51984.8875
1438.88399	54121.5875
1442.31151	55678.7875
1445.73673	56479.3875
1449.15965	56947.4875
1452.58027	57000.5875
1455.9986	56745.5875
1459.41463	56858.2875
1462.82837	57528.0875
1466.23982	58608.0875
1469.64898	59634.8875
1473.05586	60255.5875
1476.46045	60376.2875
1479.86276	59863.2875
1483.26279	59156.8875
1486.66054	58740.0875
1490.05602	58901.3875
1493.44922	59444.1875
1496.84016	59892.9875
1500.22882	60452.9875
1503.61521	61213.4875
1506.99934	62115.7875
1510.38121	62890.3875
1513.76081	63030.3875
1517.13816	62504.2875
1520.51324	61708.5875
1523.88607	61609.8875
1527.25665	62188.6875
1530.62498	62621.5875
1533.99105	62382.6875
1537.35488	61278.1875
1540.71647	59329.0875
1544.07581	57147.2875
1547.4329	54944.8875
1550.78776	53200.0875
1554.14038	51983.9875
1557.49077	51218.8875
1560.83892	50736.5875
1564.18484	50499.2875
1567.52853	50476.5875
1570.86999	51011.4875
1574.20922	52305.7875
1577.54624	53684.6875
1580.88103	54786.4875
1584.2136	56326.3875
1587.54395	59027.0875
1590.87208	62909.9875
1594.19801	67213.8875
1597.52172	70539.9875
1600.84321	70564.5875
1604.16251	66098.3875
1607.47959	59643.9875
1610.79447	53267.5875
1614.10715	47886.4875
1617.41763	43829.0875
1620.7259	41176.6875
1624.03199	40010.8875
1627.33587	40280.1875
1630.63757	41884.3875
1633.93707	45344.3875
1637.23439	51206.5875
1640.52951	59693.5875
1643.82246	69722.4875
1647.11321	77205.2875
1650.40179	77784.6875
1653.68819	70593.8875
1656.97241	59433.3875
1660.25446	49045.9875
1663.53433	41572.3875
1666.81203	36878.0875
1670.08756	33907.3875
1673.36092	32050.2875
1676.63211	30888.9875
1679.90115	30046.4875
1683.16801	29432.4875
1686.43272	29026.2875
1689.69527	28657.5875
1692.95567	28432.7875
1696.2139	28213.0875
1699.46999	28069.7875
1702.72392	27942.5875
1705.97571	27797.2875
1709.22535	27688.7875
1712.47284	27622.4875
1715.71819	27564.4875
1718.96139	27498.8875
1722.20246	27316.5875
1725.44139	27182.7875
1728.67818	27009.3875
1731.91284	26794.5875
1735.14537	26641.1875
1738.37576	26526.0875
1741.60403	26341.9875
1744.83017	26282.5875
1748.05418	26239.7875
1751.27607	26171.9875
1754.49584	26105.9875
1757.71349	26090.7875
1760.92903	26076.3875
1764.14244	26023.6875
1767.35375	26006.7875
1770.56294	25891.4875
1773.77002	25870.8875
1776.97499	25818.5875
1780.17785	25737.0875
1783.37861	25640.6875
1786.57727	25601.5875
1789.77382	25518.6875
1792.96828	25469.1875
1796.16064	25442.7875
1799.3509	25412.3875
1802.53907	25320.5875
1805.72514	25246.3875
1808.90913	25154.0875
1812.09102	25135.1875
1815.27083	25063.2875
1818.44856	25059.1875
1821.6242	25070.8875
1824.79776	25036.0875
1827.96924	24977.8875
1831.13864	24945.8875
1834.30597	24983.9875
1837.47122	25001.5875
1840.6344	24945.3875
1843.7955	24970.3875
1846.95454	25001.9875
1850.11151	24990.1875
1853.26642	24949.6875
1856.41926	24905.3875
1859.57004	24919.5875
1862.71876	24863.4875
1865.86542	24851.2875
1869.01003	24750.5875
1872.15258	24738.5875
1875.29308	24713.6875
1878.43152	24683.7875
1881.56792	24649.8875
1884.70227	24633.5875
1887.83457	24586.2875
1890.96482	24563.5875
1894.09304	24528.5875
1897.21921	24518.2875
1900.34335	24475.8875
1903.46544	24390.7875
1906.58551	24380.7875
1909.70353	24332.9875
1912.81953	24305.9875
1915.93349	24203.9875
1919.04543	24191.9875
1922.15534	24124.3875
1925.26322	24058.7875
1928.36908	23976.4875
1931.47292	23965.7875
1934.57473	23813.6875
1937.67453	23802.0875
1940.77232	23692.5875
1943.86808	23655.3875
1946.96184	23635.4875
1950.05358	23519.5875
1953.14331	23463.7875
1956.23103	23413.5875
1959.31675	23366.0875
1962.40046	23282.7875
1965.48217	23215.1875
1968.56188	23125.5875
1971.63959	23054.1875
1974.7153	22987.6875
1977.78901	22937.0875
1980.86073	22839.0875
1983.93046	22752.6875
1986.99819	22654.4875
1990.06394	22692.5875
1993.1277	22594.1875
1996.18947	22504.1875
1999.24925	22452.1875
2002.30706	22347.6875
2005.36288	22293.8875
2008.41672	22217.6875
2011.46859	22145.2875
2014.51848	22091.5875
2017.56639	22050.2875
2020.61233	22023.2875
2023.6563	21961.4875
2026.6983	21920.2875
2029.73833	21864.4875
2032.7764	21829.7875
2035.8125	21788.0875
2038.84664	21719.3875
2041.87881	21705.9875
2044.90903	21668.8875
2047.93729	21607.1875
2050.96359	21638.1875
2053.98794	21607.7875
2057.01034	21607.2875
2060.03078	21559.6875
2063.04927	21507.9875
2066.06582	21493.8875
2069.08042	21483.0875
2072.09307	21477.8875
2075.10378	21439.0875
2078.11255	21437.4875
2081.11938	21403.9875
2084.12426	21408.4875
2087.12722	21365.3875
2090.12824	21345.3875
2093.12732	21417.7875
2096.12447	21388.5875
2099.11969	21395.3875
2102.11299	21410.4875
2105.10435	21389.0875
2108.09379	21381.7875
2111.08131	21399.5875
2114.0669	21409.3875
2117.05057	21405.1875
2120.03233	21415.5875
2123.01216	21442.5875
2125.99008	21460.4875
2128.96609	21463.7875
2131.94018	21460.7875
2134.91236	21498.7875
2137.88263	21466.6875
2140.851	21475.0875
2143.81746	21514.3875
2146.78201	21474.8875
2149.74466	21481.6875
2152.7054	21449.2875
2155.66425	21464.9875
2158.6212	21430.9875
2161.57625	21414.2875
2164.52941	21464.5875
2167.48067	21418.4875
2170.43004	21411.9875
2173.37752	21357.2875
2176.32311	21365.2875
2179.26681	21398.4875
2182.20863	21363.8875
2185.14856	21349.4875
2188.08661	21385.9875
2191.02278	21430.6875
2193.95707	21390.3875
2196.88948	21338.0875
2199.82001	21340.1875
2202.74867	21326.5875
2205.67545	21307.3875
2208.60037	21240.1875
2211.52341	21203.5875
2214.44458	21207.7875
2217.36388	21172.9875
2220.28132	21101.4875
2223.1969	21087.4875
2226.11061	21126.4875
2229.02246	21047.2875
2231.93245	21027.2875
2234.84058	20992.8875
2237.74686	21010.7875
2240.65128	20913.4875
2243.55385	20902.1875
2246.45456	20857.5875
2249.35343	20841.6875
2252.25044	20808.5875
2255.14561	20752.8875
2258.03893	20720.4875
2260.93041	20654.9875
2263.82004	20552.3875
2266.70783	20510.3875
2269.59378	20434.8875
2272.4779	20422.7875
2275.36017	20353.8875
2278.24061	20338.9875
2281.11922	20290.9875
2283.996	20249.3875
2286.87094	20244.6875
2289.74405	20228.7875
2292.61534	20166.9875
2295.4848	20138.4875
2298.35243	20152.1875
2301.21824	20130.8875
2304.08223	20135.3875
2306.94439	20185.7875
2309.80474	20140.9875
2312.66327	20137.4875
2315.51999	20124.0875
2318.37489	20097.5875
2321.22797	20029.0875
2324.07925	20038.8875
2326.92871	19994.7875
2329.77637	20044.3875
2332.62222	19971.5875
2335.46626	19956.9875
2338.3085	19927.8875
2341.14893	19959.0875
2343.98756	19929.2875
2346.8244	19909.5875
2349.65943	19928.3875
2352.49267	19922.3875
2355.32411	19924.5875
2358.15376	19912.4875
2360.98161	19880.6875
2363.80768	19885.5875
2366.63195	19869.1875
2369.45444	19849.8875
2372.27514	19773.4875
2375.09405	19783.2875
2377.91118	19769.4875
2380.72652	19703.6875
2383.54009	19661.7875
2386.35187	19645.8875
2389.16188	19631.8875
2391.97011	19560.5875
2394.77657	19512.1875
2397.58125	19477.3875
2400.38416	19490.8875
2403.18529	19461.8875
2405.98466	19429.6875
2408.78226	19397.1875
2411.57809	19388.2875
2414.37216	19360.8875
2417.16446	19391.5875
2419.955	19359.3875
2422.74378	19340.7875
2425.5308	19339.7875
2428.31606	19325.9875
2431.09956	19304.7875
2433.88131	19251.9875
2436.6613	19281.8875
2439.43954	19240.7875
2442.21603	19218.2875
2444.99077	19203.4875
2447.76377	19225.4875
2450.53501	19226.0875
2453.30451	19170.9875
2456.07226	19168.2875
2458.83827	19213.6875
2461.60254	19210.9875
2464.36507	19214.1875
2467.12586	19162.7875
2469.88492	19161.5875
2472.64224	19173.2875
2475.39782	19184.2875
2478.15167	19203.9875
2480.90379	19171.3875
2483.65417	19204.3875
2486.40283	19156.2875
2489.14976	19196.4875
2491.89497	19216.1875
2494.63845	19200.3875
2497.3802	19164.2875
2500.12024	19173.3875
2502.85855	19187.1875
2505.59514	19188.0875
2508.33002	19181.4875
2511.06318	19157.6875
2513.79462	19157.4875
2516.52435	19134.1875
2519.25237	19133.6875
2521.97867	19095.3875
2524.70327	19154.4875
2527.42616	19102.9875
2530.14734	19113.5875
2532.86681	19058.9875
2535.58458	19054.7875
2538.30065	19008.3875
2541.01501	18974.0875
2543.72768	18966.7875
2546.43864	18983.2875
2549.14791	18944.4875
2551.85548	18941.2875
2554.56136	18962.2875
2557.26554	18940.6875
2559.96803	18953.6875
2562.66883	18897.1875
2565.36794	18861.6875
2568.06536	18898.1875
2570.7611	18873.5875
2573.45514	18840.7875
2576.14751	18826.2875
2578.83819	18821.1875
2581.52719	18825.1875
2584.21451	18805.2875
2586.90015	18770.9875
2589.58411	18779.4875
2592.2664	18786.2875
2594.94701	18766.6875
2597.62594	18792.2875
2600.30321	18746.1875
2602.9788	18734.1875
2605.65273	18719.8875
2608.32498	18735.9875
2610.99557	18728.6875
2613.66449	18723.4875
2616.33175	18718.4875
2618.99734	18742.4875
2621.66128	18719.0875
2624.32355	18697.5875
2626.98416	18702.6875
2629.64311	18688.2875
2632.30041	18673.9875
2634.95605	18675.3875
2637.61004	18669.3875
2640.26238	18649.0875
2642.91306	18645.9875
2645.56209	18580.4875
2648.20948	18586.4875
2650.85521	18608.8875
2653.4993	18640.0875
2656.14175	18636.5875
2658.78255	18663.7875
2661.42171	18675.4875
2664.05923	18708.3875
2666.6951	18702.2875
2669.32934	18745.0875
2671.96194	18724.8875
2674.59291	18722.4875
2677.22224	18741.4875
2679.84993	18741.2875
2682.476	18738.2875
2685.10043	18715.2875
2687.72324	18723.9875
2690.34441	18725.7875
2692.96396	18683.4875
2695.58188	18682.2875
2698.19818	18711.9875
2700.81285	18677.6875
2703.4259	18717.2875
2706.03733	18768.1875
2708.64714	18735.5875
2711.25533	18748.6875
2713.86191	18711.2875
2716.46687	18755.1875
2719.07021	18750.9875
2721.67194	18796.2875
2724.27206	18774.7875
2726.87057	18788.7875
2729.46747	18807.7875
2732.06276	18789.8875
2734.65644	18788.4875
2737.24852	18782.1875
2739.83899	18787.3875
2742.42786	18761.3875
2745.01513	18769.3875
2747.60079	18791.5875
2750.18486	18770.6875
2752.76733	18788.1875
2755.3482	18778.7875
2757.92747	18826.4875
2760.50515	18779.1875
2763.08123	18769.2875
2765.65573	18769.3875
2768.22863	18701.0875
2770.79994	18729.1875
2773.36967	18688.1875
2775.9378	18735.1875
2778.50435	18728.4875
2781.06932	18738.4875
2783.6327	18740.1875
2786.1945	18712.6875
2788.75471	18713.5875
2791.31335	18634.7875
2793.87041	18630.7875
2796.42589	18590.4875
2798.97979	18586.2875
2801.53212	18574.1875
2804.08288	18547.9875
2806.63206	18494.4875
2809.17967	18481.3875
2811.72571	18439.2875
2814.27018	18425.0875
2816.81308	18376.8875
2819.35442	18365.9875
2821.89419	18307.0875
2824.43239	18269.9875
2826.96904	18282.2875
2829.50412	18292.9875
2832.03763	18259.7875
2834.56959	18255.8875
2837.1	18236.6875
2839.62884	18212.9875
2842.15613	18229.3875
2844.68186	18231.0875
2847.20604	18266.0875
2849.72867	18292.2875
2852.24974	18281.3875
2854.76927	18259.5875
2857.28724	18210.5875
2859.80367	18220.2875
2862.31855	18183.6875
2864.83189	18147.3875
2867.34368	18131.2875
2869.85393	18096.3875
2872.36264	18071.8875
2874.8698	18064.4875
2877.37543	18053.9875
2879.87952	18050.2875
2882.38207	18071.1875
2884.88308	18062.9875
2887.38256	18071.0875
2889.88051	18089.1875
2892.37692	18098.5875
2894.8718	18109.6875
2897.36515	18113.7875
2899.85698	18089.0875
2902.34727	18158.0875
2904.83604	18125.7875
2907.32328	18165.8875
2909.809	18151.8875
2912.29319	18129.5875
2914.77587	18090.7875
2917.25702	18073.9875
2919.73665	18078.8875
2922.21476	18097.7875
2924.69136	18123.9875
2927.16644	18159.7875
2929.64	18126.2875
2932.11205	18138.9875
2934.58258	18065.7875
2937.05161	18113.2875
2939.51912	18094.4875
2941.98513	18047.6875
2944.44962	18047.5875
2946.91261	17909.3875
2949.37409	17981.6875
2951.83407	17966.3875
2954.29254	17972.1875
2956.74951	17927.6875
2959.20498	17894.1875
2961.65895	17865.3875
2964.11142	17839.2875
2966.56239	17785.6875
2969.01186	17814.8875
2971.45984	17783.6875
2973.90632	17748.9875
2976.35131	17660.9875
2978.7948	17634.0875
2981.23681	17583.9875
2983.67732	17559.4875
2986.11635	17509.2875
2988.55388	17463.9875
2990.98993	17431.2875
2993.4245	17385.6875
2995.85758	17323.0875
2998.28917	17287.8875
3000.71928	17250.0875
3003.14791	17201.0875
3005.57506	17229.0875
3008.00073	17150.8875
3010.42493	17146.2875
3012.84764	17087.1875
3015.26888	17071.0875
3017.68865	17011.2875
3020.10694	16975.0875
3022.52376	16940.8875
3024.9391	16922.4875
3027.35298	16883.2875
3029.76539	16865.8875
3032.17632	16844.0875
3034.5858	16776.0875
3036.9938	16837.3875
3039.40034	16811.8875
3041.80542	16812.9875
3044.20903	16784.9875
3046.61118	16749.4875
3049.01187	16699.6875
3051.4111	16687.9875
3053.80888	16662.7875
3056.20519	16601.2875
3058.60005	16580.1875
3060.99345	16525.3875
3063.3854	16510.4875
3065.7759	16439.6875
3068.16494	16377.0875
3070.55254	16313.7875
3072.93868	16278.0875
3075.32338	16229.8875
3077.70662	16202.4875
3080.08842	16174.7875
3082.46878	16180.4875
3084.84769	16114.7875
3087.22515	16099.7875
3089.60118	16093.6875
3091.97576	16083.3875
3094.3489	16050.6875
3096.72061	16023.7875
3099.09087	16032.6875
3101.4597	15964.8875
3103.82709	16004.5875
3106.19305	15951.3875
3108.55757	15957.6875
3110.92066	15878.2875
3113.28232	15821.2875
3115.64255	15810.1875
3118.00134	15761.9875
3120.35871	15731.8875
3122.71466	15700.4875
3125.06917	15664.1875
3127.42226	15631.9875
3129.77393	15634.5875
3132.12417	15601.8875
3134.47299	15608.3875
3136.82039	15585.4875
3139.16636	15593.4875
3141.51092	15594.4875
3143.85406	15554.1875
3146.19579	15538.6875
3148.53609	15528.0875
3150.87499	15526.2875
3153.21246	15525.3875
3155.54853	15535.9875
3157.88318	15506.6875
3160.21642	15492.5875
3162.54826	15497.5875
3164.87868	15461.2875
3167.2077	15422.2875
3169.5353	15447.0875
3171.86151	15428.7875
3174.18631	15434.1875
3176.5097	15414.0875
3178.83169	15364.4875
3181.15228	15388.6875
3183.47147	15336.2875
3185.78926	15341.0875
3188.10565	15360.5875
3190.42065	15329.4875
3192.73424	15284.3875
3195.04645	15275.0875
3197.35725	15282.4875
3199.66667	15240.6875
3201.97469	15249.6875
3204.28132	15223.4875
3206.58656	15252.1875
3208.8904	15211.9875
3211.19287	15223.5875
3213.49394	15212.1875
3215.79363	15199.9875
3218.09193	15197.5875
3220.38884	15168.9875
3222.68438	15202.9875
3224.97853	15156.2875
3227.2713	15160.5875
3229.56269	15117.4875
3231.8527	15106.0875
3234.14133	15077.5875
3236.42858	15062.6875
3238.71446	15057.3875
3240.99896	15043.0875
3243.28209	15025.4875
3245.56384	14975.9875
3247.84423	14998.8875
3250.12324	14962.9875
3252.40088	14923.8875
3254.67715	14935.8875
3256.95205	14874.8875
3259.22558	14846.0875
3261.49775	14808.6875
3263.76855	14804.8875
3266.03799	14726.5875
3268.30606	14724.1875
3270.57277	14704.3875
3272.83812	14677.8875
3275.10211	14649.3875
3277.36474	14679.3875
3279.62601	14656.3875
3281.88593	14616.3875
3284.14448	14664.9875
3286.40168	14653.5875
3288.65753	14638.1875
3290.91202	14584.5875
3293.16516	14577.9875
3295.41695	14533.0875
3297.66738	14430.2875
3299.91647	14376.7875
3302.16421	14277.0875
3304.4106	14210.4875
3306.65564	14134.1875
3308.89933	14036.7875
3311.14169	13981.1875
3313.38269	13853.6875
3315.62236	13741.1875
3317.86068	13641.4875
3320.09766	13488.1875
3322.3333	13315.9875
3324.5676	13336.6875
3326.80056	13134.9875
3329.03219	13046.0875
3331.26248	3.3875
3333.49143	0.1875
3335.71905	-1.8125
