Data from AgNPs_FTO_APTES_UA_2uM_CRN_10uM_R6G_10uM_NaF_0.1M_Addition_RamanShift__11__13-30-55-151.txt Node

Date: Wed Feb 02 13:30:55 GMT 2022
User: TCL
Spectrometer: QEP01345
Trigger mode: 4
Integration Time (sec): 7.000000E0
Scans to average: 10
Electric dark correction enabled: true
Nonlinearity correction enabled: false
Boxcar width: 0
XAxis mode: Raman Shifts
Number of Pixels in Spectrum: 1044
>>>>>Begin Spectral Data<<<<<
46.04893	0.6875
50.45542	0.2875
54.85868	-0.2125
59.25871	-0.9125
63.6555	90.9875
68.04907	96.6875
72.43941	98.9875
76.82654	111.1875
81.21044	109.2875
85.59113	116.6875
89.96862	117.1875
94.34289	119.5875
98.71396	128.9875
103.08183	134.0875
107.4465	137.2875
111.80798	139.4875
116.16626	140.7875
120.52136	146.9875
124.87327	153.5875
129.222	159.0875
133.56755	174.4875
137.90993	185.4875
142.24913	209.4875
146.58517	239.1875
150.91804	276.9875
155.24774	337.6875
159.57429	422.3875
163.89768	544.6875
168.21792	720.7875
172.53501	989.7875
176.84895	1378.4875
181.15975	1942.9875
185.46741	2725.6875
189.77193	3772.0875
194.07331	5046.0875
198.37157	6502.2875
202.6667	8053.7875
206.9587	9581.1875
211.24758	11083.7875
215.53334	12544.8875
219.81599	14106.3875
224.09553	15810.2875
228.37195	17682.1875
232.64527	19792.1875
236.91549	22017.2875
241.18261	24248.7875
245.44663	26320.1875
249.70755	28233.6875
253.96539	29907.2875
258.22014	31330.7875
262.4718	32420.1875
266.72039	33185.2875
270.96589	33554.6875
275.20832	33589.7875
279.44768	33456.4875
283.68397	33215.7875
287.91719	32931.6875
292.14735	32810.1875
296.37445	32750.5875
300.59849	32753.8875
304.81948	32926.2875
309.03742	32888.6875
313.25231	32754.2875
317.46415	32237.2875
321.67296	31488.2875
325.87872	30823.1875
330.08145	30483.8875
334.28114	30425.8875
338.47781	30525.3875
342.67145	30811.6875
346.86207	31107.5875
351.04966	31547.3875
355.23424	31942.0875
359.4158	32279.8875
363.59435	32593.1875
367.76989	32830.5875
371.94243	32986.4875
376.11196	33000.3875
380.27849	33029.2875
384.44203	33134.3875
388.60257	33348.8875
392.76012	33787.4875
396.91468	34323.9875
401.06626	34895.4875
405.21485	35292.9875
409.36047	35190.1875
413.50311	34791.6875
417.64277	34654.7875
421.77947	34751.3875
425.9132	34955.6875
430.04396	35200.9875
434.17176	35295.5875
438.2966	35392.9875
442.41849	35662.7875
446.53742	36351.3875
450.6534	37070.3875
454.76644	37532.1875
458.87653	37824.1875
462.98368	37838.0875
467.08789	37647.7875
471.18916	37356.4875
475.2875	36991.6875
479.38291	36829.1875
483.4754	36792.7875
487.56496	36492.5875
491.6516	36021.3875
495.73531	35464.3875
499.81612	35045.3875
503.89401	35107.2875
507.96899	35285.2875
512.04106	35360.5875
516.11023	35204.0875
520.1765	34842.1875
524.23987	34408.7875
528.30034	34024.6875
532.35792	33647.4875
536.41261	33300.7875
540.46441	33034.2875
544.51333	33144.6875
548.55936	33497.3875
552.60252	34143.2875
556.64279	34859.3875
560.6802	35450.1875
564.71473	35942.8875
568.7464	36722.0875
572.7752	38100.5875
576.80114	39730.1875
580.82422	41270.7875
584.84444	42665.2875
588.86181	44207.5875
592.87633	45546.1875
596.888	45137.4875
600.89682	43081.8875
604.9028	41942.2875
608.90594	42946.4875
612.90624	44299.9875
616.90371	41504.8875
620.89834	36421.3875
624.89015	34284.3875
628.87913	34319.5875
632.86528	34721.7875
636.84862	34771.8875
640.82913	34088.7875
644.80683	33179.2875
648.78172	32587.6875
652.75379	32517.8875
656.72306	32828.3875
660.68952	33174.4875
664.65319	33067.4875
668.61405	32690.0875
672.57211	32639.4875
676.52738	32712.8875
680.47986	32653.0875
684.42955	32530.6875
688.37646	32407.8875
692.32058	32554.3875
696.26192	32859.9875
700.20048	33268.7875
704.13626	33648.7875
708.06928	33806.7875
711.99952	33813.9875
715.927	33727.4875
719.85171	33600.2875
723.77365	33346.5875
727.69284	32813.3875
731.60928	32351.6875
735.52295	32098.6875
739.43388	32006.4875
743.34206	32095.4875
747.24749	32308.7875
751.15017	32727.2875
755.05012	33337.1875
758.94733	34282.7875
762.8418	35736.1875
766.73354	37794.5875
770.62254	39604.1875
774.50882	39627.2875
778.39237	37893.4875
782.27321	35749.6875
786.15132	34065.2875
790.02671	32922.3875
793.89938	32300.1875
797.76935	31955.0875
801.6366	31836.1875
805.50115	31698.7875
809.36299	31549.5875
813.22213	31390.4875
817.07857	31319.8875
820.93231	31266.2875
824.78336	31110.9875
828.63172	30952.6875
832.47738	30853.1875
836.32036	30764.2875
840.16066	30760.2875
843.99827	30734.2875
847.8332	30694.9875
851.66546	30753.3875
855.49504	30819.0875
859.32195	30810.0875
863.1462	30739.0875
866.96777	30720.9875
870.78668	30649.1875
874.60293	30665.0875
878.41652	30602.5875
882.22745	30711.5875
886.03573	30782.7875
889.84136	30790.6875
893.64433	30718.1875
897.44466	30666.5875
901.24235	30659.0875
905.0374	30631.7875
908.8298	30586.9875
912.61957	30751.6875
916.40671	31104.6875
920.19121	31548.1875
923.97308	31898.1875
927.75233	31863.9875
931.52895	31364.7875
935.30295	30764.6875
939.07433	30158.9875
942.84309	29712.1875
946.60924	29430.4875
950.37278	29367.7875
954.13371	29326.7875
957.89203	29322.7875
961.64774	29376.4875
965.40086	29367.7875
969.15137	29322.6875
972.89929	29113.4875
976.64461	28972.8875
980.38733	28838.3875
984.12747	28802.5875
987.86502	28901.1875
991.59999	29061.1875
995.33237	29246.3875
999.06217	29507.3875
1002.78939	29969.7875
1006.51404	30481.7875
1010.23611	31046.4875
1013.95561	31366.4875
1017.67255	31355.7875
1021.38692	31136.9875
1025.09872	30706.3875
1028.80796	30314.5875
1032.51465	30187.9875
1036.21877	30189.4875
1039.92035	30344.4875
1043.61937	30457.6875
1047.31584	30642.4875
1051.00976	30687.9875
1054.70114	30916.0875
1058.38998	31158.3875
1062.07627	31569.1875
1065.76003	32095.3875
1069.44126	32565.3875
1073.11995	33178.1875
1076.79611	33603.2875
1080.46974	33765.5875
1084.14085	33877.6875
1087.80943	34159.6875
1091.47549	34535.4875
1095.13903	34739.1875
1098.80005	34375.8875
1102.45857	33516.2875
1106.11456	32669.5875
1109.76805	32175.1875
1113.41903	31962.5875
1117.06751	32055.1875
1120.71348	32325.7875
1124.35696	32621.7875
1127.99793	32998.3875
1131.63641	33270.6875
1135.2724	33332.7875
1138.90589	33299.7875
1142.5369	33463.7875
1146.16542	33802.1875
1149.79145	34195.2875
1153.415	34671.5875
1157.03607	35206.0875
1160.65467	36154.9875
1164.27079	37682.0875
1167.88443	39442.2875
1171.49561	41282.8875
1175.10432	43494.8875
1178.71056	46110.6875
1182.31434	48595.7875
1185.91565	50073.1875
1189.51451	50381.3875
1193.11091	49835.5875
1196.70485	48607.0875
1200.29634	46952.5875
1203.88538	45636.0875
1207.47197	45216.3875
1211.05612	45206.0875
1214.63782	44689.4875
1218.21708	43431.1875
1221.79391	41833.5875
1225.36829	40464.8875
1228.94024	39671.2875
1232.50976	39246.3875
1236.07685	38923.5875
1239.6415	38694.9875
1243.20374	38778.9875
1246.76355	38957.7875
1250.32093	39559.2875
1253.8759	40331.8875
1257.42845	41446.1875
1260.97859	42684.6875
1264.52631	43946.4875
1268.07163	45174.4875
1271.61453	46369.2875
1275.15503	47633.9875
1278.69312	49118.8875
1282.22882	50736.3875
1285.76211	52669.2875
1289.29301	54675.0875
1292.82151	57154.3875
1296.34761	59970.1875
1299.87133	63048.3875
1303.39266	65831.0875
1306.9116	67941.1875
1310.42815	69244.7875
1313.94233	69649.7875
1317.45412	69262.0875
1320.96354	68766.1875
1324.47058	68855.0875
1327.97525	69123.2875
1331.47754	69357.3875
1334.97747	69196.1875
1338.47502	68926.6875
1341.97022	68420.1875
1345.46305	67844.6875
1348.95352	66952.5875
1352.44163	66051.0875
1355.92738	65706.5875
1359.41078	66291.0875
1362.89183	67060.6875
1366.37053	66264.8875
1369.84688	62677.0875
1373.32088	57344.0875
1376.79254	53327.4875
1380.26186	51831.1875
1383.72883	51923.1875
1387.19347	52089.7875
1390.65578	51775.3875
1394.11575	51560.4875
1397.57339	51793.3875
1401.0287	52389.9875
1404.48168	52840.1875
1407.93234	52334.8875
1411.38068	50976.4875
1414.82669	48985.4875
1418.27039	46859.9875
1421.71177	44884.0875
1425.15083	43377.0875
1428.58758	42805.4875
1432.02203	43141.0875
1435.45416	44241.2875
1438.88399	45559.1875
1442.31151	46534.3875
1445.73673	47170.3875
1449.15965	47753.6875
1452.58027	48171.8875
1455.9986	48407.3875
1459.41463	48821.4875
1462.82837	49409.6875
1466.23982	50268.2875
1469.64898	50849.4875
1473.05586	51103.4875
1476.46045	51036.9875
1479.86276	50740.8875
1483.26279	50370.3875
1486.66054	50225.7875
1490.05602	50550.7875
1493.44922	51321.5875
1496.84016	52276.6875
1500.22882	53553.3875
1503.61521	54766.4875
1506.99934	56096.9875
1510.38121	56961.3875
1513.76081	57140.0875
1517.13816	56691.0875
1520.51324	56128.9875
1523.88607	55886.3875
1527.25665	55986.1875
1530.62498	55904.4875
1533.99105	55377.8875
1537.35488	54103.4875
1540.71647	52361.9875
1544.07581	50503.5875
1547.4329	48793.0875
1550.78776	47534.3875
1554.14038	46639.4875
1557.49077	46208.8875
1560.83892	45959.2875
1564.18484	45863.6875
1567.52853	45931.9875
1570.86999	46356.4875
1574.20922	47366.8875
1577.54624	48330.6875
1580.88103	49042.4875
1584.2136	49795.5875
1587.54395	51060.1875
1590.87208	53144.9875
1594.19801	55457.4875
1597.52172	57395.2875
1600.84321	57140.4875
1604.16251	54240.4875
1607.47959	50259.9875
1610.79447	46251.4875
1614.10715	42726.2875
1617.41763	39696.6875
1620.7259	37597.7875
1624.03199	36539.3875
1627.33587	36587.1875
1630.63757	37638.4875
1633.93707	40058.7875
1637.23439	44327.5875
1640.52951	50376.0875
1643.82246	57573.5875
1647.11321	63147.7875
1650.40179	64080.8875
1653.68819	59658.9875
1656.97241	52023.5875
1660.25446	44336.7875
1663.53433	38496.7875
1666.81203	34484.3875
1670.08756	31949.1875
1673.36092	30375.1875
1676.63211	29370.4875
1679.90115	28666.8875
1683.16801	28107.5875
1686.43272	27661.7875
1689.69527	27414.4875
1692.95567	27188.8875
1696.2139	27017.9875
1699.46999	26920.3875
1702.72392	26815.7875
1705.97571	26686.5875
1709.22535	26566.3875
1712.47284	26468.0875
1715.71819	26412.3875
1718.96139	26339.6875
1722.20246	26240.5875
1725.44139	26123.7875
1728.67818	25957.9875
1731.91284	25756.2875
1735.14537	25563.2875
1738.37576	25500.8875
1741.60403	25410.2875
1744.83017	25327.6875
1748.05418	25266.7875
1751.27607	25215.7875
1754.49584	25147.5875
1757.71349	25104.7875
1760.92903	25080.9875
1764.14244	25018.0875
1767.35375	25000.1875
1770.56294	24971.8875
1773.77002	24922.2875
1776.97499	24816.0875
1780.17785	24752.9875
1783.37861	24659.3875
1786.57727	24659.5875
1789.77382	24575.9875
1792.96828	24502.9875
1796.16064	24478.1875
1799.3509	24423.9875
1802.53907	24362.1875
1805.72514	24305.0875
1808.90913	24223.7875
1812.09102	24153.9875
1815.27083	24139.8875
1818.44856	24133.7875
1821.6242	24063.8875
1824.79776	24072.0875
1827.96924	24032.1875
1831.13864	24013.0875
1834.30597	24017.4875
1837.47122	24001.8875
1840.6344	23984.7875
1843.7955	24020.1875
1846.95454	24034.4875
1850.11151	24007.0875
1853.26642	23998.6875
1856.41926	23939.6875
1859.57004	23922.2875
1862.71876	23920.0875
1865.86542	23856.5875
1869.01003	23806.5875
1872.15258	23716.2875
1875.29308	23710.0875
1878.43152	23643.4875
1881.56792	23581.1875
1884.70227	23548.2875
1887.83457	23547.0875
1890.96482	23512.0875
1894.09304	23449.1875
1897.21921	23433.5875
1900.34335	23349.1875
1903.46544	23320.8875
1906.58551	23254.2875
1909.70353	23242.6875
1912.81953	23172.3875
1915.93349	23100.5875
1919.04543	23050.0875
1922.15534	23040.0875
1925.26322	22957.8875
1928.36908	22883.5875
1931.47292	22819.4875
1934.57473	22716.5875
1937.67453	22717.4875
1940.77232	22614.2875
1943.86808	22574.7875
1946.96184	22512.4875
1950.05358	22435.6875
1953.14331	22381.9875
1956.23103	22314.2875
1959.31675	22221.6875
1962.40046	22169.5875
1965.48217	22128.1875
1968.56188	22027.5875
1971.63959	21919.5875
1974.7153	21919.5875
1977.78901	21819.7875
1980.86073	21687.8875
1983.93046	21664.4875
1986.99819	21587.8875
1990.06394	21538.9875
1993.1277	21510.3875
1996.18947	21384.0875
1999.24925	21300.4875
2002.30706	21238.1875
2005.36288	21155.4875
2008.41672	21073.4875
2011.46859	21001.7875
2014.51848	20946.9875
2017.56639	20928.7875
2020.61233	20871.5875
2023.6563	20830.7875
2026.6983	20822.6875
2029.73833	20694.3875
2032.7764	20650.8875
2035.8125	20591.9875
2038.84664	20550.7875
2041.87881	20531.7875
2044.90903	20447.0875
2047.93729	20432.7875
2050.96359	20427.1875
2053.98794	20360.8875
2057.01034	20347.7875
2060.03078	20297.3875
2063.04927	20274.0875
2066.06582	20303.7875
2069.08042	20280.2875
2072.09307	20228.3875
2075.10378	20242.4875
2078.11255	20197.6875
2081.11938	20179.8875
2084.12426	20154.2875
2087.12722	20172.6875
2090.12824	20163.9875
2093.12732	20171.8875
2096.12447	20169.0875
2099.11969	20201.9875
2102.11299	20156.0875
2105.10435	20152.5875
2108.09379	20170.0875
2111.08131	20148.6875
2114.0669	20140.5875
2117.05057	20181.4875
2120.03233	20221.9875
2123.01216	20223.3875
2125.99008	20215.6875
2128.96609	20206.5875
2131.94018	20224.9875
2134.91236	20211.9875
2137.88263	20198.8875
2140.851	20212.6875
2143.81746	20225.4875
2146.78201	20202.8875
2149.74466	20232.4875
2152.7054	20172.3875
2155.66425	20157.5875
2158.6212	20159.3875
2161.57625	20134.0875
2164.52941	20122.6875
2167.48067	20104.7875
2170.43004	20073.5875
2173.37752	20057.4875
2176.32311	20053.6875
2179.26681	20033.0875
2182.20863	20060.4875
2185.14856	20084.3875
2188.08661	20034.5875
2191.02278	20090.1875
2193.95707	20048.1875
2196.88948	19952.1875
2199.82001	19947.8875
2202.74867	19964.8875
2205.67545	19930.3875
2208.60037	19879.5875
2211.52341	19817.2875
2214.44458	19832.0875
2217.36388	19783.5875
2220.28132	19770.7875
2223.1969	19687.1875
2226.11061	19684.8875
2229.02246	19630.7875
2231.93245	19626.7875
2234.84058	19592.9875
2237.74686	19568.4875
2240.65128	19499.8875
2243.55385	19494.4875
2246.45456	19476.2875
2249.35343	19419.1875
2252.25044	19373.1875
2255.14561	19329.3875
2258.03893	19275.1875
2260.93041	19252.5875
2263.82004	19152.6875
2266.70783	19092.7875
2269.59378	19039.2875
2272.4779	18972.5875
2275.36017	18965.3875
2278.24061	18897.5875
2281.11922	18834.0875
2283.996	18838.6875
2286.87094	18808.5875
2289.74405	18783.7875
2292.61534	18737.4875
2295.4848	18725.4875
2298.35243	18721.3875
2301.21824	18695.1875
2304.08223	18664.0875
2306.94439	18663.8875
2309.80474	18621.7875
2312.66327	18607.4875
2315.51999	18564.0875
2318.37489	18569.3875
2321.22797	18523.3875
2324.07925	18468.4875
2326.92871	18446.3875
2329.77637	18487.3875
2332.62222	18428.6875
2335.46626	18361.5875
2338.3085	18363.0875
2341.14893	18357.5875
2343.98756	18352.2875
2346.8244	18334.2875
2349.65943	18313.7875
2352.49267	18323.2875
2355.32411	18306.5875
2358.15376	18299.7875
2360.98161	18291.3875
2363.80768	18267.4875
2366.63195	18228.6875
2369.45444	18229.7875
2372.27514	18202.3875
2375.09405	18166.6875
2377.91118	18125.9875
2380.72652	18102.8875
2383.54009	18052.1875
2386.35187	18048.3875
2389.16188	18017.7875
2391.97011	18005.8875
2394.77657	17894.2875
2397.58125	17876.7875
2400.38416	17857.2875
2403.18529	17818.8875
2405.98466	17819.0875
2408.78226	17782.4875
2411.57809	17774.4875
2414.37216	17713.9875
2417.16446	17739.3875
2419.955	17738.7875
2422.74378	17695.2875
2425.5308	17683.2875
2428.31606	17684.7875
2431.09956	17678.6875
2433.88131	17620.8875
2436.6613	17625.5875
2439.43954	17621.0875
2442.21603	17546.1875
2444.99077	17536.6875
2447.76377	17534.8875
2450.53501	17497.8875
2453.30451	17516.3875
2456.07226	17510.6875
2458.83827	17463.2875
2461.60254	17471.9875
2464.36507	17460.6875
2467.12586	17461.9875
2469.88492	17442.9875
2472.64224	17436.2875
2475.39782	17395.6875
2478.15167	17431.8875
2480.90379	17419.2875
2483.65417	17379.8875
2486.40283	17359.7875
2489.14976	17351.5875
2491.89497	17358.4875
2494.63845	17411.7875
2497.3802	17357.4875
2500.12024	17345.0875
2502.85855	17311.0875
2505.59514	17338.2875
2508.33002	17327.5875
2511.06318	17308.5875
2513.79462	17294.4875
2516.52435	17240.2875
2519.25237	17210.4875
2521.97867	17236.2875
2524.70327	17223.4875
2527.42616	17185.0875
2530.14734	17182.1875
2532.86681	17171.5875
2535.58458	17164.2875
2538.30065	17106.7875
2541.01501	17085.5875
2543.72768	17047.6875
2546.43864	17060.0875
2549.14791	16995.3875
2551.85548	17005.9875
2554.56136	16973.2875
2557.26554	16981.2875
2559.96803	16966.9875
2562.66883	16893.6875
2565.36794	16913.7875
2568.06536	16877.4875
2570.7611	16861.5875
2573.45514	16795.8875
2576.14751	16813.6875
2578.83819	16753.5875
2581.52719	16764.2875
2584.21451	16736.1875
2586.90015	16693.0875
2589.58411	16698.9875
2592.2664	16694.3875
2594.94701	16693.5875
2597.62594	16680.0875
2600.30321	16609.6875
2602.9788	16583.5875
2605.65273	16543.0875
2608.32498	16584.2875
2610.99557	16551.6875
2613.66449	16567.9875
2616.33175	16564.6875
2618.99734	16539.7875
2621.66128	16526.9875
2624.32355	16507.2875
2626.98416	16484.5875
2629.64311	16473.2875
2632.30041	16464.7875
2634.95605	16462.0875
2637.61004	16443.9875
2640.26238	16407.8875
2642.91306	16384.8875
2645.56209	16387.7875
2648.20948	16390.5875
2650.85521	16366.7875
2653.4993	16424.3875
2656.14175	16398.6875
2658.78255	16431.7875
2661.42171	16400.2875
2664.05923	16400.9875
2666.6951	16413.5875
2669.32934	16419.3875
2671.96194	16443.1875
2674.59291	16382.6875
2677.22224	16405.1875
2679.84993	16370.2875
2682.476	16373.7875
2685.10043	16371.2875
2687.72324	16401.1875
2690.34441	16393.3875
2692.96396	16367.2875
2695.58188	16367.7875
2698.19818	16356.8875
2700.81285	16398.3875
2703.4259	16369.3875
2706.03733	16406.5875
2708.64714	16405.6875
2711.25533	16388.2875
2713.86191	16346.1875
2716.46687	16362.1875
2719.07021	16331.2875
2721.67194	16359.2875
2724.27206	16351.6875
2726.87057	16371.9875
2729.46747	16387.3875
2732.06276	16408.3875
2734.65644	16352.7875
2737.24852	16357.6875
2739.83899	16332.3875
2742.42786	16336.8875
2745.01513	16297.5875
2747.60079	16339.9875
2750.18486	16307.8875
2752.76733	16316.3875
2755.3482	16305.3875
2757.92747	16287.3875
2760.50515	16270.4875
2763.08123	16257.8875
2765.65573	16268.3875
2768.22863	16229.1875
2770.79994	16203.9875
2773.36967	16205.3875
2775.9378	16157.6875
2778.50435	16163.1875
2781.06932	16158.6875
2783.6327	16135.9875
2786.1945	16131.3875
2788.75471	16132.4875
2791.31335	16064.3875
2793.87041	16027.3875
2796.42589	16004.9875
2798.97979	15964.8875
2801.53212	15951.6875
2804.08288	15939.2875
2806.63206	15900.2875
2809.17967	15877.2875
2811.72571	15822.5875
2814.27018	15811.3875
2816.81308	15765.8875
2819.35442	15779.0875
2821.89419	15707.5875
2824.43239	15673.4875
2826.96904	15679.5875
2829.50412	15658.2875
2832.03763	15628.2875
2834.56959	15620.3875
2837.1	15594.2875
2839.62884	15633.8875
2842.15613	15603.9875
2844.68186	15643.4875
2847.20604	15650.4875
2849.72867	15668.4875
2852.24974	15627.5875
2854.76927	15593.2875
2857.28724	15609.5875
2859.80367	15576.9875
2862.31855	15527.4875
2864.83189	15506.1875
2867.34368	15481.0875
2869.85393	15493.6875
2872.36264	15437.7875
2874.8698	15436.8875
2877.37543	15409.2875
2879.87952	15421.5875
2882.38207	15393.6875
2884.88308	15404.1875
2887.38256	15398.6875
2889.88051	15410.5875
2892.37692	15401.6875
2894.8718	15385.2875
2897.36515	15410.8875
2899.85698	15402.0875
2902.34727	15396.6875
2904.83604	15413.5875
2907.32328	15435.6875
2909.809	15396.3875
2912.29319	15385.3875
2914.77587	15361.5875
2917.25702	15329.0875
2919.73665	15337.2875
2922.21476	15353.0875
2924.69136	15389.3875
2927.16644	15350.8875
2929.64	15347.6875
2932.11205	15331.2875
2934.58258	15282.3875
2937.05161	15308.0875
2939.51912	15340.3875
2941.98513	15288.7875
2944.44962	15244.7875
2946.91261	15183.5875
2949.37409	15202.5875
2951.83407	15166.6875
2954.29254	15148.7875
2956.74951	15157.5875
2959.20498	15106.9875
2961.65895	15054.8875
2964.11142	15051.9875
2966.56239	15014.2875
2969.01186	15033.4875
2971.45984	14972.7875
2973.90632	14944.3875
2976.35131	14887.8875
2978.7948	14853.7875
2981.23681	14803.1875
2983.67732	14794.1875
2986.11635	14773.7875
2988.55388	14719.2875
2990.98993	14676.1875
2993.4245	14633.0875
2995.85758	14591.5875
2998.28917	14552.3875
3000.71928	14549.7875
3003.14791	14497.7875
3005.57506	14470.1875
3008.00073	14450.1875
3010.42493	14395.0875
3012.84764	14371.3875
3015.26888	14372.7875
3017.68865	14314.7875
3020.10694	14311.4875
3022.52376	14282.7875
3024.9391	14218.9875
3027.35298	14194.5875
3029.76539	14191.2875
3032.17632	14169.8875
3034.5858	14107.4875
3036.9938	14106.6875
3039.40034	14084.9875
3041.80542	14056.8875
3044.20903	14037.6875
3046.61118	14044.6875
3049.01187	13997.3875
3051.4111	13960.7875
3053.80888	13948.5875
3056.20519	13907.3875
3058.60005	13846.4875
3060.99345	13822.7875
3063.3854	13783.5875
3065.7759	13769.4875
3068.16494	13717.1875
3070.55254	13658.0875
3072.93868	13622.9875
3075.32338	13583.7875
3077.70662	13567.8875
3080.08842	13548.4875
3082.46878	13498.7875
3084.84769	13476.4875
3087.22515	13451.6875
3089.60118	13470.0875
3091.97576	13439.9875
3094.3489	13384.0875
3096.72061	13399.3875
3099.09087	13381.1875
3101.4597	13440.1875
3103.82709	13394.9875
3106.19305	13348.3875
3108.55757	13321.3875
3110.92066	13267.9875
3113.28232	13217.4875
3115.64255	13178.7875
3118.00134	13176.0875
3120.35871	13129.1875
3122.71466	13080.0875
3125.06917	13057.1875
3127.42226	13023.4875
3129.77393	13026.7875
3132.12417	13019.3875
3134.47299	13012.5875
3136.82039	12977.8875
3139.16636	13021.1875
3141.51092	13008.7875
3143.85406	12960.2875
3146.19579	12958.8875
3148.53609	12936.2875
3150.87499	12948.6875
3153.21246	12945.9875
3155.54853	12954.3875
3157.88318	12939.6875
3160.21642	12926.9875
3162.54826	12889.7875
3164.87868	12903.6875
3167.2077	12878.9875
3169.5353	12854.4875
3171.86151	12866.2875
3174.18631	12830.2875
3176.5097	12849.3875
3178.83169	12816.8875
3181.15228	12821.9875
3183.47147	12802.2875
3185.78926	12773.9875
3188.10565	12762.8875
3190.42065	12744.4875
3192.73424	12699.0875
3195.04645	12677.4875
3197.35725	12696.5875
3199.66667	12688.3875
3201.97469	12674.0875
3204.28132	12678.6875
3206.58656	12664.0875
3208.8904	12654.9875
3211.19287	12674.6875
3213.49394	12668.1875
3215.79363	12659.4875
3218.09193	12648.4875
3220.38884	12608.0875
3222.68438	12619.5875
3224.97853	12576.2875
3227.2713	12573.1875
3229.56269	12589.4875
3231.8527	12533.8875
3234.14133	12497.2875
3236.42858	12463.4875
3238.71446	12471.3875
3240.99896	12431.4875
3243.28209	12424.8875
3245.56384	12400.5875
3247.84423	12386.3875
3250.12324	12362.8875
3252.40088	12361.9875
3254.67715	12333.9875
3256.95205	12295.8875
3259.22558	12290.1875
3261.49775	12251.3875
3263.76855	12244.9875
3266.03799	12183.1875
3268.30606	12176.3875
3270.57277	12169.6875
3272.83812	12151.1875
3275.10211	12127.5875
3277.36474	12143.2875
3279.62601	12123.5875
3281.88593	12077.7875
3284.14448	12088.9875
3286.40168	12083.8875
3288.65753	12069.6875
3290.91202	12032.2875
3293.16516	11993.4875
3295.41695	11974.4875
3297.66738	11895.6875
3299.91647	11856.3875
3302.16421	11781.1875
3304.4106	11705.1875
3306.65564	11642.1875
3308.89933	11555.1875
3311.14169	11457.8875
3313.38269	11420.3875
3315.62236	11304.5875
3317.86068	11210.1875
3320.09766	11096.8875
3322.3333	10979.8875
3324.5676	10983.1875
3326.80056	10788.3875
3329.03219	10727.3875
3331.26248	1.8875
3333.49143	-0.5125
3335.71905	-1.5125
