Data from AgNPs_FTO_APTES_UA_2uM_CRN_200uM_R6G_10uM_NaF_0.1M_Addition_RamanShift__16__16-37-35-369.txt Node

Date: Wed Feb 02 16:37:35 GMT 2022
User: TCL
Spectrometer: QEP01345
Trigger mode: 4
Integration Time (sec): 7.000000E0
Scans to average: 10
Electric dark correction enabled: true
Nonlinearity correction enabled: false
Boxcar width: 0
XAxis mode: Raman Shifts
Number of Pixels in Spectrum: 1044
>>>>>Begin Spectral Data<<<<<
46.04893	0.6875
50.45542	0.4875
54.85868	-0.6125
59.25871	-0.3125
63.6555	64.2875
68.04907	72.0875
72.43941	74.7875
76.82654	79.1875
81.21044	83.0875
85.59113	88.2875
89.96862	90.2875
94.34289	92.8875
98.71396	94.5875
103.08183	99.1875
107.4465	106.3875
111.80798	105.5875
116.16626	106.9875
120.52136	110.3875
124.87327	114.9875
129.222	117.3875
133.56755	129.1875
137.90993	132.2875
142.24913	146.6875
146.58517	166.7875
150.91804	186.0875
155.24774	222.1875
159.57429	276.5875
163.89768	351.4875
168.21792	459.2875
172.53501	622.4875
176.84895	862.9875
181.15975	1213.1875
185.46741	1692.0875
189.77193	2324.6875
194.07331	3106.6875
198.37157	4010.4875
202.6667	4952.0875
206.9587	5893.5875
211.24758	6802.0875
215.53334	7740.7875
219.81599	8673.8875
224.09553	9744.2875
228.37195	10909.0875
232.64527	12178.3875
236.91549	13490.6875
241.18261	14832.9875
245.44663	16130.4875
249.70755	17298.1875
253.96539	18360.6875
258.22014	19202.6875
262.4718	19929.5875
266.72039	20486.8875
270.96589	20775.4875
275.20832	20946.7875
279.44768	20987.4875
283.68397	20948.6875
287.91719	20888.8875
292.14735	20948.2875
296.37445	21034.1875
300.59849	21138.3875
304.81948	21144.1875
309.03742	20895.7875
313.25231	20520.2875
317.46415	19931.3875
321.67296	19212.9875
325.87872	18652.6875
330.08145	18347.2875
334.28114	18273.8875
338.47781	18296.6875
342.67145	18433.4875
346.86207	18672.3875
351.04966	18937.6875
355.23424	19202.1875
359.4158	19439.3875
363.59435	19513.5875
367.76989	19648.9875
371.94243	19710.8875
376.11196	19821.3875
380.27849	19889.4875
384.44203	20028.1875
388.60257	20203.7875
392.76012	20492.0875
396.91468	20762.6875
401.06626	21084.9875
405.21485	21281.6875
409.36047	21196.0875
413.50311	20916.5875
417.64277	20741.3875
421.77947	20744.7875
425.9132	20838.5875
430.04396	20982.9875
434.17176	21176.1875
438.2966	21331.0875
442.41849	21596.2875
446.53742	22158.1875
450.6534	22817.1875
454.76644	23341.0875
458.87653	23599.8875
462.98368	23603.4875
467.08789	23524.8875
471.18916	23381.5875
475.2875	23378.8875
479.38291	23536.0875
483.4754	23479.0875
487.56496	23163.6875
491.6516	22597.0875
495.73531	21956.6875
499.81612	21518.3875
503.89401	21504.8875
507.96899	21472.1875
512.04106	21368.7875
516.11023	21145.2875
520.1765	20837.5875
524.23987	20533.5875
528.30034	20284.7875
532.35792	20079.0875
536.41261	19890.0875
540.46441	19797.2875
544.51333	19936.4875
548.55936	20336.0875
552.60252	20912.0875
556.64279	21520.3875
560.6802	22095.9875
564.71473	22440.7875
568.7464	22925.6875
572.7752	23654.7875
576.80114	24235.6875
580.82422	24647.3875
584.84444	24865.6875
588.86181	25086.1875
592.87633	25161.9875
596.888	25040.4875
600.89682	24743.5875
604.9028	24941.6875
608.90594	26042.0875
612.90624	27000.4875
616.90371	25228.6875
620.89834	21662.8875
624.89015	20056.6875
628.87913	19976.5875
632.86528	20221.5875
636.84862	20353.3875
640.82913	20107.2875
644.80683	19611.5875
648.78172	19164.2875
652.75379	19017.6875
656.72306	19037.7875
660.68952	19222.3875
664.65319	19132.3875
668.61405	18913.1875
672.57211	18862.8875
676.52738	18903.4875
680.47986	18938.2875
684.42955	18932.4875
688.37646	18845.5875
692.32058	18850.3875
696.26192	19001.5875
700.20048	19198.1875
704.13626	19346.0875
708.06928	19445.2875
711.99952	19382.2875
715.927	19350.8875
719.85171	19331.3875
723.77365	19233.9875
727.69284	19030.1875
731.60928	18861.9875
735.52295	18719.8875
739.43388	18690.7875
743.34206	18711.3875
747.24749	18765.4875
751.15017	18996.4875
755.05012	19361.5875
758.94733	20042.8875
762.8418	21100.4875
766.73354	22634.1875
770.62254	23946.2875
774.50882	24029.5875
778.39237	22743.3875
782.27321	21112.9875
786.15132	19801.3875
790.02671	18999.5875
793.89938	18583.0875
797.76935	18444.4875
801.6366	18423.8875
805.50115	18406.9875
809.36299	18335.9875
813.22213	18210.5875
817.07857	18171.8875
820.93231	18151.8875
824.78336	18033.1875
828.63172	17879.6875
832.47738	17800.2875
836.32036	17787.8875
840.16066	17744.7875
843.99827	17736.7875
847.8332	17663.0875
851.66546	17633.0875
855.49504	17613.1875
859.32195	17615.3875
863.1462	17552.9875
866.96777	17525.4875
870.78668	17507.1875
874.60293	17462.4875
878.41652	17493.0875
882.22745	17479.7875
886.03573	17528.8875
889.84136	17499.2875
893.64433	17512.5875
897.44466	17444.8875
901.24235	17381.2875
905.0374	17275.7875
908.8298	17266.7875
912.61957	17325.2875
916.40671	17533.6875
920.19121	17806.8875
923.97308	17960.5875
927.75233	17877.6875
931.52895	17633.5875
935.30295	17354.7875
939.07433	17015.8875
942.84309	16734.0875
946.60924	16536.0875
950.37278	16464.6875
954.13371	16462.8875
957.89203	16479.9875
961.64774	16510.4875
965.40086	16503.3875
969.15137	16431.2875
972.89929	16286.2875
976.64461	16146.8875
980.38733	16097.7875
984.12747	16102.3875
987.86502	16165.0875
991.59999	16312.0875
995.33237	16438.2875
999.06217	16770.8875
1002.78939	17136.5875
1006.51404	17389.6875
1010.23611	17591.0875
1013.95561	17748.1875
1017.67255	17764.6875
1021.38692	17658.4875
1025.09872	17418.3875
1028.80796	17272.3875
1032.51465	17335.9875
1036.21877	17474.4875
1039.92035	17535.5875
1043.61937	17549.5875
1047.31584	17500.5875
1051.00976	17470.0875
1054.70114	17512.1875
1058.38998	17702.3875
1062.07627	17932.5875
1065.76003	18217.8875
1069.44126	18414.6875
1073.11995	18605.0875
1076.79611	18759.3875
1080.46974	18825.6875
1084.14085	18839.8875
1087.80943	19012.8875
1091.47549	19231.4875
1095.13903	19425.4875
1098.80005	19283.2875
1102.45857	18841.0875
1106.11456	18421.0875
1109.76805	18185.9875
1113.41903	18127.0875
1117.06751	18277.5875
1120.71348	18444.6875
1124.35696	18705.2875
1127.99793	19006.6875
1131.63641	19206.9875
1135.2724	19115.2875
1138.90589	19041.4875
1142.5369	19084.3875
1146.16542	19333.1875
1149.79145	19626.3875
1153.415	20001.3875
1157.03607	20495.7875
1160.65467	21149.2875
1164.27079	22177.2875
1167.88443	23464.1875
1171.49561	24883.5875
1175.10432	26728.8875
1178.71056	28910.5875
1182.31434	31046.7875
1185.91565	32226.8875
1189.51451	32406.3875
1193.11091	31985.8875
1196.70485	31152.9875
1200.29634	29907.5875
1203.88538	28853.9875
1207.47197	28235.0875
1211.05612	27806.0875
1214.63782	27284.3875
1218.21708	26475.4875
1221.79391	25703.3875
1225.36829	25064.8875
1228.94024	24487.9875
1232.50976	24011.7875
1236.07685	23622.3875
1239.6415	23448.0875
1243.20374	23456.8875
1246.76355	23621.8875
1250.32093	23898.8875
1253.8759	24399.3875
1257.42845	25098.5875
1260.97859	25864.1875
1264.52631	26474.0875
1268.07163	27192.4875
1271.61453	27912.1875
1275.15503	28798.3875
1278.69312	29750.7875
1282.22882	30696.3875
1285.76211	31778.9875
1289.29301	33147.1875
1292.82151	35073.2875
1296.34761	37361.7875
1299.87133	39825.4875
1303.39266	42176.7875
1306.9116	44205.6875
1310.42815	45761.2875
1313.94233	46748.7875
1317.45412	47069.2875
1320.96354	47004.1875
1324.47058	47048.3875
1327.97525	47162.1875
1331.47754	47163.6875
1334.97747	47161.2875
1338.47502	47001.9875
1341.97022	46566.7875
1345.46305	45709.4875
1348.95352	44488.4875
1352.44163	43128.0875
1355.92738	42335.9875
1359.41078	42295.7875
1362.89183	42491.7875
1366.37053	41636.1875
1369.84688	38969.0875
1373.32088	35637.1875
1376.79254	33374.9875
1380.26186	32813.5875
1383.72883	33126.1875
1387.19347	33755.6875
1390.65578	34125.7875
1394.11575	34543.0875
1397.57339	35199.3875
1401.0287	36012.9875
1404.48168	36562.6875
1407.93234	36369.2875
1411.38068	35289.4875
1414.82669	33569.7875
1418.27039	31511.1875
1421.71177	29570.7875
1425.15083	28020.2875
1428.58758	27141.7875
1432.02203	27078.9875
1435.45416	27767.9875
1438.88399	28790.1875
1442.31151	29764.9875
1445.73673	30638.5875
1449.15965	31427.6875
1452.58027	32182.3875
1455.9986	32687.7875
1459.41463	33105.8875
1462.82837	33555.6875
1466.23982	33927.5875
1469.64898	34114.2875
1473.05586	34157.3875
1476.46045	33895.6875
1479.86276	33333.2875
1483.26279	32672.2875
1486.66054	32093.1875
1490.05602	31897.5875
1493.44922	31952.8875
1496.84016	32093.4875
1500.22882	32547.2875
1503.61521	33334.4875
1506.99934	34367.9875
1510.38121	35252.9875
1513.76081	35645.3875
1517.13816	35280.1875
1520.51324	34539.6875
1523.88607	33862.8875
1527.25665	33638.8875
1530.62498	33729.5875
1533.99105	33800.0875
1537.35488	33558.0875
1540.71647	32996.4875
1544.07581	32147.4875
1547.4329	31128.5875
1550.78776	30287.0875
1554.14038	29674.6875
1557.49077	29379.1875
1560.83892	29297.5875
1564.18484	29286.2875
1567.52853	29358.4875
1570.86999	29590.7875
1574.20922	30177.4875
1577.54624	30933.4875
1580.88103	31514.4875
1584.2136	32187.4875
1587.54395	33238.2875
1590.87208	34670.3875
1594.19801	36323.5875
1597.52172	37874.0875
1600.84321	38065.2875
1604.16251	36393.7875
1607.47959	33534.4875
1610.79447	30439.3875
1614.10715	27544.6875
1617.41763	25213.4875
1620.7259	23496.3875
1624.03199	22514.0875
1627.33587	22376.9875
1630.63757	22991.9875
1633.93707	24601.9875
1637.23439	27241.8875
1640.52951	30977.4875
1643.82246	35266.2875
1647.11321	38622.4875
1650.40179	39441.9875
1653.68819	37013.5875
1656.97241	32353.3875
1660.25446	27371.9875
1663.53433	23416.6875
1666.81203	20679.8875
1670.08756	18837.1875
1673.36092	17694.8875
1676.63211	16940.5875
1679.90115	16448.8875
1683.16801	16080.2875
1686.43272	15783.5875
1689.69527	15591.1875
1692.95567	15434.4875
1696.2139	15331.0875
1699.46999	15221.8875
1702.72392	15136.2875
1705.97571	15044.9875
1709.22535	14959.3875
1712.47284	14878.6875
1715.71819	14826.5875
1718.96139	14735.0875
1722.20246	14696.5875
1725.44139	14604.6875
1728.67818	14543.6875
1731.91284	14445.1875
1735.14537	14344.9875
1738.37576	14277.2875
1741.60403	14226.6875
1744.83017	14192.0875
1748.05418	14183.9875
1751.27607	14148.0875
1754.49584	14150.6875
1757.71349	14129.0875
1760.92903	14098.6875
1764.14244	14078.0875
1767.35375	14015.3875
1770.56294	13957.7875
1773.77002	13914.4875
1776.97499	13843.6875
1780.17785	13823.9875
1783.37861	13796.9875
1786.57727	13745.8875
1789.77382	13699.8875
1792.96828	13665.6875
1796.16064	13610.2875
1799.3509	13592.2875
1802.53907	13574.3875
1805.72514	13517.4875
1808.90913	13461.4875
1812.09102	13451.9875
1815.27083	13413.7875
1818.44856	13377.3875
1821.6242	13350.1875
1824.79776	13358.2875
1827.96924	13339.4875
1831.13864	13304.6875
1834.30597	13314.8875
1837.47122	13291.6875
1840.6344	13300.7875
1843.7955	13299.8875
1846.95454	13325.0875
1850.11151	13290.0875
1853.26642	13296.9875
1856.41926	13255.4875
1859.57004	13229.4875
1862.71876	13231.5875
1865.86542	13212.9875
1869.01003	13179.0875
1872.15258	13168.1875
1875.29308	13144.3875
1878.43152	13142.7875
1881.56792	13093.3875
1884.70227	13096.0875
1887.83457	13118.4875
1890.96482	13102.9875
1894.09304	13081.5875
1897.21921	13055.4875
1900.34335	13031.9875
1903.46544	12993.1875
1906.58551	12992.0875
1909.70353	13010.5875
1912.81953	12952.7875
1915.93349	12891.6875
1919.04543	12889.1875
1922.15534	12853.1875
1925.26322	12811.4875
1928.36908	12792.4875
1931.47292	12761.5875
1934.57473	12716.5875
1937.67453	12696.3875
1940.77232	12666.7875
1943.86808	12626.2875
1946.96184	12595.2875
1950.05358	12564.1875
1953.14331	12477.6875
1956.23103	12435.3875
1959.31675	12403.8875
1962.40046	12372.4875
1965.48217	12344.5875
1968.56188	12295.3875
1971.63959	12232.9875
1974.7153	12207.8875
1977.78901	12176.1875
1980.86073	12121.4875
1983.93046	12088.9875
1986.99819	12022.9875
1990.06394	11988.0875
1993.1277	11998.4875
1996.18947	11917.4875
1999.24925	11894.1875
2002.30706	11847.6875
2005.36288	11798.1875
2008.41672	11790.6875
2011.46859	11740.8875
2014.51848	11697.9875
2017.56639	11672.3875
2020.61233	11623.5875
2023.6563	11606.8875
2026.6983	11600.6875
2029.73833	11569.6875
2032.7764	11543.2875
2035.8125	11539.6875
2038.84664	11485.0875
2041.87881	11491.8875
2044.90903	11434.3875
2047.93729	11426.5875
2050.96359	11431.8875
2053.98794	11406.3875
2057.01034	11414.7875
2060.03078	11389.4875
2063.04927	11376.8875
2066.06582	11371.7875
2069.08042	11351.7875
2072.09307	11337.2875
2075.10378	11336.6875
2078.11255	11329.3875
2081.11938	11314.7875
2084.12426	11297.9875
2087.12722	11282.7875
2090.12824	11285.8875
2093.12732	11263.8875
2096.12447	11280.5875
2099.11969	11279.8875
2102.11299	11281.3875
2105.10435	11294.8875
2108.09379	11306.5875
2111.08131	11280.7875
2114.0669	11277.8875
2117.05057	11300.7875
2120.03233	11296.5875
2123.01216	11324.2875
2125.99008	11318.1875
2128.96609	11311.3875
2131.94018	11295.2875
2134.91236	11287.6875
2137.88263	11307.7875
2140.851	11306.2875
2143.81746	11337.9875
2146.78201	11316.0875
2149.74466	11315.4875
2152.7054	11315.1875
2155.66425	11302.8875
2158.6212	11317.4875
2161.57625	11305.2875
2164.52941	11275.4875
2167.48067	11278.7875
2170.43004	11261.0875
2173.37752	11232.1875
2176.32311	11224.0875
2179.26681	11258.7875
2182.20863	11235.5875
2185.14856	11248.7875
2188.08661	11249.8875
2191.02278	11232.7875
2193.95707	11215.0875
2196.88948	11205.3875
2199.82001	11220.6875
2202.74867	11199.5875
2205.67545	11178.6875
2208.60037	11145.6875
2211.52341	11126.0875
2214.44458	11098.0875
2217.36388	11121.9875
2220.28132	11100.0875
2223.1969	11066.3875
2226.11061	11035.2875
2229.02246	11007.5875
2231.93245	10980.4875
2234.84058	10966.8875
2237.74686	10942.8875
2240.65128	10949.4875
2243.55385	10920.3875
2246.45456	10910.6875
2249.35343	10866.0875
2252.25044	10845.3875
2255.14561	10805.9875
2258.03893	10807.5875
2260.93041	10798.9875
2263.82004	10773.2875
2266.70783	10730.2875
2269.59378	10724.8875
2272.4779	10661.7875
2275.36017	10616.6875
2278.24061	10609.5875
2281.11922	10605.2875
2283.996	10577.4875
2286.87094	10553.8875
2289.74405	10544.5875
2292.61534	10541.4875
2295.4848	10511.1875
2298.35243	10534.5875
2301.21824	10506.9875
2304.08223	10510.5875
2306.94439	10509.2875
2309.80474	10470.1875
2312.66327	10454.5875
2315.51999	10484.7875
2318.37489	10434.3875
2321.22797	10453.1875
2324.07925	10439.3875
2326.92871	10422.9875
2329.77637	10426.1875
2332.62222	10409.3875
2335.46626	10391.7875
2338.3085	10372.7875
2341.14893	10369.8875
2343.98756	10371.9875
2346.8244	10356.1875
2349.65943	10354.1875
2352.49267	10354.2875
2355.32411	10388.7875
2358.15376	10374.8875
2360.98161	10350.2875
2363.80768	10334.5875
2366.63195	10336.1875
2369.45444	10334.0875
2372.27514	10294.8875
2375.09405	10290.7875
2377.91118	10280.9875
2380.72652	10258.6875
2383.54009	10236.5875
2386.35187	10219.8875
2389.16188	10164.4875
2391.97011	10153.0875
2394.77657	10135.6875
2397.58125	10139.7875
2400.38416	10096.6875
2403.18529	10103.9875
2405.98466	10072.1875
2408.78226	10063.5875
2411.57809	10063.4875
2414.37216	10030.4875
2417.16446	10047.4875
2419.955	10020.1875
2422.74378	10008.2875
2425.5308	10008.1875
2428.31606	9987.5875
2431.09956	9989.6875
2433.88131	9980.5875
2436.6613	9970.1875
2439.43954	9989.1875
2442.21603	9965.0875
2444.99077	9963.0875
2447.76377	9960.0875
2450.53501	9952.4875
2453.30451	9952.8875
2456.07226	9929.4875
2458.83827	9931.6875
2461.60254	9927.7875
2464.36507	9947.8875
2467.12586	9922.1875
2469.88492	9928.4875
2472.64224	9926.3875
2475.39782	9903.7875
2478.15167	9928.9875
2480.90379	9924.1875
2483.65417	9904.7875
2486.40283	9925.9875
2489.14976	9922.0875
2491.89497	9918.4875
2494.63845	9931.7875
2497.3802	9909.5875
2500.12024	9924.7875
2502.85855	9900.8875
2505.59514	9933.3875
2508.33002	9912.5875
2511.06318	9893.7875
2513.79462	9885.8875
2516.52435	9872.4875
2519.25237	9865.7875
2521.97867	9863.7875
2524.70327	9852.5875
2527.42616	9854.3875
2530.14734	9855.3875
2532.86681	9843.0875
2535.58458	9828.0875
2538.30065	9808.6875
2541.01501	9818.8875
2543.72768	9773.4875
2546.43864	9786.1875
2549.14791	9762.4875
2551.85548	9744.9875
2554.56136	9742.6875
2557.26554	9762.3875
2559.96803	9723.0875
2562.66883	9708.7875
2565.36794	9719.1875
2568.06536	9728.5875
2570.7611	9690.3875
2573.45514	9672.0875
2576.14751	9707.5875
2578.83819	9661.9875
2581.52719	9664.2875
2584.21451	9644.9875
2586.90015	9653.5875
2589.58411	9649.1875
2592.2664	9647.6875
2594.94701	9640.0875
2597.62594	9633.4875
2600.30321	9622.4875
2602.9788	9621.9875
2605.65273	9615.4875
2608.32498	9624.6875
2610.99557	9608.0875
2613.66449	9616.4875
2616.33175	9607.8875
2618.99734	9605.3875
2621.66128	9594.3875
2624.32355	9595.8875
2626.98416	9590.3875
2629.64311	9587.9875
2632.30041	9609.3875
2634.95605	9597.6875
2637.61004	9605.0875
2640.26238	9579.1875
2642.91306	9576.6875
2645.56209	9584.4875
2648.20948	9580.8875
2650.85521	9574.6875
2653.4993	9573.4875
2656.14175	9550.4875
2658.78255	9583.1875
2661.42171	9587.5875
2664.05923	9608.3875
2666.6951	9600.4875
2669.32934	9599.9875
2671.96194	9598.8875
2674.59291	9564.4875
2677.22224	9571.5875
2679.84993	9613.2875
2682.476	9571.7875
2685.10043	9585.6875
2687.72324	9565.7875
2690.34441	9575.9875
2692.96396	9596.6875
2695.58188	9601.6875
2698.19818	9545.3875
2700.81285	9562.5875
2703.4259	9582.4875
2706.03733	9634.4875
2708.64714	9609.1875
2711.25533	9620.9875
2713.86191	9610.2875
2716.46687	9603.7875
2719.07021	9611.3875
2721.67194	9647.0875
2724.27206	9616.4875
2726.87057	9622.5875
2729.46747	9642.9875
2732.06276	9626.0875
2734.65644	9630.8875
2737.24852	9615.7875
2739.83899	9615.3875
2742.42786	9637.4875
2745.01513	9597.7875
2747.60079	9591.0875
2750.18486	9587.2875
2752.76733	9604.0875
2755.3482	9604.4875
2757.92747	9619.4875
2760.50515	9617.0875
2763.08123	9632.6875
2765.65573	9602.8875
2768.22863	9607.8875
2770.79994	9584.4875
2773.36967	9602.3875
2775.9378	9600.8875
2778.50435	9610.2875
2781.06932	9589.7875
2783.6327	9603.6875
2786.1945	9585.6875
2788.75471	9591.4875
2791.31335	9592.2875
2793.87041	9557.9875
2796.42589	9536.6875
2798.97979	9544.9875
2801.53212	9519.7875
2804.08288	9535.3875
2806.63206	9507.7875
2809.17967	9488.9875
2811.72571	9449.6875
2814.27018	9448.3875
2816.81308	9434.5875
2819.35442	9393.2875
2821.89419	9384.2875
2824.43239	9383.0875
2826.96904	9370.2875
2829.50412	9361.9875
2832.03763	9361.7875
2834.56959	9366.7875
2837.1	9366.1875
2839.62884	9334.1875
2842.15613	9365.5875
2844.68186	9399.0875
2847.20604	9421.7875
2849.72867	9430.0875
2852.24974	9450.8875
2854.76927	9438.8875
2857.28724	9427.4875
2859.80367	9398.2875
2862.31855	9366.9875
2864.83189	9359.2875
2867.34368	9369.7875
2869.85393	9381.6875
2872.36264	9365.2875
2874.8698	9347.8875
2877.37543	9372.1875
2879.87952	9340.0875
2882.38207	9354.9875
2884.88308	9358.3875
2887.38256	9326.7875
2889.88051	9371.5875
2892.37692	9345.7875
2894.8718	9348.3875
2897.36515	9375.3875
2899.85698	9405.3875
2902.34727	9425.7875
2904.83604	9393.3875
2907.32328	9452.3875
2909.809	9423.3875
2912.29319	9421.3875
2914.77587	9419.5875
2917.25702	9425.3875
2919.73665	9411.6875
2922.21476	9424.3875
2924.69136	9413.7875
2927.16644	9413.3875
2929.64	9418.3875
2932.11205	9421.7875
2934.58258	9408.6875
2937.05161	9392.0875
2939.51912	9411.2875
2941.98513	9390.6875
2944.44962	9355.0875
2946.91261	9298.0875
2949.37409	9291.3875
2951.83407	9268.6875
2954.29254	9272.4875
2956.74951	9257.8875
2959.20498	9261.1875
2961.65895	9226.7875
2964.11142	9216.7875
2966.56239	9170.5875
2969.01186	9180.0875
2971.45984	9142.3875
2973.90632	9123.1875
2976.35131	9092.1875
2978.7948	9059.0875
2981.23681	9031.0875
2983.67732	9020.9875
2986.11635	9005.9875
2988.55388	8971.6875
2990.98993	8976.1875
2993.4245	8942.3875
2995.85758	8904.5875
2998.28917	8888.7875
3000.71928	8877.6875
3003.14791	8864.5875
3005.57506	8826.9875
3008.00073	8824.7875
3010.42493	8807.1875
3012.84764	8792.4875
3015.26888	8793.4875
3017.68865	8756.6875
3020.10694	8743.7875
3022.52376	8710.8875
3024.9391	8718.8875
3027.35298	8681.9875
3029.76539	8706.3875
3032.17632	8690.2875
3034.5858	8669.9875
3036.9938	8666.1875
3039.40034	8670.8875
3041.80542	8653.5875
3044.20903	8643.8875
3046.61118	8635.6875
3049.01187	8592.0875
3051.4111	8605.5875
3053.80888	8552.2875
3056.20519	8567.0875
3058.60005	8543.5875
3060.99345	8517.5875
3063.3854	8507.3875
3065.7759	8472.1875
3068.16494	8455.9875
3070.55254	8414.6875
3072.93868	8389.2875
3075.32338	8369.2875
3077.70662	8370.4875
3080.08842	8343.6875
3082.46878	8339.4875
3084.84769	8312.5875
3087.22515	8316.6875
3089.60118	8325.9875
3091.97576	8324.5875
3094.3489	8283.9875
3096.72061	8309.1875
3099.09087	8285.5875
3101.4597	8279.6875
3103.82709	8286.5875
3106.19305	8260.9875
3108.55757	8247.2875
3110.92066	8220.3875
3113.28232	8226.7875
3115.64255	8172.2875
3118.00134	8145.3875
3120.35871	8122.6875
3122.71466	8119.0875
3125.06917	8103.7875
3127.42226	8077.3875
3129.77393	8098.3875
3132.12417	8090.9875
3134.47299	8088.8875
3136.82039	8069.2875
3139.16636	8073.9875
3141.51092	8084.3875
3143.85406	8080.4875
3146.19579	8075.9875
3148.53609	8066.4875
3150.87499	8098.9875
3153.21246	8093.9875
3155.54853	8098.0875
3157.88318	8095.2875
3160.21642	8125.6875
3162.54826	8116.1875
3164.87868	8073.2875
3167.2077	8080.3875
3169.5353	8096.4875
3171.86151	8096.1875
3174.18631	8084.1875
3176.5097	8072.0875
3178.83169	8065.2875
3181.15228	8048.6875
3183.47147	8034.7875
3185.78926	8046.2875
3188.10565	8038.4875
3190.42065	8037.7875
3192.73424	8040.0875
3195.04645	8043.4875
3197.35725	8053.9875
3199.66667	8025.9875
3201.97469	8022.7875
3204.28132	8002.0875
3206.58656	8031.1875
3208.8904	8012.8875
3211.19287	8030.1875
3213.49394	8034.6875
3215.79363	8024.5875
3218.09193	8016.6875
3220.38884	8038.4875
3222.68438	8031.5875
3224.97853	8014.8875
3227.2713	7998.9875
3229.56269	7980.4875
3231.8527	8006.6875
3234.14133	7985.7875
3236.42858	7973.4875
3238.71446	7960.3875
3240.99896	7950.8875
3243.28209	7977.9875
3245.56384	7949.0875
3247.84423	7949.1875
3250.12324	7912.8875
3252.40088	7922.1875
3254.67715	7920.9875
3256.95205	7897.3875
3259.22558	7884.0875
3261.49775	7844.3875
3263.76855	7833.1875
3266.03799	7807.6875
3268.30606	7808.2875
3270.57277	7788.9875
3272.83812	7785.7875
3275.10211	7749.4875
3277.36474	7750.2875
3279.62601	7750.6875
3281.88593	7752.9875
3284.14448	7760.2875
3286.40168	7750.8875
3288.65753	7739.8875
3290.91202	7730.2875
3293.16516	7706.5875
3295.41695	7693.1875
3297.66738	7629.1875
3299.91647	7599.4875
3302.16421	7551.6875
3304.4106	7523.0875
3306.65564	7473.3875
3308.89933	7440.6875
3311.14169	7379.7875
3313.38269	7343.5875
3315.62236	7313.6875
3317.86068	7212.9875
3320.09766	7159.7875
3322.3333	7094.5875
3324.5676	7111.7875
3326.80056	6994.6875
3329.03219	6940.0875
3331.26248	0.9875
3333.49143	0.0875
3335.71905	-1.9125
