Data from AgNPs_FTO_APTES_UA_2uM_CRN_20uM_R6G_10uM_NaF_0.1M_Addition_RamanShift__2__14-00-05-185.txt Node

Date: Wed Feb 02 14:00:05 GMT 2022
User: TCL
Spectrometer: QEP01345
Trigger mode: 4
Integration Time (sec): 7.000000E0
Scans to average: 10
Electric dark correction enabled: true
Nonlinearity correction enabled: false
Boxcar width: 0
XAxis mode: Raman Shifts
Number of Pixels in Spectrum: 1044
>>>>>Begin Spectral Data<<<<<
46.04893	0.025
50.45542	-1.275
54.85868	-1.675
59.25871	-0.175
63.6555	107.325
68.04907	111.525
72.43941	113.025
76.82654	122.425
81.21044	125.325
85.59113	133.325
89.96862	136.125
94.34289	138.025
98.71396	144.825
103.08183	153.325
107.4465	155.825
111.80798	156.325
116.16626	162.425
120.52136	165.925
124.87327	173.625
129.222	181.925
133.56755	197.625
137.90993	208.025
142.24913	228.325
146.58517	261.225
150.91804	301.225
155.24774	359.825
159.57429	438.125
163.89768	566.125
168.21792	747.925
172.53501	1024.325
176.84895	1420.625
181.15975	2000.525
185.46741	2796.625
189.77193	3844.225
194.07331	5162.125
198.37157	6622.225
202.6667	8167.825
206.9587	9736.825
211.24758	11252.925
215.53334	12813.825
219.81599	14456.425
224.09553	16267.825
228.37195	18233.525
232.64527	20420.825
236.91549	22680.425
241.18261	24877.825
245.44663	26954.425
249.70755	28767.225
253.96539	30371.625
258.22014	31779.325
262.4718	32915.425
266.72039	33740.225
270.96589	34140.925
275.20832	34177.125
279.44768	33980.325
283.68397	33675.725
287.91719	33358.625
292.14735	33324.825
296.37445	33345.125
300.59849	33451.325
304.81948	33669.125
309.03742	33725.025
313.25231	33470.625
317.46415	32896.725
321.67296	32131.625
325.87872	31467.925
330.08145	31142.325
334.28114	31049.425
338.47781	31187.925
342.67145	31497.325
346.86207	31999.925
351.04966	32548.625
355.23424	33257.725
359.4158	33787.425
363.59435	34279.225
367.76989	34557.625
371.94243	34795.825
376.11196	34927.725
380.27849	35072.425
384.44203	35266.025
388.60257	35538.125
392.76012	35944.025
396.91468	36464.425
401.06626	37047.525
405.21485	37468.125
409.36047	37315.025
413.50311	37011.125
417.64277	36905.025
421.77947	37012.225
425.9132	37191.825
430.04396	37327.525
434.17176	37584.925
438.2966	37755.225
442.41849	38408.125
446.53742	39660.125
450.6534	41018.225
454.76644	42019.925
458.87653	42184.725
462.98368	41688.825
467.08789	40952.825
471.18916	40167.625
475.2875	39432.925
479.38291	39011.025
483.4754	38759.925
487.56496	38365.325
491.6516	37782.725
495.73531	37179.325
499.81612	36921.325
503.89401	37067.425
507.96899	37113.225
512.04106	36970.325
516.11023	36553.825
520.1765	36106.725
524.23987	35845.525
528.30034	35663.825
532.35792	35335.825
536.41261	34813.425
540.46441	34405.225
544.51333	34302.725
548.55936	34647.425
552.60252	35481.125
556.64279	36469.125
560.6802	37298.825
564.71473	37780.425
568.7464	38395.925
572.7752	39550.325
576.80114	40735.625
580.82422	42043.225
584.84444	43780.325
588.86181	45911.125
592.87633	47582.025
596.888	47221.925
600.89682	45096.825
604.9028	44464.125
608.90594	47204.225
612.90624	50155.325
616.90371	46959.025
620.89834	39754.625
624.89015	36467.325
628.87913	36029.825
632.86528	35991.025
636.84862	35611.925
640.82913	34857.425
644.80683	33952.425
648.78172	33428.525
652.75379	33487.125
656.72306	33899.525
660.68952	34433.725
664.65319	34209.725
668.61405	33596.425
672.57211	33444.125
676.52738	33648.325
680.47986	33578.725
684.42955	33348.525
688.37646	33153.425
692.32058	33465.525
696.26192	34058.325
700.20048	34716.225
704.13626	34981.125
708.06928	34860.925
711.99952	34682.825
715.927	34723.725
719.85171	35021.425
723.77365	34946.925
727.69284	34342.025
731.60928	33734.825
735.52295	33499.125
739.43388	33460.225
743.34206	33652.925
747.24749	33897.825
751.15017	34299.225
755.05012	34922.025
758.94733	35983.325
762.8418	37720.925
766.73354	40126.425
770.62254	42274.025
774.50882	42554.425
778.39237	40600.625
782.27321	37913.925
786.15132	35804.325
790.02671	34478.625
793.89938	33848.425
797.76935	33668.725
801.6366	33668.625
805.50115	33642.125
809.36299	33403.225
813.22213	33045.825
817.07857	32851.525
820.93231	32704.125
824.78336	32537.925
828.63172	32422.825
832.47738	32437.025
836.32036	32521.025
840.16066	32786.625
843.99827	32892.325
847.8332	32766.625
851.66546	32555.625
855.49504	32433.525
859.32195	32475.825
863.1462	32313.125
866.96777	32168.925
870.78668	32113.625
874.60293	32032.525
878.41652	32085.825
882.22745	32219.525
886.03573	32349.525
889.84136	32340.325
893.64433	32141.425
897.44466	31998.725
901.24235	31883.525
905.0374	31774.025
908.8298	31751.525
912.61957	31860.225
916.40671	32240.225
920.19121	32787.025
923.97308	33327.025
927.75233	33539.425
931.52895	33317.025
935.30295	32741.425
939.07433	32116.725
942.84309	31619.425
946.60924	31467.625
950.37278	31425.225
954.13371	31353.325
957.89203	31228.625
961.64774	31193.525
965.40086	31174.925
969.15137	31118.025
972.89929	30978.425
976.64461	30970.325
980.38733	31032.725
984.12747	31176.625
987.86502	31472.325
991.59999	31911.325
995.33237	32529.725
999.06217	33646.325
1002.78939	34966.625
1006.51404	35820.425
1010.23611	36253.525
1013.95561	36552.925
1017.67255	36527.725
1021.38692	36070.925
1025.09872	35565.825
1028.80796	35898.825
1032.51465	37167.425
1036.21877	38472.525
1039.92035	38890.525
1043.61937	38374.525
1047.31584	37188.625
1051.00976	35889.325
1054.70114	35184.225
1058.38998	34915.225
1062.07627	34976.025
1065.76003	35047.125
1069.44126	35357.925
1073.11995	35876.425
1076.79611	36418.525
1080.46974	36767.625
1084.14085	37053.525
1087.80943	37461.525
1091.47549	37789.225
1095.13903	37733.425
1098.80005	37147.825
1102.45857	36300.325
1106.11456	35620.725
1109.76805	35364.825
1113.41903	35387.525
1117.06751	35600.325
1120.71348	35860.825
1124.35696	36174.825
1127.99793	36617.525
1131.63641	36908.325
1135.2724	36858.525
1138.90589	36798.925
1142.5369	36984.525
1146.16542	37231.825
1149.79145	37575.725
1153.415	38052.125
1157.03607	38811.225
1160.65467	40180.025
1164.27079	42421.725
1167.88443	44987.925
1171.49561	47570.125
1175.10432	50753.525
1178.71056	54959.925
1182.31434	58934.825
1185.91565	60949.925
1189.51451	60477.325
1193.11091	58524.725
1196.70485	56317.825
1200.29634	54228.925
1203.88538	52789.225
1207.47197	52113.325
1211.05612	51444.225
1214.63782	50485.925
1218.21708	49228.425
1221.79391	48103.025
1225.36829	47236.625
1228.94024	46333.925
1232.50976	45328.525
1236.07685	44425.325
1239.6415	43947.525
1243.20374	44023.925
1246.76355	44536.425
1250.32093	45509.225
1253.8759	46715.525
1257.42845	48172.925
1260.97859	49672.425
1264.52631	51353.025
1268.07163	53001.525
1271.61453	54879.125
1275.15503	56814.025
1278.69312	58799.325
1282.22882	60729.225
1285.76211	62850.925
1289.29301	65267.725
1292.82151	68303.725
1296.34761	72391.425
1299.87133	77341.625
1303.39266	82693.125
1306.9116	87546.925
1310.42815	91020.125
1313.94233	92234.925
1317.45412	91136.425
1320.96354	88740.325
1324.47058	86565.225
1327.97525	85001.225
1331.47754	84000.825
1334.97747	83196.225
1338.47502	81914.425
1341.97022	79998.325
1345.46305	77512.925
1348.95352	75812.425
1352.44163	75880.725
1355.92738	78425.725
1359.41078	82801.125
1362.89183	86058.325
1366.37053	85079.425
1369.84688	78546.125
1373.32088	69606.125
1376.79254	63250.325
1380.26186	61188.925
1383.72883	61486.325
1387.19347	61695.425
1390.65578	61056.125
1394.11575	60743.925
1397.57339	61522.125
1401.0287	63037.125
1404.48168	64367.525
1407.93234	64665.825
1411.38068	63571.325
1414.82669	61554.225
1418.27039	58874.125
1421.71177	56110.825
1425.15083	53725.025
1428.58758	52702.025
1432.02203	53213.025
1435.45416	54985.625
1438.88399	57098.625
1442.31151	58611.725
1445.73673	59471.025
1449.15965	59915.025
1452.58027	59886.925
1455.9986	59343.425
1459.41463	59224.325
1462.82837	59807.825
1466.23982	61111.925
1469.64898	62429.625
1473.05586	63426.825
1476.46045	63870.825
1479.86276	63585.825
1483.26279	62905.225
1486.66054	62375.425
1490.05602	62452.825
1493.44922	62807.225
1496.84016	62879.725
1500.22882	63095.025
1503.61521	63713.325
1506.99934	64812.725
1510.38121	65948.225
1513.76081	66127.625
1517.13816	65152.925
1520.51324	63477.025
1523.88607	62251.925
1527.25665	62109.425
1530.62498	62361.425
1533.99105	62265.225
1537.35488	61748.825
1540.71647	60460.625
1544.07581	58881.025
1547.4329	57232.525
1550.78776	55676.625
1554.14038	54610.125
1557.49077	53836.625
1560.83892	53337.925
1564.18484	52928.525
1567.52853	52920.025
1570.86999	53309.825
1574.20922	54407.625
1577.54624	55484.125
1580.88103	56346.425
1584.2136	57785.625
1587.54395	60634.725
1590.87208	65012.225
1594.19801	70057.525
1597.52172	74358.725
1600.84321	74975.825
1604.16251	70836.725
1607.47959	63882.825
1610.79447	56678.925
1614.10715	50793.425
1617.41763	46513.725
1620.7259	43936.025
1624.03199	42808.425
1627.33587	43239.925
1630.63757	45000.725
1633.93707	48338.025
1637.23439	53725.825
1640.52951	61432.725
1643.82246	70441.725
1647.11321	77189.325
1650.40179	77406.625
1653.68819	70353.425
1656.97241	59719.925
1660.25446	50026.225
1663.53433	43190.725
1666.81203	38987.125
1670.08756	36337.725
1673.36092	34659.025
1676.63211	33607.825
1679.90115	32882.925
1683.16801	32323.725
1686.43272	31948.825
1689.69527	31647.425
1692.95567	31401.425
1696.2139	31268.025
1699.46999	31158.225
1702.72392	31055.925
1705.97571	30957.325
1709.22535	30867.425
1712.47284	30814.625
1715.71819	30772.725
1718.96139	30741.525
1722.20246	30632.525
1725.44139	30472.925
1728.67818	30301.425
1731.91284	30140.825
1735.14537	29911.125
1738.37576	29842.225
1741.60403	29737.325
1744.83017	29631.625
1748.05418	29566.525
1751.27607	29520.025
1754.49584	29457.625
1757.71349	29460.625
1760.92903	29402.925
1764.14244	29389.425
1767.35375	29393.125
1770.56294	29332.725
1773.77002	29299.425
1776.97499	29245.825
1780.17785	29197.225
1783.37861	29156.325
1786.57727	29116.325
1789.77382	29033.825
1792.96828	29044.525
1796.16064	28997.825
1799.3509	28950.925
1802.53907	28912.725
1805.72514	28814.325
1808.90913	28720.025
1812.09102	28697.725
1815.27083	28735.525
1818.44856	28674.925
1821.6242	28613.825
1824.79776	28608.225
1827.96924	28598.925
1831.13864	28619.925
1834.30597	28612.325
1837.47122	28592.525
1840.6344	28596.425
1843.7955	28603.025
1846.95454	28590.825
1850.11151	28614.925
1853.26642	28601.825
1856.41926	28576.725
1859.57004	28552.325
1862.71876	28586.725
1865.86542	28549.825
1869.01003	28522.025
1872.15258	28526.225
1875.29308	28493.825
1878.43152	28460.425
1881.56792	28480.025
1884.70227	28466.925
1887.83457	28469.925
1890.96482	28417.125
1894.09304	28379.425
1897.21921	28407.625
1900.34335	28343.025
1903.46544	28323.025
1906.58551	28292.125
1909.70353	28259.425
1912.81953	28183.725
1915.93349	28156.625
1919.04543	28060.825
1922.15534	28094.625
1925.26322	27998.125
1928.36908	27972.025
1931.47292	27878.725
1934.57473	27780.825
1937.67453	27752.325
1940.77232	27656.825
1943.86808	27619.225
1946.96184	27538.525
1950.05358	27453.925
1953.14331	27407.225
1956.23103	27382.625
1959.31675	27293.125
1962.40046	27236.625
1965.48217	27177.225
1968.56188	27121.425
1971.63959	26989.225
1974.7153	26980.925
1977.78901	26878.925
1980.86073	26790.125
1983.93046	26727.225
1986.99819	26613.625
1990.06394	26591.325
1993.1277	26530.525
1996.18947	26419.425
1999.24925	26389.425
2002.30706	26280.525
2005.36288	26199.125
2008.41672	26200.125
2011.46859	26093.725
2014.51848	26065.625
2017.56639	26060.325
2020.61233	26005.625
2023.6563	25947.525
2026.6983	25917.525
2029.73833	25888.925
2032.7764	25847.325
2035.8125	25764.325
2038.84664	25773.525
2041.87881	25783.825
2044.90903	25705.425
2047.93729	25707.525
2050.96359	25703.125
2053.98794	25673.125
2057.01034	25643.225
2060.03078	25629.525
2063.04927	25584.925
2066.06582	25577.025
2069.08042	25558.925
2072.09307	25555.325
2075.10378	25563.125
2078.11255	25491.925
2081.11938	25516.425
2084.12426	25493.425
2087.12722	25473.625
2090.12824	25440.725
2093.12732	25506.925
2096.12447	25518.425
2099.11969	25526.025
2102.11299	25551.925
2105.10435	25556.825
2108.09379	25566.725
2111.08131	25548.725
2114.0669	25582.125
2117.05057	25629.625
2120.03233	25641.625
2123.01216	25696.425
2125.99008	25702.225
2128.96609	25706.125
2131.94018	25709.625
2134.91236	25773.125
2137.88263	25826.225
2140.851	25817.725
2143.81746	25902.025
2146.78201	25865.025
2149.74466	25910.325
2152.7054	25893.825
2155.66425	25885.425
2158.6212	25879.025
2161.57625	25875.225
2164.52941	25866.325
2167.48067	25853.225
2170.43004	25854.725
2173.37752	25843.925
2176.32311	25871.325
2179.26681	25881.625
2182.20863	25889.825
2185.14856	25940.525
2188.08661	25943.325
2191.02278	25959.925
2193.95707	25953.425
2196.88948	25948.525
2199.82001	25982.025
2202.74867	25964.325
2205.67545	25975.725
2208.60037	25962.525
2211.52341	25938.625
2214.44458	25918.125
2217.36388	25921.025
2220.28132	25825.025
2223.1969	25808.825
2226.11061	25827.625
2229.02246	25772.425
2231.93245	25749.425
2234.84058	25727.125
2237.74686	25667.625
2240.65128	25639.425
2243.55385	25607.325
2246.45456	25564.325
2249.35343	25534.125
2252.25044	25520.525
2255.14561	25474.425
2258.03893	25465.225
2260.93041	25393.125
2263.82004	25297.725
2266.70783	25234.525
2269.59378	25178.125
2272.4779	25168.325
2275.36017	25116.225
2278.24061	25074.725
2281.11922	25056.825
2283.996	25038.425
2286.87094	25044.825
2289.74405	25002.425
2292.61534	24994.125
2295.4848	25005.825
2298.35243	25042.225
2301.21824	25063.425
2304.08223	25072.625
2306.94439	25145.525
2309.80474	25114.925
2312.66327	25131.725
2315.51999	25127.425
2318.37489	25125.325
2321.22797	25116.825
2324.07925	25084.125
2326.92871	25047.825
2329.77637	25128.225
2332.62222	25048.425
2335.46626	25045.625
2338.3085	25029.725
2341.14893	25072.425
2343.98756	25069.825
2346.8244	25086.625
2349.65943	25105.625
2352.49267	25079.325
2355.32411	25101.625
2358.15376	25052.225
2360.98161	25057.125
2363.80768	24973.525
2366.63195	24938.125
2369.45444	24907.225
2372.27514	24872.225
2375.09405	24858.125
2377.91118	24833.225
2380.72652	24770.025
2383.54009	24741.225
2386.35187	24753.525
2389.16188	24724.225
2391.97011	24713.325
2394.77657	24626.425
2397.58125	24621.725
2400.38416	24595.925
2403.18529	24563.325
2405.98466	24567.325
2408.78226	24487.225
2411.57809	24494.925
2414.37216	24459.725
2417.16446	24440.825
2419.955	24432.325
2422.74378	24443.625
2425.5308	24429.525
2428.31606	24413.125
2431.09956	24380.525
2433.88131	24332.925
2436.6613	24346.325
2439.43954	24375.725
2442.21603	24331.025
2444.99077	24356.325
2447.76377	24360.025
2450.53501	24293.125
2453.30451	24333.025
2456.07226	24319.925
2458.83827	24346.525
2461.60254	24368.725
2464.36507	24381.225
2467.12586	24387.425
2469.88492	24368.125
2472.64224	24398.825
2475.39782	24422.725
2478.15167	24513.325
2480.90379	24506.625
2483.65417	24457.825
2486.40283	24475.425
2489.14976	24512.025
2491.89497	24502.425
2494.63845	24585.825
2497.3802	24554.225
2500.12024	24568.425
2502.85855	24548.325
2505.59514	24532.825
2508.33002	24518.125
2511.06318	24556.525
2513.79462	24539.025
2516.52435	24476.825
2519.25237	24523.225
2521.97867	24531.625
2524.70327	24536.625
2527.42616	24497.325
2530.14734	24522.525
2532.86681	24459.025
2535.58458	24463.825
2538.30065	24443.225
2541.01501	24411.825
2543.72768	24384.025
2546.43864	24419.825
2549.14791	24370.025
2551.85548	24369.925
2554.56136	24413.225
2557.26554	24413.325
2559.96803	24385.025
2562.66883	24396.425
2565.36794	24379.725
2568.06536	24388.125
2570.7611	24409.425
2573.45514	24355.625
2576.14751	24371.125
2578.83819	24353.325
2581.52719	24385.225
2584.21451	24344.725
2586.90015	24357.125
2589.58411	24310.825
2592.2664	24343.625
2594.94701	24328.925
2597.62594	24394.125
2600.30321	24312.425
2602.9788	24305.425
2605.65273	24312.025
2608.32498	24318.025
2610.99557	24340.325
2613.66449	24353.825
2616.33175	24336.925
2618.99734	24334.825
2621.66128	24335.925
2624.32355	24354.125
2626.98416	24370.325
2629.64311	24374.125
2632.30041	24349.125
2634.95605	24363.625
2637.61004	24328.825
2640.26238	24262.925
2642.91306	24242.825
2645.56209	24224.425
2648.20948	24228.025
2650.85521	24209.525
2653.4993	24228.825
2656.14175	24249.625
2658.78255	24298.525
2661.42171	24268.625
2664.05923	24358.125
2666.6951	24376.325
2669.32934	24405.825
2671.96194	24435.225
2674.59291	24406.125
2677.22224	24378.125
2679.84993	24411.225
2682.476	24353.525
2685.10043	24388.025
2687.72324	24362.025
2690.34441	24377.725
2692.96396	24337.825
2695.58188	24347.125
2698.19818	24349.625
2700.81285	24357.925
2703.4259	24385.625
2706.03733	24446.425
2708.64714	24425.725
2711.25533	24443.925
2713.86191	24442.825
2716.46687	24445.525
2719.07021	24433.725
2721.67194	24508.025
2724.27206	24471.625
2726.87057	24538.425
2729.46747	24525.125
2732.06276	24529.025
2734.65644	24494.625
2737.24852	24530.625
2739.83899	24510.725
2742.42786	24535.825
2745.01513	24512.525
2747.60079	24559.725
2750.18486	24565.425
2752.76733	24578.725
2755.3482	24637.025
2757.92747	24615.325
2760.50515	24613.225
2763.08123	24604.825
2765.65573	24609.225
2768.22863	24604.425
2770.79994	24553.625
2773.36967	24560.025
2775.9378	24557.225
2778.50435	24551.525
2781.06932	24573.625
2783.6327	24611.325
2786.1945	24635.825
2788.75471	24554.025
2791.31335	24511.925
2793.87041	24494.325
2796.42589	24434.625
2798.97979	24468.325
2801.53212	24412.925
2804.08288	24424.925
2806.63206	24354.525
2809.17967	24366.025
2811.72571	24278.625
2814.27018	24279.225
2816.81308	24227.925
2819.35442	24203.225
2821.89419	24133.925
2824.43239	24200.425
2826.96904	24189.725
2829.50412	24175.725
2832.03763	24129.325
2834.56959	24106.925
2837.1	24118.325
2839.62884	24138.725
2842.15613	24072.225
2844.68186	24182.725
2847.20604	24160.225
2849.72867	24206.125
2852.24974	24178.125
2854.76927	24156.025
2857.28724	24121.725
2859.80367	24146.825
2862.31855	24118.825
2864.83189	24069.725
2867.34368	24000.725
2869.85393	24026.925
2872.36264	24016.325
2874.8698	24047.525
2877.37543	24035.025
2879.87952	24034.625
2882.38207	24082.225
2884.88308	24107.925
2887.38256	24123.025
2889.88051	24131.425
2892.37692	24164.225
2894.8718	24167.325
2897.36515	24219.425
2899.85698	24233.825
2902.34727	24275.325
2904.83604	24301.025
2907.32328	24308.025
2909.809	24285.125
2912.29319	24235.425
2914.77587	24221.425
2917.25702	24211.925
2919.73665	24204.925
2922.21476	24276.025
2924.69136	24276.325
2927.16644	24290.425
2929.64	24276.225
2932.11205	24284.025
2934.58258	24231.925
2937.05161	24253.925
2939.51912	24272.525
2941.98513	24237.625
2944.44962	24184.425
2946.91261	24078.625
2949.37409	24127.325
2951.83407	24143.325
2954.29254	24131.725
2956.74951	24089.325
2959.20498	24113.025
2961.65895	24071.025
2964.11142	24042.325
2966.56239	24023.925
2969.01186	24038.925
2971.45984	23977.025
2973.90632	23977.825
2976.35131	23902.025
2978.7948	23833.625
2981.23681	23790.425
2983.67732	23783.325
2986.11635	23697.725
2988.55388	23622.225
2990.98993	23620.125
2993.4245	23605.925
2995.85758	23511.025
2998.28917	23505.125
3000.71928	23503.825
3003.14791	23422.525
3005.57506	23429.025
3008.00073	23362.825
3010.42493	23404.225
3012.84764	23299.725
3015.26888	23346.225
3017.68865	23278.725
3020.10694	23241.125
3022.52376	23178.525
3024.9391	23135.225
3027.35298	23132.925
3029.76539	23072.225
3032.17632	23075.425
3034.5858	23029.725
3036.9938	23056.925
3039.40034	23023.525
3041.80542	23049.525
3044.20903	22996.325
3046.61118	23004.125
3049.01187	22964.925
3051.4111	22920.325
3053.80888	22911.425
3056.20519	22877.425
3058.60005	22809.125
3060.99345	22760.925
3063.3854	22739.025
3065.7759	22681.925
3068.16494	22631.525
3070.55254	22557.825
3072.93868	22508.825
3075.32338	22449.125
3077.70662	22461.225
3080.08842	22438.925
3082.46878	22420.425
3084.84769	22367.325
3087.22515	22388.825
3089.60118	22398.925
3091.97576	22333.025
3094.3489	22350.025
3096.72061	22323.425
3099.09087	22362.525
3101.4597	22296.325
3103.82709	22311.025
3106.19305	22247.325
3108.55757	22282.325
3110.92066	22205.025
3113.28232	22161.625
3115.64255	22120.525
3118.00134	22087.725
3120.35871	22059.825
3122.71466	22039.325
3125.06917	21995.425
3127.42226	21933.825
3129.77393	21959.125
3132.12417	21915.325
3134.47299	21924.225
3136.82039	21931.225
3139.16636	21899.325
3141.51092	21910.125
3143.85406	21915.025
3146.19579	21911.725
3148.53609	21910.625
3150.87499	21906.225
3153.21246	21887.425
3155.54853	21953.225
3157.88318	21856.525
3160.21642	21899.825
3162.54826	21890.125
3164.87868	21841.725
3167.2077	21855.625
3169.5353	21856.125
3171.86151	21854.425
3174.18631	21809.125
3176.5097	21837.425
3178.83169	21806.025
3181.15228	21812.425
3183.47147	21797.225
3185.78926	21756.025
3188.10565	21805.425
3190.42065	21815.425
3192.73424	21761.525
3195.04645	21754.625
3197.35725	21720.325
3199.66667	21715.425
3201.97469	21742.025
3204.28132	21728.325
3206.58656	21708.625
3208.8904	21738.025
3211.19287	21792.825
3213.49394	21808.625
3215.79363	21725.825
3218.09193	21698.025
3220.38884	21716.525
3222.68438	21779.425
3224.97853	21737.225
3227.2713	21712.525
3229.56269	21679.625
3231.8527	21666.825
3234.14133	21634.325
3236.42858	21625.925
3238.71446	21617.625
3240.99896	21574.025
3243.28209	21581.625
3245.56384	21569.625
3247.84423	21556.925
3250.12324	21502.925
3252.40088	21536.125
3254.67715	21501.925
3256.95205	21451.325
3259.22558	21480.025
3261.49775	21426.125
3263.76855	21385.025
3266.03799	21331.525
3268.30606	21321.825
3270.57277	21324.625
3272.83812	21290.425
3275.10211	21268.725
3277.36474	21250.125
3279.62601	21257.725
3281.88593	21214.125
3284.14448	21260.825
3286.40168	21246.625
3288.65753	21204.425
3290.91202	21195.925
3293.16516	21123.525
3295.41695	21105.925
3297.66738	20973.125
3299.91647	20915.125
3302.16421	20810.825
3304.4106	20724.525
3306.65564	20601.225
3308.89933	20485.725
3311.14169	20365.525
3313.38269	20237.025
3315.62236	20126.725
3317.86068	19990.925
3320.09766	19777.125
3322.3333	19571.825
3324.5676	19594.025
3326.80056	19280.325
3329.03219	19233.525
3331.26248	3.825
3333.49143	0.225
3335.71905	-1.275
