Data from AgNPs_FTO_APTES_UA_2uM_CRN_0uM_R6G_10uM_NaF_0.1M_Addition_RamanShift__5__10-10-14-917.txt Node

Date: Wed Feb 02 10:10:14 GMT 2022
User: TCL
Spectrometer: QEP01345
Trigger mode: 4
Integration Time (sec): 7.000000E0
Scans to average: 10
Electric dark correction enabled: true
Nonlinearity correction enabled: false
Boxcar width: 0
XAxis mode: Raman Shifts
Number of Pixels in Spectrum: 1044
>>>>>Begin Spectral Data<<<<<
46.04893	0.6625
50.45542	0.2625
54.85868	-0.0375
59.25871	0.4625
63.6555	29.5625
68.04907	26.9625
72.43941	32.4625
76.82654	38.0625
81.21044	40.2625
85.59113	41.9625
89.96862	43.3625
94.34289	45.5625
98.71396	45.7625
103.08183	49.0625
107.4465	49.5625
111.80798	48.3625
116.16626	47.2625
120.52136	49.4625
124.87327	49.0625
129.222	49.2625
133.56755	53.2625
137.90993	51.9625
142.24913	54.0625
146.58517	57.1625
150.91804	62.8625
155.24774	67.7625
159.57429	80.1625
163.89768	93.6625
168.21792	108.8625
172.53501	144.5625
176.84895	189.5625
181.15975	255.7625
185.46741	352.0625
189.77193	476.1625
194.07331	645.6625
198.37157	841.6625
202.6667	1055.0625
206.9587	1274.9625
211.24758	1485.7625
215.53334	1695.4625
219.81599	1927.1625
224.09553	2180.8625
228.37195	2457.1625
232.64527	2756.2625
236.91549	3074.5625
241.18261	3390.8625
245.44663	3688.4625
249.70755	3967.7625
253.96539	4180.4625
258.22014	4346.6625
262.4718	4458.7625
266.72039	4481.6625
270.96589	4435.5625
275.20832	4344.0625
279.44768	4218.7625
283.68397	4072.1625
287.91719	3918.0625
292.14735	3773.1625
296.37445	3656.8625
300.59849	3554.8625
304.81948	3492.6625
309.03742	3457.4625
313.25231	3420.8625
317.46415	3362.8625
321.67296	3302.1625
325.87872	3260.3625
330.08145	3218.9625
334.28114	3204.3625
338.47781	3202.1625
342.67145	3197.0625
346.86207	3211.7625
351.04966	3222.0625
355.23424	3226.1625
359.4158	3222.2625
363.59435	3189.2625
367.76989	3160.9625
371.94243	3140.0625
376.11196	3105.5625
380.27849	3074.4625
384.44203	3042.3625
388.60257	3020.0625
392.76012	3005.9625
396.91468	3013.1625
401.06626	3021.9625
405.21485	3026.6625
409.36047	3009.5625
413.50311	2973.9625
417.64277	2950.9625
421.77947	2949.7625
425.9132	2952.5625
430.04396	2966.8625
434.17176	3000.6625
438.2966	3024.5625
442.41849	3056.6625
446.53742	3093.7625
450.6534	3121.2625
454.76644	3157.2625
458.87653	3170.8625
462.98368	3178.0625
467.08789	3171.8625
471.18916	3145.5625
475.2875	3127.5625
479.38291	3096.9625
483.4754	3110.0625
487.56496	3093.4625
491.6516	3089.3625
495.73531	3078.0625
499.81612	3057.9625
503.89401	3060.4625
507.96899	3063.8625
512.04106	3095.1625
516.11023	3084.9625
520.1765	3077.1625
524.23987	3077.6625
528.30034	3060.4625
532.35792	3036.0625
536.41261	3028.4625
540.46441	2987.8625
544.51333	2982.5625
548.55936	2990.9625
552.60252	3011.4625
556.64279	3048.3625
560.6802	3070.5625
564.71473	3082.1625
568.7464	3087.2625
572.7752	3095.5625
576.80114	3092.2625
580.82422	3057.6625
584.84444	3081.6625
588.86181	3098.1625
592.87633	3146.8625
596.888	3196.8625
600.89682	3262.8625
604.9028	3395.1625
608.90594	3695.6625
612.90624	4097.0625
616.90371	4156.5625
620.89834	3736.1625
624.89015	3429.9625
628.87913	3255.5625
632.86528	3170.7625
636.84862	3099.2625
640.82913	3033.9625
644.80683	2986.9625
648.78172	2953.3625
652.75379	2974.1625
656.72306	2991.0625
660.68952	3050.5625
664.65319	3065.3625
668.61405	3059.7625
672.57211	3101.5625
676.52738	3187.6625
680.47986	3260.2625
684.42955	3323.8625
688.37646	3327.0625
692.32058	3324.5625
696.26192	3288.1625
700.20048	3280.2625
704.13626	3257.3625
708.06928	3256.1625
711.99952	3234.6625
715.927	3222.5625
719.85171	3191.1625
723.77365	3194.2625
727.69284	3163.8625
731.60928	3151.5625
735.52295	3120.2625
739.43388	3128.5625
743.34206	3119.4625
747.24749	3112.4625
751.15017	3123.3625
755.05012	3140.7625
758.94733	3170.4625
762.8418	3218.7625
766.73354	3357.9625
770.62254	3516.9625
774.50882	3597.2625
778.39237	3546.3625
782.27321	3404.8625
786.15132	3255.2625
790.02671	3175.7625
793.89938	3157.0625
797.76935	3144.1625
801.6366	3154.3625
805.50115	3148.7625
809.36299	3166.0625
813.22213	3142.5625
817.07857	3132.3625
820.93231	3131.3625
824.78336	3123.6625
828.63172	3121.8625
832.47738	3123.4625
836.32036	3112.3625
840.16066	3118.9625
843.99827	3132.5625
847.8332	3132.5625
851.66546	3124.4625
855.49504	3125.2625
859.32195	3121.5625
863.1462	3140.5625
866.96777	3153.8625
870.78668	3174.1625
874.60293	3207.4625
878.41652	3222.5625
882.22745	3254.6625
886.03573	3319.4625
889.84136	3367.0625
893.64433	3447.6625
897.44466	3499.0625
901.24235	3565.5625
905.0374	3629.8625
908.8298	3718.2625
912.61957	3840.1625
916.40671	3984.8625
920.19121	4144.3625
923.97308	4291.7625
927.75233	4380.2625
931.52895	4400.7625
935.30295	4305.4625
939.07433	4150.9625
942.84309	3980.6625
946.60924	3834.7625
950.37278	3740.4625
954.13371	3648.4625
957.89203	3563.8625
961.64774	3483.7625
965.40086	3419.0625
969.15137	3362.2625
972.89929	3307.4625
976.64461	3270.4625
980.38733	3229.2625
984.12747	3205.6625
987.86502	3194.1625
991.59999	3191.0625
995.33237	3178.3625
999.06217	3215.5625
1002.78939	3227.9625
1006.51404	3234.9625
1010.23611	3281.9625
1013.95561	3274.6625
1017.67255	3253.5625
1021.38692	3225.9625
1025.09872	3218.1625
1028.80796	3211.4625
1032.51465	3201.2625
1036.21877	3230.9625
1039.92035	3265.9625
1043.61937	3305.4625
1047.31584	3357.7625
1051.00976	3394.3625
1054.70114	3444.7625
1058.38998	3437.9625
1062.07627	3421.7625
1065.76003	3389.5625
1069.44126	3357.4625
1073.11995	3299.4625
1076.79611	3282.5625
1080.46974	3265.4625
1084.14085	3237.1625
1087.80943	3227.2625
1091.47549	3218.5625
1095.13903	3183.4625
1098.80005	3152.1625
1102.45857	3120.0625
1106.11456	3087.1625
1109.76805	3080.4625
1113.41903	3072.9625
1117.06751	3100.9625
1120.71348	3134.8625
1124.35696	3184.6625
1127.99793	3255.2625
1131.63641	3266.9625
1135.2724	3233.6625
1138.90589	3143.8625
1142.5369	3100.6625
1146.16542	3053.1625
1149.79145	3012.9625
1153.415	2998.4625
1157.03607	2981.5625
1160.65467	3005.7625
1164.27079	3054.1625
1167.88443	3115.3625
1171.49561	3188.2625
1175.10432	3345.0625
1178.71056	3546.5625
1182.31434	3770.7625
1185.91565	3906.5625
1189.51451	3945.8625
1193.11091	3885.4625
1196.70485	3779.2625
1200.29634	3640.1625
1203.88538	3507.2625
1207.47197	3375.9625
1211.05612	3274.0625
1214.63782	3219.8625
1218.21708	3213.9625
1221.79391	3209.4625
1225.36829	3255.1625
1228.94024	3283.4625
1232.50976	3306.4625
1236.07685	3306.6625
1239.6415	3280.5625
1243.20374	3268.2625
1246.76355	3264.1625
1250.32093	3268.3625
1253.8759	3293.3625
1257.42845	3322.9625
1260.97859	3373.2625
1264.52631	3420.6625
1268.07163	3475.5625
1271.61453	3529.4625
1275.15503	3590.4625
1278.69312	3617.9625
1282.22882	3640.1625
1285.76211	3712.4625
1289.29301	3797.7625
1292.82151	3876.8625
1296.34761	3972.5625
1299.87133	4089.9625
1303.39266	4191.2625
1306.9116	4327.0625
1310.42815	4494.2625
1313.94233	4557.4625
1317.45412	4511.3625
1320.96354	4403.3625
1324.47058	4268.5625
1327.97525	4169.5625
1331.47754	4116.7625
1334.97747	4121.2625
1338.47502	4153.0625
1341.97022	4212.5625
1345.46305	4279.0625
1348.95352	4402.4625
1352.44163	4564.6625
1355.92738	4795.8625
1359.41078	5070.8625
1362.89183	5372.2625
1366.37053	5449.5625
1369.84688	5200.4625
1373.32088	4868.4625
1376.79254	4638.7625
1380.26186	4527.7625
1383.72883	4507.4625
1387.19347	4498.5625
1390.65578	4504.1625
1394.11575	4483.0625
1397.57339	4468.7625
1401.0287	4450.0625
1404.48168	4410.2625
1407.93234	4349.1625
1411.38068	4285.9625
1414.82669	4209.1625
1418.27039	4149.9625
1421.71177	4074.3625
1425.15083	4013.4625
1428.58758	3943.4625
1432.02203	3898.0625
1435.45416	3856.3625
1438.88399	3859.6625
1442.31151	3828.1625
1445.73673	3808.0625
1449.15965	3785.8625
1452.58027	3761.9625
1455.9986	3717.9625
1459.41463	3716.0625
1462.82837	3713.5625
1466.23982	3736.2625
1469.64898	3753.0625
1473.05586	3765.5625
1476.46045	3783.1625
1479.86276	3808.6625
1483.26279	3818.6625
1486.66054	3843.2625
1490.05602	3876.1625
1493.44922	3917.1625
1496.84016	3989.7625
1500.22882	4114.4625
1503.61521	4262.9625
1506.99934	4461.4625
1510.38121	4643.4625
1513.76081	4710.9625
1517.13816	4578.4625
1520.51324	4354.7625
1523.88607	4094.9625
1527.25665	3931.2625
1530.62498	3833.1625
1533.99105	3764.9625
1537.35488	3721.9625
1540.71647	3677.2625
1544.07581	3639.7625
1547.4329	3594.1625
1550.78776	3559.6625
1554.14038	3541.5625
1557.49077	3538.1625
1560.83892	3532.4625
1564.18484	3528.4625
1567.52853	3546.1625
1570.86999	3548.3625
1574.20922	3568.7625
1577.54624	3552.6625
1580.88103	3493.7625
1584.2136	3415.8625
1587.54395	3334.4625
1590.87208	3315.7625
1594.19801	3308.5625
1597.52172	3372.1625
1600.84321	3376.6625
1604.16251	3329.2625
1607.47959	3266.6625
1610.79447	3215.3625
1614.10715	3148.0625
1617.41763	3080.3625
1620.7259	3044.2625
1624.03199	3006.7625
1627.33587	3005.4625
1630.63757	3016.1625
1633.93707	3034.7625
1637.23439	3092.2625
1640.52951	3161.2625
1643.82246	3281.9625
1647.11321	3411.0625
1650.40179	3491.7625
1653.68819	3429.3625
1656.97241	3194.6625
1660.25446	2950.7625
1663.53433	2752.5625
1666.81203	2626.6625
1670.08756	2526.9625
1673.36092	2458.2625
1676.63211	2403.4625
1679.90115	2371.3625
1683.16801	2339.7625
1686.43272	2288.4625
1689.69527	2270.2625
1692.95567	2244.6625
1696.2139	2212.6625
1699.46999	2201.9625
1702.72392	2177.4625
1705.97571	2160.2625
1709.22535	2149.9625
1712.47284	2152.5625
1715.71819	2135.7625
1718.96139	2123.7625
1722.20246	2132.9625
1725.44139	2112.2625
1728.67818	2101.6625
1731.91284	2085.2625
1735.14537	2080.8625
1738.37576	2078.3625
1741.60403	2055.2625
1744.83017	2055.6625
1748.05418	2055.0625
1751.27607	2055.3625
1754.49584	2052.1625
1757.71349	2062.1625
1760.92903	2053.7625
1764.14244	2043.6625
1767.35375	2035.2625
1770.56294	2009.5625
1773.77002	2010.3625
1776.97499	1985.0625
1780.17785	1983.1625
1783.37861	1983.7625
1786.57727	1984.8625
1789.77382	1971.5625
1792.96828	1964.9625
1796.16064	1947.3625
1799.3509	1947.4625
1802.53907	1932.6625
1805.72514	1933.6625
1808.90913	1932.9625
1812.09102	1926.0625
1815.27083	1923.4625
1818.44856	1917.1625
1821.6242	1916.2625
1824.79776	1911.4625
1827.96924	1907.4625
1831.13864	1902.4625
1834.30597	1894.6625
1837.47122	1899.3625
1840.6344	1904.4625
1843.7955	1891.3625
1846.95454	1899.4625
1850.11151	1884.1625
1853.26642	1890.5625
1856.41926	1888.6625
1859.57004	1876.0625
1862.71876	1875.9625
1865.86542	1878.7625
1869.01003	1869.8625
1872.15258	1867.2625
1875.29308	1861.5625
1878.43152	1861.3625
1881.56792	1863.2625
1884.70227	1853.9625
1887.83457	1849.1625
1890.96482	1837.8625
1894.09304	1838.1625
1897.21921	1841.5625
1900.34335	1829.6625
1903.46544	1829.2625
1906.58551	1834.4625
1909.70353	1832.1625
1912.81953	1839.4625
1915.93349	1829.2625
1919.04543	1816.7625
1922.15534	1813.2625
1925.26322	1814.3625
1928.36908	1817.0625
1931.47292	1818.2625
1934.57473	1803.1625
1937.67453	1792.0625
1940.77232	1795.4625
1943.86808	1797.6625
1946.96184	1783.3625
1950.05358	1782.0625
1953.14331	1780.8625
1956.23103	1772.0625
1959.31675	1769.4625
1962.40046	1759.3625
1965.48217	1759.3625
1968.56188	1744.5625
1971.63959	1742.0625
1974.7153	1744.4625
1977.78901	1738.8625
1980.86073	1728.3625
1983.93046	1718.9625
1986.99819	1724.0625
1990.06394	1707.0625
1993.1277	1709.7625
1996.18947	1699.3625
1999.24925	1691.2625
2002.30706	1683.6625
2005.36288	1681.3625
2008.41672	1677.4625
2011.46859	1674.8625
2014.51848	1674.0625
2017.56639	1670.0625
2020.61233	1654.1625
2023.6563	1660.6625
2026.6983	1651.5625
2029.73833	1645.6625
2032.7764	1648.9625
2035.8125	1638.5625
2038.84664	1638.9625
2041.87881	1655.4625
2044.90903	1637.1625
2047.93729	1637.2625
2050.96359	1658.8625
2053.98794	1662.4625
2057.01034	1659.1625
2060.03078	1657.0625
2063.04927	1666.3625
2066.06582	1671.0625
2069.08042	1687.6625
2072.09307	1703.9625
2075.10378	1698.5625
2078.11255	1716.1625
2081.11938	1726.5625
2084.12426	1738.2625
2087.12722	1743.4625
2090.12824	1753.5625
2093.12732	1763.5625
2096.12447	1773.3625
2099.11969	1776.4625
2102.11299	1779.5625
2105.10435	1784.5625
2108.09379	1788.3625
2111.08131	1790.8625
2114.0669	1783.4625
2117.05057	1779.0625
2120.03233	1768.4625
2123.01216	1774.5625
2125.99008	1759.3625
2128.96609	1744.8625
2131.94018	1733.4625
2134.91236	1733.9625
2137.88263	1710.6625
2140.851	1696.8625
2143.81746	1695.8625
2146.78201	1682.1625
2149.74466	1662.5625
2152.7054	1656.6625
2155.66425	1640.9625
2158.6212	1625.2625
2161.57625	1623.1625
2164.52941	1619.0625
2167.48067	1615.7625
2170.43004	1605.8625
2173.37752	1604.0625
2176.32311	1595.7625
2179.26681	1593.6625
2182.20863	1587.7625
2185.14856	1598.5625
2188.08661	1589.4625
2191.02278	1585.7625
2193.95707	1592.3625
2196.88948	1587.6625
2199.82001	1581.5625
2202.74867	1584.2625
2205.67545	1578.6625
2208.60037	1580.1625
2211.52341	1566.0625
2214.44458	1581.2625
2217.36388	1567.2625
2220.28132	1570.6625
2223.1969	1550.9625
2226.11061	1555.6625
2229.02246	1544.6625
2231.93245	1539.8625
2234.84058	1544.2625
2237.74686	1536.6625
2240.65128	1532.5625
2243.55385	1533.5625
2246.45456	1528.9625
2249.35343	1517.9625
2252.25044	1513.6625
2255.14561	1520.2625
2258.03893	1514.9625
2260.93041	1509.7625
2263.82004	1517.5625
2266.70783	1510.4625
2269.59378	1508.0625
2272.4779	1502.0625
2275.36017	1495.7625
2278.24061	1492.1625
2281.11922	1490.1625
2283.996	1498.4625
2286.87094	1484.2625
2289.74405	1481.1625
2292.61534	1471.5625
2295.4848	1474.6625
2298.35243	1461.1625
2301.21824	1469.4625
2304.08223	1472.8625
2306.94439	1466.2625
2309.80474	1460.8625
2312.66327	1457.4625
2315.51999	1456.8625
2318.37489	1455.3625
2321.22797	1454.4625
2324.07925	1463.5625
2326.92871	1463.4625
2329.77637	1455.4625
2332.62222	1454.5625
2335.46626	1458.5625
2338.3085	1445.6625
2341.14893	1440.5625
2343.98756	1437.4625
2346.8244	1441.7625
2349.65943	1434.3625
2352.49267	1440.8625
2355.32411	1440.8625
2358.15376	1430.4625
2360.98161	1433.0625
2363.80768	1433.6625
2366.63195	1421.3625
2369.45444	1422.7625
2372.27514	1430.7625
2375.09405	1419.0625
2377.91118	1418.9625
2380.72652	1418.1625
2383.54009	1405.8625
2386.35187	1409.8625
2389.16188	1406.4625
2391.97011	1399.3625
2394.77657	1390.9625
2397.58125	1389.0625
2400.38416	1389.5625
2403.18529	1387.8625
2405.98466	1383.2625
2408.78226	1381.4625
2411.57809	1391.0625
2414.37216	1379.0625
2417.16446	1373.8625
2419.955	1375.5625
2422.74378	1377.2625
2425.5308	1368.9625
2428.31606	1371.7625
2431.09956	1368.8625
2433.88131	1363.0625
2436.6613	1363.8625
2439.43954	1367.9625
2442.21603	1359.9625
2444.99077	1356.1625
2447.76377	1358.6625
2450.53501	1357.2625
2453.30451	1358.0625
2456.07226	1350.7625
2458.83827	1349.3625
2461.60254	1345.0625
2464.36507	1349.9625
2467.12586	1341.9625
2469.88492	1339.7625
2472.64224	1344.9625
2475.39782	1334.8625
2478.15167	1339.9625
2480.90379	1340.6625
2483.65417	1338.4625
2486.40283	1337.3625
2489.14976	1332.1625
2491.89497	1335.5625
2494.63845	1329.4625
2497.3802	1325.1625
2500.12024	1325.0625
2502.85855	1322.5625
2505.59514	1322.1625
2508.33002	1318.3625
2511.06318	1315.0625
2513.79462	1320.4625
2516.52435	1325.2625
2519.25237	1310.0625
2521.97867	1319.1625
2524.70327	1298.4625
2527.42616	1296.4625
2530.14734	1301.8625
2532.86681	1294.2625
2535.58458	1300.3625
2538.30065	1299.5625
2541.01501	1291.0625
2543.72768	1285.3625
2546.43864	1288.9625
2549.14791	1281.3625
2551.85548	1281.7625
2554.56136	1281.8625
2557.26554	1280.1625
2559.96803	1280.3625
2562.66883	1275.1625
2565.36794	1271.7625
2568.06536	1275.3625
2570.7611	1269.6625
2573.45514	1263.6625
2576.14751	1261.8625
2578.83819	1264.5625
2581.52719	1272.0625
2584.21451	1253.7625
2586.90015	1257.9625
2589.58411	1254.2625
2592.2664	1250.7625
2594.94701	1249.4625
2597.62594	1241.7625
2600.30321	1250.1625
2602.9788	1237.6625
2605.65273	1245.1625
2608.32498	1236.3625
2610.99557	1241.8625
2613.66449	1242.9625
2616.33175	1231.2625
2618.99734	1230.3625
2621.66128	1230.0625
2624.32355	1239.8625
2626.98416	1230.5625
2629.64311	1226.6625
2632.30041	1225.5625
2634.95605	1228.5625
2637.61004	1221.9625
2640.26238	1223.6625
2642.91306	1235.1625
2645.56209	1216.6625
2648.20948	1219.7625
2650.85521	1215.7625
2653.4993	1225.1625
2656.14175	1220.1625
2658.78255	1224.5625
2661.42171	1227.0625
2664.05923	1223.3625
2666.6951	1228.0625
2669.32934	1224.9625
2671.96194	1217.2625
2674.59291	1228.7625
2677.22224	1231.1625
2679.84993	1235.4625
2682.476	1226.8625
2685.10043	1232.6625
2687.72324	1236.1625
2690.34441	1228.0625
2692.96396	1227.8625
2695.58188	1230.4625
2698.19818	1228.4625
2700.81285	1238.5625
2703.4259	1229.3625
2706.03733	1217.7625
2708.64714	1234.8625
2711.25533	1233.2625
2713.86191	1230.9625
2716.46687	1246.0625
2719.07021	1229.2625
2721.67194	1233.1625
2724.27206	1242.1625
2726.87057	1240.0625
2729.46747	1249.1625
2732.06276	1236.5625
2734.65644	1239.2625
2737.24852	1242.9625
2739.83899	1248.7625
2742.42786	1242.0625
2745.01513	1237.8625
2747.60079	1237.1625
2750.18486	1242.4625
2752.76733	1241.0625
2755.3482	1234.7625
2757.92747	1239.0625
2760.50515	1246.9625
2763.08123	1241.8625
2765.65573	1232.4625
2768.22863	1231.0625
2770.79994	1235.3625
2773.36967	1240.5625
2775.9378	1229.4625
2778.50435	1239.0625
2781.06932	1233.4625
2783.6327	1230.2625
2786.1945	1234.2625
2788.75471	1225.0625
2791.31335	1225.6625
2793.87041	1232.1625
2796.42589	1224.3625
2798.97979	1225.4625
2801.53212	1230.9625
2804.08288	1225.1625
2806.63206	1215.8625
2809.17967	1209.8625
2811.72571	1222.9625
2814.27018	1219.2625
2816.81308	1221.3625
2819.35442	1219.6625
2821.89419	1210.8625
2824.43239	1216.8625
2826.96904	1220.0625
2829.50412	1218.8625
2832.03763	1210.9625
2834.56959	1219.0625
2837.1	1221.7625
2839.62884	1231.1625
2842.15613	1253.2625
2844.68186	1271.1625
2847.20604	1287.8625
2849.72867	1305.0625
2852.24974	1312.1625
2854.76927	1319.1625
2857.28724	1322.7625
2859.80367	1332.1625
2862.31855	1334.0625
2864.83189	1355.4625
2867.34368	1357.3625
2869.85393	1371.8625
2872.36264	1376.4625
2874.8698	1385.7625
2877.37543	1400.2625
2879.87952	1408.9625
2882.38207	1421.1625
2884.88308	1422.5625
2887.38256	1433.8625
2889.88051	1433.3625
2892.37692	1451.7625
2894.8718	1449.0625
2897.36515	1472.0625
2899.85698	1476.9625
2902.34727	1481.3625
2904.83604	1490.1625
2907.32328	1503.8625
2909.809	1508.8625
2912.29319	1508.5625
2914.77587	1518.9625
2917.25702	1518.6625
2919.73665	1521.5625
2922.21476	1528.8625
2924.69136	1545.0625
2927.16644	1535.0625
2929.64	1537.1625
2932.11205	1539.3625
2934.58258	1538.0625
2937.05161	1538.4625
2939.51912	1517.3625
2941.98513	1495.9625
2944.44962	1486.0625
2946.91261	1466.0625
2949.37409	1442.8625
2951.83407	1424.1625
2954.29254	1398.5625
2956.74951	1387.0625
2959.20498	1358.1625
2961.65895	1355.9625
2964.11142	1337.9625
2966.56239	1324.4625
2969.01186	1313.6625
2971.45984	1293.1625
2973.90632	1285.6625
2976.35131	1265.1625
2978.7948	1257.8625
2981.23681	1241.8625
2983.67732	1235.2625
2986.11635	1225.8625
2988.55388	1223.9625
2990.98993	1212.4625
2993.4245	1201.2625
2995.85758	1198.7625
2998.28917	1187.9625
3000.71928	1186.9625
3003.14791	1190.4625
3005.57506	1195.4625
3008.00073	1182.1625
3010.42493	1182.1625
3012.84764	1171.3625
3015.26888	1174.3625
3017.68865	1175.4625
3020.10694	1167.8625
3022.52376	1168.0625
3024.9391	1171.4625
3027.35298	1166.2625
3029.76539	1167.0625
3032.17632	1159.7625
3034.5858	1164.3625
3036.9938	1162.3625
3039.40034	1163.7625
3041.80542	1160.2625
3044.20903	1154.7625
3046.61118	1162.5625
3049.01187	1157.1625
3051.4111	1155.4625
3053.80888	1157.8625
3056.20519	1150.8625
3058.60005	1151.8625
3060.99345	1164.8625
3063.3854	1158.3625
3065.7759	1154.4625
3068.16494	1160.9625
3070.55254	1153.2625
3072.93868	1167.3625
3075.32338	1167.4625
3077.70662	1160.7625
3080.08842	1157.2625
3082.46878	1168.6625
3084.84769	1172.4625
3087.22515	1165.4625
3089.60118	1180.0625
3091.97576	1180.5625
3094.3489	1186.5625
3096.72061	1188.5625
3099.09087	1193.6625
3101.4597	1192.9625
3103.82709	1191.3625
3106.19305	1203.0625
3108.55757	1204.7625
3110.92066	1201.7625
3113.28232	1211.2625
3115.64255	1210.3625
3118.00134	1214.8625
3120.35871	1217.5625
3122.71466	1220.2625
3125.06917	1219.8625
3127.42226	1227.2625
3129.77393	1235.3625
3132.12417	1235.5625
3134.47299	1243.3625
3136.82039	1248.9625
3139.16636	1268.6625
3141.51092	1262.6625
3143.85406	1268.9625
3146.19579	1263.4625
3148.53609	1283.0625
3150.87499	1293.9625
3153.21246	1300.9625
3155.54853	1313.6625
3157.88318	1314.7625
3160.21642	1321.1625
3162.54826	1325.7625
3164.87868	1325.2625
3167.2077	1333.3625
3169.5353	1331.9625
3171.86151	1348.9625
3174.18631	1340.0625
3176.5097	1349.6625
3178.83169	1353.2625
3181.15228	1363.9625
3183.47147	1363.0625
3185.78926	1362.9625
3188.10565	1365.6625
3190.42065	1384.3625
3192.73424	1383.8625
3195.04645	1384.9625
3197.35725	1394.6625
3199.66667	1396.8625
3201.97469	1397.9625
3204.28132	1398.0625
3206.58656	1413.2625
3208.8904	1413.4625
3211.19287	1424.1625
3213.49394	1426.1625
3215.79363	1424.8625
3218.09193	1431.6625
3220.38884	1431.3625
3222.68438	1439.8625
3224.97853	1440.1625
3227.2713	1441.6625
3229.56269	1432.7625
3231.8527	1445.9625
3234.14133	1440.5625
3236.42858	1439.4625
3238.71446	1444.5625
3240.99896	1450.5625
3243.28209	1448.5625
3245.56384	1457.2625
3247.84423	1463.3625
3250.12324	1469.6625
3252.40088	1460.2625
3254.67715	1470.8625
3256.95205	1459.8625
3259.22558	1464.0625
3261.49775	1463.2625
3263.76855	1464.1625
3266.03799	1464.1625
3268.30606	1463.0625
3270.57277	1467.1625
3272.83812	1462.5625
3275.10211	1451.5625
3277.36474	1461.1625
3279.62601	1449.9625
3281.88593	1448.6625
3284.14448	1446.7625
3286.40168	1443.6625
3288.65753	1443.0625
3290.91202	1439.2625
3293.16516	1435.1625
3295.41695	1424.1625
3297.66738	1435.9625
3299.91647	1426.1625
3302.16421	1415.2625
3304.4106	1405.9625
3306.65564	1404.9625
3308.89933	1404.9625
3311.14169	1391.3625
3313.38269	1380.5625
3315.62236	1377.3625
3317.86068	1370.8625
3320.09766	1354.9625
3322.3333	1340.0625
3324.5676	1347.2625
3326.80056	1328.4625
3329.03219	1315.4625
3331.26248	-0.7375
3333.49143	-0.7375
3335.71905	-0.4375
