Data from AgNPs_FTO_APTES_UA_2uM_CRN_0uM_R6G_10uM_NaF_0.1M_Addition_RamanShift__16__10-23-04-933.txt Node

Date: Wed Feb 02 10:23:04 GMT 2022
User: TCL
Spectrometer: QEP01345
Trigger mode: 4
Integration Time (sec): 7.000000E0
Scans to average: 10
Electric dark correction enabled: true
Nonlinearity correction enabled: false
Boxcar width: 0
XAxis mode: Raman Shifts
Number of Pixels in Spectrum: 1044
>>>>>Begin Spectral Data<<<<<
46.04893	1.6
50.45542	-0.4
54.85868	-0.4
59.25871	1.1
63.6555	28
68.04907	34
72.43941	31.7
76.82654	40.3
81.21044	37.6
85.59113	40.8
89.96862	42.7
94.34289	46.9
98.71396	47.1
103.08183	49.7
107.4465	48.5
111.80798	49.5
116.16626	51.3
120.52136	53.3
124.87327	52.3
129.222	54.3
133.56755	58.2
137.90993	58.7
142.24913	67
146.58517	73.4
150.91804	83.4
155.24774	101
159.57429	121.3
163.89768	158
168.21792	200.1
172.53501	278
176.84895	374.2
181.15975	523.9
185.46741	729.2
189.77193	1010.6
194.07331	1358.8
198.37157	1741.3
202.6667	2179.9
206.9587	2587.3
211.24758	2998.5
215.53334	3413.9
219.81599	3855.5
224.09553	4342.3
228.37195	4896.1
232.64527	5475.2
236.91549	6052.5
241.18261	6612.5
245.44663	7071.2
249.70755	7485.1
253.96539	7772.8
258.22014	8060.8
262.4718	8288.7
266.72039	8426.7
270.96589	8501.8
275.20832	8444.2
279.44768	8324.1
283.68397	8137
287.91719	7960.3
292.14735	7879
296.37445	7944.2
300.59849	8142.3
304.81948	8423.1
309.03742	8632.9
313.25231	8684.5
317.46415	8424.5
321.67296	7947.6
325.87872	7516.5
330.08145	7333.2
334.28114	7286.7
338.47781	7354.6
342.67145	7496.4
346.86207	7697.4
351.04966	8026.1
355.23424	8448.9
359.4158	8772.9
363.59435	8977.4
367.76989	9018.1
371.94243	9040.8
376.11196	8993.1
380.27849	8975.2
384.44203	8916.4
388.60257	8815.7
392.76012	8771
396.91468	8784.9
401.06626	8918
405.21485	9024.2
409.36047	8905.4
413.50311	8482.7
417.64277	8060.5
421.77947	7861.5
425.9132	7741.3
430.04396	7761.7
434.17176	7782.6
438.2966	7854.2
442.41849	8019.3
446.53742	8193.9
450.6534	8340.5
454.76644	8435.2
458.87653	8416.8
462.98368	8300.2
467.08789	8198.8
471.18916	8080.6
475.2875	7922.9
479.38291	7802.8
483.4754	7723.5
487.56496	7668.7
491.6516	7640.7
495.73531	7652.2
499.81612	7685.5
503.89401	7764.1
507.96899	7868.3
512.04106	8013.3
516.11023	8124.6
520.1765	8268.6
524.23987	8268.1
528.30034	8182.1
532.35792	8039
536.41261	7893.4
540.46441	7755.8
544.51333	7640.9
548.55936	7643.9
552.60252	7722.7
556.64279	7869.9
560.6802	7951.6
564.71473	8018
568.7464	8225.4
572.7752	8347.5
576.80114	8132.1
580.82422	7816.4
584.84444	7685.6
588.86181	7751.7
592.87633	7900.5
596.888	8101.2
600.89682	8272.3
604.9028	8875.2
608.90594	10754.7
612.90624	13622.3
616.90371	13720
620.89834	10177.8
624.89015	8173.6
628.87913	7715.9
632.86528	7736.1
636.84862	7868.4
640.82913	7833.8
644.80683	7619.2
648.78172	7422.5
652.75379	7434.9
656.72306	7656.4
660.68952	7940.7
664.65319	7922.9
668.61405	7585.8
672.57211	7444.7
676.52738	7444.9
680.47986	7481.1
684.42955	7431.7
688.37646	7378.4
692.32058	7340
696.26192	7338.6
700.20048	7430.3
704.13626	7471.6
708.06928	7462.3
711.99952	7462.9
715.927	7431.7
719.85171	7478.4
723.77365	7491.3
727.69284	7461.9
731.60928	7400.4
735.52295	7380.5
739.43388	7400.2
743.34206	7396.9
747.24749	7414.8
751.15017	7410.9
755.05012	7472.6
758.94733	7650.4
762.8418	8186.9
766.73354	9292.2
770.62254	10619.9
774.50882	11470.3
778.39237	11201.3
782.27321	9902.9
786.15132	8606.8
790.02671	7808.3
793.89938	7443.9
797.76935	7274.9
801.6366	7229.8
805.50115	7157.1
809.36299	7137.3
813.22213	7081
817.07857	7051.9
820.93231	7034.5
824.78336	7027.3
828.63172	7046.4
832.47738	7041.4
836.32036	7049.9
840.16066	7020.7
843.99827	6992.9
847.8332	6999
851.66546	6988.6
855.49504	6975.5
859.32195	6968.8
863.1462	6932.4
866.96777	6900
870.78668	6923.9
874.60293	6941.2
878.41652	6946.5
882.22745	6984.8
886.03573	7004.5
889.84136	7025.3
893.64433	7012.2
897.44466	7011.9
901.24235	6974.6
905.0374	6978.2
908.8298	7000.2
912.61957	7030.2
916.40671	7088.9
920.19121	7153.3
923.97308	7244.1
927.75233	7366.8
931.52895	7443.4
935.30295	7371.2
939.07433	7179.1
942.84309	6983.3
946.60924	6848.8
950.37278	6726
954.13371	6658.5
957.89203	6590.6
961.64774	6566.5
965.40086	6508.5
969.15137	6472
972.89929	6412
976.64461	6391.8
980.38733	6359.2
984.12747	6355.9
987.86502	6352.2
991.59999	6361.3
995.33237	6417.7
999.06217	6470.4
1002.78939	6558.5
1006.51404	6631.3
1010.23611	6703.4
1013.95561	6760.4
1017.67255	6738.2
1021.38692	6654.6
1025.09872	6562.5
1028.80796	6478.1
1032.51465	6441.1
1036.21877	6447
1039.92035	6505.7
1043.61937	6550
1047.31584	6601.9
1051.00976	6657
1054.70114	6712.5
1058.38998	6700
1062.07627	6703.5
1065.76003	6671.8
1069.44126	6616.5
1073.11995	6592.3
1076.79611	6619.5
1080.46974	6678.3
1084.14085	6816.2
1087.80943	6976.1
1091.47549	7062.4
1095.13903	6952.7
1098.80005	6746.4
1102.45857	6539.5
1106.11456	6498.1
1109.76805	6520
1113.41903	6630.9
1117.06751	6795
1120.71348	7044.1
1124.35696	7303.5
1127.99793	7599.9
1131.63641	7655.5
1135.2724	7325.1
1138.90589	6909.7
1142.5369	6644.4
1146.16542	6458.8
1149.79145	6350.1
1153.415	6292.6
1157.03607	6297
1160.65467	6361.4
1164.27079	6559.9
1167.88443	6853.7
1171.49561	7361
1175.10432	8231.8
1178.71056	9450.3
1182.31434	10402
1185.91565	10610.5
1189.51451	10215.6
1193.11091	9566.5
1196.70485	8769.5
1200.29634	8199.5
1203.88538	7779.2
1207.47197	7274.9
1211.05612	6839.6
1214.63782	6578.8
1218.21708	6506.2
1221.79391	6553.1
1225.36829	6640.7
1228.94024	6634.6
1232.50976	6642.9
1236.07685	6579.8
1239.6415	6538.3
1243.20374	6461.9
1246.76355	6487.3
1250.32093	6477.4
1253.8759	6578.8
1257.42845	6673.6
1260.97859	6863.8
1264.52631	7075.3
1268.07163	7311.9
1271.61453	7517.2
1275.15503	7667.2
1278.69312	7707.5
1282.22882	7684
1285.76211	7783.9
1289.29301	8056.3
1292.82151	8349.7
1296.34761	8661.5
1299.87133	9061
1303.39266	9690.1
1306.9116	10751.6
1310.42815	12086.4
1313.94233	12994.6
1317.45412	12752.1
1320.96354	11722.5
1324.47058	10400
1327.97525	9334.6
1331.47754	8591.6
1334.97747	8263.4
1338.47502	8245.2
1341.97022	8401.7
1345.46305	8767.1
1348.95352	9490
1352.44163	10599.4
1355.92738	12090
1359.41078	14150.2
1362.89183	16453.3
1366.37053	16761.5
1369.84688	14260.6
1373.32088	11356.2
1376.79254	9486.7
1380.26186	8609.1
1383.72883	8234.5
1387.19347	7964
1390.65578	7694.6
1394.11575	7429
1397.57339	7247.1
1401.0287	7138.7
1404.48168	7111.3
1407.93234	7054.7
1411.38068	6993.6
1414.82669	6940.5
1418.27039	6900.4
1421.71177	6890.9
1425.15083	6812.6
1428.58758	6735.3
1432.02203	6725.6
1435.45416	6817
1438.88399	6873.4
1442.31151	6882.3
1445.73673	6857
1449.15965	6851
1452.58027	6815.9
1455.9986	6718.7
1459.41463	6634.8
1462.82837	6634.6
1466.23982	6698.4
1469.64898	6838.7
1473.05586	6952.4
1476.46045	6998.5
1479.86276	7076.6
1483.26279	7175.1
1486.66054	7330
1490.05602	7507.7
1493.44922	7820.7
1496.84016	8370.1
1500.22882	9292.8
1503.61521	10650.1
1506.99934	12291.1
1510.38121	13976.5
1513.76081	14929.5
1517.13816	14314
1520.51324	12353.6
1523.88607	10263.5
1527.25665	8832.8
1530.62498	8035.5
1533.99105	7595.5
1537.35488	7321.5
1540.71647	7114.5
1544.07581	6981.2
1547.4329	6934.5
1550.78776	6957.3
1554.14038	7015.7
1557.49077	7132.7
1560.83892	7292.9
1564.18484	7501.3
1567.52853	7798.8
1570.86999	8094.8
1574.20922	8306.9
1577.54624	8329.1
1580.88103	7953.4
1584.2136	7284.2
1587.54395	6809.3
1590.87208	6654.8
1594.19801	6827.4
1597.52172	7263.5
1600.84321	7553.7
1604.16251	7401.5
1607.47959	7025.4
1610.79447	6608.4
1614.10715	6208
1617.41763	5874.3
1620.7259	5693.5
1624.03199	5581.5
1627.33587	5569.1
1630.63757	5631.8
1633.93707	5817.1
1637.23439	6161.7
1640.52951	6723.4
1643.82246	7612.7
1647.11321	8776.5
1650.40179	9742
1653.68819	9729.7
1656.97241	8593.7
1660.25446	7101
1663.53433	6012
1666.81203	5392
1670.08756	5054.3
1673.36092	4828.5
1676.63211	4678
1679.90115	4605.4
1683.16801	4505.2
1686.43272	4441.2
1689.69527	4374.5
1692.95567	4346.6
1696.2139	4321.9
1699.46999	4293.5
1702.72392	4255.8
1705.97571	4243.6
1709.22535	4239
1712.47284	4230.2
1715.71819	4230.7
1718.96139	4215.6
1722.20246	4207.5
1725.44139	4177.5
1728.67818	4144
1731.91284	4104
1735.14537	4071.3
1738.37576	4035.7
1741.60403	4018.6
1744.83017	4006.3
1748.05418	3998.7
1751.27607	3960.2
1754.49584	3963.5
1757.71349	3938
1760.92903	3919.1
1764.14244	3900.5
1767.35375	3870.6
1770.56294	3852.8
1773.77002	3841.6
1776.97499	3817.2
1780.17785	3799.7
1783.37861	3811.4
1786.57727	3784.3
1789.77382	3775.5
1792.96828	3773.7
1796.16064	3748.9
1799.3509	3744.3
1802.53907	3726.7
1805.72514	3705.8
1808.90913	3687.1
1812.09102	3674.9
1815.27083	3650.9
1818.44856	3654.9
1821.6242	3635.6
1824.79776	3634.6
1827.96924	3617
1831.13864	3607.9
1834.30597	3595.7
1837.47122	3609.5
1840.6344	3580.3
1843.7955	3585.3
1846.95454	3580
1850.11151	3564.6
1853.26642	3567.5
1856.41926	3549.2
1859.57004	3556.6
1862.71876	3534.2
1865.86542	3539.6
1869.01003	3531.8
1872.15258	3538
1875.29308	3527.6
1878.43152	3525.4
1881.56792	3520.8
1884.70227	3502.4
1887.83457	3505.9
1890.96482	3502.5
1894.09304	3478.7
1897.21921	3496.6
1900.34335	3478.6
1903.46544	3485.6
1906.58551	3490.5
1909.70353	3466.4
1912.81953	3465.5
1915.93349	3461.8
1919.04543	3456
1922.15534	3432.5
1925.26322	3407.7
1928.36908	3408.8
1931.47292	3402
1934.57473	3371.5
1937.67453	3363.8
1940.77232	3350.3
1943.86808	3349
1946.96184	3314.4
1950.05358	3299.9
1953.14331	3285.5
1956.23103	3277.7
1959.31675	3260.7
1962.40046	3261.6
1965.48217	3255.2
1968.56188	3226.2
1971.63959	3216.7
1974.7153	3225.3
1977.78901	3203.4
1980.86073	3192.4
1983.93046	3177.2
1986.99819	3160.8
1990.06394	3162.4
1993.1277	3160.2
1996.18947	3118.9
1999.24925	3115.8
2002.30706	3108
2005.36288	3080.5
2008.41672	3067
2011.46859	3071.1
2014.51848	3056.5
2017.56639	3043.8
2020.61233	3022.3
2023.6563	3007.2
2026.6983	3018.8
2029.73833	3000.1
2032.7764	2988.8
2035.8125	2992.8
2038.84664	2967.7
2041.87881	2969
2044.90903	2964.3
2047.93729	2947.9
2050.96359	2945.4
2053.98794	2940.9
2057.01034	2924.3
2060.03078	2937.9
2063.04927	2928.8
2066.06582	2913.5
2069.08042	2915
2072.09307	2915.7
2075.10378	2911.5
2078.11255	2914.4
2081.11938	2918.2
2084.12426	2918
2087.12722	2898.4
2090.12824	2903.3
2093.12732	2905.5
2096.12447	2895
2099.11969	2895.4
2102.11299	2901.2
2105.10435	2904.3
2108.09379	2902
2111.08131	2894.4
2114.0669	2897.6
2117.05057	2887.4
2120.03233	2893.6
2123.01216	2873.9
2125.99008	2896.1
2128.96609	2882.2
2131.94018	2893.8
2134.91236	2879.9
2137.88263	2880.6
2140.851	2875
2143.81746	2882.3
2146.78201	2881.6
2149.74466	2864.2
2152.7054	2852.7
2155.66425	2863.2
2158.6212	2864.2
2161.57625	2853.6
2164.52941	2848.5
2167.48067	2838.6
2170.43004	2842.4
2173.37752	2824.5
2176.32311	2827.3
2179.26681	2834.1
2182.20863	2823.1
2185.14856	2851.7
2188.08661	2833.8
2191.02278	2834.7
2193.95707	2829.2
2196.88948	2822.8
2199.82001	2812.7
2202.74867	2810.8
2205.67545	2811.9
2208.60037	2802.4
2211.52341	2795.1
2214.44458	2792.3
2217.36388	2775.1
2220.28132	2758.3
2223.1969	2746.8
2226.11061	2741
2229.02246	2726.5
2231.93245	2731.3
2234.84058	2720.5
2237.74686	2726.4
2240.65128	2720.3
2243.55385	2714
2246.45456	2694.5
2249.35343	2698.2
2252.25044	2688.3
2255.14561	2689.3
2258.03893	2684.5
2260.93041	2685.7
2263.82004	2686.7
2266.70783	2678.5
2269.59378	2668.8
2272.4779	2670.3
2275.36017	2644.7
2278.24061	2647.2
2281.11922	2630.2
2283.996	2635.1
2286.87094	2627.3
2289.74405	2617.4
2292.61534	2596.7
2295.4848	2600.2
2298.35243	2587.2
2301.21824	2588.5
2304.08223	2571.7
2306.94439	2564.1
2309.80474	2569
2312.66327	2572.2
2315.51999	2570.8
2318.37489	2558.8
2321.22797	2549.7
2324.07925	2550
2326.92871	2547.1
2329.77637	2536.4
2332.62222	2539.4
2335.46626	2536.4
2338.3085	2521.9
2341.14893	2520.1
2343.98756	2528.3
2346.8244	2516.1
2349.65943	2522.6
2352.49267	2527.3
2355.32411	2520.6
2358.15376	2522.9
2360.98161	2526.3
2363.80768	2523.7
2366.63195	2527.3
2369.45444	2533.3
2372.27514	2543.7
2375.09405	2539.1
2377.91118	2511.9
2380.72652	2515.9
2383.54009	2503.6
2386.35187	2482.1
2389.16188	2469.9
2391.97011	2460
2394.77657	2441.5
2397.58125	2440.5
2400.38416	2428.9
2403.18529	2429.6
2405.98466	2416.2
2408.78226	2412.4
2411.57809	2412.1
2414.37216	2392.5
2417.16446	2395.2
2419.955	2400.7
2422.74378	2398.8
2425.5308	2387.9
2428.31606	2382
2431.09956	2396.1
2433.88131	2381.7
2436.6613	2373
2439.43954	2380.3
2442.21603	2384.8
2444.99077	2379.3
2447.76377	2377.3
2450.53501	2374
2453.30451	2385.1
2456.07226	2369.7
2458.83827	2369.6
2461.60254	2369.5
2464.36507	2369.8
2467.12586	2354.2
2469.88492	2351.1
2472.64224	2354.4
2475.39782	2353.7
2478.15167	2347.2
2480.90379	2349.8
2483.65417	2359.8
2486.40283	2360.1
2489.14976	2363.9
2491.89497	2362.8
2494.63845	2372.1
2497.3802	2361.8
2500.12024	2345.7
2502.85855	2355.7
2505.59514	2341
2508.33002	2340.2
2511.06318	2315.7
2513.79462	2302.7
2516.52435	2291.6
2519.25237	2291
2521.97867	2263.9
2524.70327	2262.6
2527.42616	2249.7
2530.14734	2256.9
2532.86681	2246.3
2535.58458	2244.2
2538.30065	2238.2
2541.01501	2232.3
2543.72768	2230.6
2546.43864	2226.2
2549.14791	2232
2551.85548	2232.5
2554.56136	2214.5
2557.26554	2222.4
2559.96803	2211.1
2562.66883	2224.1
2565.36794	2208.1
2568.06536	2208
2570.7611	2199.1
2573.45514	2202.6
2576.14751	2189.3
2578.83819	2198.7
2581.52719	2192.6
2584.21451	2182.1
2586.90015	2167.9
2589.58411	2174.4
2592.2664	2158.8
2594.94701	2159.7
2597.62594	2157.3
2600.30321	2146.2
2602.9788	2147.9
2605.65273	2141.2
2608.32498	2139.5
2610.99557	2130.2
2613.66449	2135.3
2616.33175	2126.2
2618.99734	2127.2
2621.66128	2141.4
2624.32355	2125.3
2626.98416	2123.3
2629.64311	2118.1
2632.30041	2120.4
2634.95605	2109.6
2637.61004	2102.3
2640.26238	2112.1
2642.91306	2090.8
2645.56209	2097.2
2648.20948	2085.6
2650.85521	2084.5
2653.4993	2094
2656.14175	2092.2
2658.78255	2094.5
2661.42171	2095.7
2664.05923	2101.3
2666.6951	2091.9
2669.32934	2092.7
2671.96194	2102.8
2674.59291	2124.6
2677.22224	2097.9
2679.84993	2115.9
2682.476	2103.5
2685.10043	2101.3
2687.72324	2098.2
2690.34441	2116
2692.96396	2110
2695.58188	2107
2698.19818	2104.4
2700.81285	2111
2703.4259	2101.8
2706.03733	2092.3
2708.64714	2112
2711.25533	2114.9
2713.86191	2124.5
2716.46687	2141.5
2719.07021	2132.9
2721.67194	2146.4
2724.27206	2142.5
2726.87057	2148.2
2729.46747	2148.1
2732.06276	2147.5
2734.65644	2149.9
2737.24852	2161.8
2739.83899	2170.3
2742.42786	2154.1
2745.01513	2161.7
2747.60079	2164.1
2750.18486	2169.2
2752.76733	2174.9
2755.3482	2174.3
2757.92747	2182.5
2760.50515	2178.7
2763.08123	2176.9
2765.65573	2167.4
2768.22863	2167.4
2770.79994	2159.4
2773.36967	2169.9
2775.9378	2175.7
2778.50435	2171.9
2781.06932	2185.8
2783.6327	2180
2786.1945	2174.8
2788.75471	2174.8
2791.31335	2172.6
2793.87041	2184.8
2796.42589	2177.3
2798.97979	2185.3
2801.53212	2191.5
2804.08288	2188.6
2806.63206	2195.6
2809.17967	2171.2
2811.72571	2191.4
2814.27018	2189
2816.81308	2188.1
2819.35442	2185.2
2821.89419	2206.1
2824.43239	2211.6
2826.96904	2193.8
2829.50412	2206.7
2832.03763	2205
2834.56959	2215.3
2837.1	2224.7
2839.62884	2257.6
2842.15613	2281.8
2844.68186	2342.8
2847.20604	2379
2849.72867	2432.6
2852.24974	2450
2854.76927	2460.6
2857.28724	2463.7
2859.80367	2474.2
2862.31855	2482.1
2864.83189	2490.4
2867.34368	2505.8
2869.85393	2508.7
2872.36264	2519.9
2874.8698	2530.2
2877.37543	2544.8
2879.87952	2551.3
2882.38207	2567.6
2884.88308	2553.8
2887.38256	2564
2889.88051	2574.7
2892.37692	2567.2
2894.8718	2567.4
2897.36515	2573.1
2899.85698	2575.9
2902.34727	2581.3
2904.83604	2580
2907.32328	2576.8
2909.809	2581.9
2912.29319	2573.9
2914.77587	2584.5
2917.25702	2581.9
2919.73665	2589.3
2922.21476	2579.4
2924.69136	2570.2
2927.16644	2563.2
2929.64	2556.2
2932.11205	2556.6
2934.58258	2536.7
2937.05161	2515
2939.51912	2488.9
2941.98513	2437
2944.44962	2401.8
2946.91261	2357.6
2949.37409	2321
2951.83407	2288.7
2954.29254	2243
2956.74951	2221.7
2959.20498	2193.2
2961.65895	2168.2
2964.11142	2143.2
2966.56239	2116.8
2969.01186	2098.9
2971.45984	2074
2973.90632	2057.6
2976.35131	2013.1
2978.7948	2008.7
2981.23681	1981.1
2983.67732	1979.4
2986.11635	1958.5
2988.55388	1942.1
2990.98993	1936.6
2993.4245	1917.5
2995.85758	1912.6
2998.28917	1902.9
3000.71928	1893
3003.14791	1885.2
3005.57506	1896.5
3008.00073	1871.2
3010.42493	1872.1
3012.84764	1867.3
3015.26888	1859
3017.68865	1852.5
3020.10694	1853.9
3022.52376	1849.2
3024.9391	1849.1
3027.35298	1830.8
3029.76539	1831.7
3032.17632	1822.4
3034.5858	1826.4
3036.9938	1822.3
3039.40034	1826.5
3041.80542	1824.3
3044.20903	1811.2
3046.61118	1816.5
3049.01187	1812.6
3051.4111	1795.8
3053.80888	1796.5
3056.20519	1793.9
3058.60005	1797.4
3060.99345	1801.8
3063.3854	1797.1
3065.7759	1798.8
3068.16494	1791.9
3070.55254	1788.1
3072.93868	1797.5
3075.32338	1782.4
3077.70662	1794.2
3080.08842	1782.4
3082.46878	1783
3084.84769	1788.9
3087.22515	1780.2
3089.60118	1785.2
3091.97576	1783.7
3094.3489	1784.3
3096.72061	1799.6
3099.09087	1798.2
3101.4597	1790.8
3103.82709	1802.3
3106.19305	1793.8
3108.55757	1802.5
3110.92066	1802.3
3113.28232	1798.3
3115.64255	1793.8
3118.00134	1795.4
3120.35871	1788.3
3122.71466	1798.4
3125.06917	1802
3127.42226	1800.4
3129.77393	1816.2
3132.12417	1817.7
3134.47299	1816.4
3136.82039	1827.4
3139.16636	1830.4
3141.51092	1838
3143.85406	1848.3
3146.19579	1844.7
3148.53609	1848.9
3150.87499	1859.4
3153.21246	1862.3
3155.54853	1885.6
3157.88318	1879.5
3160.21642	1892.3
3162.54826	1880.2
3164.87868	1891.9
3167.2077	1891.5
3169.5353	1889.2
3171.86151	1908.2
3174.18631	1896.5
3176.5097	1904.5
3178.83169	1912.1
3181.15228	1920.7
3183.47147	1901.6
3185.78926	1913.7
3188.10565	1924.8
3190.42065	1927.5
3192.73424	1934.5
3195.04645	1939.6
3197.35725	1941.7
3199.66667	1941.1
3201.97469	1946.5
3204.28132	1952.7
3206.58656	1951
3208.8904	1958.6
3211.19287	1970.5
3213.49394	1968.2
3215.79363	1975.7
3218.09193	1976.2
3220.38884	1980.2
3222.68438	1981.6
3224.97853	1977.2
3227.2713	1973.2
3229.56269	1981.8
3231.8527	1971.2
3234.14133	1975.8
3236.42858	1985.5
3238.71446	1982.9
3240.99896	1986.7
3243.28209	1986.1
3245.56384	1992.4
3247.84423	1998.3
3250.12324	2001.5
3252.40088	1998.3
3254.67715	2003.7
3256.95205	1999.2
3259.22558	2008.6
3261.49775	2004.6
3263.76855	2011.7
3266.03799	1999.2
3268.30606	2010.6
3270.57277	1999.6
3272.83812	1999.7
3275.10211	1995.2
3277.36474	1993.1
3279.62601	1988.3
3281.88593	1992.2
3284.14448	1994.9
3286.40168	1985
3288.65753	1994.2
3290.91202	1984.9
3293.16516	1979.6
3295.41695	1966.5
3297.66738	1953.6
3299.91647	1946.8
3302.16421	1940.4
3304.4106	1923.3
3306.65564	1925.8
3308.89933	1903.2
3311.14169	1900.5
3313.38269	1877
3315.62236	1873.5
3317.86068	1853.6
3320.09766	1838.4
3322.3333	1829.3
3324.5676	1824
3326.80056	1793.9
3329.03219	1779.1
3331.26248	-0.7
3333.49143	-0.4
3335.71905	-1.2
