Data from AgNPs_FTO_APTES_UA_2uM_CRN_5uM_R6G_10uM_NaF_0.1M_Addition_RamanShift__10__12-50-05-103.txt Node

Date: Wed Feb 02 12:50:05 GMT 2022
User: TCL
Spectrometer: QEP01345
Trigger mode: 4
Integration Time (sec): 7.000000E0
Scans to average: 10
Electric dark correction enabled: true
Nonlinearity correction enabled: false
Boxcar width: 0
XAxis mode: Raman Shifts
Number of Pixels in Spectrum: 1044
>>>>>Begin Spectral Data<<<<<
46.04893	0.1875
50.45542	0.1875
54.85868	-1.6125
59.25871	0.0875
63.6555	92.8875
68.04907	97.0875
72.43941	100.0875
76.82654	105.5875
81.21044	109.4875
85.59113	112.5875
89.96862	114.6875
94.34289	116.4875
98.71396	121.4875
103.08183	127.9875
107.4465	132.9875
111.80798	137.8875
116.16626	144.0875
120.52136	149.3875
124.87327	157.6875
129.222	167.3875
133.56755	180.1875
137.90993	197.3875
142.24913	224.7875
146.58517	255.6875
150.91804	301.8875
155.24774	370.1875
159.57429	471.6875
163.89768	612.2875
168.21792	818.9875
172.53501	1129.1875
176.84895	1588.5875
181.15975	2245.1875
185.46741	3125.5875
189.77193	4322.9875
194.07331	5788.5875
198.37157	7479.9875
202.6667	9198.3875
206.9587	10934.4875
211.24758	12634.4875
215.53334	14365.3875
219.81599	16116.0875
224.09553	18135.9875
228.37195	20293.6875
232.64527	22670.9875
236.91549	25200.2875
241.18261	27708.2875
245.44663	30175.6875
249.70755	32352.2875
253.96539	34215.1875
258.22014	35817.6875
262.4718	37157.6875
266.72039	38013.5875
270.96589	38380.4875
275.20832	38515.4875
279.44768	38274.9875
283.68397	37950.7875
287.91719	37683.7875
292.14735	37509.8875
296.37445	37421.2875
300.59849	37440.0875
304.81948	37517.1875
309.03742	37535.7875
313.25231	37343.0875
317.46415	36837.7875
321.67296	36152.1875
325.87872	35487.5875
330.08145	35152.9875
334.28114	35017.8875
338.47781	35204.6875
342.67145	35469.7875
346.86207	35910.6875
351.04966	36447.8875
355.23424	36965.8875
359.4158	37402.2875
363.59435	37788.5875
367.76989	38147.6875
371.94243	38255.1875
376.11196	38323.0875
380.27849	38312.8875
384.44203	38374.7875
388.60257	38666.1875
392.76012	39164.9875
396.91468	39852.2875
401.06626	40533.1875
405.21485	40902.1875
409.36047	40789.8875
413.50311	40399.4875
417.64277	40295.5875
421.77947	40560.1875
425.9132	40977.1875
430.04396	41228.3875
434.17176	41343.6875
438.2966	41377.3875
442.41849	41741.8875
446.53742	42518.3875
450.6534	43487.3875
454.76644	44123.2875
458.87653	44348.8875
462.98368	44292.9875
467.08789	44097.8875
471.18916	43526.0875
475.2875	43067.6875
479.38291	42832.3875
483.4754	42672.4875
487.56496	42295.5875
491.6516	41735.6875
495.73531	41158.4875
499.81612	40736.7875
503.89401	40834.9875
507.96899	41095.1875
512.04106	41179.6875
516.11023	40938.9875
520.1765	40420.3875
524.23987	39858.5875
528.30034	39330.5875
532.35792	38904.8875
536.41261	38474.5875
540.46441	38215.7875
544.51333	38218.5875
548.55936	38744.1875
552.60252	39533.3875
556.64279	40333.0875
560.6802	41048.7875
564.71473	41605.5875
568.7464	42542.4875
572.7752	44134.5875
576.80114	46092.8875
580.82422	48176.2875
584.84444	50192.0875
588.86181	52636.2875
592.87633	54734.4875
596.888	54208.6875
600.89682	51056.0875
604.9028	49245.0875
608.90594	50380.3875
612.90624	51603.0875
616.90371	48233.2875
620.89834	42237.3875
624.89015	39794.1875
628.87913	39835.0875
632.86528	40294.6875
636.84862	40165.4875
640.82913	39343.3875
644.80683	38271.8875
648.78172	37697.1875
652.75379	37674.1875
656.72306	38054.5875
660.68952	38419.6875
664.65319	38195.6875
668.61405	37713.1875
672.57211	37587.7875
676.52738	37774.4875
680.47986	37707.9875
684.42955	37457.3875
688.37646	37350.5875
692.32058	37571.0875
696.26192	38049.1875
700.20048	38624.3875
704.13626	39005.3875
708.06928	39175.1875
711.99952	39145.6875
715.927	39042.8875
719.85171	38958.9875
723.77365	38643.2875
727.69284	37986.2875
731.60928	37345.6875
735.52295	37050.0875
739.43388	37005.7875
743.34206	37115.5875
747.24749	37380.6875
751.15017	37926.5875
755.05012	38694.6875
758.94733	39899.6875
762.8418	41582.1875
766.73354	43980.3875
770.62254	45940.8875
774.50882	45781.5875
778.39237	43691.0875
782.27321	41237.0875
786.15132	39304.7875
790.02671	38055.1875
793.89938	37350.4875
797.76935	37031.9875
801.6366	36908.7875
805.50115	36813.7875
809.36299	36597.6875
813.22213	36385.9875
817.07857	36253.9875
820.93231	36163.3875
824.78336	35904.6875
828.63172	35690.4875
832.47738	35511.7875
836.32036	35474.5875
840.16066	35468.7875
843.99827	35459.6875
847.8332	35440.2875
851.66546	35535.1875
855.49504	35549.9875
859.32195	35582.3875
863.1462	35496.5875
866.96777	35374.3875
870.78668	35410.2875
874.60293	35361.1875
878.41652	35403.8875
882.22745	35552.7875
886.03573	35584.4875
889.84136	35651.0875
893.64433	35561.8875
897.44466	35469.8875
901.24235	35359.7875
905.0374	35298.4875
908.8298	35355.1875
912.61957	35435.0875
916.40671	35875.2875
920.19121	36498.5875
923.97308	36962.7875
927.75233	36856.1875
931.52895	36330.4875
935.30295	35635.9875
939.07433	34874.9875
942.84309	34326.5875
946.60924	34079.1875
950.37278	33898.3875
954.13371	33954.7875
957.89203	33943.8875
961.64774	33989.7875
965.40086	33987.4875
969.15137	33875.3875
972.89929	33720.2875
976.64461	33508.4875
980.38733	33404.3875
984.12747	33399.9875
987.86502	33447.0875
991.59999	33603.7875
995.33237	33840.2875
999.06217	34261.0875
1002.78939	34869.9875
1006.51404	35532.3875
1010.23611	36346.7875
1013.95561	36758.1875
1017.67255	36764.1875
1021.38692	36417.3875
1025.09872	35808.2875
1028.80796	35246.5875
1032.51465	35043.5875
1036.21877	35156.0875
1039.92035	35344.8875
1043.61937	35500.5875
1047.31584	35583.6875
1051.00976	35671.0875
1054.70114	35861.3875
1058.38998	36161.3875
1062.07627	36570.1875
1065.76003	37201.1875
1069.44126	37836.3875
1073.11995	38497.0875
1076.79611	39119.7875
1080.46974	39328.0875
1084.14085	39557.1875
1087.80943	39937.4875
1091.47549	40389.4875
1095.13903	40583.9875
1098.80005	40210.4875
1102.45857	39076.4875
1106.11456	38134.1875
1109.76805	37534.1875
1113.41903	37277.2875
1117.06751	37295.3875
1120.71348	37591.9875
1124.35696	37986.1875
1127.99793	38379.0875
1131.63641	38726.7875
1135.2724	38833.1875
1138.90589	38819.5875
1142.5369	39092.6875
1146.16542	39518.1875
1149.79145	40081.5875
1153.415	40575.4875
1157.03607	41279.3875
1160.65467	42531.7875
1164.27079	44562.6875
1167.88443	46945.8875
1171.49561	49336.7875
1175.10432	51961.4875
1178.71056	55100.2875
1182.31434	58130.5875
1185.91565	59900.5875
1189.51451	60046.9875
1193.11091	59292.5875
1196.70485	57745.4875
1200.29634	55812.7875
1203.88538	54392.4875
1207.47197	54032.8875
1211.05612	54045.6875
1214.63782	53552.4875
1218.21708	51972.5875
1221.79391	49931.9875
1225.36829	48211.9875
1228.94024	47188.7875
1232.50976	46535.8875
1236.07685	46101.7875
1239.6415	45820.1875
1243.20374	45775.7875
1246.76355	46127.2875
1250.32093	46682.4875
1253.8759	47717.0875
1257.42845	49034.8875
1260.97859	50588.6875
1264.52631	52181.2875
1268.07163	53713.9875
1271.61453	55330.4875
1275.15503	56945.8875
1278.69312	58777.5875
1282.22882	60882.0875
1285.76211	63475.7875
1289.29301	66162.8875
1292.82151	69350.2875
1296.34761	72988.2875
1299.87133	77011.9875
1303.39266	80749.6875
1306.9116	83729.6875
1310.42815	85451.1875
1313.94233	85738.5875
1317.45412	85189.3875
1320.96354	84564.4875
1324.47058	84465.6875
1327.97525	84792.0875
1331.47754	85000.9875
1334.97747	84770.8875
1338.47502	84203.5875
1341.97022	83297.0875
1345.46305	82200.4875
1348.95352	80940.7875
1352.44163	79710.1875
1355.92738	79377.0875
1359.41078	80421.7875
1362.89183	81638.0875
1366.37053	80507.2875
1369.84688	75985.9875
1373.32088	69203.8875
1376.79254	63950.3875
1380.26186	62182.4875
1383.72883	62624.4875
1387.19347	63045.1875
1390.65578	62598.4875
1394.11575	62333.5875
1397.57339	62896.3875
1401.0287	63930.5875
1404.48168	64799.3875
1407.93234	64358.6875
1411.38068	62533.6875
1414.82669	60052.9875
1418.27039	57320.0875
1421.71177	54699.8875
1425.15083	52855.6875
1428.58758	52083.1875
1432.02203	52654.0875
1435.45416	54242.9875
1438.88399	56072.7875
1442.31151	57425.8875
1445.73673	58121.6875
1449.15965	58603.5875
1452.58027	58806.4875
1455.9986	58847.8875
1459.41463	59317.9875
1462.82837	60232.0875
1466.23982	61157.6875
1469.64898	61939.8875
1473.05586	62345.4875
1476.46045	62336.2875
1479.86276	61800.8875
1483.26279	61136.5875
1486.66054	60848.6875
1490.05602	61094.0875
1493.44922	61945.4875
1496.84016	62800.9875
1500.22882	63726.4875
1503.61521	64810.0875
1506.99934	65932.7875
1510.38121	66662.5875
1513.76081	66793.9875
1517.13816	66578.4875
1520.51324	66237.8875
1523.88607	66393.2875
1527.25665	66932.0875
1530.62498	67274.8875
1533.99105	66671.4875
1537.35488	65336.5875
1540.71647	63386.6875
1544.07581	61046.7875
1547.4329	58905.7875
1550.78776	57197.1875
1554.14038	55986.8875
1557.49077	55369.2875
1560.83892	54933.0875
1564.18484	54680.6875
1567.52853	54607.9875
1570.86999	54990.8875
1574.20922	56108.0875
1577.54624	57527.7875
1580.88103	58507.2875
1584.2136	59737.6875
1587.54395	61977.9875
1590.87208	65144.6875
1594.19801	68522.9875
1597.52172	71254.9875
1600.84321	70997.5875
1604.16251	67068.0875
1607.47959	61480.8875
1610.79447	56100.3875
1614.10715	51248.9875
1617.41763	47408.3875
1620.7259	44718.2875
1624.03199	43409.8875
1627.33587	43493.2875
1630.63757	44980.1875
1633.93707	48271.5875
1637.23439	53832.8875
1640.52951	61896.4875
1643.82246	71333.1875
1647.11321	78487.9875
1650.40179	79085.5875
1653.68819	72567.0875
1656.97241	62210.9875
1660.25446	52415.8875
1663.53433	45115.3875
1666.81203	40372.5875
1670.08756	37433.6875
1673.36092	35558.2875
1676.63211	34330.0875
1679.90115	33487.7875
1683.16801	32873.0875
1686.43272	32424.1875
1689.69527	32047.6875
1692.95567	31773.9875
1696.2139	31570.3875
1699.46999	31458.9875
1702.72392	31289.2875
1705.97571	31139.2875
1709.22535	31005.4875
1712.47284	30948.2875
1715.71819	30828.7875
1718.96139	30769.7875
1722.20246	30626.6875
1725.44139	30507.5875
1728.67818	30322.0875
1731.91284	30123.3875
1735.14537	29938.3875
1738.37576	29811.3875
1741.60403	29652.1875
1744.83017	29521.1875
1748.05418	29464.2875
1751.27607	29436.7875
1754.49584	29345.3875
1757.71349	29254.0875
1760.92903	29256.4875
1764.14244	29242.7875
1767.35375	29152.9875
1770.56294	29087.9875
1773.77002	29020.5875
1776.97499	28975.7875
1780.17785	28905.0875
1783.37861	28876.3875
1786.57727	28786.8875
1789.77382	28699.9875
1792.96828	28653.7875
1796.16064	28545.5875
1799.3509	28497.6875
1802.53907	28379.1875
1805.72514	28335.8875
1808.90913	28215.4875
1812.09102	28252.4875
1815.27083	28222.3875
1818.44856	28116.1875
1821.6242	28111.4875
1824.79776	28132.8875
1827.96924	28104.6875
1831.13864	28105.8875
1834.30597	28117.5875
1837.47122	28038.2875
1840.6344	28041.4875
1843.7955	28038.3875
1846.95454	28032.0875
1850.11151	28067.3875
1853.26642	27991.0875
1856.41926	27976.2875
1859.57004	27938.3875
1862.71876	27874.1875
1865.86542	27844.0875
1869.01003	27799.1875
1872.15258	27773.5875
1875.29308	27725.7875
1878.43152	27681.6875
1881.56792	27607.7875
1884.70227	27514.1875
1887.83457	27528.3875
1890.96482	27475.8875
1894.09304	27390.8875
1897.21921	27395.2875
1900.34335	27354.5875
1903.46544	27295.7875
1906.58551	27220.7875
1909.70353	27180.6875
1912.81953	27100.5875
1915.93349	27073.1875
1919.04543	26966.5875
1922.15534	26899.5875
1925.26322	26832.1875
1928.36908	26789.7875
1931.47292	26718.2875
1934.57473	26644.3875
1937.67453	26503.4875
1940.77232	26432.7875
1943.86808	26345.9875
1946.96184	26288.1875
1950.05358	26235.8875
1953.14331	26179.4875
1956.23103	26101.7875
1959.31675	25978.7875
1962.40046	25940.5875
1965.48217	25820.8875
1968.56188	25771.1875
1971.63959	25639.1875
1974.7153	25573.7875
1977.78901	25507.7875
1980.86073	25393.9875
1983.93046	25322.1875
1986.99819	25195.9875
1990.06394	25116.2875
1993.1277	25067.4875
1996.18947	24967.5875
1999.24925	24924.5875
2002.30706	24805.8875
2005.36288	24725.0875
2008.41672	24690.7875
2011.46859	24587.8875
2014.51848	24510.5875
2017.56639	24463.7875
2020.61233	24423.5875
2023.6563	24353.9875
2026.6983	24284.2875
2029.73833	24295.2875
2032.7764	24201.9875
2035.8125	24125.9875
2038.84664	24068.6875
2041.87881	24030.0875
2044.90903	23965.2875
2047.93729	23944.6875
2050.96359	23875.6875
2053.98794	23844.9875
2057.01034	23817.3875
2060.03078	23810.1875
2063.04927	23792.7875
2066.06582	23772.1875
2069.08042	23763.0875
2072.09307	23714.4875
2075.10378	23709.8875
2078.11255	23750.7875
2081.11938	23717.8875
2084.12426	23641.5875
2087.12722	23654.1875
2090.12824	23603.7875
2093.12732	23607.6875
2096.12447	23646.6875
2099.11969	23635.3875
2102.11299	23677.6875
2105.10435	23684.9875
2108.09379	23639.1875
2111.08131	23674.5875
2114.0669	23609.6875
2117.05057	23640.8875
2120.03233	23662.7875
2123.01216	23673.0875
2125.99008	23658.9875
2128.96609	23655.5875
2131.94018	23638.5875
2134.91236	23627.7875
2137.88263	23624.9875
2140.851	23591.5875
2143.81746	23622.8875
2146.78201	23585.4875
2149.74466	23593.5875
2152.7054	23593.3875
2155.66425	23597.5875
2158.6212	23601.4875
2161.57625	23585.8875
2164.52941	23602.9875
2167.48067	23541.4875
2170.43004	23525.7875
2173.37752	23510.4875
2176.32311	23519.7875
2179.26681	23544.2875
2182.20863	23508.2875
2185.14856	23584.7875
2188.08661	23512.3875
2191.02278	23545.4875
2193.95707	23475.9875
2196.88948	23388.4875
2199.82001	23353.5875
2202.74867	23333.0875
2205.67545	23366.2875
2208.60037	23310.5875
2211.52341	23261.6875
2214.44458	23243.0875
2217.36388	23190.3875
2220.28132	23156.7875
2223.1969	23100.7875
2226.11061	23098.6875
2229.02246	23021.8875
2231.93245	23059.4875
2234.84058	23018.3875
2237.74686	23013.5875
2240.65128	22950.4875
2243.55385	22829.7875
2246.45456	22817.5875
2249.35343	22783.2875
2252.25044	22715.0875
2255.14561	22651.0875
2258.03893	22608.2875
2260.93041	22506.7875
2263.82004	22448.7875
2266.70783	22366.0875
2269.59378	22306.7875
2272.4779	22242.9875
2275.36017	22182.9875
2278.24061	22143.5875
2281.11922	22109.9875
2283.996	22099.6875
2286.87094	22035.9875
2289.74405	22018.4875
2292.61534	21992.1875
2295.4848	21948.5875
2298.35243	21934.3875
2301.21824	21867.0875
2304.08223	21868.5875
2306.94439	21865.9875
2309.80474	21847.7875
2312.66327	21838.6875
2315.51999	21786.9875
2318.37489	21771.4875
2321.22797	21748.0875
2324.07925	21727.5875
2326.92871	21720.5875
2329.77637	21653.8875
2332.62222	21629.9875
2335.46626	21603.7875
2338.3085	21561.9875
2341.14893	21544.8875
2343.98756	21532.7875
2346.8244	21517.2875
2349.65943	21517.3875
2352.49267	21495.1875
2355.32411	21518.7875
2358.15376	21558.8875
2360.98161	21546.7875
2363.80768	21534.9875
2366.63195	21501.9875
2369.45444	21440.7875
2372.27514	21400.1875
2375.09405	21382.8875
2377.91118	21334.5875
2380.72652	21281.8875
2383.54009	21236.3875
2386.35187	21217.3875
2389.16188	21141.0875
2391.97011	21133.2875
2394.77657	21103.3875
2397.58125	21047.6875
2400.38416	21005.9875
2403.18529	20951.9875
2405.98466	20938.8875
2408.78226	20929.8875
2411.57809	20922.1875
2414.37216	20895.2875
2417.16446	20866.6875
2419.955	20831.5875
2422.74378	20846.6875
2425.5308	20813.6875
2428.31606	20835.9875
2431.09956	20845.2875
2433.88131	20749.9875
2436.6613	20782.6875
2439.43954	20758.9875
2442.21603	20716.3875
2444.99077	20703.7875
2447.76377	20702.4875
2450.53501	20642.0875
2453.30451	20665.3875
2456.07226	20624.1875
2458.83827	20608.8875
2461.60254	20591.1875
2464.36507	20587.7875
2467.12586	20565.3875
2469.88492	20564.9875
2472.64224	20551.1875
2475.39782	20575.7875
2478.15167	20552.0875
2480.90379	20530.0875
2483.65417	20521.7875
2486.40283	20507.8875
2489.14976	20489.2875
2491.89497	20501.4875
2494.63845	20537.4875
2497.3802	20441.3875
2500.12024	20438.0875
2502.85855	20443.4875
2505.59514	20444.6875
2508.33002	20433.8875
2511.06318	20401.7875
2513.79462	20455.3875
2516.52435	20395.5875
2519.25237	20400.0875
2521.97867	20310.3875
2524.70327	20335.9875
2527.42616	20313.2875
2530.14734	20320.6875
2532.86681	20256.7875
2535.58458	20261.5875
2538.30065	20233.6875
2541.01501	20236.0875
2543.72768	20214.2875
2546.43864	20168.2875
2549.14791	20156.3875
2551.85548	20118.3875
2554.56136	20108.2875
2557.26554	20112.2875
2559.96803	20038.8875
2562.66883	20034.1875
2565.36794	19995.6875
2568.06536	19981.0875
2570.7611	19969.8875
2573.45514	19972.8875
2576.14751	19922.0875
2578.83819	19864.2875
2581.52719	19884.4875
2584.21451	19824.6875
2586.90015	19811.2875
2589.58411	19809.8875
2592.2664	19801.8875
2594.94701	19718.4875
2597.62594	19708.6875
2600.30321	19681.0875
2602.9788	19704.6875
2605.65273	19668.2875
2608.32498	19649.5875
2610.99557	19644.6875
2613.66449	19678.3875
2616.33175	19609.2875
2618.99734	19623.7875
2621.66128	19664.0875
2624.32355	19607.6875
2626.98416	19612.1875
2629.64311	19558.3875
2632.30041	19542.2875
2634.95605	19540.3875
2637.61004	19504.5875
2640.26238	19479.9875
2642.91306	19467.2875
2645.56209	19486.3875
2648.20948	19496.4875
2650.85521	19480.6875
2653.4993	19505.9875
2656.14175	19476.1875
2658.78255	19496.1875
2661.42171	19476.0875
2664.05923	19464.5875
2666.6951	19501.5875
2669.32934	19472.5875
2671.96194	19477.9875
2674.59291	19519.2875
2677.22224	19465.1875
2679.84993	19505.1875
2682.476	19429.8875
2685.10043	19466.7875
2687.72324	19448.5875
2690.34441	19454.8875
2692.96396	19493.4875
2695.58188	19547.2875
2698.19818	19483.7875
2700.81285	19497.8875
2703.4259	19459.2875
2706.03733	19513.0875
2708.64714	19448.8875
2711.25533	19505.2875
2713.86191	19484.5875
2716.46687	19523.6875
2719.07021	19493.6875
2721.67194	19514.3875
2724.27206	19457.4875
2726.87057	19534.3875
2729.46747	19488.5875
2732.06276	19535.0875
2734.65644	19542.0875
2737.24852	19530.2875
2739.83899	19541.1875
2742.42786	19509.6875
2745.01513	19453.0875
2747.60079	19425.7875
2750.18486	19426.7875
2752.76733	19448.2875
2755.3482	19421.2875
2757.92747	19428.9875
2760.50515	19340.9875
2763.08123	19361.1875
2765.65573	19332.7875
2768.22863	19337.0875
2770.79994	19283.9875
2773.36967	19339.7875
2775.9378	19320.0875
2778.50435	19296.4875
2781.06932	19301.9875
2783.6327	19258.3875
2786.1945	19217.8875
2788.75471	19180.7875
2791.31335	19130.5875
2793.87041	19141.7875
2796.42589	19111.9875
2798.97979	19146.2875
2801.53212	19071.4875
2804.08288	19066.1875
2806.63206	19009.1875
2809.17967	18954.7875
2811.72571	18929.3875
2814.27018	18879.5875
2816.81308	18851.3875
2819.35442	18803.7875
2821.89419	18779.3875
2824.43239	18771.1875
2826.96904	18708.9875
2829.50412	18707.4875
2832.03763	18681.0875
2834.56959	18695.3875
2837.1	18655.8875
2839.62884	18648.6875
2842.15613	18631.2875
2844.68186	18668.7875
2847.20604	18696.2875
2849.72867	18680.6875
2852.24974	18647.3875
2854.76927	18618.6875
2857.28724	18621.3875
2859.80367	18585.7875
2862.31855	18516.2875
2864.83189	18539.2875
2867.34368	18488.0875
2869.85393	18465.8875
2872.36264	18394.2875
2874.8698	18429.3875
2877.37543	18424.7875
2879.87952	18418.5875
2882.38207	18404.4875
2884.88308	18357.9875
2887.38256	18380.8875
2889.88051	18392.8875
2892.37692	18393.6875
2894.8718	18416.1875
2897.36515	18465.2875
2899.85698	18440.8875
2902.34727	18406.3875
2904.83604	18418.2875
2907.32328	18444.1875
2909.809	18417.6875
2912.29319	18413.1875
2914.77587	18387.7875
2917.25702	18414.6875
2919.73665	18369.5875
2922.21476	18404.3875
2924.69136	18395.2875
2927.16644	18401.4875
2929.64	18378.5875
2932.11205	18352.1875
2934.58258	18288.1875
2937.05161	18309.5875
2939.51912	18289.9875
2941.98513	18264.2875
2944.44962	18257.6875
2946.91261	18155.0875
2949.37409	18189.4875
2951.83407	18161.1875
2954.29254	18165.2875
2956.74951	18095.9875
2959.20498	18085.3875
2961.65895	18072.8875
2964.11142	18043.1875
2966.56239	18000.7875
2969.01186	17996.1875
2971.45984	17928.7875
2973.90632	17886.1875
2976.35131	17837.0875
2978.7948	17842.2875
2981.23681	17802.2875
2983.67732	17744.0875
2986.11635	17633.6875
2988.55388	17592.4875
2990.98993	17587.3875
2993.4245	17501.7875
2995.85758	17452.6875
2998.28917	17379.5875
3000.71928	17385.4875
3003.14791	17376.9875
3005.57506	17318.6875
3008.00073	17272.8875
3010.42493	17271.3875
3012.84764	17184.8875
3015.26888	17186.9875
3017.68865	17102.0875
3020.10694	17086.2875
3022.52376	17020.2875
3024.9391	17037.3875
3027.35298	17022.0875
3029.76539	16984.0875
3032.17632	16954.8875
3034.5858	16972.7875
3036.9938	16902.9875
3039.40034	16883.4875
3041.80542	16907.3875
3044.20903	16846.3875
3046.61118	16839.2875
3049.01187	16751.3875
3051.4111	16742.9875
3053.80888	16679.8875
3056.20519	16656.7875
3058.60005	16622.5875
3060.99345	16595.4875
3063.3854	16506.7875
3065.7759	16451.5875
3068.16494	16402.3875
3070.55254	16366.8875
3072.93868	16356.8875
3075.32338	16285.2875
3077.70662	16230.5875
3080.08842	16171.0875
3082.46878	16161.5875
3084.84769	16124.5875
3087.22515	16058.9875
3089.60118	16070.4875
3091.97576	16073.0875
3094.3489	16033.4875
3096.72061	16003.1875
3099.09087	16023.6875
3101.4597	15946.6875
3103.82709	15951.8875
3106.19305	15897.2875
3108.55757	15864.4875
3110.92066	15813.6875
3113.28232	15779.6875
3115.64255	15790.3875
3118.00134	15726.9875
3120.35871	15667.0875
3122.71466	15633.0875
3125.06917	15603.0875
3127.42226	15567.9875
3129.77393	15569.3875
3132.12417	15537.6875
3134.47299	15540.0875
3136.82039	15499.5875
3139.16636	15494.3875
3141.51092	15480.9875
3143.85406	15485.2875
3146.19579	15483.7875
3148.53609	15453.9875
3150.87499	15423.7875
3153.21246	15454.5875
3155.54853	15470.1875
3157.88318	15420.5875
3160.21642	15380.8875
3162.54826	15377.2875
3164.87868	15390.9875
3167.2077	15337.1875
3169.5353	15326.6875
3171.86151	15317.4875
3174.18631	15269.6875
3176.5097	15304.4875
3178.83169	15259.7875
3181.15228	15280.3875
3183.47147	15178.8875
3185.78926	15153.6875
3188.10565	15134.7875
3190.42065	15122.3875
3192.73424	15124.2875
3195.04645	15114.1875
3197.35725	15109.9875
3199.66667	15072.9875
3201.97469	15080.6875
3204.28132	15014.9875
3206.58656	15029.0875
3208.8904	15036.9875
3211.19287	15058.8875
3213.49394	15056.7875
3215.79363	15015.7875
3218.09193	15015.1875
3220.38884	14991.0875
3222.68438	14994.3875
3224.97853	14957.5875
3227.2713	14910.0875
3229.56269	14902.1875
3231.8527	14910.2875
3234.14133	14858.7875
3236.42858	14840.5875
3238.71446	14833.5875
3240.99896	14797.3875
3243.28209	14797.6875
3245.56384	14727.9875
3247.84423	14732.3875
3250.12324	14662.4875
3252.40088	14644.6875
3254.67715	14610.9875
3256.95205	14554.9875
3259.22558	14527.7875
3261.49775	14512.5875
3263.76855	14497.6875
3266.03799	14448.4875
3268.30606	14426.6875
3270.57277	14408.7875
3272.83812	14366.5875
3275.10211	14371.4875
3277.36474	14335.9875
3279.62601	14349.2875
3281.88593	14358.7875
3284.14448	14363.3875
3286.40168	14344.2875
3288.65753	14307.3875
3290.91202	14312.3875
3293.16516	14216.5875
3295.41695	14203.4875
3297.66738	14142.2875
3299.91647	14064.7875
3302.16421	13974.8875
3304.4106	13870.1875
3306.65564	13780.3875
3308.89933	13662.2875
3311.14169	13580.3875
3313.38269	13449.6875
3315.62236	13370.8875
3317.86068	13223.6875
3320.09766	13114.4875
3322.3333	13008.6875
3324.5676	12979.0875
3326.80056	12758.0875
3329.03219	12683.7875
3331.26248	3.1875
3333.49143	-0.0125
3335.71905	-1.4125
