Data from AgNPs_FTO_APTES_UA_2uM_CRN_0uM_R6G_10uM_NaF_0.1M_Addition_RamanShift__49__11-01-34-978.txt Node

Date: Wed Feb 02 11:01:34 GMT 2022
User: TCL
Spectrometer: QEP01345
Trigger mode: 4
Integration Time (sec): 7.000000E0
Scans to average: 10
Electric dark correction enabled: true
Nonlinearity correction enabled: false
Boxcar width: 0
XAxis mode: Raman Shifts
Number of Pixels in Spectrum: 1044
>>>>>Begin Spectral Data<<<<<
46.04893	0.5375
50.45542	-0.4625
54.85868	-0.9625
59.25871	-0.1625
63.6555	58.1375
68.04907	64.7375
72.43941	68.6375
76.82654	74.8375
81.21044	77.7375
85.59113	79.0375
89.96862	79.7375
94.34289	80.3375
98.71396	85.9375
103.08183	90.9375
107.4465	94.4375
111.80798	97.6375
116.16626	97.2375
120.52136	104.1375
124.87327	104.4375
129.222	115.1375
133.56755	122.5375
137.90993	129.7375
142.24913	150.9375
146.58517	171.7375
150.91804	198.6375
155.24774	249.0375
159.57429	303.1375
163.89768	394.2375
168.21792	531.0375
172.53501	718.0375
176.84895	1012.5375
181.15975	1433.5375
185.46741	2002.6375
189.77193	2758.3375
194.07331	3667.0375
198.37157	4711.5375
202.6667	5803.4375
206.9587	6867.2375
211.24758	7945.8375
215.53334	9028.8375
219.81599	10212.3375
224.09553	11525.3375
228.37195	13040.2375
232.64527	14601.4375
236.91549	16174.9375
241.18261	17763.9375
245.44663	19145.9375
249.70755	20381.4375
253.96539	21487.4375
258.22014	22443.2375
262.4718	23279.8375
266.72039	23898.2375
270.96589	24228.8375
275.20832	24332.6375
279.44768	24188.6375
283.68397	24099.6375
287.91719	24067.1375
292.14735	24101.5375
296.37445	24204.5375
300.59849	24357.6375
304.81948	24484.7375
309.03742	24443.3375
313.25231	24082.7375
317.46415	23318.3375
321.67296	22223.6375
325.87872	21276.8375
330.08145	20772.2375
334.28114	20592.4375
338.47781	20638.5375
342.67145	20854.9375
346.86207	21254.1375
351.04966	21706.3375
355.23424	22225.5375
359.4158	22671.2375
363.59435	22937.6375
367.76989	23065.7375
371.94243	23197.2375
376.11196	23204.6375
380.27849	23270.2375
384.44203	23349.5375
388.60257	23540.2375
392.76012	23858.7375
396.91468	24233.9375
401.06626	24678.8375
405.21485	24937.5375
409.36047	24707.9375
413.50311	24206.4375
417.64277	23776.0375
421.77947	23725.4375
425.9132	23821.8375
430.04396	23994.8375
434.17176	24037.7375
438.2966	24195.6375
442.41849	24588.4375
446.53742	25241.6375
450.6534	26065.0375
454.76644	26642.9375
458.87653	26942.2375
462.98368	26846.0375
467.08789	26640.6375
471.18916	26337.8375
475.2875	26261.0375
479.38291	26425.9375
483.4754	26560.8375
487.56496	26396.1375
491.6516	25784.8375
495.73531	25069.1375
499.81612	24517.9375
503.89401	24435.7375
507.96899	24400.5375
512.04106	24224.0375
516.11023	23827.3375
520.1765	23402.1375
524.23987	22955.7375
528.30034	22583.9375
532.35792	22269.8375
536.41261	21816.5375
540.46441	21479.1375
544.51333	21485.4375
548.55936	21936.5375
552.60252	22757.1375
556.64279	23648.3375
560.6802	24314.0375
564.71473	24846.8375
568.7464	25658.8375
572.7752	26733.5375
576.80114	27413.9375
580.82422	27852.9375
584.84444	28293.4375
588.86181	28654.2375
592.87633	28892.7375
596.888	28870.6375
600.89682	28598.7375
604.9028	29392.7375
608.90594	32309.2375
612.90624	35340.3375
616.90371	32599.8375
620.89834	25668.5375
624.89015	22549.2375
628.87913	22214.0375
632.86528	22433.2375
636.84862	22473.9375
640.82913	22020.6375
644.80683	21230.6375
648.78172	20511.1375
652.75379	20257.1375
656.72306	20452.3375
660.68952	20913.4375
664.65319	20813.5375
668.61405	20247.3375
672.57211	19990.6375
676.52738	20016.7375
680.47986	19933.0375
684.42955	19790.5375
688.37646	19657.0375
692.32058	19779.2375
696.26192	20067.4375
700.20048	20442.0375
704.13626	20799.4375
708.06928	20892.5375
711.99952	20758.7375
715.927	20670.5375
719.85171	20711.7375
723.77365	20584.9375
727.69284	20259.2375
731.60928	19961.3375
735.52295	19848.2375
739.43388	19855.1375
743.34206	19899.2375
747.24749	20083.9375
751.15017	20393.9375
755.05012	20984.0375
758.94733	21930.1375
762.8418	23678.2375
766.73354	26412.2375
770.62254	28973.1375
774.50882	29315.4375
778.39237	27231.7375
782.27321	24389.2375
786.15132	22207.4375
790.02671	20891.0375
793.89938	20213.4375
797.76935	19934.3375
801.6366	19840.0375
805.50115	19853.1375
809.36299	19644.9375
813.22213	19515.2375
817.07857	19436.0375
820.93231	19357.5375
824.78336	19165.8375
828.63172	18955.1375
832.47738	18897.0375
836.32036	18867.1375
840.16066	18908.2375
843.99827	18926.6375
847.8332	18836.3375
851.66546	18725.6375
855.49504	18663.7375
859.32195	18651.2375
863.1462	18579.6375
866.96777	18489.6375
870.78668	18390.2375
874.60293	18381.5375
878.41652	18394.3375
882.22745	18437.8375
886.03573	18580.2375
889.84136	18604.4375
893.64433	18528.1375
897.44466	18518.2375
901.24235	18454.4375
905.0374	18314.5375
908.8298	18262.2375
912.61957	18290.7375
916.40671	18499.4375
920.19121	18942.7375
923.97308	19334.7375
927.75233	19456.7375
931.52895	19228.5375
935.30295	18763.4375
939.07433	18120.4375
942.84309	17618.5375
946.60924	17335.9375
950.37278	17280.2375
954.13371	17250.6375
957.89203	17219.0375
961.64774	17213.2375
965.40086	17227.5375
969.15137	17135.9375
972.89929	16995.5375
976.64461	16851.6375
980.38733	16762.8375
984.12747	16794.6375
987.86502	16863.8375
991.59999	17111.1375
995.33237	17435.3375
999.06217	18050.0375
1002.78939	18845.8375
1006.51404	19449.7375
1010.23611	19769.3375
1013.95561	20048.9375
1017.67255	20041.6375
1021.38692	19711.2375
1025.09872	19286.0375
1028.80796	19246.1375
1032.51465	19626.4375
1036.21877	20110.9375
1039.92035	20203.0375
1043.61937	19909.9375
1047.31584	19539.2375
1051.00976	19119.0375
1054.70114	18955.5375
1058.38998	19019.9375
1062.07627	19246.7375
1065.76003	19505.7375
1069.44126	19798.8375
1073.11995	20240.2375
1076.79611	20611.6375
1080.46974	20779.9375
1084.14085	20948.9375
1087.80943	21329.5375
1091.47549	21700.1375
1095.13903	21830.1375
1098.80005	21454.2375
1102.45857	20642.4375
1106.11456	19847.9375
1109.76805	19517.5375
1113.41903	19480.0375
1117.06751	19663.4375
1120.71348	19955.1375
1124.35696	20337.3375
1127.99793	20776.8375
1131.63641	21109.3375
1135.2724	21000.9375
1138.90589	20856.6375
1142.5369	20867.1375
1146.16542	21003.1375
1149.79145	21282.0375
1153.415	21687.6375
1157.03607	22301.1375
1160.65467	23269.4375
1164.27079	24756.7375
1167.88443	26763.4375
1171.49561	29251.9375
1175.10432	32454.8375
1178.71056	36453.4375
1182.31434	40214.1375
1185.91565	42218.0375
1189.51451	42342.7375
1193.11091	41053.2375
1196.70485	38902.8375
1200.29634	36485.4375
1203.88538	34566.7375
1207.47197	33272.2375
1211.05612	32352.3375
1214.63782	31514.4375
1218.21708	30668.6375
1221.79391	30004.9375
1225.36829	29545.6375
1228.94024	29039.3375
1232.50976	28334.3375
1236.07685	27678.2375
1239.6415	27257.6375
1243.20374	26983.3375
1246.76355	27001.6375
1250.32093	27380.9375
1253.8759	28204.8375
1257.42845	29413.2375
1260.97859	30792.0375
1264.52631	32131.4375
1268.07163	33435.3375
1271.61453	34792.5375
1275.15503	36307.2375
1278.69312	37800.0375
1282.22882	39318.6375
1285.76211	40864.0375
1289.29301	42844.4375
1292.82151	45216.0375
1296.34761	48233.8375
1299.87133	51694.3375
1303.39266	55617.6375
1306.9116	59233.1375
1310.42815	62764.1375
1313.94233	65125.1375
1317.45412	65587.1375
1320.96354	64985.4375
1324.47058	64189.4375
1327.97525	63387.7375
1331.47754	62562.6375
1334.97747	61732.8375
1338.47502	60698.8375
1341.97022	59221.7375
1345.46305	57361.7375
1348.95352	55465.8375
1352.44163	53879.7375
1355.92738	53814.5375
1359.41078	55706.2375
1362.89183	58282.6375
1366.37053	58222.8375
1369.84688	53889.1375
1373.32088	47583.8375
1376.79254	42994.9375
1380.26186	41186.5375
1383.72883	41108.8375
1387.19347	41349.9375
1390.65578	41369.8375
1394.11575	41685.9375
1397.57339	42630.9375
1401.0287	43977.9375
1404.48168	45071.3375
1407.93234	45026.8375
1411.38068	43633.2375
1414.82669	41259.4375
1418.27039	38451.3375
1421.71177	35783.4375
1425.15083	33714.3375
1428.58758	32537.3375
1432.02203	32491.7375
1435.45416	33475.2375
1438.88399	34835.6375
1442.31151	36178.5375
1445.73673	37353.6375
1449.15965	38404.8375
1452.58027	39305.3375
1455.9986	39762.2375
1459.41463	40207.6375
1462.82837	40794.0375
1466.23982	41537.9375
1469.64898	42002.9375
1473.05586	42028.7375
1476.46045	41683.1375
1479.86276	41019.7375
1483.26279	40249.3375
1486.66054	39806.0375
1490.05602	39822.4375
1493.44922	40245.4375
1496.84016	40728.1375
1500.22882	41666.7375
1503.61521	43160.1375
1506.99934	45126.7375
1510.38121	46976.0375
1513.76081	47823.5375
1517.13816	46998.1375
1520.51324	44994.2375
1523.88607	43072.7375
1527.25665	41932.6375
1530.62498	41552.2375
1533.99105	41273.4375
1537.35488	40905.8375
1540.71647	40110.4375
1544.07581	38887.1375
1547.4329	37460.0375
1550.78776	36275.8375
1554.14038	35441.9375
1557.49077	35138.0375
1560.83892	35069.7375
1564.18484	35193.2375
1567.52853	35352.9375
1570.86999	35689.1375
1574.20922	36542.9375
1577.54624	37490.7375
1580.88103	38163.2375
1584.2136	38828.3375
1587.54395	40531.5375
1590.87208	43045.0375
1594.19801	46141.6375
1597.52172	48808.3375
1600.84321	49071.8375
1604.16251	45757.7375
1607.47959	40687.3375
1610.79447	35685.8375
1614.10715	31484.2375
1617.41763	28116.7375
1620.7259	25938.9375
1624.03199	24819.9375
1627.33587	24845.1375
1630.63757	26043.7375
1633.93707	28526.4375
1637.23439	32636.4375
1640.52951	38368.7375
1643.82246	44913.0375
1647.11321	49907.1375
1650.40179	50913.0375
1653.68819	47026.2375
1656.97241	39797.9375
1660.25446	32277.8375
1663.53433	26405.2375
1666.81203	22582.4375
1670.08756	20168.7375
1673.36092	18734.3375
1676.63211	17793.6375
1679.90115	17127.6375
1683.16801	16695.8375
1686.43272	16286.2375
1689.69527	16097.7375
1692.95567	15886.2375
1696.2139	15800.2375
1699.46999	15660.4375
1702.72392	15558.6375
1705.97571	15528.0375
1709.22535	15429.2375
1712.47284	15345.9375
1715.71819	15323.8375
1718.96139	15253.4375
1722.20246	15157.6375
1725.44139	15039.4375
1728.67818	14902.7375
1731.91284	14748.4375
1735.14537	14671.2375
1738.37576	14557.1375
1741.60403	14480.1375
1744.83017	14404.1375
1748.05418	14364.3375
1751.27607	14327.9375
1754.49584	14257.1375
1757.71349	14258.8375
1760.92903	14256.5375
1764.14244	14258.6375
1767.35375	14219.3375
1770.56294	14141.1375
1773.77002	14102.9375
1776.97499	14071.6375
1780.17785	14023.2375
1783.37861	14036.1375
1786.57727	13982.4375
1789.77382	13952.6375
1792.96828	13910.6375
1796.16064	13863.0375
1799.3509	13859.9375
1802.53907	13819.8375
1805.72514	13783.4375
1808.90913	13737.6375
1812.09102	13715.4375
1815.27083	13682.7375
1818.44856	13681.9375
1821.6242	13670.4375
1824.79776	13674.1375
1827.96924	13629.6375
1831.13864	13635.8375
1834.30597	13660.8375
1837.47122	13687.2375
1840.6344	13699.0375
1843.7955	13744.8375
1846.95454	13758.3375
1850.11151	13746.3375
1853.26642	13762.6375
1856.41926	13748.5375
1859.57004	13768.0375
1862.71876	13752.2375
1865.86542	13763.4375
1869.01003	13760.7375
1872.15258	13734.0375
1875.29308	13758.8375
1878.43152	13770.4375
1881.56792	13793.5375
1884.70227	13782.3375
1887.83457	13757.1375
1890.96482	13746.7375
1894.09304	13762.8375
1897.21921	13758.6375
1900.34335	13756.7375
1903.46544	13745.3375
1906.58551	13747.2375
1909.70353	13679.6375
1912.81953	13676.3375
1915.93349	13632.6375
1919.04543	13562.6375
1922.15534	13497.2375
1925.26322	13440.4375
1928.36908	13360.9375
1931.47292	13298.0375
1934.57473	13208.7375
1937.67453	13132.3375
1940.77232	13093.7375
1943.86808	13049.3375
1946.96184	12987.9375
1950.05358	12902.9375
1953.14331	12804.3375
1956.23103	12783.2375
1959.31675	12734.0375
1962.40046	12683.3375
1965.48217	12634.4375
1968.56188	12587.5375
1971.63959	12539.5375
1974.7153	12516.9375
1977.78901	12444.6375
1980.86073	12429.2375
1983.93046	12403.4375
1986.99819	12355.6375
1990.06394	12316.9375
1993.1277	12285.3375
1996.18947	12189.3375
1999.24925	12192.0375
2002.30706	12127.2375
2005.36288	12084.8375
2008.41672	12059.4375
2011.46859	12037.1375
2014.51848	11993.7375
2017.56639	11969.4375
2020.61233	11954.8375
2023.6563	11860.5375
2026.6983	11881.0375
2029.73833	11884.7375
2032.7764	11829.5375
2035.8125	11845.3375
2038.84664	11825.2375
2041.87881	11824.9375
2044.90903	11777.4375
2047.93729	11770.2375
2050.96359	11742.8375
2053.98794	11733.9375
2057.01034	11737.5375
2060.03078	11716.9375
2063.04927	11679.0375
2066.06582	11709.4375
2069.08042	11667.4375
2072.09307	11671.1375
2075.10378	11651.5375
2078.11255	11636.3375
2081.11938	11647.9375
2084.12426	11636.5375
2087.12722	11635.9375
2090.12824	11629.5375
2093.12732	11622.2375
2096.12447	11629.1375
2099.11969	11626.9375
2102.11299	11646.9375
2105.10435	11652.6375
2108.09379	11633.1375
2111.08131	11631.1375
2114.0669	11634.7375
2117.05057	11662.5375
2120.03233	11637.3375
2123.01216	11640.8375
2125.99008	11651.7375
2128.96609	11645.8375
2131.94018	11644.6375
2134.91236	11663.8375
2137.88263	11647.0375
2140.851	11672.0375
2143.81746	11671.5375
2146.78201	11662.9375
2149.74466	11635.5375
2152.7054	11651.2375
2155.66425	11626.0375
2158.6212	11660.9375
2161.57625	11661.9375
2164.52941	11665.4375
2167.48067	11643.9375
2170.43004	11664.1375
2173.37752	11630.6375
2176.32311	11637.3375
2179.26681	11646.9375
2182.20863	11634.4375
2185.14856	11670.5375
2188.08661	11660.8375
2191.02278	11643.7375
2193.95707	11626.8375
2196.88948	11624.5375
2199.82001	11609.4375
2202.74867	11595.5375
2205.67545	11606.6375
2208.60037	11601.4375
2211.52341	11607.8375
2214.44458	11590.5375
2217.36388	11557.1375
2220.28132	11565.6375
2223.1969	11507.2375
2226.11061	11481.1375
2229.02246	11451.9375
2231.93245	11474.6375
2234.84058	11427.8375
2237.74686	11407.7375
2240.65128	11407.0375
2243.55385	11401.2375
2246.45456	11363.7375
2249.35343	11312.0375
2252.25044	11295.9375
2255.14561	11280.0375
2258.03893	11273.6375
2260.93041	11257.0375
2263.82004	11215.4375
2266.70783	11234.1375
2269.59378	11191.6375
2272.4779	11161.2375
2275.36017	11117.7375
2278.24061	11084.2375
2281.11922	11079.7375
2283.996	11099.6375
2286.87094	11101.1375
2289.74405	11051.4375
2292.61534	11038.7375
2295.4848	11041.4375
2298.35243	11025.3375
2301.21824	11006.8375
2304.08223	10998.1375
2306.94439	11028.9375
2309.80474	11043.0375
2312.66327	11045.2375
2315.51999	11026.5375
2318.37489	11045.8375
2321.22797	11023.2375
2324.07925	11012.8375
2326.92871	10991.6375
2329.77637	10996.2375
2332.62222	11023.9375
2335.46626	11014.4375
2338.3085	10983.5375
2341.14893	11049.3375
2343.98756	11055.9375
2346.8244	11082.4375
2349.65943	11049.3375
2352.49267	11039.0375
2355.32411	11058.5375
2358.15376	11089.4375
2360.98161	11054.6375
2363.80768	11033.2375
2366.63195	11036.2375
2369.45444	11055.0375
2372.27514	11027.4375
2375.09405	10980.6375
2377.91118	10946.9375
2380.72652	10943.2375
2383.54009	10935.6375
2386.35187	10890.7375
2389.16188	10829.7375
2391.97011	10811.5375
2394.77657	10795.4375
2397.58125	10807.0375
2400.38416	10793.5375
2403.18529	10771.3375
2405.98466	10730.6375
2408.78226	10721.2375
2411.57809	10684.5375
2414.37216	10693.6375
2417.16446	10682.1375
2419.955	10678.0375
2422.74378	10675.3375
2425.5308	10636.3375
2428.31606	10652.3375
2431.09956	10655.5375
2433.88131	10634.4375
2436.6613	10642.2375
2439.43954	10660.4375
2442.21603	10655.2375
2444.99077	10653.8375
2447.76377	10683.2375
2450.53501	10692.4375
2453.30451	10708.5375
2456.07226	10661.3375
2458.83827	10689.7375
2461.60254	10687.2375
2464.36507	10678.7375
2467.12586	10687.2375
2469.88492	10680.2375
2472.64224	10681.9375
2475.39782	10720.9375
2478.15167	10685.6375
2480.90379	10717.9375
2483.65417	10740.8375
2486.40283	10749.0375
2489.14976	10763.5375
2491.89497	10779.4375
2494.63845	10798.6375
2497.3802	10799.9375
2500.12024	10830.2375
2502.85855	10792.5375
2505.59514	10785.3375
2508.33002	10809.3375
2511.06318	10763.9375
2513.79462	10746.6375
2516.52435	10728.1375
2519.25237	10731.3375
2521.97867	10694.3375
2524.70327	10693.8375
2527.42616	10702.7375
2530.14734	10710.4375
2532.86681	10685.3375
2535.58458	10669.7375
2538.30065	10666.6375
2541.01501	10644.9375
2543.72768	10641.7375
2546.43864	10639.3375
2549.14791	10644.3375
2551.85548	10632.2375
2554.56136	10607.7375
2557.26554	10627.1375
2559.96803	10594.3375
2562.66883	10604.5375
2565.36794	10615.2375
2568.06536	10646.7375
2570.7611	10617.7375
2573.45514	10626.7375
2576.14751	10625.5375
2578.83819	10620.0375
2581.52719	10624.0375
2584.21451	10627.4375
2586.90015	10623.7375
2589.58411	10601.0375
2592.2664	10616.9375
2594.94701	10606.6375
2597.62594	10608.6375
2600.30321	10573.2375
2602.9788	10582.4375
2605.65273	10604.2375
2608.32498	10634.1375
2610.99557	10613.6375
2613.66449	10609.2375
2616.33175	10613.2375
2618.99734	10650.8375
2621.66128	10663.1375
2624.32355	10669.1375
2626.98416	10682.2375
2629.64311	10688.2375
2632.30041	10662.9375
2634.95605	10675.1375
2637.61004	10662.8375
2640.26238	10654.1375
2642.91306	10666.5375
2645.56209	10623.4375
2648.20948	10631.0375
2650.85521	10627.1375
2653.4993	10640.9375
2656.14175	10664.1375
2658.78255	10656.3375
2661.42171	10640.6375
2664.05923	10672.0375
2666.6951	10657.9375
2669.32934	10679.8375
2671.96194	10685.0375
2674.59291	10714.1375
2677.22224	10678.2375
2679.84993	10674.0375
2682.476	10681.9375
2685.10043	10664.8375
2687.72324	10650.1375
2690.34441	10657.2375
2692.96396	10606.5375
2695.58188	10658.0375
2698.19818	10660.5375
2700.81285	10628.9375
2703.4259	10629.5375
2706.03733	10655.2375
2708.64714	10653.6375
2711.25533	10676.3375
2713.86191	10635.0375
2716.46687	10686.0375
2719.07021	10703.4375
2721.67194	10658.4375
2724.27206	10689.0375
2726.87057	10672.4375
2729.46747	10690.8375
2732.06276	10724.1375
2734.65644	10697.1375
2737.24852	10727.7375
2739.83899	10707.5375
2742.42786	10694.5375
2745.01513	10685.9375
2747.60079	10699.4375
2750.18486	10715.2375
2752.76733	10722.5375
2755.3482	10735.3375
2757.92747	10723.9375
2760.50515	10706.8375
2763.08123	10710.4375
2765.65573	10713.5375
2768.22863	10716.8375
2770.79994	10711.3375
2773.36967	10733.1375
2775.9378	10750.9375
2778.50435	10764.7375
2781.06932	10747.3375
2783.6327	10743.9375
2786.1945	10755.2375
2788.75471	10739.1375
2791.31335	10715.2375
2793.87041	10702.3375
2796.42589	10678.7375
2798.97979	10698.7375
2801.53212	10672.8375
2804.08288	10658.9375
2806.63206	10630.6375
2809.17967	10648.1375
2811.72571	10634.3375
2814.27018	10624.4375
2816.81308	10634.1375
2819.35442	10625.1375
2821.89419	10610.1375
2824.43239	10600.8375
2826.96904	10566.2375
2829.50412	10581.2375
2832.03763	10563.9375
2834.56959	10566.8375
2837.1	10532.5375
2839.62884	10552.0375
2842.15613	10581.2375
2844.68186	10637.8375
2847.20604	10667.9375
2849.72867	10685.3375
2852.24974	10702.5375
2854.76927	10698.1375
2857.28724	10668.3375
2859.80367	10672.8375
2862.31855	10668.9375
2864.83189	10634.5375
2867.34368	10651.9375
2869.85393	10675.7375
2872.36264	10658.5375
2874.8698	10681.9375
2877.37543	10673.9375
2879.87952	10700.4375
2882.38207	10723.6375
2884.88308	10732.2375
2887.38256	10747.0375
2889.88051	10735.5375
2892.37692	10760.0375
2894.8718	10759.5375
2897.36515	10752.5375
2899.85698	10768.4375
2902.34727	10824.2375
2904.83604	10830.4375
2907.32328	10849.2375
2909.809	10814.2375
2912.29319	10825.8375
2914.77587	10844.6375
2917.25702	10834.1375
2919.73665	10842.6375
2922.21476	10845.0375
2924.69136	10828.2375
2927.16644	10823.8375
2929.64	10780.9375
2932.11205	10795.4375
2934.58258	10759.5375
2937.05161	10721.7375
2939.51912	10735.1375
2941.98513	10708.0375
2944.44962	10666.8375
2946.91261	10612.0375
2949.37409	10606.8375
2951.83407	10554.9375
2954.29254	10554.7375
2956.74951	10522.2375
2959.20498	10477.0375
2961.65895	10452.2375
2964.11142	10449.7375
2966.56239	10424.8375
2969.01186	10399.5375
2971.45984	10363.0375
2973.90632	10332.4375
2976.35131	10279.3375
2978.7948	10277.5375
2981.23681	10221.5375
2983.67732	10210.9375
2986.11635	10194.1375
2988.55388	10145.2375
2990.98993	10101.4375
2993.4245	10106.3375
2995.85758	10059.2375
2998.28917	10035.2375
3000.71928	10018.6375
3003.14791	10019.9375
3005.57506	9999.2375
3008.00073	9966.8375
3010.42493	9937.4375
3012.84764	9919.6375
3015.26888	9905.7375
3017.68865	9883.6375
3020.10694	9866.6375
3022.52376	9851.5375
3024.9391	9812.6375
3027.35298	9831.1375
3029.76539	9823.6375
3032.17632	9814.3375
3034.5858	9781.1375
3036.9938	9790.1375
3039.40034	9754.1375
3041.80542	9778.0375
3044.20903	9771.2375
3046.61118	9749.5375
3049.01187	9745.2375
3051.4111	9746.5375
3053.80888	9720.5375
3056.20519	9716.5375
3058.60005	9651.3375
3060.99345	9651.9375
3063.3854	9632.2375
3065.7759	9586.6375
3068.16494	9588.0375
3070.55254	9548.5375
3072.93868	9533.1375
3075.32338	9485.1375
3077.70662	9464.8375
3080.08842	9445.7375
3082.46878	9441.2375
3084.84769	9411.0375
3087.22515	9414.3375
3089.60118	9420.6375
3091.97576	9401.3375
3094.3489	9394.4375
3096.72061	9379.9375
3099.09087	9372.4375
3101.4597	9374.6375
3103.82709	9352.3375
3106.19305	9340.8375
3108.55757	9330.4375
3110.92066	9316.1375
3113.28232	9292.0375
3115.64255	9235.2375
3118.00134	9234.8375
3120.35871	9246.7375
3122.71466	9235.7375
3125.06917	9228.6375
3127.42226	9172.8375
3129.77393	9210.3375
3132.12417	9179.9375
3134.47299	9163.8375
3136.82039	9181.4375
3139.16636	9169.5375
3141.51092	9170.8375
3143.85406	9184.8375
3146.19579	9181.0375
3148.53609	9194.4375
3150.87499	9199.7375
3153.21246	9185.5375
3155.54853	9210.2375
3157.88318	9183.3375
3160.21642	9194.1375
3162.54826	9191.7375
3164.87868	9163.1375
3167.2077	9171.3375
3169.5353	9160.1375
3171.86151	9169.8375
3174.18631	9143.0375
3176.5097	9141.4375
3178.83169	9148.5375
3181.15228	9157.7375
3183.47147	9151.0375
3185.78926	9122.5375
3188.10565	9141.4375
3190.42065	9148.3375
3192.73424	9175.0375
3195.04645	9162.2375
3197.35725	9143.7375
3199.66667	9149.3375
3201.97469	9160.7375
3204.28132	9147.6375
3206.58656	9158.7375
3208.8904	9148.6375
3211.19287	9143.8375
3213.49394	9135.5375
3215.79363	9124.1375
3218.09193	9145.5375
3220.38884	9124.4375
3222.68438	9165.6375
3224.97853	9144.2375
3227.2713	9157.5375
3229.56269	9118.3375
3231.8527	9123.7375
3234.14133	9132.1375
3236.42858	9127.1375
3238.71446	9131.4375
3240.99896	9112.6375
3243.28209	9093.7375
3245.56384	9109.7375
3247.84423	9103.2375
3250.12324	9090.2375
3252.40088	9089.6375
3254.67715	9067.0375
3256.95205	9032.0375
3259.22558	9030.3375
3261.49775	9005.5375
3263.76855	8993.2375
3266.03799	8980.4375
3268.30606	8945.1375
3270.57277	8955.1375
3272.83812	8897.5375
3275.10211	8906.5375
3277.36474	8915.2375
3279.62601	8918.0375
3281.88593	8902.8375
3284.14448	8934.9375
3286.40168	8914.3375
3288.65753	8900.6375
3290.91202	8900.4375
3293.16516	8872.2375
3295.41695	8848.5375
3297.66738	8790.3375
3299.91647	8739.6375
3302.16421	8729.0375
3304.4106	8676.4375
3306.65564	8605.7375
3308.89933	8572.3375
3311.14169	8534.7375
3313.38269	8448.6375
3315.62236	8401.7375
3317.86068	8336.3375
3320.09766	8264.8375
3322.3333	8180.8375
3324.5676	8163.5375
3326.80056	8030.0375
3329.03219	8012.0375
3331.26248	2.0375
3333.49143	-1.0625
3335.71905	-0.2625
