Data from AgNPs_FTO_APTES_UA_2uM_CRN_1uM_R6G_10uM_NaF_0.1M_Addition_RamanShift__9__11-29-35-010.txt Node

Date: Wed Feb 02 11:29:35 GMT 2022
User: TCL
Spectrometer: QEP01345
Trigger mode: 4
Integration Time (sec): 7.000000E0
Scans to average: 10
Electric dark correction enabled: true
Nonlinearity correction enabled: false
Boxcar width: 0
XAxis mode: Raman Shifts
Number of Pixels in Spectrum: 1044
>>>>>Begin Spectral Data<<<<<
46.04893	-0.2625
50.45542	0.7375
54.85868	-0.5625
59.25871	0.0375
63.6555	84.3375
68.04907	91.6375
72.43941	92.2375
76.82654	96.4375
81.21044	103.4375
85.59113	105.7375
89.96862	111.5375
94.34289	115.3375
98.71396	116.8375
103.08183	123.2375
107.4465	126.9375
111.80798	131.1375
116.16626	133.1375
120.52136	135.3375
124.87327	142.0375
129.222	149.8375
133.56755	162.2375
137.90993	174.4375
142.24913	196.9375
146.58517	225.5375
150.91804	266.4375
155.24774	321.9375
159.57429	398.0375
163.89768	516.4375
168.21792	690.6375
172.53501	952.2375
176.84895	1320.6375
181.15975	1842.2375
185.46741	2587.7375
189.77193	3557.6375
194.07331	4777.2375
198.37157	6145.5375
202.6667	7576.4375
206.9587	8994.9375
211.24758	10427.8375
215.53334	11869.9375
219.81599	13407.5375
224.09553	15100.8375
228.37195	16970.5375
232.64527	19003.5375
236.91549	21110.1375
241.18261	23201.8375
245.44663	25070.4375
249.70755	26775.1375
253.96539	28213.2375
258.22014	29434.6375
262.4718	30388.6375
266.72039	30987.8375
270.96589	31274.4375
275.20832	31148.1375
279.44768	30814.8375
283.68397	30451.0375
287.91719	30179.2375
292.14735	29995.1375
296.37445	29987.9375
300.59849	30199.2375
304.81948	30451.4375
309.03742	30604.0375
313.25231	30514.8375
317.46415	30028.8375
321.67296	29242.0375
325.87872	28505.7375
330.08145	28051.6375
334.28114	27920.1375
338.47781	27966.7375
342.67145	28269.8375
346.86207	28682.5375
351.04966	29159.6375
355.23424	29750.1375
359.4158	30260.1375
363.59435	30626.6375
367.76989	30838.5375
371.94243	30850.8375
376.11196	30765.8375
380.27849	30658.7375
384.44203	30673.9375
388.60257	30882.5375
392.76012	31292.4375
396.91468	31840.5375
401.06626	32418.6375
405.21485	32731.6375
409.36047	32497.8375
413.50311	32010.0375
417.64277	31830.0375
421.77947	31978.7375
425.9132	32167.1375
430.04396	32285.3375
434.17176	32297.4375
438.2966	32335.0375
442.41849	32699.6375
446.53742	33465.0375
450.6534	34360.4375
454.76644	34796.3375
458.87653	34908.6375
462.98368	34712.3375
467.08789	34368.5375
471.18916	33930.2375
475.2875	33453.7375
479.38291	33211.7375
483.4754	33161.1375
487.56496	32970.3375
491.6516	32535.0375
495.73531	31905.4375
499.81612	31514.6375
503.89401	31564.7375
507.96899	31703.8375
512.04106	31637.1375
516.11023	31378.6375
520.1765	30943.6375
524.23987	30520.8375
528.30034	30178.4375
532.35792	29762.3375
536.41261	29396.1375
540.46441	28971.1375
544.51333	28913.4375
548.55936	29245.1375
552.60252	29955.2375
556.64279	30892.5375
560.6802	31570.8375
564.71473	32093.7375
568.7464	32823.7375
572.7752	34240.5375
576.80114	35763.8375
580.82422	37362.1375
584.84444	39460.0375
588.86181	42414.3375
592.87633	44788.4375
596.888	44009.9375
600.89682	40409.8375
604.9028	38408.7375
608.90594	40233.4375
612.90624	42828.5375
616.90371	39960.6375
620.89834	33206.0375
624.89015	30098.6375
628.87913	29816.8375
632.86528	30183.4375
636.84862	30160.5375
640.82913	29468.7375
644.80683	28564.6375
648.78172	28038.3375
652.75379	28107.5375
656.72306	28513.9375
660.68952	28894.6375
664.65319	28528.8375
668.61405	27951.9375
672.57211	27791.1375
676.52738	27930.1375
680.47986	27951.7375
684.42955	27739.9375
688.37646	27454.3375
692.32058	27671.5375
696.26192	28213.1375
700.20048	28785.4375
704.13626	29175.0375
708.06928	29344.1375
711.99952	29332.4375
715.927	29319.8375
719.85171	29419.0375
723.77365	29145.7375
727.69284	28508.4375
731.60928	27834.6375
735.52295	27630.7375
739.43388	27608.2375
743.34206	27734.0375
747.24749	27962.4375
751.15017	28372.1375
755.05012	29067.5375
758.94733	30049.5375
762.8418	31719.6375
766.73354	34249.7375
770.62254	36488.3375
774.50882	36583.6375
778.39237	34630.1375
782.27321	32052.7375
786.15132	30038.5375
790.02671	28689.5375
793.89938	28051.0375
797.76935	27667.5375
801.6366	27521.8375
805.50115	27440.3375
809.36299	27311.7375
813.22213	27104.8375
817.07857	26992.5375
820.93231	26870.3375
824.78336	26589.5375
828.63172	26409.1375
832.47738	26259.7375
836.32036	26220.0375
840.16066	26245.4375
843.99827	26221.6375
847.8332	26208.2375
851.66546	26234.5375
855.49504	26265.8375
859.32195	26251.0375
863.1462	26174.2375
866.96777	26028.2375
870.78668	25961.9375
874.60293	26035.5375
878.41652	26052.0375
882.22745	26159.7375
886.03573	26338.5375
889.84136	26388.0375
893.64433	26331.5375
897.44466	26326.3375
901.24235	26297.4375
905.0374	26280.5375
908.8298	26195.4375
912.61957	26224.8375
916.40671	26568.0375
920.19121	27040.2375
923.97308	27474.3375
927.75233	27637.5375
931.52895	27301.7375
935.30295	26508.7375
939.07433	25723.7375
942.84309	25160.5375
946.60924	24855.5375
950.37278	24747.5375
954.13371	24750.1375
957.89203	24733.4375
961.64774	24723.2375
965.40086	24713.1375
969.15137	24645.8375
972.89929	24393.7375
976.64461	24183.5375
980.38733	24104.1375
984.12747	24071.4375
987.86502	24109.5375
991.59999	24257.8375
995.33237	24475.1375
999.06217	24874.9375
1002.78939	25427.3375
1006.51404	26049.5375
1010.23611	26711.3375
1013.95561	27113.5375
1017.67255	27221.1375
1021.38692	26823.8375
1025.09872	26250.5375
1028.80796	25787.8375
1032.51465	25695.0375
1036.21877	25787.7375
1039.92035	25936.7375
1043.61937	26141.0375
1047.31584	26164.1375
1051.00976	26174.8375
1054.70114	26251.5375
1058.38998	26395.9375
1062.07627	26665.3375
1065.76003	27037.4375
1069.44126	27579.7375
1073.11995	28303.4375
1076.79611	28880.3375
1080.46974	29105.9375
1084.14085	29314.6375
1087.80943	29695.3375
1091.47549	30150.7375
1095.13903	30239.9375
1098.80005	29698.0375
1102.45857	28604.3375
1106.11456	27694.3375
1109.76805	27252.7375
1113.41903	27158.4375
1117.06751	27229.1375
1120.71348	27567.8375
1124.35696	27947.8375
1127.99793	28401.7375
1131.63641	28741.7375
1135.2724	28727.6375
1138.90589	28608.3375
1142.5369	28798.0375
1146.16542	29062.1375
1149.79145	29513.0375
1153.415	29919.2375
1157.03607	30530.6375
1160.65467	31732.7375
1164.27079	33682.7375
1167.88443	35983.0375
1171.49561	38241.0375
1175.10432	40955.3375
1178.71056	44482.1375
1182.31434	47728.8375
1185.91565	49020.3375
1189.51451	48422.6375
1193.11091	46849.8375
1196.70485	44762.7375
1200.29634	42703.7375
1203.88538	41432.6375
1207.47197	41011.4375
1211.05612	40802.0375
1214.63782	40100.1375
1218.21708	38773.7375
1221.79391	37072.1375
1225.36829	35967.4375
1228.94024	35370.3375
1232.50976	34901.6375
1236.07685	34323.9375
1239.6415	33879.4375
1243.20374	33735.1375
1246.76355	33952.3375
1250.32093	34442.2375
1253.8759	35295.2375
1257.42845	36521.6375
1260.97859	37967.5375
1264.52631	39448.6375
1268.07163	40807.3375
1271.61453	42175.4375
1275.15503	43655.3375
1278.69312	45400.3375
1282.22882	47545.6375
1285.76211	50042.8375
1289.29301	52878.0375
1292.82151	55849.7375
1296.34761	59379.2375
1299.87133	63295.2375
1303.39266	67184.5375
1306.9116	70104.5375
1310.42815	71880.8375
1313.94233	72253.4375
1317.45412	71270.5375
1320.96354	69780.7375
1324.47058	69011.1375
1327.97525	68600.8375
1331.47754	67957.2375
1334.97747	66860.5375
1338.47502	65225.9375
1341.97022	63404.0375
1345.46305	61747.7375
1348.95352	60735.5375
1352.44163	60835.4375
1355.92738	62605.5375
1359.41078	66206.9375
1362.89183	69775.2375
1366.37053	70356.9375
1369.84688	65466.4375
1373.32088	57337.2375
1376.79254	51232.1375
1380.26186	48800.7375
1383.72883	48737.4375
1387.19347	48712.0375
1390.65578	48107.4375
1394.11575	47833.6375
1397.57339	48540.1375
1401.0287	49697.2375
1404.48168	50492.8375
1407.93234	50040.7375
1411.38068	48378.7375
1414.82669	46023.9375
1418.27039	43600.8375
1421.71177	41529.4375
1425.15083	39937.3375
1428.58758	39330.0375
1432.02203	39974.0375
1435.45416	41342.2375
1438.88399	42752.6375
1442.31151	43615.6375
1445.73673	44057.5375
1449.15965	44346.1375
1452.58027	44300.4375
1455.9986	44117.3375
1459.41463	44274.8375
1462.82837	44924.5375
1466.23982	45792.5375
1469.64898	46600.9375
1473.05586	46935.2375
1476.46045	46985.5375
1479.86276	46708.9375
1483.26279	46397.2375
1486.66054	46509.0375
1490.05602	47097.0375
1493.44922	48134.0375
1496.84016	49187.0375
1500.22882	50372.8375
1503.61521	51804.6375
1506.99934	53251.2375
1510.38121	54496.7375
1513.76081	54822.4375
1517.13816	54116.7375
1520.51324	52883.5375
1523.88607	52081.7375
1527.25665	51993.2375
1530.62498	51876.3375
1533.99105	51127.0375
1537.35488	49702.8375
1540.71647	47652.4375
1544.07581	45488.7375
1547.4329	43430.6375
1550.78776	41908.8375
1554.14038	41038.0375
1557.49077	40649.2375
1560.83892	40541.1375
1564.18484	40583.9375
1567.52853	40736.9375
1570.86999	41325.3375
1574.20922	42440.6375
1577.54624	43556.5375
1580.88103	44290.3375
1584.2136	45301.4375
1587.54395	47290.2375
1590.87208	50301.5375
1594.19801	53510.6375
1597.52172	55876.9375
1600.84321	55413.0375
1604.16251	51256.9375
1607.47959	45775.4375
1610.79447	40771.4375
1614.10715	36699.7375
1617.41763	33556.3375
1620.7259	31697.9375
1624.03199	30799.9375
1627.33587	30996.1375
1630.63757	32400.2375
1633.93707	35263.6375
1637.23439	40240.1375
1640.52951	47731.1375
1643.82246	56927.2375
1647.11321	64137.1375
1650.40179	65440.6375
1653.68819	59352.5375
1656.97241	49433.0375
1660.25446	40072.1375
1663.53433	33446.9375
1666.81203	29293.9375
1670.08756	26808.8375
1673.36092	25311.9375
1676.63211	24352.3375
1679.90115	23705.7375
1683.16801	23179.0375
1686.43272	22818.6375
1689.69527	22556.9375
1692.95567	22400.6375
1696.2139	22294.9375
1699.46999	22136.3375
1702.72392	22029.9375
1705.97571	21920.4375
1709.22535	21811.1375
1712.47284	21794.6375
1715.71819	21714.7375
1718.96139	21583.4375
1722.20246	21560.2375
1725.44139	21446.1375
1728.67818	21272.3375
1731.91284	21072.5375
1735.14537	20917.7375
1738.37576	20833.0375
1741.60403	20731.0375
1744.83017	20598.5375
1748.05418	20558.6375
1751.27607	20453.6375
1754.49584	20426.0375
1757.71349	20402.3375
1760.92903	20420.7375
1764.14244	20379.9375
1767.35375	20365.9375
1770.56294	20273.9375
1773.77002	20259.4375
1776.97499	20199.4375
1780.17785	20121.8375
1783.37861	20092.9375
1786.57727	20048.6375
1789.77382	20026.5375
1792.96828	19953.0375
1796.16064	19918.3375
1799.3509	19813.8375
1802.53907	19815.6375
1805.72514	19783.8375
1808.90913	19693.9375
1812.09102	19648.7375
1815.27083	19642.1375
1818.44856	19555.2375
1821.6242	19584.0375
1824.79776	19602.4375
1827.96924	19576.6375
1831.13864	19599.0375
1834.30597	19651.9375
1837.47122	19638.4375
1840.6344	19642.2375
1843.7955	19705.9375
1846.95454	19642.3375
1850.11151	19631.2375
1853.26642	19585.7375
1856.41926	19587.5375
1859.57004	19583.1375
1862.71876	19521.1375
1865.86542	19474.8375
1869.01003	19431.7375
1872.15258	19382.4375
1875.29308	19362.3375
1878.43152	19329.2375
1881.56792	19286.7375
1884.70227	19231.4375
1887.83457	19237.6375
1890.96482	19201.6375
1894.09304	19158.6375
1897.21921	19109.8375
1900.34335	19048.6375
1903.46544	18991.3375
1906.58551	19001.0375
1909.70353	18903.8375
1912.81953	18860.5375
1915.93349	18817.0375
1919.04543	18746.3375
1922.15534	18753.8375
1925.26322	18602.0375
1928.36908	18558.1375
1931.47292	18515.3375
1934.57473	18391.8375
1937.67453	18363.6375
1940.77232	18297.3375
1943.86808	18279.9375
1946.96184	18229.4375
1950.05358	18197.9375
1953.14331	18147.3375
1956.23103	18112.6375
1959.31675	18054.7375
1962.40046	17986.8375
1965.48217	17942.7375
1968.56188	17872.6375
1971.63959	17749.7375
1974.7153	17675.6375
1977.78901	17642.4375
1980.86073	17581.1375
1983.93046	17549.3375
1986.99819	17488.8375
1990.06394	17401.8375
1993.1277	17380.2375
1996.18947	17283.0375
1999.24925	17249.0375
2002.30706	17191.8375
2005.36288	17131.9375
2008.41672	17099.9375
2011.46859	17015.8375
2014.51848	16975.6375
2017.56639	16877.6375
2020.61233	16864.6375
2023.6563	16820.5375
2026.6983	16793.9375
2029.73833	16728.8375
2032.7764	16700.8375
2035.8125	16662.5375
2038.84664	16645.7375
2041.87881	16610.7375
2044.90903	16588.3375
2047.93729	16545.8375
2050.96359	16553.2375
2053.98794	16478.6375
2057.01034	16483.0375
2060.03078	16439.4375
2063.04927	16409.9375
2066.06582	16402.4375
2069.08042	16384.8375
2072.09307	16384.4375
2075.10378	16379.9375
2078.11255	16371.3375
2081.11938	16394.0375
2084.12426	16379.0375
2087.12722	16352.0375
2090.12824	16315.6375
2093.12732	16345.8375
2096.12447	16400.4375
2099.11969	16349.2375
2102.11299	16397.5375
2105.10435	16386.7375
2108.09379	16335.0375
2111.08131	16375.7375
2114.0669	16394.4375
2117.05057	16402.0375
2120.03233	16421.3375
2123.01216	16390.6375
2125.99008	16390.1375
2128.96609	16368.6375
2131.94018	16351.4375
2134.91236	16369.1375
2137.88263	16366.8375
2140.851	16351.5375
2143.81746	16354.0375
2146.78201	16316.6375
2149.74466	16280.5375
2152.7054	16299.2375
2155.66425	16256.4375
2158.6212	16270.1375
2161.57625	16245.6375
2164.52941	16254.7375
2167.48067	16208.7375
2170.43004	16231.5375
2173.37752	16197.5375
2176.32311	16202.2375
2179.26681	16234.4375
2182.20863	16202.3375
2185.14856	16205.6375
2188.08661	16200.7375
2191.02278	16184.2375
2193.95707	16182.4375
2196.88948	16155.6375
2199.82001	16104.3375
2202.74867	16130.3375
2205.67545	16099.2375
2208.60037	16037.5375
2211.52341	16028.4375
2214.44458	16019.1375
2217.36388	15966.7375
2220.28132	15952.2375
2223.1969	15929.0375
2226.11061	15891.5375
2229.02246	15871.3375
2231.93245	15877.0375
2234.84058	15811.4375
2237.74686	15846.0375
2240.65128	15830.1375
2243.55385	15795.6375
2246.45456	15742.6375
2249.35343	15711.1375
2252.25044	15637.0375
2255.14561	15622.8375
2258.03893	15573.0375
2260.93041	15530.7375
2263.82004	15513.1375
2266.70783	15450.0375
2269.59378	15415.3375
2272.4779	15396.2375
2275.36017	15337.3375
2278.24061	15308.5375
2281.11922	15275.3375
2283.996	15259.4375
2286.87094	15209.8375
2289.74405	15172.7375
2292.61534	15153.9375
2295.4848	15095.5375
2298.35243	15104.1375
2301.21824	15100.6375
2304.08223	15097.5375
2306.94439	15087.2375
2309.80474	15094.4375
2312.66327	15059.6375
2315.51999	15033.6375
2318.37489	15030.0375
2321.22797	15031.9375
2324.07925	14989.9375
2326.92871	14976.6375
2329.77637	14957.7375
2332.62222	14951.0375
2335.46626	14931.8375
2338.3085	14903.7375
2341.14893	14905.9375
2343.98756	14887.8375
2346.8244	14906.6375
2349.65943	14876.0375
2352.49267	14833.7375
2355.32411	14867.2375
2358.15376	14870.6375
2360.98161	14873.4375
2363.80768	14859.3375
2366.63195	14841.1375
2369.45444	14852.1375
2372.27514	14836.9375
2375.09405	14787.1375
2377.91118	14751.7375
2380.72652	14689.3375
2383.54009	14661.9375
2386.35187	14670.3375
2389.16188	14561.5375
2391.97011	14546.6375
2394.77657	14490.0375
2397.58125	14551.3375
2400.38416	14514.6375
2403.18529	14464.8375
2405.98466	14425.7375
2408.78226	14425.0375
2411.57809	14410.5375
2414.37216	14384.9375
2417.16446	14363.0375
2419.955	14380.0375
2422.74378	14367.9375
2425.5308	14374.6375
2428.31606	14335.7375
2431.09956	14326.9375
2433.88131	14276.3375
2436.6613	14305.6375
2439.43954	14262.7375
2442.21603	14265.0375
2444.99077	14271.0375
2447.76377	14282.5375
2450.53501	14248.2375
2453.30451	14265.7375
2456.07226	14239.4375
2458.83827	14256.5375
2461.60254	14254.2375
2464.36507	14255.4375
2467.12586	14228.3375
2469.88492	14223.2375
2472.64224	14217.6375
2475.39782	14209.6375
2478.15167	14230.6375
2480.90379	14179.2375
2483.65417	14193.7375
2486.40283	14173.5375
2489.14976	14186.3375
2491.89497	14183.9375
2494.63845	14177.9375
2497.3802	14141.5375
2500.12024	14151.5375
2502.85855	14143.7375
2505.59514	14130.6375
2508.33002	14099.2375
2511.06318	14098.0375
2513.79462	14072.4375
2516.52435	14057.5375
2519.25237	14047.5375
2521.97867	14014.5375
2524.70327	14020.2375
2527.42616	13989.3375
2530.14734	13945.8375
2532.86681	13952.6375
2535.58458	13934.6375
2538.30065	13885.9375
2541.01501	13902.9375
2543.72768	13877.4375
2546.43864	13860.1375
2549.14791	13871.1375
2551.85548	13861.2375
2554.56136	13861.4375
2557.26554	13839.7375
2559.96803	13812.7375
2562.66883	13777.4375
2565.36794	13802.8375
2568.06536	13823.3375
2570.7611	13789.2375
2573.45514	13765.6375
2576.14751	13745.0375
2578.83819	13749.2375
2581.52719	13750.8375
2584.21451	13698.8375
2586.90015	13699.3375
2589.58411	13682.3375
2592.2664	13658.2375
2594.94701	13655.2375
2597.62594	13651.8375
2600.30321	13610.0375
2602.9788	13617.6375
2605.65273	13620.2375
2608.32498	13595.5375
2610.99557	13595.7375
2613.66449	13599.9375
2616.33175	13605.2375
2618.99734	13615.5375
2621.66128	13576.6375
2624.32355	13573.0375
2626.98416	13551.5375
2629.64311	13527.8375
2632.30041	13518.1375
2634.95605	13521.0375
2637.61004	13490.5375
2640.26238	13512.4375
2642.91306	13467.7375
2645.56209	13467.6375
2648.20948	13472.1375
2650.85521	13476.7375
2653.4993	13472.7375
2656.14175	13473.9375
2658.78255	13495.8375
2661.42171	13519.3375
2664.05923	13506.8375
2666.6951	13479.9375
2669.32934	13484.8375
2671.96194	13509.8375
2674.59291	13516.1375
2677.22224	13520.2375
2679.84993	13506.5375
2682.476	13499.0375
2685.10043	13515.8375
2687.72324	13480.8375
2690.34441	13481.8375
2692.96396	13441.9375
2695.58188	13508.2375
2698.19818	13498.9375
2700.81285	13467.3375
2703.4259	13500.1375
2706.03733	13475.9375
2708.64714	13492.2375
2711.25533	13495.6375
2713.86191	13470.7375
2716.46687	13524.7375
2719.07021	13503.9375
2721.67194	13511.9375
2724.27206	13500.5375
2726.87057	13483.6375
2729.46747	13503.1375
2732.06276	13522.1375
2734.65644	13528.4375
2737.24852	13531.7375
2739.83899	13510.0375
2742.42786	13513.8375
2745.01513	13467.6375
2747.60079	13483.0375
2750.18486	13480.8375
2752.76733	13464.0375
2755.3482	13458.0375
2757.92747	13461.6375
2760.50515	13446.4375
2763.08123	13451.5375
2765.65573	13436.6375
2768.22863	13434.4375
2770.79994	13418.3375
2773.36967	13399.3375
2775.9378	13387.3375
2778.50435	13370.6375
2781.06932	13368.6375
2783.6327	13344.8375
2786.1945	13371.1375
2788.75471	13361.2375
2791.31335	13310.6375
2793.87041	13327.2375
2796.42589	13230.8375
2798.97979	13261.8375
2801.53212	13241.8375
2804.08288	13240.8375
2806.63206	13225.2375
2809.17967	13194.4375
2811.72571	13173.3375
2814.27018	13166.0375
2816.81308	13156.9375
2819.35442	13125.5375
2821.89419	13107.7375
2824.43239	13136.6375
2826.96904	13110.2375
2829.50412	13106.4375
2832.03763	13050.8375
2834.56959	13047.8375
2837.1	13043.4375
2839.62884	13053.2375
2842.15613	13052.4375
2844.68186	13097.9375
2847.20604	13112.9375
2849.72867	13152.4375
2852.24974	13106.3375
2854.76927	13142.3375
2857.28724	13147.3375
2859.80367	13118.7375
2862.31855	13091.6375
2864.83189	13094.3375
2867.34368	13069.3375
2869.85393	13047.7375
2872.36264	13052.6375
2874.8698	13066.2375
2877.37543	13076.2375
2879.87952	13089.8375
2882.38207	13067.2375
2884.88308	13087.7375
2887.38256	13109.3375
2889.88051	13099.2375
2892.37692	13115.7375
2894.8718	13110.2375
2897.36515	13111.0375
2899.85698	13134.4375
2902.34727	13164.1375
2904.83604	13160.0375
2907.32328	13187.5375
2909.809	13163.2375
2912.29319	13161.6375
2914.77587	13128.6375
2917.25702	13163.9375
2919.73665	13129.2375
2922.21476	13131.1375
2924.69136	13123.7375
2927.16644	13098.9375
2929.64	13138.0375
2932.11205	13115.4375
2934.58258	13062.3375
2937.05161	13076.7375
2939.51912	13053.0375
2941.98513	13012.1375
2944.44962	12945.3375
2946.91261	12887.0375
2949.37409	12895.3375
2951.83407	12861.1375
2954.29254	12846.0375
2956.74951	12806.2375
2959.20498	12792.8375
2961.65895	12750.8375
2964.11142	12729.0375
2966.56239	12716.1375
2969.01186	12681.3375
2971.45984	12612.9375
2973.90632	12593.1375
2976.35131	12549.6375
2978.7948	12514.5375
2981.23681	12431.4375
2983.67732	12425.1375
2986.11635	12366.1375
2988.55388	12311.4375
2990.98993	12289.8375
2993.4245	12256.5375
2995.85758	12209.8375
2998.28917	12160.7375
3000.71928	12177.9375
3003.14791	12146.5375
3005.57506	12121.2375
3008.00073	12069.0375
3010.42493	12069.5375
3012.84764	12055.6375
3015.26888	12024.0375
3017.68865	12010.0375
3020.10694	11945.0375
3022.52376	11928.5375
3024.9391	11918.3375
3027.35298	11890.8375
3029.76539	11853.6375
3032.17632	11875.4375
3034.5858	11814.5375
3036.9938	11807.9375
3039.40034	11807.5375
3041.80542	11812.7375
3044.20903	11757.8375
3046.61118	11740.5375
3049.01187	11700.0375
3051.4111	11725.4375
3053.80888	11647.5375
3056.20519	11621.7375
3058.60005	11598.6375
3060.99345	11596.9375
3063.3854	11543.5375
3065.7759	11521.9375
3068.16494	11489.2375
3070.55254	11454.0375
3072.93868	11426.6375
3075.32338	11404.5375
3077.70662	11354.7375
3080.08842	11330.0375
3082.46878	11337.6375
3084.84769	11301.8375
3087.22515	11291.9375
3089.60118	11299.7375
3091.97576	11262.8375
3094.3489	11235.1375
3096.72061	11228.1375
3099.09087	11264.0375
3101.4597	11218.3375
3103.82709	11195.8375
3106.19305	11164.9375
3108.55757	11144.6375
3110.92066	11112.2375
3113.28232	11091.1375
3115.64255	11040.0375
3118.00134	11032.9375
3120.35871	10994.7375
3122.71466	10978.2375
3125.06917	10965.1375
3127.42226	10919.9375
3129.77393	10941.9375
3132.12417	10911.4375
3134.47299	10926.9375
3136.82039	10942.6375
3139.16636	10902.3375
3141.51092	10885.0375
3143.85406	10902.4375
3146.19579	10910.2375
3148.53609	10866.3375
3150.87499	10897.3375
3153.21246	10866.5375
3155.54853	10887.4375
3157.88318	10862.9375
3160.21642	10860.2375
3162.54826	10880.4375
3164.87868	10853.6375
3167.2077	10840.4375
3169.5353	10855.5375
3171.86151	10828.3375
3174.18631	10822.4375
3176.5097	10827.9375
3178.83169	10804.2375
3181.15228	10805.8375
3183.47147	10772.7375
3185.78926	10752.2375
3188.10565	10728.0375
3190.42065	10740.9375
3192.73424	10733.7375
3195.04645	10709.9375
3197.35725	10688.1375
3199.66667	10663.2375
3201.97469	10687.8375
3204.28132	10661.4375
3206.58656	10675.2375
3208.8904	10656.1375
3211.19287	10666.8375
3213.49394	10659.0375
3215.79363	10639.1375
3218.09193	10637.8375
3220.38884	10665.2375
3222.68438	10633.0375
3224.97853	10623.5375
3227.2713	10617.3375
3229.56269	10611.8375
3231.8527	10620.8375
3234.14133	10594.1375
3236.42858	10566.4375
3238.71446	10535.7375
3240.99896	10533.6375
3243.28209	10545.6375
3245.56384	10532.7375
3247.84423	10556.2375
3250.12324	10518.4375
3252.40088	10493.2375
3254.67715	10487.2375
3256.95205	10425.4375
3259.22558	10422.9375
3261.49775	10391.8375
3263.76855	10396.6375
3266.03799	10349.0375
3268.30606	10357.5375
3270.57277	10330.4375
3272.83812	10293.5375
3275.10211	10279.7375
3277.36474	10272.2375
3279.62601	10276.9375
3281.88593	10290.8375
3284.14448	10290.3375
3286.40168	10305.0375
3288.65753	10274.5375
3290.91202	10261.3375
3293.16516	10230.9375
3295.41695	10193.6375
3297.66738	10152.7375
3299.91647	10072.5375
3302.16421	10008.9375
3304.4106	9964.2375
3306.65564	9906.2375
3308.89933	9830.6375
3311.14169	9744.1375
3313.38269	9670.6375
3315.62236	9597.9375
3317.86068	9520.8375
3320.09766	9417.3375
3322.3333	9343.9375
3324.5676	9353.8375
3326.80056	9179.1375
3329.03219	9160.4375
3331.26248	1.6375
3333.49143	-0.1625
3335.71905	-1.6625
