Data from AgNPs_FTO_APTES_UA_2uM_CRN_0uM_R6G_10uM_NaF_0.1M_Addition_RamanShift__3__10-07-54-915.txt Node

Date: Wed Feb 02 10:07:54 GMT 2022
User: TCL
Spectrometer: QEP01345
Trigger mode: 4
Integration Time (sec): 7.000000E0
Scans to average: 10
Electric dark correction enabled: true
Nonlinearity correction enabled: false
Boxcar width: 0
XAxis mode: Raman Shifts
Number of Pixels in Spectrum: 1044
>>>>>Begin Spectral Data<<<<<
46.04893	1.2
50.45542	1.1
54.85868	-0.1
59.25871	-1.2
63.6555	28.7
68.04907	32.1
72.43941	33.4
76.82654	40
81.21044	40
85.59113	45.4
89.96862	46.4
94.34289	49.4
98.71396	46.6
103.08183	52
107.4465	50.7
111.80798	49.7
116.16626	49.6
120.52136	49.8
124.87327	49
129.222	52.2
133.56755	50.8
137.90993	50.4
142.24913	56.9
146.58517	61.2
150.91804	62.5
155.24774	70.2
159.57429	80.2
163.89768	94.1
168.21792	115.1
172.53501	149.7
176.84895	193.4
181.15975	267.1
185.46741	365.2
189.77193	493.2
194.07331	673.5
198.37157	871.3
202.6667	1094.1
206.9587	1321.2
211.24758	1540.3
215.53334	1772.2
219.81599	2004.5
224.09553	2261.3
228.37195	2547.2
232.64527	2850.2
236.91549	3164.4
241.18261	3494.5
245.44663	3803
249.70755	4060.5
253.96539	4291.2
258.22014	4457.2
262.4718	4564.4
266.72039	4580.1
270.96589	4533.7
275.20832	4437.6
279.44768	4310.7
283.68397	4143.4
287.91719	4005.5
292.14735	3867
296.37445	3758
300.59849	3668.4
304.81948	3622.8
309.03742	3579
313.25231	3543.9
317.46415	3499.1
321.67296	3449.5
325.87872	3392.8
330.08145	3373.4
334.28114	3352.9
338.47781	3347.9
342.67145	3350.1
346.86207	3353.6
351.04966	3367.5
355.23424	3346
359.4158	3337.2
363.59435	3309.6
367.76989	3264.1
371.94243	3228
376.11196	3192.5
380.27849	3157.3
384.44203	3125.6
388.60257	3103
392.76012	3089.6
396.91468	3091.7
401.06626	3098.2
405.21485	3111
409.36047	3107.3
413.50311	3061.8
417.64277	3037.8
421.77947	3042.6
425.9132	3054
430.04396	3073.4
434.17176	3091.4
438.2966	3107.6
442.41849	3154.7
446.53742	3186.1
450.6534	3235.9
454.76644	3266.1
458.87653	3275.2
462.98368	3285.6
467.08789	3275.2
471.18916	3253.6
475.2875	3253.4
479.38291	3233.5
483.4754	3215.3
487.56496	3198.7
491.6516	3183.8
495.73531	3180.1
499.81612	3181.5
503.89401	3182.2
507.96899	3183.7
512.04106	3193.3
516.11023	3205.2
520.1765	3200.5
524.23987	3197.9
528.30034	3169.2
532.35792	3140
536.41261	3120
540.46441	3095.1
544.51333	3072
548.55936	3079.8
552.60252	3088
556.64279	3114.3
560.6802	3127.7
564.71473	3143.7
568.7464	3156.5
572.7752	3170.1
576.80114	3147.1
580.82422	3126.3
584.84444	3139.6
588.86181	3178.1
592.87633	3217
596.888	3276
600.89682	3342.5
604.9028	3466.7
608.90594	3766.7
612.90624	4177.7
616.90371	4216.6
620.89834	3800.2
624.89015	3457.2
628.87913	3307.5
632.86528	3216.4
636.84862	3170.8
640.82913	3117.8
644.80683	3077.7
648.78172	3055.5
652.75379	3064.1
656.72306	3104.5
660.68952	3167.9
664.65319	3182.7
668.61405	3195.3
672.57211	3248.5
676.52738	3327.2
680.47986	3408.4
684.42955	3460
688.37646	3472
692.32058	3458.6
696.26192	3429
700.20048	3413.9
704.13626	3420.9
708.06928	3417.1
711.99952	3408.1
715.927	3380.2
719.85171	3359.4
723.77365	3335.1
727.69284	3325.1
731.60928	3302.2
735.52295	3291
739.43388	3277.7
743.34206	3268.8
747.24749	3262.6
751.15017	3253.5
755.05012	3274.8
758.94733	3287.4
762.8418	3364
766.73354	3484.5
770.62254	3629.4
774.50882	3728
778.39237	3685.3
782.27321	3531.8
786.15132	3396.1
790.02671	3326.9
793.89938	3292.5
797.76935	3276.9
801.6366	3298.3
805.50115	3294.1
809.36299	3300.8
813.22213	3282.8
817.07857	3276.9
820.93231	3262.1
824.78336	3259.2
828.63172	3249.1
832.47738	3245.4
836.32036	3248.1
840.16066	3263.5
843.99827	3255.2
847.8332	3274.5
851.66546	3260.3
855.49504	3257
859.32195	3249.2
863.1462	3267.3
866.96777	3272.6
870.78668	3301.4
874.60293	3321.9
878.41652	3361.9
882.22745	3403.3
886.03573	3457.9
889.84136	3520.1
893.64433	3600.7
897.44466	3641.9
901.24235	3706.5
905.0374	3759.7
908.8298	3847
912.61957	3967.4
916.40671	4121.2
920.19121	4300.4
923.97308	4439
927.75233	4560.5
931.52895	4559.1
935.30295	4456.4
939.07433	4322.5
942.84309	4140.8
946.60924	3986.5
950.37278	3877.9
954.13371	3793.8
957.89203	3718.4
961.64774	3627.7
965.40086	3573.5
969.15137	3499.8
972.89929	3447.3
976.64461	3396.3
980.38733	3360.6
984.12747	3341.5
987.86502	3332.3
991.59999	3325.7
995.33237	3336.9
999.06217	3370.5
1002.78939	3400.1
1006.51404	3406.5
1010.23611	3422.7
1013.95561	3440.6
1017.67255	3410.2
1021.38692	3377.9
1025.09872	3358.3
1028.80796	3361.4
1032.51465	3361
1036.21877	3371.9
1039.92035	3418.9
1043.61937	3456.6
1047.31584	3507.5
1051.00976	3544.9
1054.70114	3601.6
1058.38998	3601.4
1062.07627	3594.2
1065.76003	3568
1069.44126	3530.9
1073.11995	3462.7
1076.79611	3438.4
1080.46974	3392.4
1084.14085	3384
1087.80943	3369.6
1091.47549	3362.5
1095.13903	3350.2
1098.80005	3299.4
1102.45857	3269.5
1106.11456	3244.5
1109.76805	3244.9
1113.41903	3224.2
1117.06751	3248
1120.71348	3286.5
1124.35696	3341.3
1127.99793	3391.2
1131.63641	3439.5
1135.2724	3389.8
1138.90589	3312.4
1142.5369	3257.1
1146.16542	3223.5
1149.79145	3177.8
1153.415	3167.2
1157.03607	3136.4
1160.65467	3152.6
1164.27079	3195.2
1167.88443	3249.5
1171.49561	3344.1
1175.10432	3520.3
1178.71056	3739.3
1182.31434	3979.2
1185.91565	4148
1189.51451	4202.1
1193.11091	4150.2
1196.70485	4024.8
1200.29634	3853.4
1203.88538	3691.4
1207.47197	3549.7
1211.05612	3443.4
1214.63782	3369.8
1218.21708	3372.2
1221.79391	3395.7
1225.36829	3431.6
1228.94024	3472.2
1232.50976	3511.4
1236.07685	3491.6
1239.6415	3477
1243.20374	3457.4
1246.76355	3435.3
1250.32093	3445.6
1253.8759	3473.8
1257.42845	3491.1
1260.97859	3530.3
1264.52631	3608.5
1268.07163	3656
1271.61453	3724.8
1275.15503	3752.6
1278.69312	3813
1282.22882	3849.7
1285.76211	3931.1
1289.29301	4014.6
1292.82151	4127.6
1296.34761	4217.6
1299.87133	4317.9
1303.39266	4425.1
1306.9116	4555.7
1310.42815	4718.8
1313.94233	4796
1317.45412	4755.2
1320.96354	4624.3
1324.47058	4486.5
1327.97525	4394.6
1331.47754	4361.3
1334.97747	4354.6
1338.47502	4392.2
1341.97022	4451.1
1345.46305	4545.2
1348.95352	4675.7
1352.44163	4866
1355.92738	5085.4
1359.41078	5377.4
1362.89183	5693.1
1366.37053	5812.1
1369.84688	5545.9
1373.32088	5193.6
1376.79254	4968.1
1380.26186	4869.8
1383.72883	4845.8
1387.19347	4841.6
1390.65578	4845.4
1394.11575	4837.5
1397.57339	4821.1
1401.0287	4800.6
1404.48168	4760.9
1407.93234	4703.2
1411.38068	4629.8
1414.82669	4543.4
1418.27039	4494.4
1421.71177	4434.3
1425.15083	4344.7
1428.58758	4267.5
1432.02203	4204.1
1435.45416	4189.5
1438.88399	4167.7
1442.31151	4139.3
1445.73673	4121.3
1449.15965	4084.3
1452.58027	4061.5
1455.9986	4008.2
1459.41463	4014.7
1462.82837	4019.8
1466.23982	4036.9
1469.64898	4056.2
1473.05586	4090.1
1476.46045	4102.3
1479.86276	4123.2
1483.26279	4147.5
1486.66054	4163.7
1490.05602	4204.1
1493.44922	4256.1
1496.84016	4301.4
1500.22882	4405.8
1503.61521	4561.9
1506.99934	4741.9
1510.38121	4923.9
1513.76081	4957.2
1517.13816	4858.6
1520.51324	4609.6
1523.88607	4345.1
1527.25665	4200.8
1530.62498	4077.6
1533.99105	4008.1
1537.35488	3939
1540.71647	3909.5
1544.07581	3852.2
1547.4329	3813.7
1550.78776	3789.6
1554.14038	3768.2
1557.49077	3760.7
1560.83892	3752.9
1564.18484	3736.6
1567.52853	3747.8
1570.86999	3763.2
1574.20922	3774
1577.54624	3746.9
1580.88103	3687.7
1584.2136	3583.6
1587.54395	3510.7
1590.87208	3507.3
1594.19801	3493.5
1597.52172	3534.8
1600.84321	3539.7
1604.16251	3499.2
1607.47959	3420.7
1610.79447	3356.9
1614.10715	3294.6
1617.41763	3242.9
1620.7259	3204.8
1624.03199	3181.9
1627.33587	3183.4
1630.63757	3184.3
1633.93707	3200.1
1637.23439	3230.3
1640.52951	3312.9
1643.82246	3406.5
1647.11321	3537.4
1650.40179	3616.1
1653.68819	3546.3
1656.97241	3316.9
1660.25446	3051.6
1663.53433	2852.4
1666.81203	2722.9
1670.08756	2636.9
1673.36092	2553.6
1676.63211	2507.5
1679.90115	2460.6
1683.16801	2424.7
1686.43272	2394.3
1689.69527	2347.1
1692.95567	2325.4
1696.2139	2299.5
1699.46999	2273.6
1702.72392	2259.8
1705.97571	2245.4
1709.22535	2233.2
1712.47284	2212.8
1715.71819	2203.1
1718.96139	2199
1722.20246	2180.8
1725.44139	2168.2
1728.67818	2168.6
1731.91284	2146.6
1735.14537	2136.2
1738.37576	2129.6
1741.60403	2134.2
1744.83017	2112.6
1748.05418	2119.5
1751.27607	2108.5
1754.49584	2125.8
1757.71349	2116.9
1760.92903	2117.5
1764.14244	2103.5
1767.35375	2082.9
1770.56294	2085.8
1773.77002	2062.7
1776.97499	2052.1
1780.17785	2048.6
1783.37861	2041.2
1786.57727	2024.4
1789.77382	2027.4
1792.96828	2015.8
1796.16064	2013.7
1799.3509	2012.2
1802.53907	1998.2
1805.72514	1998.7
1808.90913	1987.2
1812.09102	1988.4
1815.27083	1975.2
1818.44856	1976.1
1821.6242	1970
1824.79776	1972.5
1827.96924	1949.6
1831.13864	1957.2
1834.30597	1952.2
1837.47122	1951.1
1840.6344	1946.9
1843.7955	1959.6
1846.95454	1949.3
1850.11151	1941.9
1853.26642	1941.9
1856.41926	1941.5
1859.57004	1925.7
1862.71876	1926
1865.86542	1929.4
1869.01003	1921.7
1872.15258	1917.2
1875.29308	1921.4
1878.43152	1914
1881.56792	1899.5
1884.70227	1902.4
1887.83457	1903.5
1890.96482	1900.5
1894.09304	1896.9
1897.21921	1897.4
1900.34335	1893.6
1903.46544	1890.9
1906.58551	1902.8
1909.70353	1880
1912.81953	1888.4
1915.93349	1880.3
1919.04543	1871.9
1922.15534	1864.7
1925.26322	1871.9
1928.36908	1857.2
1931.47292	1856.7
1934.57473	1850.8
1937.67453	1854.5
1940.77232	1852.1
1943.86808	1848
1946.96184	1844.6
1950.05358	1827
1953.14331	1822.1
1956.23103	1821.6
1959.31675	1821.7
1962.40046	1807.4
1965.48217	1807.2
1968.56188	1800.6
1971.63959	1786.2
1974.7153	1802.1
1977.78901	1786.4
1980.86073	1778.5
1983.93046	1772.3
1986.99819	1759.5
1990.06394	1764.5
1993.1277	1758.6
1996.18947	1747.3
1999.24925	1748.1
2002.30706	1747.6
2005.36288	1735.2
2008.41672	1734.1
2011.46859	1729.6
2014.51848	1727.5
2017.56639	1716.6
2020.61233	1709
2023.6563	1712.3
2026.6983	1709.2
2029.73833	1698.2
2032.7764	1703.6
2035.8125	1690.7
2038.84664	1692.4
2041.87881	1689.3
2044.90903	1682.6
2047.93729	1694.2
2050.96359	1684.7
2053.98794	1690.2
2057.01034	1697.1
2060.03078	1703
2063.04927	1710.6
2066.06582	1712
2069.08042	1730.4
2072.09307	1728.9
2075.10378	1748.1
2078.11255	1757.7
2081.11938	1777.1
2084.12426	1786.3
2087.12722	1798.3
2090.12824	1804
2093.12732	1819.1
2096.12447	1819.8
2099.11969	1825.7
2102.11299	1831.7
2105.10435	1856.7
2108.09379	1856.7
2111.08131	1850.2
2114.0669	1851.7
2117.05057	1843.7
2120.03233	1832.8
2123.01216	1835.6
2125.99008	1827.3
2128.96609	1813.3
2131.94018	1804.7
2134.91236	1795.1
2137.88263	1774.2
2140.851	1762.8
2143.81746	1759.3
2146.78201	1744.2
2149.74466	1723.5
2152.7054	1721.7
2155.66425	1695.5
2158.6212	1682.3
2161.57625	1683.2
2164.52941	1669.3
2167.48067	1659.7
2170.43004	1663.3
2173.37752	1662.7
2176.32311	1656.2
2179.26681	1657.1
2182.20863	1641.8
2185.14856	1641.9
2188.08661	1638.5
2191.02278	1643.6
2193.95707	1641
2196.88948	1642.6
2199.82001	1635.6
2202.74867	1633.4
2205.67545	1638.8
2208.60037	1632.4
2211.52341	1610.5
2214.44458	1620.2
2217.36388	1616.4
2220.28132	1627.9
2223.1969	1609.5
2226.11061	1598.9
2229.02246	1598.7
2231.93245	1597.7
2234.84058	1592
2237.74686	1581.7
2240.65128	1591.7
2243.55385	1587.3
2246.45456	1573.1
2249.35343	1580.6
2252.25044	1566.8
2255.14561	1576
2258.03893	1565.9
2260.93041	1568.6
2263.82004	1556
2266.70783	1566.4
2269.59378	1551.6
2272.4779	1547.8
2275.36017	1551.2
2278.24061	1546.4
2281.11922	1533.9
2283.996	1531.4
2286.87094	1542.5
2289.74405	1525
2292.61534	1524.7
2295.4848	1533.5
2298.35243	1521.4
2301.21824	1523.1
2304.08223	1518.1
2306.94439	1506.1
2309.80474	1518
2312.66327	1514
2315.51999	1512.5
2318.37489	1517.7
2321.22797	1515.5
2324.07925	1507.5
2326.92871	1508.6
2329.77637	1500.8
2332.62222	1497.9
2335.46626	1500.4
2338.3085	1492.2
2341.14893	1491.4
2343.98756	1487.3
2346.8244	1482.1
2349.65943	1487.8
2352.49267	1487.8
2355.32411	1484.7
2358.15376	1481.3
2360.98161	1482.3
2363.80768	1473.4
2366.63195	1469.9
2369.45444	1475.2
2372.27514	1480.4
2375.09405	1475.1
2377.91118	1467.9
2380.72652	1468.2
2383.54009	1462.8
2386.35187	1472.7
2389.16188	1447.3
2391.97011	1455
2394.77657	1450.7
2397.58125	1443.6
2400.38416	1439.4
2403.18529	1442.7
2405.98466	1426.1
2408.78226	1425.2
2411.57809	1429.2
2414.37216	1423.4
2417.16446	1424.2
2419.955	1420.5
2422.74378	1413.7
2425.5308	1412.3
2428.31606	1428.6
2431.09956	1425.6
2433.88131	1412.6
2436.6613	1408.2
2439.43954	1403.7
2442.21603	1409.6
2444.99077	1401
2447.76377	1412.6
2450.53501	1403.2
2453.30451	1394
2456.07226	1394.2
2458.83827	1397
2461.60254	1393.9
2464.36507	1391.9
2467.12586	1376.2
2469.88492	1391.6
2472.64224	1387
2475.39782	1385.3
2478.15167	1381.6
2480.90379	1380.1
2483.65417	1377.2
2486.40283	1388.1
2489.14976	1390.7
2491.89497	1390.1
2494.63845	1374.1
2497.3802	1366.8
2500.12024	1374.2
2502.85855	1367.4
2505.59514	1372.8
2508.33002	1371.2
2511.06318	1366.6
2513.79462	1368.7
2516.52435	1357.2
2519.25237	1365.2
2521.97867	1348.9
2524.70327	1352.8
2527.42616	1351.9
2530.14734	1350.6
2532.86681	1344.4
2535.58458	1346
2538.30065	1333.6
2541.01501	1337.2
2543.72768	1334.3
2546.43864	1333.8
2549.14791	1330.7
2551.85548	1326
2554.56136	1319.5
2557.26554	1321
2559.96803	1325.3
2562.66883	1325.9
2565.36794	1314.2
2568.06536	1322.5
2570.7611	1316.2
2573.45514	1311.5
2576.14751	1314.1
2578.83819	1301.4
2581.52719	1305.6
2584.21451	1306.6
2586.90015	1309.7
2589.58411	1298.4
2592.2664	1304.7
2594.94701	1307.7
2597.62594	1300.5
2600.30321	1291.4
2602.9788	1291
2605.65273	1284.6
2608.32498	1289.2
2610.99557	1290.8
2613.66449	1281.1
2616.33175	1276.5
2618.99734	1280.6
2621.66128	1269.6
2624.32355	1271.3
2626.98416	1278.3
2629.64311	1268.7
2632.30041	1273.2
2634.95605	1277.4
2637.61004	1274.1
2640.26238	1269.1
2642.91306	1266.2
2645.56209	1270.1
2648.20948	1262.1
2650.85521	1269.8
2653.4993	1273.2
2656.14175	1267
2658.78255	1266.5
2661.42171	1278.1
2664.05923	1270.7
2666.6951	1272.9
2669.32934	1274
2671.96194	1280.5
2674.59291	1284.5
2677.22224	1284.4
2679.84993	1278.5
2682.476	1280.1
2685.10043	1281.5
2687.72324	1278.5
2690.34441	1277.7
2692.96396	1284.3
2695.58188	1283
2698.19818	1279.9
2700.81285	1285.4
2703.4259	1277.1
2706.03733	1268.4
2708.64714	1281.7
2711.25533	1282.9
2713.86191	1284.2
2716.46687	1298.8
2719.07021	1287.8
2721.67194	1287.3
2724.27206	1289.8
2726.87057	1298.7
2729.46747	1291.4
2732.06276	1287.6
2734.65644	1288.7
2737.24852	1294.5
2739.83899	1295.1
2742.42786	1291.2
2745.01513	1293.2
2747.60079	1290.9
2750.18486	1286.2
2752.76733	1290.8
2755.3482	1299.5
2757.92747	1304.1
2760.50515	1295.1
2763.08123	1301.4
2765.65573	1299.8
2768.22863	1297.6
2770.79994	1291.6
2773.36967	1291.4
2775.9378	1283.8
2778.50435	1293.1
2781.06932	1295.7
2783.6327	1291.7
2786.1945	1291.3
2788.75471	1282.9
2791.31335	1287.6
2793.87041	1284.2
2796.42589	1290.6
2798.97979	1281.2
2801.53212	1280
2804.08288	1289
2806.63206	1282.5
2809.17967	1272.9
2811.72571	1286
2814.27018	1276.3
2816.81308	1277.2
2819.35442	1274.3
2821.89419	1269.6
2824.43239	1276.5
2826.96904	1270.4
2829.50412	1274.9
2832.03763	1274.4
2834.56959	1273.4
2837.1	1282.2
2839.62884	1299.9
2842.15613	1306.8
2844.68186	1333.2
2847.20604	1356.2
2849.72867	1371.7
2852.24974	1387.4
2854.76927	1393.6
2857.28724	1390.9
2859.80367	1403.3
2862.31855	1417.4
2864.83189	1420.1
2867.34368	1429.6
2869.85393	1440.6
2872.36264	1451.8
2874.8698	1461.8
2877.37543	1471.2
2879.87952	1481.2
2882.38207	1509.5
2884.88308	1515.2
2887.38256	1519.4
2889.88051	1526.6
2892.37692	1525.7
2894.8718	1527.3
2897.36515	1546.7
2899.85698	1551.6
2902.34727	1563.5
2904.83604	1575.3
2907.32328	1592.7
2909.809	1589.3
2912.29319	1593.6
2914.77587	1609.2
2917.25702	1609.9
2919.73665	1608.9
2922.21476	1608.5
2924.69136	1620
2927.16644	1619.2
2929.64	1632.8
2932.11205	1621.4
2934.58258	1624.1
2937.05161	1613.7
2939.51912	1610.9
2941.98513	1593.9
2944.44962	1566
2946.91261	1536.6
2949.37409	1522.3
2951.83407	1500.6
2954.29254	1484.2
2956.74951	1451
2959.20498	1437.6
2961.65895	1416.7
2964.11142	1400
2966.56239	1383.4
2969.01186	1373
2971.45984	1359.9
2973.90632	1343.8
2976.35131	1320
2978.7948	1306.3
2981.23681	1297.6
2983.67732	1285.8
2986.11635	1272.5
2988.55388	1281.6
2990.98993	1267.1
2993.4245	1252.8
2995.85758	1246.5
2998.28917	1242.5
3000.71928	1236.7
3003.14791	1242.8
3005.57506	1239.4
3008.00073	1220.7
3010.42493	1221.6
3012.84764	1227.5
3015.26888	1224
3017.68865	1221.5
3020.10694	1223.1
3022.52376	1217.6
3024.9391	1209.3
3027.35298	1209.6
3029.76539	1216.2
3032.17632	1206
3034.5858	1209.2
3036.9938	1204
3039.40034	1212.5
3041.80542	1208.1
3044.20903	1207
3046.61118	1200.8
3049.01187	1198.6
3051.4111	1200.5
3053.80888	1197.4
3056.20519	1192.8
3058.60005	1198.5
3060.99345	1209.5
3063.3854	1197.9
3065.7759	1204.3
3068.16494	1202.6
3070.55254	1198.3
3072.93868	1213.5
3075.32338	1201.3
3077.70662	1208.4
3080.08842	1207.1
3082.46878	1211.9
3084.84769	1212.5
3087.22515	1210.5
3089.60118	1219.8
3091.97576	1218.9
3094.3489	1231.1
3096.72061	1232.1
3099.09087	1246.4
3101.4597	1235.9
3103.82709	1239.8
3106.19305	1241
3108.55757	1249.6
3110.92066	1249.8
3113.28232	1245.8
3115.64255	1253.1
3118.00134	1252.1
3120.35871	1264.4
3122.71466	1260.2
3125.06917	1266.1
3127.42226	1272.9
3129.77393	1278
3132.12417	1283.1
3134.47299	1291.4
3136.82039	1299.8
3139.16636	1297.9
3141.51092	1309.9
3143.85406	1310.1
3146.19579	1321.3
3148.53609	1325.8
3150.87499	1334.7
3153.21246	1346.9
3155.54853	1349.5
3157.88318	1350.9
3160.21642	1361.1
3162.54826	1364
3164.87868	1383
3167.2077	1367.2
3169.5353	1383.3
3171.86151	1390.3
3174.18631	1386.5
3176.5097	1397.4
3178.83169	1406.3
3181.15228	1406.6
3183.47147	1413.5
3185.78926	1406.6
3188.10565	1415.7
3190.42065	1419.3
3192.73424	1431.7
3195.04645	1430.8
3197.35725	1442.7
3199.66667	1439.4
3201.97469	1453.4
3204.28132	1458.6
3206.58656	1455.1
3208.8904	1466.3
3211.19287	1464.2
3213.49394	1470.2
3215.79363	1473.7
3218.09193	1481.7
3220.38884	1479.3
3222.68438	1481.1
3224.97853	1484.7
3227.2713	1490.3
3229.56269	1481.5
3231.8527	1497.1
3234.14133	1481
3236.42858	1490.8
3238.71446	1484.3
3240.99896	1497.7
3243.28209	1507.6
3245.56384	1499
3247.84423	1510
3250.12324	1512.4
3252.40088	1512.4
3254.67715	1510.5
3256.95205	1502.8
3259.22558	1513.7
3261.49775	1509.2
3263.76855	1508.3
3266.03799	1518.5
3268.30606	1513.2
3270.57277	1509
3272.83812	1495.8
3275.10211	1499.8
3277.36474	1499
3279.62601	1496.1
3281.88593	1492.8
3284.14448	1493.6
3286.40168	1489.5
3288.65753	1487.8
3290.91202	1491.6
3293.16516	1477.5
3295.41695	1478.6
3297.66738	1463.8
3299.91647	1464.8
3302.16421	1457
3304.4106	1457.5
3306.65564	1447.7
3308.89933	1448.7
3311.14169	1442.2
3313.38269	1429.3
3315.62236	1419.6
3317.86068	1404.6
3320.09766	1392.2
3322.3333	1388.5
3324.5676	1396
3326.80056	1368.7
3329.03219	1359.3
3331.26248	-0.4
3333.49143	-0.9
3335.71905	0.2
