Data from AgNPs_FTO_APTES_UA_2uM_CRN_100uM_R6G_10uM_NaF_0.1M_Addition_RamanShift__25__16-07-15-334.txt Node

Date: Wed Feb 02 16:07:15 GMT 2022
User: TCL
Spectrometer: QEP01345
Trigger mode: 4
Integration Time (sec): 7.000000E0
Scans to average: 10
Electric dark correction enabled: true
Nonlinearity correction enabled: false
Boxcar width: 0
XAxis mode: Raman Shifts
Number of Pixels in Spectrum: 1044
>>>>>Begin Spectral Data<<<<<
46.04893	0.4875
50.45542	1.0875
54.85868	-1.6125
59.25871	1.0875
63.6555	78.7875
68.04907	83.1875
72.43941	85.6875
76.82654	91.3875
81.21044	94.2875
85.59113	103.0875
89.96862	102.6875
94.34289	105.8875
98.71396	111.3875
103.08183	115.3875
107.4465	116.4875
111.80798	121.7875
116.16626	118.3875
120.52136	124.7875
124.87327	128.0875
129.222	134.0875
133.56755	148.5875
137.90993	158.3875
142.24913	170.0875
146.58517	189.9875
150.91804	220.1875
155.24774	265.7875
159.57429	325.5875
163.89768	415.5875
168.21792	546.2875
172.53501	751.2875
176.84895	1032.3875
181.15975	1451.8875
185.46741	2025.3875
189.77193	2793.8875
194.07331	3745.8875
198.37157	4795.3875
202.6667	5956.0875
206.9587	7078.5875
211.24758	8188.4875
215.53334	9329.7875
219.81599	10549.7875
224.09553	11926.5875
228.37195	13436.6875
232.64527	15075.8875
236.91549	16775.1875
241.18261	18404.0875
245.44663	19875.0875
249.70755	21153.2875
253.96539	22286.3875
258.22014	23288.3875
262.4718	24165.0875
266.72039	24829.8875
270.96589	25261.6875
275.20832	25464.4875
279.44768	25437.5875
283.68397	25349.7875
287.91719	25326.9875
292.14735	25449.0875
296.37445	25755.3875
300.59849	26183.2875
304.81948	26473.6875
309.03742	26500.2875
313.25231	26000.1875
317.46415	24925.6875
321.67296	23510.5875
325.87872	22363.9875
330.08145	21763.5875
334.28114	21713.4875
338.47781	21888.2875
342.67145	22317.1875
346.86207	22913.0875
351.04966	23713.3875
355.23424	24607.4875
359.4158	25265.0875
363.59435	25645.5875
367.76989	25737.8875
371.94243	25827.3875
376.11196	25848.4875
380.27849	25904.8875
384.44203	25882.3875
388.60257	25808.8875
392.76012	25871.5875
396.91468	26145.8875
401.06626	26658.2875
405.21485	27022.4875
409.36047	26728.4875
413.50311	25868.3875
417.64277	25083.4875
421.77947	24697.0875
425.9132	24650.3875
430.04396	24796.3875
434.17176	25044.7875
438.2966	25312.6875
442.41849	25793.1875
446.53742	26562.8875
450.6534	27388.1875
454.76644	28001.7875
458.87653	28237.4875
462.98368	28138.7875
467.08789	27915.9875
471.18916	27713.6875
475.2875	27572.0875
479.38291	27505.1875
483.4754	27293.0875
487.56496	26749.7875
491.6516	26112.1875
495.73531	25556.7875
499.81612	25258.7875
503.89401	25316.5875
507.96899	25357.3875
512.04106	25372.3875
516.11023	25280.9875
520.1765	25226.2875
524.23987	24973.8875
528.30034	24615.8875
532.35792	24285.7875
536.41261	23930.5875
540.46441	23621.1875
544.51333	23625.2875
548.55936	23993.9875
552.60252	24657.9875
556.64279	25484.6875
560.6802	26020.7875
564.71473	26482.3875
568.7464	27260.5875
572.7752	28014.6875
576.80114	27879.8875
580.82422	27451.7875
584.84444	27279.0875
588.86181	27322.0875
592.87633	27641.0875
596.888	27944.4875
600.89682	28370.4875
604.9028	29906.7875
608.90594	34226.6875
612.90624	39670.1875
616.90371	37704.4875
620.89834	29029.4875
624.89015	24934.0875
628.87913	24321.7875
632.86528	24452.9875
636.84862	24580.5875
640.82913	24172.7875
644.80683	23302.3875
648.78172	22616.2875
652.75379	22430.6875
656.72306	22872.6875
660.68952	23595.5875
664.65319	23533.8875
668.61405	22877.0875
672.57211	22530.3875
676.52738	22517.6875
680.47986	22565.2875
684.42955	22451.7875
688.37646	22354.4875
692.32058	22451.8875
696.26192	22643.5875
700.20048	22942.5875
704.13626	23144.5875
708.06928	23125.1875
711.99952	22956.9875
715.927	22854.9875
719.85171	22840.0875
723.77365	22784.8875
727.69284	22587.9875
731.60928	22422.7875
735.52295	22305.6875
739.43388	22288.5875
743.34206	22363.3875
747.24749	22456.0875
751.15017	22693.9875
755.05012	23185.7875
758.94733	24162.6875
762.8418	26079.8875
766.73354	29165.0875
770.62254	32280.3875
774.50882	33408.9875
778.39237	31687.0875
782.27321	28148.4875
786.15132	25083.4875
790.02671	23284.9875
793.89938	22413.9875
797.76935	22068.4875
801.6366	21926.7875
805.50115	21880.8875
809.36299	21830.7875
813.22213	21712.9875
817.07857	21717.7875
820.93231	21718.2875
824.78336	21694.9875
828.63172	21667.0875
832.47738	21630.1875
836.32036	21564.2875
840.16066	21562.1875
843.99827	21483.0875
847.8332	21376.6875
851.66546	21311.0875
855.49504	21244.1875
859.32195	21197.1875
863.1462	21114.1875
866.96777	21061.9875
870.78668	21001.7875
874.60293	20982.4875
878.41652	21000.2875
882.22745	21084.0875
886.03573	21151.2875
889.84136	21121.8875
893.64433	21015.0875
897.44466	20940.1875
901.24235	20882.6875
905.0374	20840.9875
908.8298	20816.0875
912.61957	20845.8875
916.40671	21078.0875
920.19121	21335.6875
923.97308	21504.2875
927.75233	21549.6875
931.52895	21513.0875
935.30295	21258.8875
939.07433	20752.8875
942.84309	20321.8875
946.60924	20034.7875
950.37278	19894.1875
954.13371	19823.9875
957.89203	19827.7875
961.64774	19796.7875
965.40086	19852.5875
969.15137	19693.2875
972.89929	19539.3875
976.64461	19513.3875
980.38733	19420.3875
984.12747	19488.3875
987.86502	19594.5875
991.59999	19775.2875
995.33237	20020.3875
999.06217	20519.1875
1002.78939	21093.3875
1006.51404	21609.2875
1010.23611	21959.0875
1013.95561	22180.6875
1017.67255	22178.8875
1021.38692	21907.3875
1025.09872	21611.7875
1028.80796	21489.0875
1032.51465	21650.9875
1036.21877	21957.5875
1039.92035	22016.6875
1043.61937	21994.8875
1047.31584	21791.1875
1051.00976	21596.3875
1054.70114	21491.9875
1058.38998	21573.2875
1062.07627	21797.0875
1065.76003	22032.9875
1069.44126	22243.7875
1073.11995	22435.4875
1076.79611	22598.2875
1080.46974	22729.0875
1084.14085	23016.1875
1087.80943	23445.1875
1091.47549	23699.9875
1095.13903	23617.0875
1098.80005	23172.6875
1102.45857	22534.9875
1106.11456	22178.2875
1109.76805	22107.1875
1113.41903	22326.5875
1117.06751	22749.3875
1120.71348	23293.4875
1124.35696	23866.1875
1127.99793	24421.9875
1131.63641	24522.0875
1135.2724	23980.6875
1138.90589	23391.2875
1142.5369	23046.8875
1146.16542	23011.3875
1149.79145	23128.2875
1153.415	23322.0875
1157.03607	23753.3875
1160.65467	24374.2875
1164.27079	25338.1875
1167.88443	26722.9875
1171.49561	28740.8875
1175.10432	31627.9875
1178.71056	35328.8875
1182.31434	38331.7875
1185.91565	39677.6875
1189.51451	39414.1875
1193.11091	38111.3875
1196.70485	36345.0875
1200.29634	34579.8875
1203.88538	33069.3875
1207.47197	31674.7875
1211.05612	30550.9875
1214.63782	29694.4875
1218.21708	29106.5875
1221.79391	28725.0875
1225.36829	28434.1875
1228.94024	28091.0875
1232.50976	27663.3875
1236.07685	27482.5875
1239.6415	27334.2875
1243.20374	27388.0875
1246.76355	27557.7875
1250.32093	27947.5875
1253.8759	28609.2875
1257.42845	29459.0875
1260.97859	30314.8875
1264.52631	31079.6875
1268.07163	31815.1875
1271.61453	32697.6875
1275.15503	33507.2875
1278.69312	34308.1875
1282.22882	34948.1875
1285.76211	35811.3875
1289.29301	37033.6875
1292.82151	38706.0875
1296.34761	40752.8875
1299.87133	43193.4875
1303.39266	46171.8875
1306.9116	49823.7875
1310.42815	53766.8875
1313.94233	56577.6875
1317.45412	56990.8875
1320.96354	55837.1875
1324.47058	54242.7875
1327.97525	52675.1875
1331.47754	51552.4875
1334.97747	51093.0875
1338.47502	51215.5875
1341.97022	51347.9875
1345.46305	51093.4875
1348.95352	50472.1875
1352.44163	50151.2875
1355.92738	51043.9875
1359.41078	54013.4875
1362.89183	57628.9875
1366.37053	56652.8875
1369.84688	50617.0875
1373.32088	44022.6875
1376.79254	39878.0875
1380.26186	38139.6875
1383.72883	37886.4875
1387.19347	37980.7875
1390.65578	38000.5875
1394.11575	38240.6875
1397.57339	38975.5875
1401.0287	40154.3875
1404.48168	41210.2875
1407.93234	41705.9875
1411.38068	41375.8875
1414.82669	40039.6875
1418.27039	38019.8875
1421.71177	35831.0875
1425.15083	33980.5875
1428.58758	32770.4875
1432.02203	32483.1875
1435.45416	32810.5875
1438.88399	33520.7875
1442.31151	34236.3875
1445.73673	34976.9875
1449.15965	35790.2875
1452.58027	36569.9875
1455.9986	37154.4875
1459.41463	37654.5875
1462.82837	38350.7875
1466.23982	39103.0875
1469.64898	39581.4875
1473.05586	39764.4875
1476.46045	39561.1875
1479.86276	39156.0875
1483.26279	38799.9875
1486.66054	38572.1875
1490.05602	38697.3875
1493.44922	39063.6875
1496.84016	39645.8875
1500.22882	40962.4875
1503.61521	43123.1875
1506.99934	45934.1875
1510.38121	49005.4875
1513.76081	50766.9875
1517.13816	49824.0875
1520.51324	46426.5875
1523.88607	42851.3875
1527.25665	40352.8875
1530.62498	39059.8875
1533.99105	38447.4875
1537.35488	37997.2875
1540.71647	37610.6875
1544.07581	37104.2875
1547.4329	36494.2875
1550.78776	35881.4875
1554.14038	35579.5875
1557.49077	35589.7875
1560.83892	35827.7875
1564.18484	36246.5875
1567.52853	36584.2875
1570.86999	36790.9875
1574.20922	37199.7875
1577.54624	37499.4875
1580.88103	37242.9875
1584.2136	36967.5875
1587.54395	37437.4875
1590.87208	38921.9875
1594.19801	41134.4875
1597.52172	43440.8875
1600.84321	44231.2875
1604.16251	42455.5875
1607.47959	39291.4875
1610.79447	35696.5875
1614.10715	32419.0875
1617.41763	29666.1875
1620.7259	27744.0875
1624.03199	26714.7875
1627.33587	26569.1875
1630.63757	27254.5875
1633.93707	28841.3875
1637.23439	31458.4875
1640.52951	35032.1875
1643.82246	39449.8875
1647.11321	43516.7875
1650.40179	45611.7875
1653.68819	43876.8875
1656.97241	38535.2875
1660.25446	32396.8875
1663.53433	27630.9875
1666.81203	24550.5875
1670.08756	22606.8875
1673.36092	21427.1875
1676.63211	20649.6875
1679.90115	20109.6875
1683.16801	19713.0875
1686.43272	19466.0875
1689.69527	19221.1875
1692.95567	19074.8875
1696.2139	18951.9875
1699.46999	18879.7875
1702.72392	18762.3875
1705.97571	18732.1875
1709.22535	18650.1875
1712.47284	18568.5875
1715.71819	18564.7875
1718.96139	18509.6875
1722.20246	18470.9875
1725.44139	18399.2875
1728.67818	18284.6875
1731.91284	18163.4875
1735.14537	18081.9875
1738.37576	18005.9875
1741.60403	17936.6875
1744.83017	17888.1875
1748.05418	17833.7875
1751.27607	17814.4875
1754.49584	17801.2875
1757.71349	17780.7875
1760.92903	17744.7875
1764.14244	17717.7875
1767.35375	17685.2875
1770.56294	17616.7875
1773.77002	17572.0875
1776.97499	17545.0875
1780.17785	17528.0875
1783.37861	17481.7875
1786.57727	17420.3875
1789.77382	17385.6875
1792.96828	17373.3875
1796.16064	17357.7875
1799.3509	17284.5875
1802.53907	17261.9875
1805.72514	17191.2875
1808.90913	17166.4875
1812.09102	17118.3875
1815.27083	17106.3875
1818.44856	17080.1875
1821.6242	17017.0875
1824.79776	17032.0875
1827.96924	17009.5875
1831.13864	16970.1875
1834.30597	16966.8875
1837.47122	16968.4875
1840.6344	16956.7875
1843.7955	16978.6875
1846.95454	16960.2875
1850.11151	16959.3875
1853.26642	16986.6875
1856.41926	16962.7875
1859.57004	16947.7875
1862.71876	16974.7875
1865.86542	16964.4875
1869.01003	16954.7875
1872.15258	16944.0875
1875.29308	16937.8875
1878.43152	16938.2875
1881.56792	16940.4875
1884.70227	16935.3875
1887.83457	16936.0875
1890.96482	16919.7875
1894.09304	16910.4875
1897.21921	16938.6875
1900.34335	16897.5875
1903.46544	16891.4875
1906.58551	16931.2875
1909.70353	16917.5875
1912.81953	16889.8875
1915.93349	16852.3875
1919.04543	16834.6875
1922.15534	16825.3875
1925.26322	16742.4875
1928.36908	16729.3875
1931.47292	16678.4875
1934.57473	16599.4875
1937.67453	16548.9875
1940.77232	16478.0875
1943.86808	16453.7875
1946.96184	16406.6875
1950.05358	16317.3875
1953.14331	16268.7875
1956.23103	16195.5875
1959.31675	16131.1875
1962.40046	16094.9875
1965.48217	16046.6875
1968.56188	15997.8875
1971.63959	15947.1875
1974.7153	15873.3875
1977.78901	15840.5875
1980.86073	15807.5875
1983.93046	15727.7875
1986.99819	15683.2875
1990.06394	15635.2875
1993.1277	15606.8875
1996.18947	15509.5875
1999.24925	15502.4875
2002.30706	15429.5875
2005.36288	15381.7875
2008.41672	15371.0875
2011.46859	15344.2875
2014.51848	15259.5875
2017.56639	15225.5875
2020.61233	15180.9875
2023.6563	15149.3875
2026.6983	15131.3875
2029.73833	15073.8875
2032.7764	15044.2875
2035.8125	15039.1875
2038.84664	14993.1875
2041.87881	15000.2875
2044.90903	14973.2875
2047.93729	14969.3875
2050.96359	14941.1875
2053.98794	14906.4875
2057.01034	14897.4875
2060.03078	14892.0875
2063.04927	14863.6875
2066.06582	14858.8875
2069.08042	14821.9875
2072.09307	14830.1875
2075.10378	14802.9875
2078.11255	14779.1875
2081.11938	14757.1875
2084.12426	14757.0875
2087.12722	14741.2875
2090.12824	14752.8875
2093.12732	14739.3875
2096.12447	14768.8875
2099.11969	14751.8875
2102.11299	14747.9875
2105.10435	14770.0875
2108.09379	14769.3875
2111.08131	14770.7875
2114.0669	14753.5875
2117.05057	14780.1875
2120.03233	14776.4875
2123.01216	14786.4875
2125.99008	14788.5875
2128.96609	14808.5875
2131.94018	14808.7875
2134.91236	14819.6875
2137.88263	14805.2875
2140.851	14805.8875
2143.81746	14840.0875
2146.78201	14861.1875
2149.74466	14845.8875
2152.7054	14857.7875
2155.66425	14807.6875
2158.6212	14826.7875
2161.57625	14806.2875
2164.52941	14774.3875
2167.48067	14818.8875
2170.43004	14794.3875
2173.37752	14770.5875
2176.32311	14780.7875
2179.26681	14799.0875
2182.20863	14760.8875
2185.14856	14773.5875
2188.08661	14760.4875
2191.02278	14776.4875
2193.95707	14734.1875
2196.88948	14722.8875
2199.82001	14749.5875
2202.74867	14729.7875
2205.67545	14736.7875
2208.60037	14708.4875
2211.52341	14672.7875
2214.44458	14680.0875
2217.36388	14641.0875
2220.28132	14625.4875
2223.1969	14604.5875
2226.11061	14608.9875
2229.02246	14519.0875
2231.93245	14501.3875
2234.84058	14436.0875
2237.74686	14442.4875
2240.65128	14422.1875
2243.55385	14427.7875
2246.45456	14409.4875
2249.35343	14404.8875
2252.25044	14365.0875
2255.14561	14331.4875
2258.03893	14332.3875
2260.93041	14311.7875
2263.82004	14287.7875
2266.70783	14231.4875
2269.59378	14167.7875
2272.4779	14156.0875
2275.36017	14104.3875
2278.24061	14113.1875
2281.11922	14072.2875
2283.996	14040.3875
2286.87094	14013.7875
2289.74405	14005.2875
2292.61534	13971.0875
2295.4848	13943.5875
2298.35243	13962.9875
2301.21824	13931.0875
2304.08223	13945.2875
2306.94439	13935.6875
2309.80474	13927.3875
2312.66327	13925.2875
2315.51999	13910.8875
2318.37489	13941.2875
2321.22797	13899.4875
2324.07925	13907.7875
2326.92871	13871.4875
2329.77637	13862.1875
2332.62222	13855.7875
2335.46626	13867.7875
2338.3085	13816.3875
2341.14893	13835.6875
2343.98756	13837.0875
2346.8244	13852.9875
2349.65943	13873.4875
2352.49267	13867.8875
2355.32411	13859.7875
2358.15376	13874.4875
2360.98161	13847.2875
2363.80768	13839.2875
2366.63195	13833.0875
2369.45444	13813.6875
2372.27514	13808.9875
2375.09405	13817.4875
2377.91118	13750.9875
2380.72652	13724.5875
2383.54009	13676.1875
2386.35187	13686.9875
2389.16188	13608.9875
2391.97011	13573.7875
2394.77657	13570.1875
2397.58125	13551.2875
2400.38416	13511.4875
2403.18529	13454.7875
2405.98466	13451.1875
2408.78226	13432.8875
2411.57809	13431.3875
2414.37216	13410.4875
2417.16446	13380.0875
2419.955	13360.2875
2422.74378	13377.8875
2425.5308	13373.0875
2428.31606	13353.0875
2431.09956	13337.1875
2433.88131	13301.3875
2436.6613	13306.7875
2439.43954	13332.8875
2442.21603	13305.5875
2444.99077	13296.2875
2447.76377	13316.1875
2450.53501	13301.4875
2453.30451	13265.3875
2456.07226	13285.9875
2458.83827	13306.9875
2461.60254	13291.8875
2464.36507	13290.3875
2467.12586	13268.2875
2469.88492	13291.2875
2472.64224	13277.3875
2475.39782	13304.7875
2478.15167	13290.7875
2480.90379	13304.4875
2483.65417	13320.9875
2486.40283	13309.2875
2489.14976	13340.0875
2491.89497	13334.7875
2494.63845	13350.1875
2497.3802	13339.6875
2500.12024	13336.0875
2502.85855	13329.7875
2505.59514	13338.4875
2508.33002	13294.3875
2511.06318	13303.3875
2513.79462	13255.4875
2516.52435	13270.7875
2519.25237	13238.3875
2521.97867	13225.0875
2524.70327	13202.1875
2527.42616	13162.1875
2530.14734	13185.1875
2532.86681	13152.4875
2535.58458	13124.4875
2538.30065	13162.2875
2541.01501	13132.0875
2543.72768	13110.6875
2546.43864	13091.9875
2549.14791	13061.1875
2551.85548	13048.3875
2554.56136	13089.6875
2557.26554	13083.0875
2559.96803	13046.1875
2562.66883	13040.7875
2565.36794	13019.9875
2568.06536	13028.2875
2570.7611	13036.0875
2573.45514	12989.3875
2576.14751	12984.0875
2578.83819	12961.7875
2581.52719	12957.8875
2584.21451	12947.0875
2586.90015	12955.3875
2589.58411	12964.3875
2592.2664	12957.1875
2594.94701	12921.5875
2597.62594	12921.9875
2600.30321	12932.4875
2602.9788	12888.6875
2605.65273	12890.5875
2608.32498	12914.3875
2610.99557	12899.3875
2613.66449	12918.4875
2616.33175	12898.9875
2618.99734	12949.8875
2621.66128	12892.2875
2624.32355	12919.7875
2626.98416	12919.7875
2629.64311	12887.2875
2632.30041	12896.5875
2634.95605	12909.3875
2637.61004	12885.4875
2640.26238	12852.7875
2642.91306	12855.9875
2645.56209	12852.9875
2648.20948	12849.9875
2650.85521	12847.0875
2653.4993	12846.7875
2656.14175	12841.4875
2658.78255	12862.6875
2661.42171	12883.6875
2664.05923	12886.4875
2666.6951	12893.4875
2669.32934	12907.3875
2671.96194	12900.0875
2674.59291	12909.3875
2677.22224	12864.9875
2679.84993	12915.6875
2682.476	12883.1875
2685.10043	12874.9875
2687.72324	12866.7875
2690.34441	12846.5875
2692.96396	12859.1875
2695.58188	12889.2875
2698.19818	12840.7875
2700.81285	12861.2875
2703.4259	12876.0875
2706.03733	12938.6875
2708.64714	12906.1875
2711.25533	12900.1875
2713.86191	12865.6875
2716.46687	12932.7875
2719.07021	12927.6875
2721.67194	12954.3875
2724.27206	12922.2875
2726.87057	12942.1875
2729.46747	12955.1875
2732.06276	12940.0875
2734.65644	12941.3875
2737.24852	12934.2875
2739.83899	12931.0875
2742.42786	12955.4875
2745.01513	12913.6875
2747.60079	12923.7875
2750.18486	12900.1875
2752.76733	12904.4875
2755.3482	12920.6875
2757.92747	12909.2875
2760.50515	12898.2875
2763.08123	12940.1875
2765.65573	12906.1875
2768.22863	12914.7875
2770.79994	12852.2875
2773.36967	12864.4875
2775.9378	12838.7875
2778.50435	12852.4875
2781.06932	12866.6875
2783.6327	12850.1875
2786.1945	12846.3875
2788.75471	12857.3875
2791.31335	12818.5875
2793.87041	12807.8875
2796.42589	12808.8875
2798.97979	12806.7875
2801.53212	12773.8875
2804.08288	12748.8875
2806.63206	12728.9875
2809.17967	12716.2875
2811.72571	12675.7875
2814.27018	12681.7875
2816.81308	12655.0875
2819.35442	12650.2875
2821.89419	12641.7875
2824.43239	12621.1875
2826.96904	12598.1875
2829.50412	12627.5875
2832.03763	12589.0875
2834.56959	12597.8875
2837.1	12616.7875
2839.62884	12588.7875
2842.15613	12600.3875
2844.68186	12648.2875
2847.20604	12679.6875
2849.72867	12687.9875
2852.24974	12730.0875
2854.76927	12709.1875
2857.28724	12676.7875
2859.80367	12653.8875
2862.31855	12632.2875
2864.83189	12627.2875
2867.34368	12629.0875
2869.85393	12637.4875
2872.36264	12612.7875
2874.8698	12611.9875
2877.37543	12624.6875
2879.87952	12626.6875
2882.38207	12628.6875
2884.88308	12630.5875
2887.38256	12627.3875
2889.88051	12619.4875
2892.37692	12620.5875
2894.8718	12612.6875
2897.36515	12652.7875
2899.85698	12615.8875
2902.34727	12658.6875
2904.83604	12670.3875
2907.32328	12682.2875
2909.809	12679.7875
2912.29319	12677.0875
2914.77587	12704.6875
2917.25702	12669.5875
2919.73665	12671.4875
2922.21476	12666.1875
2924.69136	12627.3875
2927.16644	12655.4875
2929.64	12653.6875
2932.11205	12631.6875
2934.58258	12588.4875
2937.05161	12596.7875
2939.51912	12615.9875
2941.98513	12558.1875
2944.44962	12521.6875
2946.91261	12426.8875
2949.37409	12476.0875
2951.83407	12425.0875
2954.29254	12396.3875
2956.74951	12392.4875
2959.20498	12364.4875
2961.65895	12367.0875
2964.11142	12306.0875
2966.56239	12281.7875
2969.01186	12291.4875
2971.45984	12214.3875
2973.90632	12211.9875
2976.35131	12154.6875
2978.7948	12174.2875
2981.23681	12122.6875
2983.67732	12103.2875
2986.11635	12084.5875
2988.55388	12038.0875
2990.98993	12033.3875
2993.4245	11998.2875
2995.85758	11988.3875
2998.28917	11954.7875
3000.71928	11946.3875
3003.14791	11908.1875
3005.57506	11897.9875
3008.00073	11870.4875
3010.42493	11827.9875
3012.84764	11799.8875
3015.26888	11813.0875
3017.68865	11800.1875
3020.10694	11778.5875
3022.52376	11721.6875
3024.9391	11695.2875
3027.35298	11705.0875
3029.76539	11695.0875
3032.17632	11679.8875
3034.5858	11667.6875
3036.9938	11658.2875
3039.40034	11654.4875
3041.80542	11625.4875
3044.20903	11593.8875
3046.61118	11592.4875
3049.01187	11562.1875
3051.4111	11546.8875
3053.80888	11498.4875
3056.20519	11482.7875
3058.60005	11438.2875
3060.99345	11419.9875
3063.3854	11402.1875
3065.7759	11367.3875
3068.16494	11347.9875
3070.55254	11298.1875
3072.93868	11273.0875
3075.32338	11240.3875
3077.70662	11206.0875
3080.08842	11156.5875
3082.46878	11153.1875
3084.84769	11124.8875
3087.22515	11129.3875
3089.60118	11125.8875
3091.97576	11136.5875
3094.3489	11120.1875
3096.72061	11092.8875
3099.09087	11088.9875
3101.4597	11093.9875
3103.82709	11086.9875
3106.19305	11027.4875
3108.55757	11036.7875
3110.92066	10991.6875
3113.28232	10977.2875
3115.64255	10901.9875
3118.00134	10901.2875
3120.35871	10860.9875
3122.71466	10847.2875
3125.06917	10853.1875
3127.42226	10808.6875
3129.77393	10837.8875
3132.12417	10808.2875
3134.47299	10792.2875
3136.82039	10788.8875
3139.16636	10803.2875
3141.51092	10774.5875
3143.85406	10772.8875
3146.19579	10778.1875
3148.53609	10775.8875
3150.87499	10777.6875
3153.21246	10789.6875
3155.54853	10793.7875
3157.88318	10769.2875
3160.21642	10793.3875
3162.54826	10794.5875
3164.87868	10745.0875
3167.2077	10771.2875
3169.5353	10773.5875
3171.86151	10775.4875
3174.18631	10742.5875
3176.5097	10728.6875
3178.83169	10721.6875
3181.15228	10742.0875
3183.47147	10697.2875
3185.78926	10697.0875
3188.10565	10683.0875
3190.42065	10684.9875
3192.73424	10695.1875
3195.04645	10685.3875
3197.35725	10671.7875
3199.66667	10662.2875
3201.97469	10676.7875
3204.28132	10660.2875
3206.58656	10680.9875
3208.8904	10678.3875
3211.19287	10679.9875
3213.49394	10664.4875
3215.79363	10671.6875
3218.09193	10668.3875
3220.38884	10664.4875
3222.68438	10714.0875
3224.97853	10641.1875
3227.2713	10640.0875
3229.56269	10618.3875
3231.8527	10606.6875
3234.14133	10610.1875
3236.42858	10573.1875
3238.71446	10562.4875
3240.99896	10555.7875
3243.28209	10582.7875
3245.56384	10580.8875
3247.84423	10534.7875
3250.12324	10526.7875
3252.40088	10515.5875
3254.67715	10498.1875
3256.95205	10485.5875
3259.22558	10487.0875
3261.49775	10444.6875
3263.76855	10417.0875
3266.03799	10399.9875
3268.30606	10387.3875
3270.57277	10375.4875
3272.83812	10345.5875
3275.10211	10305.5875
3277.36474	10299.8875
3279.62601	10304.5875
3281.88593	10309.9875
3284.14448	10322.9875
3286.40168	10316.4875
3288.65753	10281.5875
3290.91202	10290.8875
3293.16516	10261.5875
3295.41695	10213.9875
3297.66738	10174.2875
3299.91647	10133.0875
3302.16421	10071.5875
3304.4106	10013.5875
3306.65564	9980.2875
3308.89933	9920.8875
3311.14169	9849.9875
3313.38269	9780.2875
3315.62236	9709.9875
3317.86068	9620.3875
3320.09766	9527.0875
3322.3333	9450.3875
3324.5676	9474.1875
3326.80056	9294.1875
3329.03219	9233.9875
3331.26248	2.7875
3333.49143	-1.1125
3335.71905	-2.4125
