Data from AgNPs_FTO_APTES_UA_2uM_CRN_20uM_R6G_10uM_NaF_0.1M_Addition_RamanShift__16__14-16-25-204.txt Node

Date: Wed Feb 02 14:16:25 GMT 2022
User: TCL
Spectrometer: QEP01345
Trigger mode: 4
Integration Time (sec): 7.000000E0
Scans to average: 10
Electric dark correction enabled: true
Nonlinearity correction enabled: false
Boxcar width: 0
XAxis mode: Raman Shifts
Number of Pixels in Spectrum: 1044
>>>>>Begin Spectral Data<<<<<
46.04893	-0.1125
50.45542	0.7875
54.85868	-1.2125
59.25871	-1.3125
63.6555	92.5875
68.04907	99.7875
72.43941	104.8875
76.82654	109.4875
81.21044	113.2875
85.59113	120.1875
89.96862	124.0875
94.34289	127.2875
98.71396	132.4875
103.08183	138.7875
107.4465	139.6875
111.80798	145.4875
116.16626	146.7875
120.52136	152.0875
124.87327	162.3875
129.222	160.1875
133.56755	174.2875
137.90993	185.3875
142.24913	209.0875
146.58517	238.5875
150.91804	268.8875
155.24774	322.6875
159.57429	401.3875
163.89768	515.2875
168.21792	675.0875
172.53501	915.9875
176.84895	1272.9875
181.15975	1794.4875
185.46741	2515.4875
189.77193	3456.3875
194.07331	4620.8875
198.37157	5949.4875
202.6667	7358.4875
206.9587	8715.6875
211.24758	10071.0875
215.53334	11424.8875
219.81599	12848.6875
224.09553	14449.8875
228.37195	16233.9875
232.64527	18144.6875
236.91549	20161.3875
241.18261	22183.4875
245.44663	24094.6875
249.70755	25728.4875
253.96539	27190.1875
258.22014	28465.3875
262.4718	29531.7875
266.72039	30353.6875
270.96589	30772.5875
275.20832	30977.7875
279.44768	30953.3875
283.68397	30825.6875
287.91719	30739.3875
292.14735	30805.5875
296.37445	30922.8875
300.59849	30995.9875
304.81948	31007.6875
309.03742	30830.0875
313.25231	30322.9875
317.46415	29476.5875
321.67296	28426.4875
325.87872	27548.5875
330.08145	27128.1875
334.28114	26954.5875
338.47781	27089.3875
342.67145	27377.9875
346.86207	27799.5875
351.04966	28325.8875
355.23424	28838.2875
359.4158	29275.5875
363.59435	29579.2875
367.76989	29789.3875
371.94243	29940.4875
376.11196	30025.2875
380.27849	30163.4875
384.44203	30328.7875
388.60257	30569.1875
392.76012	30910.2875
396.91468	31387.5875
401.06626	31918.0875
405.21485	32195.0875
409.36047	32022.2875
413.50311	31487.8875
417.64277	31131.8875
421.77947	31083.6875
425.9132	31203.1875
430.04396	31379.8875
434.17176	31571.4875
438.2966	31752.0875
442.41849	32231.0875
446.53742	33051.2875
450.6534	34013.7875
454.76644	34789.0875
458.87653	35167.9875
462.98368	35131.2875
467.08789	34862.7875
471.18916	34555.8875
475.2875	34321.3875
479.38291	34308.1875
483.4754	34186.2875
487.56496	33765.0875
491.6516	32970.7875
495.73531	32234.1875
499.81612	31833.2875
503.89401	31842.4875
507.96899	31971.7875
512.04106	31862.8875
516.11023	31542.7875
520.1765	31079.4875
524.23987	30683.6875
528.30034	30274.6875
532.35792	29883.8875
536.41261	29519.4875
540.46441	29265.5875
544.51333	29414.4875
548.55936	29960.6875
552.60252	30790.2875
556.64279	31683.4875
560.6802	32318.4875
564.71473	32702.5875
568.7464	33379.9875
572.7752	34273.5875
576.80114	35166.8875
580.82422	35833.0875
584.84444	36285.6875
588.86181	36584.2875
592.87633	36758.4875
596.888	36796.5875
600.89682	36695.0875
604.9028	37699.3875
608.90594	40500.6875
612.90624	43020.8875
616.90371	39924.6875
620.89834	33362.1875
624.89015	30514.1875
628.87913	30364.5875
632.86528	30581.3875
636.84862	30521.0875
640.82913	30033.8875
644.80683	29149.3875
648.78172	28404.0875
652.75379	28108.7875
656.72306	28363.9875
660.68952	28751.9875
664.65319	28581.5875
668.61405	28100.3875
672.57211	27936.1875
676.52738	28035.8875
680.47986	27966.3875
684.42955	27859.2875
688.37646	27743.0875
692.32058	27868.1875
696.26192	28122.8875
700.20048	28487.0875
704.13626	28755.8875
708.06928	28773.1875
711.99952	28608.2875
715.927	28443.2875
719.85171	28548.7875
723.77365	28420.3875
727.69284	28038.5875
731.60928	27689.9875
735.52295	27544.6875
739.43388	27508.8875
743.34206	27568.9875
747.24749	27767.2875
751.15017	28103.8875
755.05012	28703.9875
758.94733	29732.5875
762.8418	31540.4875
766.73354	34142.1875
770.62254	36459.8875
774.50882	36728.8875
778.39237	34680.5875
782.27321	31883.7875
786.15132	29722.4875
790.02671	28399.1875
793.89938	27732.7875
797.76935	27479.6875
801.6366	27431.2875
805.50115	27367.1875
809.36299	27098.9875
813.22213	26890.6875
817.07857	26770.2875
820.93231	26703.1875
824.78336	26526.6875
828.63172	26346.0875
832.47738	26221.1875
836.32036	26220.0875
840.16066	26311.7875
843.99827	26358.9875
847.8332	26315.3875
851.66546	26149.7875
855.49504	26139.0875
859.32195	26089.3875
863.1462	26014.2875
866.96777	25935.2875
870.78668	25844.4875
874.60293	25754.7875
878.41652	25760.6875
882.22745	25856.5875
886.03573	25881.9875
889.84136	25916.7875
893.64433	25840.1875
897.44466	25699.0875
901.24235	25613.2875
905.0374	25506.0875
908.8298	25438.2875
912.61957	25529.2875
916.40671	25857.7875
920.19121	26306.3875
923.97308	26609.7875
927.75233	26580.8875
931.52895	26312.6875
935.30295	25896.7875
939.07433	25314.0875
942.84309	24877.1875
946.60924	24643.0875
950.37278	24586.5875
954.13371	24514.3875
957.89203	24508.6875
961.64774	24463.9875
965.40086	24479.4875
969.15137	24397.9875
972.89929	24231.9875
976.64461	24035.8875
980.38733	23984.5875
984.12747	24044.1875
987.86502	24329.2875
991.59999	24640.9875
995.33237	25085.4875
999.06217	25838.6875
1002.78939	26694.9875
1006.51404	27227.2875
1010.23611	27526.0875
1013.95561	27785.9875
1017.67255	27877.3875
1021.38692	27556.2875
1025.09872	27204.8875
1028.80796	27219.0875
1032.51465	27788.1875
1036.21877	28495.2875
1039.92035	28653.9875
1043.61937	28306.2875
1047.31584	27759.5875
1051.00976	27121.2875
1054.70114	26924.3875
1058.38998	27036.2875
1062.07627	27332.9875
1065.76003	27619.4875
1069.44126	27911.2875
1073.11995	28316.2875
1076.79611	28655.8875
1080.46974	28836.8875
1084.14085	29062.7875
1087.80943	29466.3875
1091.47549	29836.8875
1095.13903	29925.5875
1098.80005	29587.1875
1102.45857	28855.2875
1106.11456	28172.8875
1109.76805	27848.9875
1113.41903	27845.4875
1117.06751	28005.9875
1120.71348	28316.8875
1124.35696	28690.5875
1127.99793	29050.3875
1131.63641	29321.6875
1135.2724	29251.5875
1138.90589	29153.4875
1142.5369	29189.5875
1146.16542	29365.2875
1149.79145	29680.4875
1153.415	30157.1875
1157.03607	30856.0875
1160.65467	31929.0875
1164.27079	33554.9875
1167.88443	35692.9875
1171.49561	38191.2875
1175.10432	41508.7875
1178.71056	45351.8875
1182.31434	49058.3875
1185.91565	51267.9875
1189.51451	51671.7875
1193.11091	50590.0875
1196.70485	48601.2875
1200.29634	46125.2875
1203.88538	44175.0875
1207.47197	42849.7875
1211.05612	42018.1875
1214.63782	41197.7875
1218.21708	40236.7875
1221.79391	39353.1875
1225.36829	38701.4875
1228.94024	38017.6875
1232.50976	37361.4875
1236.07685	36765.1875
1239.6415	36421.6875
1243.20374	36358.8875
1246.76355	36645.7875
1250.32093	37229.3875
1253.8759	38099.6875
1257.42845	39382.4875
1260.97859	40729.3875
1264.52631	42041.4875
1268.07163	43362.5875
1271.61453	44812.8875
1275.15503	46360.1875
1278.69312	48018.7875
1282.22882	49513.5875
1285.76211	51041.2875
1289.29301	52780.5875
1292.82151	55055.3875
1296.34761	58007.9875
1299.87133	61653.5875
1303.39266	65587.5875
1306.9116	69470.9875
1310.42815	72901.2875
1313.94233	75047.1875
1317.45412	75334.0875
1320.96354	74746.6875
1324.47058	74158.9875
1327.97525	73646.9875
1331.47754	73379.4875
1334.97747	73075.6875
1338.47502	72866.1875
1341.97022	72485.9875
1345.46305	71328.7875
1348.95352	69422.5875
1352.44163	67456.0875
1355.92738	66645.8875
1359.41078	67469.4875
1362.89183	68641.1875
1366.37053	67371.3875
1369.84688	62508.9875
1373.32088	56660.8875
1376.79254	52498.9875
1380.26186	50943.5875
1383.72883	51169.0875
1387.19347	51533.4875
1390.65578	51609.2875
1394.11575	51899.0875
1397.57339	52695.7875
1401.0287	53852.6875
1404.48168	54837.5875
1407.93234	54811.4875
1411.38068	53586.6875
1414.82669	51354.8875
1418.27039	48662.1875
1421.71177	46000.2875
1425.15083	43884.9875
1428.58758	42746.2875
1432.02203	42845.9875
1435.45416	43956.7875
1438.88399	45526.1875
1442.31151	47025.6875
1445.73673	48147.1875
1449.15965	49174.5875
1452.58027	50043.4875
1455.9986	50564.1875
1459.41463	51143.8875
1462.82837	51926.0875
1466.23982	52826.8875
1469.64898	53398.5875
1473.05586	53577.5875
1476.46045	53249.8875
1479.86276	52571.7875
1483.26279	51603.5875
1486.66054	50874.4875
1490.05602	50660.1875
1493.44922	50860.3875
1496.84016	51242.2875
1500.22882	52011.5875
1503.61521	53397.5875
1506.99934	55195.7875
1510.38121	56785.9875
1513.76081	57312.4875
1517.13816	56419.9875
1520.51324	54728.7875
1523.88607	53230.5875
1527.25665	52512.2875
1530.62498	52304.2875
1533.99105	52193.3875
1537.35488	51982.8875
1540.71647	51176.9875
1544.07581	50013.0875
1547.4329	48656.8875
1550.78776	47571.5875
1554.14038	46762.4875
1557.49077	46419.1875
1560.83892	46187.0875
1564.18484	46070.8875
1567.52853	46098.5875
1570.86999	46349.6875
1574.20922	47145.8875
1577.54624	47994.0875
1580.88103	48541.8875
1584.2136	49228.0875
1587.54395	50865.2875
1590.87208	53393.1875
1594.19801	56503.0875
1597.52172	59434.6875
1600.84321	60025.3875
1604.16251	57158.4875
1607.47959	52512.9875
1610.79447	47648.5875
1614.10715	43029.6875
1617.41763	39192.6875
1620.7259	36429.0875
1624.03199	35013.4875
1627.33587	34868.1875
1630.63757	36010.9875
1633.93707	38656.9875
1637.23439	43064.0875
1640.52951	49124.3875
1643.82246	55622.8875
1647.11321	60159.4875
1650.40179	60604.0875
1653.68819	56189.9875
1656.97241	48613.5875
1660.25446	40995.1875
1663.53433	35050.6875
1666.81203	31046.4875
1670.08756	28431.1875
1673.36092	26893.9875
1676.63211	25761.6875
1679.90115	25072.7875
1683.16801	24493.0875
1686.43272	24074.9875
1689.69527	23786.3875
1692.95567	23537.8875
1696.2139	23379.9875
1699.46999	23201.1875
1702.72392	23090.6875
1705.97571	22989.6875
1709.22535	22895.2875
1712.47284	22797.2875
1715.71819	22771.9875
1718.96139	22668.4875
1722.20246	22537.7875
1725.44139	22413.3875
1728.67818	22264.8875
1731.91284	22089.3875
1735.14537	21970.0875
1738.37576	21853.5875
1741.60403	21740.8875
1744.83017	21648.8875
1748.05418	21616.2875
1751.27607	21598.7875
1754.49584	21570.5875
1757.71349	21559.4875
1760.92903	21479.4875
1764.14244	21405.6875
1767.35375	21388.8875
1770.56294	21340.0875
1773.77002	21289.7875
1776.97499	21233.1875
1780.17785	21165.9875
1783.37861	21140.7875
1786.57727	21112.4875
1789.77382	21037.1875
1792.96828	20972.1875
1796.16064	20962.3875
1799.3509	20930.8875
1802.53907	20856.0875
1805.72514	20780.0875
1808.90913	20701.4875
1812.09102	20684.8875
1815.27083	20639.8875
1818.44856	20620.8875
1821.6242	20621.4875
1824.79776	20589.2875
1827.96924	20554.0875
1831.13864	20557.5875
1834.30597	20552.6875
1837.47122	20571.8875
1840.6344	20534.2875
1843.7955	20610.4875
1846.95454	20642.4875
1850.11151	20594.8875
1853.26642	20602.5875
1856.41926	20607.6875
1859.57004	20564.7875
1862.71876	20566.8875
1865.86542	20583.4875
1869.01003	20546.9875
1872.15258	20467.1875
1875.29308	20489.7875
1878.43152	20473.1875
1881.56792	20467.8875
1884.70227	20470.9875
1887.83457	20458.0875
1890.96482	20449.3875
1894.09304	20428.3875
1897.21921	20396.8875
1900.34335	20398.8875
1903.46544	20359.0875
1906.58551	20336.5875
1909.70353	20260.3875
1912.81953	20253.1875
1915.93349	20201.6875
1919.04543	20101.5875
1922.15534	20090.6875
1925.26322	20055.3875
1928.36908	19959.8875
1931.47292	19909.1875
1934.57473	19787.9875
1937.67453	19756.7875
1940.77232	19688.5875
1943.86808	19614.8875
1946.96184	19545.6875
1950.05358	19482.6875
1953.14331	19385.3875
1956.23103	19342.1875
1959.31675	19271.4875
1962.40046	19222.3875
1965.48217	19182.0875
1968.56188	19120.3875
1971.63959	19050.1875
1974.7153	19040.9875
1977.78901	18916.9875
1980.86073	18842.5875
1983.93046	18791.6875
1986.99819	18750.5875
1990.06394	18724.6875
1993.1277	18627.1875
1996.18947	18572.0875
1999.24925	18546.3875
2002.30706	18452.3875
2005.36288	18387.0875
2008.41672	18324.0875
2011.46859	18292.8875
2014.51848	18221.4875
2017.56639	18197.4875
2020.61233	18171.4875
2023.6563	18127.6875
2026.6983	18116.7875
2029.73833	18074.3875
2032.7764	18015.2875
2035.8125	17985.3875
2038.84664	17966.9875
2041.87881	17967.6875
2044.90903	17906.3875
2047.93729	17851.3875
2050.96359	17899.1875
2053.98794	17863.9875
2057.01034	17861.0875
2060.03078	17847.3875
2063.04927	17807.2875
2066.06582	17812.9875
2069.08042	17784.0875
2072.09307	17744.5875
2075.10378	17744.6875
2078.11255	17687.3875
2081.11938	17706.8875
2084.12426	17669.6875
2087.12722	17647.2875
2090.12824	17676.4875
2093.12732	17678.0875
2096.12447	17718.9875
2099.11969	17696.3875
2102.11299	17700.1875
2105.10435	17702.1875
2108.09379	17704.7875
2111.08131	17722.8875
2114.0669	17712.8875
2117.05057	17728.3875
2120.03233	17744.5875
2123.01216	17745.7875
2125.99008	17761.5875
2128.96609	17744.6875
2131.94018	17779.5875
2134.91236	17808.7875
2137.88263	17794.9875
2140.851	17804.3875
2143.81746	17828.8875
2146.78201	17800.2875
2149.74466	17805.1875
2152.7054	17831.3875
2155.66425	17811.0875
2158.6212	17779.2875
2161.57625	17779.5875
2164.52941	17790.9875
2167.48067	17791.3875
2170.43004	17760.9875
2173.37752	17753.7875
2176.32311	17724.3875
2179.26681	17750.7875
2182.20863	17748.7875
2185.14856	17737.8875
2188.08661	17772.5875
2191.02278	17778.3875
2193.95707	17715.9875
2196.88948	17752.0875
2199.82001	17723.4875
2202.74867	17717.4875
2205.67545	17733.6875
2208.60037	17690.7875
2211.52341	17674.0875
2214.44458	17639.0875
2217.36388	17612.6875
2220.28132	17559.9875
2223.1969	17568.0875
2226.11061	17573.4875
2229.02246	17513.2875
2231.93245	17509.1875
2234.84058	17441.9875
2237.74686	17393.4875
2240.65128	17400.9875
2243.55385	17344.5875
2246.45456	17314.1875
2249.35343	17286.1875
2252.25044	17256.0875
2255.14561	17236.1875
2258.03893	17232.9875
2260.93041	17186.9875
2263.82004	17137.7875
2266.70783	17088.7875
2269.59378	17026.9875
2272.4779	17006.8875
2275.36017	16944.9875
2278.24061	16914.9875
2281.11922	16908.7875
2283.996	16892.0875
2286.87094	16858.1875
2289.74405	16809.7875
2292.61534	16814.8875
2295.4848	16793.7875
2298.35243	16807.4875
2301.21824	16774.8875
2304.08223	16828.4875
2306.94439	16835.6875
2309.80474	16839.9875
2312.66327	16812.4875
2315.51999	16817.9875
2318.37489	16816.5875
2321.22797	16789.9875
2324.07925	16785.1875
2326.92871	16787.1875
2329.77637	16790.3875
2332.62222	16765.3875
2335.46626	16734.2875
2338.3085	16748.0875
2341.14893	16739.5875
2343.98756	16779.4875
2346.8244	16768.0875
2349.65943	16785.7875
2352.49267	16767.0875
2355.32411	16782.5875
2358.15376	16758.1875
2360.98161	16769.9875
2363.80768	16708.4875
2366.63195	16691.7875
2369.45444	16680.0875
2372.27514	16687.3875
2375.09405	16632.8875
2377.91118	16598.0875
2380.72652	16566.6875
2383.54009	16515.2875
2386.35187	16486.2875
2389.16188	16440.4875
2391.97011	16420.1875
2394.77657	16413.2875
2397.58125	16374.5875
2400.38416	16382.2875
2403.18529	16339.5875
2405.98466	16348.5875
2408.78226	16307.9875
2411.57809	16255.3875
2414.37216	16228.0875
2417.16446	16238.6875
2419.955	16201.9875
2422.74378	16216.6875
2425.5308	16207.0875
2428.31606	16203.1875
2431.09956	16174.2875
2433.88131	16164.8875
2436.6613	16165.1875
2439.43954	16146.5875
2442.21603	16139.4875
2444.99077	16147.8875
2447.76377	16135.8875
2450.53501	16119.7875
2453.30451	16146.9875
2456.07226	16097.9875
2458.83827	16138.9875
2461.60254	16163.2875
2464.36507	16129.4875
2467.12586	16126.1875
2469.88492	16143.9875
2472.64224	16122.4875
2475.39782	16128.2875
2478.15167	16184.1875
2480.90379	16165.8875
2483.65417	16195.7875
2486.40283	16184.8875
2489.14976	16237.0875
2491.89497	16214.6875
2494.63845	16231.1875
2497.3802	16219.3875
2500.12024	16227.1875
2502.85855	16232.0875
2505.59514	16211.2875
2508.33002	16220.9875
2511.06318	16206.9875
2513.79462	16212.4875
2516.52435	16166.6875
2519.25237	16187.1875
2521.97867	16153.8875
2524.70327	16179.2875
2527.42616	16151.3875
2530.14734	16153.5875
2532.86681	16125.3875
2535.58458	16143.4875
2538.30065	16099.8875
2541.01501	16091.6875
2543.72768	16094.4875
2546.43864	16062.8875
2549.14791	16039.2875
2551.85548	16059.7875
2554.56136	16035.0875
2557.26554	16060.3875
2559.96803	16025.1875
2562.66883	16013.9875
2565.36794	16021.1875
2568.06536	16001.5875
2570.7611	15986.8875
2573.45514	15962.3875
2576.14751	15957.5875
2578.83819	15956.3875
2581.52719	15952.3875
2584.21451	15961.6875
2586.90015	15922.6875
2589.58411	15950.7875
2592.2664	15930.0875
2594.94701	15950.5875
2597.62594	15958.4875
2600.30321	15914.4875
2602.9788	15929.1875
2605.65273	15905.9875
2608.32498	15919.7875
2610.99557	15928.8875
2613.66449	15938.1875
2616.33175	15950.1875
2618.99734	15920.0875
2621.66128	15930.1875
2624.32355	15960.7875
2626.98416	15932.4875
2629.64311	15980.5875
2632.30041	15957.2875
2634.95605	15968.3875
2637.61004	15965.4875
2640.26238	15935.4875
2642.91306	15898.6875
2645.56209	15893.5875
2648.20948	15893.4875
2650.85521	15888.8875
2653.4993	15901.6875
2656.14175	15881.8875
2658.78255	15924.7875
2661.42171	15927.5875
2664.05923	15949.1875
2666.6951	15964.6875
2669.32934	15974.4875
2671.96194	15976.3875
2674.59291	15977.4875
2677.22224	15971.5875
2679.84993	15948.9875
2682.476	15978.2875
2685.10043	15974.1875
2687.72324	15934.5875
2690.34441	15931.0875
2692.96396	15914.7875
2695.58188	15920.4875
2698.19818	15926.4875
2700.81285	15922.0875
2703.4259	15879.6875
2706.03733	15960.9875
2708.64714	15947.5875
2711.25533	15969.7875
2713.86191	15946.8875
2716.46687	15948.3875
2719.07021	15960.2875
2721.67194	15992.9875
2724.27206	15988.9875
2726.87057	15983.1875
2729.46747	15954.8875
2732.06276	16001.5875
2734.65644	16012.3875
2737.24852	15980.2875
2739.83899	15957.8875
2742.42786	15950.4875
2745.01513	15968.5875
2747.60079	15967.2875
2750.18486	15947.1875
2752.76733	16014.2875
2755.3482	15983.8875
2757.92747	16011.7875
2760.50515	15996.8875
2763.08123	16033.4875
2765.65573	15989.7875
2768.22863	15991.4875
2770.79994	15971.8875
2773.36967	15974.9875
2775.9378	15965.7875
2778.50435	15986.5875
2781.06932	15973.8875
2783.6327	15985.5875
2786.1945	16011.1875
2788.75471	15967.5875
2791.31335	15937.6875
2793.87041	15891.3875
2796.42589	15855.6875
2798.97979	15875.3875
2801.53212	15843.8875
2804.08288	15830.9875
2806.63206	15810.1875
2809.17967	15777.0875
2811.72571	15745.8875
2814.27018	15737.2875
2816.81308	15685.5875
2819.35442	15672.3875
2821.89419	15685.1875
2824.43239	15651.6875
2826.96904	15666.4875
2829.50412	15629.2875
2832.03763	15611.3875
2834.56959	15607.5875
2837.1	15549.1875
2839.62884	15588.4875
2842.15613	15588.5875
2844.68186	15621.9875
2847.20604	15632.5875
2849.72867	15645.0875
2852.24974	15637.3875
2854.76927	15622.4875
2857.28724	15597.7875
2859.80367	15563.6875
2862.31855	15584.5875
2864.83189	15543.7875
2867.34368	15492.6875
2869.85393	15516.4875
2872.36264	15501.0875
2874.8698	15533.3875
2877.37543	15524.0875
2879.87952	15512.2875
2882.38207	15538.4875
2884.88308	15538.3875
2887.38256	15546.7875
2889.88051	15531.7875
2892.37692	15587.6875
2894.8718	15574.2875
2897.36515	15547.9875
2899.85698	15598.8875
2902.34727	15601.4875
2904.83604	15640.6875
2907.32328	15672.0875
2909.809	15672.2875
2912.29319	15640.1875
2914.77587	15639.1875
2917.25702	15615.0875
2919.73665	15599.1875
2922.21476	15611.9875
2924.69136	15639.0875
2927.16644	15645.0875
2929.64	15635.2875
2932.11205	15611.7875
2934.58258	15582.5875
2937.05161	15598.6875
2939.51912	15614.2875
2941.98513	15558.7875
2944.44962	15523.4875
2946.91261	15448.8875
2949.37409	15510.1875
2951.83407	15451.4875
2954.29254	15455.5875
2956.74951	15450.4875
2959.20498	15415.8875
2961.65895	15392.9875
2964.11142	15349.5875
2966.56239	15321.9875
2969.01186	15322.1875
2971.45984	15299.8875
2973.90632	15246.7875
2976.35131	15168.6875
2978.7948	15149.1875
2981.23681	15127.1875
2983.67732	15101.0875
2986.11635	15072.6875
2988.55388	15047.1875
2990.98993	14992.6875
2993.4245	14956.9875
2995.85758	14909.2875
2998.28917	14885.0875
3000.71928	14851.1875
3003.14791	14826.4875
3005.57506	14796.1875
3008.00073	14753.1875
3010.42493	14751.7875
3012.84764	14711.3875
3015.26888	14716.7875
3017.68865	14656.6875
3020.10694	14658.5875
3022.52376	14595.2875
3024.9391	14590.5875
3027.35298	14569.3875
3029.76539	14540.0875
3032.17632	14487.6875
3034.5858	14488.7875
3036.9938	14535.8875
3039.40034	14531.5875
3041.80542	14505.5875
3044.20903	14477.5875
3046.61118	14446.5875
3049.01187	14424.6875
3051.4111	14407.6875
3053.80888	14402.9875
3056.20519	14359.1875
3058.60005	14295.5875
3060.99345	14311.3875
3063.3854	14258.9875
3065.7759	14215.4875
3068.16494	14187.9875
3070.55254	14107.1875
3072.93868	14102.7875
3075.32338	14058.0875
3077.70662	14021.1875
3080.08842	14011.1875
3082.46878	13993.2875
3084.84769	13970.6875
3087.22515	13961.1875
3089.60118	13972.2875
3091.97576	13971.6875
3094.3489	13897.5875
3096.72061	13905.0875
3099.09087	13888.6875
3101.4597	13882.1875
3103.82709	13874.7875
3106.19305	13848.8875
3108.55757	13864.2875
3110.92066	13782.5875
3113.28232	13771.0875
3115.64255	13737.3875
3118.00134	13723.0875
3120.35871	13679.8875
3122.71466	13632.6875
3125.06917	13622.5875
3127.42226	13606.4875
3129.77393	13602.2875
3132.12417	13579.7875
3134.47299	13565.0875
3136.82039	13554.8875
3139.16636	13554.6875
3141.51092	13571.7875
3143.85406	13539.0875
3146.19579	13569.6875
3148.53609	13530.6875
3150.87499	13515.3875
3153.21246	13541.4875
3155.54853	13544.5875
3157.88318	13549.9875
3160.21642	13537.4875
3162.54826	13538.4875
3164.87868	13541.9875
3167.2077	13512.6875
3169.5353	13480.1875
3171.86151	13513.2875
3174.18631	13480.8875
3176.5097	13468.2875
3178.83169	13467.1875
3181.15228	13475.6875
3183.47147	13429.7875
3185.78926	13434.0875
3188.10565	13464.1875
3190.42065	13459.9875
3192.73424	13436.3875
3195.04645	13436.9875
3197.35725	13414.5875
3199.66667	13403.7875
3201.97469	13425.2875
3204.28132	13406.7875
3206.58656	13441.7875
3208.8904	13397.4875
3211.19287	13434.4875
3213.49394	13426.4875
3215.79363	13430.2875
3218.09193	13409.7875
3220.38884	13415.7875
3222.68438	13423.4875
3224.97853	13393.5875
3227.2713	13385.0875
3229.56269	13348.1875
3231.8527	13355.9875
3234.14133	13349.7875
3236.42858	13288.6875
3238.71446	13312.7875
3240.99896	13264.5875
3243.28209	13283.5875
3245.56384	13272.2875
3247.84423	13253.6875
3250.12324	13224.4875
3252.40088	13201.9875
3254.67715	13190.1875
3256.95205	13166.3875
3259.22558	13154.9875
3261.49775	13139.3875
3263.76855	13128.1875
3266.03799	13077.5875
3268.30606	13043.7875
3270.57277	13045.1875
3272.83812	13021.3875
3275.10211	13022.0875
3277.36474	13001.1875
3279.62601	13023.2875
3281.88593	13005.4875
3284.14448	12999.3875
3286.40168	12986.2875
3288.65753	12983.0875
3290.91202	12955.3875
3293.16516	12913.8875
3295.41695	12884.8875
3297.66738	12814.5875
3299.91647	12740.6875
3302.16421	12695.0875
3304.4106	12647.3875
3306.65564	12595.2875
3308.89933	12484.4875
3311.14169	12399.6875
3313.38269	12318.6875
3315.62236	12229.7875
3317.86068	12150.2875
3320.09766	12021.5875
3322.3333	11904.3875
3324.5676	11919.3875
3326.80056	11735.3875
3329.03219	11658.6875
3331.26248	2.9875
3333.49143	-1.3125
3335.71905	-0.3125
