Data from AgNPs_FTO_APTES_UA_2uM_CRN_100uM_R6G_10uM_NaF_0.1M_Addition_RamanShift__7__15-46-15-309.txt Node

Date: Wed Feb 02 15:46:15 GMT 2022
User: TCL
Spectrometer: QEP01345
Trigger mode: 4
Integration Time (sec): 7.000000E0
Scans to average: 10
Electric dark correction enabled: true
Nonlinearity correction enabled: false
Boxcar width: 0
XAxis mode: Raman Shifts
Number of Pixels in Spectrum: 1044
>>>>>Begin Spectral Data<<<<<
46.04893	0.2
50.45542	-0.5
54.85868	-0.5
59.25871	0.5
63.6555	74.5
68.04907	76.5
72.43941	82
76.82654	90
81.21044	93.7
85.59113	95.5
89.96862	100.5
94.34289	103.4
98.71396	102.4
103.08183	110.6
107.4465	112.6
111.80798	116.8
116.16626	116.8
120.52136	119.7
124.87327	124.6
129.222	125.6
133.56755	139.6
137.90993	150.2
142.24913	165.1
146.58517	185.2
150.91804	214.5
155.24774	254.7
159.57429	316.5
163.89768	400
168.21792	528.7
172.53501	721
176.84895	995.6
181.15975	1394.9
185.46741	1948
189.77193	2676.2
194.07331	3576.3
198.37157	4617.4
202.6667	5689.4
206.9587	6770.6
211.24758	7821.1
215.53334	8896.4
219.81599	10025.2
224.09553	11240.4
228.37195	12617.9
232.64527	14065.3
236.91549	15553.2
241.18261	17095
245.44663	18491.2
249.70755	19869.4
253.96539	21017.8
258.22014	21922.5
262.4718	22680.1
266.72039	23250.6
270.96589	23516.9
275.20832	23645.2
279.44768	23592
283.68397	23488.2
287.91719	23489.6
292.14735	23439.8
296.37445	23628
300.59849	23764.2
304.81948	23918.3
309.03742	23840.2
313.25231	23519.1
317.46415	22963.7
321.67296	22163.7
325.87872	21546.1
330.08145	21163.7
334.28114	21022.6
338.47781	21091
342.67145	21235.3
346.86207	21475.8
351.04966	21710.8
355.23424	21895
359.4158	22128.7
363.59435	22270.6
367.76989	22289
371.94243	22387.6
376.11196	22409.8
380.27849	22391.7
384.44203	22495
388.60257	22717.1
392.76012	23008.1
396.91468	23433.4
401.06626	23866.3
405.21485	24052
409.36047	23971.8
413.50311	23735.9
417.64277	23552
421.77947	23595.6
425.9132	23715
430.04396	23837.6
434.17176	23965
438.2966	24040.7
442.41849	24360
446.53742	24956.3
450.6534	25669.2
454.76644	26156.9
458.87653	26414.6
462.98368	26430.5
467.08789	26355.8
471.18916	26200.4
475.2875	26094.6
479.38291	26241.8
483.4754	26205.9
487.56496	25823.6
491.6516	25119.8
495.73531	24375
499.81612	23884.3
503.89401	23832.3
507.96899	23893.7
512.04106	23888.7
516.11023	23665.7
520.1765	23269.6
524.23987	22887.2
528.30034	22539.1
532.35792	22228.8
536.41261	21980.9
540.46441	21811.4
544.51333	21938.1
548.55936	22339
552.60252	23014
556.64279	23680.7
560.6802	24324.7
564.71473	24798.4
568.7464	25606
572.7752	26887.1
576.80114	28210.2
580.82422	29278.8
584.84444	30171.5
588.86181	31079
592.87633	31609.1
596.888	30877.1
600.89682	29265
604.9028	28475.6
608.90594	29086.8
612.90624	29847.5
616.90371	27652.4
620.89834	23751.7
624.89015	22072.7
628.87913	21988.8
632.86528	22329.6
636.84862	22354.2
640.82913	21951.8
644.80683	21425.8
648.78172	20998.5
652.75379	20912.7
656.72306	21008.9
660.68952	21204.3
664.65319	21074.3
668.61405	20830.3
672.57211	20796.3
676.52738	20851.3
680.47986	20890.7
684.42955	20787.5
688.37646	20650.9
692.32058	20757.1
696.26192	21027.3
700.20048	21324.7
704.13626	21565.5
708.06928	21733.6
711.99952	21728.2
715.927	21700.3
719.85171	21618.2
723.77365	21396.2
727.69284	21045.3
731.60928	20724
735.52295	20549.5
739.43388	20475.8
743.34206	20511.5
747.24749	20690.7
751.15017	21004.4
755.05012	21536
758.94733	22333.5
762.8418	23565.7
766.73354	25315.2
770.62254	26670
774.50882	26472.7
778.39237	25015.8
782.27321	23208.9
786.15132	21820.5
790.02671	20958.6
793.89938	20482.1
797.76935	20248
801.6366	20178.6
805.50115	20104.5
809.36299	20028.4
813.22213	19918.4
817.07857	19932
820.93231	19858
824.78336	19736.5
828.63172	19521.2
832.47738	19421.9
836.32036	19322.3
840.16066	19299.4
843.99827	19310.6
847.8332	19276.2
851.66546	19226
855.49504	19274.9
859.32195	19248.6
863.1462	19174.7
866.96777	19109.6
870.78668	19071
874.60293	19012.5
878.41652	19017.7
882.22745	19047.2
886.03573	19066.8
889.84136	19074.2
893.64433	19035.3
897.44466	19004.8
901.24235	18965.6
905.0374	18940.7
908.8298	18924.8
912.61957	19047.3
916.40671	19386.8
920.19121	19812.9
923.97308	20069.9
927.75233	19902.8
931.52895	19506.9
935.30295	19047.6
939.07433	18577.8
942.84309	18240.1
946.60924	18003.2
950.37278	17921.3
954.13371	17924.6
957.89203	17995.1
961.64774	18045.4
965.40086	18078.4
969.15137	17945.5
972.89929	17759.5
976.64461	17566.3
980.38733	17478
984.12747	17494.9
987.86502	17559.6
991.59999	17607.3
995.33237	17699.3
999.06217	17959.7
1002.78939	18267.8
1006.51404	18565.6
1010.23611	18849
1013.95561	19100.8
1017.67255	19192.5
1021.38692	19032.1
1025.09872	18739.2
1028.80796	18509.8
1032.51465	18410.3
1036.21877	18487
1039.92035	18618
1043.61937	18758.4
1047.31584	18844.8
1051.00976	18946.7
1054.70114	19091.9
1058.38998	19340.9
1062.07627	19700
1065.76003	20082
1069.44126	20496.8
1073.11995	20855.4
1076.79611	21120
1080.46974	21179.9
1084.14085	21154.7
1087.80943	21322.5
1091.47549	21588.6
1095.13903	21766.5
1098.80005	21487.8
1102.45857	20805.3
1106.11456	20134
1109.76805	19791.2
1113.41903	19688.3
1117.06751	19823.7
1120.71348	20044.9
1124.35696	20346.7
1127.99793	20717.2
1131.63641	20947.5
1135.2724	20933.3
1138.90589	20947.8
1142.5369	21124.7
1146.16542	21490.6
1149.79145	21973
1153.415	22461.9
1157.03607	23008.1
1160.65467	23907
1164.27079	25184.5
1167.88443	26772.9
1171.49561	28511.8
1175.10432	30386
1178.71056	32741.9
1182.31434	34716.9
1185.91565	35732.6
1189.51451	35600.2
1193.11091	34997.4
1196.70485	33954.4
1200.29634	32730.4
1203.88538	31838.1
1207.47197	31763.8
1211.05612	31768.7
1214.63782	31224.5
1218.21708	29977.8
1221.79391	28457
1225.36829	27288.9
1228.94024	26546.7
1232.50976	26101.1
1236.07685	25745.6
1239.6415	25604.9
1243.20374	25654.4
1246.76355	25886.9
1250.32093	26249.8
1253.8759	26872
1257.42845	27698.5
1260.97859	28589
1264.52631	29438.3
1268.07163	30317.5
1271.61453	31215.3
1275.15503	32269.1
1278.69312	33621.8
1282.22882	35024.7
1285.76211	36837.4
1289.29301	38953.4
1292.82151	41443.5
1296.34761	44404.9
1299.87133	47397.4
1303.39266	50023.9
1306.9116	51797.9
1310.42815	52833.6
1313.94233	53141.2
1317.45412	52918.8
1320.96354	52660.3
1324.47058	52870.7
1327.97525	53214.9
1331.47754	53327.6
1334.97747	53117
1338.47502	52528.3
1341.97022	51737.4
1345.46305	50664.9
1348.95352	49476.9
1352.44163	48374
1355.92738	47857
1359.41078	48224.7
1362.89183	48677.1
1366.37053	47960.8
1369.84688	45025.4
1373.32088	40929.1
1376.79254	38064.8
1380.26186	37319
1383.72883	37792.8
1387.19347	38361.8
1390.65578	38522.2
1394.11575	38617.7
1397.57339	39033.3
1401.0287	39608.2
1404.48168	39825.3
1407.93234	39199.7
1411.38068	37730
1414.82669	35592.8
1418.27039	33396
1421.71177	31348.4
1425.15083	29861.6
1428.58758	29186.2
1432.02203	29409.1
1435.45416	30389.6
1438.88399	31583.7
1442.31151	32620.3
1445.73673	33356.7
1449.15965	34096.5
1452.58027	34602.6
1455.9986	35000.7
1459.41463	35246
1462.82837	35698.2
1466.23982	36078.7
1469.64898	36466.3
1473.05586	36593.2
1476.46045	36416.8
1479.86276	35988.7
1483.26279	35407.4
1486.66054	35186.7
1490.05602	35312.1
1493.44922	35713.7
1496.84016	36378.4
1500.22882	37271
1503.61521	38365.8
1506.99934	39572
1510.38121	40429
1513.76081	40715.4
1517.13816	40278.5
1520.51324	39801
1523.88607	39592.6
1527.25665	39836.3
1530.62498	39996.8
1533.99105	39819.7
1537.35488	38974.5
1540.71647	37692.1
1544.07581	36069.1
1547.4329	34521.4
1550.78776	33222.2
1554.14038	32426.8
1557.49077	31991.7
1560.83892	31689
1564.18484	31749
1567.52853	31863.4
1570.86999	32316.8
1574.20922	33329.2
1577.54624	34464.4
1580.88103	35243.6
1584.2136	36115.8
1587.54395	37340.3
1590.87208	38918.7
1594.19801	40659.4
1597.52172	42050.9
1600.84321	41729.4
1604.16251	39306.4
1607.47959	35816
1610.79447	32400.5
1614.10715	29353.9
1617.41763	26859.9
1620.7259	25149.2
1624.03199	24278.9
1627.33587	24328.2
1630.63757	25279.4
1633.93707	27378.9
1637.23439	30864.5
1640.52951	35747.3
1643.82246	41490.5
1647.11321	46101.6
1650.40179	47073.9
1653.68819	43669.7
1656.97241	37453
1660.25446	31053.7
1663.53433	26087.3
1666.81203	22666.5
1670.08756	20498.5
1673.36092	19100.7
1676.63211	18232.9
1679.90115	17642.7
1683.16801	17222
1686.43272	16890.8
1689.69527	16631.6
1692.95567	16486.8
1696.2139	16363.1
1699.46999	16276
1702.72392	16141.8
1705.97571	16011.6
1709.22535	15905.7
1712.47284	15860.4
1715.71819	15779.4
1718.96139	15691.2
1722.20246	15633.4
1725.44139	15526.7
1728.67818	15438.7
1731.91284	15324.6
1735.14537	15206.8
1738.37576	15125.1
1741.60403	15053
1744.83017	14991.4
1748.05418	14930.6
1751.27607	14921.4
1754.49584	14891.9
1757.71349	14896.4
1760.92903	14829.8
1764.14244	14840.6
1767.35375	14822.4
1770.56294	14751.2
1773.77002	14675.6
1776.97499	14612.4
1780.17785	14563
1783.37861	14518.4
1786.57727	14486.9
1789.77382	14423.9
1792.96828	14371.3
1796.16064	14365.2
1799.3509	14307.8
1802.53907	14256.5
1805.72514	14186.5
1808.90913	14147.9
1812.09102	14135.3
1815.27083	14103.7
1818.44856	14072.4
1821.6242	14042.8
1824.79776	14059.5
1827.96924	14033.2
1831.13864	14006.1
1834.30597	13993.3
1837.47122	13999
1840.6344	13991.9
1843.7955	14010.5
1846.95454	13964.2
1850.11151	13982.7
1853.26642	13947.3
1856.41926	13925.5
1859.57004	13891
1862.71876	13877.3
1865.86542	13825.6
1869.01003	13841.4
1872.15258	13803.7
1875.29308	13761.1
1878.43152	13738.7
1881.56792	13696
1884.70227	13688
1887.83457	13669.9
1890.96482	13667.3
1894.09304	13611.2
1897.21921	13631.9
1900.34335	13602.3
1903.46544	13562.1
1906.58551	13513.1
1909.70353	13489.3
1912.81953	13476.5
1915.93349	13433.4
1919.04543	13402.4
1922.15534	13342.8
1925.26322	13328.1
1928.36908	13287
1931.47292	13266
1934.57473	13209.9
1937.67453	13171.9
1940.77232	13137.6
1943.86808	13094.9
1946.96184	13086.5
1950.05358	13030.7
1953.14331	12981.5
1956.23103	12951.2
1959.31675	12875
1962.40046	12822
1965.48217	12800.8
1968.56188	12731.8
1971.63959	12685
1974.7153	12659.9
1977.78901	12640.8
1980.86073	12588.9
1983.93046	12505.4
1986.99819	12465
1990.06394	12447.2
1993.1277	12401.6
1996.18947	12347.5
1999.24925	12323.4
2002.30706	12241.6
2005.36288	12230.2
2008.41672	12194.5
2011.46859	12162.5
2014.51848	12086.8
2017.56639	12062.1
2020.61233	12029.6
2023.6563	12003.7
2026.6983	11987.7
2029.73833	11970.3
2032.7764	11921.3
2035.8125	11883.3
2038.84664	11870.8
2041.87881	11851.4
2044.90903	11834.5
2047.93729	11805.6
2050.96359	11767.3
2053.98794	11749.5
2057.01034	11764.2
2060.03078	11716.8
2063.04927	11730.3
2066.06582	11709.6
2069.08042	11690.7
2072.09307	11693.4
2075.10378	11662.7
2078.11255	11655.7
2081.11938	11636.5
2084.12426	11608
2087.12722	11629.8
2090.12824	11598.9
2093.12732	11621.3
2096.12447	11620.1
2099.11969	11630.8
2102.11299	11608.2
2105.10435	11626.5
2108.09379	11626.5
2111.08131	11616.6
2114.0669	11608.3
2117.05057	11607.9
2120.03233	11634.3
2123.01216	11625.9
2125.99008	11631
2128.96609	11604.7
2131.94018	11597.7
2134.91236	11585.7
2137.88263	11572.3
2140.851	11583.9
2143.81746	11610.2
2146.78201	11590.6
2149.74466	11609
2152.7054	11614.5
2155.66425	11565.7
2158.6212	11551.8
2161.57625	11544.3
2164.52941	11544.1
2167.48067	11518.2
2170.43004	11507.1
2173.37752	11513.2
2176.32311	11512
2179.26681	11492.9
2182.20863	11474.1
2185.14856	11507.3
2188.08661	11454
2191.02278	11472.2
2193.95707	11433.6
2196.88948	11441.8
2199.82001	11436.2
2202.74867	11397.3
2205.67545	11378.2
2208.60037	11347.6
2211.52341	11315.1
2214.44458	11328.7
2217.36388	11313.5
2220.28132	11292.6
2223.1969	11268.6
2226.11061	11250.5
2229.02246	11210.7
2231.93245	11188.3
2234.84058	11177.1
2237.74686	11131
2240.65128	11144
2243.55385	11139.3
2246.45456	11094.2
2249.35343	11078.4
2252.25044	11034.8
2255.14561	11009.7
2258.03893	10992
2260.93041	10945.9
2263.82004	10914.5
2266.70783	10897.8
2269.59378	10838.4
2272.4779	10813.8
2275.36017	10771
2278.24061	10761
2281.11922	10749.4
2283.996	10709.8
2286.87094	10698.9
2289.74405	10667.3
2292.61534	10654
2295.4848	10616
2298.35243	10636.2
2301.21824	10621
2304.08223	10611
2306.94439	10601.4
2309.80474	10586.7
2312.66327	10574.7
2315.51999	10553.1
2318.37489	10573.4
2321.22797	10531
2324.07925	10515.6
2326.92871	10481.5
2329.77637	10510.8
2332.62222	10470.5
2335.46626	10440
2338.3085	10447.5
2341.14893	10438.7
2343.98756	10427.9
2346.8244	10425
2349.65943	10435.8
2352.49267	10432.9
2355.32411	10427.6
2358.15376	10407.7
2360.98161	10413.8
2363.80768	10419.9
2366.63195	10386.3
2369.45444	10382.3
2372.27514	10370.4
2375.09405	10348.1
2377.91118	10354.2
2380.72652	10311.2
2383.54009	10274.9
2386.35187	10280.1
2389.16188	10230.5
2391.97011	10202.5
2394.77657	10198.1
2397.58125	10169.4
2400.38416	10141.3
2403.18529	10146.2
2405.98466	10126.4
2408.78226	10126.4
2411.57809	10084.1
2414.37216	10105.4
2417.16446	10098.2
2419.955	10086.1
2422.74378	10069
2425.5308	10077.1
2428.31606	10068.3
2431.09956	10041.4
2433.88131	10016.2
2436.6613	9993.6
2439.43954	10014.8
2442.21603	10013.3
2444.99077	9974.3
2447.76377	9977
2450.53501	9992.3
2453.30451	9989.8
2456.07226	9964.8
2458.83827	9973.2
2461.60254	9964.8
2464.36507	9966.3
2467.12586	9963.9
2469.88492	9931.2
2472.64224	9953.5
2475.39782	9944
2478.15167	9941.7
2480.90379	9940
2483.65417	9932.7
2486.40283	9915
2489.14976	9948.9
2491.89497	9918.4
2494.63845	9909.9
2497.3802	9928.6
2500.12024	9907.3
2502.85855	9903.2
2505.59514	9903.9
2508.33002	9938
2511.06318	9904.9
2513.79462	9853.9
2516.52435	9877.9
2519.25237	9872.2
2521.97867	9845.3
2524.70327	9840.4
2527.42616	9806.3
2530.14734	9833.1
2532.86681	9789.2
2535.58458	9823.5
2538.30065	9786.4
2541.01501	9774.4
2543.72768	9756.4
2546.43864	9744.7
2549.14791	9719.8
2551.85548	9720.4
2554.56136	9730.7
2557.26554	9700.1
2559.96803	9711.3
2562.66883	9705.9
2565.36794	9662.6
2568.06536	9703
2570.7611	9683.6
2573.45514	9672
2576.14751	9657.4
2578.83819	9645.8
2581.52719	9618.5
2584.21451	9627.1
2586.90015	9619.2
2589.58411	9610.3
2592.2664	9606.7
2594.94701	9596.7
2597.62594	9620
2600.30321	9568.6
2602.9788	9563.8
2605.65273	9556.5
2608.32498	9576.5
2610.99557	9569.3
2613.66449	9606.2
2616.33175	9562
2618.99734	9565.8
2621.66128	9556.8
2624.32355	9539.8
2626.98416	9544.4
2629.64311	9537.9
2632.30041	9536.7
2634.95605	9516.3
2637.61004	9505.1
2640.26238	9489.5
2642.91306	9486.6
2645.56209	9497.7
2648.20948	9478.8
2650.85521	9509.6
2653.4993	9508.2
2656.14175	9500.6
2658.78255	9496.9
2661.42171	9513.2
2664.05923	9532.4
2666.6951	9523.7
2669.32934	9543.1
2671.96194	9529.8
2674.59291	9521.9
2677.22224	9527.3
2679.84993	9504.6
2682.476	9514.7
2685.10043	9507.3
2687.72324	9495.3
2690.34441	9488
2692.96396	9511.4
2695.58188	9498.3
2698.19818	9470.8
2700.81285	9506.1
2703.4259	9525
2706.03733	9548.7
2708.64714	9525.1
2711.25533	9519.5
2713.86191	9487.5
2716.46687	9512.3
2719.07021	9535.8
2721.67194	9541.3
2724.27206	9537
2726.87057	9556.6
2729.46747	9544.3
2732.06276	9559
2734.65644	9558.1
2737.24852	9539.3
2739.83899	9537.4
2742.42786	9544
2745.01513	9508.6
2747.60079	9500.1
2750.18486	9502.8
2752.76733	9520.2
2755.3482	9485.8
2757.92747	9510.5
2760.50515	9523.3
2763.08123	9505.8
2765.65573	9507.8
2768.22863	9484.7
2770.79994	9467.8
2773.36967	9501
2775.9378	9476.5
2778.50435	9463.5
2781.06932	9465.6
2783.6327	9484.7
2786.1945	9455.3
2788.75471	9479.5
2791.31335	9422.7
2793.87041	9444.3
2796.42589	9402.8
2798.97979	9399.4
2801.53212	9384.6
2804.08288	9403.9
2806.63206	9378.7
2809.17967	9343.6
2811.72571	9315.9
2814.27018	9304.9
2816.81308	9299
2819.35442	9287.9
2821.89419	9250.1
2824.43239	9272.5
2826.96904	9246.8
2829.50412	9239.1
2832.03763	9222.1
2834.56959	9238.7
2837.1	9232.5
2839.62884	9249.6
2842.15613	9241.2
2844.68186	9290
2847.20604	9304.7
2849.72867	9310.6
2852.24974	9322.4
2854.76927	9310.2
2857.28724	9282.8
2859.80367	9260.6
2862.31855	9257
2864.83189	9242.9
2867.34368	9234.6
2869.85393	9248.5
2872.36264	9213.3
2874.8698	9206
2877.37543	9190.5
2879.87952	9184.5
2882.38207	9211.1
2884.88308	9184.3
2887.38256	9199.9
2889.88051	9178
2892.37692	9192.4
2894.8718	9187.1
2897.36515	9206.1
2899.85698	9190.6
2902.34727	9213.1
2904.83604	9210.4
2907.32328	9247.2
2909.809	9217.7
2912.29319	9222.8
2914.77587	9212.3
2917.25702	9211
2919.73665	9212.4
2922.21476	9211.6
2924.69136	9206.1
2927.16644	9227.9
2929.64	9233
2932.11205	9227.6
2934.58258	9208.9
2937.05161	9199.2
2939.51912	9201
2941.98513	9149.4
2944.44962	9144
2946.91261	9090.2
2949.37409	9080.3
2951.83407	9079.6
2954.29254	9048.4
2956.74951	9034.6
2959.20498	9015.4
2961.65895	8981.2
2964.11142	8969.1
2966.56239	8974
2969.01186	8944.5
2971.45984	8900.3
2973.90632	8893
2976.35131	8866.4
2978.7948	8820.3
2981.23681	8791.7
2983.67732	8785.7
2986.11635	8751.3
2988.55388	8742.7
2990.98993	8693.1
2993.4245	8701.6
2995.85758	8665.9
2998.28917	8650.9
3000.71928	8610.2
3003.14791	8585.2
3005.57506	8593
3008.00073	8559.3
3010.42493	8524.3
3012.84764	8515.7
3015.26888	8516.5
3017.68865	8483.3
3020.10694	8464.5
3022.52376	8454.4
3024.9391	8417.7
3027.35298	8403.3
3029.76539	8417.8
3032.17632	8384.5
3034.5858	8382.7
3036.9938	8391.6
3039.40034	8365.1
3041.80542	8360.4
3044.20903	8365.4
3046.61118	8347.2
3049.01187	8299.6
3051.4111	8282.4
3053.80888	8257.5
3056.20519	8241.5
3058.60005	8233.8
3060.99345	8212.6
3063.3854	8197.5
3065.7759	8168.1
3068.16494	8134.8
3070.55254	8102.6
3072.93868	8077.7
3075.32338	8055.9
3077.70662	8047
3080.08842	8007.5
3082.46878	7970.4
3084.84769	7988.8
3087.22515	7966.9
3089.60118	7962.3
3091.97576	7971.9
3094.3489	7960.3
3096.72061	7946.6
3099.09087	7929.9
3101.4597	7937.3
3103.82709	7918.5
3106.19305	7883.3
3108.55757	7887.1
3110.92066	7866.9
3113.28232	7836.5
3115.64255	7802.6
3118.00134	7775.9
3120.35871	7767.7
3122.71466	7746.6
3125.06917	7762.7
3127.42226	7750.1
3129.77393	7737
3132.12417	7702.7
3134.47299	7699.2
3136.82039	7707.1
3139.16636	7710.1
3141.51092	7707.9
3143.85406	7696.6
3146.19579	7698.4
3148.53609	7701.4
3150.87499	7715.5
3153.21246	7695.9
3155.54853	7689.9
3157.88318	7697.7
3160.21642	7678
3162.54826	7692.1
3164.87868	7683.9
3167.2077	7688.3
3169.5353	7692.6
3171.86151	7682.5
3174.18631	7659.1
3176.5097	7677.4
3178.83169	7647.5
3181.15228	7640
3183.47147	7629.5
3185.78926	7623.6
3188.10565	7625.2
3190.42065	7616
3192.73424	7589.6
3195.04645	7598.3
3197.35725	7582
3199.66667	7573.1
3201.97469	7596.7
3204.28132	7560.4
3206.58656	7554
3208.8904	7560.3
3211.19287	7556
3213.49394	7558
3215.79363	7565.1
3218.09193	7577.6
3220.38884	7556.7
3222.68438	7562.9
3224.97853	7543.9
3227.2713	7538.7
3229.56269	7529.1
3231.8527	7521
3234.14133	7519.9
3236.42858	7496.7
3238.71446	7489.8
3240.99896	7465.8
3243.28209	7478.2
3245.56384	7471.7
3247.84423	7444.3
3250.12324	7425.9
3252.40088	7426.6
3254.67715	7410.2
3256.95205	7383.3
3259.22558	7404.8
3261.49775	7354.5
3263.76855	7340.7
3266.03799	7328.1
3268.30606	7289.4
3270.57277	7296.9
3272.83812	7291.2
3275.10211	7253.4
3277.36474	7264.1
3279.62601	7252.9
3281.88593	7234.7
3284.14448	7249.1
3286.40168	7251.8
3288.65753	7234.4
3290.91202	7239.3
3293.16516	7187.3
3295.41695	7195.6
3297.66738	7144.2
3299.91647	7091.6
3302.16421	7052.6
3304.4106	7034.5
3306.65564	6974
3308.89933	6941.9
3311.14169	6879.8
3313.38269	6845.6
3315.62236	6800.6
3317.86068	6723.9
3320.09766	6653.5
3322.3333	6595.7
3324.5676	6590.4
3326.80056	6475.1
3329.03219	6437.8
3331.26248	1.1
3333.49143	-0.6
3335.71905	-0.5
