Data from AgNPs_FTO_APTES_UA_2uM_CRN_1uM_R6G_10uM_NaF_0.1M_Addition_RamanShift__3__11-22-35-002.txt Node

Date: Wed Feb 02 11:22:35 GMT 2022
User: TCL
Spectrometer: QEP01345
Trigger mode: 4
Integration Time (sec): 7.000000E0
Scans to average: 10
Electric dark correction enabled: true
Nonlinearity correction enabled: false
Boxcar width: 0
XAxis mode: Raman Shifts
Number of Pixels in Spectrum: 1044
>>>>>Begin Spectral Data<<<<<
46.04893	-0.8125
50.45542	-0.0125
54.85868	-0.6125
59.25871	0.0875
63.6555	75.6875
68.04907	81.1875
72.43941	80.7875
76.82654	92.4875
81.21044	95.4875
85.59113	100.0875
89.96862	99.9875
94.34289	106.1875
98.71396	107.6875
103.08183	113.8875
107.4465	114.1875
111.80798	118.6875
116.16626	120.8875
120.52136	123.4875
124.87327	128.6875
129.222	136.2875
133.56755	143.0875
137.90993	154.8875
142.24913	170.5875
146.58517	192.3875
150.91804	223.7875
155.24774	269.0875
159.57429	335.2875
163.89768	435.0875
168.21792	570.1875
172.53501	774.8875
176.84895	1084.7875
181.15975	1517.2875
185.46741	2131.9875
189.77193	2922.0875
194.07331	3904.7875
198.37157	5013.7875
202.6667	6190.6875
206.9587	7367.2875
211.24758	8526.9875
215.53334	9721.3875
219.81599	11008.3875
224.09553	12454.4875
228.37195	14042.6875
232.64527	15692.0875
236.91549	17460.3875
241.18261	19156.4875
245.44663	20667.0875
249.70755	21982.3875
253.96539	23078.1875
258.22014	24010.8875
262.4718	24761.9875
266.72039	25281.2875
270.96589	25421.0875
275.20832	25345.9875
279.44768	24996.4875
283.68397	24637.8875
287.91719	24385.6875
292.14735	24238.1875
296.37445	24272.0875
300.59849	24515.5875
304.81948	24866.1875
309.03742	25117.3875
313.25231	25082.8875
317.46415	24725.5875
321.67296	24142.0875
325.87872	23594.6875
330.08145	23321.0875
334.28114	23203.5875
338.47781	23292.4875
342.67145	23525.1875
346.86207	23860.6875
351.04966	24359.0875
355.23424	24892.2875
359.4158	25361.9875
363.59435	25663.6875
367.76989	25844.1875
371.94243	25916.8875
376.11196	25898.1875
380.27849	25902.3875
384.44203	26012.4875
388.60257	26211.9875
392.76012	26410.6875
396.91468	26709.8875
401.06626	27143.6875
405.21485	27478.1875
409.36047	27436.8875
413.50311	27109.3875
417.64277	27020.6875
421.77947	27111.7875
425.9132	27216.1875
430.04396	27286.0875
434.17176	27385.5875
438.2966	27513.1875
442.41849	28024.3875
446.53742	29009.4875
450.6534	30083.0875
454.76644	30613.4875
458.87653	30471.3875
462.98368	29985.1875
467.08789	29357.9875
471.18916	28622.9875
475.2875	27874.8875
479.38291	27386.2875
483.4754	27245.4875
487.56496	27062.6875
491.6516	26837.8875
495.73531	26523.9875
499.81612	26419.2875
503.89401	26517.0875
507.96899	26570.0875
512.04106	26399.1875
516.11023	26163.6875
520.1765	25855.9875
524.23987	25772.7875
528.30034	25687.3875
532.35792	25504.9875
536.41261	25028.1875
540.46441	24503.9875
544.51333	24279.7875
548.55936	24521.1875
552.60252	25132.9875
556.64279	25953.3875
560.6802	26645.4875
564.71473	26975.8875
568.7464	27378.2875
572.7752	28151.6875
576.80114	28998.3875
580.82422	30126.0875
584.84444	31962.2875
588.86181	34420.7875
592.87633	36543.5875
596.888	36353.8875
600.89682	33707.6875
604.9028	32373.6875
608.90594	34737.1875
612.90624	38006.4875
616.90371	35862.0875
620.89834	29227.1875
624.89015	26064.3875
628.87913	25607.9875
632.86528	25557.4875
636.84862	25277.8875
640.82913	24686.2875
644.80683	23958.9875
648.78172	23588.2875
652.75379	23718.9875
656.72306	24087.7875
660.68952	24494.2875
664.65319	24267.3875
668.61405	23566.2875
672.57211	23462.0875
676.52738	23626.3875
680.47986	23600.8875
684.42955	23386.5875
688.37646	23191.2875
692.32058	23398.6875
696.26192	24000.3875
700.20048	24609.4875
704.13626	24885.1875
708.06928	24798.1875
711.99952	24668.7875
715.927	24759.7875
719.85171	25097.5875
723.77365	25013.6875
727.69284	24452.4875
731.60928	23929.5875
735.52295	23754.4875
739.43388	23804.3875
743.34206	23914.5875
747.24749	24105.2875
751.15017	24415.5875
755.05012	24860.6875
758.94733	25622.7875
762.8418	27083.1875
766.73354	29311.9875
770.62254	31479.4875
774.50882	31913.6875
778.39237	30385.8875
782.27321	28067.4875
786.15132	26070.7875
790.02671	24849.7875
793.89938	24334.4875
797.76935	24088.4875
801.6366	24039.0875
805.50115	23950.3875
809.36299	23807.9875
813.22213	23540.6875
817.07857	23359.1875
820.93231	23147.5875
824.78336	23001.8875
828.63172	22922.4875
832.47738	22951.0875
836.32036	23028.4875
840.16066	23247.4875
843.99827	23359.0875
847.8332	23251.4875
851.66546	23119.9875
855.49504	23046.6875
859.32195	23005.3875
863.1462	22908.2875
866.96777	22785.7875
870.78668	22669.4875
874.60293	22684.3875
878.41652	22776.6875
882.22745	22911.5875
886.03573	23096.1875
889.84136	23147.0875
893.64433	23029.8875
897.44466	22921.4875
901.24235	22817.8875
905.0374	22775.8875
908.8298	22705.7875
912.61957	22731.5875
916.40671	22970.3875
920.19121	23350.7875
923.97308	23816.2875
927.75233	24118.9875
931.52895	24076.0875
935.30295	23564.4875
939.07433	22932.6875
942.84309	22441.8875
946.60924	22190.8875
950.37278	22154.2875
954.13371	22037.7875
957.89203	21959.0875
961.64774	21866.3875
965.40086	21865.5875
969.15137	21815.2875
972.89929	21661.6875
976.64461	21602.5875
980.38733	21629.3875
984.12747	21722.8875
987.86502	21926.2875
991.59999	22173.8875
995.33237	22655.6875
999.06217	23483.2875
1002.78939	24437.7875
1006.51404	25113.9875
1010.23611	25494.2875
1013.95561	25806.3875
1017.67255	25801.7875
1021.38692	25428.5875
1025.09872	24915.3875
1028.80796	24976.1875
1032.51465	25846.3875
1036.21877	26798.6875
1039.92035	27159.8875
1043.61937	26863.4875
1047.31584	26073.3875
1051.00976	25248.4875
1054.70114	24683.0875
1058.38998	24524.3875
1062.07627	24443.3875
1065.76003	24458.5875
1069.44126	24712.1875
1073.11995	25163.7875
1076.79611	25668.4875
1080.46974	25948.6875
1084.14085	26239.5875
1087.80943	26582.4875
1091.47549	26843.3875
1095.13903	26756.6875
1098.80005	26114.4875
1102.45857	25308.1875
1106.11456	24783.2875
1109.76805	24600.8875
1113.41903	24611.8875
1117.06751	24747.6875
1120.71348	25012.4875
1124.35696	25395.8875
1127.99793	25766.0875
1131.63641	26014.3875
1135.2724	25921.5875
1138.90589	25679.4875
1142.5369	25681.2875
1146.16542	25849.3875
1149.79145	26027.9875
1153.415	26248.3875
1157.03607	26667.0875
1160.65467	27761.5875
1164.27079	29506.6875
1167.88443	31594.0875
1171.49561	33743.7875
1175.10432	36527.9875
1178.71056	40305.9875
1182.31434	43867.1875
1185.91565	45264.2875
1189.51451	44263.1875
1193.11091	42087.0875
1196.70485	39784.8875
1200.29634	37867.4875
1203.88538	36582.6875
1207.47197	35799.1875
1211.05612	35163.2875
1214.63782	34383.4875
1218.21708	33574.8875
1221.79391	32970.0875
1225.36829	32604.7875
1228.94024	32201.8875
1232.50976	31453.7875
1236.07685	30576.2875
1239.6415	30015.9875
1243.20374	29784.9875
1246.76355	30050.2875
1250.32093	30589.3875
1253.8759	31506.1875
1257.42845	32671.2875
1260.97859	33978.3875
1264.52631	35323.2875
1268.07163	36595.2875
1271.61453	37983.7875
1275.15503	39429.4875
1278.69312	41049.2875
1282.22882	42713.1875
1285.76211	44501.4875
1289.29301	46638.0875
1292.82151	49055.4875
1296.34761	52073.1875
1299.87133	55947.5875
1303.39266	60191.8875
1306.9116	64143.3875
1310.42815	67123.9875
1313.94233	68337.2875
1317.45412	66983.7875
1320.96354	64313.7875
1324.47058	61488.1875
1327.97525	59456.4875
1331.47754	57798.1875
1334.97747	56437.0875
1338.47502	54866.9875
1341.97022	52766.6875
1345.46305	50993.0875
1348.95352	50525.1875
1352.44163	51927.8875
1355.92738	55618.1875
1359.41078	61005.8875
1362.89183	65575.3875
1366.37053	66048.1875
1369.84688	60502.6875
1373.32088	51851.5875
1376.79254	45466.1875
1380.26186	43065.2875
1383.72883	42842.3875
1387.19347	42520.3875
1390.65578	41559.9875
1394.11575	41155.0875
1397.57339	41783.4875
1401.0287	42984.7875
1404.48168	43906.4875
1407.93234	43896.5875
1411.38068	42982.1875
1414.82669	41476.9875
1418.27039	39765.8875
1421.71177	38087.4875
1425.15083	36597.0875
1428.58758	36022.4875
1432.02203	36634.9875
1435.45416	38043.7875
1438.88399	39354.7875
1442.31151	40116.5875
1445.73673	40407.7875
1449.15965	40435.0875
1452.58027	40080.7875
1455.9986	39357.3875
1459.41463	39055.7875
1462.82837	39518.0875
1466.23982	40543.8875
1469.64898	41633.9875
1473.05586	42328.9875
1476.46045	42715.8875
1479.86276	42745.1875
1483.26279	42528.9875
1486.66054	42547.4875
1490.05602	42902.2875
1493.44922	43539.2875
1496.84016	43871.3875
1500.22882	44261.5875
1503.61521	45225.8875
1506.99934	46474.8875
1510.38121	47752.0875
1513.76081	48239.8875
1517.13816	47322.1875
1520.51324	45480.5875
1523.88607	43989.7875
1527.25665	43445.4875
1530.62498	43304.1875
1533.99105	42949.1875
1537.35488	42222.0875
1540.71647	40920.8875
1544.07581	39568.1875
1547.4329	38168.4875
1550.78776	36969.0875
1554.14038	36157.7875
1557.49077	35665.3875
1560.83892	35266.9875
1564.18484	35157.3875
1567.52853	35398.8875
1570.86999	35898.7875
1574.20922	36705.5875
1577.54624	37459.3875
1580.88103	37881.6875
1584.2136	38554.5875
1587.54395	40517.4875
1590.87208	43850.1875
1594.19801	47725.9875
1597.52172	51130.9875
1600.84321	51745.6875
1604.16251	48301.3875
1607.47959	42855.4875
1610.79447	37413.1875
1614.10715	33021.6875
1617.41763	30153.1875
1620.7259	28476.7875
1624.03199	27891.8875
1627.33587	28214.1875
1630.63757	29441.0875
1633.93707	31843.2875
1637.23439	35788.5875
1640.52951	41995.0875
1643.82246	49665.8875
1647.11321	55654.4875
1650.40179	56369.5875
1653.68819	50684.4875
1656.97241	42010.5875
1660.25446	34218.7875
1663.53433	28995.7875
1666.81203	25870.7875
1670.08756	24088.2875
1673.36092	22991.2875
1676.63211	22308.3875
1679.90115	21788.9875
1683.16801	21445.5875
1686.43272	21150.0875
1689.69527	20989.9875
1692.95567	20843.5875
1696.2139	20751.8875
1699.46999	20686.9875
1702.72392	20609.7875
1705.97571	20576.9875
1709.22535	20490.1875
1712.47284	20456.5875
1715.71819	20438.2875
1718.96139	20377.6875
1722.20246	20310.7875
1725.44139	20219.4875
1728.67818	20101.3875
1731.91284	19921.1875
1735.14537	19823.7875
1738.37576	19757.1875
1741.60403	19636.8875
1744.83017	19586.2875
1748.05418	19535.7875
1751.27607	19493.3875
1754.49584	19466.3875
1757.71349	19434.3875
1760.92903	19415.9875
1764.14244	19422.4875
1767.35375	19407.9875
1770.56294	19363.0875
1773.77002	19333.8875
1776.97499	19245.7875
1780.17785	19263.4875
1783.37861	19183.3875
1786.57727	19169.6875
1789.77382	19174.6875
1792.96828	19141.3875
1796.16064	19108.1875
1799.3509	19034.7875
1802.53907	19085.2875
1805.72514	18973.0875
1808.90913	18949.2875
1812.09102	18904.9875
1815.27083	18837.1875
1818.44856	18844.8875
1821.6242	18837.5875
1824.79776	18840.0875
1827.96924	18836.0875
1831.13864	18826.2875
1834.30597	18865.2875
1837.47122	18853.5875
1840.6344	18840.3875
1843.7955	18869.0875
1846.95454	18866.3875
1850.11151	18842.5875
1853.26642	18810.1875
1856.41926	18848.8875
1859.57004	18831.2875
1862.71876	18802.6875
1865.86542	18784.0875
1869.01003	18782.9875
1872.15258	18781.4875
1875.29308	18825.9875
1878.43152	18768.4875
1881.56792	18744.1875
1884.70227	18728.6875
1887.83457	18700.6875
1890.96482	18699.6875
1894.09304	18651.7875
1897.21921	18612.0875
1900.34335	18584.4875
1903.46544	18547.0875
1906.58551	18579.0875
1909.70353	18543.0875
1912.81953	18497.6875
1915.93349	18441.1875
1919.04543	18401.6875
1922.15534	18334.4875
1925.26322	18296.8875
1928.36908	18232.6875
1931.47292	18201.8875
1934.57473	18104.9875
1937.67453	18065.5875
1940.77232	18044.4875
1943.86808	17983.0875
1946.96184	17958.4875
1950.05358	17924.2875
1953.14331	17903.6875
1956.23103	17841.2875
1959.31675	17805.0875
1962.40046	17720.5875
1965.48217	17696.7875
1968.56188	17661.6875
1971.63959	17617.8875
1974.7153	17543.1875
1977.78901	17491.0875
1980.86073	17426.5875
1983.93046	17396.1875
1986.99819	17368.2875
1990.06394	17308.5875
1993.1277	17262.0875
1996.18947	17171.3875
1999.24925	17150.1875
2002.30706	17092.9875
2005.36288	17050.7875
2008.41672	17027.2875
2011.46859	16960.1875
2014.51848	16928.7875
2017.56639	16878.8875
2020.61233	16848.7875
2023.6563	16812.7875
2026.6983	16816.3875
2029.73833	16779.5875
2032.7764	16758.3875
2035.8125	16723.6875
2038.84664	16720.1875
2041.87881	16706.1875
2044.90903	16682.4875
2047.93729	16701.0875
2050.96359	16667.3875
2053.98794	16627.1875
2057.01034	16595.0875
2060.03078	16594.7875
2063.04927	16572.6875
2066.06582	16561.2875
2069.08042	16523.7875
2072.09307	16536.1875
2075.10378	16502.7875
2078.11255	16514.1875
2081.11938	16531.5875
2084.12426	16506.0875
2087.12722	16517.6875
2090.12824	16511.1875
2093.12732	16517.4875
2096.12447	16547.6875
2099.11969	16568.5875
2102.11299	16577.7875
2105.10435	16557.3875
2108.09379	16573.7875
2111.08131	16602.1875
2114.0669	16582.9875
2117.05057	16603.3875
2120.03233	16596.6875
2123.01216	16587.8875
2125.99008	16608.0875
2128.96609	16606.6875
2131.94018	16615.8875
2134.91236	16621.0875
2137.88263	16614.6875
2140.851	16623.2875
2143.81746	16646.9875
2146.78201	16623.8875
2149.74466	16646.3875
2152.7054	16642.0875
2155.66425	16619.4875
2158.6212	16637.0875
2161.57625	16602.7875
2164.52941	16620.0875
2167.48067	16638.9875
2170.43004	16627.9875
2173.37752	16645.2875
2176.32311	16630.6875
2179.26681	16666.4875
2182.20863	16674.0875
2185.14856	16638.9875
2188.08661	16655.5875
2191.02278	16643.6875
2193.95707	16639.4875
2196.88948	16621.9875
2199.82001	16637.7875
2202.74867	16607.9875
2205.67545	16667.9875
2208.60037	16653.8875
2211.52341	16632.3875
2214.44458	16606.0875
2217.36388	16576.1875
2220.28132	16545.4875
2223.1969	16533.2875
2226.11061	16522.4875
2229.02246	16513.4875
2231.93245	16506.7875
2234.84058	16498.8875
2237.74686	16487.7875
2240.65128	16472.7875
2243.55385	16389.7875
2246.45456	16394.7875
2249.35343	16350.6875
2252.25044	16283.3875
2255.14561	16298.3875
2258.03893	16291.3875
2260.93041	16232.8875
2263.82004	16214.6875
2266.70783	16227.9875
2269.59378	16138.2875
2272.4779	16106.9875
2275.36017	16082.1875
2278.24061	16044.5875
2281.11922	16026.9875
2283.996	16004.8875
2286.87094	15985.2875
2289.74405	15974.6875
2292.61534	15929.4875
2295.4848	15946.6875
2298.35243	15977.0875
2301.21824	15987.4875
2304.08223	15963.2875
2306.94439	15981.0875
2309.80474	16022.9875
2312.66327	16048.6875
2315.51999	16026.5875
2318.37489	16025.5875
2321.22797	16008.4875
2324.07925	15982.2875
2326.92871	15990.4875
2329.77637	15981.1875
2332.62222	15988.4875
2335.46626	15981.4875
2338.3085	15933.5875
2341.14893	15980.5875
2343.98756	16000.8875
2346.8244	15974.1875
2349.65943	15970.4875
2352.49267	15969.0875
2355.32411	15943.2875
2358.15376	15935.0875
2360.98161	15942.7875
2363.80768	15913.2875
2366.63195	15877.0875
2369.45444	15885.1875
2372.27514	15862.2875
2375.09405	15805.0875
2377.91118	15782.8875
2380.72652	15744.5875
2383.54009	15728.7875
2386.35187	15711.8875
2389.16188	15657.9875
2391.97011	15660.1875
2394.77657	15631.3875
2397.58125	15637.7875
2400.38416	15627.4875
2403.18529	15575.9875
2405.98466	15551.3875
2408.78226	15512.1875
2411.57809	15480.2875
2414.37216	15473.0875
2417.16446	15441.6875
2419.955	15478.7875
2422.74378	15478.5875
2425.5308	15440.2875
2428.31606	15444.2875
2431.09956	15450.2875
2433.88131	15412.0875
2436.6613	15405.8875
2439.43954	15408.2875
2442.21603	15390.9875
2444.99077	15402.3875
2447.76377	15408.8875
2450.53501	15429.9875
2453.30451	15436.4875
2456.07226	15427.0875
2458.83827	15437.6875
2461.60254	15436.9875
2464.36507	15427.0875
2467.12586	15431.2875
2469.88492	15443.3875
2472.64224	15437.7875
2475.39782	15456.5875
2478.15167	15468.1875
2480.90379	15449.0875
2483.65417	15444.8875
2486.40283	15473.1875
2489.14976	15487.8875
2491.89497	15499.4875
2494.63845	15468.9875
2497.3802	15456.5875
2500.12024	15472.5875
2502.85855	15458.4875
2505.59514	15464.3875
2508.33002	15448.6875
2511.06318	15431.6875
2513.79462	15422.8875
2516.52435	15364.6875
2519.25237	15418.0875
2521.97867	15360.0875
2524.70327	15365.8875
2527.42616	15329.9875
2530.14734	15319.9875
2532.86681	15346.3875
2535.58458	15319.6875
2538.30065	15315.0875
2541.01501	15293.4875
2543.72768	15298.8875
2546.43864	15288.3875
2549.14791	15279.1875
2551.85548	15252.5875
2554.56136	15268.3875
2557.26554	15265.5875
2559.96803	15248.2875
2562.66883	15246.2875
2565.36794	15266.1875
2568.06536	15280.8875
2570.7611	15269.9875
2573.45514	15275.5875
2576.14751	15277.4875
2578.83819	15270.5875
2581.52719	15244.4875
2584.21451	15285.7875
2586.90015	15256.5875
2589.58411	15228.1875
2592.2664	15219.3875
2594.94701	15215.4875
2597.62594	15188.7875
2600.30321	15175.9875
2602.9788	15185.1875
2605.65273	15149.5875
2608.32498	15203.1875
2610.99557	15189.2875
2613.66449	15190.7875
2616.33175	15167.1875
2618.99734	15178.4875
2621.66128	15183.6875
2624.32355	15175.9875
2626.98416	15201.8875
2629.64311	15169.5875
2632.30041	15163.4875
2634.95605	15121.4875
2637.61004	15123.6875
2640.26238	15142.2875
2642.91306	15097.4875
2645.56209	15061.9875
2648.20948	15091.6875
2650.85521	15105.5875
2653.4993	15078.3875
2656.14175	15084.3875
2658.78255	15088.4875
2661.42171	15119.0875
2664.05923	15142.4875
2666.6951	15106.3875
2669.32934	15163.6875
2671.96194	15144.6875
2674.59291	15201.7875
2677.22224	15150.9875
2679.84993	15154.8875
2682.476	15151.7875
2685.10043	15150.4875
2687.72324	15115.7875
2690.34441	15142.6875
2692.96396	15091.1875
2695.58188	15111.7875
2698.19818	15097.4875
2700.81285	15142.8875
2703.4259	15129.9875
2706.03733	15164.5875
2708.64714	15151.3875
2711.25533	15170.2875
2713.86191	15148.3875
2716.46687	15185.4875
2719.07021	15163.6875
2721.67194	15190.2875
2724.27206	15167.1875
2726.87057	15222.9875
2729.46747	15183.7875
2732.06276	15217.8875
2734.65644	15240.7875
2737.24852	15261.2875
2739.83899	15211.1875
2742.42786	15244.1875
2745.01513	15202.4875
2747.60079	15219.4875
2750.18486	15221.0875
2752.76733	15226.4875
2755.3482	15245.0875
2757.92747	15231.6875
2760.50515	15224.1875
2763.08123	15229.9875
2765.65573	15208.7875
2768.22863	15241.9875
2770.79994	15197.8875
2773.36967	15206.0875
2775.9378	15185.5875
2778.50435	15210.1875
2781.06932	15196.8875
2783.6327	15201.2875
2786.1945	15192.8875
2788.75471	15206.5875
2791.31335	15182.3875
2793.87041	15147.9875
2796.42589	15126.8875
2798.97979	15122.8875
2801.53212	15111.6875
2804.08288	15096.5875
2806.63206	15085.5875
2809.17967	15074.6875
2811.72571	15038.9875
2814.27018	15036.8875
2816.81308	15002.5875
2819.35442	15059.0875
2821.89419	15031.5875
2824.43239	15012.4875
2826.96904	15008.1875
2829.50412	15003.1875
2832.03763	14944.7875
2834.56959	14953.5875
2837.1	14966.0875
2839.62884	14997.9875
2842.15613	15011.8875
2844.68186	15086.5875
2847.20604	15121.8875
2849.72867	15122.8875
2852.24974	15141.4875
2854.76927	15134.9875
2857.28724	15150.6875
2859.80367	15174.2875
2862.31855	15149.7875
2864.83189	15142.8875
2867.34368	15117.0875
2869.85393	15139.7875
2872.36264	15110.7875
2874.8698	15168.7875
2877.37543	15207.8875
2879.87952	15212.9875
2882.38207	15252.3875
2884.88308	15271.2875
2887.38256	15262.1875
2889.88051	15263.9875
2892.37692	15275.6875
2894.8718	15306.8875
2897.36515	15343.0875
2899.85698	15336.4875
2902.34727	15375.8875
2904.83604	15362.6875
2907.32328	15398.3875
2909.809	15371.9875
2912.29319	15385.3875
2914.77587	15383.3875
2917.25702	15352.8875
2919.73665	15360.3875
2922.21476	15359.7875
2924.69136	15309.9875
2927.16644	15348.3875
2929.64	15328.2875
2932.11205	15332.5875
2934.58258	15247.0875
2937.05161	15275.6875
2939.51912	15253.9875
2941.98513	15220.7875
2944.44962	15145.7875
2946.91261	15067.4875
2949.37409	15090.5875
2951.83407	15039.5875
2954.29254	15032.4875
2956.74951	14975.6875
2959.20498	14959.0875
2961.65895	14901.4875
2964.11142	14898.2875
2966.56239	14855.9875
2969.01186	14880.6875
2971.45984	14786.2875
2973.90632	14742.3875
2976.35131	14703.4875
2978.7948	14655.8875
2981.23681	14591.0875
2983.67732	14543.6875
2986.11635	14487.7875
2988.55388	14484.6875
2990.98993	14459.6875
2993.4245	14393.0875
2995.85758	14399.6875
2998.28917	14362.1875
3000.71928	14359.8875
3003.14791	14326.2875
3005.57506	14320.7875
3008.00073	14267.4875
3010.42493	14254.0875
3012.84764	14248.6875
3015.26888	14248.3875
3017.68865	14221.0875
3020.10694	14176.7875
3022.52376	14153.3875
3024.9391	14124.7875
3027.35298	14116.2875
3029.76539	14079.4875
3032.17632	14059.3875
3034.5858	14054.3875
3036.9938	14052.7875
3039.40034	14041.4875
3041.80542	14037.4875
3044.20903	14032.3875
3046.61118	13985.6875
3049.01187	13990.0875
3051.4111	13970.3875
3053.80888	13927.5875
3056.20519	13929.8875
3058.60005	13890.7875
3060.99345	13846.4875
3063.3854	13858.1875
3065.7759	13812.0875
3068.16494	13806.0875
3070.55254	13773.3875
3072.93868	13761.3875
3075.32338	13741.8875
3077.70662	13721.2875
3080.08842	13657.4875
3082.46878	13647.7875
3084.84769	13642.3875
3087.22515	13623.7875
3089.60118	13632.6875
3091.97576	13628.0875
3094.3489	13596.7875
3096.72061	13616.6875
3099.09087	13626.7875
3101.4597	13593.4875
3103.82709	13577.0875
3106.19305	13534.3875
3108.55757	13516.0875
3110.92066	13497.8875
3113.28232	13448.3875
3115.64255	13423.0875
3118.00134	13423.1875
3120.35871	13404.2875
3122.71466	13363.7875
3125.06917	13366.8875
3127.42226	13340.6875
3129.77393	13360.6875
3132.12417	13335.1875
3134.47299	13348.3875
3136.82039	13346.3875
3139.16636	13356.8875
3141.51092	13333.5875
3143.85406	13354.2875
3146.19579	13355.9875
3148.53609	13364.8875
3150.87499	13353.0875
3153.21246	13371.8875
3155.54853	13353.9875
3157.88318	13340.5875
3160.21642	13359.5875
3162.54826	13353.0875
3164.87868	13349.5875
3167.2077	13342.0875
3169.5353	13310.0875
3171.86151	13302.4875
3174.18631	13331.7875
3176.5097	13304.4875
3178.83169	13310.2875
3181.15228	13318.2875
3183.47147	13285.0875
3185.78926	13261.2875
3188.10565	13252.4875
3190.42065	13274.9875
3192.73424	13307.1875
3195.04645	13284.4875
3197.35725	13247.7875
3199.66667	13273.6875
3201.97469	13259.6875
3204.28132	13216.5875
3206.58656	13286.1875
3208.8904	13240.4875
3211.19287	13271.2875
3213.49394	13277.2875
3215.79363	13267.6875
3218.09193	13250.7875
3220.38884	13273.0875
3222.68438	13284.1875
3224.97853	13256.6875
3227.2713	13264.5875
3229.56269	13257.6875
3231.8527	13251.7875
3234.14133	13229.3875
3236.42858	13195.5875
3238.71446	13193.1875
3240.99896	13182.2875
3243.28209	13195.8875
3245.56384	13213.2875
3247.84423	13183.0875
3250.12324	13172.0875
3252.40088	13162.7875
3254.67715	13125.1875
3256.95205	13119.5875
3259.22558	13086.8875
3261.49775	13079.6875
3263.76855	13078.1875
3266.03799	13059.6875
3268.30606	13062.0875
3270.57277	13018.6875
3272.83812	13011.3875
3275.10211	12988.7875
3277.36474	13001.3875
3279.62601	12979.6875
3281.88593	13004.3875
3284.14448	13021.4875
3286.40168	13012.6875
3288.65753	12993.9875
3290.91202	12991.8875
3293.16516	12947.5875
3295.41695	12893.1875
3297.66738	12823.0875
3299.91647	12758.6875
3302.16421	12674.5875
3304.4106	12645.8875
3306.65564	12572.7875
3308.89933	12511.8875
3311.14169	12441.9875
3313.38269	12318.4875
3315.62236	12242.6875
3317.86068	12162.8875
3320.09766	12041.7875
3322.3333	11955.9875
3324.5676	11974.6875
3326.80056	11775.3875
3329.03219	11728.8875
3331.26248	3.5875
3333.49143	-0.3125
3335.71905	-1.6125
