Data from AgNPs_FTO_APTES_UA_2uM_CRN_50uM_R6G_10uM_NaF_0.1M_Addition_RamanShift__41__15-24-05-283.txt Node

Date: Wed Feb 02 15:24:05 GMT 2022
User: TCL
Spectrometer: QEP01345
Trigger mode: 4
Integration Time (sec): 7.000000E0
Scans to average: 10
Electric dark correction enabled: true
Nonlinearity correction enabled: false
Boxcar width: 0
XAxis mode: Raman Shifts
Number of Pixels in Spectrum: 1044
>>>>>Begin Spectral Data<<<<<
46.04893	0.6875
50.45542	0.2875
54.85868	-0.3125
59.25871	-0.6125
63.6555	82.0875
68.04907	83.4875
72.43941	90.2875
76.82654	98.3875
81.21044	101.8875
85.59113	105.2875
89.96862	108.4875
94.34289	111.8875
98.71396	112.7875
103.08183	118.9875
107.4465	122.8875
111.80798	127.7875
116.16626	124.7875
120.52136	130.2875
124.87327	135.4875
129.222	139.2875
133.56755	150.2875
137.90993	163.5875
142.24913	180.3875
146.58517	202.2875
150.91804	235.2875
155.24774	278.2875
159.57429	341.1875
163.89768	438.0875
168.21792	583.1875
172.53501	789.6875
176.84895	1098.4875
181.15975	1535.0875
185.46741	2160.7875
189.77193	2971.2875
194.07331	3977.0875
198.37157	5131.5875
202.6667	6306.6875
206.9587	7487.1875
211.24758	8662.0875
215.53334	9851.0875
219.81599	11051.4875
224.09553	12417.1875
228.37195	13906.3875
232.64527	15445.0875
236.91549	17157.9875
241.18261	18808.6875
245.44663	20376.0875
249.70755	21801.5875
253.96539	23094.2875
258.22014	24150.6875
262.4718	25053.3875
266.72039	25707.8875
270.96589	26042.6875
275.20832	26148.6875
279.44768	26080.3875
283.68397	26003.2875
287.91719	25896.6875
292.14735	25851.6875
296.37445	25958.0875
300.59849	26108.5875
304.81948	26199.5875
309.03742	26106.1875
313.25231	25795.6875
317.46415	25274.3875
321.67296	24539.8875
325.87872	23961.1875
330.08145	23600.6875
334.28114	23433.7875
338.47781	23517.0875
342.67145	23718.8875
346.86207	23966.9875
351.04966	24337.9875
355.23424	24606.7875
359.4158	24953.0875
363.59435	25207.2875
367.76989	25349.6875
371.94243	25439.5875
376.11196	25482.0875
380.27849	25455.5875
384.44203	25532.4875
388.60257	25758.3875
392.76012	26111.5875
396.91468	26523.4875
401.06626	27025.5875
405.21485	27249.1875
409.36047	27142.1875
413.50311	26834.8875
417.64277	26752.8875
421.77947	26845.7875
425.9132	26977.0875
430.04396	27155.2875
434.17176	27331.4875
438.2966	27442.3875
442.41849	27806.3875
446.53742	28505.8875
450.6534	29337.0875
454.76644	29968.6875
458.87653	30224.5875
462.98368	30161.9875
467.08789	29899.5875
471.18916	29634.9875
475.2875	29471.8875
479.38291	29545.2875
483.4754	29523.2875
487.56496	29208.2875
491.6516	28462.5875
495.73531	27628.4875
499.81612	27074.8875
503.89401	27044.6875
507.96899	27147.5875
512.04106	27103.1875
516.11023	26861.0875
520.1765	26405.5875
524.23987	25911.6875
528.30034	25519.4875
532.35792	25190.3875
536.41261	24886.9875
540.46441	24680.1875
544.51333	24815.2875
548.55936	25228.2875
552.60252	25852.0875
556.64279	26642.7875
560.6802	27279.2875
564.71473	27838.7875
568.7464	28659.7875
572.7752	29992.1875
576.80114	31497.8875
580.82422	32695.6875
584.84444	33877.5875
588.86181	35190.5875
592.87633	36133.9875
596.888	35408.9875
600.89682	33453.6875
604.9028	32382.5875
608.90594	33048.4875
612.90624	33770.9875
616.90371	31288.7875
620.89834	27003.3875
624.89015	25140.4875
628.87913	25058.5875
632.86528	25367.6875
636.84862	25312.0875
640.82913	24794.2875
644.80683	24197.6875
648.78172	23766.9875
652.75379	23743.2875
656.72306	23919.1875
660.68952	24121.9875
664.65319	23913.6875
668.61405	23580.6875
672.57211	23522.7875
676.52738	23568.0875
680.47986	23637.9875
684.42955	23499.7875
688.37646	23409.8875
692.32058	23490.3875
696.26192	23840.0875
700.20048	24177.1875
704.13626	24477.2875
708.06928	24655.3875
711.99952	24646.9875
715.927	24616.4875
719.85171	24592.9875
723.77365	24328.6875
727.69284	23920.9875
731.60928	23542.8875
735.52295	23333.5875
739.43388	23240.5875
743.34206	23301.2875
747.24749	23557.5875
751.15017	23834.2875
755.05012	24443.7875
758.94733	25349.3875
762.8418	26681.1875
766.73354	28430.6875
770.62254	29803.9875
774.50882	29579.6875
778.39237	27962.3875
782.27321	26073.2875
786.15132	24607.5875
790.02671	23713.3875
793.89938	23245.7875
797.76935	23029.7875
801.6366	22959.1875
805.50115	22983.8875
809.36299	22853.3875
813.22213	22710.3875
817.07857	22643.8875
820.93231	22577.9875
824.78336	22378.2875
828.63172	22172.8875
832.47738	21996.6875
836.32036	21953.8875
840.16066	21946.5875
843.99827	21935.5875
847.8332	21913.7875
851.66546	21891.2875
855.49504	21915.7875
859.32195	21873.8875
863.1462	21789.5875
866.96777	21709.6875
870.78668	21690.0875
874.60293	21620.9875
878.41652	21610.2875
882.22745	21651.1875
886.03573	21694.9875
889.84136	21712.4875
893.64433	21604.8875
897.44466	21601.3875
901.24235	21495.1875
905.0374	21459.3875
908.8298	21466.4875
912.61957	21600.8875
916.40671	21945.7875
920.19121	22441.6875
923.97308	22745.2875
927.75233	22573.7875
931.52895	22160.8875
935.30295	21590.9875
939.07433	21130.6875
942.84309	20732.2875
946.60924	20493.7875
950.37278	20456.8875
954.13371	20484.3875
957.89203	20517.3875
961.64774	20578.3875
965.40086	20608.5875
969.15137	20526.5875
972.89929	20290.8875
976.64461	20130.7875
980.38733	20051.1875
984.12747	20003.2875
987.86502	20089.8875
991.59999	20198.6875
995.33237	20331.5875
999.06217	20624.2875
1002.78939	20977.8875
1006.51404	21371.7875
1010.23611	21742.7875
1013.95561	22040.9875
1017.67255	22083.3875
1021.38692	21922.6875
1025.09872	21550.1875
1028.80796	21258.0875
1032.51465	21245.9875
1036.21877	21340.2875
1039.92035	21486.7875
1043.61937	21565.0875
1047.31584	21634.4875
1051.00976	21672.3875
1054.70114	21766.3875
1058.38998	22038.4875
1062.07627	22385.6875
1065.76003	22770.9875
1069.44126	23157.4875
1073.11995	23572.4875
1076.79611	23865.1875
1080.46974	23952.6875
1084.14085	24026.8875
1087.80943	24343.8875
1091.47549	24628.1875
1095.13903	24789.2875
1098.80005	24463.4875
1102.45857	23754.9875
1106.11456	23027.0875
1109.76805	22665.5875
1113.41903	22579.6875
1117.06751	22705.1875
1120.71348	23002.0875
1124.35696	23276.3875
1127.99793	23633.7875
1131.63641	23910.7875
1135.2724	23929.4875
1138.90589	23984.9875
1142.5369	24184.0875
1146.16542	24634.0875
1149.79145	25155.2875
1153.415	25698.2875
1157.03607	26329.2875
1160.65467	27494.6875
1164.27079	29174.0875
1167.88443	31093.3875
1171.49561	32907.5875
1175.10432	34853.7875
1178.71056	37261.5875
1182.31434	39506.3875
1185.91565	40548.7875
1189.51451	40405.5875
1193.11091	39656.4875
1196.70485	38589.3875
1200.29634	37390.5875
1203.88538	36624.4875
1207.47197	36674.9875
1211.05612	36776.4875
1214.63782	36162.0875
1218.21708	34705.0875
1221.79391	32909.4875
1225.36829	31491.7875
1228.94024	30630.4875
1232.50976	30074.2875
1236.07685	29695.6875
1239.6415	29537.6875
1243.20374	29585.3875
1246.76355	29930.5875
1250.32093	30443.7875
1253.8759	31165.6875
1257.42845	32096.4875
1260.97859	33126.8875
1264.52631	34126.2875
1268.07163	35121.5875
1271.61453	36218.5875
1275.15503	37470.5875
1278.69312	38945.5875
1282.22882	40560.9875
1285.76211	42597.1875
1289.29301	45019.7875
1292.82151	47950.2875
1296.34761	51460.6875
1299.87133	55182.3875
1303.39266	58439.2875
1306.9116	60586.9875
1310.42815	61774.3875
1313.94233	62030.9875
1317.45412	61588.8875
1320.96354	61235.5875
1324.47058	61203.4875
1327.97525	61464.0875
1331.47754	61740.1875
1334.97747	61559.9875
1338.47502	60940.8875
1341.97022	59823.8875
1345.46305	58321.1875
1348.95352	56866.6875
1352.44163	55688.8875
1355.92738	55468.7875
1359.41078	56184.8875
1362.89183	56873.6875
1366.37053	55843.6875
1369.84688	52208.4875
1373.32088	47189.5875
1376.79254	43696.5875
1380.26186	42949.3875
1383.72883	43759.3875
1387.19347	44593.7875
1390.65578	44718.8875
1394.11575	44823.3875
1397.57339	45485.0875
1401.0287	46351.0875
1404.48168	46941.6875
1407.93234	46388.4875
1411.38068	44711.0875
1414.82669	42243.8875
1418.27039	39622.0875
1421.71177	37240.4875
1425.15083	35366.7875
1428.58758	34561.0875
1432.02203	34925.3875
1435.45416	36135.7875
1438.88399	37696.2875
1442.31151	39015.5875
1445.73673	39883.4875
1449.15965	40615.4875
1452.58027	41037.4875
1455.9986	41212.3875
1459.41463	41479.3875
1462.82837	41874.3875
1466.23982	42423.2875
1469.64898	42934.0875
1473.05586	43165.7875
1476.46045	42950.1875
1479.86276	42397.3875
1483.26279	41651.8875
1486.66054	41214.6875
1490.05602	41199.3875
1493.44922	41537.2875
1496.84016	41975.1875
1500.22882	42599.1875
1503.61521	43343.3875
1506.99934	44215.8875
1510.38121	44986.3875
1513.76081	45319.4875
1517.13816	45161.4875
1520.51324	44916.8875
1523.88607	45101.6875
1527.25665	45701.8875
1530.62498	46188.5875
1533.99105	46116.3875
1537.35488	45273.5875
1540.71647	43755.5875
1544.07581	41961.5875
1547.4329	40123.9875
1550.78776	38634.7875
1554.14038	37576.8875
1557.49077	36993.5875
1560.83892	36686.8875
1564.18484	36561.7875
1567.52853	36685.1875
1570.86999	37193.4875
1574.20922	38390.0875
1577.54624	39677.4875
1580.88103	40786.1875
1584.2136	41994.2875
1587.54395	43786.2875
1590.87208	46147.7875
1594.19801	48618.5875
1597.52172	50491.0875
1600.84321	50117.9875
1604.16251	46940.5875
1607.47959	42416.6875
1610.79447	38043.1875
1614.10715	34279.1875
1617.41763	31333.5875
1620.7259	29439.0875
1624.03199	28433.3875
1627.33587	28532.0875
1630.63757	29778.8875
1633.93707	32284.1875
1637.23439	36498.8875
1640.52951	42347.3875
1643.82246	49275.0875
1647.11321	54560.9875
1650.40179	55323.8875
1653.68819	50732.1875
1656.97241	43066.9875
1660.25446	35575.4875
1663.53433	29876.0875
1666.81203	26070.8875
1670.08756	23669.2875
1673.36092	22175.6875
1676.63211	21137.1875
1679.90115	20467.5875
1683.16801	20005.6875
1686.43272	19641.8875
1689.69527	19399.2875
1692.95567	19189.9875
1696.2139	19034.5875
1699.46999	18925.9875
1702.72392	18808.3875
1705.97571	18691.4875
1709.22535	18563.5875
1712.47284	18469.0875
1715.71819	18416.6875
1718.96139	18355.0875
1722.20246	18232.6875
1725.44139	18124.9875
1728.67818	18011.2875
1731.91284	17875.6875
1735.14537	17714.7875
1738.37576	17638.5875
1741.60403	17569.7875
1744.83017	17495.5875
1748.05418	17462.8875
1751.27607	17387.1875
1754.49584	17337.9875
1757.71349	17338.8875
1760.92903	17296.7875
1764.14244	17329.2875
1767.35375	17265.7875
1770.56294	17190.5875
1773.77002	17120.3875
1776.97499	17085.8875
1780.17785	17035.3875
1783.37861	17007.2875
1786.57727	16969.1875
1789.77382	16891.0875
1792.96828	16852.1875
1796.16064	16793.7875
1799.3509	16724.7875
1802.53907	16708.4875
1805.72514	16636.3875
1808.90913	16596.8875
1812.09102	16573.8875
1815.27083	16539.5875
1818.44856	16515.7875
1821.6242	16439.4875
1824.79776	16445.6875
1827.96924	16428.1875
1831.13864	16362.8875
1834.30597	16366.0875
1837.47122	16383.6875
1840.6344	16414.0875
1843.7955	16413.1875
1846.95454	16377.3875
1850.11151	16378.9875
1853.26642	16364.9875
1856.41926	16337.5875
1859.57004	16320.9875
1862.71876	16264.1875
1865.86542	16236.7875
1869.01003	16228.1875
1872.15258	16205.3875
1875.29308	16176.8875
1878.43152	16164.5875
1881.56792	16105.4875
1884.70227	16103.0875
1887.83457	16078.9875
1890.96482	16060.7875
1894.09304	15984.2875
1897.21921	16007.4875
1900.34335	15967.2875
1903.46544	15949.8875
1906.58551	15894.0875
1909.70353	15876.6875
1912.81953	15809.0875
1915.93349	15809.0875
1919.04543	15744.8875
1922.15534	15696.5875
1925.26322	15659.0875
1928.36908	15646.1875
1931.47292	15600.5875
1934.57473	15536.6875
1937.67453	15511.2875
1940.77232	15458.6875
1943.86808	15424.7875
1946.96184	15393.6875
1950.05358	15326.4875
1953.14331	15308.0875
1956.23103	15251.6875
1959.31675	15167.6875
1962.40046	15131.9875
1965.48217	15106.0875
1968.56188	15016.8875
1971.63959	14951.0875
1974.7153	14899.4875
1977.78901	14883.0875
1980.86073	14808.8875
1983.93046	14758.7875
1986.99819	14692.5875
1990.06394	14658.8875
1993.1277	14617.1875
1996.18947	14573.3875
1999.24925	14516.0875
2002.30706	14471.6875
2005.36288	14416.0875
2008.41672	14406.5875
2011.46859	14352.0875
2014.51848	14309.5875
2017.56639	14234.3875
2020.61233	14219.1875
2023.6563	14180.1875
2026.6983	14144.1875
2029.73833	14117.9875
2032.7764	14080.3875
2035.8125	14081.0875
2038.84664	14015.5875
2041.87881	14020.4875
2044.90903	14014.3875
2047.93729	13945.6875
2050.96359	13945.7875
2053.98794	13910.8875
2057.01034	13904.8875
2060.03078	13876.7875
2063.04927	13870.2875
2066.06582	13821.2875
2069.08042	13833.3875
2072.09307	13822.7875
2075.10378	13814.2875
2078.11255	13802.8875
2081.11938	13773.6875
2084.12426	13751.1875
2087.12722	13753.5875
2090.12824	13760.9875
2093.12732	13736.8875
2096.12447	13753.8875
2099.11969	13749.4875
2102.11299	13744.1875
2105.10435	13769.0875
2108.09379	13748.7875
2111.08131	13774.8875
2114.0669	13749.4875
2117.05057	13769.4875
2120.03233	13788.8875
2123.01216	13800.3875
2125.99008	13760.3875
2128.96609	13761.8875
2131.94018	13747.5875
2134.91236	13734.3875
2137.88263	13712.9875
2140.851	13728.7875
2143.81746	13756.1875
2146.78201	13752.3875
2149.74466	13741.3875
2152.7054	13728.6875
2155.66425	13709.6875
2158.6212	13739.6875
2161.57625	13705.9875
2164.52941	13697.4875
2167.48067	13663.2875
2170.43004	13656.0875
2173.37752	13629.9875
2176.32311	13632.0875
2179.26681	13653.5875
2182.20863	13644.2875
2185.14856	13630.3875
2188.08661	13612.8875
2191.02278	13629.2875
2193.95707	13615.0875
2196.88948	13580.7875
2199.82001	13572.0875
2202.74867	13549.8875
2205.67545	13515.6875
2208.60037	13511.1875
2211.52341	13476.2875
2214.44458	13458.0875
2217.36388	13434.8875
2220.28132	13433.6875
2223.1969	13403.3875
2226.11061	13384.0875
2229.02246	13353.1875
2231.93245	13307.4875
2234.84058	13309.6875
2237.74686	13248.7875
2240.65128	13270.8875
2243.55385	13263.6875
2246.45456	13219.8875
2249.35343	13168.7875
2252.25044	13123.4875
2255.14561	13115.3875
2258.03893	13084.8875
2260.93041	13053.7875
2263.82004	13010.4875
2266.70783	12959.5875
2269.59378	12905.3875
2272.4779	12894.0875
2275.36017	12832.1875
2278.24061	12815.8875
2281.11922	12781.0875
2283.996	12758.4875
2286.87094	12742.0875
2289.74405	12722.8875
2292.61534	12701.0875
2295.4848	12696.8875
2298.35243	12697.6875
2301.21824	12679.0875
2304.08223	12659.8875
2306.94439	12664.9875
2309.80474	12635.1875
2312.66327	12635.4875
2315.51999	12619.8875
2318.37489	12600.7875
2321.22797	12580.0875
2324.07925	12558.7875
2326.92871	12567.8875
2329.77637	12560.4875
2332.62222	12521.1875
2335.46626	12526.7875
2338.3085	12496.7875
2341.14893	12469.5875
2343.98756	12476.3875
2346.8244	12466.6875
2349.65943	12478.2875
2352.49267	12469.9875
2355.32411	12455.7875
2358.15376	12426.6875
2360.98161	12446.9875
2363.80768	12447.1875
2366.63195	12416.8875
2369.45444	12415.7875
2372.27514	12398.8875
2375.09405	12368.2875
2377.91118	12319.3875
2380.72652	12338.1875
2383.54009	12320.1875
2386.35187	12291.0875
2389.16188	12245.7875
2391.97011	12212.4875
2394.77657	12172.2875
2397.58125	12201.0875
2400.38416	12159.2875
2403.18529	12160.9875
2405.98466	12132.0875
2408.78226	12124.9875
2411.57809	12099.3875
2414.37216	12085.6875
2417.16446	12092.6875
2419.955	12072.8875
2422.74378	12075.0875
2425.5308	12039.0875
2428.31606	12033.7875
2431.09956	12044.9875
2433.88131	12012.1875
2436.6613	12000.2875
2439.43954	12014.7875
2442.21603	12000.3875
2444.99077	11972.8875
2447.76377	11978.7875
2450.53501	11981.6875
2453.30451	11961.4875
2456.07226	11957.8875
2458.83827	11956.9875
2461.60254	11956.0875
2464.36507	11950.0875
2467.12586	11928.8875
2469.88492	11929.2875
2472.64224	11947.2875
2475.39782	11950.4875
2478.15167	11921.4875
2480.90379	11929.8875
2483.65417	11918.9875
2486.40283	11914.3875
2489.14976	11923.6875
2491.89497	11892.5875
2494.63845	11917.4875
2497.3802	11922.9875
2500.12024	11922.4875
2502.85855	11903.1875
2505.59514	11923.3875
2508.33002	11934.6875
2511.06318	11929.3875
2513.79462	11906.2875
2516.52435	11890.1875
2519.25237	11864.2875
2521.97867	11848.1875
2524.70327	11842.4875
2527.42616	11849.1875
2530.14734	11828.6875
2532.86681	11828.6875
2535.58458	11827.7875
2538.30065	11793.3875
2541.01501	11802.8875
2543.72768	11780.0875
2546.43864	11727.2875
2549.14791	11743.4875
2551.85548	11732.1875
2554.56136	11760.4875
2557.26554	11735.5875
2559.96803	11718.4875
2562.66883	11724.0875
2565.36794	11742.1875
2568.06536	11718.1875
2570.7611	11704.8875
2573.45514	11680.6875
2576.14751	11673.0875
2578.83819	11640.6875
2581.52719	11632.7875
2584.21451	11650.4875
2586.90015	11644.0875
2589.58411	11644.2875
2592.2664	11621.3875
2594.94701	11624.5875
2597.62594	11624.3875
2600.30321	11597.2875
2602.9788	11595.2875
2605.65273	11594.0875
2608.32498	11609.1875
2610.99557	11599.7875
2613.66449	11615.9875
2616.33175	11594.8875
2618.99734	11596.0875
2621.66128	11597.2875
2624.32355	11586.6875
2626.98416	11594.0875
2629.64311	11554.9875
2632.30041	11596.4875
2634.95605	11566.1875
2637.61004	11534.0875
2640.26238	11534.4875
2642.91306	11528.4875
2645.56209	11563.7875
2648.20948	11560.2875
2650.85521	11561.1875
2653.4993	11543.3875
2656.14175	11566.3875
2658.78255	11563.2875
2661.42171	11570.0875
2664.05923	11600.4875
2666.6951	11604.4875
2669.32934	11611.1875
2671.96194	11579.6875
2674.59291	11584.7875
2677.22224	11581.5875
2679.84993	11605.6875
2682.476	11599.4875
2685.10043	11588.1875
2687.72324	11568.4875
2690.34441	11562.3875
2692.96396	11561.6875
2695.58188	11586.2875
2698.19818	11566.4875
2700.81285	11581.8875
2703.4259	11582.4875
2706.03733	11633.0875
2708.64714	11620.9875
2711.25533	11632.5875
2713.86191	11592.8875
2716.46687	11638.6875
2719.07021	11620.4875
2721.67194	11654.4875
2724.27206	11651.1875
2726.87057	11692.3875
2729.46747	11666.8875
2732.06276	11668.5875
2734.65644	11641.7875
2737.24852	11631.4875
2739.83899	11615.8875
2742.42786	11648.2875
2745.01513	11588.4875
2747.60079	11618.0875
2750.18486	11619.1875
2752.76733	11643.2875
2755.3482	11618.4875
2757.92747	11635.4875
2760.50515	11630.9875
2763.08123	11643.3875
2765.65573	11645.0875
2768.22863	11624.8875
2770.79994	11612.5875
2773.36967	11610.6875
2775.9378	11628.4875
2778.50435	11626.2875
2781.06932	11608.0875
2783.6327	11606.6875
2786.1945	11592.2875
2788.75471	11595.6875
2791.31335	11558.2875
2793.87041	11564.2875
2796.42589	11531.4875
2798.97979	11542.7875
2801.53212	11497.2875
2804.08288	11503.9875
2806.63206	11469.0875
2809.17967	11442.8875
2811.72571	11452.0875
2814.27018	11413.3875
2816.81308	11387.7875
2819.35442	11349.5875
2821.89419	11352.8875
2824.43239	11342.8875
2826.96904	11323.1875
2829.50412	11327.5875
2832.03763	11304.4875
2834.56959	11313.2875
2837.1	11291.9875
2839.62884	11296.0875
2842.15613	11278.6875
2844.68186	11338.3875
2847.20604	11362.7875
2849.72867	11393.6875
2852.24974	11360.8875
2854.76927	11352.3875
2857.28724	11334.7875
2859.80367	11328.4875
2862.31855	11288.8875
2864.83189	11281.5875
2867.34368	11262.2875
2869.85393	11257.0875
2872.36264	11281.4875
2874.8698	11248.6875
2877.37543	11246.8875
2879.87952	11211.6875
2882.38207	11225.7875
2884.88308	11217.0875
2887.38256	11220.3875
2889.88051	11210.9875
2892.37692	11237.4875
2894.8718	11216.8875
2897.36515	11247.7875
2899.85698	11242.7875
2902.34727	11272.4875
2904.83604	11263.1875
2907.32328	11293.0875
2909.809	11281.3875
2912.29319	11250.2875
2914.77587	11247.4875
2917.25702	11243.6875
2919.73665	11228.3875
2922.21476	11252.3875
2924.69136	11248.0875
2927.16644	11282.0875
2929.64	11268.2875
2932.11205	11248.9875
2934.58258	11243.2875
2937.05161	11275.5875
2939.51912	11247.5875
2941.98513	11231.6875
2944.44962	11174.4875
2946.91261	11096.1875
2949.37409	11146.0875
2951.83407	11100.9875
2954.29254	11085.0875
2956.74951	11051.1875
2959.20498	11035.5875
2961.65895	11014.9875
2964.11142	11032.8875
2966.56239	10985.2875
2969.01186	10971.2875
2971.45984	10942.5875
2973.90632	10928.6875
2976.35131	10871.9875
2978.7948	10855.8875
2981.23681	10829.0875
2983.67732	10799.3875
2986.11635	10786.1875
2988.55388	10761.4875
2990.98993	10734.4875
2993.4245	10687.2875
2995.85758	10663.9875
2998.28917	10630.3875
3000.71928	10606.1875
3003.14791	10578.9875
3005.57506	10562.1875
3008.00073	10511.4875
3010.42493	10485.3875
3012.84764	10449.5875
3015.26888	10463.9875
3017.68865	10417.5875
3020.10694	10419.1875
3022.52376	10403.4875
3024.9391	10372.4875
3027.35298	10390.5875
3029.76539	10344.2875
3032.17632	10348.2875
3034.5858	10346.3875
3036.9938	10335.8875
3039.40034	10308.6875
3041.80542	10292.4875
3044.20903	10282.8875
3046.61118	10270.0875
3049.01187	10251.0875
3051.4111	10218.7875
3053.80888	10196.1875
3056.20519	10162.5875
3058.60005	10152.0875
3060.99345	10099.6875
3063.3854	10091.3875
3065.7759	10065.6875
3068.16494	10018.5875
3070.55254	9980.8875
3072.93868	9939.7875
3075.32338	9925.9875
3077.70662	9888.9875
3080.08842	9850.5875
3082.46878	9858.7875
3084.84769	9823.0875
3087.22515	9828.0875
3089.60118	9820.7875
3091.97576	9786.6875
3094.3489	9796.5875
3096.72061	9782.2875
3099.09087	9779.6875
3101.4597	9737.4875
3103.82709	9762.4875
3106.19305	9734.0875
3108.55757	9734.7875
3110.92066	9701.4875
3113.28232	9649.5875
3115.64255	9620.3875
3118.00134	9608.7875
3120.35871	9569.3875
3122.71466	9543.9875
3125.06917	9562.9875
3127.42226	9523.0875
3129.77393	9521.5875
3132.12417	9506.3875
3134.47299	9504.8875
3136.82039	9518.2875
3139.16636	9477.9875
3141.51092	9470.9875
3143.85406	9475.9875
3146.19579	9465.8875
3148.53609	9492.8875
3150.87499	9472.1875
3153.21246	9491.6875
3155.54853	9476.4875
3157.88318	9475.6875
3160.21642	9451.0875
3162.54826	9424.5875
3164.87868	9432.4875
3167.2077	9445.1875
3169.5353	9443.2875
3171.86151	9429.4875
3174.18631	9391.6875
3176.5097	9384.7875
3178.83169	9383.3875
3181.15228	9379.8875
3183.47147	9336.8875
3185.78926	9346.6875
3188.10565	9353.4875
3190.42065	9333.0875
3192.73424	9348.8875
3195.04645	9323.9875
3197.35725	9310.7875
3199.66667	9284.2875
3201.97469	9284.1875
3204.28132	9266.7875
3206.58656	9270.0875
3208.8904	9251.4875
3211.19287	9271.5875
3213.49394	9264.9875
3215.79363	9265.1875
3218.09193	9255.2875
3220.38884	9252.8875
3222.68438	9246.2875
3224.97853	9207.9875
3227.2713	9232.3875
3229.56269	9203.5875
3231.8527	9203.5875
3234.14133	9191.9875
3236.42858	9210.7875
3238.71446	9197.0875
3240.99896	9156.8875
3243.28209	9152.3875
3245.56384	9138.1875
3247.84423	9132.0875
3250.12324	9107.6875
3252.40088	9096.5875
3254.67715	9095.6875
3256.95205	9087.4875
3259.22558	9041.2875
3261.49775	9008.2875
3263.76855	8987.6875
3266.03799	8972.8875
3268.30606	8956.2875
3270.57277	8945.7875
3272.83812	8910.3875
3275.10211	8901.4875
3277.36474	8886.4875
3279.62601	8907.6875
3281.88593	8889.3875
3284.14448	8890.7875
3286.40168	8910.8875
3288.65753	8887.3875
3290.91202	8871.9875
3293.16516	8832.7875
3295.41695	8796.9875
3297.66738	8742.9875
3299.91647	8725.6875
3302.16421	8650.4875
3304.4106	8620.2875
3306.65564	8575.3875
3308.89933	8494.9875
3311.14169	8431.0875
3313.38269	8383.6875
3315.62236	8306.1875
3317.86068	8250.1875
3320.09766	8149.3875
3322.3333	8079.2875
3324.5676	8084.7875
3326.80056	7948.8875
3329.03219	7904.2875
3331.26248	1.1875
3333.49143	-0.0125
3335.71905	-0.8125
