Data from AgNPs_FTO_APTES_UA_2uM_CRN_10uM_R6G_10uM_NaF_0.1M_Addition_RamanShift__4__13-22-45-142.txt Node

Date: Wed Feb 02 13:22:45 GMT 2022
User: TCL
Spectrometer: QEP01345
Trigger mode: 4
Integration Time (sec): 7.000000E0
Scans to average: 10
Electric dark correction enabled: true
Nonlinearity correction enabled: false
Boxcar width: 0
XAxis mode: Raman Shifts
Number of Pixels in Spectrum: 1044
>>>>>Begin Spectral Data<<<<<
46.04893	0.0375
50.45542	-0.2625
54.85868	-1.9625
59.25871	0.0375
63.6555	95.5375
68.04907	98.9375
72.43941	104.5375
76.82654	114.0375
81.21044	112.5375
85.59113	121.0375
89.96862	120.7375
94.34289	127.1375
98.71396	133.0375
103.08183	140.0375
107.4465	139.7375
111.80798	144.2375
116.16626	144.1375
120.52136	151.6375
124.87327	158.4375
129.222	165.8375
133.56755	181.2375
137.90993	192.5375
142.24913	211.8375
146.58517	239.5375
150.91804	275.9375
155.24774	337.1375
159.57429	418.2375
163.89768	537.3375
168.21792	707.1375
172.53501	973.8375
176.84895	1355.4375
181.15975	1901.3375
185.46741	2666.5375
189.77193	3670.4375
194.07331	4899.1375
198.37157	6307.9375
202.6667	7811.3375
206.9587	9261.9375
211.24758	10714.6375
215.53334	12178.2375
219.81599	13747.9375
224.09553	15530.8375
228.37195	17384.0375
232.64527	19510.0375
236.91549	21677.8375
241.18261	23796.4375
245.44663	25775.2375
249.70755	27500.9375
253.96539	29041.0375
258.22014	30328.9375
262.4718	31355.4375
266.72039	32169.2375
270.96589	32562.6375
275.20832	32542.4375
279.44768	32298.3375
283.68397	31961.6375
287.91719	31641.6375
292.14735	31521.3375
296.37445	31545.9375
300.59849	31684.8375
304.81948	31941.6375
309.03742	32023.6375
313.25231	31813.9375
317.46415	31328.3375
321.67296	30578.4375
325.87872	29931.5375
330.08145	29587.8375
334.28114	29510.3375
338.47781	29629.9375
342.67145	29954.4375
346.86207	30410.0375
351.04966	30954.3375
355.23424	31572.8375
359.4158	32171.7375
363.59435	32620.6375
367.76989	32861.3375
371.94243	33101.9375
376.11196	33234.8375
380.27849	33361.3375
384.44203	33559.7375
388.60257	33813.2375
392.76012	34218.7375
396.91468	34729.6375
401.06626	35235.6375
405.21485	35621.5375
409.36047	35530.2375
413.50311	35137.6375
417.64277	35058.7375
421.77947	35154.0375
425.9132	35231.9375
430.04396	35383.1375
434.17176	35523.4375
438.2966	35711.1375
442.41849	36262.3375
446.53742	37354.2375
450.6534	38573.8375
454.76644	39387.0375
458.87653	39595.6375
462.98368	39176.0375
467.08789	38525.4375
471.18916	37800.9375
475.2875	37139.4375
479.38291	36698.3375
483.4754	36519.5375
487.56496	36232.6375
491.6516	35687.0375
495.73531	35173.3375
499.81612	34945.0375
503.89401	35021.2375
507.96899	35102.3375
512.04106	34941.7375
516.11023	34670.6375
520.1765	34302.2375
524.23987	34074.8375
528.30034	33874.3375
532.35792	33584.7375
536.41261	33083.6375
540.46441	32673.5375
544.51333	32542.7375
548.55936	32939.3375
552.60252	33657.1375
556.64279	34502.4375
560.6802	35267.4375
564.71473	35678.1375
568.7464	36342.4375
572.7752	37367.8375
576.80114	38404.5375
580.82422	39643.1375
584.84444	41362.7375
588.86181	43318.5375
592.87633	44809.3375
596.888	44430.1375
600.89682	42422.0375
604.9028	42097.0375
608.90594	44927.2375
612.90624	48151.8375
616.90371	45189.3375
620.89834	37991.6375
624.89015	34781.2375
628.87913	34314.5375
632.86528	34356.9375
636.84862	33978.3375
640.82913	33202.1375
644.80683	32351.3375
648.78172	31858.7375
652.75379	31916.7375
656.72306	32410.9375
660.68952	32884.0375
664.65319	32640.7375
668.61405	32014.5375
672.57211	31924.2375
676.52738	32144.2375
680.47986	32085.4375
684.42955	31816.7375
688.37646	31636.9375
692.32058	31929.5375
696.26192	32532.4375
700.20048	33177.3375
704.13626	33458.7375
708.06928	33334.4375
711.99952	33067.7375
715.927	33155.5375
719.85171	33413.5375
723.77365	33321.9375
727.69284	32718.2375
731.60928	32211.3375
735.52295	32016.8375
739.43388	32014.6375
743.34206	32159.0375
747.24749	32385.2375
751.15017	32762.7375
755.05012	33353.6375
758.94733	34421.4375
762.8418	36049.3375
766.73354	38400.3375
770.62254	40622.4375
774.50882	40943.8375
778.39237	39137.3375
782.27321	36500.3375
786.15132	34431.4375
790.02671	33110.6375
793.89938	32483.4375
797.76935	32264.3375
801.6366	32232.4375
805.50115	32178.2375
809.36299	31978.3375
813.22213	31661.2375
817.07857	31478.0375
820.93231	31355.4375
824.78336	31199.1375
828.63172	31091.4375
832.47738	31129.2375
836.32036	31253.9375
840.16066	31483.0375
843.99827	31658.0375
847.8332	31553.8375
851.66546	31322.4375
855.49504	31257.7375
859.32195	31170.6375
863.1462	31077.0375
866.96777	30917.9375
870.78668	30798.7375
874.60293	30807.5375
878.41652	30841.3375
882.22745	30964.3375
886.03573	31090.6375
889.84136	31091.9375
893.64433	30918.9375
897.44466	30725.0375
901.24235	30691.9375
905.0374	30572.2375
908.8298	30566.3375
912.61957	30709.9375
916.40671	31001.5375
920.19121	31507.1375
923.97308	32012.7375
927.75233	32285.3375
931.52895	32115.5375
935.30295	31603.1375
939.07433	30947.4375
942.84309	30484.8375
946.60924	30308.6375
950.37278	30279.8375
954.13371	30196.0375
957.89203	30048.2375
961.64774	29987.4375
965.40086	30048.6375
969.15137	29992.9375
972.89929	29855.4375
976.64461	29863.1375
980.38733	29906.2375
984.12747	29984.0375
987.86502	30318.9375
991.59999	30792.3375
995.33237	31383.2375
999.06217	32403.5375
1002.78939	33684.8375
1006.51404	34479.6375
1010.23611	34878.0375
1013.95561	35153.9375
1017.67255	35102.8375
1021.38692	34624.6375
1025.09872	34201.7375
1028.80796	34481.7375
1032.51465	35747.1375
1036.21877	37158.7375
1039.92035	37613.2375
1043.61937	37100.4375
1047.31584	35968.7375
1051.00976	34657.8375
1054.70114	33891.2375
1058.38998	33652.7375
1062.07627	33623.4375
1065.76003	33769.9375
1069.44126	34080.6375
1073.11995	34548.2375
1076.79611	35122.1375
1080.46974	35411.6375
1084.14085	35754.1375
1087.80943	36138.7375
1091.47549	36452.7375
1095.13903	36390.1375
1098.80005	35840.0375
1102.45857	34983.6375
1106.11456	34348.2375
1109.76805	34077.0375
1113.41903	34036.5375
1117.06751	34126.8375
1120.71348	34432.8375
1124.35696	34752.8375
1127.99793	35211.2375
1131.63641	35512.4375
1135.2724	35370.4375
1138.90589	35228.9375
1142.5369	35337.6375
1146.16542	35537.8375
1149.79145	35833.8375
1153.415	36239.1375
1157.03607	36889.6375
1160.65467	38099.9375
1164.27079	40177.4375
1167.88443	42513.1375
1171.49561	44942.9375
1175.10432	48012.3375
1178.71056	52151.9375
1182.31434	55983.5375
1185.91565	57878.8375
1189.51451	57268.0375
1193.11091	55372.8375
1196.70485	53134.4375
1200.29634	51079.5375
1203.88538	49772.6375
1207.47197	49101.0375
1211.05612	48474.5375
1214.63782	47582.5375
1218.21708	46440.3375
1221.79391	45366.3375
1225.36829	44546.7375
1228.94024	43723.3375
1232.50976	42756.7375
1236.07685	41969.5375
1239.6415	41520.5375
1243.20374	41564.8375
1246.76355	42059.2375
1250.32093	42948.0375
1253.8759	44125.4375
1257.42845	45534.8375
1260.97859	47021.6375
1264.52631	48582.3375
1268.07163	50314.4375
1271.61453	52076.2375
1275.15503	53948.7375
1278.69312	55851.1375
1282.22882	57609.6375
1285.76211	59454.4375
1289.29301	61679.4375
1292.82151	64430.7375
1296.34761	68049.6375
1299.87133	72653.6375
1303.39266	77774.8375
1306.9116	82399.6375
1310.42815	85687.2375
1313.94233	86838.6375
1317.45412	85559.3375
1320.96354	83162.1375
1324.47058	80978.5375
1327.97525	79426.5375
1331.47754	78367.4375
1334.97747	77386.6375
1338.47502	76082.2375
1341.97022	74135.4375
1345.46305	71877.2375
1348.95352	70409.2375
1352.44163	70752.6375
1355.92738	73464.3375
1359.41078	78016.9375
1362.89183	81535.4375
1366.37053	80730.2375
1369.84688	74468.9375
1373.32088	65803.1375
1376.79254	59647.9375
1380.26186	57400.7375
1383.72883	57512.0375
1387.19347	57589.7375
1390.65578	56834.7375
1394.11575	56561.0375
1397.57339	57172.8375
1401.0287	58350.6375
1404.48168	59427.8375
1407.93234	59636.4375
1411.38068	58619.0375
1414.82669	56777.5375
1418.27039	54523.6375
1421.71177	52032.7375
1425.15083	50020.1375
1428.58758	49115.3375
1432.02203	49705.2375
1435.45416	51337.9375
1438.88399	53192.5375
1442.31151	54479.6375
1445.73673	55174.8375
1449.15965	55552.8375
1452.58027	55535.2375
1455.9986	54970.8375
1459.41463	54785.4375
1462.82837	55422.3375
1466.23982	56672.3375
1469.64898	57956.8375
1473.05586	58858.5375
1476.46045	59254.2375
1479.86276	59008.6375
1483.26279	58410.9375
1486.66054	58031.6375
1490.05602	58218.5375
1493.44922	58641.2375
1496.84016	59062.6375
1500.22882	59495.4375
1503.61521	60382.5375
1506.99934	61701.8375
1510.38121	62902.5375
1513.76081	63214.3375
1517.13816	62120.2375
1520.51324	60233.9375
1523.88607	58858.5375
1527.25665	58363.0375
1530.62498	58429.3375
1533.99105	58213.2375
1537.35488	57580.7375
1540.71647	56372.4375
1544.07581	54865.5375
1547.4329	53343.0375
1550.78776	52053.6375
1554.14038	51060.0375
1557.49077	50437.1375
1560.83892	50006.1375
1564.18484	49779.4375
1567.52853	49794.0375
1570.86999	50186.8375
1574.20922	51053.0375
1577.54624	52042.0375
1580.88103	52780.7375
1584.2136	53989.4375
1587.54395	56517.8375
1590.87208	60546.2375
1594.19801	65184.0375
1597.52172	69108.0375
1600.84321	69686.0375
1604.16251	65646.1375
1607.47959	59170.7375
1610.79447	52590.7375
1614.10715	47211.5375
1617.41763	43280.7375
1620.7259	40994.6375
1624.03199	40024.3375
1627.33587	40474.9375
1630.63757	42029.1375
1633.93707	45044.2375
1637.23439	50065.0375
1640.52951	57127.8375
1643.82246	65488.1375
1647.11321	71719.3375
1650.40179	72080.9375
1653.68819	65820.5375
1656.97241	56079.1375
1660.25446	47042.6375
1663.53433	40680.3375
1666.81203	36712.8375
1670.08756	34292.5375
1673.36092	32748.2375
1676.63211	31790.4375
1679.90115	31101.9375
1683.16801	30637.1375
1686.43272	30213.0375
1689.69527	29957.3375
1692.95567	29789.4375
1696.2139	29643.4375
1699.46999	29524.0375
1702.72392	29476.3375
1705.97571	29404.2375
1709.22535	29294.1375
1712.47284	29206.5375
1715.71819	29206.5375
1718.96139	29119.8375
1722.20246	29047.0375
1725.44139	28879.8375
1728.67818	28752.7375
1731.91284	28520.2375
1735.14537	28375.5375
1738.37576	28331.6375
1741.60403	28190.5375
1744.83017	28152.5375
1748.05418	28084.9375
1751.27607	28021.1375
1754.49584	27953.9375
1757.71349	27961.5375
1760.92903	27936.4375
1764.14244	27885.1375
1767.35375	27903.0375
1770.56294	27912.0375
1773.77002	27807.9375
1776.97499	27742.1375
1780.17785	27650.4375
1783.37861	27647.5375
1786.57727	27624.2375
1789.77382	27555.1375
1792.96828	27510.9375
1796.16064	27535.2375
1799.3509	27483.6375
1802.53907	27431.2375
1805.72514	27329.4375
1808.90913	27300.1375
1812.09102	27223.4375
1815.27083	27212.4375
1818.44856	27174.6375
1821.6242	27162.4375
1824.79776	27142.4375
1827.96924	27128.5375
1831.13864	27141.9375
1834.30597	27134.3375
1837.47122	27127.2375
1840.6344	27130.2375
1843.7955	27152.8375
1846.95454	27155.6375
1850.11151	27165.2375
1853.26642	27157.5375
1856.41926	27121.7375
1859.57004	27123.7375
1862.71876	27112.7375
1865.86542	27117.3375
1869.01003	27107.9375
1872.15258	27069.4375
1875.29308	27053.0375
1878.43152	27009.1375
1881.56792	27017.2375
1884.70227	26954.4375
1887.83457	26991.4375
1890.96482	26981.4375
1894.09304	26940.8375
1897.21921	26903.2375
1900.34335	26906.9375
1903.46544	26830.8375
1906.58551	26771.1375
1909.70353	26759.8375
1912.81953	26688.4375
1915.93349	26634.3375
1919.04543	26633.6375
1922.15534	26578.6375
1925.26322	26536.9375
1928.36908	26469.9375
1931.47292	26425.8375
1934.57473	26320.3375
1937.67453	26244.3375
1940.77232	26189.0375
1943.86808	26159.4375
1946.96184	26079.7375
1950.05358	26006.0375
1953.14331	25964.7375
1956.23103	25896.3375
1959.31675	25818.2375
1962.40046	25765.9375
1965.48217	25705.6375
1968.56188	25662.1375
1971.63959	25580.8375
1974.7153	25538.7375
1977.78901	25452.6375
1980.86073	25345.2375
1983.93046	25277.8375
1986.99819	25213.2375
1990.06394	25145.5375
1993.1277	25133.5375
1996.18947	25011.3375
1999.24925	24933.2375
2002.30706	24860.2375
2005.36288	24795.7375
2008.41672	24746.6375
2011.46859	24699.0375
2014.51848	24629.2375
2017.56639	24576.3375
2020.61233	24578.7375
2023.6563	24553.9375
2026.6983	24488.8375
2029.73833	24434.2375
2032.7764	24447.4375
2035.8125	24381.5375
2038.84664	24348.4375
2041.87881	24388.0375
2044.90903	24279.5375
2047.93729	24262.8375
2050.96359	24284.5375
2053.98794	24283.7375
2057.01034	24234.7375
2060.03078	24179.2375
2063.04927	24208.4375
2066.06582	24184.3375
2069.08042	24194.9375
2072.09307	24116.2375
2075.10378	24118.8375
2078.11255	24085.4375
2081.11938	24095.7375
2084.12426	24023.7375
2087.12722	24074.1375
2090.12824	24069.2375
2093.12732	24089.6375
2096.12447	24118.3375
2099.11969	24150.4375
2102.11299	24145.1375
2105.10435	24132.7375
2108.09379	24101.9375
2111.08131	24161.5375
2114.0669	24182.5375
2117.05057	24241.9375
2120.03233	24218.5375
2123.01216	24236.1375
2125.99008	24275.8375
2128.96609	24297.8375
2131.94018	24314.6375
2134.91236	24341.1375
2137.88263	24393.4375
2140.851	24411.3375
2143.81746	24434.1375
2146.78201	24455.7375
2149.74466	24452.2375
2152.7054	24413.2375
2155.66425	24376.7375
2158.6212	24403.0375
2161.57625	24394.5375
2164.52941	24424.4375
2167.48067	24404.2375
2170.43004	24418.2375
2173.37752	24360.4375
2176.32311	24412.4375
2179.26681	24429.7375
2182.20863	24414.3375
2185.14856	24457.5375
2188.08661	24434.8375
2191.02278	24486.9375
2193.95707	24467.1375
2196.88948	24482.2375
2199.82001	24487.2375
2202.74867	24485.9375
2205.67545	24472.4375
2208.60037	24474.1375
2211.52341	24472.0375
2214.44458	24444.3375
2217.36388	24365.3375
2220.28132	24364.3375
2223.1969	24353.2375
2226.11061	24373.3375
2229.02246	24278.6375
2231.93245	24266.4375
2234.84058	24265.0375
2237.74686	24206.7375
2240.65128	24166.0375
2243.55385	24134.6375
2246.45456	24133.8375
2249.35343	24081.3375
2252.25044	24039.9375
2255.14561	24029.6375
2258.03893	23946.0375
2260.93041	23948.6375
2263.82004	23840.8375
2266.70783	23777.1375
2269.59378	23721.5375
2272.4779	23690.7375
2275.36017	23661.7375
2278.24061	23653.8375
2281.11922	23610.4375
2283.996	23595.4375
2286.87094	23612.2375
2289.74405	23535.2375
2292.61534	23606.0375
2295.4848	23564.4375
2298.35243	23589.8375
2301.21824	23586.8375
2304.08223	23607.8375
2306.94439	23673.9375
2309.80474	23662.0375
2312.66327	23660.3375
2315.51999	23701.4375
2318.37489	23659.2375
2321.22797	23622.3375
2324.07925	23614.3375
2326.92871	23607.3375
2329.77637	23616.3375
2332.62222	23611.4375
2335.46626	23619.8375
2338.3085	23588.9375
2341.14893	23581.1375
2343.98756	23656.3375
2346.8244	23644.3375
2349.65943	23620.1375
2352.49267	23640.2375
2355.32411	23626.5375
2358.15376	23558.3375
2360.98161	23573.0375
2363.80768	23540.3375
2366.63195	23515.6375
2369.45444	23429.0375
2372.27514	23376.6375
2375.09405	23368.7375
2377.91118	23362.6375
2380.72652	23313.7375
2383.54009	23257.1375
2386.35187	23303.9375
2389.16188	23253.2375
2391.97011	23220.4375
2394.77657	23196.5375
2397.58125	23161.9375
2400.38416	23152.9375
2403.18529	23126.9375
2405.98466	23094.8375
2408.78226	23038.1375
2411.57809	23041.5375
2414.37216	23029.4375
2417.16446	22997.2375
2419.955	22969.4375
2422.74378	22979.5375
2425.5308	23003.6375
2428.31606	22949.1375
2431.09956	22958.1375
2433.88131	22939.4375
2436.6613	22926.0375
2439.43954	22978.7375
2442.21603	22909.6375
2444.99077	22860.0375
2447.76377	22884.7375
2450.53501	22875.8375
2453.30451	22895.8375
2456.07226	22851.5375
2458.83827	22869.8375
2461.60254	22926.9375
2464.36507	22946.9375
2467.12586	22928.7375
2469.88492	22933.4375
2472.64224	22950.6375
2475.39782	22958.4375
2478.15167	22999.1375
2480.90379	22976.0375
2483.65417	23013.2375
2486.40283	23007.9375
2489.14976	23053.2375
2491.89497	23056.1375
2494.63845	23121.3375
2497.3802	23076.3375
2500.12024	23085.8375
2502.85855	23100.4375
2505.59514	23055.5375
2508.33002	23075.3375
2511.06318	23084.9375
2513.79462	23034.1375
2516.52435	22957.8375
2519.25237	23001.8375
2521.97867	23037.0375
2524.70327	23012.1375
2527.42616	22967.4375
2530.14734	23011.5375
2532.86681	22941.4375
2535.58458	22962.9375
2538.30065	22939.9375
2541.01501	22912.0375
2543.72768	22887.2375
2546.43864	22894.1375
2549.14791	22883.6375
2551.85548	22905.9375
2554.56136	22921.4375
2557.26554	22878.2375
2559.96803	22911.0375
2562.66883	22882.2375
2565.36794	22846.8375
2568.06536	22873.7375
2570.7611	22861.0375
2573.45514	22829.3375
2576.14751	22861.9375
2578.83819	22845.1375
2581.52719	22881.5375
2584.21451	22846.6375
2586.90015	22802.2375
2589.58411	22800.6375
2592.2664	22809.0375
2594.94701	22782.9375
2597.62594	22824.9375
2600.30321	22759.6375
2602.9788	22775.2375
2605.65273	22716.7375
2608.32498	22769.9375
2610.99557	22726.0375
2613.66449	22791.8375
2616.33175	22757.5375
2618.99734	22806.4375
2621.66128	22827.4375
2624.32355	22771.8375
2626.98416	22793.4375
2629.64311	22776.8375
2632.30041	22795.7375
2634.95605	22774.8375
2637.61004	22750.1375
2640.26238	22709.4375
2642.91306	22682.1375
2645.56209	22641.0375
2648.20948	22638.4375
2650.85521	22672.5375
2653.4993	22668.7375
2656.14175	22683.4375
2658.78255	22727.5375
2661.42171	22690.4375
2664.05923	22761.0375
2666.6951	22773.1375
2669.32934	22823.5375
2671.96194	22804.3375
2674.59291	22810.4375
2677.22224	22786.7375
2679.84993	22782.2375
2682.476	22724.6375
2685.10043	22758.2375
2687.72324	22741.9375
2690.34441	22731.8375
2692.96396	22721.1375
2695.58188	22772.3375
2698.19818	22760.0375
2700.81285	22777.2375
2703.4259	22757.1375
2706.03733	22819.7375
2708.64714	22800.3375
2711.25533	22805.6375
2713.86191	22808.6375
2716.46687	22819.6375
2719.07021	22796.0375
2721.67194	22863.5375
2724.27206	22808.4375
2726.87057	22894.0375
2729.46747	22931.1375
2732.06276	22886.9375
2734.65644	22883.7375
2737.24852	22918.9375
2739.83899	22872.9375
2742.42786	22906.4375
2745.01513	22861.8375
2747.60079	22885.7375
2750.18486	22914.2375
2752.76733	22965.1375
2755.3482	22894.8375
2757.92747	22961.9375
2760.50515	22938.0375
2763.08123	22962.6375
2765.65573	22909.6375
2768.22863	22906.5375
2770.79994	22851.1375
2773.36967	22856.4375
2775.9378	22871.2375
2778.50435	22864.6375
2781.06932	22868.8375
2783.6327	22914.0375
2786.1945	22895.3375
2788.75471	22866.9375
2791.31335	22813.9375
2793.87041	22767.1375
2796.42589	22746.3375
2798.97979	22766.8375
2801.53212	22716.8375
2804.08288	22695.3375
2806.63206	22654.8375
2809.17967	22619.9375
2811.72571	22540.9375
2814.27018	22580.0375
2816.81308	22510.3375
2819.35442	22507.7375
2821.89419	22421.2375
2824.43239	22457.5375
2826.96904	22492.9375
2829.50412	22466.1375
2832.03763	22411.9375
2834.56959	22448.2375
2837.1	22383.3375
2839.62884	22440.7375
2842.15613	22397.9375
2844.68186	22455.9375
2847.20604	22465.6375
2849.72867	22496.8375
2852.24974	22449.7375
2854.76927	22468.3375
2857.28724	22437.3375
2859.80367	22436.7375
2862.31855	22407.3375
2864.83189	22383.2375
2867.34368	22361.0375
2869.85393	22359.9375
2872.36264	22350.8375
2874.8698	22363.4375
2877.37543	22329.9375
2879.87952	22366.6375
2882.38207	22374.4375
2884.88308	22404.3375
2887.38256	22448.5375
2889.88051	22449.3375
2892.37692	22467.9375
2894.8718	22492.3375
2897.36515	22492.2375
2899.85698	22540.9375
2902.34727	22546.0375
2904.83604	22539.7375
2907.32328	22575.3375
2909.809	22567.6375
2912.29319	22531.8375
2914.77587	22532.3375
2917.25702	22510.0375
2919.73665	22518.3375
2922.21476	22555.2375
2924.69136	22532.6375
2927.16644	22554.9375
2929.64	22533.9375
2932.11205	22485.0375
2934.58258	22463.3375
2937.05161	22493.0375
2939.51912	22498.1375
2941.98513	22501.0375
2944.44962	22428.4375
2946.91261	22340.3375
2949.37409	22400.9375
2951.83407	22356.0375
2954.29254	22336.9375
2956.74951	22384.6375
2959.20498	22311.0375
2961.65895	22277.7375
2964.11142	22273.3375
2966.56239	22214.6375
2969.01186	22239.6375
2971.45984	22200.5375
2973.90632	22145.2375
2976.35131	22102.7375
2978.7948	22014.1375
2981.23681	22000.4375
2983.67732	21974.1375
2986.11635	21929.5375
2988.55388	21873.8375
2990.98993	21855.2375
2993.4245	21826.6375
2995.85758	21765.3375
2998.28917	21722.5375
3000.71928	21711.9375
3003.14791	21652.8375
3005.57506	21686.6375
3008.00073	21599.2375
3010.42493	21627.5375
3012.84764	21552.5375
3015.26888	21547.0375
3017.68865	21500.0375
3020.10694	21463.7375
3022.52376	21437.0375
3024.9391	21406.2375
3027.35298	21368.4375
3029.76539	21331.9375
3032.17632	21321.0375
3034.5858	21262.4375
3036.9938	21303.6375
3039.40034	21272.9375
3041.80542	21314.2375
3044.20903	21202.5375
3046.61118	21275.2375
3049.01187	21202.3375
3051.4111	21198.7375
3053.80888	21143.9375
3056.20519	21120.1375
3058.60005	21051.7375
3060.99345	21015.5375
3063.3854	20990.5375
3065.7759	20950.2375
3068.16494	20913.2375
3070.55254	20833.4375
3072.93868	20810.8375
3075.32338	20762.4375
3077.70662	20757.1375
3080.08842	20710.4375
3082.46878	20671.0375
3084.84769	20648.5375
3087.22515	20685.5375
3089.60118	20665.6375
3091.97576	20628.8375
3094.3489	20599.5375
3096.72061	20608.0375
3099.09087	20609.2375
3101.4597	20582.0375
3103.82709	20611.3375
3106.19305	20555.5375
3108.55757	20585.6375
3110.92066	20502.9375
3113.28232	20421.9375
3115.64255	20353.0375
3118.00134	20371.4375
3120.35871	20330.9375
3122.71466	20292.2375
3125.06917	20284.7375
3127.42226	20243.9375
3129.77393	20272.5375
3132.12417	20201.9375
3134.47299	20220.9375
3136.82039	20227.3375
3139.16636	20222.3375
3141.51092	20220.0375
3143.85406	20251.6375
3146.19579	20197.9375
3148.53609	20188.9375
3150.87499	20205.8375
3153.21246	20214.8375
3155.54853	20225.4375
3157.88318	20186.0375
3160.21642	20191.7375
3162.54826	20169.5375
3164.87868	20165.5375
3167.2077	20150.6375
3169.5353	20100.9375
3171.86151	20162.0375
3174.18631	20127.5375
3176.5097	20167.2375
3178.83169	20114.1375
3181.15228	20136.9375
3183.47147	20133.8375
3185.78926	20103.0375
3188.10565	20121.2375
3190.42065	20089.2375
3192.73424	20069.4375
3195.04645	20058.6375
3197.35725	20051.0375
3199.66667	20041.0375
3201.97469	20065.5375
3204.28132	20031.5375
3206.58656	20055.0375
3208.8904	20039.1375
3211.19287	20083.0375
3213.49394	20125.3375
3215.79363	20071.3375
3218.09193	20053.9375
3220.38884	20017.9375
3222.68438	20043.4375
3224.97853	19982.1375
3227.2713	20001.5375
3229.56269	19974.6375
3231.8527	19960.9375
3234.14133	19910.4375
3236.42858	19878.4375
3238.71446	19875.9375
3240.99896	19874.6375
3243.28209	19867.9375
3245.56384	19870.6375
3247.84423	19865.9375
3250.12324	19819.4375
3252.40088	19831.8375
3254.67715	19814.2375
3256.95205	19750.7375
3259.22558	19743.7375
3261.49775	19720.3375
3263.76855	19716.9375
3266.03799	19602.1375
3268.30606	19654.1375
3270.57277	19608.0375
3272.83812	19609.8375
3275.10211	19571.8375
3277.36474	19549.4375
3279.62601	19592.3375
3281.88593	19578.9375
3284.14448	19552.8375
3286.40168	19569.7375
3288.65753	19500.9375
3290.91202	19473.1375
3293.16516	19412.2375
3295.41695	19415.1375
3297.66738	19337.9375
3299.91647	19257.3375
3302.16421	19150.6375
3304.4106	19058.8375
3306.65564	18973.1375
3308.89933	18825.5375
3311.14169	18740.3375
3313.38269	18620.8375
3315.62236	18535.6375
3317.86068	18376.2375
3320.09766	18152.0375
3322.3333	17985.9375
3324.5676	18027.5375
3326.80056	17779.6375
3329.03219	17673.4375
3331.26248	4.5375
3333.49143	-0.7625
3335.71905	-1.1625
