Data from AgNPs_FTO_APTES_UA_2uM_CRN_50uM_R6G_10uM_NaF_0.1M_Addition_RamanShift__49__15-33-25-294.txt Node

Date: Wed Feb 02 15:33:25 GMT 2022
User: TCL
Spectrometer: QEP01345
Trigger mode: 4
Integration Time (sec): 7.000000E0
Scans to average: 10
Electric dark correction enabled: true
Nonlinearity correction enabled: false
Boxcar width: 0
XAxis mode: Raman Shifts
Number of Pixels in Spectrum: 1044
>>>>>Begin Spectral Data<<<<<
46.04893	-0.2625
50.45542	1.2375
54.85868	-2.3625
59.25871	0.8375
63.6555	77.6375
68.04907	84.8375
72.43941	83.5375
76.82654	91.8375
81.21044	93.4375
85.59113	101.7375
89.96862	102.0375
94.34289	104.3375
98.71396	112.1375
103.08183	116.9375
107.4465	117.7375
111.80798	120.1375
116.16626	123.4375
120.52136	128.9375
124.87327	130.7375
129.222	135.2375
133.56755	148.2375
137.90993	156.4375
142.24913	170.5375
146.58517	192.3375
150.91804	216.2375
155.24774	264.6375
159.57429	322.7375
163.89768	407.9375
168.21792	533.5375
172.53501	727.3375
176.84895	1012.1375
181.15975	1411.7375
185.46741	1986.1375
189.77193	2720.1375
194.07331	3643.6375
198.37157	4690.7375
202.6667	5791.6375
206.9587	6915.3375
211.24758	7968.6375
215.53334	9036.9375
219.81599	10195.0375
224.09553	11411.2375
228.37195	12769.1375
232.64527	14225.8375
236.91549	15770.5375
241.18261	17294.7375
245.44663	18749.6375
249.70755	20071.6375
253.96539	21225.5375
258.22014	22223.6375
262.4718	23051.8375
266.72039	23645.7375
270.96589	23956.1375
275.20832	24120.3375
279.44768	24157.9375
283.68397	24135.1375
287.91719	24128.1375
292.14735	24162.8375
296.37445	24322.2375
300.59849	24536.8375
304.81948	24619.0375
309.03742	24490.5375
313.25231	24115.4375
317.46415	23455.2375
321.67296	22660.5375
325.87872	22025.0375
330.08145	21657.5375
334.28114	21527.0375
338.47781	21577.9375
342.67145	21762.8375
346.86207	21990.6375
351.04966	22246.2375
355.23424	22450.6375
359.4158	22675.8375
363.59435	22805.7375
367.76989	22963.1375
371.94243	22996.9375
376.11196	22998.1375
380.27849	22994.7375
384.44203	23057.3375
388.60257	23247.9375
392.76012	23604.2375
396.91468	24015.1375
401.06626	24438.3375
405.21485	24654.2375
409.36047	24542.0375
413.50311	24214.7375
417.64277	23997.3375
421.77947	24046.8375
425.9132	24137.2375
430.04396	24295.0375
434.17176	24394.9375
438.2966	24511.0375
442.41849	24835.1375
446.53742	25362.8375
450.6534	26014.4375
454.76644	26551.7375
458.87653	26841.8375
462.98368	26937.5375
467.08789	26828.1375
471.18916	26773.6375
475.2875	26731.0375
479.38291	26853.2375
483.4754	26845.0375
487.56496	26493.4375
491.6516	25799.2375
495.73531	25033.8375
499.81612	24552.4375
503.89401	24478.3375
507.96899	24543.7375
512.04106	24602.0375
516.11023	24449.9375
520.1765	24088.5375
524.23987	23628.6375
528.30034	23242.4375
532.35792	22919.1375
536.41261	22714.2375
540.46441	22534.6375
544.51333	22682.8375
548.55936	23116.4375
552.60252	23792.9375
556.64279	24460.0375
560.6802	25016.2375
564.71473	25498.6375
568.7464	26283.3375
572.7752	27491.4375
576.80114	28762.2375
580.82422	29729.8375
584.84444	30329.8375
588.86181	30723.9375
592.87633	30949.6375
596.888	30365.9375
600.89682	29198.3375
604.9028	28792.2375
608.90594	29674.5375
612.90624	30433.8375
616.90371	28230.8375
620.89834	24412.2375
624.89015	22722.8375
628.87913	22666.5375
632.86528	22951.3375
636.84862	23011.1375
640.82913	22676.5375
644.80683	22125.3375
648.78172	21677.8375
652.75379	21546.2375
656.72306	21681.2375
660.68952	21900.8375
664.65319	21816.5375
668.61405	21550.9375
672.57211	21515.1375
676.52738	21558.3375
680.47986	21587.3375
684.42955	21496.9375
688.37646	21389.2375
692.32058	21497.2375
696.26192	21733.2375
700.20048	21980.5375
704.13626	22251.9375
708.06928	22407.4375
711.99952	22376.0375
715.927	22306.8375
719.85171	22232.5375
723.77365	21998.8375
727.69284	21608.2375
731.60928	21320.2375
735.52295	21120.2375
739.43388	21052.8375
743.34206	21074.4375
747.24749	21215.6375
751.15017	21536.9375
755.05012	22049.0375
758.94733	22855.1375
762.8418	24149.2375
766.73354	25907.5375
770.62254	27268.9375
774.50882	27125.4375
778.39237	25578.6375
782.27321	23811.7375
786.15132	22432.2375
790.02671	21570.7375
793.89938	21105.9375
797.76935	20866.3375
801.6366	20804.3375
805.50115	20759.3375
809.36299	20675.5375
813.22213	20561.4375
817.07857	20551.8375
820.93231	20532.6375
824.78336	20387.2375
828.63172	20199.6375
832.47738	19998.7375
836.32036	19933.9375
840.16066	19939.8375
843.99827	19908.8375
847.8332	19871.4375
851.66546	19878.1375
855.49504	19943.0375
859.32195	19880.9375
863.1462	19815.4375
866.96777	19741.4375
870.78668	19713.0375
874.60293	19683.1375
878.41652	19662.3375
882.22745	19672.3375
886.03573	19726.0375
889.84136	19700.6375
893.64433	19687.6375
897.44466	19628.6375
901.24235	19595.2375
905.0374	19561.5375
908.8298	19550.0375
912.61957	19679.7375
916.40671	20063.4375
920.19121	20433.0375
923.97308	20670.4375
927.75233	20467.4375
931.52895	20083.1375
935.30295	19628.8375
939.07433	19152.0375
942.84309	18850.7375
946.60924	18633.0375
950.37278	18576.2375
954.13371	18578.7375
957.89203	18619.9375
961.64774	18649.5375
965.40086	18689.1375
969.15137	18611.3375
972.89929	18430.5375
976.64461	18289.3375
980.38733	18205.0375
984.12747	18203.3375
987.86502	18250.7375
991.59999	18304.0375
995.33237	18425.0375
999.06217	18601.3375
1002.78939	18908.1375
1006.51404	19176.3375
1010.23611	19452.2375
1013.95561	19693.3375
1017.67255	19760.4375
1021.38692	19620.9375
1025.09872	19369.3375
1028.80796	19191.7375
1032.51465	19127.4375
1036.21877	19235.5375
1039.92035	19341.0375
1043.61937	19469.0375
1047.31584	19551.6375
1051.00976	19655.3375
1054.70114	19772.1375
1058.38998	20059.2375
1062.07627	20458.0375
1065.76003	20876.9375
1069.44126	21267.0375
1073.11995	21598.6375
1076.79611	21847.5375
1080.46974	21876.2375
1084.14085	21892.0375
1087.80943	22108.8375
1091.47549	22339.0375
1095.13903	22493.5375
1098.80005	22303.0375
1102.45857	21614.6375
1106.11456	20943.8375
1109.76805	20585.2375
1113.41903	20450.2375
1117.06751	20574.2375
1120.71348	20793.8375
1124.35696	21083.2375
1127.99793	21394.7375
1131.63641	21673.3375
1135.2724	21640.2375
1138.90589	21637.0375
1142.5369	21820.9375
1146.16542	22215.3375
1149.79145	22664.5375
1153.415	23128.2375
1157.03607	23678.7375
1160.65467	24576.5375
1164.27079	25897.0375
1167.88443	27449.0375
1171.49561	29116.4375
1175.10432	30989.4375
1178.71056	33213.9375
1182.31434	35230.2375
1185.91565	36368.1375
1189.51451	36680.5375
1193.11091	36274.7375
1196.70485	35316.8375
1200.29634	33977.3375
1203.88538	33060.7375
1207.47197	32766.1375
1211.05612	32660.5375
1214.63782	32110.3375
1218.21708	30900.4375
1221.79391	29314.1375
1225.36829	28079.6375
1228.94024	27292.9375
1232.50976	26842.1375
1236.07685	26616.7375
1239.6415	26578.6375
1243.20374	26675.5375
1246.76355	26905.9375
1250.32093	27356.5375
1253.8759	28002.5375
1257.42845	28875.8375
1260.97859	29792.0375
1264.52631	30607.1375
1268.07163	31508.0375
1271.61453	32359.7375
1275.15503	33404.6375
1278.69312	34579.6375
1282.22882	35882.8375
1285.76211	37528.9375
1289.29301	39418.5375
1292.82151	41793.2375
1296.34761	44618.0375
1299.87133	47557.2375
1303.39266	50050.0375
1306.9116	51750.9375
1310.42815	52630.1375
1313.94233	52867.7375
1317.45412	52787.9375
1320.96354	52723.4375
1324.47058	53139.8375
1327.97525	53680.2375
1331.47754	54127.6375
1334.97747	54284.7375
1338.47502	54112.0375
1341.97022	53715.2375
1345.46305	52979.1375
1348.95352	51815.4375
1352.44163	50465.2375
1355.92738	49478.6375
1359.41078	49269.3375
1362.89183	49258.5375
1366.37053	48168.1375
1369.84688	45227.8375
1373.32088	41486.8375
1376.79254	38855.1375
1380.26186	38167.2375
1383.72883	38704.1375
1387.19347	39433.5375
1390.65578	39604.5375
1394.11575	39647.8375
1397.57339	39949.0375
1401.0287	40334.0375
1404.48168	40393.5375
1407.93234	39679.2375
1411.38068	38205.4375
1414.82669	36163.7375
1418.27039	33972.8375
1421.71177	32058.6375
1425.15083	30636.3375
1428.58758	29945.6375
1432.02203	30225.5375
1435.45416	31158.5375
1438.88399	32417.3375
1442.31151	33408.1375
1445.73673	34197.0375
1449.15965	34928.6375
1452.58027	35511.5375
1455.9986	35892.4375
1459.41463	36258.3375
1462.82837	36635.7375
1466.23982	36990.8375
1469.64898	37249.6375
1473.05586	37326.7375
1476.46045	37067.0375
1479.86276	36574.1375
1483.26279	36026.2375
1486.66054	35742.3375
1490.05602	35854.1375
1493.44922	36285.6375
1496.84016	36902.7375
1500.22882	37774.4375
1503.61521	38978.2375
1506.99934	40185.7375
1510.38121	41187.1375
1513.76081	41541.3375
1517.13816	41361.5375
1520.51324	40908.1375
1523.88607	40885.9375
1527.25665	41250.3375
1530.62498	41492.0375
1533.99105	41296.2375
1537.35488	40511.8375
1540.71647	39168.4375
1544.07581	37593.5375
1547.4329	36067.0375
1550.78776	34797.3375
1554.14038	34016.8375
1557.49077	33575.4375
1560.83892	33362.6375
1564.18484	33252.8375
1567.52853	33385.8375
1570.86999	33858.2375
1574.20922	34810.5375
1577.54624	35940.8375
1580.88103	36748.4375
1584.2136	37498.3375
1587.54395	38538.9375
1590.87208	39936.2375
1594.19801	41523.5375
1597.52172	42755.0375
1600.84321	42399.8375
1604.16251	39978.7375
1607.47959	36674.2375
1610.79447	33441.7375
1614.10715	30520.9375
1617.41763	28128.6375
1620.7259	26312.6375
1624.03199	25395.3375
1627.33587	25346.0375
1630.63757	26202.9375
1633.93707	28143.7375
1637.23439	31428.9375
1640.52951	35948.9375
1643.82246	41253.4375
1647.11321	45378.1375
1650.40179	46265.7375
1653.68819	43204.3375
1656.97241	37436.1375
1660.25446	31484.8375
1663.53433	26706.7375
1666.81203	23395.6375
1670.08756	21159.7375
1673.36092	19794.4375
1676.63211	18893.9375
1679.90115	18289.4375
1683.16801	17822.1375
1686.43272	17498.0375
1689.69527	17284.8375
1692.95567	17056.8375
1696.2139	16971.2375
1699.46999	16865.8375
1702.72392	16723.2375
1705.97571	16626.5375
1709.22535	16501.1375
1712.47284	16450.5375
1715.71819	16395.3375
1718.96139	16265.0375
1722.20246	16217.8375
1725.44139	16113.8375
1728.67818	16007.6375
1731.91284	15901.1375
1735.14537	15784.0375
1738.37576	15706.0375
1741.60403	15625.7375
1744.83017	15557.0375
1748.05418	15516.3375
1751.27607	15482.7375
1754.49584	15455.0375
1757.71349	15412.5375
1760.92903	15413.8375
1764.14244	15373.8375
1767.35375	15337.9375
1770.56294	15266.9375
1773.77002	15205.6375
1776.97499	15154.9375
1780.17785	15152.7375
1783.37861	15073.6375
1786.57727	15044.9375
1789.77382	15007.4375
1792.96828	14980.6375
1796.16064	14872.9375
1799.3509	14853.9375
1802.53907	14831.1375
1805.72514	14769.7375
1808.90913	14722.6375
1812.09102	14703.3375
1815.27083	14668.6375
1818.44856	14615.5375
1821.6242	14592.1375
1824.79776	14574.6375
1827.96924	14561.0375
1831.13864	14563.8375
1834.30597	14560.2375
1837.47122	14555.9375
1840.6344	14555.6375
1843.7955	14544.9375
1846.95454	14543.0375
1850.11151	14509.2375
1853.26642	14512.4375
1856.41926	14457.7375
1859.57004	14449.6375
1862.71876	14409.5375
1865.86542	14393.0375
1869.01003	14388.3375
1872.15258	14334.6375
1875.29308	14316.5375
1878.43152	14283.7375
1881.56792	14264.7375
1884.70227	14193.0375
1887.83457	14204.9375
1890.96482	14165.7375
1894.09304	14134.8375
1897.21921	14145.7375
1900.34335	14072.2375
1903.46544	14031.7375
1906.58551	14072.6375
1909.70353	14044.6375
1912.81953	13978.1375
1915.93349	13944.3375
1919.04543	13895.2375
1922.15534	13862.6375
1925.26322	13850.9375
1928.36908	13800.7375
1931.47292	13779.5375
1934.57473	13718.5375
1937.67453	13654.8375
1940.77232	13635.4375
1943.86808	13596.1375
1946.96184	13584.7375
1950.05358	13520.0375
1953.14331	13487.1375
1956.23103	13459.0375
1959.31675	13374.6375
1962.40046	13347.4375
1965.48217	13285.5375
1968.56188	13270.6375
1971.63959	13186.2375
1974.7153	13157.0375
1977.78901	13134.8375
1980.86073	13067.7375
1983.93046	13023.9375
1986.99819	12969.5375
1990.06394	12929.5375
1993.1277	12900.7375
1996.18947	12825.3375
1999.24925	12789.9375
2002.30706	12741.9375
2005.36288	12703.2375
2008.41672	12683.2375
2011.46859	12616.6375
2014.51848	12602.5375
2017.56639	12521.9375
2020.61233	12518.0375
2023.6563	12466.8375
2026.6983	12439.5375
2029.73833	12428.9375
2032.7764	12390.3375
2035.8125	12334.5375
2038.84664	12332.9375
2041.87881	12312.6375
2044.90903	12291.1375
2047.93729	12246.3375
2050.96359	12244.5375
2053.98794	12205.6375
2057.01034	12200.6375
2060.03078	12209.9375
2063.04927	12186.6375
2066.06582	12174.5375
2069.08042	12164.1375
2072.09307	12142.3375
2075.10378	12133.3375
2078.11255	12132.6375
2081.11938	12099.3375
2084.12426	12089.2375
2087.12722	12080.2375
2090.12824	12076.9375
2093.12732	12039.4375
2096.12447	12090.3375
2099.11969	12076.6375
2102.11299	12083.4375
2105.10435	12087.0375
2108.09379	12073.6375
2111.08131	12072.6375
2114.0669	12083.7375
2117.05057	12084.0375
2120.03233	12110.4375
2123.01216	12102.9375
2125.99008	12107.1375
2128.96609	12077.0375
2131.94018	12058.0375
2134.91236	12042.2375
2137.88263	12070.1375
2140.851	12055.6375
2143.81746	12073.2375
2146.78201	12085.4375
2149.74466	12065.9375
2152.7054	12054.9375
2155.66425	12037.2375
2158.6212	12072.0375
2161.57625	12011.5375
2164.52941	12023.2375
2167.48067	12007.6375
2170.43004	11977.1375
2173.37752	11955.7375
2176.32311	11938.5375
2179.26681	11967.7375
2182.20863	11955.6375
2185.14856	11976.9375
2188.08661	11961.1375
2191.02278	11946.0375
2193.95707	11928.8375
2196.88948	11908.9375
2199.82001	11886.7375
2202.74867	11873.9375
2205.67545	11881.6375
2208.60037	11838.0375
2211.52341	11786.6375
2214.44458	11776.3375
2217.36388	11748.7375
2220.28132	11759.2375
2223.1969	11739.5375
2226.11061	11706.4375
2229.02246	11681.5375
2231.93245	11644.3375
2234.84058	11635.5375
2237.74686	11599.1375
2240.65128	11568.3375
2243.55385	11558.0375
2246.45456	11574.5375
2249.35343	11506.5375
2252.25044	11479.3375
2255.14561	11452.1375
2258.03893	11443.1375
2260.93041	11388.5375
2263.82004	11382.8375
2266.70783	11350.9375
2269.59378	11277.1375
2272.4779	11253.3375
2275.36017	11215.6375
2278.24061	11211.4375
2281.11922	11182.6375
2283.996	11154.2375
2286.87094	11127.1375
2289.74405	11117.5375
2292.61534	11096.4375
2295.4848	11082.4375
2298.35243	11069.4375
2301.21824	11044.9375
2304.08223	11048.9375
2306.94439	11060.5375
2309.80474	11056.5375
2312.66327	11008.6375
2315.51999	11009.0375
2318.37489	10989.9375
2321.22797	10958.4375
2324.07925	10954.2375
2326.92871	10954.9375
2329.77637	10947.2375
2332.62222	10905.1375
2335.46626	10907.7375
2338.3085	10896.0375
2341.14893	10886.2375
2343.98756	10863.3375
2346.8244	10852.8375
2349.65943	10870.1375
2352.49267	10876.4375
2355.32411	10864.4375
2358.15376	10865.0375
2360.98161	10852.9375
2363.80768	10851.2375
2366.63195	10860.6375
2369.45444	10855.6375
2372.27514	10849.0375
2375.09405	10808.9375
2377.91118	10777.8375
2380.72652	10756.4375
2383.54009	10740.2375
2386.35187	10730.4375
2389.16188	10657.5375
2391.97011	10658.8375
2394.77657	10623.4375
2397.58125	10599.2375
2400.38416	10586.8375
2403.18529	10562.4375
2405.98466	10560.3375
2408.78226	10546.4375
2411.57809	10538.4375
2414.37216	10521.3375
2417.16446	10540.3375
2419.955	10519.1375
2422.74378	10523.9375
2425.5308	10477.3375
2428.31606	10505.0375
2431.09956	10483.0375
2433.88131	10460.1375
2436.6613	10468.2375
2439.43954	10424.1375
2442.21603	10435.4375
2444.99077	10418.3375
2447.76377	10423.1375
2450.53501	10409.5375
2453.30451	10391.7375
2456.07226	10401.7375
2458.83827	10406.5375
2461.60254	10399.4375
2464.36507	10388.6375
2467.12586	10387.8375
2469.88492	10387.5375
2472.64224	10360.5375
2475.39782	10365.9375
2478.15167	10377.2375
2480.90379	10375.2375
2483.65417	10367.6375
2486.40283	10375.1375
2489.14976	10395.6375
2491.89497	10350.7375
2494.63845	10378.1375
2497.3802	10350.1375
2500.12024	10363.1375
2502.85855	10360.7375
2505.59514	10350.3375
2508.33002	10363.3375
2511.06318	10363.0375
2513.79462	10333.3375
2516.52435	10305.8375
2519.25237	10299.1375
2521.97867	10300.6375
2524.70327	10299.4375
2527.42616	10299.2375
2530.14734	10297.5375
2532.86681	10275.6375
2535.58458	10267.8375
2538.30065	10235.6375
2541.01501	10240.7375
2543.72768	10222.8375
2546.43864	10214.8375
2549.14791	10194.1375
2551.85548	10184.0375
2554.56136	10152.0375
2557.26554	10167.9375
2559.96803	10154.0375
2562.66883	10141.3375
2565.36794	10142.9375
2568.06536	10127.3375
2570.7611	10125.0375
2573.45514	10125.8375
2576.14751	10123.4375
2578.83819	10087.9375
2581.52719	10062.1375
2584.21451	10074.9375
2586.90015	10048.8375
2589.58411	10060.5375
2592.2664	10054.1375
2594.94701	10035.4375
2597.62594	10027.1375
2600.30321	10027.4375
2602.9788	10016.7375
2605.65273	10003.1375
2608.32498	10013.9375
2610.99557	10007.1375
2613.66449	10013.6375
2616.33175	10035.2375
2618.99734	10011.6375
2621.66128	10000.7375
2624.32355	9973.9375
2626.98416	10003.8375
2629.64311	9985.8375
2632.30041	9974.6375
2634.95605	9991.1375
2637.61004	9952.3375
2640.26238	9934.1375
2642.91306	9944.3375
2645.56209	9946.5375
2648.20948	9961.2375
2650.85521	9958.2375
2653.4993	9941.8375
2656.14175	9949.3375
2658.78255	9982.2375
2661.42171	9965.5375
2664.05923	9994.3375
2666.6951	9978.3375
2669.32934	10001.3375
2671.96194	9991.6375
2674.59291	9988.2375
2677.22224	9967.1375
2679.84993	10001.8375
2682.476	9973.5375
2685.10043	9978.2375
2687.72324	9960.9375
2690.34441	9968.0375
2692.96396	9969.3375
2695.58188	9962.1375
2698.19818	9951.1375
2700.81285	9968.7375
2703.4259	10004.7375
2706.03733	10004.7375
2708.64714	9995.8375
2711.25533	9996.4375
2713.86191	9961.9375
2716.46687	10006.6375
2719.07021	10004.1375
2721.67194	10012.8375
2724.27206	10008.4375
2726.87057	10047.9375
2729.46747	10040.2375
2732.06276	10049.1375
2734.65644	10007.6375
2737.24852	10012.2375
2739.83899	10020.1375
2742.42786	9983.3375
2745.01513	9968.4375
2747.60079	9985.2375
2750.18486	9951.3375
2752.76733	9973.1375
2755.3482	9967.2375
2757.92747	9986.0375
2760.50515	9971.2375
2763.08123	9994.6375
2765.65573	9979.7375
2768.22863	9961.8375
2770.79994	9931.1375
2773.36967	9960.7375
2775.9378	9977.9375
2778.50435	9925.2375
2781.06932	9940.4375
2783.6327	9934.0375
2786.1945	9917.7375
2788.75471	9931.1375
2791.31335	9887.2375
2793.87041	9894.2375
2796.42589	9865.5375
2798.97979	9886.2375
2801.53212	9859.7375
2804.08288	9883.3375
2806.63206	9816.0375
2809.17967	9810.6375
2811.72571	9786.6375
2814.27018	9777.6375
2816.81308	9783.4375
2819.35442	9729.3375
2821.89419	9712.9375
2824.43239	9713.2375
2826.96904	9702.2375
2829.50412	9720.0375
2832.03763	9697.0375
2834.56959	9708.4375
2837.1	9671.4375
2839.62884	9671.0375
2842.15613	9683.5375
2844.68186	9733.4375
2847.20604	9737.9375
2849.72867	9772.8375
2852.24974	9767.0375
2854.76927	9757.9375
2857.28724	9735.0375
2859.80367	9726.3375
2862.31855	9694.3375
2864.83189	9685.8375
2867.34368	9663.2375
2869.85393	9675.3375
2872.36264	9661.9375
2874.8698	9688.0375
2877.37543	9622.6375
2879.87952	9602.9375
2882.38207	9624.2375
2884.88308	9615.7375
2887.38256	9623.1375
2889.88051	9636.7375
2892.37692	9627.1375
2894.8718	9631.4375
2897.36515	9629.3375
2899.85698	9647.9375
2902.34727	9659.5375
2904.83604	9636.2375
2907.32328	9648.8375
2909.809	9651.1375
2912.29319	9653.3375
2914.77587	9647.4375
2917.25702	9647.8375
2919.73665	9624.8375
2922.21476	9651.3375
2924.69136	9613.2375
2927.16644	9663.2375
2929.64	9649.5375
2932.11205	9660.6375
2934.58258	9627.8375
2937.05161	9636.4375
2939.51912	9632.5375
2941.98513	9592.0375
2944.44962	9547.3375
2946.91261	9502.1375
2949.37409	9503.0375
2951.83407	9450.7375
2954.29254	9474.3375
2956.74951	9438.0375
2959.20498	9414.9375
2961.65895	9409.5375
2964.11142	9393.6375
2966.56239	9378.9375
2969.01186	9371.1375
2971.45984	9343.4375
2973.90632	9327.2375
2976.35131	9283.1375
2978.7948	9267.7375
2981.23681	9257.5375
2983.67732	9214.2375
2986.11635	9201.4375
2988.55388	9194.3375
2990.98993	9172.0375
2993.4245	9123.4375
2995.85758	9106.8375
2998.28917	9086.1375
3000.71928	9071.7375
3003.14791	9012.8375
3005.57506	9006.2375
3008.00073	8984.7375
3010.42493	8941.4375
3012.84764	8920.2375
3015.26888	8927.4375
3017.68865	8904.5375
3020.10694	8909.3375
3022.52376	8851.2375
3024.9391	8879.5375
3027.35298	8828.8375
3029.76539	8838.1375
3032.17632	8834.3375
3034.5858	8820.4375
3036.9938	8807.3375
3039.40034	8826.2375
3041.80542	8790.2375
3044.20903	8781.8375
3046.61118	8772.6375
3049.01187	8753.9375
3051.4111	8715.3375
3053.80888	8693.6375
3056.20519	8681.1375
3058.60005	8668.7375
3060.99345	8638.7375
3063.3854	8609.0375
3065.7759	8586.0375
3068.16494	8530.3375
3070.55254	8521.5375
3072.93868	8503.2375
3075.32338	8456.7375
3077.70662	8463.7375
3080.08842	8431.5375
3082.46878	8399.1375
3084.84769	8393.7375
3087.22515	8390.5375
3089.60118	8396.3375
3091.97576	8382.9375
3094.3489	8375.5375
3096.72061	8354.2375
3099.09087	8344.8375
3101.4597	8341.1375
3103.82709	8339.7375
3106.19305	8295.9375
3108.55757	8300.5375
3110.92066	8259.8375
3113.28232	8244.8375
3115.64255	8210.6375
3118.00134	8188.8375
3120.35871	8189.5375
3122.71466	8152.6375
3125.06917	8166.0375
3127.42226	8141.7375
3129.77393	8140.6375
3132.12417	8134.7375
3134.47299	8149.7375
3136.82039	8127.2375
3139.16636	8108.0375
3141.51092	8099.5375
3143.85406	8100.3375
3146.19579	8111.2375
3148.53609	8105.2375
3150.87499	8109.0375
3153.21246	8120.8375
3155.54853	8122.4375
3157.88318	8108.7375
3160.21642	8105.4375
3162.54826	8087.8375
3164.87868	8084.9375
3167.2077	8088.3375
3169.5353	8115.6375
3171.86151	8062.2375
3174.18631	8060.1375
3176.5097	8068.7375
3178.83169	8045.6375
3181.15228	8042.4375
3183.47147	8031.2375
3185.78926	8024.4375
3188.10565	8027.3375
3190.42065	8031.6375
3192.73424	8013.8375
3195.04645	7997.8375
3197.35725	7982.5375
3199.66667	7990.7375
3201.97469	7981.5375
3204.28132	7962.9375
3206.58656	7956.4375
3208.8904	7955.0375
3211.19287	7963.1375
3213.49394	7965.3375
3215.79363	7963.8375
3218.09193	7972.0375
3220.38884	7951.0375
3222.68438	7969.3375
3224.97853	7932.4375
3227.2713	7924.7375
3229.56269	7925.0375
3231.8527	7927.2375
3234.14133	7924.3375
3236.42858	7898.7375
3238.71446	7887.5375
3240.99896	7888.2375
3243.28209	7877.8375
3245.56384	7844.7375
3247.84423	7851.8375
3250.12324	7827.5375
3252.40088	7827.2375
3254.67715	7792.7375
3256.95205	7776.1375
3259.22558	7793.7375
3261.49775	7729.2375
3263.76855	7746.7375
3266.03799	7724.9375
3268.30606	7710.1375
3270.57277	7680.3375
3272.83812	7675.2375
3275.10211	7638.4375
3277.36474	7630.5375
3279.62601	7651.5375
3281.88593	7659.0375
3284.14448	7647.9375
3286.40168	7656.0375
3288.65753	7630.8375
3290.91202	7610.9375
3293.16516	7583.1375
3295.41695	7569.2375
3297.66738	7509.6375
3299.91647	7489.2375
3302.16421	7413.6375
3304.4106	7396.7375
3306.65564	7346.0375
3308.89933	7313.9375
3311.14169	7250.6375
3313.38269	7199.7375
3315.62236	7149.9375
3317.86068	7076.4375
3320.09766	7005.4375
3322.3333	6938.5375
3324.5676	6936.0375
3326.80056	6824.9375
3329.03219	6804.4375
3331.26248	1.4375
3333.49143	0.0375
3335.71905	-0.5625
