Data from AgNPs_FTO_APTES_UA_2uM_CRN_100uM_R6G_10uM_NaF_0.1M_Addition_RamanShift__6__15-45-05-308.txt Node

Date: Wed Feb 02 15:45:05 GMT 2022
User: TCL
Spectrometer: QEP01345
Trigger mode: 4
Integration Time (sec): 7.000000E0
Scans to average: 10
Electric dark correction enabled: true
Nonlinearity correction enabled: false
Boxcar width: 0
XAxis mode: Raman Shifts
Number of Pixels in Spectrum: 1044
>>>>>Begin Spectral Data<<<<<
46.04893	-0.6
50.45542	-0.4
54.85868	-0.6
59.25871	0.1
63.6555	78.1
68.04907	80.2
72.43941	83.9
76.82654	94.5
81.21044	95.4
85.59113	100.1
89.96862	103.3
94.34289	105.5
98.71396	107.7
103.08183	119.1
107.4465	120.2
111.80798	124.9
116.16626	116.8
120.52136	125.1
124.87327	129.1
129.222	135.9
133.56755	149.5
137.90993	154
142.24913	173.3
146.58517	191.5
150.91804	224.8
155.24774	268.8
159.57429	328.8
163.89768	418.6
168.21792	550
172.53501	749.6
176.84895	1039.4
181.15975	1453.4
185.46741	2044.9
189.77193	2801.6
194.07331	3756.7
198.37157	4834.7
202.6667	5984.1
206.9587	7111.6
211.24758	8232.9
215.53334	9323.6
219.81599	10525.1
224.09553	11788.4
228.37195	13211.4
232.64527	14730.8
236.91549	16330.3
241.18261	17912.6
245.44663	19474
249.70755	20810.8
253.96539	22015.5
258.22014	22974.8
262.4718	23802.3
266.72039	24420.8
270.96589	24687.7
275.20832	24787.8
279.44768	24764.3
283.68397	24644.6
287.91719	24564
292.14735	24591.2
296.37445	24705.8
300.59849	24852.9
304.81948	24981
309.03742	24950.6
313.25231	24649.8
317.46415	24038.3
321.67296	23269.5
325.87872	22608.4
330.08145	22259.5
334.28114	22093.4
338.47781	22171.1
342.67145	22320.3
346.86207	22622.7
351.04966	22882.8
355.23424	23092.1
359.4158	23349.7
363.59435	23466.6
367.76989	23568.4
371.94243	23646.1
376.11196	23631.7
380.27849	23651.1
384.44203	23791.1
388.60257	24004.8
392.76012	24318.3
396.91468	24750.1
401.06626	25161.3
405.21485	25407.8
409.36047	25355.8
413.50311	25053.4
417.64277	24875.2
421.77947	24941.2
425.9132	25023.3
430.04396	25185.3
434.17176	25275.7
438.2966	25349.7
442.41849	25724.4
446.53742	26398.1
450.6534	27134.2
454.76644	27718.3
458.87653	27920.6
462.98368	27928.7
467.08789	27789.8
471.18916	27587.1
475.2875	27516.5
479.38291	27596
483.4754	27548.4
487.56496	27154.2
491.6516	26496.9
495.73531	25701
499.81612	25219.7
503.89401	25148.4
507.96899	25159.9
512.04106	25133.9
516.11023	24913
520.1765	24534.4
524.23987	24113
528.30034	23810.1
532.35792	23493.4
536.41261	23220
540.46441	23056.3
544.51333	23120.9
548.55936	23553.2
552.60252	24243.1
556.64279	24957.4
560.6802	25603.4
564.71473	26115.5
568.7464	26935.6
572.7752	28238.5
576.80114	29564.6
580.82422	30642.4
584.84444	31601.5
588.86181	32584.6
592.87633	33162.9
596.888	32425.8
600.89682	30750.9
604.9028	29987.9
608.90594	30742.3
612.90624	31556.2
616.90371	29283.4
620.89834	25158.4
624.89015	23357.8
628.87913	23271.1
632.86528	23556.7
636.84862	23564.4
640.82913	23142.8
644.80683	22595.7
648.78172	22163.1
652.75379	22057.6
656.72306	22212
660.68952	22422.3
664.65319	22278.7
668.61405	22007.9
672.57211	21949.3
676.52738	22019.4
680.47986	22051.8
684.42955	21922.1
688.37646	21842.1
692.32058	21898.2
696.26192	22171.2
700.20048	22538
704.13626	22771.8
708.06928	22915.7
711.99952	22921.1
715.927	22880.8
719.85171	22817.3
723.77365	22631.3
727.69284	22253.9
731.60928	21923.3
735.52295	21769
739.43388	21674.6
743.34206	21727.1
747.24749	21894.5
751.15017	22213.3
755.05012	22710.5
758.94733	23610.3
762.8418	24918.4
766.73354	26723.8
770.62254	28155.8
774.50882	27976.8
778.39237	26401
782.27321	24537.8
786.15132	23049.3
790.02671	22177.2
793.89938	21660.4
797.76935	21436.5
801.6366	21356.3
805.50115	21305.1
809.36299	21201.4
813.22213	21106.8
817.07857	21097.9
820.93231	21053.3
824.78336	20862.8
828.63172	20674.6
832.47738	20533.6
836.32036	20468.6
840.16066	20464.9
843.99827	20442.9
847.8332	20405.4
851.66546	20412.6
855.49504	20417.7
859.32195	20386.4
863.1462	20312.1
866.96777	20225.4
870.78668	20185.2
874.60293	20158.1
878.41652	20165.6
882.22745	20215.2
886.03573	20258.5
889.84136	20199.9
893.64433	20174.6
897.44466	20111.6
901.24235	20086.6
905.0374	20030.9
908.8298	20026.9
912.61957	20166.9
916.40671	20492.3
920.19121	20922.5
923.97308	21139.5
927.75233	21024.7
931.52895	20652.3
935.30295	20139
939.07433	19677.3
942.84309	19310.8
946.60924	19057.4
950.37278	19013.8
954.13371	19026.8
957.89203	19068.5
961.64774	19120.4
965.40086	19125.1
969.15137	19056.5
972.89929	18858.1
976.64461	18680.3
980.38733	18608.8
984.12747	18581.1
987.86502	18633.2
991.59999	18746.5
995.33237	18886
999.06217	19105.1
1002.78939	19443.6
1006.51404	19810.1
1010.23611	20113.9
1013.95561	20363.5
1017.67255	20458.8
1021.38692	20318
1025.09872	19967.6
1028.80796	19718.8
1032.51465	19637.8
1036.21877	19742
1039.92035	19892
1043.61937	19988.9
1047.31584	20073.5
1051.00976	20143.6
1054.70114	20246.1
1058.38998	20505.1
1062.07627	20802.9
1065.76003	21227.3
1069.44126	21641.5
1073.11995	22021.6
1076.79611	22268.7
1080.46974	22326
1084.14085	22352.3
1087.80943	22512.6
1091.47549	22770.7
1095.13903	22952.2
1098.80005	22727.7
1102.45857	22035.3
1106.11456	21302.3
1109.76805	20972.3
1113.41903	20914.4
1117.06751	21030.4
1120.71348	21246.6
1124.35696	21548.8
1127.99793	21901.1
1131.63641	22208.2
1135.2724	22207.5
1138.90589	22157.3
1142.5369	22357.7
1146.16542	22729.7
1149.79145	23165.6
1153.415	23666.7
1157.03607	24252.7
1160.65467	25192.7
1164.27079	26565
1167.88443	28217.9
1171.49561	29999
1175.10432	32030.2
1178.71056	34496.1
1182.31434	36673.9
1185.91565	37679.1
1189.51451	37525.7
1193.11091	36796.5
1196.70485	35732.5
1200.29634	34391.9
1203.88538	33575
1207.47197	33369.6
1211.05612	33411.8
1214.63782	32796.3
1218.21708	31556.5
1221.79391	30005.2
1225.36829	28827.1
1228.94024	28096.7
1232.50976	27571.8
1236.07685	27213.6
1239.6415	27020.8
1243.20374	27042.5
1246.76355	27281.7
1250.32093	27625.7
1253.8759	28243.3
1257.42845	29145.8
1260.97859	30019.9
1264.52631	30998
1268.07163	31826.4
1271.61453	32847.6
1275.15503	33970.5
1278.69312	35292.9
1282.22882	36808.6
1285.76211	38644.2
1289.29301	40771.3
1292.82151	43380.5
1296.34761	46539.1
1299.87133	49715.4
1303.39266	52531.6
1306.9116	54547.2
1310.42815	55766.1
1313.94233	56201.2
1317.45412	55980.2
1320.96354	55690.3
1324.47058	55732.9
1327.97525	55936.5
1331.47754	56008.7
1334.97747	55703.4
1338.47502	55046.4
1341.97022	54036.8
1345.46305	52950.2
1348.95352	51668.9
1352.44163	50537.4
1355.92738	50135.1
1359.41078	50696
1362.89183	51390
1366.37053	50611.6
1369.84688	47485.8
1373.32088	43056.6
1376.79254	39933.6
1380.26186	39121.2
1383.72883	39630.5
1387.19347	40255.4
1390.65578	40377.8
1394.11575	40520.8
1397.57339	41095.5
1401.0287	41775.3
1404.48168	42180.8
1407.93234	41573.1
1411.38068	40023.2
1414.82669	37833.2
1418.27039	35484.1
1421.71177	33338.5
1425.15083	31709.9
1428.58758	30907.2
1432.02203	31165.7
1435.45416	32195.7
1438.88399	33499.1
1442.31151	34556.4
1445.73673	35408.5
1449.15965	36064.1
1452.58027	36700.6
1455.9986	36931.1
1459.41463	37218.3
1462.82837	37615.4
1466.23982	38117.9
1469.64898	38529.2
1473.05586	38721.7
1476.46045	38572.6
1479.86276	38090.8
1483.26279	37520.1
1486.66054	37176.7
1490.05602	37341
1493.44922	37743.9
1496.84016	38315.3
1500.22882	39225.6
1503.61521	40305.4
1506.99934	41515.5
1510.38121	42440.6
1513.76081	42573.6
1517.13816	42095.8
1520.51324	41425.1
1523.88607	41133.3
1527.25665	41398.8
1530.62498	41594.9
1533.99105	41486.8
1537.35488	40687.6
1540.71647	39405.8
1544.07581	37787.3
1547.4329	36167.8
1550.78776	34895.4
1554.14038	34063.9
1557.49077	33617.2
1560.83892	33406.3
1564.18484	33337.3
1567.52853	33491.6
1570.86999	33937.2
1574.20922	34923.6
1577.54624	36096.8
1580.88103	36882
1584.2136	37808.8
1587.54395	39193
1590.87208	40980.9
1594.19801	42973.5
1597.52172	44527.5
1600.84321	44262.6
1604.16251	41769.6
1607.47959	37960.7
1610.79447	34269.9
1614.10715	31010.5
1617.41763	28338.7
1620.7259	26508.5
1624.03199	25644.8
1627.33587	25661.2
1630.63757	26661.5
1633.93707	28849.1
1637.23439	32501.3
1640.52951	37692.7
1643.82246	43830.9
1647.11321	48652
1650.40179	49769.7
1653.68819	46112.4
1656.97241	39448.5
1660.25446	32753.3
1663.53433	27471.8
1666.81203	23936
1670.08756	21717
1673.36092	20311.5
1676.63211	19372.3
1679.90115	18764.4
1683.16801	18320.1
1686.43272	17998.7
1689.69527	17741.2
1692.95567	17547.8
1696.2139	17434.8
1699.46999	17291
1702.72392	17177.3
1705.97571	17048.8
1709.22535	16986.8
1712.47284	16902.6
1715.71819	16815.9
1718.96139	16750
1722.20246	16690.7
1725.44139	16577
1728.67818	16487.9
1731.91284	16351.2
1735.14537	16245.5
1738.37576	16161.2
1741.60403	16066.6
1744.83017	16000.3
1748.05418	15990.5
1751.27607	15941.9
1754.49584	15944
1757.71349	15906.8
1760.92903	15900.2
1764.14244	15875.3
1767.35375	15822.4
1770.56294	15769
1773.77002	15673.1
1776.97499	15655
1780.17785	15616.8
1783.37861	15536
1786.57727	15496.6
1789.77382	15444.6
1792.96828	15441.9
1796.16064	15357.6
1799.3509	15303.8
1802.53907	15274
1805.72514	15229.8
1808.90913	15172.2
1812.09102	15144.3
1815.27083	15131.1
1818.44856	15106.7
1821.6242	15069.4
1824.79776	15067
1827.96924	15045.5
1831.13864	14976.9
1834.30597	15027.5
1837.47122	15013.9
1840.6344	15002
1843.7955	15000.7
1846.95454	14965.7
1850.11151	14949.5
1853.26642	14912.2
1856.41926	14943.9
1859.57004	14912.3
1862.71876	14876
1865.86542	14830.9
1869.01003	14826.2
1872.15258	14792.8
1875.29308	14764.7
1878.43152	14768.5
1881.56792	14716.5
1884.70227	14658.6
1887.83457	14696.2
1890.96482	14648.1
1894.09304	14607.7
1897.21921	14613.8
1900.34335	14610.9
1903.46544	14528.4
1906.58551	14546
1909.70353	14514.6
1912.81953	14431.4
1915.93349	14440.1
1919.04543	14402.1
1922.15534	14343.2
1925.26322	14311.9
1928.36908	14280.2
1931.47292	14251.2
1934.57473	14188.2
1937.67453	14145.2
1940.77232	14081.8
1943.86808	14061.5
1946.96184	14040.1
1950.05358	13972.6
1953.14331	13959.4
1956.23103	13903.8
1959.31675	13858.7
1962.40046	13838.8
1965.48217	13750.8
1968.56188	13713.6
1971.63959	13650
1974.7153	13601
1977.78901	13609.3
1980.86073	13520.4
1983.93046	13488.4
1986.99819	13418.7
1990.06394	13385.8
1993.1277	13341
1996.18947	13307.7
1999.24925	13270.2
2002.30706	13188.1
2005.36288	13162.1
2008.41672	13126.2
2011.46859	13076.2
2014.51848	13035.5
2017.56639	12974.6
2020.61233	12947.6
2023.6563	12933.9
2026.6983	12910.3
2029.73833	12880.6
2032.7764	12852.4
2035.8125	12802.8
2038.84664	12768.6
2041.87881	12744
2044.90903	12740.3
2047.93729	12698.5
2050.96359	12707.1
2053.98794	12671.6
2057.01034	12648.4
2060.03078	12647.9
2063.04927	12620.2
2066.06582	12622.8
2069.08042	12605.9
2072.09307	12600.7
2075.10378	12588.3
2078.11255	12569.3
2081.11938	12544.5
2084.12426	12531.2
2087.12722	12538.8
2090.12824	12527.9
2093.12732	12523.2
2096.12447	12547.4
2099.11969	12533.7
2102.11299	12543.9
2105.10435	12544.5
2108.09379	12528.8
2111.08131	12517.2
2114.0669	12510.9
2117.05057	12548
2120.03233	12543.1
2123.01216	12579
2125.99008	12526
2128.96609	12555.5
2131.94018	12514.7
2134.91236	12536
2137.88263	12520.9
2140.851	12512
2143.81746	12536.7
2146.78201	12531.4
2149.74466	12532.5
2152.7054	12499.5
2155.66425	12511.8
2158.6212	12492.3
2161.57625	12479.7
2164.52941	12493.4
2167.48067	12447.4
2170.43004	12462.5
2173.37752	12416.4
2176.32311	12430.6
2179.26681	12438
2182.20863	12428
2185.14856	12413.7
2188.08661	12402.1
2191.02278	12392.5
2193.95707	12392.2
2196.88948	12379.4
2199.82001	12370.4
2202.74867	12319.7
2205.67545	12335.1
2208.60037	12315.6
2211.52341	12228.3
2214.44458	12248.3
2217.36388	12213.7
2220.28132	12211.8
2223.1969	12193.4
2226.11061	12158.9
2229.02246	12148.6
2231.93245	12123.5
2234.84058	12071.8
2237.74686	12050
2240.65128	12088.8
2243.55385	12044.3
2246.45456	12035.4
2249.35343	11992.7
2252.25044	11946
2255.14561	11910
2258.03893	11897.9
2260.93041	11896
2263.82004	11829.5
2266.70783	11781.8
2269.59378	11767.4
2272.4779	11719.1
2275.36017	11682.2
2278.24061	11633.9
2281.11922	11632
2283.996	11620.5
2286.87094	11587.5
2289.74405	11547.5
2292.61534	11544.6
2295.4848	11531.5
2298.35243	11544.6
2301.21824	11491
2304.08223	11533.9
2306.94439	11515.1
2309.80474	11488.9
2312.66327	11480.5
2315.51999	11456
2318.37489	11464.8
2321.22797	11448.3
2324.07925	11420.2
2326.92871	11403
2329.77637	11384.9
2332.62222	11396.8
2335.46626	11373.8
2338.3085	11336.2
2341.14893	11346.1
2343.98756	11346.4
2346.8244	11334.6
2349.65943	11358.8
2352.49267	11325.1
2355.32411	11316.9
2358.15376	11330.8
2360.98161	11304.9
2363.80768	11315.1
2366.63195	11308.8
2369.45444	11283.7
2372.27514	11267.1
2375.09405	11262.9
2377.91118	11238.4
2380.72652	11184.4
2383.54009	11185.4
2386.35187	11153.2
2389.16188	11112.3
2391.97011	11097.9
2394.77657	11091.1
2397.58125	11064.7
2400.38416	11028.3
2403.18529	11004.4
2405.98466	10991.6
2408.78226	11005.8
2411.57809	10978.5
2414.37216	10971.9
2417.16446	10995.5
2419.955	10956.9
2422.74378	10964.8
2425.5308	10942.3
2428.31606	10929.9
2431.09956	10916.6
2433.88131	10878.7
2436.6613	10906.3
2439.43954	10877.5
2442.21603	10879.5
2444.99077	10860.7
2447.76377	10866.7
2450.53501	10851.7
2453.30451	10847.4
2456.07226	10821.1
2458.83827	10842.6
2461.60254	10849.6
2464.36507	10833.5
2467.12586	10821.6
2469.88492	10828.9
2472.64224	10834.4
2475.39782	10832.9
2478.15167	10829.9
2480.90379	10800.9
2483.65417	10823.1
2486.40283	10797.1
2489.14976	10813.6
2491.89497	10818.5
2494.63845	10793.3
2497.3802	10817.8
2500.12024	10789.9
2502.85855	10791.3
2505.59514	10790.7
2508.33002	10773.7
2511.06318	10747.8
2513.79462	10744.1
2516.52435	10719.5
2519.25237	10730.2
2521.97867	10716.2
2524.70327	10727.8
2527.42616	10684.9
2530.14734	10680.8
2532.86681	10681.1
2535.58458	10672
2538.30065	10653.6
2541.01501	10649.4
2543.72768	10615.7
2546.43864	10630.8
2549.14791	10612
2551.85548	10610.9
2554.56136	10571.3
2557.26554	10587
2559.96803	10562.7
2562.66883	10546.7
2565.36794	10566.9
2568.06536	10581.1
2570.7611	10530.6
2573.45514	10541.3
2576.14751	10543.8
2578.83819	10501.3
2581.52719	10488.7
2584.21451	10477.3
2586.90015	10492.6
2589.58411	10489.8
2592.2664	10485.9
2594.94701	10460
2597.62594	10461.1
2600.30321	10436.4
2602.9788	10430.4
2605.65273	10407.7
2608.32498	10418.1
2610.99557	10433.6
2613.66449	10421.1
2616.33175	10440.6
2618.99734	10439.7
2621.66128	10430.8
2624.32355	10403.3
2626.98416	10428.1
2629.64311	10383.6
2632.30041	10396.2
2634.95605	10385.7
2637.61004	10390.3
2640.26238	10335
2642.91306	10367.9
2645.56209	10383.1
2648.20948	10381.3
2650.85521	10342.8
2653.4993	10342.9
2656.14175	10384.1
2658.78255	10392
2661.42171	10364.1
2664.05923	10391.7
2666.6951	10396.9
2669.32934	10401
2671.96194	10378
2674.59291	10383.1
2677.22224	10399.7
2679.84993	10384.7
2682.476	10381.4
2685.10043	10376
2687.72324	10343.2
2690.34441	10361.7
2692.96396	10349
2695.58188	10353.2
2698.19818	10349.6
2700.81285	10352.3
2703.4259	10355
2706.03733	10413
2708.64714	10397.4
2711.25533	10402.5
2713.86191	10362.4
2716.46687	10393.2
2719.07021	10382.1
2721.67194	10417.6
2724.27206	10411.6
2726.87057	10408.4
2729.46747	10427.5
2732.06276	10429.3
2734.65644	10407.7
2737.24852	10409
2739.83899	10382.8
2742.42786	10418.7
2745.01513	10380.5
2747.60079	10399.9
2750.18486	10366.9
2752.76733	10369.6
2755.3482	10371.7
2757.92747	10384
2760.50515	10382.4
2763.08123	10402.7
2765.65573	10393.2
2768.22863	10356.7
2770.79994	10340.6
2773.36967	10372.9
2775.9378	10357.7
2778.50435	10337.3
2781.06932	10346.8
2783.6327	10330.3
2786.1945	10322.2
2788.75471	10341.6
2791.31335	10316.3
2793.87041	10313.6
2796.42589	10286.4
2798.97979	10285.6
2801.53212	10242
2804.08288	10255.5
2806.63206	10231.6
2809.17967	10221.1
2811.72571	10176.4
2814.27018	10167.3
2816.81308	10165.1
2819.35442	10110.5
2821.89419	10114.9
2824.43239	10107.8
2826.96904	10098.1
2829.50412	10097.1
2832.03763	10106.6
2834.56959	10094.4
2837.1	10092.5
2839.62884	10082.2
2842.15613	10083.7
2844.68186	10134.3
2847.20604	10146.7
2849.72867	10181.4
2852.24974	10180.5
2854.76927	10144.1
2857.28724	10147.3
2859.80367	10107.2
2862.31855	10112.4
2864.83189	10079.2
2867.34368	10070.6
2869.85393	10090.7
2872.36264	10039.6
2874.8698	10063.2
2877.37543	10042.2
2879.87952	10037.4
2882.38207	10013.3
2884.88308	10029.9
2887.38256	10053.6
2889.88051	10042.3
2892.37692	10042.3
2894.8718	10050.4
2897.36515	10050.8
2899.85698	10052.6
2902.34727	10056.8
2904.83604	10085.5
2907.32328	10078.5
2909.809	10071.2
2912.29319	10055.6
2914.77587	10085.5
2917.25702	10069.4
2919.73665	10058
2922.21476	10051.1
2924.69136	10067.4
2927.16644	10103.1
2929.64	10068.4
2932.11205	10104.1
2934.58258	10072
2937.05161	10053.4
2939.51912	10054
2941.98513	10008.1
2944.44962	9977.1
2946.91261	9926.5
2949.37409	9937.9
2951.83407	9914.2
2954.29254	9913
2956.74951	9852.8
2959.20498	9855.8
2961.65895	9840.8
2964.11142	9827.4
2966.56239	9795.2
2969.01186	9804.5
2971.45984	9771.1
2973.90632	9733.7
2976.35131	9704.7
2978.7948	9669.9
2981.23681	9639.6
2983.67732	9629.2
2986.11635	9596.6
2988.55388	9579.8
2990.98993	9550.9
2993.4245	9520.6
2995.85758	9484.4
2998.28917	9493.2
3000.71928	9441.9
3003.14791	9417.6
3005.57506	9414.8
3008.00073	9384.9
3010.42493	9328.1
3012.84764	9332.8
3015.26888	9336.6
3017.68865	9296.1
3020.10694	9253.9
3022.52376	9244.5
3024.9391	9243.2
3027.35298	9219.9
3029.76539	9198.6
3032.17632	9226
3034.5858	9198
3036.9938	9199.1
3039.40034	9189.2
3041.80542	9173.6
3044.20903	9166.7
3046.61118	9141.7
3049.01187	9115.3
3051.4111	9102.4
3053.80888	9077.6
3056.20519	9044.1
3058.60005	9021.1
3060.99345	9004.8
3063.3854	8992.5
3065.7759	8955.7
3068.16494	8924.8
3070.55254	8889.9
3072.93868	8897
3075.32338	8869.4
3077.70662	8843.5
3080.08842	8793.3
3082.46878	8762.8
3084.84769	8780.9
3087.22515	8772.6
3089.60118	8759.8
3091.97576	8742
3094.3489	8757.5
3096.72061	8719.6
3099.09087	8715.9
3101.4597	8720.1
3103.82709	8706
3106.19305	8689.6
3108.55757	8667.6
3110.92066	8632.3
3113.28232	8611.7
3115.64255	8587.3
3118.00134	8554.9
3120.35871	8533.1
3122.71466	8537.7
3125.06917	8522
3127.42226	8508.2
3129.77393	8501.7
3132.12417	8482.5
3134.47299	8495.9
3136.82039	8475.9
3139.16636	8477.8
3141.51092	8468.6
3143.85406	8458.9
3146.19579	8467.9
3148.53609	8480.6
3150.87499	8482
3153.21246	8482.1
3155.54853	8482.4
3157.88318	8447.9
3160.21642	8467.1
3162.54826	8452.4
3164.87868	8448
3167.2077	8450.3
3169.5353	8454.5
3171.86151	8425.3
3174.18631	8434.5
3176.5097	8416.5
3178.83169	8414.7
3181.15228	8406.4
3183.47147	8370.9
3185.78926	8387.2
3188.10565	8386.3
3190.42065	8362.6
3192.73424	8371.3
3195.04645	8372
3197.35725	8340.6
3199.66667	8336.1
3201.97469	8341.3
3204.28132	8315.9
3206.58656	8324.2
3208.8904	8321.7
3211.19287	8305.2
3213.49394	8315.5
3215.79363	8317
3218.09193	8313.8
3220.38884	8314.6
3222.68438	8329.5
3224.97853	8295.4
3227.2713	8300.4
3229.56269	8263.6
3231.8527	8286.4
3234.14133	8256.2
3236.42858	8243.1
3238.71446	8236.7
3240.99896	8207.5
3243.28209	8235.3
3245.56384	8213
3247.84423	8194.1
3250.12324	8189.2
3252.40088	8175.6
3254.67715	8162.7
3256.95205	8160.9
3259.22558	8145.8
3261.49775	8083.3
3263.76855	8088.4
3266.03799	8072.4
3268.30606	8034.3
3270.57277	8022.8
3272.83812	7994.5
3275.10211	8005
3277.36474	7969.7
3279.62601	8004.3
3281.88593	7982.8
3284.14448	7998.2
3286.40168	7994.2
3288.65753	7977
3290.91202	7968.6
3293.16516	7948
3295.41695	7919.3
3297.66738	7854.2
3299.91647	7817.7
3302.16421	7779.9
3304.4106	7742.7
3306.65564	7689.4
3308.89933	7660.3
3311.14169	7608.2
3313.38269	7545.8
3315.62236	7499.7
3317.86068	7430.6
3320.09766	7338.3
3322.3333	7263.3
3324.5676	7279.6
3326.80056	7150.2
3329.03219	7124.4
3331.26248	2.1
3333.49143	0.1
3335.71905	-0.9
