Data from AgNPs_FTO_APTES_UA_2uM_CRN_5uM_R6G_10uM_NaF_0.1M_Addition_RamanShift__23__13-05-15-121.txt Node

Date: Wed Feb 02 13:05:15 GMT 2022
User: TCL
Spectrometer: QEP01345
Trigger mode: 4
Integration Time (sec): 7.000000E0
Scans to average: 10
Electric dark correction enabled: true
Nonlinearity correction enabled: false
Boxcar width: 0
XAxis mode: Raman Shifts
Number of Pixels in Spectrum: 1044
>>>>>Begin Spectral Data<<<<<
46.04893	0.6
50.45542	0
54.85868	-1.7
59.25871	-0.2
63.6555	82.9
68.04907	87.8
72.43941	91.1
76.82654	96.2
81.21044	94.6
85.59113	104.2
89.96862	101.4
94.34289	110.6
98.71396	109.3
103.08183	118.3
107.4465	120.4
111.80798	125.8
116.16626	128.6
120.52136	134.4
124.87327	140.5
129.222	147.9
133.56755	163.2
137.90993	173.9
142.24913	200.3
146.58517	225.8
150.91804	264.2
155.24774	322.2
159.57429	408.8
163.89768	527.8
168.21792	712.5
172.53501	969.5
176.84895	1360.8
181.15975	1913.1
185.46741	2684
189.77193	3685.3
194.07331	4942.3
198.37157	6357.7
202.6667	7826.5
206.9587	9296.2
211.24758	10756.2
215.53334	12232.8
219.81599	13835.5
224.09553	15624.3
228.37195	17657.1
232.64527	19803.5
236.91549	22103.5
241.18261	24259.5
245.44663	26172
249.70755	27952.1
253.96539	29382.7
258.22014	30708.5
262.4718	31898.8
266.72039	32760.1
270.96589	33328.8
275.20832	33567.8
279.44768	33416.5
283.68397	33300.8
287.91719	33232.6
292.14735	33255.1
296.37445	33518.8
300.59849	33809.5
304.81948	34054.3
309.03742	34024.7
313.25231	33565.6
317.46415	32453.7
321.67296	31002
325.87872	29730.6
330.08145	29145.2
334.28114	29016.4
338.47781	29244.3
342.67145	29705.4
346.86207	30395.9
351.04966	31276
355.23424	32298.9
359.4158	33123.1
363.59435	33539.7
367.76989	33791.4
371.94243	33942.6
376.11196	34004.8
380.27849	34071
384.44203	34090.6
388.60257	34179.3
392.76012	34433.1
396.91468	34878.6
401.06626	35581.1
405.21485	36089.9
409.36047	35767.4
413.50311	34839.9
417.64277	34056.9
421.77947	33824.5
425.9132	33874.2
430.04396	34089.8
434.17176	34341.7
438.2966	34633
442.41849	35271.2
446.53742	36210.1
450.6534	37406.4
454.76644	38297.6
458.87653	38643.4
462.98368	38541.9
467.08789	38089.8
471.18916	37468.1
475.2875	36856.2
479.38291	36532.7
483.4754	36271.7
487.56496	35749.9
491.6516	35071.1
495.73531	34555.6
499.81612	34304.5
503.89401	34444.5
507.96899	34603.1
512.04106	34518.1
516.11023	34428.9
520.1765	34120.9
524.23987	33772.1
528.30034	33306
532.35792	32804.5
536.41261	32350.9
540.46441	31872.6
544.51333	31884.2
548.55936	32410.7
552.60252	33340.2
556.64279	34341.6
560.6802	34918.7
564.71473	35212.3
568.7464	36057.8
572.7752	37006
576.80114	37456.5
580.82422	37633.3
584.84444	37846.2
588.86181	38068.9
592.87633	38466.6
596.888	38847.9
600.89682	39402
604.9028	41433.1
608.90594	46865.5
612.90624	52893.2
616.90371	49534.6
620.89834	39041.8
624.89015	34401.7
628.87913	33791.5
632.86528	33919.7
636.84862	33757.1
640.82913	33086.2
644.80683	31872.7
648.78172	30982.2
652.75379	30850.3
656.72306	31401.8
660.68952	32294.7
664.65319	32155.3
668.61405	31328.4
672.57211	30968.5
676.52738	30950.8
680.47986	30946.5
684.42955	30758.8
688.37646	30729
692.32058	30831.5
696.26192	31189.7
700.20048	31602.9
704.13626	31868.9
708.06928	31761.5
711.99952	31467.1
715.927	31317.2
719.85171	31351.3
723.77365	31218.8
727.69284	30811.1
731.60928	30469.8
735.52295	30404
739.43388	30515
743.34206	30702.5
747.24749	30860.7
751.15017	31240
755.05012	31971.2
758.94733	33262.5
762.8418	35674.9
766.73354	39542.6
770.62254	43352.5
774.50882	44333.8
778.39237	41673.5
782.27321	37474.1
786.15132	34026.6
790.02671	31945.5
793.89938	30975.7
797.76935	30579.8
801.6366	30465.2
805.50115	30340.9
809.36299	30146.9
813.22213	29913.4
817.07857	29819.2
820.93231	29844.8
824.78336	29758.2
828.63172	29666.8
832.47738	29665.1
836.32036	29729.7
840.16066	29785.8
843.99827	29809.1
847.8332	29766.7
851.66546	29585.5
855.49504	29518
859.32195	29391.3
863.1462	29199.9
866.96777	29068.6
870.78668	28958
874.60293	28913.7
878.41652	28958.2
882.22745	29132.6
886.03573	29247.8
889.84136	29192.8
893.64433	29049.6
897.44466	28879
901.24235	28791
905.0374	28712
908.8298	28673.6
912.61957	28805.6
916.40671	29090.1
920.19121	29615.1
923.97308	30049
927.75233	30181.8
931.52895	30107.1
935.30295	29681.4
939.07433	28909.9
942.84309	28327.2
946.60924	28107.8
950.37278	27926
954.13371	27719.1
957.89203	27623.2
961.64774	27565.5
965.40086	27538.8
969.15137	27404.3
972.89929	27247.8
976.64461	27183.4
980.38733	27206.2
984.12747	27313.4
987.86502	27607.4
991.59999	28003.4
995.33237	28687.6
999.06217	29798.6
1002.78939	31118.5
1006.51404	32023
1010.23611	32583.1
1013.95561	32935.9
1017.67255	32863.8
1021.38692	32405.9
1025.09872	31996.3
1028.80796	32264.2
1032.51465	33308.4
1036.21877	34309.4
1039.92035	34494.9
1043.61937	33943.4
1047.31584	32922.7
1051.00976	31801.3
1054.70114	31139.1
1058.38998	31011.6
1062.07627	31159.8
1065.76003	31397.6
1069.44126	31705.9
1073.11995	32079.1
1076.79611	32427.4
1080.46974	32650.5
1084.14085	33001.1
1087.80943	33549.6
1091.47549	33920.8
1095.13903	33678.5
1098.80005	33070.9
1102.45857	32224.5
1106.11456	31621.3
1109.76805	31450.4
1113.41903	31638
1117.06751	32082
1120.71348	32628
1124.35696	33199.7
1127.99793	33833.5
1131.63641	34049.4
1135.2724	33608.9
1138.90589	33092.8
1142.5369	32796.7
1146.16542	32707.8
1149.79145	32799.8
1153.415	33123.6
1157.03607	33678.7
1160.65467	34658.6
1164.27079	36197.5
1167.88443	38437.6
1171.49561	41398.9
1175.10432	45609.6
1178.71056	50870
1182.31434	55559
1185.91565	58155.3
1189.51451	58345.9
1193.11091	56338.1
1196.70485	53134.5
1200.29634	50060.3
1203.88538	47550.7
1207.47197	45509.3
1211.05612	43905.7
1214.63782	42928.2
1218.21708	42342.9
1221.79391	42191.2
1225.36829	42071.1
1228.94024	41850.2
1232.50976	41416.7
1236.07685	41022.3
1239.6415	40727.4
1243.20374	40476.4
1246.76355	40519.8
1250.32093	41025.4
1253.8759	42108.9
1257.42845	43632.1
1260.97859	45133.8
1264.52631	46531.5
1268.07163	47944.6
1271.61453	49525.2
1275.15503	51292.6
1278.69312	52991.5
1282.22882	54404.3
1285.76211	55865
1289.29301	57457.5
1292.82151	59381.5
1296.34761	61826.7
1299.87133	65059.9
1303.39266	69355.6
1306.9116	74738.7
1310.42815	80400.3
1313.94233	84377.9
1317.45412	85049.3
1320.96354	83661.5
1324.47058	81533.5
1327.97525	79239
1331.47754	77517.5
1334.97747	76828.7
1338.47502	76860.8
1341.97022	76820.9
1345.46305	76062.3
1348.95352	74668.4
1352.44163	73635
1355.92738	74480
1359.41078	78248.4
1362.89183	82450.4
1366.37053	81137.3
1369.84688	73473.7
1373.32088	64654.3
1376.79254	58678.2
1380.26186	56167
1383.72883	55541
1387.19347	55198.6
1390.65578	54593.1
1394.11575	54578.6
1397.57339	55335.2
1401.0287	56737.9
1404.48168	58271.3
1407.93234	59115.9
1411.38068	58920
1414.82669	57482.1
1418.27039	55111.1
1421.71177	52364.4
1425.15083	50158.8
1428.58758	48723
1432.02203	48475.6
1435.45416	49134.4
1438.88399	50163.2
1442.31151	51256.4
1445.73673	52223
1449.15965	53121.4
1452.58027	53774.2
1455.9986	54089.1
1459.41463	54520.3
1462.82837	55401.5
1466.23982	56556.9
1469.64898	57581.2
1473.05586	58219.4
1476.46045	58231.2
1479.86276	57869.7
1483.26279	57506.5
1486.66054	57310.2
1490.05602	57609.6
1493.44922	58257.6
1496.84016	58995.7
1500.22882	60265
1503.61521	62381.5
1506.99934	65313.6
1510.38121	68405.1
1513.76081	70162.4
1517.13816	68836.5
1520.51324	65268.8
1523.88607	61396.3
1527.25665	58782
1530.62498	57323.9
1533.99105	56301.1
1537.35488	55773.5
1540.71647	55141.2
1544.07581	54372.7
1547.4329	53458.2
1550.78776	52544
1554.14038	52027.6
1557.49077	51961.5
1560.83892	52083.2
1564.18484	52260.6
1567.52853	52229.4
1570.86999	52256.6
1574.20922	52676.3
1577.54624	53073.8
1580.88103	53121.3
1584.2136	53131.3
1587.54395	54427
1590.87208	57210.3
1594.19801	61059.7
1597.52172	64845.9
1600.84321	66032.2
1604.16251	63130.9
1607.47959	57984.1
1610.79447	52493.3
1614.10715	47503.9
1617.41763	43424.2
1620.7259	40553.8
1624.03199	39208.4
1627.33587	39208.2
1630.63757	40578
1633.93707	43427.7
1637.23439	47714.1
1640.52951	53353.3
1643.82246	59478.5
1647.11321	63928.4
1650.40179	64956.5
1653.68819	60974.9
1656.97241	53047.3
1660.25446	44818.4
1663.53433	38540
1666.81203	34430.3
1670.08756	31882.1
1673.36092	30335.1
1676.63211	29254.7
1679.90115	28517.3
1683.16801	27978.8
1686.43272	27585.7
1689.69527	27284.1
1692.95567	27043.2
1696.2139	26861.6
1699.46999	26803.4
1702.72392	26659.6
1705.97571	26557.2
1709.22535	26488
1712.47284	26425.5
1715.71819	26398.4
1718.96139	26330.4
1722.20246	26207.4
1725.44139	26094.2
1728.67818	25945.5
1731.91284	25810.2
1735.14537	25607.2
1738.37576	25555.2
1741.60403	25392.8
1744.83017	25351.3
1748.05418	25282.1
1751.27607	25226.1
1754.49584	25222.6
1757.71349	25171.1
1760.92903	25100
1764.14244	25127.2
1767.35375	25084.6
1770.56294	25024.5
1773.77002	24960.7
1776.97499	24926.2
1780.17785	24867.1
1783.37861	24856.5
1786.57727	24792.7
1789.77382	24729.9
1792.96828	24744.2
1796.16064	24655.2
1799.3509	24621.9
1802.53907	24536.8
1805.72514	24445.5
1808.90913	24464.9
1812.09102	24447.6
1815.27083	24409.4
1818.44856	24380.2
1821.6242	24297.7
1824.79776	24327.5
1827.96924	24332.9
1831.13864	24319.3
1834.30597	24335.4
1837.47122	24337.9
1840.6344	24333
1843.7955	24308.9
1846.95454	24348.2
1850.11151	24362.5
1853.26642	24388
1856.41926	24401.5
1859.57004	24412.5
1862.71876	24497.6
1865.86542	24435.6
1869.01003	24468
1872.15258	24479.8
1875.29308	24544.7
1878.43152	24512.3
1881.56792	24574.1
1884.70227	24562.4
1887.83457	24683.1
1890.96482	24674.6
1894.09304	24630.3
1897.21921	24688.2
1900.34335	24712.9
1903.46544	24735.2
1906.58551	24701.5
1909.70353	24692
1912.81953	24686.2
1915.93349	24605.8
1919.04543	24589.9
1922.15534	24496.6
1925.26322	24389.8
1928.36908	24327.4
1931.47292	24220.8
1934.57473	24096.1
1937.67453	23923.1
1940.77232	23752
1943.86808	23656.6
1946.96184	23552.4
1950.05358	23412
1953.14331	23326.5
1956.23103	23223.4
1959.31675	23160.3
1962.40046	23116.4
1965.48217	23009.5
1968.56188	22903.2
1971.63959	22847.9
1974.7153	22785.5
1977.78901	22713
1980.86073	22607
1983.93046	22547.2
1986.99819	22438.7
1990.06394	22381.6
1993.1277	22311.6
1996.18947	22243.5
1999.24925	22178.9
2002.30706	22145.6
2005.36288	22087.6
2008.41672	21964.5
2011.46859	21932.9
2014.51848	21909.1
2017.56639	21825.9
2020.61233	21774.8
2023.6563	21758.8
2026.6983	21708
2029.73833	21683.6
2032.7764	21618.4
2035.8125	21588.8
2038.84664	21589.2
2041.87881	21569.2
2044.90903	21564.3
2047.93729	21497.1
2050.96359	21463.6
2053.98794	21410.8
2057.01034	21394
2060.03078	21373.8
2063.04927	21309.4
2066.06582	21305.3
2069.08042	21319
2072.09307	21292.8
2075.10378	21282.7
2078.11255	21250.1
2081.11938	21246.3
2084.12426	21243.5
2087.12722	21184.9
2090.12824	21184.5
2093.12732	21176.6
2096.12447	21208.1
2099.11969	21183.4
2102.11299	21203.6
2105.10435	21205.7
2108.09379	21208.9
2111.08131	21202.6
2114.0669	21157.5
2117.05057	21186
2120.03233	21218.3
2123.01216	21247.4
2125.99008	21219.9
2128.96609	21232.1
2131.94018	21260.4
2134.91236	21249.8
2137.88263	21245.1
2140.851	21260
2143.81746	21281.7
2146.78201	21282.6
2149.74466	21270.1
2152.7054	21310.6
2155.66425	21303.6
2158.6212	21324.3
2161.57625	21304.5
2164.52941	21314.1
2167.48067	21263.5
2170.43004	21234.4
2173.37752	21238
2176.32311	21272.7
2179.26681	21248.9
2182.20863	21240.1
2185.14856	21294.8
2188.08661	21263.9
2191.02278	21293.6
2193.95707	21278.3
2196.88948	21255.3
2199.82001	21240.5
2202.74867	21247
2205.67545	21329.5
2208.60037	21263.2
2211.52341	21237.2
2214.44458	21242.3
2217.36388	21212.9
2220.28132	21210.3
2223.1969	21134.9
2226.11061	21149.2
2229.02246	21063.8
2231.93245	21021.9
2234.84058	21029.4
2237.74686	20977.9
2240.65128	20928.9
2243.55385	20843.2
2246.45456	20883.8
2249.35343	20844.1
2252.25044	20827.2
2255.14561	20770.8
2258.03893	20742.4
2260.93041	20686.9
2263.82004	20637.8
2266.70783	20561
2269.59378	20531.9
2272.4779	20454.1
2275.36017	20394.8
2278.24061	20385.5
2281.11922	20353.3
2283.996	20319.5
2286.87094	20304.7
2289.74405	20294.7
2292.61534	20268.4
2295.4848	20247.3
2298.35243	20241.8
2301.21824	20255.4
2304.08223	20226.8
2306.94439	20309.6
2309.80474	20303.8
2312.66327	20295.8
2315.51999	20311.3
2318.37489	20314.6
2321.22797	20310.3
2324.07925	20310.8
2326.92871	20303.4
2329.77637	20345.1
2332.62222	20320.2
2335.46626	20293.3
2338.3085	20286.4
2341.14893	20278.7
2343.98756	20315.2
2346.8244	20300.6
2349.65943	20338.3
2352.49267	20351
2355.32411	20367
2358.15376	20358.6
2360.98161	20355.7
2363.80768	20355.7
2366.63195	20296.9
2369.45444	20265.7
2372.27514	20196.2
2375.09405	20160.4
2377.91118	20058.6
2380.72652	20051
2383.54009	19978.1
2386.35187	19971.7
2389.16188	19897.6
2391.97011	19926.8
2394.77657	19866.1
2397.58125	19825.2
2400.38416	19829.4
2403.18529	19774.4
2405.98466	19726.6
2408.78226	19686
2411.57809	19681.5
2414.37216	19650.4
2417.16446	19612.5
2419.955	19607.2
2422.74378	19561
2425.5308	19560.9
2428.31606	19533.5
2431.09956	19523.2
2433.88131	19511.6
2436.6613	19521.4
2439.43954	19502.2
2442.21603	19534.8
2444.99077	19508.1
2447.76377	19501.3
2450.53501	19480.6
2453.30451	19493.8
2456.07226	19493.7
2458.83827	19509.1
2461.60254	19498.2
2464.36507	19485.6
2467.12586	19488.2
2469.88492	19493.5
2472.64224	19519.2
2475.39782	19528.8
2478.15167	19572.7
2480.90379	19524.3
2483.65417	19563.9
2486.40283	19577.4
2489.14976	19576
2491.89497	19615.6
2494.63845	19646.1
2497.3802	19632.5
2500.12024	19643.5
2502.85855	19661.3
2505.59514	19689.7
2508.33002	19617.2
2511.06318	19609.5
2513.79462	19596.9
2516.52435	19560
2519.25237	19553.4
2521.97867	19512.6
2524.70327	19495.5
2527.42616	19464.1
2530.14734	19483.7
2532.86681	19430.7
2535.58458	19444.7
2538.30065	19458.7
2541.01501	19475.7
2543.72768	19398.6
2546.43864	19420.4
2549.14791	19417.6
2551.85548	19342.2
2554.56136	19395.4
2557.26554	19383.3
2559.96803	19366
2562.66883	19343.9
2565.36794	19269
2568.06536	19292.6
2570.7611	19288.4
2573.45514	19319.9
2576.14751	19308.4
2578.83819	19282.5
2581.52719	19258.3
2584.21451	19249.5
2586.90015	19277.2
2589.58411	19308.6
2592.2664	19292.5
2594.94701	19258.3
2597.62594	19294.2
2600.30321	19240.4
2602.9788	19267.4
2605.65273	19242.1
2608.32498	19223.7
2610.99557	19235.5
2613.66449	19269
2616.33175	19281.8
2618.99734	19328.5
2621.66128	19344.4
2624.32355	19361.7
2626.98416	19344.7
2629.64311	19318.8
2632.30041	19338.2
2634.95605	19338.4
2637.61004	19271.4
2640.26238	19288.6
2642.91306	19261
2645.56209	19247.6
2648.20948	19235.3
2650.85521	19215.2
2653.4993	19206.4
2656.14175	19182.9
2658.78255	19220.3
2661.42171	19196.9
2664.05923	19237
2666.6951	19234.4
2669.32934	19250.5
2671.96194	19268.4
2674.59291	19304.6
2677.22224	19286.8
2679.84993	19261.6
2682.476	19245.1
2685.10043	19260.4
2687.72324	19184.9
2690.34441	19224.4
2692.96396	19264
2695.58188	19233
2698.19818	19199.1
2700.81285	19225
2703.4259	19195.1
2706.03733	19240.9
2708.64714	19187.9
2711.25533	19208.2
2713.86191	19210.9
2716.46687	19266
2719.07021	19237.6
2721.67194	19245.6
2724.27206	19236.1
2726.87057	19263.3
2729.46747	19257.2
2732.06276	19260.4
2734.65644	19217.7
2737.24852	19288.4
2739.83899	19276.1
2742.42786	19284.1
2745.01513	19238.2
2747.60079	19254.5
2750.18486	19234.7
2752.76733	19258.9
2755.3482	19228.1
2757.92747	19244.3
2760.50515	19228.5
2763.08123	19236.9
2765.65573	19185.8
2768.22863	19203.7
2770.79994	19141.9
2773.36967	19167.2
2775.9378	19169.1
2778.50435	19200.3
2781.06932	19186.6
2783.6327	19210.9
2786.1945	19176.3
2788.75471	19147.6
2791.31335	19106.4
2793.87041	19077.5
2796.42589	19048.6
2798.97979	19102.7
2801.53212	19056.2
2804.08288	19051.2
2806.63206	18961.8
2809.17967	18942.5
2811.72571	18931.9
2814.27018	18899.2
2816.81308	18887.3
2819.35442	18855.7
2821.89419	18834.8
2824.43239	18852.7
2826.96904	18806
2829.50412	18821.1
2832.03763	18777.1
2834.56959	18833.6
2837.1	18786.9
2839.62884	18778.5
2842.15613	18752.4
2844.68186	18793.1
2847.20604	18814.4
2849.72867	18829
2852.24974	18822.2
2854.76927	18756.7
2857.28724	18782.2
2859.80367	18756
2862.31855	18714.9
2864.83189	18705.9
2867.34368	18697.4
2869.85393	18714.3
2872.36264	18666.8
2874.8698	18711.7
2877.37543	18712.8
2879.87952	18698.6
2882.38207	18687
2884.88308	18667.5
2887.38256	18701.6
2889.88051	18695.5
2892.37692	18749.8
2894.8718	18763.5
2897.36515	18788.8
2899.85698	18778.6
2902.34727	18769.9
2904.83604	18800.9
2907.32328	18834.7
2909.809	18808.3
2912.29319	18814.7
2914.77587	18796.3
2917.25702	18816.1
2919.73665	18841.4
2922.21476	18847.2
2924.69136	18810.7
2927.16644	18801.8
2929.64	18729.6
2932.11205	18721.7
2934.58258	18675.4
2937.05161	18676.4
2939.51912	18678.7
2941.98513	18648.3
2944.44962	18566
2946.91261	18503.1
2949.37409	18554.4
2951.83407	18486.1
2954.29254	18501.6
2956.74951	18470.7
2959.20498	18462.6
2961.65895	18420.5
2964.11142	18414.9
2966.56239	18343
2969.01186	18318.2
2971.45984	18295.5
2973.90632	18286.5
2976.35131	18209.6
2978.7948	18163.1
2981.23681	18102.2
2983.67732	18067.6
2986.11635	18021.5
2988.55388	17947.3
2990.98993	17918.8
2993.4245	17878.3
2995.85758	17845.2
2998.28917	17788.9
3000.71928	17789.5
3003.14791	17730.4
3005.57506	17746.7
3008.00073	17651.3
3010.42493	17635.9
3012.84764	17572.9
3015.26888	17596.5
3017.68865	17556.4
3020.10694	17531
3022.52376	17475.3
3024.9391	17447.4
3027.35298	17443.5
3029.76539	17433.9
3032.17632	17409.5
3034.5858	17368.1
3036.9938	17347.8
3039.40034	17341.8
3041.80542	17332.2
3044.20903	17292.9
3046.61118	17260.9
3049.01187	17248.3
3051.4111	17224
3053.80888	17199.9
3056.20519	17137.9
3058.60005	17076.4
3060.99345	17011.8
3063.3854	16999.9
3065.7759	16917.8
3068.16494	16872.6
3070.55254	16844
3072.93868	16809.7
3075.32338	16762.8
3077.70662	16725.7
3080.08842	16629.3
3082.46878	16638.1
3084.84769	16598.2
3087.22515	16583
3089.60118	16596.3
3091.97576	16575.8
3094.3489	16550.5
3096.72061	16520.6
3099.09087	16513
3101.4597	16478.2
3103.82709	16451.8
3106.19305	16417.5
3108.55757	16427.3
3110.92066	16323.1
3113.28232	16328.8
3115.64255	16265.5
3118.00134	16251.8
3120.35871	16205.4
3122.71466	16170.5
3125.06917	16132
3127.42226	16085.8
3129.77393	16115.5
3132.12417	16092.8
3134.47299	16059.4
3136.82039	16073.4
3139.16636	16071.2
3141.51092	16052.2
3143.85406	16059.3
3146.19579	16044.4
3148.53609	16034.6
3150.87499	16048.2
3153.21246	16042.5
3155.54853	16044.2
3157.88318	16011.4
3160.21642	16017.2
3162.54826	16011.7
3164.87868	15967.8
3167.2077	15959.4
3169.5353	15935.9
3171.86151	15928
3174.18631	15930.9
3176.5097	15897.4
3178.83169	15867.6
3181.15228	15906.4
3183.47147	15859.8
3185.78926	15846.6
3188.10565	15839
3190.42065	15819.4
3192.73424	15863.6
3195.04645	15854.6
3197.35725	15856.5
3199.66667	15820.5
3201.97469	15870
3204.28132	15833.2
3206.58656	15829.3
3208.8904	15832
3211.19287	15869.3
3213.49394	15888.2
3215.79363	15860.6
3218.09193	15828.5
3220.38884	15827.5
3222.68438	15826.2
3224.97853	15801.9
3227.2713	15775.1
3229.56269	15788.1
3231.8527	15752.1
3234.14133	15736.7
3236.42858	15723.4
3238.71446	15689.4
3240.99896	15657.2
3243.28209	15616.2
3245.56384	15638.7
3247.84423	15587.9
3250.12324	15580.8
3252.40088	15548.4
3254.67715	15550.9
3256.95205	15484
3259.22558	15495.2
3261.49775	15437
3263.76855	15474.8
3266.03799	15414.5
3268.30606	15379.8
3270.57277	15368.3
3272.83812	15339.2
3275.10211	15312.9
3277.36474	15325.7
3279.62601	15320
3281.88593	15320.6
3284.14448	15338.5
3286.40168	15352
3288.65753	15291.6
3290.91202	15263.8
3293.16516	15209.6
3295.41695	15182.7
3297.66738	15111
3299.91647	15065.1
3302.16421	14921.4
3304.4106	14885.9
3306.65564	14785
3308.89933	14674.7
3311.14169	14563.4
3313.38269	14461
3315.62236	14361.3
3317.86068	14245.3
3320.09766	14125.3
3322.3333	14009.8
3324.5676	13981.1
3326.80056	13770.5
3329.03219	13723.3
3331.26248	2.8
3333.49143	-0.3
3335.71905	-1.5
