Data from AgNPs_FTO_APTES_UA_2uM_CRN_0uM_R6G_10uM_NaF_0.1M_Addition_RamanShift__6__10-11-24-919.txt Node

Date: Wed Feb 02 10:11:24 GMT 2022
User: TCL
Spectrometer: QEP01345
Trigger mode: 4
Integration Time (sec): 7.000000E0
Scans to average: 10
Electric dark correction enabled: true
Nonlinearity correction enabled: false
Boxcar width: 0
XAxis mode: Raman Shifts
Number of Pixels in Spectrum: 1044
>>>>>Begin Spectral Data<<<<<
46.04893	0.9
50.45542	1.5
54.85868	-1.9
59.25871	0.1
63.6555	27.3
68.04907	30.6
72.43941	33
76.82654	37.3
81.21044	39.3
85.59113	41.7
89.96862	44.3
94.34289	42.5
98.71396	48.1
103.08183	49.7
107.4465	49.2
111.80798	48.6
116.16626	45
120.52136	51.4
124.87327	49.9
129.222	49.2
133.56755	53.6
137.90993	52.2
142.24913	52.2
146.58517	55.7
150.91804	59.5
155.24774	69.7
159.57429	83.5
163.89768	97.7
168.21792	119.9
172.53501	154.2
176.84895	200.1
181.15975	270.3
185.46741	380.3
189.77193	512.9
194.07331	703.5
198.37157	914.2
202.6667	1147.7
206.9587	1388.9
211.24758	1631
215.53334	1878.8
219.81599	2135.5
224.09553	2424.6
228.37195	2729
232.64527	3075.3
236.91549	3446.2
241.18261	3819.2
245.44663	4201.3
249.70755	4528.4
253.96539	4809
258.22014	5006.9
262.4718	5146.5
266.72039	5206
270.96589	5144.1
275.20832	5003.6
279.44768	4843.3
283.68397	4628.5
287.91719	4424.7
292.14735	4227.3
296.37445	4076
300.59849	3931.5
304.81948	3832.5
309.03742	3749.7
313.25231	3683
317.46415	3627.5
321.67296	3551.1
325.87872	3505.4
330.08145	3480.1
334.28114	3468.5
338.47781	3485.3
342.67145	3486.7
346.86207	3485.1
351.04966	3493.4
355.23424	3511.8
359.4158	3492.2
363.59435	3479
367.76989	3437.5
371.94243	3398.7
376.11196	3346.6
380.27849	3302.1
384.44203	3261.7
388.60257	3235.4
392.76012	3191.6
396.91468	3178
401.06626	3167.1
405.21485	3159.9
409.36047	3135
413.50311	3102.1
417.64277	3064.9
421.77947	3053.6
425.9132	3070
430.04396	3075.2
434.17176	3091.7
438.2966	3103.6
442.41849	3142
446.53742	3162.5
450.6534	3177.9
454.76644	3204.7
458.87653	3210.5
462.98368	3222.9
467.08789	3206.1
471.18916	3179.9
475.2875	3148
479.38291	3111.9
483.4754	3106.9
487.56496	3084.5
491.6516	3070.4
495.73531	3047.3
499.81612	3040.8
503.89401	3019
507.96899	3039.9
512.04106	3033
516.11023	3031.1
520.1765	3043.1
524.23987	3035.2
528.30034	3054.6
532.35792	3062.3
536.41261	3066.9
540.46441	3062.4
544.51333	3075.6
548.55936	3097.9
552.60252	3135.1
556.64279	3187.8
560.6802	3203.3
564.71473	3260.7
568.7464	3275.6
572.7752	3285
576.80114	3277.7
580.82422	3256.2
584.84444	3240.4
588.86181	3230.8
592.87633	3242.6
596.888	3283.3
600.89682	3321.8
604.9028	3441.9
608.90594	3734.8
612.90624	4115.3
616.90371	4240
620.89834	3969.4
624.89015	3772.8
628.87913	3601
632.86528	3436.2
636.84862	3264.3
640.82913	3106.6
644.80683	3011.9
648.78172	2948.9
652.75379	2949.7
656.72306	2970.4
660.68952	2999.7
664.65319	3035.2
668.61405	3043.9
672.57211	3084.8
676.52738	3169.3
680.47986	3243.1
684.42955	3290.4
688.37646	3300.3
692.32058	3299.6
696.26192	3275.2
700.20048	3262
704.13626	3274.7
708.06928	3250.7
711.99952	3222.4
715.927	3189.7
719.85171	3164.3
723.77365	3143.7
727.69284	3115.9
731.60928	3096.2
735.52295	3083.1
739.43388	3071.4
743.34206	3061.5
747.24749	3059.6
751.15017	3071.4
755.05012	3073
758.94733	3105.9
762.8418	3154.7
766.73354	3267.2
770.62254	3422.7
774.50882	3485.5
778.39237	3444
782.27321	3313.4
786.15132	3201.5
790.02671	3139.7
793.89938	3109.4
797.76935	3104.8
801.6366	3108.8
805.50115	3121.1
809.36299	3126.1
813.22213	3121.1
817.07857	3135.4
820.93231	3114
824.78336	3127.1
828.63172	3128.3
832.47738	3114.5
836.32036	3122.6
840.16066	3139
843.99827	3135.1
847.8332	3150.9
851.66546	3135
855.49504	3150
859.32195	3168.5
863.1462	3204.9
866.96777	3216.8
870.78668	3248.1
874.60293	3297.8
878.41652	3307.9
882.22745	3350.4
886.03573	3417.6
889.84136	3494.6
893.64433	3593
897.44466	3670.6
901.24235	3768.9
905.0374	3869.7
908.8298	4006.3
912.61957	4153.2
916.40671	4318.1
920.19121	4450.7
923.97308	4588.4
927.75233	4673.6
931.52895	4670.9
935.30295	4563
939.07433	4418.6
942.84309	4238.1
946.60924	4095.3
950.37278	3968.8
954.13371	3875.4
957.89203	3773.4
961.64774	3687.2
965.40086	3621
969.15137	3550.6
972.89929	3511.5
976.64461	3442.7
980.38733	3395.7
984.12747	3369.2
987.86502	3353.7
991.59999	3338.5
995.33237	3335.6
999.06217	3327.5
1002.78939	3365.1
1006.51404	3378.5
1010.23611	3377.9
1013.95561	3386.3
1017.67255	3383.8
1021.38692	3381.8
1025.09872	3369.5
1028.80796	3372.7
1032.51465	3390.5
1036.21877	3414.8
1039.92035	3470.5
1043.61937	3518
1047.31584	3582.1
1051.00976	3633.4
1054.70114	3670.4
1058.38998	3656.5
1062.07627	3638.7
1065.76003	3567.8
1069.44126	3507.9
1073.11995	3430.9
1076.79611	3380.1
1080.46974	3331.1
1084.14085	3285.8
1087.80943	3272.1
1091.47549	3254.8
1095.13903	3206.7
1098.80005	3162.5
1102.45857	3129.6
1106.11456	3108.8
1109.76805	3078
1113.41903	3083.6
1117.06751	3083.9
1120.71348	3105.3
1124.35696	3152
1127.99793	3210.3
1131.63641	3254.8
1135.2724	3192.1
1138.90589	3124.7
1142.5369	3078.1
1146.16542	3054.2
1149.79145	3020.4
1153.415	3001.9
1157.03607	2994
1160.65467	3015.4
1164.27079	3040.6
1167.88443	3094.9
1171.49561	3188.4
1175.10432	3286.6
1178.71056	3456.2
1182.31434	3627
1185.91565	3731.8
1189.51451	3749
1193.11091	3734.6
1196.70485	3644.6
1200.29634	3515.5
1203.88538	3418.4
1207.47197	3312.4
1211.05612	3248.8
1214.63782	3194.1
1218.21708	3181.5
1221.79391	3188.9
1225.36829	3214.4
1228.94024	3227.5
1232.50976	3245.9
1236.07685	3249.4
1239.6415	3246.8
1243.20374	3231.9
1246.76355	3232.7
1250.32093	3234.8
1253.8759	3264.5
1257.42845	3296.3
1260.97859	3350.2
1264.52631	3383.7
1268.07163	3429.4
1271.61453	3479
1275.15503	3530.4
1278.69312	3566.9
1282.22882	3594.1
1285.76211	3644.7
1289.29301	3707.6
1292.82151	3783.3
1296.34761	3882.3
1299.87133	3967.8
1303.39266	4057
1306.9116	4183.2
1310.42815	4310.4
1313.94233	4383.5
1317.45412	4340.4
1320.96354	4245.4
1324.47058	4137.9
1327.97525	4075.1
1331.47754	4027.4
1334.97747	4025.4
1338.47502	4043.8
1341.97022	4080.8
1345.46305	4139.7
1348.95352	4260.5
1352.44163	4394.3
1355.92738	4578.4
1359.41078	4793.3
1362.89183	5048.3
1366.37053	5102.1
1369.84688	4914.8
1373.32088	4626.5
1376.79254	4432.6
1380.26186	4345.7
1383.72883	4320.4
1387.19347	4335.8
1390.65578	4313.4
1394.11575	4345.1
1397.57339	4322.9
1401.0287	4305.9
1404.48168	4283.9
1407.93234	4214.2
1411.38068	4160.8
1414.82669	4083.6
1418.27039	4038.9
1421.71177	3969.4
1425.15083	3902.4
1428.58758	3839.7
1432.02203	3774.9
1435.45416	3779.4
1438.88399	3758.4
1442.31151	3726.3
1445.73673	3704.8
1449.15965	3672.7
1452.58027	3637.1
1455.9986	3611
1459.41463	3592
1462.82837	3596.2
1466.23982	3607.2
1469.64898	3604.2
1473.05586	3617.9
1476.46045	3632.1
1479.86276	3636.4
1483.26279	3656.2
1486.66054	3677.7
1490.05602	3706
1493.44922	3752
1496.84016	3824.6
1500.22882	3932.1
1503.61521	4075.5
1506.99934	4250.1
1510.38121	4397.9
1513.76081	4447.4
1517.13816	4346.3
1520.51324	4148.3
1523.88607	3942.2
1527.25665	3804.4
1530.62498	3720.2
1533.99105	3681.7
1537.35488	3642.5
1540.71647	3596
1544.07581	3548.2
1547.4329	3532.4
1550.78776	3498.8
1554.14038	3488.7
1557.49077	3462.8
1560.83892	3464.1
1564.18484	3464.8
1567.52853	3454.6
1570.86999	3481.6
1574.20922	3484.7
1577.54624	3467
1580.88103	3426.4
1584.2136	3354.7
1587.54395	3297.6
1590.87208	3273.5
1594.19801	3287.6
1597.52172	3303.9
1600.84321	3325.9
1604.16251	3284.4
1607.47959	3244.3
1610.79447	3178.1
1614.10715	3125.6
1617.41763	3062.1
1620.7259	3037.4
1624.03199	2994.8
1627.33587	2998.6
1630.63757	3007.1
1633.93707	3018
1637.23439	3073.2
1640.52951	3142
1643.82246	3241
1647.11321	3353.6
1650.40179	3439.3
1653.68819	3367.1
1656.97241	3171.9
1660.25446	2947.1
1663.53433	2772.6
1666.81203	2663
1670.08756	2576.3
1673.36092	2527.9
1676.63211	2485.4
1679.90115	2443.8
1683.16801	2410.2
1686.43272	2388.5
1689.69527	2368.7
1692.95567	2345.9
1696.2139	2314.8
1699.46999	2303.5
1702.72392	2279.3
1705.97571	2275.8
1709.22535	2270.2
1712.47284	2265.1
1715.71819	2253.6
1718.96139	2247.6
1722.20246	2239.5
1725.44139	2229.9
1728.67818	2224.8
1731.91284	2218
1735.14537	2211.1
1738.37576	2201.3
1741.60403	2205.3
1744.83017	2185.6
1748.05418	2196.9
1751.27607	2189.5
1754.49584	2178.6
1757.71349	2181.9
1760.92903	2180
1764.14244	2184.9
1767.35375	2174.3
1770.56294	2153.9
1773.77002	2151
1776.97499	2131.1
1780.17785	2125.5
1783.37861	2130.8
1786.57727	2108.7
1789.77382	2120.3
1792.96828	2102.4
1796.16064	2110.2
1799.3509	2094.1
1802.53907	2085.3
1805.72514	2087.9
1808.90913	2084.2
1812.09102	2076.4
1815.27083	2058
1818.44856	2066.8
1821.6242	2061.1
1824.79776	2053.8
1827.96924	2048.2
1831.13864	2046.2
1834.30597	2043.6
1837.47122	2044.2
1840.6344	2051.3
1843.7955	2047.2
1846.95454	2048.4
1850.11151	2043.2
1853.26642	2039.2
1856.41926	2032.9
1859.57004	2028.1
1862.71876	2030.1
1865.86542	2011.2
1869.01003	2018.1
1872.15258	2018.5
1875.29308	2015.9
1878.43152	2006.1
1881.56792	2014
1884.70227	2005.4
1887.83457	2002.6
1890.96482	1997.6
1894.09304	1983.7
1897.21921	1986.8
1900.34335	1988.4
1903.46544	1988.8
1906.58551	1978.9
1909.70353	1979.9
1912.81953	1982.6
1915.93349	1980
1919.04543	1979.6
1922.15534	1964.6
1925.26322	1961.1
1928.36908	1973.7
1931.47292	1952.7
1934.57473	1952.5
1937.67453	1954.6
1940.77232	1954.8
1943.86808	1942.8
1946.96184	1941.9
1950.05358	1928.6
1953.14331	1928.4
1956.23103	1923.9
1959.31675	1910
1962.40046	1909.1
1965.48217	1907.4
1968.56188	1897.5
1971.63959	1889.9
1974.7153	1893.2
1977.78901	1875.5
1980.86073	1872.8
1983.93046	1877.2
1986.99819	1869.8
1990.06394	1870.6
1993.1277	1868.1
1996.18947	1844.7
1999.24925	1848.1
2002.30706	1847.1
2005.36288	1827.5
2008.41672	1831.3
2011.46859	1832.7
2014.51848	1824.2
2017.56639	1831.4
2020.61233	1827.9
2023.6563	1825.8
2026.6983	1847.2
2029.73833	1835
2032.7764	1830.7
2035.8125	1834
2038.84664	1844.6
2041.87881	1874.8
2044.90903	1874.2
2047.93729	1888.1
2050.96359	1917.1
2053.98794	1934.3
2057.01034	1947
2060.03078	1975.5
2063.04927	1990
2066.06582	2008.1
2069.08042	2049.8
2072.09307	2066.1
2075.10378	2077.1
2078.11255	2111.5
2081.11938	2129.1
2084.12426	2135.7
2087.12722	2150.5
2090.12824	2147.2
2093.12732	2156
2096.12447	2153.6
2099.11969	2141.7
2102.11299	2136.1
2105.10435	2135.7
2108.09379	2109.2
2111.08131	2093
2114.0669	2067.6
2117.05057	2035.9
2120.03233	2016.9
2123.01216	1995.1
2125.99008	1961.6
2128.96609	1934.7
2131.94018	1915.6
2134.91236	1902.1
2137.88263	1893.8
2140.851	1869.8
2143.81746	1842.5
2146.78201	1845
2149.74466	1817.6
2152.7054	1815.5
2155.66425	1778.6
2158.6212	1782.8
2161.57625	1794.4
2164.52941	1783.8
2167.48067	1774.1
2170.43004	1773.1
2173.37752	1765.7
2176.32311	1745.5
2179.26681	1752
2182.20863	1749
2185.14856	1744.7
2188.08661	1745.9
2191.02278	1744.6
2193.95707	1741.9
2196.88948	1735.8
2199.82001	1743.7
2202.74867	1723.6
2205.67545	1737.2
2208.60037	1733.7
2211.52341	1727.5
2214.44458	1720.4
2217.36388	1729.5
2220.28132	1715.2
2223.1969	1715.4
2226.11061	1714
2229.02246	1706.3
2231.93245	1701
2234.84058	1699.9
2237.74686	1693.9
2240.65128	1689.2
2243.55385	1686.3
2246.45456	1696.8
2249.35343	1683.4
2252.25044	1678.2
2255.14561	1677.2
2258.03893	1666.4
2260.93041	1679.1
2263.82004	1671.5
2266.70783	1672.9
2269.59378	1660.5
2272.4779	1655.4
2275.36017	1650.6
2278.24061	1644.8
2281.11922	1650.6
2283.996	1640.4
2286.87094	1638.1
2289.74405	1644.7
2292.61534	1624.2
2295.4848	1625.4
2298.35243	1617.7
2301.21824	1631.8
2304.08223	1626.6
2306.94439	1622.2
2309.80474	1611.1
2312.66327	1616
2315.51999	1614.5
2318.37489	1615.5
2321.22797	1604.7
2324.07925	1598.9
2326.92871	1618.4
2329.77637	1599.2
2332.62222	1593.2
2335.46626	1603
2338.3085	1599.9
2341.14893	1593
2343.98756	1592.3
2346.8244	1584
2349.65943	1586
2352.49267	1581
2355.32411	1574.2
2358.15376	1588.4
2360.98161	1581.5
2363.80768	1579.8
2366.63195	1573.7
2369.45444	1581.4
2372.27514	1570
2375.09405	1572.6
2377.91118	1564.9
2380.72652	1563.5
2383.54009	1567.9
2386.35187	1556.8
2389.16188	1557.1
2391.97011	1553.9
2394.77657	1546.2
2397.58125	1541.4
2400.38416	1543.5
2403.18529	1533
2405.98466	1529.2
2408.78226	1533.5
2411.57809	1526.4
2414.37216	1526.8
2417.16446	1521.8
2419.955	1529.8
2422.74378	1517.2
2425.5308	1515.6
2428.31606	1526.9
2431.09956	1513.5
2433.88131	1508.5
2436.6613	1509
2439.43954	1510.2
2442.21603	1506.1
2444.99077	1504
2447.76377	1505
2450.53501	1507.9
2453.30451	1496.4
2456.07226	1493.2
2458.83827	1493.8
2461.60254	1485.8
2464.36507	1495.3
2467.12586	1489.6
2469.88492	1491.9
2472.64224	1491.8
2475.39782	1485.9
2478.15167	1483.6
2480.90379	1490.9
2483.65417	1483.9
2486.40283	1481.8
2489.14976	1475.9
2491.89497	1481.2
2494.63845	1469.2
2497.3802	1462.4
2500.12024	1474.3
2502.85855	1476.3
2505.59514	1470.7
2508.33002	1459.6
2511.06318	1459.6
2513.79462	1462.3
2516.52435	1454.2
2519.25237	1456.7
2521.97867	1457.6
2524.70327	1457.6
2527.42616	1447.6
2530.14734	1444.8
2532.86681	1442.5
2535.58458	1447.1
2538.30065	1436.1
2541.01501	1439.2
2543.72768	1422.6
2546.43864	1430.2
2549.14791	1430.3
2551.85548	1433.3
2554.56136	1428.2
2557.26554	1420.7
2559.96803	1415.3
2562.66883	1416.1
2565.36794	1416.9
2568.06536	1418.8
2570.7611	1412.4
2573.45514	1408.5
2576.14751	1409.7
2578.83819	1402.5
2581.52719	1408.1
2584.21451	1397.8
2586.90015	1399.9
2589.58411	1396.8
2592.2664	1395.7
2594.94701	1398.3
2597.62594	1396
2600.30321	1381.9
2602.9788	1381.7
2605.65273	1375.2
2608.32498	1376.6
2610.99557	1369
2613.66449	1377.6
2616.33175	1378.2
2618.99734	1370.6
2621.66128	1373.6
2624.32355	1371.8
2626.98416	1370.3
2629.64311	1367.1
2632.30041	1363.1
2634.95605	1363.2
2637.61004	1363.6
2640.26238	1356.9
2642.91306	1361.4
2645.56209	1353.8
2648.20948	1359.5
2650.85521	1350.5
2653.4993	1363.7
2656.14175	1362.5
2658.78255	1358.3
2661.42171	1354
2664.05923	1360.4
2666.6951	1360.7
2669.32934	1366.8
2671.96194	1356.5
2674.59291	1354.6
2677.22224	1360
2679.84993	1365.5
2682.476	1363.3
2685.10043	1358
2687.72324	1359.7
2690.34441	1355.9
2692.96396	1358.6
2695.58188	1368.4
2698.19818	1363.6
2700.81285	1363.6
2703.4259	1366.6
2706.03733	1337.8
2708.64714	1357.4
2711.25533	1365.4
2713.86191	1366.4
2716.46687	1359.9
2719.07021	1368.3
2721.67194	1370
2724.27206	1371.1
2726.87057	1371.7
2729.46747	1375
2732.06276	1369
2734.65644	1365
2737.24852	1373.3
2739.83899	1372.2
2742.42786	1371.9
2745.01513	1369.4
2747.60079	1364.9
2750.18486	1374.7
2752.76733	1367.5
2755.3482	1366.3
2757.92747	1368
2760.50515	1366.2
2763.08123	1358.3
2765.65573	1358.7
2768.22863	1358.1
2770.79994	1359.6
2773.36967	1356.4
2775.9378	1354.6
2778.50435	1347.8
2781.06932	1354.5
2783.6327	1357.3
2786.1945	1353.4
2788.75471	1351.1
2791.31335	1336.9
2793.87041	1348.2
2796.42589	1341.7
2798.97979	1331.6
2801.53212	1337.6
2804.08288	1335.3
2806.63206	1344.1
2809.17967	1336.5
2811.72571	1334.4
2814.27018	1338.1
2816.81308	1336.6
2819.35442	1333.9
2821.89419	1334.7
2824.43239	1333.5
2826.96904	1328.5
2829.50412	1333.4
2832.03763	1331.5
2834.56959	1334
2837.1	1335.4
2839.62884	1346.5
2842.15613	1356.6
2844.68186	1372.2
2847.20604	1398.6
2849.72867	1416.6
2852.24974	1417.4
2854.76927	1421.6
2857.28724	1423.6
2859.80367	1433.7
2862.31855	1436.4
2864.83189	1432.7
2867.34368	1440.7
2869.85393	1452.3
2872.36264	1469.2
2874.8698	1459.5
2877.37543	1474.2
2879.87952	1486.3
2882.38207	1497.6
2884.88308	1500.2
2887.38256	1506.9
2889.88051	1518.5
2892.37692	1518.8
2894.8718	1526.8
2897.36515	1541.4
2899.85698	1543.3
2902.34727	1557.8
2904.83604	1562
2907.32328	1576.8
2909.809	1573
2912.29319	1576.5
2914.77587	1577.8
2917.25702	1582.9
2919.73665	1597.5
2922.21476	1592.1
2924.69136	1596.3
2927.16644	1599.8
2929.64	1599.6
2932.11205	1597.8
2934.58258	1603.2
2937.05161	1597.3
2939.51912	1574.3
2941.98513	1559.6
2944.44962	1547.4
2946.91261	1524.5
2949.37409	1509
2951.83407	1493.4
2954.29254	1490
2956.74951	1462.5
2959.20498	1469
2961.65895	1439.7
2964.11142	1428
2966.56239	1410.1
2969.01186	1409.4
2971.45984	1398.8
2973.90632	1386.5
2976.35131	1371.2
2978.7948	1366.6
2981.23681	1353.9
2983.67732	1341.3
2986.11635	1336.7
2988.55388	1323.7
2990.98993	1317.1
2993.4245	1320.1
2995.85758	1303.6
2998.28917	1298.5
3000.71928	1307.7
3003.14791	1297.5
3005.57506	1304.7
3008.00073	1294
3010.42493	1297.8
3012.84764	1292.5
3015.26888	1294.9
3017.68865	1288
3020.10694	1287.4
3022.52376	1289.6
3024.9391	1291.4
3027.35298	1278.5
3029.76539	1287.6
3032.17632	1279
3034.5858	1277.4
3036.9938	1278.9
3039.40034	1280.1
3041.80542	1275.7
3044.20903	1267.4
3046.61118	1273.5
3049.01187	1268.8
3051.4111	1265
3053.80888	1268.6
3056.20519	1259.7
3058.60005	1271.9
3060.99345	1271.7
3063.3854	1275.1
3065.7759	1268.1
3068.16494	1268.2
3070.55254	1274.2
3072.93868	1270.3
3075.32338	1279.7
3077.70662	1283.6
3080.08842	1263.5
3082.46878	1285.7
3084.84769	1281.7
3087.22515	1283.2
3089.60118	1293.2
3091.97576	1285.9
3094.3489	1294.3
3096.72061	1289.2
3099.09087	1306.9
3101.4597	1301.4
3103.82709	1312.8
3106.19305	1308.2
3108.55757	1322.5
3110.92066	1317.4
3113.28232	1320.7
3115.64255	1322.7
3118.00134	1320.3
3120.35871	1326.9
3122.71466	1338.7
3125.06917	1329.1
3127.42226	1342.5
3129.77393	1343.7
3132.12417	1345.5
3134.47299	1354.8
3136.82039	1364.8
3139.16636	1361.4
3141.51092	1377.6
3143.85406	1381.3
3146.19579	1384.5
3148.53609	1389.8
3150.87499	1401.4
3153.21246	1405.9
3155.54853	1416
3157.88318	1422.5
3160.21642	1423.4
3162.54826	1437.7
3164.87868	1439.5
3167.2077	1440.5
3169.5353	1450.8
3171.86151	1451.3
3174.18631	1452.5
3176.5097	1451.2
3178.83169	1463.4
3181.15228	1469.1
3183.47147	1473.4
3185.78926	1479.5
3188.10565	1489.1
3190.42065	1484.6
3192.73424	1493
3195.04645	1502.1
3197.35725	1494.5
3199.66667	1510.5
3201.97469	1511.4
3204.28132	1505.2
3206.58656	1516.7
3208.8904	1523.6
3211.19287	1528.2
3213.49394	1533.5
3215.79363	1539.7
3218.09193	1541.7
3220.38884	1538.3
3222.68438	1532.8
3224.97853	1543.5
3227.2713	1549.3
3229.56269	1548
3231.8527	1547.3
3234.14133	1543.1
3236.42858	1539.6
3238.71446	1548.3
3240.99896	1549
3243.28209	1563.3
3245.56384	1550.4
3247.84423	1558.6
3250.12324	1563.5
3252.40088	1562.4
3254.67715	1563.6
3256.95205	1566.4
3259.22558	1579.2
3261.49775	1561.3
3263.76855	1568.3
3266.03799	1561.2
3268.30606	1564.9
3270.57277	1557.9
3272.83812	1557.9
3275.10211	1540
3277.36474	1559.3
3279.62601	1554.3
3281.88593	1553.5
3284.14448	1547.7
3286.40168	1549.4
3288.65753	1544
3290.91202	1543.1
3293.16516	1537.3
3295.41695	1540.4
3297.66738	1535.8
3299.91647	1514.9
3302.16421	1526.3
3304.4106	1512.5
3306.65564	1507.6
3308.89933	1498.7
3311.14169	1484.5
3313.38269	1483.9
3315.62236	1470.3
3317.86068	1465.8
3320.09766	1452.1
3322.3333	1440.1
3324.5676	1448.1
3326.80056	1415.7
3329.03219	1410.4
3331.26248	-0.6
3333.49143	0.9
3335.71905	-1.2
