Data from AgNPs_FTO_APTES_UA_2uM_CRN_100uM_R6G_10uM_NaF_0.1M_Addition_RamanShift__14__15-54-25-319.txt Node

Date: Wed Feb 02 15:54:25 GMT 2022
User: TCL
Spectrometer: QEP01345
Trigger mode: 4
Integration Time (sec): 7.000000E0
Scans to average: 10
Electric dark correction enabled: true
Nonlinearity correction enabled: false
Boxcar width: 0
XAxis mode: Raman Shifts
Number of Pixels in Spectrum: 1044
>>>>>Begin Spectral Data<<<<<
46.04893	0.0875
50.45542	0.9875
54.85868	-1.1125
59.25871	-0.1125
63.6555	62.5875
68.04907	69.9875
72.43941	69.7875
76.82654	79.7875
81.21044	84.2875
85.59113	87.5875
89.96862	85.6875
94.34289	90.8875
98.71396	95.7875
103.08183	100.5875
107.4465	96.5875
111.80798	105.4875
116.16626	104.3875
120.52136	103.0875
124.87327	108.5875
129.222	113.7875
133.56755	122.5875
137.90993	129.3875
142.24913	140.3875
146.58517	157.9875
150.91804	178.0875
155.24774	208.2875
159.57429	255.2875
163.89768	324.8875
168.21792	421.8875
172.53501	568.3875
176.84895	787.7875
181.15975	1101.2875
185.46741	1548.1875
189.77193	2132.3875
194.07331	2882.2875
198.37157	3709.2875
202.6667	4614.1875
206.9587	5517.5875
211.24758	6362.3875
215.53334	7228.9875
219.81599	8143.5875
224.09553	9137.7875
228.37195	10209.8875
232.64527	11387.8875
236.91549	12630.0875
241.18261	13908.7875
245.44663	15167.2875
249.70755	16254.5875
253.96539	17273.2875
258.22014	18061.2875
262.4718	18670.2875
266.72039	19121.8875
270.96589	19330.8875
275.20832	19415.9875
279.44768	19421.4875
283.68397	19355.3875
287.91719	19307.6875
292.14735	19257.7875
296.37445	19244.4875
300.59849	19278.3875
304.81948	19291.6875
309.03742	19151.0875
313.25231	18892.8875
317.46415	18488.7875
321.67296	17979.0875
325.87872	17531.2875
330.08145	17319.3875
334.28114	17291.3875
338.47781	17387.7875
342.67145	17519.5875
346.86207	17720.9875
351.04966	17899.1875
355.23424	18039.6875
359.4158	18150.9875
363.59435	18244.3875
367.76989	18315.7875
371.94243	18370.4875
376.11196	18452.2875
380.27849	18455.7875
384.44203	18530.2875
388.60257	18638.7875
392.76012	18866.8875
396.91468	19129.0875
401.06626	19422.4875
405.21485	19633.0875
409.36047	19641.8875
413.50311	19464.0875
417.64277	19289.8875
421.77947	19197.8875
425.9132	19247.8875
430.04396	19330.0875
434.17176	19453.0875
438.2966	19542.1875
442.41849	19714.7875
446.53742	19992.9875
450.6534	20328.9875
454.76644	20596.7875
458.87653	20756.5875
462.98368	20827.4875
467.08789	20778.4875
471.18916	20734.6875
475.2875	20612.8875
479.38291	20594.9875
483.4754	20508.4875
487.56496	20353.1875
491.6516	20103.8875
495.73531	19925.3875
499.81612	19753.2875
503.89401	19796.2875
507.96899	19851.2875
512.04106	19849.3875
516.11023	19760.3875
520.1765	19677.8875
524.23987	19477.2875
528.30034	19273.5875
532.35792	19095.3875
536.41261	18951.6875
540.46441	18832.4875
544.51333	18918.0875
548.55936	19184.8875
552.60252	19548.0875
556.64279	19951.1875
560.6802	20217.3875
564.71473	20394.4875
568.7464	20679.7875
572.7752	21250.8875
576.80114	21916.6875
580.82422	22519.1875
584.84444	22871.7875
588.86181	22870.4875
592.87633	22707.9875
596.888	22435.6875
600.89682	22232.2875
604.9028	22396.5875
608.90594	23214.2875
612.90624	24065.7875
616.90371	22873.8875
620.89834	20381.7875
624.89015	19221.3875
628.87913	19127.6875
632.86528	19319.4875
636.84862	19452.2875
640.82913	19252.1875
644.80683	18885.0875
648.78172	18647.2875
652.75379	18526.5875
656.72306	18576.6875
660.68952	18771.5875
664.65319	18825.8875
668.61405	18703.8875
672.57211	18666.0875
676.52738	18697.0875
680.47986	18696.2875
684.42955	18661.7875
688.37646	18579.3875
692.32058	18625.4875
696.26192	18708.3875
700.20048	18876.0875
704.13626	19038.4875
708.06928	19122.8875
711.99952	19128.5875
715.927	19055.0875
719.85171	18929.8875
723.77365	18804.0875
727.69284	18624.1875
731.60928	18452.0875
735.52295	18284.1875
739.43388	18257.9875
743.34206	18250.1875
747.24749	18322.2875
751.15017	18504.1875
755.05012	18761.5875
758.94733	19187.0875
762.8418	20046.9875
766.73354	21214.7875
770.62254	22273.7875
774.50882	22390.0875
778.39237	21493.7875
782.27321	20275.4875
786.15132	19290.3875
790.02671	18623.2875
793.89938	18281.7875
797.76935	18042.3875
801.6366	17983.0875
805.50115	17901.2875
809.36299	17849.6875
813.22213	17789.7875
817.07857	17734.3875
820.93231	17782.9875
824.78336	17756.7875
828.63172	17710.2875
832.47738	17675.3875
836.32036	17654.5875
840.16066	17610.5875
843.99827	17588.9875
847.8332	17570.5875
851.66546	17532.6875
855.49504	17578.2875
859.32195	17541.0875
863.1462	17486.6875
866.96777	17489.8875
870.78668	17458.0875
874.60293	17522.0875
878.41652	17468.3875
882.22745	17533.1875
886.03573	17518.8875
889.84136	17543.0875
893.64433	17509.2875
897.44466	17474.1875
901.24235	17481.5875
905.0374	17424.7875
908.8298	17494.9875
912.61957	17563.1875
916.40671	17750.8875
920.19121	17975.2875
923.97308	18068.8875
927.75233	17994.8875
931.52895	17793.8875
935.30295	17536.9875
939.07433	17277.7875
942.84309	17051.6875
946.60924	16869.7875
950.37278	16722.5875
954.13371	16723.2875
957.89203	16745.6875
961.64774	16716.1875
965.40086	16722.8875
969.15137	16656.4875
972.89929	16578.0875
976.64461	16498.2875
980.38733	16475.6875
984.12747	16471.7875
987.86502	16502.7875
991.59999	16537.6875
995.33237	16589.3875
999.06217	16699.2875
1002.78939	16825.7875
1006.51404	16951.6875
1010.23611	17111.2875
1013.95561	17231.7875
1017.67255	17264.0875
1021.38692	17223.2875
1025.09872	17138.4875
1028.80796	17003.5875
1032.51465	16952.0875
1036.21877	17002.0875
1039.92035	17114.3875
1043.61937	17193.2875
1047.31584	17289.4875
1051.00976	17386.9875
1054.70114	17457.7875
1058.38998	17656.9875
1062.07627	17893.8875
1065.76003	18140.7875
1069.44126	18384.9875
1073.11995	18596.8875
1076.79611	18754.7875
1080.46974	18775.7875
1084.14085	18752.3875
1087.80943	18811.8875
1091.47549	18919.9875
1095.13903	19094.9875
1098.80005	18984.6875
1102.45857	18647.1875
1106.11456	18223.1875
1109.76805	17929.3875
1113.41903	17808.6875
1117.06751	17847.4875
1120.71348	17983.9875
1124.35696	18150.9875
1127.99793	18367.9875
1131.63641	18543.4875
1135.2724	18454.6875
1138.90589	18389.9875
1142.5369	18373.2875
1146.16542	18466.2875
1149.79145	18645.6875
1153.415	18809.3875
1157.03607	19093.6875
1160.65467	19426.8875
1164.27079	19975.9875
1167.88443	20636.1875
1171.49561	21431.5875
1175.10432	22469.9875
1178.71056	23720.7875
1182.31434	24915.2875
1185.91565	25749.6875
1189.51451	26126.3875
1193.11091	26055.0875
1196.70485	25529.2875
1200.29634	24716.9875
1203.88538	23876.5875
1207.47197	23305.9875
1211.05612	22961.4875
1214.63782	22567.5875
1218.21708	22092.0875
1221.79391	21492.3875
1225.36829	20999.0875
1228.94024	20681.4875
1232.50976	20578.5875
1236.07685	20496.7875
1239.6415	20483.9875
1243.20374	20557.9875
1246.76355	20669.1875
1250.32093	20863.3875
1253.8759	21153.7875
1257.42845	21647.1875
1260.97859	22105.7875
1264.52631	22583.3875
1268.07163	23001.1875
1271.61453	23409.2875
1275.15503	23844.4875
1278.69312	24334.3875
1282.22882	24803.3875
1285.76211	25339.7875
1289.29301	25974.7875
1292.82151	26780.1875
1296.34761	27739.6875
1299.87133	28751.5875
1303.39266	29764.4875
1306.9116	30632.6875
1310.42815	31374.2875
1313.94233	31750.5875
1317.45412	31751.2875
1320.96354	31759.4875
1324.47058	31890.6875
1327.97525	32087.4875
1331.47754	32365.0875
1334.97747	32637.3875
1338.47502	33003.4875
1341.97022	33454.8875
1345.46305	33830.0875
1348.95352	33891.4875
1352.44163	33494.8875
1355.92738	32893.5875
1359.41078	32646.9875
1362.89183	32508.1875
1366.37053	31773.9875
1369.84688	30016.2875
1373.32088	27962.0875
1376.79254	26454.3875
1380.26186	25675.9875
1383.72883	25466.1875
1387.19347	25446.8875
1390.65578	25318.2875
1394.11575	25127.6875
1397.57339	24982.3875
1401.0287	24988.1875
1404.48168	24911.7875
1407.93234	24707.4875
1411.38068	24197.2875
1414.82669	23554.4875
1418.27039	22768.6875
1421.71177	21987.3875
1425.15083	21339.7875
1428.58758	20995.3875
1432.02203	20927.0875
1435.45416	21139.1875
1438.88399	21466.9875
1442.31151	21768.8875
1445.73673	22069.8875
1449.15965	22439.3875
1452.58027	22783.4875
1455.9986	23103.7875
1459.41463	23405.3875
1462.82837	23792.5875
1466.23982	24157.2875
1469.64898	24488.5875
1473.05586	24735.4875
1476.46045	24842.4875
1479.86276	24886.0875
1483.26279	24813.5875
1486.66054	24896.3875
1490.05602	25098.3875
1493.44922	25520.0875
1496.84016	26188.4875
1500.22882	27120.4875
1503.61521	28248.2875
1506.99934	29407.6875
1510.38121	30159.2875
1513.76081	30316.1875
1517.13816	29802.9875
1520.51324	29039.6875
1523.88607	28433.9875
1527.25665	28027.7875
1530.62498	27646.9875
1533.99105	27273.7875
1537.35488	26787.1875
1540.71647	26124.1875
1544.07581	25385.2875
1547.4329	24712.3875
1550.78776	24184.5875
1554.14038	23839.6875
1557.49077	23724.9875
1560.83892	23768.0875
1564.18484	23888.5875
1567.52853	24013.2875
1570.86999	24131.1875
1574.20922	24353.6875
1577.54624	24536.7875
1580.88103	24468.4875
1584.2136	24329.7875
1587.54395	24342.6875
1590.87208	24661.5875
1594.19801	25267.7875
1597.52172	26011.5875
1600.84321	26163.7875
1604.16251	25462.1875
1607.47959	24336.1875
1610.79447	23141.3875
1614.10715	21875.6875
1617.41763	20695.5875
1620.7259	19760.1875
1624.03199	19145.9875
1627.33587	18905.8875
1630.63757	19067.1875
1633.93707	19683.5875
1637.23439	20825.3875
1640.52951	22533.0875
1643.82246	24727.0875
1647.11321	26852.5875
1650.40179	28108.1875
1653.68819	27826.3875
1656.97241	25814.8875
1660.25446	23210.4875
1663.53433	20711.5875
1666.81203	18822.7875
1670.08756	17469.4875
1673.36092	16536.9875
1676.63211	15982.3875
1679.90115	15610.8875
1683.16801	15303.0875
1686.43272	15116.5875
1689.69527	14977.2875
1692.95567	14825.0875
1696.2139	14764.8875
1699.46999	14711.3875
1702.72392	14617.3875
1705.97571	14561.8875
1709.22535	14509.4875
1712.47284	14451.4875
1715.71819	14387.3875
1718.96139	14341.4875
1722.20246	14290.9875
1725.44139	14234.2875
1728.67818	14169.8875
1731.91284	14111.8875
1735.14537	14033.3875
1738.37576	13978.5875
1741.60403	13929.8875
1744.83017	13898.9875
1748.05418	13851.9875
1751.27607	13821.3875
1754.49584	13837.0875
1757.71349	13840.9875
1760.92903	13811.1875
1764.14244	13794.8875
1767.35375	13771.0875
1770.56294	13693.0875
1773.77002	13648.5875
1776.97499	13612.0875
1780.17785	13571.9875
1783.37861	13536.3875
1786.57727	13508.9875
1789.77382	13459.5875
1792.96828	13410.9875
1796.16064	13379.9875
1799.3509	13345.2875
1802.53907	13310.1875
1805.72514	13279.4875
1808.90913	13211.8875
1812.09102	13190.1875
1815.27083	13180.7875
1818.44856	13179.4875
1821.6242	13127.9875
1824.79776	13131.6875
1827.96924	13126.4875
1831.13864	13086.0875
1834.30597	13059.2875
1837.47122	13086.7875
1840.6344	13051.2875
1843.7955	13066.8875
1846.95454	13027.7875
1850.11151	13037.8875
1853.26642	13033.8875
1856.41926	13002.5875
1859.57004	12992.9875
1862.71876	12991.5875
1865.86542	12944.1875
1869.01003	12928.0875
1872.15258	12904.3875
1875.29308	12878.8875
1878.43152	12845.3875
1881.56792	12810.5875
1884.70227	12768.0875
1887.83457	12749.7875
1890.96482	12750.0875
1894.09304	12696.4875
1897.21921	12701.6875
1900.34335	12682.9875
1903.46544	12620.4875
1906.58551	12640.8875
1909.70353	12613.2875
1912.81953	12572.6875
1915.93349	12538.5875
1919.04543	12524.4875
1922.15534	12487.1875
1925.26322	12473.3875
1928.36908	12444.9875
1931.47292	12412.8875
1934.57473	12379.8875
1937.67453	12339.3875
1940.77232	12288.0875
1943.86808	12284.5875
1946.96184	12246.4875
1950.05358	12200.6875
1953.14331	12144.9875
1956.23103	12122.3875
1959.31675	12064.1875
1962.40046	12050.4875
1965.48217	12019.4875
1968.56188	11956.4875
1971.63959	11904.5875
1974.7153	11884.0875
1977.78901	11841.0875
1980.86073	11807.6875
1983.93046	11735.5875
1986.99819	11689.2875
1990.06394	11668.6875
1993.1277	11645.0875
1996.18947	11590.0875
1999.24925	11567.8875
2002.30706	11516.4875
2005.36288	11470.5875
2008.41672	11471.7875
2011.46859	11390.7875
2014.51848	11347.9875
2017.56639	11317.9875
2020.61233	11297.1875
2023.6563	11281.7875
2026.6983	11233.7875
2029.73833	11198.0875
2032.7764	11179.8875
2035.8125	11159.2875
2038.84664	11093.5875
2041.87881	11120.6875
2044.90903	11098.4875
2047.93729	11047.1875
2050.96359	11038.8875
2053.98794	11030.3875
2057.01034	10999.2875
2060.03078	11001.6875
2063.04927	10967.4875
2066.06582	10960.1875
2069.08042	10935.1875
2072.09307	10961.3875
2075.10378	10916.5875
2078.11255	10898.3875
2081.11938	10879.1875
2084.12426	10859.5875
2087.12722	10874.4875
2090.12824	10895.8875
2093.12732	10894.3875
2096.12447	10875.0875
2099.11969	10893.1875
2102.11299	10878.8875
2105.10435	10894.1875
2108.09379	10878.1875
2111.08131	10862.8875
2114.0669	10888.0875
2117.05057	10893.3875
2120.03233	10885.1875
2123.01216	10899.8875
2125.99008	10894.7875
2128.96609	10885.1875
2131.94018	10897.4875
2134.91236	10879.7875
2137.88263	10851.2875
2140.851	10885.1875
2143.81746	10913.4875
2146.78201	10904.9875
2149.74466	10883.7875
2152.7054	10890.4875
2155.66425	10908.1875
2158.6212	10878.9875
2161.57625	10853.9875
2164.52941	10866.6875
2167.48067	10852.1875
2170.43004	10840.1875
2173.37752	10818.4875
2176.32311	10784.9875
2179.26681	10786.5875
2182.20863	10797.6875
2185.14856	10802.7875
2188.08661	10795.7875
2191.02278	10787.5875
2193.95707	10771.6875
2196.88948	10747.7875
2199.82001	10750.0875
2202.74867	10717.2875
2205.67545	10706.1875
2208.60037	10656.8875
2211.52341	10664.6875
2214.44458	10636.3875
2217.36388	10613.8875
2220.28132	10611.0875
2223.1969	10580.9875
2226.11061	10554.4875
2229.02246	10513.4875
2231.93245	10515.6875
2234.84058	10487.2875
2237.74686	10438.1875
2240.65128	10444.8875
2243.55385	10436.9875
2246.45456	10431.9875
2249.35343	10397.6875
2252.25044	10385.9875
2255.14561	10383.3875
2258.03893	10377.1875
2260.93041	10332.1875
2263.82004	10280.4875
2266.70783	10289.2875
2269.59378	10244.7875
2272.4779	10192.3875
2275.36017	10144.7875
2278.24061	10117.9875
2281.11922	10124.0875
2283.996	10096.9875
2286.87094	10067.3875
2289.74405	10033.6875
2292.61534	10035.4875
2295.4848	10016.3875
2298.35243	10016.5875
2301.21824	10004.3875
2304.08223	9994.0875
2306.94439	9977.4875
2309.80474	9958.3875
2312.66327	9940.2875
2315.51999	9944.7875
2318.37489	9929.2875
2321.22797	9915.3875
2324.07925	9884.0875
2326.92871	9870.3875
2329.77637	9847.8875
2332.62222	9852.4875
2335.46626	9830.5875
2338.3085	9813.3875
2341.14893	9807.1875
2343.98756	9777.5875
2346.8244	9766.8875
2349.65943	9782.0875
2352.49267	9752.1875
2355.32411	9754.6875
2358.15376	9729.7875
2360.98161	9741.4875
2363.80768	9737.3875
2366.63195	9713.9875
2369.45444	9700.8875
2372.27514	9691.4875
2375.09405	9704.0875
2377.91118	9663.6875
2380.72652	9657.4875
2383.54009	9635.7875
2386.35187	9610.1875
2389.16188	9574.7875
2391.97011	9542.9875
2394.77657	9531.5875
2397.58125	9516.3875
2400.38416	9479.5875
2403.18529	9445.7875
2405.98466	9450.8875
2408.78226	9441.9875
2411.57809	9428.4875
2414.37216	9426.2875
2417.16446	9428.3875
2419.955	9393.9875
2422.74378	9371.6875
2425.5308	9363.0875
2428.31606	9379.3875
2431.09956	9324.2875
2433.88131	9326.1875
2436.6613	9329.1875
2439.43954	9322.1875
2442.21603	9314.9875
2444.99077	9294.1875
2447.76377	9282.0875
2450.53501	9288.0875
2453.30451	9282.5875
2456.07226	9265.4875
2458.83827	9248.8875
2461.60254	9251.5875
2464.36507	9236.6875
2467.12586	9206.0875
2469.88492	9212.3875
2472.64224	9204.7875
2475.39782	9210.6875
2478.15167	9198.2875
2480.90379	9174.9875
2483.65417	9180.1875
2486.40283	9158.5875
2489.14976	9151.7875
2491.89497	9127.8875
2494.63845	9143.4875
2497.3802	9132.9875
2500.12024	9103.3875
2502.85855	9111.0875
2505.59514	9101.6875
2508.33002	9115.3875
2511.06318	9077.8875
2513.79462	9061.9875
2516.52435	9061.1875
2519.25237	9059.7875
2521.97867	9041.8875
2524.70327	9035.3875
2527.42616	8996.2875
2530.14734	8989.7875
2532.86681	8969.1875
2535.58458	8983.4875
2538.30065	8971.3875
2541.01501	8940.1875
2543.72768	8922.9875
2546.43864	8912.1875
2549.14791	8875.1875
2551.85548	8871.3875
2554.56136	8858.7875
2557.26554	8842.1875
2559.96803	8820.0875
2562.66883	8824.4875
2565.36794	8812.8875
2568.06536	8806.5875
2570.7611	8784.3875
2573.45514	8750.6875
2576.14751	8764.9875
2578.83819	8694.8875
2581.52719	8699.5875
2584.21451	8690.4875
2586.90015	8690.3875
2589.58411	8666.4875
2592.2664	8639.1875
2594.94701	8625.0875
2597.62594	8625.8875
2600.30321	8586.1875
2602.9788	8603.8875
2605.65273	8545.3875
2608.32498	8559.6875
2610.99557	8562.8875
2613.66449	8552.2875
2616.33175	8552.1875
2618.99734	8540.1875
2621.66128	8523.0875
2624.32355	8492.1875
2626.98416	8500.8875
2629.64311	8494.2875
2632.30041	8475.6875
2634.95605	8487.9875
2637.61004	8461.4875
2640.26238	8420.8875
2642.91306	8447.6875
2645.56209	8437.7875
2648.20948	8424.9875
2650.85521	8425.5875
2653.4993	8416.2875
2656.14175	8413.4875
2658.78255	8423.9875
2661.42171	8398.8875
2664.05923	8423.4875
2666.6951	8426.7875
2669.32934	8418.6875
2671.96194	8386.8875
2674.59291	8396.9875
2677.22224	8375.9875
2679.84993	8408.0875
2682.476	8382.6875
2685.10043	8387.0875
2687.72324	8367.1875
2690.34441	8366.2875
2692.96396	8374.2875
2695.58188	8372.5875
2698.19818	8363.2875
2700.81285	8361.7875
2703.4259	8369.1875
2706.03733	8395.9875
2708.64714	8408.1875
2711.25533	8369.6875
2713.86191	8351.6875
2716.46687	8361.2875
2719.07021	8357.2875
2721.67194	8354.9875
2724.27206	8352.3875
2726.87057	8383.4875
2729.46747	8366.4875
2732.06276	8358.2875
2734.65644	8329.1875
2737.24852	8360.6875
2739.83899	8330.9875
2742.42786	8322.4875
2745.01513	8305.4875
2747.60079	8282.6875
2750.18486	8262.2875
2752.76733	8275.5875
2755.3482	8250.2875
2757.92747	8266.7875
2760.50515	8268.5875
2763.08123	8265.7875
2765.65573	8238.8875
2768.22863	8245.4875
2770.79994	8203.8875
2773.36967	8193.3875
2775.9378	8192.6875
2778.50435	8201.0875
2781.06932	8173.5875
2783.6327	8167.9875
2786.1945	8165.0875
2788.75471	8139.8875
2791.31335	8117.4875
2793.87041	8118.6875
2796.42589	8087.8875
2798.97979	8102.5875
2801.53212	8084.8875
2804.08288	8058.8875
2806.63206	8039.8875
2809.17967	8023.9875
2811.72571	7996.5875
2814.27018	8013.3875
2816.81308	7969.3875
2819.35442	7968.2875
2821.89419	7954.0875
2824.43239	7939.7875
2826.96904	7929.5875
2829.50412	7927.1875
2832.03763	7913.7875
2834.56959	7922.7875
2837.1	7907.6875
2839.62884	7917.2875
2842.15613	7903.1875
2844.68186	7940.4875
2847.20604	7950.7875
2849.72867	7949.5875
2852.24974	7965.7875
2854.76927	7951.8875
2857.28724	7930.0875
2859.80367	7922.2875
2862.31855	7911.3875
2864.83189	7875.7875
2867.34368	7890.0875
2869.85393	7886.9875
2872.36264	7888.1875
2874.8698	7865.9875
2877.37543	7853.9875
2879.87952	7840.7875
2882.38207	7851.5875
2884.88308	7834.1875
2887.38256	7832.8875
2889.88051	7824.4875
2892.37692	7806.9875
2894.8718	7828.4875
2897.36515	7841.1875
2899.85698	7823.7875
2902.34727	7831.6875
2904.83604	7836.6875
2907.32328	7837.9875
2909.809	7845.6875
2912.29319	7821.5875
2914.77587	7839.6875
2917.25702	7813.5875
2919.73665	7820.3875
2922.21476	7788.7875
2924.69136	7802.9875
2927.16644	7822.1875
2929.64	7812.8875
2932.11205	7811.4875
2934.58258	7783.7875
2937.05161	7812.9875
2939.51912	7809.4875
2941.98513	7749.8875
2944.44962	7724.4875
2946.91261	7690.6875
2949.37409	7685.0875
2951.83407	7667.2875
2954.29254	7671.1875
2956.74951	7661.8875
2959.20498	7648.1875
2961.65895	7640.8875
2964.11142	7610.6875
2966.56239	7607.6875
2969.01186	7604.4875
2971.45984	7579.8875
2973.90632	7554.6875
2976.35131	7522.6875
2978.7948	7497.0875
2981.23681	7484.4875
2983.67732	7463.1875
2986.11635	7442.9875
2988.55388	7442.4875
2990.98993	7436.8875
2993.4245	7429.9875
2995.85758	7406.1875
2998.28917	7391.6875
3000.71928	7373.0875
3003.14791	7353.6875
3005.57506	7323.6875
3008.00073	7295.0875
3010.42493	7306.8875
3012.84764	7306.7875
3015.26888	7277.3875
3017.68865	7286.9875
3020.10694	7268.4875
3022.52376	7247.6875
3024.9391	7217.8875
3027.35298	7220.5875
3029.76539	7197.0875
3032.17632	7187.3875
3034.5858	7180.4875
3036.9938	7172.3875
3039.40034	7152.5875
3041.80542	7157.3875
3044.20903	7135.6875
3046.61118	7118.8875
3049.01187	7092.6875
3051.4111	7095.3875
3053.80888	7056.2875
3056.20519	7047.6875
3058.60005	7042.3875
3060.99345	7028.3875
3063.3854	7017.3875
3065.7759	6996.5875
3068.16494	6996.8875
3070.55254	6974.6875
3072.93868	6960.5875
3075.32338	6963.1875
3077.70662	6926.8875
3080.08842	6909.9875
3082.46878	6918.6875
3084.84769	6897.6875
3087.22515	6879.9875
3089.60118	6897.3875
3091.97576	6894.6875
3094.3489	6880.4875
3096.72061	6881.4875
3099.09087	6884.3875
3101.4597	6872.2875
3103.82709	6852.3875
3106.19305	6851.4875
3108.55757	6855.1875
3110.92066	6816.7875
3113.28232	6799.2875
3115.64255	6782.9875
3118.00134	6756.3875
3120.35871	6735.2875
3122.71466	6740.7875
3125.06917	6724.8875
3127.42226	6721.3875
3129.77393	6717.0875
3132.12417	6732.6875
3134.47299	6728.8875
3136.82039	6717.3875
3139.16636	6721.8875
3141.51092	6713.4875
3143.85406	6713.5875
3146.19579	6749.1875
3148.53609	6732.2875
3150.87499	6752.2875
3153.21246	6730.9875
3155.54853	6744.9875
3157.88318	6730.9875
3160.21642	6718.1875
3162.54826	6731.2875
3164.87868	6726.7875
3167.2077	6735.8875
3169.5353	6747.7875
3171.86151	6704.6875
3174.18631	6709.4875
3176.5097	6713.4875
3178.83169	6692.1875
3181.15228	6694.7875
3183.47147	6674.7875
3185.78926	6682.0875
3188.10565	6676.5875
3190.42065	6659.7875
3192.73424	6654.7875
3195.04645	6659.4875
3197.35725	6655.6875
3199.66667	6647.3875
3201.97469	6636.3875
3204.28132	6641.4875
3206.58656	6650.7875
3208.8904	6651.9875
3211.19287	6660.7875
3213.49394	6653.7875
3215.79363	6660.3875
3218.09193	6647.9875
3220.38884	6657.1875
3222.68438	6650.2875
3224.97853	6633.0875
3227.2713	6619.2875
3229.56269	6593.7875
3231.8527	6595.3875
3234.14133	6587.3875
3236.42858	6582.8875
3238.71446	6593.3875
3240.99896	6561.6875
3243.28209	6568.7875
3245.56384	6543.5875
3247.84423	6554.0875
3250.12324	6551.3875
3252.40088	6538.1875
3254.67715	6505.5875
3256.95205	6503.9875
3259.22558	6516.2875
3261.49775	6497.7875
3263.76855	6455.9875
3266.03799	6461.0875
3268.30606	6454.7875
3270.57277	6431.0875
3272.83812	6419.3875
3275.10211	6402.2875
3277.36474	6391.9875
3279.62601	6396.8875
3281.88593	6385.0875
3284.14448	6396.7875
3286.40168	6402.5875
3288.65753	6387.5875
3290.91202	6366.4875
3293.16516	6351.9875
3295.41695	6328.6875
3297.66738	6293.5875
3299.91647	6253.9875
3302.16421	6232.4875
3304.4106	6189.3875
3306.65564	6169.2875
3308.89933	6134.4875
3311.14169	6104.6875
3313.38269	6063.0875
3315.62236	6039.9875
3317.86068	5969.2875
3320.09766	5910.3875
3322.3333	5851.2875
3324.5676	5853.3875
3326.80056	5750.5875
3329.03219	5724.5875
3331.26248	0.9875
3333.49143	0.6875
3335.71905	-0.7125
