Data from AgNPs_FTO_APTES_UA_2uM_CRN_1uM_R6G_10uM_NaF_0.1M_Addition_RamanShift__27__11-50-35-034.txt Node

Date: Wed Feb 02 11:50:35 GMT 2022
User: TCL
Spectrometer: QEP01345
Trigger mode: 4
Integration Time (sec): 7.000000E0
Scans to average: 10
Electric dark correction enabled: true
Nonlinearity correction enabled: false
Boxcar width: 0
XAxis mode: Raman Shifts
Number of Pixels in Spectrum: 1044
>>>>>Begin Spectral Data<<<<<
46.04893	0.2
50.45542	0
54.85868	-2.1
59.25871	-0.2
63.6555	71.9
68.04907	77
72.43941	78.7
76.82654	86.6
81.21044	89.5
85.59113	93.2
89.96862	96.3
94.34289	97.9
98.71396	100.9
103.08183	109.8
107.4465	111
111.80798	112.5
116.16626	116.1
120.52136	119.6
124.87327	123.5
129.222	129.1
133.56755	139.2
137.90993	149.1
142.24913	164.7
146.58517	184.7
150.91804	208.6
155.24774	250.9
159.57429	313.5
163.89768	404.8
168.21792	539.5
172.53501	734
176.84895	1006.8
181.15975	1410
185.46741	1968.8
189.77193	2712.5
194.07331	3606.8
198.37157	4654.2
202.6667	5716.3
206.9587	6821.4
211.24758	7879.1
215.53334	9011.4
219.81599	10267.3
224.09553	11685
228.37195	13271.8
232.64527	14918.7
236.91549	16573.7
241.18261	18133.1
245.44663	19337.8
249.70755	20402.2
253.96539	21268.7
258.22014	22107.2
262.4718	22841.6
266.72039	23347.9
270.96589	23684.7
275.20832	23754.4
279.44768	23605.4
283.68397	23419.5
287.91719	23315
292.14735	23395.6
296.37445	23776
300.59849	24392.5
304.81948	25177.4
309.03742	25723.9
313.25231	25628.4
317.46415	24471.2
321.67296	22678.7
325.87872	21104.4
330.08145	20340.5
334.28114	20203.7
338.47781	20490.8
342.67145	20973.8
346.86207	21781.4
351.04966	22975.7
355.23424	24428.5
359.4158	25446.2
363.59435	25959.8
367.76989	26004.7
371.94243	25875.2
376.11196	25648.7
380.27849	25460.1
384.44203	25236.5
388.60257	24950.7
392.76012	24834.7
396.91468	25203.3
401.06626	25850.9
405.21485	26375.6
409.36047	25997.4
413.50311	24831.7
417.64277	23670.4
421.77947	23138.3
425.9132	22949.4
430.04396	22955.3
434.17176	23066.7
438.2966	23353.1
442.41849	23935.2
446.53742	24733.3
450.6534	25602.1
454.76644	26146.3
458.87653	26253.3
462.98368	26034.2
467.08789	25649.6
471.18916	25138.4
475.2875	24606.9
479.38291	24177.2
483.4754	23879.2
487.56496	23506.9
491.6516	23129.1
495.73531	22872.3
499.81612	22781.3
503.89401	22989.8
507.96899	23203
512.04106	23320.6
516.11023	23476.2
520.1765	23462.7
524.23987	23302.8
528.30034	22918.6
532.35792	22402
536.41261	21808.7
540.46441	21293.5
544.51333	21104.9
548.55936	21323.2
552.60252	22002.4
556.64279	22791.6
560.6802	23257.4
564.71473	23866.4
568.7464	25082.4
572.7752	26053
576.80114	25693.1
580.82422	25015.4
584.84444	24763.8
588.86181	24643.3
592.87633	24788.4
596.888	25068
600.89682	25728.1
604.9028	28124.9
608.90594	34727.1
612.90624	43086.7
616.90371	41150.1
620.89834	29201.2
624.89015	23423.3
628.87913	22420.2
632.86528	22519.5
636.84862	22737.1
640.82913	22248.2
644.80683	21147.7
648.78172	20403.3
652.75379	20412
656.72306	21229.4
660.68952	22323.1
664.65319	22243.1
668.61405	21217.3
672.57211	20665.5
676.52738	20629.4
680.47986	20582.2
684.42955	20383
688.37646	20257.2
692.32058	20360.5
696.26192	20581.5
700.20048	21008.8
704.13626	21295.9
708.06928	21314.8
711.99952	21120.4
715.927	20966.8
719.85171	20945.1
723.77365	20826.9
727.69284	20512.7
731.60928	20262.6
735.52295	20195.3
739.43388	20236.8
743.34206	20376.3
747.24749	20564
751.15017	20887.7
755.05012	21432.7
758.94733	22454.4
762.8418	24839
766.73354	28951
770.62254	33246.4
774.50882	34950
778.39237	33071.5
782.27321	28790.5
786.15132	24674.7
790.02671	22194
793.89938	21074.9
797.76935	20596.3
801.6366	20332.5
805.50115	20169.7
809.36299	20003.9
813.22213	19808
817.07857	19780.5
820.93231	19762.4
824.78336	19800.3
828.63172	19936.5
832.47738	20041.8
836.32036	20038.2
840.16066	19968
843.99827	19849
847.8332	19737.6
851.66546	19710.3
855.49504	19624.5
859.32195	19571.2
863.1462	19432.2
866.96777	19337.2
870.78668	19281.4
874.60293	19310.4
878.41652	19411.9
882.22745	19529.2
886.03573	19657.6
889.84136	19611.2
893.64433	19494
897.44466	19407.6
901.24235	19410.6
905.0374	19339.3
908.8298	19282.7
912.61957	19282.2
916.40671	19456.8
920.19121	19761.6
923.97308	20081.4
927.75233	20312.3
931.52895	20453.7
935.30295	20121.8
939.07433	19444.5
942.84309	18887.2
946.60924	18551.2
950.37278	18391.6
954.13371	18267
957.89203	18212
961.64774	18132.8
965.40086	18096.1
969.15137	18039.6
972.89929	17964.9
976.64461	17952.5
980.38733	17939.8
984.12747	18045.4
987.86502	18181.3
991.59999	18391.8
995.33237	18740.4
999.06217	19326.9
1002.78939	20104.3
1006.51404	20823.6
1010.23611	21363.8
1013.95561	21596.6
1017.67255	21469.1
1021.38692	21023.2
1025.09872	20577.4
1028.80796	20401.1
1032.51465	20621.2
1036.21877	20929.4
1039.92035	21081.7
1043.61937	21033.1
1047.31584	20785
1051.00976	20448
1054.70114	20247.9
1058.38998	20235.3
1062.07627	20371.4
1065.76003	20551.2
1069.44126	20767.9
1073.11995	21120.7
1076.79611	21442.7
1080.46974	21705.8
1084.14085	22123.4
1087.80943	22699.9
1091.47549	23001.6
1095.13903	22752.4
1098.80005	22006.5
1102.45857	21214.6
1106.11456	20709.9
1109.76805	20633.9
1113.41903	20877.6
1117.06751	21387.4
1120.71348	22174.3
1124.35696	23044.8
1127.99793	23880.7
1131.63641	24026.8
1135.2724	23193.7
1138.90589	22274.4
1142.5369	21705
1146.16542	21430.8
1149.79145	21286.9
1153.415	21388.9
1157.03607	21664.4
1160.65467	22259.8
1164.27079	23286.5
1167.88443	24731.4
1171.49561	27007.7
1175.10432	30561.9
1178.71056	35193.3
1182.31434	38939.7
1185.91565	40444.2
1189.51451	40097
1193.11091	38120.2
1196.70485	35189.9
1200.29634	32567.6
1203.88538	30489.2
1207.47197	28498
1211.05612	26873.2
1214.63782	26047.3
1218.21708	25914.6
1221.79391	26150.7
1225.36829	26455.4
1228.94024	26612.6
1232.50976	26588.1
1236.07685	26460.8
1239.6415	26173.4
1243.20374	25768.4
1246.76355	25656.8
1250.32093	25854.7
1253.8759	26465
1257.42845	27364
1260.97859	28429.8
1264.52631	29483.2
1268.07163	30542.7
1271.61453	31674.4
1275.15503	32731.2
1278.69312	33439.7
1282.22882	34050.6
1285.76211	34881.8
1289.29301	36145.3
1292.82151	37525.8
1296.34761	38966.1
1299.87133	40929.3
1303.39266	43973.4
1306.9116	48333.3
1310.42815	53674.3
1313.94233	57758.6
1317.45412	58451.8
1320.96354	56559.2
1324.47058	53588.5
1327.97525	50599.1
1331.47754	48321.9
1334.97747	46882.4
1338.47502	46227
1341.97022	45979
1345.46305	45916.8
1348.95352	46320.3
1352.44163	47613.8
1355.92738	50502.9
1359.41078	55767.5
1362.89183	61829.3
1366.37053	61777.1
1369.84688	54366.1
1373.32088	45888.6
1376.79254	40254.1
1380.26186	37517.8
1383.72883	36338.2
1387.19347	35424
1390.65578	34443.5
1394.11575	33951.4
1397.57339	34130.7
1401.0287	34778.8
1404.48168	35688.3
1407.93234	36280.1
1411.38068	36272.7
1414.82669	35486.6
1418.27039	34056.5
1421.71177	32550
1425.15083	31255.9
1428.58758	30532.2
1432.02203	30307.9
1435.45416	30544.6
1438.88399	30848.2
1442.31151	31092.3
1445.73673	31400.9
1449.15965	31821.1
1452.58027	32060
1455.9986	32135.6
1459.41463	32275
1462.82837	32791.9
1466.23982	33432.4
1469.64898	34063.1
1473.05586	34442.4
1476.46045	34506.4
1479.86276	34580.2
1483.26279	34892
1486.66054	35281.4
1490.05602	36070.5
1493.44922	37073.4
1496.84016	38397.4
1500.22882	40616.2
1503.61521	43858.7
1506.99934	47818.1
1510.38121	52043.1
1513.76081	54753.9
1517.13816	53642.8
1520.51324	48975.7
1523.88607	43622.2
1527.25665	39676.7
1530.62498	37417.4
1533.99105	35976.8
1537.35488	35072
1540.71647	34384.7
1544.07581	33873.2
1547.4329	33352.3
1550.78776	32863.4
1554.14038	32657.7
1557.49077	32803.9
1560.83892	33252.8
1564.18484	33833.9
1567.52853	34365
1570.86999	34841.9
1574.20922	35232.2
1577.54624	35371.9
1580.88103	34398.4
1584.2136	33120.4
1587.54395	32949.5
1590.87208	34252.9
1594.19801	36602
1597.52172	39314.7
1600.84321	40460.8
1604.16251	38817
1607.47959	35610.5
1610.79447	32134.4
1614.10715	28931.8
1617.41763	26431
1620.7259	24859.3
1624.03199	24111.3
1627.33587	24109.8
1630.63757	24902
1633.93707	26642.5
1637.23439	29234
1640.52951	32913.6
1643.82246	37132.9
1647.11321	41233.8
1650.40179	43570
1653.68819	42043.4
1656.97241	36636.1
1660.25446	30298.1
1663.53433	25437.9
1666.81203	22411.8
1670.08756	20655.1
1673.36092	19588.9
1676.63211	18924.5
1679.90115	18457
1683.16801	18095.4
1686.43272	17892
1689.69527	17748.8
1692.95567	17570.1
1696.2139	17523.7
1699.46999	17437.6
1702.72392	17401.7
1705.97571	17319.5
1709.22535	17282.3
1712.47284	17316.2
1715.71819	17303.1
1718.96139	17288.2
1722.20246	17274.8
1725.44139	17205.2
1728.67818	17054
1731.91284	16948.7
1735.14537	16785.6
1738.37576	16701
1741.60403	16623.2
1744.83017	16566.5
1748.05418	16535.5
1751.27607	16494.8
1754.49584	16426.1
1757.71349	16442
1760.92903	16431
1764.14244	16386.4
1767.35375	16375.1
1770.56294	16338.6
1773.77002	16299.7
1776.97499	16277
1780.17785	16200.1
1783.37861	16197.1
1786.57727	16140.8
1789.77382	16116.9
1792.96828	16124
1796.16064	16077.6
1799.3509	16063.8
1802.53907	16034.1
1805.72514	15988.8
1808.90913	15968.5
1812.09102	15959.7
1815.27083	15889.1
1818.44856	15883.9
1821.6242	15859
1824.79776	15828.5
1827.96924	15812.3
1831.13864	15820.3
1834.30597	15824.4
1837.47122	15801.1
1840.6344	15810.6
1843.7955	15820.4
1846.95454	15827.2
1850.11151	15841.6
1853.26642	15815
1856.41926	15863
1859.57004	15888.5
1862.71876	15902.6
1865.86542	15903.1
1869.01003	15923.2
1872.15258	15938.9
1875.29308	15991.4
1878.43152	15993.2
1881.56792	16072.1
1884.70227	16084.9
1887.83457	16106.9
1890.96482	16146.3
1894.09304	16153.1
1897.21921	16222
1900.34335	16236.7
1903.46544	16253.6
1906.58551	16297.7
1909.70353	16315.6
1912.81953	16292.5
1915.93349	16314.5
1919.04543	16308.2
1922.15534	16272.8
1925.26322	16208.3
1928.36908	16102
1931.47292	16037
1934.57473	15880.9
1937.67453	15792.9
1940.77232	15668.5
1943.86808	15559.3
1946.96184	15450
1950.05358	15381.2
1953.14331	15267.7
1956.23103	15223.2
1959.31675	15114.9
1962.40046	15087.1
1965.48217	15000
1968.56188	14963.4
1971.63959	14906.4
1974.7153	14885.7
1977.78901	14801.2
1980.86073	14762.6
1983.93046	14705.3
1986.99819	14652.1
1990.06394	14621.9
1993.1277	14550
1996.18947	14482.1
1999.24925	14449.9
2002.30706	14409
2005.36288	14349.4
2008.41672	14349.7
2011.46859	14291.1
2014.51848	14244
2017.56639	14225.1
2020.61233	14162.6
2023.6563	14156
2026.6983	14119.3
2029.73833	14061.4
2032.7764	14046.8
2035.8125	14016.2
2038.84664	14002.4
2041.87881	13987.1
2044.90903	13992.8
2047.93729	13968.6
2050.96359	13945.1
2053.98794	13870.7
2057.01034	13866.9
2060.03078	13837.7
2063.04927	13810.7
2066.06582	13813.8
2069.08042	13812.1
2072.09307	13774.2
2075.10378	13767.2
2078.11255	13777.4
2081.11938	13794.3
2084.12426	13776
2087.12722	13757.8
2090.12824	13728.6
2093.12732	13745.8
2096.12447	13770.5
2099.11969	13747.1
2102.11299	13791.6
2105.10435	13776
2108.09379	13788.7
2111.08131	13791.9
2114.0669	13789.3
2117.05057	13794.3
2120.03233	13792.6
2123.01216	13794.1
2125.99008	13783.6
2128.96609	13802.9
2131.94018	13821.5
2134.91236	13838.1
2137.88263	13863
2140.851	13843.1
2143.81746	13845.8
2146.78201	13818.9
2149.74466	13858.2
2152.7054	13859.4
2155.66425	13836.5
2158.6212	13840.3
2161.57625	13827
2164.52941	13799.2
2167.48067	13796.1
2170.43004	13803.5
2173.37752	13791.6
2176.32311	13784.7
2179.26681	13805.7
2182.20863	13803
2185.14856	13817.6
2188.08661	13797.6
2191.02278	13797.9
2193.95707	13795.7
2196.88948	13775.6
2199.82001	13769.9
2202.74867	13768.6
2205.67545	13761.7
2208.60037	13775.6
2211.52341	13770.2
2214.44458	13738.8
2217.36388	13696.8
2220.28132	13708
2223.1969	13661.8
2226.11061	13634.9
2229.02246	13571.3
2231.93245	13576.4
2234.84058	13528.2
2237.74686	13536.9
2240.65128	13554.1
2243.55385	13523.9
2246.45456	13499.5
2249.35343	13479.1
2252.25044	13435.9
2255.14561	13437.9
2258.03893	13466.6
2260.93041	13432.3
2263.82004	13428.6
2266.70783	13398.5
2269.59378	13339.7
2272.4779	13309.4
2275.36017	13259.6
2278.24061	13250.8
2281.11922	13216.3
2283.996	13209.6
2286.87094	13164.6
2289.74405	13156.4
2292.61534	13108.4
2295.4848	13104.2
2298.35243	13096.6
2301.21824	13085.1
2304.08223	13084
2306.94439	13090.9
2309.80474	13121.6
2312.66327	13069
2315.51999	13092.5
2318.37489	13099.2
2321.22797	13088.3
2324.07925	13087.1
2326.92871	13077.6
2329.77637	13029.1
2332.62222	13050.5
2335.46626	13041.7
2338.3085	13021.7
2341.14893	13039.6
2343.98756	13041
2346.8244	13052.9
2349.65943	13025.4
2352.49267	13038.3
2355.32411	13058.3
2358.15376	13063.1
2360.98161	13077
2363.80768	13070.1
2366.63195	13058.8
2369.45444	13035.9
2372.27514	13049.5
2375.09405	13030.4
2377.91118	13008.4
2380.72652	12945.2
2383.54009	12900.3
2386.35187	12888.4
2389.16188	12819.5
2391.97011	12799.5
2394.77657	12774.2
2397.58125	12751.2
2400.38416	12721.1
2403.18529	12704.6
2405.98466	12678.2
2408.78226	12646.9
2411.57809	12631
2414.37216	12599.7
2417.16446	12590.2
2419.955	12595
2422.74378	12597.4
2425.5308	12582.6
2428.31606	12572.3
2431.09956	12561.7
2433.88131	12520.4
2436.6613	12560
2439.43954	12536.6
2442.21603	12529.1
2444.99077	12527.6
2447.76377	12552.2
2450.53501	12533.9
2453.30451	12535.4
2456.07226	12553.4
2458.83827	12582.9
2461.60254	12561.9
2464.36507	12560.9
2467.12586	12544.2
2469.88492	12530
2472.64224	12547.9
2475.39782	12554.9
2478.15167	12543.2
2480.90379	12568.2
2483.65417	12583.6
2486.40283	12594.5
2489.14976	12608.6
2491.89497	12639
2494.63845	12643
2497.3802	12618.8
2500.12024	12619.5
2502.85855	12625.4
2505.59514	12598.2
2508.33002	12570.1
2511.06318	12541.9
2513.79462	12524.7
2516.52435	12498.8
2519.25237	12455
2521.97867	12454.3
2524.70327	12431.8
2527.42616	12388.7
2530.14734	12379.5
2532.86681	12377
2535.58458	12370.9
2538.30065	12368.3
2541.01501	12363.5
2543.72768	12348.2
2546.43864	12348.9
2549.14791	12332.2
2551.85548	12331.4
2554.56136	12330.7
2557.26554	12301.9
2559.96803	12317.4
2562.66883	12304
2565.36794	12309.9
2568.06536	12271.9
2570.7611	12250.1
2573.45514	12231.1
2576.14751	12234.4
2578.83819	12226.8
2581.52719	12269
2584.21451	12223
2586.90015	12210.1
2589.58411	12201.8
2592.2664	12199.6
2594.94701	12165.9
2597.62594	12184.8
2600.30321	12142
2602.9788	12172
2605.65273	12163.7
2608.32498	12169.7
2610.99557	12157.2
2613.66449	12171.8
2616.33175	12170.6
2618.99734	12159.7
2621.66128	12179.5
2624.32355	12152.5
2626.98416	12170.4
2629.64311	12156.8
2632.30041	12160.9
2634.95605	12104.5
2637.61004	12114.3
2640.26238	12087.3
2642.91306	12089.9
2645.56209	12084.9
2648.20948	12089.2
2650.85521	12058.3
2653.4993	12054.6
2656.14175	12056.6
2658.78255	12063
2661.42171	12054.9
2664.05923	12079.6
2666.6951	12071
2669.32934	12107.2
2671.96194	12095.6
2674.59291	12138
2677.22224	12119
2679.84993	12134.8
2682.476	12114.1
2685.10043	12115.6
2687.72324	12109.6
2690.34441	12118.8
2692.96396	12093.5
2695.58188	12103.5
2698.19818	12097.9
2700.81285	12115.4
2703.4259	12106
2706.03733	12131.3
2708.64714	12118.3
2711.25533	12133.4
2713.86191	12115.2
2716.46687	12149.3
2719.07021	12101.2
2721.67194	12144.6
2724.27206	12126.6
2726.87057	12131.3
2729.46747	12143.6
2732.06276	12153.6
2734.65644	12147.4
2737.24852	12129.5
2739.83899	12117.5
2742.42786	12149.6
2745.01513	12101.2
2747.60079	12114.9
2750.18486	12084.1
2752.76733	12093
2755.3482	12084.4
2757.92747	12083.1
2760.50515	12058.9
2763.08123	12071.7
2765.65573	12040.9
2768.22863	12081.7
2770.79994	12055.9
2773.36967	12026.1
2775.9378	12031.4
2778.50435	12021.4
2781.06932	12036.5
2783.6327	12045.1
2786.1945	12031.5
2788.75471	12046.6
2791.31335	12013.4
2793.87041	11998.9
2796.42589	11965.4
2798.97979	11958
2801.53212	11938.4
2804.08288	11938.8
2806.63206	11945.9
2809.17967	11934.5
2811.72571	11897.4
2814.27018	11925.8
2816.81308	11930
2819.35442	11923.8
2821.89419	11939.5
2824.43239	11976.5
2826.96904	11929.4
2829.50412	11946.6
2832.03763	11932.8
2834.56959	11945.3
2837.1	11926
2839.62884	11949
2842.15613	12008.4
2844.68186	12103.6
2847.20604	12152.5
2849.72867	12227.2
2852.24974	12235.3
2854.76927	12233.8
2857.28724	12221.5
2859.80367	12203.2
2862.31855	12166.3
2864.83189	12145
2867.34368	12130.5
2869.85393	12149.5
2872.36264	12116.9
2874.8698	12124.5
2877.37543	12129.5
2879.87952	12158.5
2882.38207	12136.1
2884.88308	12134.1
2887.38256	12124.8
2889.88051	12115
2892.37692	12131.6
2894.8718	12120.8
2897.36515	12113.5
2899.85698	12109.7
2902.34727	12160
2904.83604	12150.2
2907.32328	12168.3
2909.809	12136.1
2912.29319	12154.2
2914.77587	12136.3
2917.25702	12130.4
2919.73665	12110.7
2922.21476	12122.5
2924.69136	12085
2927.16644	12100.7
2929.64	12066.3
2932.11205	12045.1
2934.58258	12006.6
2937.05161	11999.9
2939.51912	11975.5
2941.98513	11938.7
2944.44962	11861.1
2946.91261	11737.8
2949.37409	11733.1
2951.83407	11710.1
2954.29254	11670.1
2956.74951	11625.5
2959.20498	11619
2961.65895	11554.3
2964.11142	11569.5
2966.56239	11512
2969.01186	11505.4
2971.45984	11456.8
2973.90632	11421.3
2976.35131	11360.6
2978.7948	11372.9
2981.23681	11297.4
2983.67732	11272.4
2986.11635	11208.6
2988.55388	11201.8
2990.98993	11169.6
2993.4245	11141.3
2995.85758	11133.3
2998.28917	11073.8
3000.71928	11092.8
3003.14791	11085.4
3005.57506	11053.6
3008.00073	10997.4
3010.42493	11020.2
3012.84764	11002
3015.26888	10980.1
3017.68865	10945.7
3020.10694	10941
3022.52376	10878.7
3024.9391	10896.7
3027.35298	10886.1
3029.76539	10831.3
3032.17632	10811.6
3034.5858	10798.9
3036.9938	10780.3
3039.40034	10780.4
3041.80542	10782
3044.20903	10732.7
3046.61118	10722.9
3049.01187	10684.7
3051.4111	10689
3053.80888	10632
3056.20519	10636.7
3058.60005	10595.5
3060.99345	10589.4
3063.3854	10594.8
3065.7759	10555
3068.16494	10537.9
3070.55254	10488.4
3072.93868	10485.4
3075.32338	10453.4
3077.70662	10440.5
3080.08842	10379.2
3082.46878	10377.9
3084.84769	10348.1
3087.22515	10333.3
3089.60118	10314.3
3091.97576	10301.6
3094.3489	10315.6
3096.72061	10313.8
3099.09087	10307.8
3101.4597	10282.5
3103.82709	10261.7
3106.19305	10224.1
3108.55757	10238.8
3110.92066	10207.7
3113.28232	10172.9
3115.64255	10147.9
3118.00134	10114.5
3120.35871	10107.3
3122.71466	10080.3
3125.06917	10082.5
3127.42226	10066.2
3129.77393	10068.7
3132.12417	10046.8
3134.47299	10074.9
3136.82039	10057
3139.16636	10055.3
3141.51092	10051.8
3143.85406	10049.3
3146.19579	10056.7
3148.53609	10069.1
3150.87499	10056.9
3153.21246	10059.5
3155.54853	10076.5
3157.88318	10066.7
3160.21642	10044.3
3162.54826	10071.8
3164.87868	10045.2
3167.2077	10031
3169.5353	10047.2
3171.86151	10005.3
3174.18631	10030.4
3176.5097	9990.3
3178.83169	10002.9
3181.15228	9978
3183.47147	9994.4
3185.78926	9983.2
3188.10565	9984.2
3190.42065	9995.4
3192.73424	10006.9
3195.04645	9993.5
3197.35725	9988.3
3199.66667	9971.9
3201.97469	9977.2
3204.28132	9961.3
3206.58656	9986.7
3208.8904	9979.4
3211.19287	10001.8
3213.49394	10005.5
3215.79363	9995.7
3218.09193	10011
3220.38884	10007
3222.68438	10014
3224.97853	9993.4
3227.2713	10002.9
3229.56269	9981.9
3231.8527	9955.4
3234.14133	9956.6
3236.42858	9930.7
3238.71446	9899.3
3240.99896	9895.8
3243.28209	9893.6
3245.56384	9915.5
3247.84423	9896.2
3250.12324	9882.2
3252.40088	9877.1
3254.67715	9861.7
3256.95205	9809.7
3259.22558	9830.2
3261.49775	9807.2
3263.76855	9806.9
3266.03799	9775.9
3268.30606	9787.6
3270.57277	9754.3
3272.83812	9726.1
3275.10211	9723.2
3277.36474	9729.6
3279.62601	9735.2
3281.88593	9722.2
3284.14448	9740.4
3286.40168	9731.9
3288.65753	9708.6
3290.91202	9699.4
3293.16516	9647.1
3295.41695	9596.1
3297.66738	9570.1
3299.91647	9519.3
3302.16421	9473.2
3304.4106	9419.7
3306.65564	9386.6
3308.89933	9326.1
3311.14169	9273.5
3313.38269	9184.6
3315.62236	9125.6
3317.86068	9060.8
3320.09766	8939.7
3322.3333	8913.3
3324.5676	8915.2
3326.80056	8736
3329.03219	8706.4
3331.26248	2.1
3333.49143	-0.2
3335.71905	-0.4
