Data from AgNPs_FTO_APTES_UA_2uM_CRN_5uM_R6G_10uM_NaF_0.1M_Addition_RamanShift__18__12-59-25-114.txt Node

Date: Wed Feb 02 12:59:25 GMT 2022
User: TCL
Spectrometer: QEP01345
Trigger mode: 4
Integration Time (sec): 7.000000E0
Scans to average: 10
Electric dark correction enabled: true
Nonlinearity correction enabled: false
Boxcar width: 0
XAxis mode: Raman Shifts
Number of Pixels in Spectrum: 1044
>>>>>Begin Spectral Data<<<<<
46.04893	0.2375
50.45542	0.3375
54.85868	-1.8625
59.25871	-1.1625
63.6555	78.8375
68.04907	83.6375
72.43941	86.3375
76.82654	92.7375
81.21044	95.3375
85.59113	102.4375
89.96862	102.1375
94.34289	109.1375
98.71396	109.6375
103.08183	117.4375
107.4465	119.8375
111.80798	125.4375
116.16626	123.9375
120.52136	133.9375
124.87327	138.7375
129.222	147.6375
133.56755	158.0375
137.90993	168.6375
142.24913	194.9375
146.58517	219.3375
150.91804	258.0375
155.24774	318.2375
159.57429	399.4375
163.89768	514.8375
168.21792	689.9375
172.53501	951.2375
176.84895	1321.8375
181.15975	1875.7375
185.46741	2613.2375
189.77193	3615.5375
194.07331	4816.6375
198.37157	6185.8375
202.6667	7633.3375
206.9587	9068.1375
211.24758	10447.7375
215.53334	11872.5375
219.81599	13426.8375
224.09553	15146.0375
228.37195	17023.5375
232.64527	19069.3375
236.91549	21231.2375
241.18261	23305.2375
245.44663	25281.6375
249.70755	26970.9375
253.96539	28453.9375
258.22014	29751.7375
262.4718	30899.0375
266.72039	31719.3375
270.96589	32198.6375
275.20832	32364.1375
279.44768	32239.2375
283.68397	32048.2375
287.91719	31989.9375
292.14735	32031.7375
296.37445	32160.4375
300.59849	32304.0375
304.81948	32361.5375
309.03742	32181.2375
313.25231	31796.5375
317.46415	30850.7375
321.67296	29769.8375
325.87872	28813.5375
330.08145	28324.8375
334.28114	28163.5375
338.47781	28294.4375
342.67145	28616.7375
346.86207	29098.3375
351.04966	29712.8375
355.23424	30339.5375
359.4158	30869.8375
363.59435	31236.4375
367.76989	31457.2375
371.94243	31628.4375
376.11196	31750.8375
380.27849	31857.5375
384.44203	32025.3375
388.60257	32314.3375
392.76012	32663.7375
396.91468	33153.6375
401.06626	33648.5375
405.21485	33992.5375
409.36047	33764.3375
413.50311	33119.8375
417.64277	32664.4375
421.77947	32587.6375
425.9132	32730.0375
430.04396	32935.9375
434.17176	33103.3375
438.2966	33333.9375
442.41849	33880.9375
446.53742	34730.9375
450.6534	35792.2375
454.76644	36683.8375
458.87653	37044.2375
462.98368	36978.5375
467.08789	36663.5375
471.18916	36143.4375
475.2875	35767.6375
479.38291	35695.9375
483.4754	35567.4375
487.56496	35056.3375
491.6516	34351.8375
495.73531	33739.9375
499.81612	33352.7375
503.89401	33470.6375
507.96899	33606.9375
512.04106	33482.4375
516.11023	33225.2375
520.1765	32767.4375
524.23987	32314.8375
528.30034	31859.1375
532.35792	31494.8375
536.41261	31060.6375
540.46441	30706.6375
544.51333	30768.9375
548.55936	31308.3375
552.60252	32233.6375
556.64279	33191.5375
560.6802	33807.6375
564.71473	34168.2375
568.7464	34813.1375
572.7752	35777.7375
576.80114	36643.3375
580.82422	37394.6375
584.84444	37983.5375
588.86181	38355.6375
592.87633	38703.5375
596.888	38746.7375
600.89682	38738.7375
604.9028	40039.7375
608.90594	43636.3375
612.90624	47065.2375
616.90371	43524.6375
620.89834	35810.7375
624.89015	32496.6375
628.87913	32250.5375
632.86528	32403.6375
636.84862	32142.5375
640.82913	31488.0375
644.80683	30491.3375
648.78172	29671.0375
652.75379	29451.6375
656.72306	29795.1375
660.68952	30338.6375
664.65319	30196.1375
668.61405	29555.5375
672.57211	29353.1375
676.52738	29389.8375
680.47986	29364.4375
684.42955	29227.5375
688.37646	29126.2375
692.32058	29278.4375
696.26192	29658.7375
700.20048	30037.2375
704.13626	30337.7375
708.06928	30240.0375
711.99952	30006.9375
715.927	29864.2375
719.85171	29966.3375
723.77365	29823.5375
727.69284	29414.7375
731.60928	29004.0375
735.52295	28907.3375
739.43388	28890.6375
743.34206	29046.1375
747.24749	29237.3375
751.15017	29582.0375
755.05012	30302.3375
758.94733	31467.3375
762.8418	33446.2375
766.73354	36419.6375
770.62254	39179.6375
774.50882	39571.7375
778.39237	37201.2375
782.27321	34092.6375
786.15132	31494.5375
790.02671	29994.6375
793.89938	29293.8375
797.76935	29029.0375
801.6366	28972.6375
805.50115	28950.5375
809.36299	28704.3375
813.22213	28369.8375
817.07857	28193.1375
820.93231	28124.1375
824.78336	27924.1375
828.63172	27724.0375
832.47738	27670.2375
836.32036	27747.9375
840.16066	27880.3375
843.99827	27985.0375
847.8332	27860.4375
851.66546	27680.7375
855.49504	27582.1375
859.32195	27591.3375
863.1462	27452.2375
866.96777	27289.6375
870.78668	27249.8375
874.60293	27172.7375
878.41652	27206.1375
882.22745	27351.1375
886.03573	27416.6375
889.84136	27447.7375
893.64433	27338.7375
897.44466	27187.5375
901.24235	27032.9375
905.0374	26913.5375
908.8298	26872.7375
912.61957	26966.3375
916.40671	27289.5375
920.19121	27854.2375
923.97308	28235.3375
927.75233	28325.9375
931.52895	28137.5375
935.30295	27707.6375
939.07433	26973.7375
942.84309	26455.4375
946.60924	26225.0375
950.37278	26101.4375
954.13371	26086.4375
957.89203	25966.2375
961.64774	25930.2375
965.40086	25897.4375
969.15137	25804.4375
972.89929	25625.0375
976.64461	25532.9375
980.38733	25522.2375
984.12747	25620.5375
987.86502	25819.0375
991.59999	26286.9375
995.33237	26848.6375
999.06217	27916.4375
1002.78939	29070.9375
1006.51404	29737.5375
1010.23611	30117.4375
1013.95561	30335.5375
1017.67255	30335.3375
1021.38692	30004.8375
1025.09872	29572.4375
1028.80796	29767.6375
1032.51465	30728.4375
1036.21877	31810.7375
1039.92035	31987.7375
1043.61937	31458.7375
1047.31584	30556.5375
1051.00976	29581.7375
1054.70114	29135.3375
1058.38998	29146.3375
1062.07627	29357.2375
1065.76003	29645.4375
1069.44126	29912.0375
1073.11995	30281.2375
1076.79611	30754.7375
1080.46974	31028.5375
1084.14085	31326.8375
1087.80943	31740.7375
1091.47549	32161.8375
1095.13903	32181.9375
1098.80005	31730.8375
1102.45857	30871.0375
1106.11456	30221.2375
1109.76805	29896.8375
1113.41903	29853.0375
1117.06751	29986.7375
1120.71348	30326.8375
1124.35696	30736.6375
1127.99793	31206.5375
1131.63641	31510.7375
1135.2724	31427.8375
1138.90589	31231.9375
1142.5369	31201.6375
1146.16542	31332.7375
1149.79145	31611.4375
1153.415	32040.5375
1157.03607	32695.5375
1160.65467	33823.5375
1164.27079	35633.5375
1167.88443	38035.6375
1171.49561	40961.7375
1175.10432	44742.1375
1178.71056	49318.6375
1182.31434	53635.0375
1185.91565	56117.8375
1189.51451	56381.2375
1193.11091	54726.6375
1196.70485	52078.4375
1200.29634	49204.5375
1203.88538	46966.4375
1207.47197	45630.9375
1211.05612	44571.2375
1214.63782	43706.0375
1218.21708	42809.8375
1221.79391	42093.7375
1225.36829	41571.3375
1228.94024	40938.6375
1232.50976	40117.7375
1236.07685	39501.6375
1239.6415	39103.7375
1243.20374	38954.5375
1246.76355	39126.4375
1250.32093	39755.3375
1253.8759	40799.2375
1257.42845	42305.5375
1260.97859	43906.0375
1264.52631	45432.0375
1268.07163	47009.4375
1271.61453	48741.2375
1275.15503	50566.2375
1278.69312	52481.0375
1282.22882	54143.7375
1285.76211	55711.1375
1289.29301	57398.8375
1292.82151	59675.9375
1296.34761	62616.9375
1299.87133	66440.0375
1303.39266	70803.0375
1306.9116	75624.8375
1310.42815	80217.3375
1313.94233	82973.2375
1317.45412	83353.6375
1320.96354	82421.3375
1324.47058	81251.6375
1327.97525	80119.4375
1331.47754	79285.7375
1334.97747	78634.2375
1338.47502	78320.3375
1341.97022	77591.2375
1345.46305	76279.1375
1348.95352	74321.0375
1352.44163	72363.1375
1355.92738	72140.7375
1359.41078	74106.1375
1362.89183	76201.2375
1366.37053	74708.4375
1369.84688	68787.7375
1373.32088	61747.2375
1376.79254	56763.6375
1380.26186	54921.1375
1383.72883	54884.0375
1387.19347	55074.3375
1390.65578	54742.2375
1394.11575	54787.7375
1397.57339	55618.3375
1401.0287	56896.6375
1404.48168	58078.6375
1407.93234	58236.9375
1411.38068	57102.6375
1414.82669	54992.7375
1418.27039	52212.2375
1421.71177	49433.4375
1425.15083	47359.6375
1428.58758	46175.5375
1432.02203	46185.8375
1435.45416	47360.3375
1438.88399	48981.7375
1442.31151	50544.2375
1445.73673	51695.3375
1449.15965	52722.2375
1452.58027	53397.2375
1455.9986	53783.4375
1459.41463	54368.2375
1462.82837	55340.2375
1466.23982	56368.4375
1469.64898	57316.6375
1473.05586	57766.3375
1476.46045	57565.2375
1479.86276	56858.7375
1483.26279	55817.9375
1486.66054	55114.9375
1490.05602	54936.3375
1493.44922	55117.2375
1496.84016	55468.4375
1500.22882	56390.2375
1503.61521	57956.2375
1506.99934	59987.1375
1510.38121	61849.1375
1513.76081	62539.2375
1517.13816	61429.9375
1520.51324	59294.4375
1523.88607	57332.7375
1527.25665	56195.1375
1530.62498	55795.8375
1533.99105	55570.8375
1537.35488	55257.5375
1540.71647	54582.2375
1544.07581	53435.4375
1547.4329	52147.4375
1550.78776	51057.5375
1554.14038	50182.3375
1557.49077	49826.8375
1560.83892	49531.7375
1564.18484	49373.4375
1567.52853	49398.9375
1570.86999	49655.2375
1574.20922	50316.3375
1577.54624	51223.6375
1580.88103	51697.0375
1584.2136	52436.4375
1587.54395	54204.5375
1590.87208	57170.4375
1594.19801	60855.0375
1597.52172	64466.2375
1600.84321	65272.4375
1604.16251	61954.0375
1607.47959	56490.0375
1610.79447	50878.2375
1614.10715	45878.5375
1617.41763	41670.3375
1620.7259	38770.6375
1624.03199	37285.7375
1627.33587	37199.3375
1630.63757	38574.4375
1633.93707	41690.8375
1637.23439	46507.6375
1640.52951	53120.9375
1643.82246	60193.0375
1647.11321	65021.6375
1650.40179	65196.7375
1653.68819	60113.0375
1656.97241	51744.5375
1660.25446	43437.7375
1663.53433	37030.2375
1666.81203	32826.0375
1670.08756	30175.1375
1673.36092	28465.4375
1676.63211	27355.7375
1679.90115	26564.9375
1683.16801	26013.5375
1686.43272	25552.9375
1689.69527	25231.7375
1692.95567	25027.5375
1696.2139	24842.8375
1699.46999	24736.5375
1702.72392	24575.7375
1705.97571	24460.6375
1709.22535	24321.7375
1712.47284	24290.1375
1715.71819	24219.6375
1718.96139	24084.9375
1722.20246	24004.5375
1725.44139	23857.4375
1728.67818	23700.8375
1731.91284	23549.7375
1735.14537	23396.3375
1738.37576	23289.3375
1741.60403	23214.1375
1744.83017	23095.5375
1748.05418	23053.1375
1751.27607	23007.8375
1754.49584	22933.0375
1757.71349	22934.9375
1760.92903	22893.3375
1764.14244	22853.4375
1767.35375	22832.6375
1770.56294	22761.6375
1773.77002	22679.7375
1776.97499	22641.9375
1780.17785	22571.1375
1783.37861	22554.1375
1786.57727	22481.5375
1789.77382	22461.0375
1792.96828	22377.4375
1796.16064	22355.1375
1799.3509	22292.1375
1802.53907	22244.4375
1805.72514	22147.8375
1808.90913	22149.9375
1812.09102	22108.0375
1815.27083	22058.3375
1818.44856	22052.2375
1821.6242	22033.1375
1824.79776	22031.7375
1827.96924	22028.2375
1831.13864	22048.7375
1834.30597	22064.1375
1837.47122	22042.5375
1840.6344	22061.2375
1843.7955	22081.5375
1846.95454	22126.5375
1850.11151	22088.1375
1853.26642	22149.6375
1856.41926	22119.9375
1859.57004	22139.1375
1862.71876	22088.6375
1865.86542	22082.7375
1869.01003	22079.7375
1872.15258	22097.4375
1875.29308	22112.4375
1878.43152	22092.7375
1881.56792	22040.4375
1884.70227	22084.0375
1887.83457	22122.2375
1890.96482	22123.8375
1894.09304	22049.7375
1897.21921	22058.5375
1900.34335	22043.4375
1903.46544	22012.4375
1906.58551	22010.1375
1909.70353	21950.1375
1912.81953	21841.1375
1915.93349	21838.1375
1919.04543	21732.6375
1922.15534	21672.7375
1925.26322	21593.9375
1928.36908	21563.5375
1931.47292	21462.6375
1934.57473	21374.5375
1937.67453	21197.7375
1940.77232	21121.8375
1943.86808	21064.4375
1946.96184	21032.6375
1950.05358	20906.4375
1953.14331	20823.4375
1956.23103	20751.6375
1959.31675	20735.1375
1962.40046	20636.3375
1965.48217	20552.1375
1968.56188	20499.3375
1971.63959	20454.0375
1974.7153	20370.8375
1977.78901	20344.4375
1980.86073	20278.8375
1983.93046	20220.4375
1986.99819	20117.6375
1990.06394	20026.4375
1993.1277	19964.3375
1996.18947	19912.4375
1999.24925	19882.8375
2002.30706	19815.9375
2005.36288	19737.1375
2008.41672	19681.2375
2011.46859	19682.0375
2014.51848	19621.8375
2017.56639	19524.5375
2020.61233	19516.7375
2023.6563	19475.5375
2026.6983	19466.4375
2029.73833	19456.7375
2032.7764	19418.9375
2035.8125	19363.9375
2038.84664	19341.8375
2041.87881	19373.9375
2044.90903	19320.2375
2047.93729	19287.0375
2050.96359	19264.8375
2053.98794	19194.3375
2057.01034	19201.6375
2060.03078	19190.0375
2063.04927	19168.4375
2066.06582	19155.2375
2069.08042	19149.0375
2072.09307	19120.0375
2075.10378	19095.5375
2078.11255	19107.0375
2081.11938	19099.1375
2084.12426	19050.6375
2087.12722	19063.2375
2090.12824	19016.7375
2093.12732	19011.6375
2096.12447	19028.4375
2099.11969	19084.0375
2102.11299	19060.0375
2105.10435	19064.8375
2108.09379	19076.4375
2111.08131	19049.4375
2114.0669	19039.2375
2117.05057	19077.2375
2120.03233	19104.3375
2123.01216	19111.2375
2125.99008	19094.1375
2128.96609	19091.4375
2131.94018	19113.1375
2134.91236	19108.2375
2137.88263	19110.1375
2140.851	19137.6375
2143.81746	19143.3375
2146.78201	19175.1375
2149.74466	19172.3375
2152.7054	19151.9375
2155.66425	19161.8375
2158.6212	19184.1375
2161.57625	19192.0375
2164.52941	19172.3375
2167.48067	19112.5375
2170.43004	19117.1375
2173.37752	19115.6375
2176.32311	19094.0375
2179.26681	19157.9375
2182.20863	19145.9375
2185.14856	19157.4375
2188.08661	19165.6375
2191.02278	19187.4375
2193.95707	19126.9375
2196.88948	19132.9375
2199.82001	19109.6375
2202.74867	19108.2375
2205.67545	19108.2375
2208.60037	19102.2375
2211.52341	19078.0375
2214.44458	19080.4375
2217.36388	19098.0375
2220.28132	19046.9375
2223.1969	19022.3375
2226.11061	18994.0375
2229.02246	18998.1375
2231.93245	18920.8375
2234.84058	18892.4375
2237.74686	18840.0375
2240.65128	18831.2375
2243.55385	18768.2375
2246.45456	18729.2375
2249.35343	18710.7375
2252.25044	18699.7375
2255.14561	18641.7375
2258.03893	18614.9375
2260.93041	18557.2375
2263.82004	18510.2375
2266.70783	18474.3375
2269.59378	18413.4375
2272.4779	18386.2375
2275.36017	18344.8375
2278.24061	18325.6375
2281.11922	18287.3375
2283.996	18259.1375
2286.87094	18250.6375
2289.74405	18224.4375
2292.61534	18205.8375
2295.4848	18174.5375
2298.35243	18213.9375
2301.21824	18213.7375
2304.08223	18199.1375
2306.94439	18231.9375
2309.80474	18262.8375
2312.66327	18272.8375
2315.51999	18254.4375
2318.37489	18299.4375
2321.22797	18281.9375
2324.07925	18258.5375
2326.92871	18247.3375
2329.77637	18264.7375
2332.62222	18234.8375
2335.46626	18226.6375
2338.3085	18217.0375
2341.14893	18213.2375
2343.98756	18243.5375
2346.8244	18265.4375
2349.65943	18280.7375
2352.49267	18297.3375
2355.32411	18316.6375
2358.15376	18284.6375
2360.98161	18300.5375
2363.80768	18280.6375
2366.63195	18232.3375
2369.45444	18202.1375
2372.27514	18151.1375
2375.09405	18099.3375
2377.91118	18061.0375
2380.72652	17999.1375
2383.54009	17981.0375
2386.35187	17968.7375
2389.16188	17923.3375
2391.97011	17881.6375
2394.77657	17892.6375
2397.58125	17851.4375
2400.38416	17811.2375
2403.18529	17768.4375
2405.98466	17748.4375
2408.78226	17740.0375
2411.57809	17703.8375
2414.37216	17709.8375
2417.16446	17701.0375
2419.955	17664.0375
2422.74378	17663.0375
2425.5308	17599.3375
2428.31606	17648.8375
2431.09956	17618.1375
2433.88131	17610.4375
2436.6613	17610.1375
2439.43954	17625.8375
2442.21603	17604.0375
2444.99077	17606.6375
2447.76377	17615.2375
2450.53501	17578.7375
2453.30451	17631.7375
2456.07226	17585.6375
2458.83827	17601.6375
2461.60254	17587.4375
2464.36507	17591.7375
2467.12586	17632.0375
2469.88492	17612.6375
2472.64224	17618.4375
2475.39782	17657.4375
2478.15167	17656.9375
2480.90379	17634.1375
2483.65417	17690.9375
2486.40283	17679.8375
2489.14976	17700.5375
2491.89497	17707.1375
2494.63845	17748.6375
2497.3802	17738.8375
2500.12024	17737.4375
2502.85855	17724.9375
2505.59514	17756.5375
2508.33002	17718.9375
2511.06318	17735.2375
2513.79462	17714.2375
2516.52435	17705.1375
2519.25237	17685.5375
2521.97867	17661.5375
2524.70327	17629.1375
2527.42616	17645.7375
2530.14734	17645.7375
2532.86681	17641.0375
2535.58458	17637.0375
2538.30065	17627.3375
2541.01501	17647.3375
2543.72768	17600.1375
2546.43864	17625.6375
2549.14791	17571.1375
2551.85548	17564.6375
2554.56136	17574.0375
2557.26554	17570.2375
2559.96803	17556.9375
2562.66883	17529.0375
2565.36794	17521.2375
2568.06536	17505.6375
2570.7611	17462.0375
2573.45514	17486.4375
2576.14751	17470.9375
2578.83819	17459.0375
2581.52719	17485.6375
2584.21451	17442.9375
2586.90015	17495.1375
2589.58411	17488.3375
2592.2664	17493.5375
2594.94701	17453.3375
2597.62594	17474.7375
2600.30321	17455.8375
2602.9788	17458.7375
2605.65273	17421.5375
2608.32498	17450.1375
2610.99557	17446.2375
2613.66449	17467.4375
2616.33175	17450.7375
2618.99734	17490.8375
2621.66128	17533.6375
2624.32355	17520.3375
2626.98416	17548.8375
2629.64311	17499.3375
2632.30041	17539.4375
2634.95605	17517.7375
2637.61004	17523.0375
2640.26238	17478.4375
2642.91306	17476.6375
2645.56209	17502.3375
2648.20948	17457.6375
2650.85521	17451.9375
2653.4993	17399.4375
2656.14175	17436.0375
2658.78255	17461.9375
2661.42171	17421.1375
2664.05923	17477.2375
2666.6951	17490.3375
2669.32934	17472.0375
2671.96194	17462.3375
2674.59291	17499.0375
2677.22224	17492.1375
2679.84993	17500.4375
2682.476	17477.6375
2685.10043	17448.9375
2687.72324	17401.1375
2690.34441	17454.6375
2692.96396	17451.4375
2695.58188	17455.5375
2698.19818	17437.5375
2700.81285	17434.8375
2703.4259	17438.0375
2706.03733	17441.6375
2708.64714	17447.4375
2711.25533	17450.6375
2713.86191	17459.7375
2716.46687	17494.3375
2719.07021	17513.1375
2721.67194	17506.4375
2724.27206	17519.3375
2726.87057	17513.3375
2729.46747	17552.5375
2732.06276	17543.7375
2734.65644	17527.5375
2737.24852	17539.8375
2739.83899	17526.7375
2742.42786	17555.6375
2745.01513	17519.1375
2747.60079	17508.1375
2750.18486	17481.8375
2752.76733	17525.6375
2755.3482	17498.1375
2757.92747	17504.7375
2760.50515	17487.5375
2763.08123	17495.5375
2765.65573	17476.6375
2768.22863	17450.5375
2770.79994	17472.2375
2773.36967	17455.5375
2775.9378	17515.4375
2778.50435	17498.3375
2781.06932	17467.8375
2783.6327	17505.9375
2786.1945	17462.8375
2788.75471	17436.3375
2791.31335	17406.8375
2793.87041	17386.1375
2796.42589	17353.5375
2798.97979	17405.9375
2801.53212	17374.2375
2804.08288	17357.0375
2806.63206	17303.3375
2809.17967	17266.5375
2811.72571	17229.6375
2814.27018	17214.3375
2816.81308	17181.0375
2819.35442	17142.0375
2821.89419	17147.7375
2824.43239	17139.3375
2826.96904	17100.4375
2829.50412	17080.6375
2832.03763	17040.2375
2834.56959	17117.9375
2837.1	17076.9375
2839.62884	17023.6375
2842.15613	17032.5375
2844.68186	17055.1375
2847.20604	17094.5375
2849.72867	17129.4375
2852.24974	17093.8375
2854.76927	17092.5375
2857.28724	17084.5375
2859.80367	17059.2375
2862.31855	17022.7375
2864.83189	17055.7375
2867.34368	17027.9375
2869.85393	17030.1375
2872.36264	17006.7375
2874.8698	17035.3375
2877.37543	17050.1375
2879.87952	17045.7375
2882.38207	17051.9375
2884.88308	16990.7375
2887.38256	17013.8375
2889.88051	16997.5375
2892.37692	17064.8375
2894.8718	17037.8375
2897.36515	17100.1375
2899.85698	17121.3375
2902.34727	17136.2375
2904.83604	17160.1375
2907.32328	17167.6375
2909.809	17167.3375
2912.29319	17194.6375
2914.77587	17208.7375
2917.25702	17184.4375
2919.73665	17174.8375
2922.21476	17203.9375
2924.69136	17146.7375
2927.16644	17172.7375
2929.64	17153.2375
2932.11205	17104.0375
2934.58258	17074.8375
2937.05161	17043.2375
2939.51912	17096.4375
2941.98513	17022.0375
2944.44962	16966.2375
2946.91261	16929.9375
2949.37409	16960.3375
2951.83407	16948.6375
2954.29254	16921.1375
2956.74951	16870.6375
2959.20498	16878.1375
2961.65895	16825.6375
2964.11142	16836.3375
2966.56239	16799.9375
2969.01186	16782.7375
2971.45984	16741.5375
2973.90632	16660.7375
2976.35131	16647.5375
2978.7948	16618.8375
2981.23681	16589.0375
2983.67732	16529.1375
2986.11635	16494.8375
2988.55388	16444.2375
2990.98993	16398.7375
2993.4245	16336.9375
2995.85758	16321.8375
2998.28917	16253.9375
3000.71928	16232.5375
3003.14791	16226.8375
3005.57506	16233.2375
3008.00073	16151.7375
3010.42493	16172.1375
3012.84764	16126.5375
3015.26888	16101.6375
3017.68865	16066.5375
3020.10694	16029.7375
3022.52376	15996.0375
3024.9391	15981.8375
3027.35298	15956.2375
3029.76539	15956.8375
3032.17632	15949.3375
3034.5858	15936.4375
3036.9938	15914.1375
3039.40034	15896.6375
3041.80542	15911.7375
3044.20903	15850.8375
3046.61118	15837.7375
3049.01187	15815.2375
3051.4111	15778.1375
3053.80888	15769.7375
3056.20519	15729.8375
3058.60005	15702.3375
3060.99345	15645.5375
3063.3854	15635.4375
3065.7759	15602.2375
3068.16494	15553.0375
3070.55254	15471.2375
3072.93868	15471.3375
3075.32338	15418.3375
3077.70662	15403.8375
3080.08842	15357.4375
3082.46878	15318.3375
3084.84769	15330.8375
3087.22515	15279.6375
3089.60118	15310.0375
3091.97576	15273.3375
3094.3489	15286.4375
3096.72061	15243.9375
3099.09087	15233.5375
3101.4597	15189.1375
3103.82709	15190.0375
3106.19305	15146.3375
3108.55757	15137.6375
3110.92066	15086.9375
3113.28232	15080.5375
3115.64255	15024.0375
3118.00134	15043.4375
3120.35871	15011.9375
3122.71466	14937.3375
3125.06917	14923.2375
3127.42226	14906.6375
3129.77393	14901.4375
3132.12417	14909.3375
3134.47299	14900.0375
3136.82039	14866.0375
3139.16636	14851.3375
3141.51092	14848.7375
3143.85406	14849.7375
3146.19579	14874.2375
3148.53609	14840.9375
3150.87499	14842.2375
3153.21246	14869.9375
3155.54853	14888.6375
3157.88318	14803.9375
3160.21642	14844.4375
3162.54826	14809.3375
3164.87868	14831.4375
3167.2077	14834.8375
3169.5353	14764.2375
3171.86151	14803.5375
3174.18631	14787.7375
3176.5097	14775.3375
3178.83169	14759.3375
3181.15228	14774.9375
3183.47147	14738.0375
3185.78926	14739.7375
3188.10565	14694.5375
3190.42065	14674.0375
3192.73424	14708.9375
3195.04645	14722.9375
3197.35725	14742.4375
3199.66667	14733.0375
3201.97469	14755.2375
3204.28132	14685.9375
3206.58656	14697.5375
3208.8904	14687.6375
3211.19287	14744.1375
3213.49394	14757.4375
3215.79363	14743.3375
3218.09193	14711.7375
3220.38884	14689.4375
3222.68438	14753.3375
3224.97853	14692.4375
3227.2713	14697.5375
3229.56269	14653.1375
3231.8527	14659.5375
3234.14133	14651.5375
3236.42858	14619.6375
3238.71446	14611.3375
3240.99896	14582.1375
3243.28209	14592.7375
3245.56384	14543.5375
3247.84423	14544.0375
3250.12324	14501.5375
3252.40088	14480.6375
3254.67715	14441.6375
3256.95205	14410.5375
3259.22558	14405.4375
3261.49775	14390.5375
3263.76855	14398.0375
3266.03799	14351.1375
3268.30606	14342.3375
3270.57277	14323.9375
3272.83812	14292.4375
3275.10211	14280.2375
3277.36474	14273.6375
3279.62601	14272.4375
3281.88593	14301.4375
3284.14448	14302.0375
3286.40168	14283.9375
3288.65753	14276.3375
3290.91202	14264.7375
3293.16516	14206.2375
3295.41695	14183.6375
3297.66738	14090.6375
3299.91647	14031.9375
3302.16421	13960.8375
3304.4106	13867.6375
3306.65564	13796.4375
3308.89933	13691.1375
3311.14169	13593.2375
3313.38269	13516.8375
3315.62236	13440.3375
3317.86068	13272.9375
3320.09766	13172.7375
3322.3333	13070.3375
3324.5676	13077.4375
3326.80056	12846.4375
3329.03219	12795.5375
3331.26248	2.9375
3333.49143	0.4375
3335.71905	-0.3625
