Data from AgNPs_FTO_APTES_UA_2uM_CRN_500uM_R6G_10uM_NaF_0.1M_Addition_RamanShift__24__17-26-35-426.txt Node

Date: Wed Feb 02 17:26:35 GMT 2022
User: TCL
Spectrometer: QEP01345
Trigger mode: 4
Integration Time (sec): 7.000000E0
Scans to average: 10
Electric dark correction enabled: true
Nonlinearity correction enabled: false
Boxcar width: 0
XAxis mode: Raman Shifts
Number of Pixels in Spectrum: 1044
>>>>>Begin Spectral Data<<<<<
46.04893	0
50.45542	1
54.85868	0
59.25871	0.1
63.6555	72.5
68.04907	78.8
72.43941	81.7
76.82654	84.9
81.21044	89
85.59113	92.2
89.96862	97.5
94.34289	97.8
98.71396	105.4
103.08183	107.2
107.4465	109.1
111.80798	112.4
116.16626	111.9
120.52136	120.2
124.87327	121.4
129.222	124.7
133.56755	137.3
137.90993	149.2
142.24913	165.3
146.58517	182.8
150.91804	210.8
155.24774	252.2
159.57429	316.5
163.89768	399.3
168.21792	527.4
172.53501	736.1
176.84895	1017.9
181.15975	1429.1
185.46741	1999
189.77193	2741.2
194.07331	3678.9
198.37157	4723.2
202.6667	5845.3
206.9587	6940.4
211.24758	8037.1
215.53334	9116.7
219.81599	10293.3
224.09553	11608.2
228.37195	13030.8
232.64527	14529.2
236.91549	16120.9
241.18261	17718.8
245.44663	19209.5
249.70755	20563.2
253.96539	21750.5
258.22014	22778.5
262.4718	23634.4
266.72039	24277.9
270.96589	24681.5
275.20832	24891.8
279.44768	24880.4
283.68397	24814
287.91719	24807.5
292.14735	24858.9
296.37445	25102.1
300.59849	25252.8
304.81948	25351
309.03742	25187
313.25231	24683.4
317.46415	23806.1
321.67296	22796.9
325.87872	21999.5
330.08145	21558.4
334.28114	21487.5
338.47781	21612.5
342.67145	21903.9
346.86207	22310.4
351.04966	22819.1
355.23424	23457.3
359.4158	23904.6
363.59435	24213.7
367.76989	24373.3
371.94243	24463
376.11196	24528.9
380.27849	24596.2
384.44203	24725.5
388.60257	24874.5
392.76012	25049.5
396.91468	25337.5
401.06626	25770.3
405.21485	25998
409.36047	25887.4
413.50311	25426.2
417.64277	24982.3
421.77947	24890.8
425.9132	24949.1
430.04396	25168.6
434.17176	25406.6
438.2966	25718.4
442.41849	26294.4
446.53742	27076.9
450.6534	28013
454.76644	28657.7
458.87653	28914.4
462.98368	28837.1
467.08789	28601.6
471.18916	28323.5
475.2875	28242.6
479.38291	28334.6
483.4754	28340.4
487.56496	27962.2
491.6516	27183.3
495.73531	26429.8
499.81612	25899.2
503.89401	25841
507.96899	25777.8
512.04106	25631.9
516.11023	25410.7
520.1765	25100.2
524.23987	24854.2
528.30034	24604.9
532.35792	24332.5
536.41261	24086.2
540.46441	23905.9
544.51333	23942.1
548.55936	24349.1
552.60252	25038
556.64279	25838.1
560.6802	26474.8
564.71473	27025.3
568.7464	27790.2
572.7752	28622.2
576.80114	28879.8
580.82422	28740
584.84444	28721.5
588.86181	28887.8
592.87633	29374.7
596.888	29643.3
600.89682	29641
604.9028	30259.1
608.90594	32629.9
612.90624	35440.1
616.90371	33402.7
620.89834	27366.6
624.89015	24583
628.87913	24256.7
632.86528	24483.1
636.84862	24677.6
640.82913	24311.5
644.80683	23549.5
648.78172	22919.1
652.75379	22709.4
656.72306	22867.7
660.68952	23335.7
664.65319	23249.5
668.61405	22843
672.57211	22638.1
676.52738	22672.2
680.47986	22738.5
684.42955	22649.5
688.37646	22584.1
692.32058	22673.5
696.26192	22838.2
700.20048	23073.2
704.13626	23279.8
708.06928	23339.9
711.99952	23171.2
715.927	23101.1
719.85171	23102.4
723.77365	23047.3
727.69284	22862.2
731.60928	22672.1
735.52295	22622.9
739.43388	22616.4
743.34206	22634.2
747.24749	22746.9
751.15017	22988
755.05012	23450.8
758.94733	24326
762.8418	25799.4
766.73354	28065
770.62254	30135.4
774.50882	30605.1
778.39237	29019.4
782.27321	26384.3
786.15132	24280.9
790.02671	23015.1
793.89938	22459.7
797.76935	22247.6
801.6366	22225.7
805.50115	22122.4
809.36299	22119.3
813.22213	21993.1
817.07857	21970.2
820.93231	22015.5
824.78336	21887.8
828.63172	21757.7
832.47738	21642
836.32036	21617.3
840.16066	21553.3
843.99827	21553.5
847.8332	21459.4
851.66546	21385.7
855.49504	21337.5
859.32195	21281
863.1462	21237.4
866.96777	21194.5
870.78668	21194.8
874.60293	21166.5
878.41652	21129
882.22745	21198.4
886.03573	21260.5
889.84136	21253.3
893.64433	21181.8
897.44466	21097.5
901.24235	21015.5
905.0374	20912.4
908.8298	20887.9
912.61957	20918
916.40671	21154.2
920.19121	21447.7
923.97308	21587
927.75233	21556.9
931.52895	21371.5
935.30295	21074.2
939.07433	20699.2
942.84309	20312.9
946.60924	20147.2
950.37278	20038.5
954.13371	20015.1
957.89203	19997.9
961.64774	20071.1
965.40086	20009.8
969.15137	19908.4
972.89929	19762.5
976.64461	19563.2
980.38733	19518.2
984.12747	19535
987.86502	19655.5
991.59999	19835.2
995.33237	20050.3
999.06217	20489.3
1002.78939	21095
1006.51404	21509.2
1010.23611	21857.4
1013.95561	22016.3
1017.67255	22011.9
1021.38692	21721.2
1025.09872	21400.4
1028.80796	21207
1032.51465	21331.3
1036.21877	21500.2
1039.92035	21539.3
1043.61937	21558.7
1047.31584	21420.8
1051.00976	21287.2
1054.70114	21278.7
1058.38998	21406.1
1062.07627	21684.4
1065.76003	21967.4
1069.44126	22132.5
1073.11995	22299.8
1076.79611	22467.3
1080.46974	22564
1084.14085	22700.8
1087.80943	23007.6
1091.47549	23305.3
1095.13903	23344.8
1098.80005	23132
1102.45857	22622.8
1106.11456	22224.4
1109.76805	22074.4
1113.41903	22181.4
1117.06751	22437.4
1120.71348	22851.3
1124.35696	23217.4
1127.99793	23601.4
1131.63641	23744.6
1135.2724	23490.9
1138.90589	23205.1
1142.5369	23148.1
1146.16542	23261.9
1149.79145	23532
1153.415	23898.5
1157.03607	24425.8
1160.65467	25215.1
1164.27079	26309.9
1167.88443	27810.6
1171.49561	29690.4
1175.10432	32192.1
1178.71056	35251.3
1182.31434	38013.3
1185.91565	39356.8
1189.51451	39379.5
1193.11091	38616.9
1196.70485	37348.4
1200.29634	36021
1203.88538	34840.2
1207.47197	33918.6
1211.05612	33177.8
1214.63782	32387.3
1218.21708	31642.2
1221.79391	30910.2
1225.36829	30214.9
1228.94024	29639.1
1232.50976	28977.2
1236.07685	28599.1
1239.6415	28371.8
1243.20374	28362.8
1246.76355	28586.7
1250.32093	29006.7
1253.8759	29639.5
1257.42845	30440.9
1260.97859	31327.8
1264.52631	32075.7
1268.07163	32900.3
1271.61453	33796.5
1275.15503	34751.3
1278.69312	35760.3
1282.22882	36605.9
1285.76211	37707
1289.29301	39300.3
1292.82151	41364.7
1296.34761	43951.9
1299.87133	46931.9
1303.39266	49965.1
1306.9116	53193.8
1310.42815	56192
1313.94233	58332.5
1317.45412	58982.9
1320.96354	58535
1324.47058	57893.6
1327.97525	57169.6
1331.47754	56677.6
1334.97747	56529.7
1338.47502	56581.1
1341.97022	56384.9
1345.46305	55414.4
1348.95352	53870.9
1352.44163	52418.4
1355.92738	51922.6
1359.41078	53113.5
1362.89183	54703
1366.37053	53682.8
1369.84688	49293.1
1373.32088	44171.3
1376.79254	40759.1
1380.26186	39694.4
1383.72883	40008.9
1387.19347	40560.7
1390.65578	41025.5
1394.11575	41713.8
1397.57339	42905
1401.0287	44383.3
1404.48168	45770.2
1407.93234	46366.5
1411.38068	45734.9
1414.82669	43954.1
1418.27039	41366.2
1421.71177	38601.3
1425.15083	36219.6
1428.58758	34736.9
1432.02203	34385
1435.45416	34948.7
1438.88399	36038.2
1442.31151	37194.2
1445.73673	38251.4
1449.15965	39351.2
1452.58027	40351.2
1455.9986	41036.7
1459.41463	41531.8
1462.82837	42149.3
1466.23982	42826.1
1469.64898	43419.3
1473.05586	43518.8
1476.46045	43231.1
1479.86276	42585.2
1483.26279	41707.1
1486.66054	40981.4
1490.05602	40609.6
1493.44922	40370.2
1496.84016	40226.1
1500.22882	40432.4
1503.61521	41380.4
1506.99934	42762
1510.38121	44381.7
1513.76081	45399
1517.13816	44961
1520.51324	43209.4
1523.88607	41411.2
1527.25665	40440.5
1530.62498	40090.9
1533.99105	40063.1
1537.35488	40097.9
1540.71647	39758
1544.07581	39083.8
1547.4329	38224.4
1550.78776	37386.2
1554.14038	36741.6
1557.49077	36463.5
1560.83892	36456.3
1564.18484	36576.5
1567.52853	36721.5
1570.86999	36936.5
1574.20922	37517.3
1577.54624	38228.6
1580.88103	38622.8
1584.2136	39121.9
1587.54395	40433.3
1590.87208	42609.5
1594.19801	45183.3
1597.52172	47627.6
1600.84321	48335.4
1604.16251	46343
1607.47959	42562.2
1610.79447	38305
1614.10715	34379.7
1617.41763	31214.4
1620.7259	28980.2
1624.03199	27753
1627.33587	27585.5
1630.63757	28371.5
1633.93707	30256.1
1637.23439	33343.6
1640.52951	37748.3
1643.82246	42814.7
1647.11321	47129.7
1650.40179	48457.3
1653.68819	45607.8
1656.97241	39813.7
1660.25446	33527.4
1663.53433	28565.6
1666.81203	25260.9
1670.08756	23098.6
1673.36092	21780.9
1676.63211	20879
1679.90115	20302.1
1683.16801	19851.7
1686.43272	19534.6
1689.69527	19305.3
1692.95567	19081.5
1696.2139	18961.3
1699.46999	18858.1
1702.72392	18792.7
1705.97571	18726.6
1709.22535	18598.4
1712.47284	18558.4
1715.71819	18507
1718.96139	18417.1
1722.20246	18356.5
1725.44139	18228.4
1728.67818	18111.7
1731.91284	18057.4
1735.14537	17973.2
1738.37576	17922
1741.60403	17847.8
1744.83017	17766.9
1748.05418	17707
1751.27607	17695
1754.49584	17690.5
1757.71349	17644.1
1760.92903	17619.5
1764.14244	17614.8
1767.35375	17579.5
1770.56294	17565.1
1773.77002	17504.4
1776.97499	17419
1780.17785	17394.9
1783.37861	17364.8
1786.57727	17298.4
1789.77382	17279.1
1792.96828	17236.8
1796.16064	17193.5
1799.3509	17182.3
1802.53907	17134.5
1805.72514	17101.9
1808.90913	17051.9
1812.09102	17014.3
1815.27083	16978.9
1818.44856	16912.7
1821.6242	16907.5
1824.79776	16867.3
1827.96924	16885.3
1831.13864	16843.5
1834.30597	16834.9
1837.47122	16846.9
1840.6344	16834.5
1843.7955	16835
1846.95454	16807.8
1850.11151	16850
1853.26642	16807.4
1856.41926	16797.4
1859.57004	16796.9
1862.71876	16784.5
1865.86542	16795.7
1869.01003	16780.7
1872.15258	16747
1875.29308	16760.2
1878.43152	16755
1881.56792	16785.2
1884.70227	16735.9
1887.83457	16737.1
1890.96482	16730.7
1894.09304	16709.7
1897.21921	16719
1900.34335	16753.8
1903.46544	16723.1
1906.58551	16750.1
1909.70353	16716.2
1912.81953	16695.3
1915.93349	16664.6
1919.04543	16591.6
1922.15534	16589
1925.26322	16550.9
1928.36908	16508
1931.47292	16415
1934.57473	16394.3
1937.67453	16337.9
1940.77232	16239.7
1943.86808	16181.9
1946.96184	16166
1950.05358	16084.2
1953.14331	16029
1956.23103	15975.7
1959.31675	15948.4
1962.40046	15897.4
1965.48217	15819.7
1968.56188	15735.6
1971.63959	15710.2
1974.7153	15687.8
1977.78901	15643.2
1980.86073	15557.4
1983.93046	15529.1
1986.99819	15493.2
1990.06394	15435
1993.1277	15393
1996.18947	15304.9
1999.24925	15263.2
2002.30706	15248
2005.36288	15169.2
2008.41672	15137.7
2011.46859	15108.4
2014.51848	15075.9
2017.56639	15002.8
2020.61233	14997
2023.6563	14957.2
2026.6983	14927.7
2029.73833	14924.7
2032.7764	14896.8
2035.8125	14865.9
2038.84664	14828.1
2041.87881	14820.2
2044.90903	14778.7
2047.93729	14767.5
2050.96359	14773.4
2053.98794	14748.9
2057.01034	14719
2060.03078	14667.8
2063.04927	14681.5
2066.06582	14670.6
2069.08042	14634.2
2072.09307	14633.5
2075.10378	14608.9
2078.11255	14599
2081.11938	14620.7
2084.12426	14587.2
2087.12722	14588.1
2090.12824	14583
2093.12732	14547.3
2096.12447	14548.8
2099.11969	14529.4
2102.11299	14588.1
2105.10435	14560.2
2108.09379	14542.2
2111.08131	14601.2
2114.0669	14570.9
2117.05057	14562.2
2120.03233	14578.1
2123.01216	14580.3
2125.99008	14588.2
2128.96609	14567.3
2131.94018	14586.1
2134.91236	14622.8
2137.88263	14601.7
2140.851	14618.9
2143.81746	14631.1
2146.78201	14616
2149.74466	14592
2152.7054	14620.2
2155.66425	14597.3
2158.6212	14578.4
2161.57625	14585
2164.52941	14555.2
2167.48067	14512.2
2170.43004	14547.4
2173.37752	14573.2
2176.32311	14551.2
2179.26681	14560.2
2182.20863	14567
2185.14856	14545.1
2188.08661	14536.8
2191.02278	14523.6
2193.95707	14532.4
2196.88948	14503.2
2199.82001	14492.3
2202.74867	14475.6
2205.67545	14454.7
2208.60037	14443.8
2211.52341	14430.8
2214.44458	14426
2217.36388	14390.9
2220.28132	14381.2
2223.1969	14350.3
2226.11061	14333.7
2229.02246	14289.9
2231.93245	14286.8
2234.84058	14227.5
2237.74686	14210.1
2240.65128	14196.1
2243.55385	14161.6
2246.45456	14146
2249.35343	14100.8
2252.25044	14076.2
2255.14561	14060.3
2258.03893	14027.2
2260.93041	14025.2
2263.82004	13987
2266.70783	13930.8
2269.59378	13909.1
2272.4779	13900.5
2275.36017	13840.7
2278.24061	13811.8
2281.11922	13800.9
2283.996	13774.3
2286.87094	13736.8
2289.74405	13718.6
2292.61534	13706.5
2295.4848	13652.8
2298.35243	13700.4
2301.21824	13651.1
2304.08223	13646
2306.94439	13652.5
2309.80474	13620.1
2312.66327	13637.3
2315.51999	13634.1
2318.37489	13620.5
2321.22797	13612.4
2324.07925	13589.9
2326.92871	13595.3
2329.77637	13596.9
2332.62222	13559
2335.46626	13551.6
2338.3085	13523
2341.14893	13514.9
2343.98756	13536.3
2346.8244	13489.1
2349.65943	13524.7
2352.49267	13510
2355.32411	13531.8
2358.15376	13526.2
2360.98161	13491.6
2363.80768	13484.7
2366.63195	13500.9
2369.45444	13464.4
2372.27514	13485.2
2375.09405	13439.2
2377.91118	13400.5
2380.72652	13395.4
2383.54009	13346.7
2386.35187	13323.8
2389.16188	13282.2
2391.97011	13244.5
2394.77657	13247.6
2397.58125	13205.1
2400.38416	13224
2403.18529	13173.9
2405.98466	13143.9
2408.78226	13136
2411.57809	13152
2414.37216	13109.8
2417.16446	13109.8
2419.955	13082.5
2422.74378	13063.1
2425.5308	13043.1
2428.31606	13063.3
2431.09956	13032.7
2433.88131	13017.9
2436.6613	13004.7
2439.43954	12993.4
2442.21603	12999
2444.99077	12977
2447.76377	13010.3
2450.53501	12991.1
2453.30451	12983.2
2456.07226	12988
2458.83827	12994.4
2461.60254	12963.8
2464.36507	12944
2467.12586	12962.4
2469.88492	12963.7
2472.64224	12970.9
2475.39782	12946.9
2478.15167	13000
2480.90379	12972.3
2483.65417	12981.3
2486.40283	12982.3
2489.14976	13020.7
2491.89497	13013.1
2494.63845	13025.7
2497.3802	13028.4
2500.12024	13002.9
2502.85855	13015.9
2505.59514	13018.7
2508.33002	12997.4
2511.06318	13008.2
2513.79462	12941.9
2516.52435	12943
2519.25237	12939.4
2521.97867	12919.9
2524.70327	12930.4
2527.42616	12880.7
2530.14734	12882.8
2532.86681	12851.3
2535.58458	12858.9
2538.30065	12831.4
2541.01501	12825.6
2543.72768	12806.8
2546.43864	12783.9
2549.14791	12777.4
2551.85548	12782.1
2554.56136	12752.5
2557.26554	12776.4
2559.96803	12753.8
2562.66883	12740
2565.36794	12748.6
2568.06536	12735.7
2570.7611	12705.9
2573.45514	12714.4
2576.14751	12706.9
2578.83819	12710.7
2581.52719	12676.8
2584.21451	12670.5
2586.90015	12700.4
2589.58411	12675.7
2592.2664	12657.9
2594.94701	12674
2597.62594	12680.7
2600.30321	12631.3
2602.9788	12672.1
2605.65273	12627.7
2608.32498	12670.1
2610.99557	12669.3
2613.66449	12673.7
2616.33175	12639.5
2618.99734	12680.7
2621.66128	12667
2624.32355	12655
2626.98416	12680.9
2629.64311	12650
2632.30041	12642.6
2634.95605	12658.5
2637.61004	12633.2
2640.26238	12620.3
2642.91306	12634
2645.56209	12628.7
2648.20948	12623
2650.85521	12627
2653.4993	12617.5
2656.14175	12655.3
2658.78255	12642.1
2661.42171	12632
2664.05923	12647.4
2666.6951	12639
2669.32934	12653.8
2671.96194	12658.2
2674.59291	12668.5
2677.22224	12657.7
2679.84993	12684.8
2682.476	12644.4
2685.10043	12652
2687.72324	12670.1
2690.34441	12668.2
2692.96396	12666.8
2695.58188	12663.2
2698.19818	12662.5
2700.81285	12666.1
2703.4259	12663.5
2706.03733	12713.1
2708.64714	12676.9
2711.25533	12694.1
2713.86191	12661.8
2716.46687	12683.9
2719.07021	12700.3
2721.67194	12733.2
2724.27206	12713
2726.87057	12735.2
2729.46747	12716.1
2732.06276	12725.2
2734.65644	12751.8
2737.24852	12734.6
2739.83899	12731.7
2742.42786	12737.8
2745.01513	12719.4
2747.60079	12690.5
2750.18486	12720.7
2752.76733	12737.4
2755.3482	12738.5
2757.92747	12731.9
2760.50515	12738.3
2763.08123	12752.7
2765.65573	12733.4
2768.22863	12751.2
2770.79994	12710.8
2773.36967	12703.3
2775.9378	12724.6
2778.50435	12699.4
2781.06932	12738.6
2783.6327	12731.4
2786.1945	12708
2788.75471	12723.6
2791.31335	12685.4
2793.87041	12701.3
2796.42589	12636.6
2798.97979	12647.8
2801.53212	12601.7
2804.08288	12633.1
2806.63206	12592.6
2809.17967	12579.1
2811.72571	12549.4
2814.27018	12555.5
2816.81308	12519.4
2819.35442	12508.2
2821.89419	12481.6
2824.43239	12455.4
2826.96904	12463.8
2829.50412	12446.2
2832.03763	12427.5
2834.56959	12461.5
2837.1	12459.5
2839.62884	12429.2
2842.15613	12440.8
2844.68186	12476.3
2847.20604	12487.8
2849.72867	12520.5
2852.24974	12481.7
2854.76927	12499.4
2857.28724	12462.3
2859.80367	12418.5
2862.31855	12428.6
2864.83189	12412.2
2867.34368	12405.3
2869.85393	12410.4
2872.36264	12393.7
2874.8698	12430.7
2877.37543	12414.6
2879.87952	12397.4
2882.38207	12419.3
2884.88308	12408
2887.38256	12397.5
2889.88051	12388.6
2892.37692	12402.4
2894.8718	12412.4
2897.36515	12442.2
2899.85698	12448.6
2902.34727	12462.4
2904.83604	12467.2
2907.32328	12497.4
2909.809	12518.8
2912.29319	12508.2
2914.77587	12510.2
2917.25702	12490.3
2919.73665	12462.4
2922.21476	12503
2924.69136	12469
2927.16644	12486.6
2929.64	12476.7
2932.11205	12442.2
2934.58258	12418.1
2937.05161	12424.1
2939.51912	12449.6
2941.98513	12377.5
2944.44962	12356
2946.91261	12310.5
2949.37409	12293.9
2951.83407	12274.3
2954.29254	12251.2
2956.74951	12199.7
2959.20498	12213.8
2961.65895	12174.7
2964.11142	12180.6
2966.56239	12123.5
2969.01186	12094.7
2971.45984	12083.5
2973.90632	12051.1
2976.35131	11997.5
2978.7948	11980.8
2981.23681	11946.8
2983.67732	11954.5
2986.11635	11917
2988.55388	11869.2
2990.98993	11863.1
2993.4245	11812.9
2995.85758	11784.5
2998.28917	11774.8
3000.71928	11751.7
3003.14791	11721.6
3005.57506	11702.7
3008.00073	11661.2
3010.42493	11657.7
3012.84764	11630.8
3015.26888	11589.1
3017.68865	11561.7
3020.10694	11536.9
3022.52376	11525.7
3024.9391	11537.3
3027.35298	11500.9
3029.76539	11488.4
3032.17632	11454.7
3034.5858	11455.3
3036.9938	11434.6
3039.40034	11410.3
3041.80542	11413
3044.20903	11361.6
3046.61118	11395.1
3049.01187	11353.1
3051.4111	11362.1
3053.80888	11345.3
3056.20519	11323.5
3058.60005	11280.1
3060.99345	11248.9
3063.3854	11207
3065.7759	11174.4
3068.16494	11138.3
3070.55254	11089.6
3072.93868	11089.8
3075.32338	11054.1
3077.70662	11002.3
3080.08842	10977.3
3082.46878	10974.3
3084.84769	10959.1
3087.22515	10957.2
3089.60118	10941.4
3091.97576	10916.4
3094.3489	10909.8
3096.72061	10899.7
3099.09087	10878.3
3101.4597	10852.4
3103.82709	10858.6
3106.19305	10857.8
3108.55757	10817.7
3110.92066	10772.3
3113.28232	10773.4
3115.64255	10741.9
3118.00134	10703.1
3120.35871	10701.3
3122.71466	10654.2
3125.06917	10650.6
3127.42226	10628
3129.77393	10617.1
3132.12417	10614.5
3134.47299	10591.6
3136.82039	10592.7
3139.16636	10609.9
3141.51092	10585.4
3143.85406	10585.9
3146.19579	10587.1
3148.53609	10554.6
3150.87499	10564.9
3153.21246	10565.2
3155.54853	10558.6
3157.88318	10548.6
3160.21642	10549.9
3162.54826	10537.8
3164.87868	10545.7
3167.2077	10537.3
3169.5353	10541.2
3171.86151	10502.6
3174.18631	10491.5
3176.5097	10502.1
3178.83169	10476.6
3181.15228	10491.2
3183.47147	10444.9
3185.78926	10460.3
3188.10565	10456.4
3190.42065	10440.3
3192.73424	10430.1
3195.04645	10454.2
3197.35725	10437
3199.66667	10431.8
3201.97469	10453.7
3204.28132	10431.5
3206.58656	10463.7
3208.8904	10452.3
3211.19287	10451.5
3213.49394	10448.2
3215.79363	10435.5
3218.09193	10409.9
3220.38884	10421.8
3222.68438	10431.9
3224.97853	10420.3
3227.2713	10398.2
3229.56269	10387.2
3231.8527	10384.6
3234.14133	10376.3
3236.42858	10348.5
3238.71446	10321.1
3240.99896	10299.5
3243.28209	10302
3245.56384	10287
3247.84423	10323.8
3250.12324	10297.7
3252.40088	10270.5
3254.67715	10240.7
3256.95205	10204.4
3259.22558	10208.1
3261.49775	10178.7
3263.76855	10156.4
3266.03799	10125.5
3268.30606	10108.1
3270.57277	10082.9
3272.83812	10084.7
3275.10211	10057.5
3277.36474	10019.4
3279.62601	10075
3281.88593	10008.2
3284.14448	10037.6
3286.40168	10054
3288.65753	10024.8
3290.91202	9993.7
3293.16516	9965.1
3295.41695	9947.8
3297.66738	9860.9
3299.91647	9839.5
3302.16421	9777.8
3304.4106	9743.5
3306.65564	9680.7
3308.89933	9617.1
3311.14169	9567.2
3313.38269	9464
3315.62236	9423.7
3317.86068	9314.8
3320.09766	9249.6
3322.3333	9172.3
3324.5676	9173.5
3326.80056	9017.4
3329.03219	8969.9
3331.26248	3
3333.49143	-0.9
3335.71905	-2.4
