Data from AgNPs_FTO_APTES_UA_2uM_CRN_20uM_R6G_10uM_NaF_0.1M_Addition_RamanShift__23__14-24-35-214.txt Node

Date: Wed Feb 02 14:24:35 GMT 2022
User: TCL
Spectrometer: QEP01345
Trigger mode: 4
Integration Time (sec): 7.000000E0
Scans to average: 10
Electric dark correction enabled: true
Nonlinearity correction enabled: false
Boxcar width: 0
XAxis mode: Raman Shifts
Number of Pixels in Spectrum: 1044
>>>>>Begin Spectral Data<<<<<
46.04893	-0.9125
50.45542	0.2875
54.85868	-1.1125
59.25871	-0.5125
63.6555	93.8875
68.04907	102.8875
72.43941	108.8875
76.82654	115.9875
81.21044	118.5875
85.59113	122.3875
89.96862	127.8875
94.34289	132.8875
98.71396	138.5875
103.08183	144.6875
107.4465	143.4875
111.80798	147.0875
116.16626	149.9875
120.52136	158.8875
124.87327	160.2875
129.222	170.8875
133.56755	185.0875
137.90993	195.0875
142.24913	215.7875
146.58517	246.2875
150.91804	281.0875
155.24774	335.2875
159.57429	416.3875
163.89768	540.2875
168.21792	713.9875
172.53501	971.2875
176.84895	1351.9875
181.15975	1887.0875
185.46741	2649.3875
189.77193	3634.6875
194.07331	4868.1875
198.37157	6256.9875
202.6667	7715.3875
206.9587	9168.4875
211.24758	10609.4875
215.53334	12062.3875
219.81599	13633.8875
224.09553	15366.1875
228.37195	17309.8875
232.64527	19444.9875
236.91549	21615.5875
241.18261	23756.7875
245.44663	25712.6875
249.70755	27398.7875
253.96539	28930.6875
258.22014	30205.0875
262.4718	31374.1875
266.72039	32233.7875
270.96589	32810.1875
275.20832	33055.2875
279.44768	33068.6875
283.68397	32928.5875
287.91719	32966.2875
292.14735	33054.2875
296.37445	33350.3875
300.59849	33619.5875
304.81948	33776.1875
309.03742	33653.9875
313.25231	33137.8875
317.46415	31982.2875
321.67296	30518.1875
325.87872	29264.0875
330.08145	28765.0875
334.28114	28652.5875
338.47781	28829.9875
342.67145	29264.4875
346.86207	29916.9875
351.04966	30723.3875
355.23424	31604.9875
359.4158	32352.6875
363.59435	32722.5875
367.76989	32960.1875
371.94243	33051.0875
376.11196	33150.5875
380.27849	33202.5875
384.44203	33274.1875
388.60257	33374.5875
392.76012	33627.5875
396.91468	34108.9875
401.06626	34770.4875
405.21485	35199.6875
409.36047	34903.1875
413.50311	34061.3875
417.64277	33394.9875
421.77947	33159.1875
425.9132	33297.0875
430.04396	33507.2875
434.17176	33763.7875
438.2966	34089.4875
442.41849	34738.6875
446.53742	35758.7875
450.6534	36875.0875
454.76644	37764.9875
458.87653	38105.1875
462.98368	37954.3875
467.08789	37547.0875
471.18916	37028.1875
475.2875	36561.3875
479.38291	36331.6875
483.4754	36079.4875
487.56496	35532.2875
491.6516	34772.4875
495.73531	34130.9875
499.81612	33851.2875
503.89401	33896.6875
507.96899	33998.9875
512.04106	33926.8875
516.11023	33707.6875
520.1765	33419.6875
524.23987	33081.2875
528.30034	32685.6875
532.35792	32248.6875
536.41261	31796.0875
540.46441	31408.5875
544.51333	31403.1875
548.55936	31941.9875
552.60252	32864.1875
556.64279	33876.0875
560.6802	34551.1875
564.71473	34967.0875
568.7464	35803.9875
572.7752	36744.5875
576.80114	37106.3875
580.82422	37230.2875
584.84444	37371.7875
588.86181	37551.7875
592.87633	37909.0875
596.888	38379.8875
600.89682	38805.8875
604.9028	40543.9875
608.90594	45277.4875
612.90624	50532.7875
616.90371	47433.3875
620.89834	37723.8875
624.89015	33436.4875
628.87913	32885.6875
632.86528	33058.7875
636.84862	33039.1875
640.82913	32445.0875
644.80683	31286.7875
648.78172	30423.8875
652.75379	30237.4875
656.72306	30700.9875
660.68952	31472.6875
664.65319	31440.4875
668.61405	30672.1875
672.57211	30345.5875
676.52738	30396.6875
680.47986	30423.9875
684.42955	30224.2875
688.37646	30153.1875
692.32058	30265.4875
696.26192	30586.3875
700.20048	30929.2875
704.13626	31251.8875
708.06928	31254.1875
711.99952	30997.3875
715.927	30832.3875
719.85171	30845.3875
723.77365	30691.0875
727.69284	30327.6875
731.60928	29971.8875
735.52295	29894.2875
739.43388	29921.2875
743.34206	30029.8875
747.24749	30265.6875
751.15017	30665.2875
755.05012	31291.4875
758.94733	32558.8875
762.8418	34876.4875
766.73354	38500.8875
770.62254	42009.5875
774.50882	42824.0875
778.39237	40352.1875
782.27321	36372.2875
786.15132	33133.1875
790.02671	31197.4875
793.89938	30250.5875
797.76935	29854.4875
801.6366	29757.7875
805.50115	29643.2875
809.36299	29458.7875
813.22213	29281.4875
817.07857	29173.9875
820.93231	29195.7875
824.78336	29121.0875
828.63172	28997.4875
832.47738	28995.4875
836.32036	28956.1875
840.16066	29011.6875
843.99827	29000.5875
847.8332	28938.1875
851.66546	28788.0875
855.49504	28712.2875
859.32195	28659.6875
863.1462	28499.7875
866.96777	28411.2875
870.78668	28339.1875
874.60293	28295.1875
878.41652	28325.6875
882.22745	28407.7875
886.03573	28526.3875
889.84136	28454.9875
893.64433	28313.9875
897.44466	28218.5875
901.24235	28140.6875
905.0374	28033.4875
908.8298	28034.4875
912.61957	28074.6875
916.40671	28424.0875
920.19121	28933.3875
923.97308	29213.2875
927.75233	29309.5875
931.52895	29120.4875
935.30295	28660.2875
939.07433	28036.5875
942.84309	27441.1875
946.60924	27186.9875
950.37278	27083.4875
954.13371	27026.3875
957.89203	26921.5875
961.64774	26881.9875
965.40086	26840.4875
969.15137	26725.5875
972.89929	26595.4875
976.64461	26445.7875
980.38733	26434.8875
984.12747	26520.2875
987.86502	26747.4875
991.59999	27165.4875
995.33237	27641.0875
999.06217	28564.1875
1002.78939	29681.5875
1006.51404	30459.5875
1010.23611	31025.0875
1013.95561	31360.9875
1017.67255	31350.9875
1021.38692	30953.9875
1025.09872	30568.8875
1028.80796	30582.6875
1032.51465	31265.7875
1036.21877	31940.5875
1039.92035	32037.8875
1043.61937	31740.0875
1047.31584	31019.9875
1051.00976	30225.0875
1054.70114	29877.1875
1058.38998	29885.4875
1062.07627	30139.2875
1065.76003	30459.6875
1069.44126	30795.9875
1073.11995	31102.7875
1076.79611	31396.3875
1080.46974	31621.3875
1084.14085	31943.8875
1087.80943	32381.8875
1091.47549	32718.6875
1095.13903	32642.6875
1098.80005	32118.9875
1102.45857	31316.6875
1106.11456	30640.8875
1109.76805	30490.3875
1113.41903	30669.7875
1117.06751	31107.1875
1120.71348	31680.3875
1124.35696	32213.1875
1127.99793	32781.6875
1131.63641	32975.1875
1135.2724	32598.4875
1138.90589	32135.4875
1142.5369	31884.2875
1146.16542	31885.8875
1149.79145	32037.5875
1153.415	32416.3875
1157.03607	33032.3875
1160.65467	33964.8875
1164.27079	35504.8875
1167.88443	37525.6875
1171.49561	40345.8875
1175.10432	44216.5875
1178.71056	49047.7875
1182.31434	53348.0875
1185.91565	55830.0875
1189.51451	56117.5875
1193.11091	54653.4875
1196.70485	52095.3875
1200.29634	49281.3875
1203.88538	46838.4875
1207.47197	44882.2875
1211.05612	43412.2875
1214.63782	42408.9875
1218.21708	41771.3875
1221.79391	41407.1875
1225.36829	41185.0875
1228.94024	40815.2875
1232.50976	40310.0875
1236.07685	39995.4875
1239.6415	39739.2875
1243.20374	39570.1875
1246.76355	39768.0875
1250.32093	40274.9875
1253.8759	41270.6875
1257.42845	42631.9875
1260.97859	44032.8875
1264.52631	45248.1875
1268.07163	46535.5875
1271.61453	47914.5875
1275.15503	49518.9875
1278.69312	50987.9875
1282.22882	52294.3875
1285.76211	53652.4875
1289.29301	55264.3875
1292.82151	57304.5875
1296.34761	59969.8875
1299.87133	63360.8875
1303.39266	67434.5875
1306.9116	72180.0875
1310.42815	77203.5875
1313.94233	80825.2875
1317.45412	81642.3875
1320.96354	80599.4875
1324.47058	78969.0875
1327.97525	77316.8875
1331.47754	76199.8875
1334.97747	75702.3875
1338.47502	75742.5875
1341.97022	75875.4875
1345.46305	75234.5875
1348.95352	73639.7875
1352.44163	72285.6875
1355.92738	72528.5875
1359.41078	75392.6875
1362.89183	78667.5875
1366.37053	77311.2875
1369.84688	70420.4875
1373.32088	62525.9875
1376.79254	57127.5875
1380.26186	54991.6875
1383.72883	54475.7875
1387.19347	54455.7875
1390.65578	54292.2875
1394.11575	54475.5875
1397.57339	55446.7875
1401.0287	56925.1875
1404.48168	58444.0875
1407.93234	59267.2875
1411.38068	58918.6875
1414.82669	57245.1875
1418.27039	54582.8875
1421.71177	51724.0875
1425.15083	49289.9875
1428.58758	47804.9875
1432.02203	47512.3875
1435.45416	48196.5875
1438.88399	49258.4875
1442.31151	50321.1875
1445.73673	51375.2875
1449.15965	52404.7875
1452.58027	53299.6875
1455.9986	53852.4875
1459.41463	54449.6875
1462.82837	55269.6875
1466.23982	56366.5875
1469.64898	57281.7875
1473.05586	57649.1875
1476.46045	57472.2875
1479.86276	57077.0875
1483.26279	56558.1875
1486.66054	56297.8875
1490.05602	56428.6875
1493.44922	56913.6875
1496.84016	57407.8875
1500.22882	58521.6875
1503.61521	60445.7875
1506.99934	63009.4875
1510.38121	65881.5875
1513.76081	67338.2875
1517.13816	66254.3875
1520.51324	63086.9875
1523.88607	59704.6875
1527.25665	57550.3875
1530.62498	56372.5875
1533.99105	55725.6875
1537.35488	55278.8875
1540.71647	54640.6875
1544.07581	53898.7875
1547.4329	52897.1875
1550.78776	51964.2875
1554.14038	51463.1875
1557.49077	51281.7875
1560.83892	51414.4875
1564.18484	51556.8875
1567.52853	51531.2875
1570.86999	51541.3875
1574.20922	51983.9875
1577.54624	52421.6875
1580.88103	52383.7875
1584.2136	52432.7875
1587.54395	53689.9875
1590.87208	56387.3875
1594.19801	59958.7875
1597.52172	63516.3875
1600.84321	64673.4875
1604.16251	62035.4875
1607.47959	57247.7875
1610.79447	52025.2875
1614.10715	47118.5875
1617.41763	43066.0875
1620.7259	40206.9875
1624.03199	38673.9875
1627.33587	38505.2875
1630.63757	39687.8875
1633.93707	42324.2875
1637.23439	46412.0875
1640.52951	51990.2875
1643.82246	57976.8875
1647.11321	62605.0875
1650.40179	63808.8875
1653.68819	60136.6875
1656.97241	52584.8875
1660.25446	44538.3875
1663.53433	38313.2875
1666.81203	34192.8875
1670.08756	31593.6875
1673.36092	29983.9875
1676.63211	28887.1875
1679.90115	28133.6875
1683.16801	27581.8875
1686.43272	27143.8875
1689.69527	26898.7875
1692.95567	26639.9875
1696.2139	26483.9875
1699.46999	26341.6875
1702.72392	26242.1875
1705.97571	26199.1875
1709.22535	26073.0875
1712.47284	26024.3875
1715.71819	25957.6875
1718.96139	25878.0875
1722.20246	25821.7875
1725.44139	25678.7875
1728.67818	25525.7875
1731.91284	25361.3875
1735.14537	25190.1875
1738.37576	25068.7875
1741.60403	24949.3875
1744.83017	24911.6875
1748.05418	24912.0875
1751.27607	24819.3875
1754.49584	24759.7875
1757.71349	24786.0875
1760.92903	24707.7875
1764.14244	24627.4875
1767.35375	24624.9875
1770.56294	24584.6875
1773.77002	24526.1875
1776.97499	24523.4875
1780.17785	24437.3875
1783.37861	24382.2875
1786.57727	24347.9875
1789.77382	24296.1875
1792.96828	24254.1875
1796.16064	24268.8875
1799.3509	24211.7875
1802.53907	24194.4875
1805.72514	24098.5875
1808.90913	24011.3875
1812.09102	23955.4875
1815.27083	23959.5875
1818.44856	23952.6875
1821.6242	23858.4875
1824.79776	23864.4875
1827.96924	23817.8875
1831.13864	23809.9875
1834.30597	23831.0875
1837.47122	23815.9875
1840.6344	23815.5875
1843.7955	23860.5875
1846.95454	23853.3875
1850.11151	23911.3875
1853.26642	23919.4875
1856.41926	23906.4875
1859.57004	23882.5875
1862.71876	23901.3875
1865.86542	23928.8875
1869.01003	23888.5875
1872.15258	23941.2875
1875.29308	23939.1875
1878.43152	23921.5875
1881.56792	23971.1875
1884.70227	23985.5875
1887.83457	24014.2875
1890.96482	23999.3875
1894.09304	24004.3875
1897.21921	24026.6875
1900.34335	24054.5875
1903.46544	24025.1875
1906.58551	24039.4875
1909.70353	24042.0875
1912.81953	24060.6875
1915.93349	23996.4875
1919.04543	23896.5875
1922.15534	23861.8875
1925.26322	23833.6875
1928.36908	23697.6875
1931.47292	23654.2875
1934.57473	23469.1875
1937.67453	23397.0875
1940.77232	23258.7875
1943.86808	23172.0875
1946.96184	23114.1875
1950.05358	22982.6875
1953.14331	22864.5875
1956.23103	22805.6875
1959.31675	22710.1875
1962.40046	22639.3875
1965.48217	22553.7875
1968.56188	22503.7875
1971.63959	22427.8875
1974.7153	22380.7875
1977.78901	22312.9875
1980.86073	22178.9875
1983.93046	22149.0875
1986.99819	22028.2875
1990.06394	22026.3875
1993.1277	21938.4875
1996.18947	21858.3875
1999.24925	21806.0875
2002.30706	21758.2875
2005.36288	21647.8875
2008.41672	21610.3875
2011.46859	21542.5875
2014.51848	21462.6875
2017.56639	21417.2875
2020.61233	21394.8875
2023.6563	21368.6875
2026.6983	21289.8875
2029.73833	21292.5875
2032.7764	21222.8875
2035.8125	21181.1875
2038.84664	21158.4875
2041.87881	21118.4875
2044.90903	21091.9875
2047.93729	21070.0875
2050.96359	21062.1875
2053.98794	21050.3875
2057.01034	21018.7875
2060.03078	20989.5875
2063.04927	20949.1875
2066.06582	20960.5875
2069.08042	20925.4875
2072.09307	20899.9875
2075.10378	20850.5875
2078.11255	20843.5875
2081.11938	20815.2875
2084.12426	20806.4875
2087.12722	20810.7875
2090.12824	20830.2875
2093.12732	20797.7875
2096.12447	20824.1875
2099.11969	20812.1875
2102.11299	20837.3875
2105.10435	20820.8875
2108.09379	20796.7875
2111.08131	20822.7875
2114.0669	20832.6875
2117.05057	20808.8875
2120.03233	20865.9875
2123.01216	20848.8875
2125.99008	20871.6875
2128.96609	20896.5875
2131.94018	20921.8875
2134.91236	20922.6875
2137.88263	20950.2875
2140.851	20949.1875
2143.81746	20970.5875
2146.78201	20963.9875
2149.74466	20919.9875
2152.7054	20954.8875
2155.66425	20931.5875
2158.6212	20933.7875
2161.57625	20915.1875
2164.52941	20930.5875
2167.48067	20923.0875
2170.43004	20911.5875
2173.37752	20905.2875
2176.32311	20869.4875
2179.26681	20899.8875
2182.20863	20902.1875
2185.14856	20895.6875
2188.08661	20903.1875
2191.02278	20922.4875
2193.95707	20898.9875
2196.88948	20898.6875
2199.82001	20912.2875
2202.74867	20879.9875
2205.67545	20879.3875
2208.60037	20854.0875
2211.52341	20846.2875
2214.44458	20798.4875
2217.36388	20773.6875
2220.28132	20747.5875
2223.1969	20720.0875
2226.11061	20720.6875
2229.02246	20624.4875
2231.93245	20617.7875
2234.84058	20604.0875
2237.74686	20521.0875
2240.65128	20514.8875
2243.55385	20458.4875
2246.45456	20470.3875
2249.35343	20428.6875
2252.25044	20400.7875
2255.14561	20380.9875
2258.03893	20315.8875
2260.93041	20318.8875
2263.82004	20276.3875
2266.70783	20221.3875
2269.59378	20129.0875
2272.4779	20097.3875
2275.36017	20059.1875
2278.24061	20011.9875
2281.11922	19988.3875
2283.996	19946.9875
2286.87094	19911.0875
2289.74405	19883.8875
2292.61534	19916.8875
2295.4848	19865.4875
2298.35243	19874.4875
2301.21824	19884.8875
2304.08223	19882.2875
2306.94439	19909.1875
2309.80474	19941.1875
2312.66327	19923.6875
2315.51999	19917.9875
2318.37489	19903.4875
2321.22797	19871.2875
2324.07925	19855.6875
2326.92871	19847.5875
2329.77637	19883.3875
2332.62222	19837.4875
2335.46626	19826.9875
2338.3085	19841.9875
2341.14893	19842.0875
2343.98756	19844.9875
2346.8244	19868.9875
2349.65943	19884.1875
2352.49267	19902.5875
2355.32411	19869.5875
2358.15376	19874.5875
2360.98161	19875.0875
2363.80768	19868.9875
2366.63195	19794.2875
2369.45444	19791.7875
2372.27514	19766.7875
2375.09405	19721.5875
2377.91118	19662.3875
2380.72652	19619.4875
2383.54009	19560.6875
2386.35187	19549.5875
2389.16188	19502.8875
2391.97011	19458.5875
2394.77657	19400.5875
2397.58125	19394.8875
2400.38416	19359.1875
2403.18529	19368.4875
2405.98466	19322.5875
2408.78226	19292.4875
2411.57809	19272.1875
2414.37216	19203.0875
2417.16446	19215.4875
2419.955	19177.7875
2422.74378	19135.7875
2425.5308	19172.7875
2428.31606	19156.8875
2431.09956	19136.0875
2433.88131	19112.6875
2436.6613	19123.5875
2439.43954	19086.7875
2442.21603	19099.5875
2444.99077	19076.1875
2447.76377	19066.6875
2450.53501	19064.3875
2453.30451	19059.0875
2456.07226	19070.7875
2458.83827	19050.8875
2461.60254	19084.8875
2464.36507	19100.6875
2467.12586	19093.9875
2469.88492	19064.9875
2472.64224	19063.1875
2475.39782	19069.4875
2478.15167	19115.0875
2480.90379	19130.9875
2483.65417	19140.9875
2486.40283	19161.3875
2489.14976	19200.7875
2491.89497	19167.5875
2494.63845	19225.1875
2497.3802	19223.3875
2500.12024	19202.1875
2502.85855	19195.1875
2505.59514	19211.1875
2508.33002	19186.7875
2511.06318	19216.6875
2513.79462	19158.7875
2516.52435	19120.7875
2519.25237	19152.7875
2521.97867	19071.0875
2524.70327	19069.0875
2527.42616	19097.6875
2530.14734	19062.3875
2532.86681	19032.2875
2535.58458	19052.0875
2538.30065	18989.4875
2541.01501	19031.1875
2543.72768	18974.2875
2546.43864	18941.8875
2549.14791	18970.4875
2551.85548	18964.8875
2554.56136	18945.1875
2557.26554	18940.7875
2559.96803	18911.5875
2562.66883	18911.9875
2565.36794	18886.1875
2568.06536	18875.9875
2570.7611	18857.5875
2573.45514	18847.1875
2576.14751	18823.0875
2578.83819	18827.6875
2581.52719	18840.7875
2584.21451	18819.2875
2586.90015	18806.9875
2589.58411	18831.5875
2592.2664	18831.0875
2594.94701	18807.9875
2597.62594	18821.3875
2600.30321	18811.9875
2602.9788	18796.6875
2605.65273	18794.5875
2608.32498	18829.3875
2610.99557	18823.6875
2613.66449	18848.9875
2616.33175	18845.5875
2618.99734	18827.9875
2621.66128	18853.5875
2624.32355	18817.3875
2626.98416	18848.8875
2629.64311	18882.5875
2632.30041	18873.1875
2634.95605	18876.5875
2637.61004	18851.3875
2640.26238	18830.7875
2642.91306	18807.4875
2645.56209	18771.1875
2648.20948	18753.1875
2650.85521	18749.8875
2653.4993	18770.5875
2656.14175	18758.7875
2658.78255	18775.1875
2661.42171	18759.1875
2664.05923	18814.4875
2666.6951	18835.7875
2669.32934	18890.7875
2671.96194	18846.6875
2674.59291	18887.0875
2677.22224	18843.2875
2679.84993	18865.6875
2682.476	18860.1875
2685.10043	18854.3875
2687.72324	18839.1875
2690.34441	18813.1875
2692.96396	18795.6875
2695.58188	18813.4875
2698.19818	18794.3875
2700.81285	18765.5875
2703.4259	18797.4875
2706.03733	18878.3875
2708.64714	18837.5875
2711.25533	18823.3875
2713.86191	18823.9875
2716.46687	18815.7875
2719.07021	18845.7875
2721.67194	18879.7875
2724.27206	18859.6875
2726.87057	18843.9875
2729.46747	18863.2875
2732.06276	18880.7875
2734.65644	18847.3875
2737.24852	18832.9875
2739.83899	18831.4875
2742.42786	18837.5875
2745.01513	18804.2875
2747.60079	18838.9875
2750.18486	18838.0875
2752.76733	18883.8875
2755.3482	18864.0875
2757.92747	18903.7875
2760.50515	18886.8875
2763.08123	18872.2875
2765.65573	18859.3875
2768.22863	18836.6875
2770.79994	18818.5875
2773.36967	18821.1875
2775.9378	18820.7875
2778.50435	18816.0875
2781.06932	18799.8875
2783.6327	18825.4875
2786.1945	18813.0875
2788.75471	18809.5875
2791.31335	18771.2875
2793.87041	18733.8875
2796.42589	18675.4875
2798.97979	18682.5875
2801.53212	18643.3875
2804.08288	18671.7875
2806.63206	18602.7875
2809.17967	18622.5875
2811.72571	18554.1875
2814.27018	18549.5875
2816.81308	18504.5875
2819.35442	18499.7875
2821.89419	18499.4875
2824.43239	18498.8875
2826.96904	18495.6875
2829.50412	18460.9875
2832.03763	18431.7875
2834.56959	18427.0875
2837.1	18418.4875
2839.62884	18443.7875
2842.15613	18408.8875
2844.68186	18465.0875
2847.20604	18487.7875
2849.72867	18470.4875
2852.24974	18499.5875
2854.76927	18466.5875
2857.28724	18422.2875
2859.80367	18422.6875
2862.31855	18393.0875
2864.83189	18367.9875
2867.34368	18313.6875
2869.85393	18350.1875
2872.36264	18289.3875
2874.8698	18337.4875
2877.37543	18338.4875
2879.87952	18315.2875
2882.38207	18369.7875
2884.88308	18355.2875
2887.38256	18344.9875
2889.88051	18332.8875
2892.37692	18357.0875
2894.8718	18370.8875
2897.36515	18402.3875
2899.85698	18388.3875
2902.34727	18430.6875
2904.83604	18450.7875
2907.32328	18476.1875
2909.809	18470.8875
2912.29319	18439.6875
2914.77587	18414.4875
2917.25702	18417.2875
2919.73665	18389.1875
2922.21476	18425.9875
2924.69136	18426.3875
2927.16644	18409.4875
2929.64	18397.1875
2932.11205	18415.8875
2934.58258	18336.8875
2937.05161	18347.6875
2939.51912	18311.0875
2941.98513	18276.0875
2944.44962	18275.0875
2946.91261	18156.0875
2949.37409	18190.0875
2951.83407	18163.7875
2954.29254	18157.8875
2956.74951	18144.5875
2959.20498	18118.9875
2961.65895	18083.2875
2964.11142	18064.9875
2966.56239	17996.2875
2969.01186	18007.5875
2971.45984	17943.3875
2973.90632	17929.9875
2976.35131	17854.7875
2978.7948	17790.5875
2981.23681	17759.1875
2983.67732	17740.6875
2986.11635	17694.2875
2988.55388	17676.5875
2990.98993	17615.5875
2993.4245	17564.7875
2995.85758	17539.5875
2998.28917	17465.7875
3000.71928	17467.9875
3003.14791	17420.3875
3005.57506	17413.8875
3008.00073	17361.5875
3010.42493	17361.5875
3012.84764	17325.3875
3015.26888	17296.6875
3017.68865	17277.2875
3020.10694	17204.9875
3022.52376	17175.8875
3024.9391	17153.8875
3027.35298	17086.3875
3029.76539	17066.7875
3032.17632	17040.9875
3034.5858	17027.1875
3036.9938	17028.1875
3039.40034	17027.3875
3041.80542	16998.5875
3044.20903	16966.5875
3046.61118	16964.0875
3049.01187	16938.2875
3051.4111	16909.6875
3053.80888	16858.6875
3056.20519	16836.8875
3058.60005	16780.5875
3060.99345	16729.7875
3063.3854	16690.9875
3065.7759	16641.9875
3068.16494	16577.1875
3070.55254	16502.2875
3072.93868	16485.1875
3075.32338	16411.9875
3077.70662	16459.9875
3080.08842	16365.3875
3082.46878	16361.7875
3084.84769	16305.7875
3087.22515	16322.5875
3089.60118	16285.7875
3091.97576	16246.4875
3094.3489	16284.8875
3096.72061	16236.5875
3099.09087	16234.9875
3101.4597	16181.7875
3103.82709	16196.8875
3106.19305	16173.0875
3108.55757	16164.4875
3110.92066	16072.6875
3113.28232	16053.1875
3115.64255	15997.7875
3118.00134	15972.0875
3120.35871	15940.0875
3122.71466	15901.1875
3125.06917	15850.7875
3127.42226	15855.3875
3129.77393	15856.8875
3132.12417	15816.3875
3134.47299	15842.2875
3136.82039	15790.5875
3139.16636	15782.9875
3141.51092	15757.7875
3143.85406	15780.9875
3146.19579	15748.4875
3148.53609	15740.9875
3150.87499	15748.1875
3153.21246	15764.7875
3155.54853	15745.5875
3157.88318	15765.9875
3160.21642	15744.6875
3162.54826	15720.1875
3164.87868	15702.9875
3167.2077	15683.9875
3169.5353	15699.8875
3171.86151	15673.1875
3174.18631	15650.2875
3176.5097	15645.0875
3178.83169	15624.9875
3181.15228	15615.0875
3183.47147	15594.1875
3185.78926	15591.3875
3188.10565	15606.0875
3190.42065	15609.3875
3192.73424	15589.3875
3195.04645	15573.5875
3197.35725	15561.1875
3199.66667	15554.0875
3201.97469	15587.5875
3204.28132	15543.2875
3206.58656	15551.3875
3208.8904	15550.0875
3211.19287	15578.4875
3213.49394	15536.2875
3215.79363	15551.1875
3218.09193	15560.9875
3220.38884	15534.5875
3222.68438	15550.0875
3224.97853	15506.8875
3227.2713	15518.3875
3229.56269	15453.3875
3231.8527	15489.2875
3234.14133	15419.0875
3236.42858	15404.5875
3238.71446	15404.9875
3240.99896	15378.9875
3243.28209	15349.5875
3245.56384	15311.5875
3247.84423	15366.5875
3250.12324	15306.4875
3252.40088	15275.4875
3254.67715	15264.7875
3256.95205	15244.2875
3259.22558	15237.3875
3261.49775	15204.9875
3263.76855	15177.7875
3266.03799	15131.4875
3268.30606	15101.0875
3270.57277	15109.4875
3272.83812	15107.1875
3275.10211	15059.2875
3277.36474	15081.2875
3279.62601	15040.9875
3281.88593	15008.8875
3284.14448	15037.0875
3286.40168	15002.0875
3288.65753	15008.9875
3290.91202	14989.0875
3293.16516	14936.0875
3295.41695	14889.6875
3297.66738	14776.8875
3299.91647	14754.5875
3302.16421	14675.3875
3304.4106	14594.2875
3306.65564	14511.0875
3308.89933	14427.8875
3311.14169	14346.9875
3313.38269	14231.8875
3315.62236	14127.3875
3317.86068	14022.5875
3320.09766	13877.1875
3322.3333	13742.6875
3324.5676	13761.3875
3326.80056	13539.2875
3329.03219	13469.7875
3331.26248	2.4875
3333.49143	-0.0125
3335.71905	-0.7125
