Data from AgNPs_FTO_APTES_UA_2uM_CRN_50uM_R6G_10uM_NaF_0.1M_Addition_RamanShift__22__15-01-55-257.txt Node

Date: Wed Feb 02 15:01:55 GMT 2022
User: TCL
Spectrometer: QEP01345
Trigger mode: 4
Integration Time (sec): 7.000000E0
Scans to average: 10
Electric dark correction enabled: true
Nonlinearity correction enabled: false
Boxcar width: 0
XAxis mode: Raman Shifts
Number of Pixels in Spectrum: 1044
>>>>>Begin Spectral Data<<<<<
46.04893	-0.9125
50.45542	0.6875
54.85868	-0.8125
59.25871	-0.8125
63.6555	95.7875
68.04907	99.1875
72.43941	103.5875
76.82654	110.2875
81.21044	114.0875
85.59113	120.1875
89.96862	122.0875
94.34289	126.8875
98.71396	131.5875
103.08183	138.6875
107.4465	141.3875
111.80798	142.9875
116.16626	145.2875
120.52136	152.8875
124.87327	156.0875
129.222	165.6875
133.56755	173.8875
137.90993	186.9875
142.24913	213.7875
146.58517	234.9875
150.91804	264.5875
155.24774	326.0875
159.57429	397.8875
163.89768	510.6875
168.21792	674.3875
172.53501	916.1875
176.84895	1276.7875
181.15975	1790.4875
185.46741	2497.2875
189.77193	3438.1875
194.07331	4593.3875
198.37157	5913.7875
202.6667	7280.6875
206.9587	8655.3875
211.24758	9982.0875
215.53334	11344.4875
219.81599	12810.3875
224.09553	14411.1875
228.37195	16173.4875
232.64527	18078.6875
236.91549	20130.2875
241.18261	22118.3875
245.44663	23974.9875
249.70755	25644.4875
253.96539	27133.2875
258.22014	28433.7875
262.4718	29541.4875
266.72039	30420.9875
270.96589	31002.2875
275.20832	31237.1875
279.44768	31302.7875
283.68397	31250.2875
287.91719	31277.7875
292.14735	31393.6875
296.37445	31611.8875
300.59849	31757.1875
304.81948	31722.8875
309.03742	31407.5875
313.25231	30756.5875
317.46415	29762.8875
321.67296	28539.6875
325.87872	27581.2875
330.08145	27125.0875
334.28114	27022.8875
338.47781	27152.9875
342.67145	27484.9875
346.86207	27933.7875
351.04966	28529.4875
355.23424	29160.7875
359.4158	29655.3875
363.59435	29962.1875
367.76989	30172.9875
371.94243	30266.5875
376.11196	30430.7875
380.27849	30492.6875
384.44203	30632.6875
388.60257	30900.3875
392.76012	31192.9875
396.91468	31599.4875
401.06626	32133.9875
405.21485	32484.7875
409.36047	32251.1875
413.50311	31747.6875
417.64277	31276.8875
421.77947	31173.7875
425.9132	31343.0875
430.04396	31570.2875
434.17176	31854.1875
438.2966	32187.0875
442.41849	32811.6875
446.53742	33753.5875
450.6534	34909.5875
454.76644	35816.0875
458.87653	36160.7875
462.98368	36117.1875
467.08789	35835.2875
471.18916	35475.9875
475.2875	35361.4875
479.38291	35432.5875
483.4754	35267.9875
487.56496	34704.2875
491.6516	33788.9875
495.73531	32878.8875
499.81612	32352.4875
503.89401	32356.7875
507.96899	32363.4875
512.04106	32215.7875
516.11023	31888.2875
520.1765	31433.6875
524.23987	31038.3875
528.30034	30646.3875
532.35792	30311.4875
536.41261	29945.9875
540.46441	29737.0875
544.51333	29882.8875
548.55936	30415.8875
552.60252	31369.5875
556.64279	32313.7875
560.6802	33009.9875
564.71473	33479.3875
568.7464	34204.9875
572.7752	35121.2875
576.80114	35642.0875
580.82422	35921.0875
584.84444	36158.7875
588.86181	36393.6875
592.87633	36869.9875
596.888	37343.3875
600.89682	37580.1875
604.9028	38536.1875
608.90594	41481.1875
612.90624	44458.8875
616.90371	41389.8875
620.89834	34156.2875
624.89015	30973.0875
628.87913	30658.8875
632.86528	30955.9875
636.84862	31026.4875
640.82913	30454.8875
644.80683	29506.3875
648.78172	28703.2875
652.75379	28382.4875
656.72306	28621.7875
660.68952	29169.8875
664.65319	29089.9875
668.61405	28532.1875
672.57211	28310.7875
676.52738	28331.1875
680.47986	28395.2875
684.42955	28257.0875
688.37646	28137.8875
692.32058	28243.1875
696.26192	28486.8875
700.20048	28896.6875
704.13626	29128.8875
708.06928	29109.4875
711.99952	28918.0875
715.927	28788.5875
719.85171	28798.4875
723.77365	28714.7875
727.69284	28406.4875
731.60928	28118.7875
735.52295	28025.9875
739.43388	27989.7875
743.34206	28071.3875
747.24749	28291.5875
751.15017	28610.7875
755.05012	29314.4875
758.94733	30420.3875
762.8418	32378.9875
766.73354	35277.5875
770.62254	37867.2875
774.50882	38089.5875
778.39237	35836.0875
782.27321	32630.0875
786.15132	30135.6875
790.02671	28705.7875
793.89938	27939.5875
797.76935	27665.1875
801.6366	27587.5875
805.50115	27624.5875
809.36299	27493.1875
813.22213	27320.5875
817.07857	27273.3875
820.93231	27208.4875
824.78336	27107.4875
828.63172	26967.5875
832.47738	26829.1875
836.32036	26837.1875
840.16066	26841.6875
843.99827	26826.5875
847.8332	26736.8875
851.66546	26611.7875
855.49504	26592.8875
859.32195	26500.1875
863.1462	26394.3875
866.96777	26300.5875
870.78668	26229.6875
874.60293	26208.1875
878.41652	26200.6875
882.22745	26270.3875
886.03573	26327.4875
889.84136	26338.6875
893.64433	26214.1875
897.44466	26111.1875
901.24235	26031.5875
905.0374	25934.2875
908.8298	25874.9875
912.61957	25998.2875
916.40671	26370.9875
920.19121	26791.2875
923.97308	27082.0875
927.75233	27035.1875
931.52895	26792.7875
935.30295	26372.7875
939.07433	25791.0875
942.84309	25360.8875
946.60924	25073.0875
950.37278	24978.3875
954.13371	24925.3875
957.89203	24911.3875
961.64774	24926.5875
965.40086	24882.7875
969.15137	24810.4875
972.89929	24613.7875
976.64461	24421.2875
980.38733	24386.8875
984.12747	24439.3875
987.86502	24652.8875
991.59999	24895.3875
995.33237	25365.2875
999.06217	26045.3875
1002.78939	27005.3875
1006.51404	27636.5875
1010.23611	28013.8875
1013.95561	28344.8875
1017.67255	28343.0875
1021.38692	28005.2875
1025.09872	27632.4875
1028.80796	27636.6875
1032.51465	28026.5875
1036.21877	28506.4875
1039.92035	28693.5875
1043.61937	28419.3875
1047.31584	27953.4875
1051.00976	27439.1875
1054.70114	27265.4875
1058.38998	27367.6875
1062.07627	27684.4875
1065.76003	28065.5875
1069.44126	28357.4875
1073.11995	28679.3875
1076.79611	28931.5875
1080.46974	29030.2875
1084.14085	29243.0875
1087.80943	29596.6875
1091.47549	29940.0875
1095.13903	29999.0875
1098.80005	29606.6875
1102.45857	28920.4875
1106.11456	28311.7875
1109.76805	28075.1875
1113.41903	28165.8875
1117.06751	28467.8875
1120.71348	28888.9875
1124.35696	29279.3875
1127.99793	29726.2875
1131.63641	30000.9875
1135.2724	29751.6875
1138.90589	29538.6875
1142.5369	29485.8875
1146.16542	29648.5875
1149.79145	29985.6875
1153.415	30497.0875
1157.03607	31207.5875
1160.65467	32199.4875
1164.27079	33831.2875
1167.88443	35900.2875
1171.49561	38476.8875
1175.10432	41895.3875
1178.71056	46090.7875
1182.31434	49886.5875
1185.91565	51969.0875
1189.51451	52337.9875
1193.11091	51307.7875
1196.70485	49411.5875
1200.29634	47082.3875
1203.88538	45043.5875
1207.47197	43636.4875
1211.05612	42545.1875
1214.63782	41529.0875
1218.21708	40581.5875
1221.79391	39766.6875
1225.36829	39191.8875
1228.94024	38571.2875
1232.50976	37987.3875
1236.07685	37512.5875
1239.6415	37296.7875
1243.20374	37236.9875
1246.76355	37479.9875
1250.32093	37974.8875
1253.8759	38827.6875
1257.42845	40061.9875
1260.97859	41356.0875
1264.52631	42462.0875
1268.07163	43644.2875
1271.61453	45021.0875
1275.15503	46471.6875
1278.69312	48040.7875
1282.22882	49399.4875
1285.76211	50951.8875
1289.29301	52810.2875
1292.82151	55327.7875
1296.34761	58435.1875
1299.87133	62085.3875
1303.39266	66095.2875
1306.9116	70135.7875
1310.42815	74006.3875
1313.94233	76697.2875
1317.45412	77699.0875
1320.96354	77415.9875
1324.47058	76736.5875
1327.97525	76132.6875
1331.47754	75565.2875
1334.97747	75473.4875
1338.47502	75679.0875
1341.97022	75439.8875
1345.46305	74207.7875
1348.95352	71984.2875
1352.44163	69661.0875
1355.92738	68581.2875
1359.41078	69571.7875
1362.89183	71092.7875
1366.37053	69715.5875
1369.84688	64360.3875
1373.32088	58108.1875
1376.79254	53854.8875
1380.26186	52431.5875
1383.72883	52690.1875
1387.19347	53244.8875
1390.65578	53644.8875
1394.11575	54295.7875
1397.57339	55575.2875
1401.0287	57318.4875
1404.48168	58891.0875
1407.93234	59439.2875
1411.38068	58629.9875
1414.82669	56280.4875
1418.27039	53151.1875
1421.71177	49805.7875
1425.15083	47028.6875
1428.58758	45390.8875
1432.02203	45132.9875
1435.45416	45863.9875
1438.88399	47294.2875
1442.31151	48810.4875
1445.73673	50160.1875
1449.15965	51558.7875
1452.58027	52775.6875
1455.9986	53634.2875
1459.41463	54305.4875
1462.82837	55283.6875
1466.23982	56272.6875
1469.64898	56952.2875
1473.05586	57157.5875
1476.46045	56677.8875
1479.86276	55881.7875
1483.26279	54923.6875
1486.66054	54112.6875
1490.05602	53772.9875
1493.44922	53711.9875
1496.84016	53709.3875
1500.22882	54175.2875
1503.61521	55178.3875
1506.99934	56840.7875
1510.38121	58612.8875
1513.76081	59487.9875
1517.13816	58838.9875
1520.51324	56944.9875
1523.88607	55073.9875
1527.25665	54062.0875
1530.62498	53623.3875
1533.99105	53522.3875
1537.35488	53336.8875
1540.71647	52824.1875
1544.07581	51913.8875
1547.4329	50725.1875
1550.78776	49590.4875
1554.14038	48928.2875
1557.49077	48657.4875
1560.83892	48566.6875
1564.18484	48633.9875
1567.52853	48524.5875
1570.86999	48527.2875
1574.20922	49202.8875
1577.54624	49920.2875
1580.88103	50511.7875
1584.2136	51320.1875
1587.54395	53131.1875
1590.87208	55885.1875
1594.19801	59166.9875
1597.52172	62252.9875
1600.84321	62995.9875
1604.16251	60276.9875
1607.47959	55374.0875
1610.79447	50157.8875
1614.10715	45218.7875
1617.41763	41091.4875
1620.7259	38158.3875
1624.03199	36595.6875
1627.33587	36363.3875
1630.63757	37496.5875
1633.93707	40206.1875
1637.23439	44568.6875
1640.52951	50486.7875
1643.82246	56962.0875
1647.11321	61781.2875
1650.40179	62641.1875
1653.68819	58575.5875
1656.97241	50940.9875
1660.25446	42989.0875
1663.53433	36654.8875
1666.81203	32404.9875
1670.08756	29666.2875
1673.36092	27921.9875
1676.63211	26806.1875
1679.90115	26049.3875
1683.16801	25451.4875
1686.43272	25057.7875
1689.69527	24742.9875
1692.95567	24469.9875
1696.2139	24341.9875
1699.46999	24182.3875
1702.72392	24039.0875
1705.97571	23943.3875
1709.22535	23778.9875
1712.47284	23723.6875
1715.71819	23634.0875
1718.96139	23569.1875
1722.20246	23467.2875
1725.44139	23362.2875
1728.67818	23197.2875
1731.91284	23083.7875
1735.14537	22925.5875
1738.37576	22807.9875
1741.60403	22755.2875
1744.83017	22643.9875
1748.05418	22632.5875
1751.27607	22565.0875
1754.49584	22533.7875
1757.71349	22507.2875
1760.92903	22461.3875
1764.14244	22423.5875
1767.35375	22400.9875
1770.56294	22341.0875
1773.77002	22264.9875
1776.97499	22245.2875
1780.17785	22202.9875
1783.37861	22153.2875
1786.57727	22124.4875
1789.77382	22095.9875
1792.96828	22036.1875
1796.16064	21992.2875
1799.3509	21927.2875
1802.53907	21863.1875
1805.72514	21828.0875
1808.90913	21814.8875
1812.09102	21713.4875
1815.27083	21703.9875
1818.44856	21680.3875
1821.6242	21597.9875
1824.79776	21647.6875
1827.96924	21594.1875
1831.13864	21572.5875
1834.30597	21604.3875
1837.47122	21607.8875
1840.6344	21613.6875
1843.7955	21635.4875
1846.95454	21637.0875
1850.11151	21616.6875
1853.26642	21631.7875
1856.41926	21625.3875
1859.57004	21593.1875
1862.71876	21596.1875
1865.86542	21578.2875
1869.01003	21601.1875
1872.15258	21626.8875
1875.29308	21626.2875
1878.43152	21610.8875
1881.56792	21650.6875
1884.70227	21587.8875
1887.83457	21607.5875
1890.96482	21643.2875
1894.09304	21612.5875
1897.21921	21634.8875
1900.34335	21623.4875
1903.46544	21613.3875
1906.58551	21606.3875
1909.70353	21599.5875
1912.81953	21562.3875
1915.93349	21490.1875
1919.04543	21459.0875
1922.15534	21405.6875
1925.26322	21335.2875
1928.36908	21257.1875
1931.47292	21185.2875
1934.57473	21077.5875
1937.67453	20999.7875
1940.77232	20929.0875
1943.86808	20864.0875
1946.96184	20796.4875
1950.05358	20705.5875
1953.14331	20610.9875
1956.23103	20549.1875
1959.31675	20461.0875
1962.40046	20373.8875
1965.48217	20326.4875
1968.56188	20267.9875
1971.63959	20203.8875
1974.7153	20124.8875
1977.78901	20073.9875
1980.86073	19976.6875
1983.93046	19943.0875
1986.99819	19868.8875
1990.06394	19807.3875
1993.1277	19738.8875
1996.18947	19684.1875
1999.24925	19611.0875
2002.30706	19548.6875
2005.36288	19527.5875
2008.41672	19476.3875
2011.46859	19375.5875
2014.51848	19353.4875
2017.56639	19270.0875
2020.61233	19226.0875
2023.6563	19217.2875
2026.6983	19190.2875
2029.73833	19108.2875
2032.7764	19117.5875
2035.8125	19079.9875
2038.84664	19012.5875
2041.87881	19037.9875
2044.90903	18975.5875
2047.93729	18951.6875
2050.96359	18939.1875
2053.98794	18913.0875
2057.01034	18924.5875
2060.03078	18877.8875
2063.04927	18883.8875
2066.06582	18833.8875
2069.08042	18814.7875
2072.09307	18815.0875
2075.10378	18771.8875
2078.11255	18741.7875
2081.11938	18751.7875
2084.12426	18718.7875
2087.12722	18703.0875
2090.12824	18724.6875
2093.12732	18701.3875
2096.12447	18727.1875
2099.11969	18706.2875
2102.11299	18716.0875
2105.10435	18751.3875
2108.09379	18744.8875
2111.08131	18746.4875
2114.0669	18721.3875
2117.05057	18765.1875
2120.03233	18780.7875
2123.01216	18769.3875
2125.99008	18793.0875
2128.96609	18760.8875
2131.94018	18773.7875
2134.91236	18775.8875
2137.88263	18775.2875
2140.851	18783.7875
2143.81746	18846.0875
2146.78201	18847.8875
2149.74466	18821.8875
2152.7054	18819.0875
2155.66425	18811.7875
2158.6212	18819.8875
2161.57625	18770.4875
2164.52941	18777.1875
2167.48067	18777.4875
2170.43004	18775.9875
2173.37752	18739.7875
2176.32311	18721.1875
2179.26681	18745.8875
2182.20863	18763.9875
2185.14856	18766.6875
2188.08661	18710.5875
2191.02278	18736.8875
2193.95707	18734.0875
2196.88948	18706.3875
2199.82001	18718.3875
2202.74867	18694.6875
2205.67545	18681.7875
2208.60037	18670.8875
2211.52341	18632.5875
2214.44458	18608.7875
2217.36388	18586.0875
2220.28132	18597.6875
2223.1969	18560.8875
2226.11061	18551.7875
2229.02246	18466.5875
2231.93245	18412.2875
2234.84058	18415.3875
2237.74686	18347.2875
2240.65128	18349.3875
2243.55385	18298.3875
2246.45456	18309.4875
2249.35343	18262.1875
2252.25044	18235.5875
2255.14561	18224.8875
2258.03893	18203.8875
2260.93041	18155.0875
2263.82004	18085.9875
2266.70783	18041.5875
2269.59378	17961.6875
2272.4779	17939.8875
2275.36017	17886.9875
2278.24061	17879.6875
2281.11922	17818.0875
2283.996	17810.4875
2286.87094	17790.1875
2289.74405	17777.5875
2292.61534	17746.8875
2295.4848	17703.7875
2298.35243	17772.4875
2301.21824	17735.7875
2304.08223	17718.7875
2306.94439	17713.3875
2309.80474	17733.2875
2312.66327	17732.1875
2315.51999	17743.2875
2318.37489	17718.1875
2321.22797	17730.1875
2324.07925	17685.1875
2326.92871	17645.6875
2329.77637	17693.7875
2332.62222	17645.7875
2335.46626	17641.2875
2338.3085	17656.1875
2341.14893	17651.0875
2343.98756	17622.4875
2346.8244	17685.3875
2349.65943	17691.7875
2352.49267	17658.2875
2355.32411	17670.1875
2358.15376	17616.7875
2360.98161	17647.9875
2363.80768	17617.8875
2366.63195	17580.5875
2369.45444	17558.7875
2372.27514	17544.6875
2375.09405	17495.1875
2377.91118	17480.3875
2380.72652	17454.4875
2383.54009	17436.9875
2386.35187	17426.6875
2389.16188	17330.6875
2391.97011	17313.9875
2394.77657	17269.5875
2397.58125	17295.3875
2400.38416	17225.4875
2403.18529	17197.6875
2405.98466	17174.1875
2408.78226	17139.7875
2411.57809	17126.2875
2414.37216	17117.6875
2417.16446	17085.2875
2419.955	17065.0875
2422.74378	17074.9875
2425.5308	17078.1875
2428.31606	17055.7875
2431.09956	17014.3875
2433.88131	17006.2875
2436.6613	17009.2875
2439.43954	17012.3875
2442.21603	16994.3875
2444.99077	16951.2875
2447.76377	16948.0875
2450.53501	17000.9875
2453.30451	16985.0875
2456.07226	16974.8875
2458.83827	16988.4875
2461.60254	16966.7875
2464.36507	16976.3875
2467.12586	16951.6875
2469.88492	16981.7875
2472.64224	16984.1875
2475.39782	16989.0875
2478.15167	17040.8875
2480.90379	16984.0875
2483.65417	17054.9875
2486.40283	17043.5875
2489.14976	17063.7875
2491.89497	17043.7875
2494.63845	17083.9875
2497.3802	17089.6875
2500.12024	17061.9875
2502.85855	17073.8875
2505.59514	17102.1875
2508.33002	17099.4875
2511.06318	17059.2875
2513.79462	17071.9875
2516.52435	17025.5875
2519.25237	17016.6875
2521.97867	16999.4875
2524.70327	16973.2875
2527.42616	16990.8875
2530.14734	16974.5875
2532.86681	16985.1875
2535.58458	16952.1875
2538.30065	16949.9875
2541.01501	16949.7875
2543.72768	16899.7875
2546.43864	16868.4875
2549.14791	16896.9875
2551.85548	16863.6875
2554.56136	16856.6875
2557.26554	16843.3875
2559.96803	16845.7875
2562.66883	16833.4875
2565.36794	16842.0875
2568.06536	16853.3875
2570.7611	16813.1875
2573.45514	16798.3875
2576.14751	16793.7875
2578.83819	16787.3875
2581.52719	16758.7875
2584.21451	16814.2875
2586.90015	16796.6875
2589.58411	16777.5875
2592.2664	16798.0875
2594.94701	16765.0875
2597.62594	16795.7875
2600.30321	16750.9875
2602.9788	16738.7875
2605.65273	16744.9875
2608.32498	16776.7875
2610.99557	16781.4875
2613.66449	16776.2875
2616.33175	16803.6875
2618.99734	16827.4875
2621.66128	16801.2875
2624.32355	16771.9875
2626.98416	16809.6875
2629.64311	16837.1875
2632.30041	16836.8875
2634.95605	16843.6875
2637.61004	16850.3875
2640.26238	16798.3875
2642.91306	16803.5875
2645.56209	16794.6875
2648.20948	16818.9875
2650.85521	16801.7875
2653.4993	16778.4875
2656.14175	16758.0875
2658.78255	16805.7875
2661.42171	16826.3875
2664.05923	16864.5875
2666.6951	16823.8875
2669.32934	16854.5875
2671.96194	16856.0875
2674.59291	16819.2875
2677.22224	16876.0875
2679.84993	16859.4875
2682.476	16840.6875
2685.10043	16840.0875
2687.72324	16779.5875
2690.34441	16823.9875
2692.96396	16819.7875
2695.58188	16840.0875
2698.19818	16783.3875
2700.81285	16820.0875
2703.4259	16816.2875
2706.03733	16884.9875
2708.64714	16863.3875
2711.25533	16852.5875
2713.86191	16835.8875
2716.46687	16844.8875
2719.07021	16890.8875
2721.67194	16926.1875
2724.27206	16910.1875
2726.87057	16939.3875
2729.46747	16959.5875
2732.06276	16979.6875
2734.65644	16932.9875
2737.24852	16946.4875
2739.83899	16915.9875
2742.42786	16908.2875
2745.01513	16901.8875
2747.60079	16907.0875
2750.18486	16887.1875
2752.76733	16929.9875
2755.3482	16929.8875
2757.92747	16964.6875
2760.50515	16996.4875
2763.08123	16973.9875
2765.65573	16950.7875
2768.22863	16973.3875
2770.79994	16914.5875
2773.36967	16940.3875
2775.9378	16930.1875
2778.50435	16954.0875
2781.06932	16920.3875
2783.6327	16949.1875
2786.1945	16962.3875
2788.75471	16925.2875
2791.31335	16889.7875
2793.87041	16888.2875
2796.42589	16852.4875
2798.97979	16851.2875
2801.53212	16807.2875
2804.08288	16810.4875
2806.63206	16762.4875
2809.17967	16743.0875
2811.72571	16712.2875
2814.27018	16704.0875
2816.81308	16706.0875
2819.35442	16639.7875
2821.89419	16643.7875
2824.43239	16625.9875
2826.96904	16606.0875
2829.50412	16606.8875
2832.03763	16552.7875
2834.56959	16566.2875
2837.1	16549.4875
2839.62884	16532.5875
2842.15613	16522.8875
2844.68186	16552.3875
2847.20604	16586.8875
2849.72867	16568.3875
2852.24974	16600.1875
2854.76927	16598.4875
2857.28724	16580.9875
2859.80367	16532.1875
2862.31855	16506.5875
2864.83189	16473.5875
2867.34368	16473.9875
2869.85393	16480.6875
2872.36264	16455.5875
2874.8698	16471.8875
2877.37543	16483.0875
2879.87952	16458.2875
2882.38207	16466.1875
2884.88308	16462.5875
2887.38256	16487.2875
2889.88051	16485.6875
2892.37692	16501.1875
2894.8718	16516.6875
2897.36515	16507.1875
2899.85698	16517.0875
2902.34727	16580.8875
2904.83604	16570.0875
2907.32328	16588.2875
2909.809	16597.8875
2912.29319	16588.6875
2914.77587	16585.2875
2917.25702	16585.9875
2919.73665	16567.8875
2922.21476	16567.4875
2924.69136	16568.2875
2927.16644	16573.7875
2929.64	16575.3875
2932.11205	16565.6875
2934.58258	16540.7875
2937.05161	16517.6875
2939.51912	16539.4875
2941.98513	16519.5875
2944.44962	16455.8875
2946.91261	16360.5875
2949.37409	16383.7875
2951.83407	16347.2875
2954.29254	16342.4875
2956.74951	16327.4875
2959.20498	16323.1875
2961.65895	16280.5875
2964.11142	16225.6875
2966.56239	16218.2875
2969.01186	16209.9875
2971.45984	16135.3875
2973.90632	16138.1875
2976.35131	16046.4875
2978.7948	16022.0875
2981.23681	16005.0875
2983.67732	15970.8875
2986.11635	15910.2875
2988.55388	15911.5875
2990.98993	15862.0875
2993.4245	15848.0875
2995.85758	15788.3875
2998.28917	15734.3875
3000.71928	15741.1875
3003.14791	15674.3875
3005.57506	15659.5875
3008.00073	15607.3875
3010.42493	15562.1875
3012.84764	15541.7875
3015.26888	15561.0875
3017.68865	15536.1875
3020.10694	15481.4875
3022.52376	15451.2875
3024.9391	15423.6875
3027.35298	15375.1875
3029.76539	15367.5875
3032.17632	15378.8875
3034.5858	15374.3875
3036.9938	15345.5875
3039.40034	15335.7875
3041.80542	15333.4875
3044.20903	15282.0875
3046.61118	15274.1875
3049.01187	15234.9875
3051.4111	15240.3875
3053.80888	15174.2875
3056.20519	15154.3875
3058.60005	15136.6875
3060.99345	15081.4875
3063.3854	15041.1875
3065.7759	14982.6875
3068.16494	14933.8875
3070.55254	14884.7875
3072.93868	14816.2875
3075.32338	14797.5875
3077.70662	14775.5875
3080.08842	14693.7875
3082.46878	14710.2875
3084.84769	14669.6875
3087.22515	14654.9875
3089.60118	14657.9875
3091.97576	14665.7875
3094.3489	14618.4875
3096.72061	14607.1875
3099.09087	14611.1875
3101.4597	14571.4875
3103.82709	14569.1875
3106.19305	14542.3875
3108.55757	14538.1875
3110.92066	14483.6875
3113.28232	14425.7875
3115.64255	14383.3875
3118.00134	14370.9875
3120.35871	14295.5875
3122.71466	14259.5875
3125.06917	14280.3875
3127.42226	14231.6875
3129.77393	14250.5875
3132.12417	14234.8875
3134.47299	14202.3875
3136.82039	14166.9875
3139.16636	14160.0875
3141.51092	14145.8875
3143.85406	14148.3875
3146.19579	14158.6875
3148.53609	14170.0875
3150.87499	14179.8875
3153.21246	14152.6875
3155.54853	14159.7875
3157.88318	14137.0875
3160.21642	14131.8875
3162.54826	14131.6875
3164.87868	14117.8875
3167.2077	14122.7875
3169.5353	14119.4875
3171.86151	14098.6875
3174.18631	14088.1875
3176.5097	14069.4875
3178.83169	14046.6875
3181.15228	14036.6875
3183.47147	13992.2875
3185.78926	14017.1875
3188.10565	13995.4875
3190.42065	14028.1875
3192.73424	13976.7875
3195.04645	14004.3875
3197.35725	13980.2875
3199.66667	13962.9875
3201.97469	13963.8875
3204.28132	13967.2875
3206.58656	13951.0875
3208.8904	13941.3875
3211.19287	13961.3875
3213.49394	13978.4875
3215.79363	13988.7875
3218.09193	13963.8875
3220.38884	13931.3875
3222.68438	13951.4875
3224.97853	13940.9875
3227.2713	13928.0875
3229.56269	13913.5875
3231.8527	13900.9875
3234.14133	13869.5875
3236.42858	13846.0875
3238.71446	13833.5875
3240.99896	13785.4875
3243.28209	13811.6875
3245.56384	13804.9875
3247.84423	13797.2875
3250.12324	13747.7875
3252.40088	13755.3875
3254.67715	13710.5875
3256.95205	13727.8875
3259.22558	13672.8875
3261.49775	13684.4875
3263.76855	13631.2875
3266.03799	13618.5875
3268.30606	13567.3875
3270.57277	13566.3875
3272.83812	13537.3875
3275.10211	13503.2875
3277.36474	13516.6875
3279.62601	13484.9875
3281.88593	13465.2875
3284.14448	13475.5875
3286.40168	13481.0875
3288.65753	13446.2875
3290.91202	13442.2875
3293.16516	13380.5875
3295.41695	13334.3875
3297.66738	13237.0875
3299.91647	13221.2875
3302.16421	13134.1875
3304.4106	13087.9875
3306.65564	12999.3875
3308.89933	12923.1875
3311.14169	12853.5875
3313.38269	12747.6875
3315.62236	12683.9875
3317.86068	12555.6875
3320.09766	12447.6875
3322.3333	12310.9875
3324.5676	12339.0875
3326.80056	12133.7875
3329.03219	12053.4875
3331.26248	3.1875
3333.49143	0.6875
3335.71905	-0.9125
