Data from AgNPs_FTO_APTES_UA_2uM_CRN_100uM_R6G_10uM_NaF_0.1M_Addition_RamanShift__19__16-00-15-326.txt Node

Date: Wed Feb 02 16:00:15 GMT 2022
User: TCL
Spectrometer: QEP01345
Trigger mode: 4
Integration Time (sec): 7.000000E0
Scans to average: 10
Electric dark correction enabled: true
Nonlinearity correction enabled: false
Boxcar width: 0
XAxis mode: Raman Shifts
Number of Pixels in Spectrum: 1044
>>>>>Begin Spectral Data<<<<<
46.04893	-0.2625
50.45542	1.1375
54.85868	-0.6625
59.25871	-0.1625
63.6555	66.0375
68.04907	71.5375
72.43941	77.7375
76.82654	82.8375
81.21044	86.5375
85.59113	89.3375
89.96862	93.7375
94.34289	97.2375
98.71396	96.5375
103.08183	106.0375
107.4465	105.8375
111.80798	108.2375
116.16626	112.4375
120.52136	112.4375
124.87327	116.7375
129.222	120.2375
133.56755	134.1375
137.90993	137.6375
142.24913	153.3375
146.58517	169.0375
150.91804	191.7375
155.24774	226.4375
159.57429	273.9375
163.89768	353.6375
168.21792	458.1375
172.53501	618.9375
176.84895	865.9375
181.15975	1204.6375
185.46741	1692.2375
189.77193	2317.7375
194.07331	3105.5375
198.37157	3981.4375
202.6667	4945.1375
206.9587	5838.4375
211.24758	6756.6375
215.53334	7658.1375
219.81599	8629.8375
224.09553	9701.5375
228.37195	10874.7375
232.64527	12117.2375
236.91549	13413.6375
241.18261	14767.0375
245.44663	16042.4375
249.70755	17216.8375
253.96539	18238.2375
258.22014	19111.5375
262.4718	19856.1375
266.72039	20368.8375
270.96589	20686.5375
275.20832	20828.5375
279.44768	20879.2375
283.68397	20860.9375
287.91719	20829.7375
292.14735	20970.9375
296.37445	21019.3375
300.59849	21129.8375
304.81948	21091.8375
309.03742	20837.0375
313.25231	20423.2375
317.46415	19814.9375
321.67296	19094.4375
325.87872	18553.3375
330.08145	18206.1375
334.28114	18123.5375
338.47781	18192.5375
342.67145	18290.8375
346.86207	18527.9375
351.04966	18775.9375
355.23424	19016.5375
359.4158	19190.2375
363.59435	19340.9375
367.76989	19395.5375
371.94243	19512.2375
376.11196	19575.5375
380.27849	19675.0375
384.44203	19826.2375
388.60257	20060.5375
392.76012	20289.3375
396.91468	20631.3375
401.06626	20934.8375
405.21485	21109.9375
409.36047	21069.6375
413.50311	20830.4375
417.64277	20622.7375
421.77947	20670.2375
425.9132	20721.5375
430.04396	20926.4375
434.17176	21029.5375
438.2966	21219.6375
442.41849	21569.8375
446.53742	22182.3375
450.6534	22921.5375
454.76644	23480.7375
458.87653	23768.2375
462.98368	23791.1375
467.08789	23667.4375
471.18916	23579.8375
475.2875	23560.7375
479.38291	23807.7375
483.4754	23766.1375
487.56496	23318.8375
491.6516	22582.2375
495.73531	21932.5375
499.81612	21485.1375
503.89401	21400.5375
507.96899	21398.3375
512.04106	21306.8375
516.11023	21025.1375
520.1765	20635.2375
524.23987	20330.7375
528.30034	20076.6375
532.35792	19856.0375
536.41261	19712.5375
540.46441	19629.3375
544.51333	19756.6375
548.55936	20124.8375
552.60252	20750.9375
556.64279	21368.2375
560.6802	21915.8375
564.71473	22283.9375
568.7464	22780.0375
572.7752	23567.8375
576.80114	24114.8375
580.82422	24535.3375
584.84444	24816.4375
588.86181	25081.6375
592.87633	25291.3375
596.888	25285.8375
600.89682	25083.9375
604.9028	25364.4375
608.90594	26311.4375
612.90624	26997.9375
616.90371	24926.0375
620.89834	21377.4375
624.89015	19894.0375
628.87913	19864.8375
632.86528	20034.6375
636.84862	20121.7375
640.82913	19852.2375
644.80683	19305.7375
648.78172	18872.1375
652.75379	18674.2375
656.72306	18677.6375
660.68952	18855.3375
664.65319	18754.7375
668.61405	18547.0375
672.57211	18500.1375
676.52738	18572.5375
680.47986	18578.7375
684.42955	18534.0375
688.37646	18423.5375
692.32058	18450.8375
696.26192	18614.9375
700.20048	18842.4375
704.13626	19009.1375
708.06928	19074.0375
711.99952	18969.7375
715.927	18910.2375
719.85171	18925.3375
723.77365	18846.3375
727.69284	18690.4375
731.60928	18499.3375
735.52295	18375.3375
739.43388	18388.5375
743.34206	18389.5375
747.24749	18462.8375
751.15017	18668.9375
755.05012	19116.4375
758.94733	19844.8375
762.8418	20917.2375
766.73354	22442.1375
770.62254	23712.3375
774.50882	23632.1375
778.39237	22303.8375
782.27321	20588.1375
786.15132	19310.7375
790.02671	18514.0375
793.89938	18134.2375
797.76935	17986.5375
801.6366	17975.5375
805.50115	17976.2375
809.36299	17896.3375
813.22213	17744.5375
817.07857	17731.6375
820.93231	17687.3375
824.78336	17540.0375
828.63172	17404.6375
832.47738	17311.8375
836.32036	17275.3375
840.16066	17334.2375
843.99827	17309.3375
847.8332	17286.8375
851.66546	17205.3375
855.49504	17149.4375
859.32195	17122.6375
863.1462	17070.6375
866.96777	17027.0375
870.78668	16960.7375
874.60293	16947.6375
878.41652	16929.9375
882.22745	16942.2375
886.03573	17002.2375
889.84136	16975.3375
893.64433	16961.6375
897.44466	16867.4375
901.24235	16844.6375
905.0374	16762.5375
908.8298	16724.7375
912.61957	16851.1375
916.40671	17103.5375
920.19121	17369.8375
923.97308	17576.3375
927.75233	17475.2375
931.52895	17237.8375
935.30295	16905.8375
939.07433	16553.4375
942.84309	16277.9375
946.60924	16071.1375
950.37278	16024.4375
954.13371	16037.0375
957.89203	16062.7375
961.64774	16075.0375
965.40086	16083.9375
969.15137	15958.8375
972.89929	15826.8375
976.64461	15673.9375
980.38733	15616.3375
984.12747	15618.4375
987.86502	15722.2375
991.59999	15852.5375
995.33237	16082.0375
999.06217	16432.1375
1002.78939	16886.3375
1006.51404	17166.3375
1010.23611	17330.2375
1013.95561	17486.6375
1017.67255	17512.8375
1021.38692	17382.2375
1025.09872	17133.6375
1028.80796	17010.8375
1032.51465	17237.0375
1036.21877	17496.4375
1039.92035	17602.4375
1043.61937	17541.1375
1047.31584	17390.8375
1051.00976	17255.4375
1054.70114	17261.2375
1058.38998	17376.4375
1062.07627	17646.8375
1065.76003	17869.6375
1069.44126	18092.0375
1073.11995	18301.9375
1076.79611	18473.1375
1080.46974	18535.3375
1084.14085	18580.2375
1087.80943	18769.6375
1091.47549	18985.1375
1095.13903	19078.6375
1098.80005	18948.5375
1102.45857	18482.9375
1106.11456	18014.6375
1109.76805	17783.3375
1113.41903	17782.0375
1117.06751	17879.2375
1120.71348	18112.6375
1124.35696	18262.7375
1127.99793	18607.2375
1131.63641	18794.7375
1135.2724	18756.6375
1138.90589	18741.1375
1142.5369	18801.3375
1146.16542	19066.2375
1149.79145	19412.4375
1153.415	19883.0375
1157.03607	20396.7375
1160.65467	21177.7375
1164.27079	22275.2375
1167.88443	23638.9375
1171.49561	25243.2375
1175.10432	27227.4375
1178.71056	29564.4375
1182.31434	31772.6375
1185.91565	32957.9375
1189.51451	33081.3375
1193.11091	32502.8375
1196.70485	31543.4375
1200.29634	30302.7375
1203.88538	29255.9375
1207.47197	28716.7375
1211.05612	28303.5375
1214.63782	27691.5375
1218.21708	26860.1375
1221.79391	26029.3375
1225.36829	25329.2375
1228.94024	24706.8375
1232.50976	24114.2375
1236.07685	23719.1375
1239.6415	23531.6375
1243.20374	23520.5375
1246.76355	23718.5375
1250.32093	24099.7375
1253.8759	24636.9375
1257.42845	25346.1375
1260.97859	26117.8375
1264.52631	26813.2375
1268.07163	27553.5375
1271.61453	28347.2375
1275.15503	29413.6375
1278.69312	30490.9375
1282.22882	31699.5375
1285.76211	32952.8375
1289.29301	34510.5375
1292.82151	36472.7375
1296.34761	38966.7375
1299.87133	41646.2375
1303.39266	44181.6375
1306.9116	46414.1375
1310.42815	48107.9375
1313.94233	49243.7375
1317.45412	49605.3375
1320.96354	49678.3375
1324.47058	49766.6375
1327.97525	49850.4375
1331.47754	49823.4375
1334.97747	49745.5375
1338.47502	49554.5375
1341.97022	48934.6375
1345.46305	47796.0375
1348.95352	46198.9375
1352.44163	44564.2375
1355.92738	43595.1375
1359.41078	43594.1375
1362.89183	43855.1375
1366.37053	42868.3375
1369.84688	40289.8375
1373.32088	36922.9375
1376.79254	34561.8375
1380.26186	33943.4375
1383.72883	34421.1375
1387.19347	35132.6375
1390.65578	35589.8375
1394.11575	36038.7375
1397.57339	36899.9375
1401.0287	37941.8375
1404.48168	38615.7375
1407.93234	38403.0375
1411.38068	37197.4375
1414.82669	35208.9375
1418.27039	32931.0375
1421.71177	30751.5375
1425.15083	28987.0375
1428.58758	28036.2375
1432.02203	27961.4375
1435.45416	28647.9375
1438.88399	29798.0375
1442.31151	30934.7375
1445.73673	31908.5375
1449.15965	32874.0375
1452.58027	33739.5375
1455.9986	34295.5375
1459.41463	34790.9375
1462.82837	35303.0375
1466.23982	35790.9375
1469.64898	36099.7375
1473.05586	36099.1375
1476.46045	35792.9375
1479.86276	35192.8375
1483.26279	34351.1375
1486.66054	33609.3375
1490.05602	33321.7375
1493.44922	33185.9375
1496.84016	33219.0375
1500.22882	33473.6375
1503.61521	34062.6375
1506.99934	34899.2375
1510.38121	35708.1375
1513.76081	35976.2375
1517.13816	35773.9375
1520.51324	35145.4375
1523.88607	34685.7375
1527.25665	34641.9375
1530.62498	34838.8375
1533.99105	34986.8375
1537.35488	34862.3375
1540.71647	34260.4375
1544.07581	33233.0375
1547.4329	32161.8375
1550.78776	31212.1375
1554.14038	30588.4375
1557.49077	30309.5375
1560.83892	30124.3375
1564.18484	30064.2375
1567.52853	30024.5375
1570.86999	30284.2375
1574.20922	30963.9375
1577.54624	31792.3375
1580.88103	32466.9375
1584.2136	33398.8375
1587.54395	34674.1375
1590.87208	36425.2375
1594.19801	38322.4375
1597.52172	39993.8375
1600.84321	40203.7375
1604.16251	38202.3375
1607.47959	34904.0375
1610.79447	31504.0375
1614.10715	28322.7375
1617.41763	25718.5375
1620.7259	23903.1375
1624.03199	22939.2375
1627.33587	22803.6375
1630.63757	23597.8375
1633.93707	25400.1375
1637.23439	28433.9375
1640.52951	32617.3375
1643.82246	37309.1375
1647.11321	40926.2375
1650.40179	41567.2375
1653.68819	38623.6375
1656.97241	33396.8375
1660.25446	28002.9375
1663.53433	23729.0375
1666.81203	20784.7375
1670.08756	18854.4375
1673.36092	17628.0375
1676.63211	16839.5375
1679.90115	16308.7375
1683.16801	15895.5375
1686.43272	15595.2375
1689.69527	15352.8375
1692.95567	15204.0375
1696.2139	15077.4375
1699.46999	14975.0375
1702.72392	14842.1375
1705.97571	14781.7375
1709.22535	14681.1375
1712.47284	14594.1375
1715.71819	14531.5375
1718.96139	14478.2375
1722.20246	14400.2375
1725.44139	14333.1375
1728.67818	14261.8375
1731.91284	14169.1375
1735.14537	14071.3375
1738.37576	13989.6375
1741.60403	13941.3375
1744.83017	13874.1375
1748.05418	13870.5375
1751.27607	13864.4375
1754.49584	13843.1375
1757.71349	13831.1375
1760.92903	13772.4375
1764.14244	13767.7375
1767.35375	13753.0375
1770.56294	13671.3375
1773.77002	13615.7375
1776.97499	13554.2375
1780.17785	13513.6375
1783.37861	13460.8375
1786.57727	13445.1375
1789.77382	13391.2375
1792.96828	13351.0375
1796.16064	13314.8375
1799.3509	13271.5375
1802.53907	13234.0375
1805.72514	13192.9375
1808.90913	13165.2375
1812.09102	13138.8375
1815.27083	13101.4375
1818.44856	13071.1375
1821.6242	13037.7375
1824.79776	13038.8375
1827.96924	13026.8375
1831.13864	12993.5375
1834.30597	12991.8375
1837.47122	13020.4375
1840.6344	13002.6375
1843.7955	13024.0375
1846.95454	12993.4375
1850.11151	12985.6375
1853.26642	13010.8375
1856.41926	12958.7375
1859.57004	12966.9375
1862.71876	12938.5375
1865.86542	12926.5375
1869.01003	12905.9375
1872.15258	12898.9375
1875.29308	12880.7375
1878.43152	12881.1375
1881.56792	12857.3375
1884.70227	12847.2375
1887.83457	12836.9375
1890.96482	12827.0375
1894.09304	12827.7375
1897.21921	12800.0375
1900.34335	12772.7375
1903.46544	12764.0375
1906.58551	12729.6375
1909.70353	12716.6375
1912.81953	12699.0375
1915.93349	12692.8375
1919.04543	12607.5375
1922.15534	12594.0375
1925.26322	12531.6375
1928.36908	12534.4375
1931.47292	12492.7375
1934.57473	12475.7375
1937.67453	12422.4375
1940.77232	12403.5375
1943.86808	12351.3375
1946.96184	12342.7375
1950.05358	12245.0375
1953.14331	12234.7375
1956.23103	12196.9375
1959.31675	12144.3375
1962.40046	12098.8375
1965.48217	12053.3375
1968.56188	12023.6375
1971.63959	11996.1375
1974.7153	11968.5375
1977.78901	11910.2375
1980.86073	11869.8375
1983.93046	11814.4375
1986.99819	11800.7375
1990.06394	11765.4375
1993.1277	11724.1375
1996.18947	11653.3375
1999.24925	11660.2375
2002.30706	11613.3375
2005.36288	11563.2375
2008.41672	11557.8375
2011.46859	11509.0375
2014.51848	11466.5375
2017.56639	11442.4375
2020.61233	11385.5375
2023.6563	11372.6375
2026.6983	11382.0375
2029.73833	11354.7375
2032.7764	11295.5375
2035.8125	11295.4375
2038.84664	11268.4375
2041.87881	11257.4375
2044.90903	11246.3375
2047.93729	11222.3375
2050.96359	11205.8375
2053.98794	11207.2375
2057.01034	11213.3375
2060.03078	11191.4375
2063.04927	11160.1375
2066.06582	11167.0375
2069.08042	11141.7375
2072.09307	11111.8375
2075.10378	11145.3375
2078.11255	11108.1375
2081.11938	11099.6375
2084.12426	11066.1375
2087.12722	11066.9375
2090.12824	11063.4375
2093.12732	11054.1375
2096.12447	11094.8375
2099.11969	11074.0375
2102.11299	11086.9375
2105.10435	11072.8375
2108.09379	11053.7375
2111.08131	11068.3375
2114.0669	11052.9375
2117.05057	11062.8375
2120.03233	11087.5375
2123.01216	11090.0375
2125.99008	11082.8375
2128.96609	11092.1375
2131.94018	11070.4375
2134.91236	11076.6375
2137.88263	11095.5375
2140.851	11100.5375
2143.81746	11113.0375
2146.78201	11112.4375
2149.74466	11103.6375
2152.7054	11096.9375
2155.66425	11092.6375
2158.6212	11094.0375
2161.57625	11079.3375
2164.52941	11087.9375
2167.48067	11059.9375
2170.43004	11041.8375
2173.37752	11048.8375
2176.32311	11027.3375
2179.26681	11067.5375
2182.20863	11024.5375
2185.14856	11049.5375
2188.08661	11031.1375
2191.02278	11035.8375
2193.95707	11028.6375
2196.88948	10999.0375
2199.82001	10999.3375
2202.74867	10983.8375
2205.67545	10984.4375
2208.60037	10955.5375
2211.52341	10935.1375
2214.44458	10918.5375
2217.36388	10912.3375
2220.28132	10909.5375
2223.1969	10857.4375
2226.11061	10856.2375
2229.02246	10816.6375
2231.93245	10801.5375
2234.84058	10777.7375
2237.74686	10774.7375
2240.65128	10741.6375
2243.55385	10732.0375
2246.45456	10705.9375
2249.35343	10699.3375
2252.25044	10699.8375
2255.14561	10638.0375
2258.03893	10644.9375
2260.93041	10636.9375
2263.82004	10573.5375
2266.70783	10547.6375
2269.59378	10522.6375
2272.4779	10499.8375
2275.36017	10437.1375
2278.24061	10447.5375
2281.11922	10428.8375
2283.996	10397.6375
2286.87094	10398.0375
2289.74405	10360.8375
2292.61534	10361.9375
2295.4848	10324.8375
2298.35243	10340.8375
2301.21824	10336.3375
2304.08223	10333.8375
2306.94439	10340.1375
2309.80474	10349.6375
2312.66327	10306.7375
2315.51999	10316.0375
2318.37489	10297.6375
2321.22797	10319.2375
2324.07925	10256.4375
2326.92871	10255.9375
2329.77637	10279.5375
2332.62222	10248.9375
2335.46626	10266.1375
2338.3085	10241.3375
2341.14893	10239.9375
2343.98756	10256.2375
2346.8244	10261.7375
2349.65943	10277.5375
2352.49267	10246.0375
2355.32411	10243.1375
2358.15376	10242.4375
2360.98161	10237.8375
2363.80768	10222.2375
2366.63195	10206.8375
2369.45444	10196.0375
2372.27514	10191.8375
2375.09405	10180.2375
2377.91118	10152.4375
2380.72652	10150.4375
2383.54009	10122.5375
2386.35187	10106.5375
2389.16188	10066.3375
2391.97011	10051.6375
2394.77657	10041.3375
2397.58125	10029.5375
2400.38416	10021.1375
2403.18529	9969.2375
2405.98466	9957.4375
2408.78226	9950.0375
2411.57809	9947.3375
2414.37216	9926.4375
2417.16446	9933.5375
2419.955	9916.6375
2422.74378	9907.8375
2425.5308	9898.3375
2428.31606	9892.6375
2431.09956	9894.4375
2433.88131	9869.6375
2436.6613	9868.1375
2439.43954	9868.4375
2442.21603	9883.8375
2444.99077	9851.5375
2447.76377	9836.8375
2450.53501	9886.6375
2453.30451	9870.4375
2456.07226	9853.4375
2458.83827	9861.0375
2461.60254	9852.9375
2464.36507	9862.5375
2467.12586	9855.5375
2469.88492	9841.2375
2472.64224	9853.7375
2475.39782	9848.0375
2478.15167	9848.4375
2480.90379	9862.4375
2483.65417	9864.9375
2486.40283	9856.9375
2489.14976	9871.0375
2491.89497	9862.2375
2494.63845	9883.7375
2497.3802	9871.6375
2500.12024	9869.3375
2502.85855	9891.3375
2505.59514	9877.7375
2508.33002	9876.0375
2511.06318	9872.4375
2513.79462	9854.7375
2516.52435	9844.6375
2519.25237	9833.0375
2521.97867	9860.2375
2524.70327	9830.6375
2527.42616	9808.5375
2530.14734	9800.3375
2532.86681	9814.4375
2535.58458	9819.5375
2538.30065	9795.3375
2541.01501	9782.5375
2543.72768	9789.9375
2546.43864	9761.9375
2549.14791	9733.0375
2551.85548	9742.5375
2554.56136	9746.9375
2557.26554	9746.6375
2559.96803	9706.3375
2562.66883	9737.6375
2565.36794	9709.7375
2568.06536	9734.9375
2570.7611	9717.8375
2573.45514	9685.2375
2576.14751	9709.9375
2578.83819	9703.5375
2581.52719	9677.9375
2584.21451	9683.2375
2586.90015	9687.9375
2589.58411	9675.0375
2592.2664	9699.2375
2594.94701	9663.1375
2597.62594	9680.4375
2600.30321	9652.5375
2602.9788	9680.3375
2605.65273	9648.8375
2608.32498	9681.6375
2610.99557	9660.1375
2613.66449	9681.3375
2616.33175	9662.0375
2618.99734	9669.7375
2621.66128	9674.6375
2624.32355	9681.1375
2626.98416	9672.2375
2629.64311	9673.5375
2632.30041	9684.1375
2634.95605	9710.1375
2637.61004	9661.1375
2640.26238	9666.5375
2642.91306	9670.3375
2645.56209	9666.3375
2648.20948	9668.7375
2650.85521	9673.0375
2653.4993	9667.3375
2656.14175	9660.9375
2658.78255	9680.2375
2661.42171	9676.2375
2664.05923	9717.8375
2666.6951	9692.3375
2669.32934	9708.8375
2671.96194	9693.9375
2674.59291	9708.4375
2677.22224	9668.7375
2679.84993	9694.0375
2682.476	9678.1375
2685.10043	9674.6375
2687.72324	9660.7375
2690.34441	9675.7375
2692.96396	9638.4375
2695.58188	9677.8375
2698.19818	9671.4375
2700.81285	9664.1375
2703.4259	9687.9375
2706.03733	9705.6375
2708.64714	9708.1375
2711.25533	9711.4375
2713.86191	9698.7375
2716.46687	9710.6375
2719.07021	9747.3375
2721.67194	9721.9375
2724.27206	9727.8375
2726.87057	9747.4375
2729.46747	9760.7375
2732.06276	9772.5375
2734.65644	9749.6375
2737.24852	9756.1375
2739.83899	9718.4375
2742.42786	9753.4375
2745.01513	9717.4375
2747.60079	9726.0375
2750.18486	9729.0375
2752.76733	9752.8375
2755.3482	9740.4375
2757.92747	9761.0375
2760.50515	9770.0375
2763.08123	9764.5375
2765.65573	9735.9375
2768.22863	9758.8375
2770.79994	9770.1375
2773.36967	9744.2375
2775.9378	9764.0375
2778.50435	9767.4375
2781.06932	9744.1375
2783.6327	9753.9375
2786.1945	9752.2375
2788.75471	9752.5375
2791.31335	9713.7375
2793.87041	9737.9375
2796.42589	9727.3375
2798.97979	9723.9375
2801.53212	9683.9375
2804.08288	9698.3375
2806.63206	9687.5375
2809.17967	9642.3375
2811.72571	9642.0375
2814.27018	9630.9375
2816.81308	9610.1375
2819.35442	9590.2375
2821.89419	9561.7375
2824.43239	9571.0375
2826.96904	9562.2375
2829.50412	9569.2375
2832.03763	9531.4375
2834.56959	9541.9375
2837.1	9529.5375
2839.62884	9536.4375
2842.15613	9524.6375
2844.68186	9566.8375
2847.20604	9580.6375
2849.72867	9593.8375
2852.24974	9604.6375
2854.76927	9615.3375
2857.28724	9605.0375
2859.80367	9556.1375
2862.31855	9549.4375
2864.83189	9554.0375
2867.34368	9548.7375
2869.85393	9560.1375
2872.36264	9544.1375
2874.8698	9545.9375
2877.37543	9551.3375
2879.87952	9556.8375
2882.38207	9552.7375
2884.88308	9553.7375
2887.38256	9565.7375
2889.88051	9552.9375
2892.37692	9541.3375
2894.8718	9568.4375
2897.36515	9577.0375
2899.85698	9577.1375
2902.34727	9632.2375
2904.83604	9609.9375
2907.32328	9639.4375
2909.809	9627.4375
2912.29319	9640.0375
2914.77587	9644.8375
2917.25702	9646.1375
2919.73665	9636.5375
2922.21476	9609.4375
2924.69136	9626.2375
2927.16644	9641.3375
2929.64	9655.0375
2932.11205	9654.9375
2934.58258	9638.2375
2937.05161	9623.0375
2939.51912	9625.3375
2941.98513	9601.0375
2944.44962	9585.8375
2946.91261	9507.5375
2949.37409	9518.1375
2951.83407	9514.0375
2954.29254	9516.4375
2956.74951	9472.9375
2959.20498	9454.9375
2961.65895	9438.4375
2964.11142	9431.7375
2966.56239	9387.2375
2969.01186	9393.4375
2971.45984	9376.3375
2973.90632	9352.9375
2976.35131	9297.5375
2978.7948	9270.3375
2981.23681	9239.2375
2983.67732	9241.1375
2986.11635	9218.4375
2988.55388	9210.8375
2990.98993	9185.7375
2993.4245	9176.0375
2995.85758	9133.2375
2998.28917	9120.9375
3000.71928	9087.2375
3003.14791	9069.9375
3005.57506	9070.9375
3008.00073	9046.7375
3010.42493	9000.6375
3012.84764	9011.9375
3015.26888	8963.5375
3017.68865	8993.1375
3020.10694	8947.3375
3022.52376	8928.3375
3024.9391	8911.6375
3027.35298	8900.0375
3029.76539	8891.1375
3032.17632	8907.9375
3034.5858	8905.1375
3036.9938	8909.2375
3039.40034	8872.2375
3041.80542	8868.1375
3044.20903	8869.4375
3046.61118	8851.9375
3049.01187	8852.8375
3051.4111	8807.4375
3053.80888	8807.9375
3056.20519	8778.2375
3058.60005	8744.5375
3060.99345	8745.9375
3063.3854	8725.9375
3065.7759	8695.7375
3068.16494	8684.2375
3070.55254	8622.2375
3072.93868	8618.2375
3075.32338	8586.9375
3077.70662	8584.4375
3080.08842	8526.4375
3082.46878	8548.9375
3084.84769	8531.4375
3087.22515	8521.9375
3089.60118	8527.7375
3091.97576	8542.3375
3094.3489	8516.5375
3096.72061	8530.9375
3099.09087	8507.6375
3101.4597	8501.6375
3103.82709	8497.4375
3106.19305	8477.0375
3108.55757	8488.7375
3110.92066	8465.3375
3113.28232	8428.5375
3115.64255	8397.4375
3118.00134	8367.5375
3120.35871	8344.1375
3122.71466	8327.0375
3125.06917	8325.2375
3127.42226	8330.6375
3129.77393	8322.4375
3132.12417	8321.9375
3134.47299	8288.8375
3136.82039	8299.2375
3139.16636	8286.9375
3141.51092	8295.2375
3143.85406	8262.2375
3146.19579	8302.6375
3148.53609	8295.1375
3150.87499	8292.8375
3153.21246	8302.9375
3155.54853	8311.0375
3157.88318	8317.8375
3160.21642	8322.2375
3162.54826	8296.8375
3164.87868	8302.7375
3167.2077	8322.2375
3169.5353	8313.9375
3171.86151	8310.9375
3174.18631	8304.1375
3176.5097	8311.8375
3178.83169	8271.0375
3181.15228	8277.1375
3183.47147	8254.7375
3185.78926	8272.5375
3188.10565	8241.4375
3190.42065	8281.5375
3192.73424	8282.4375
3195.04645	8247.0375
3197.35725	8261.8375
3199.66667	8238.6375
3201.97469	8262.2375
3204.28132	8232.6375
3206.58656	8240.8375
3208.8904	8248.6375
3211.19287	8257.5375
3213.49394	8266.2375
3215.79363	8247.7375
3218.09193	8250.3375
3220.38884	8251.4375
3222.68438	8244.3375
3224.97853	8258.1375
3227.2713	8224.1375
3229.56269	8235.1375
3231.8527	8225.3375
3234.14133	8210.2375
3236.42858	8209.6375
3238.71446	8199.6375
3240.99896	8187.6375
3243.28209	8189.5375
3245.56384	8195.8375
3247.84423	8161.4375
3250.12324	8161.3375
3252.40088	8141.2375
3254.67715	8144.3375
3256.95205	8119.9375
3259.22558	8127.3375
3261.49775	8088.0375
3263.76855	8089.0375
3266.03799	8042.5375
3268.30606	8047.6375
3270.57277	8013.8375
3272.83812	8010.8375
3275.10211	7990.8375
3277.36474	7974.2375
3279.62601	7983.2375
3281.88593	7996.6375
3284.14448	8010.0375
3286.40168	8004.1375
3288.65753	7972.5375
3290.91202	7973.0375
3293.16516	7963.8375
3295.41695	7906.6375
3297.66738	7873.5375
3299.91647	7834.8375
3302.16421	7792.9375
3304.4106	7760.5375
3306.65564	7742.2375
3308.89933	7709.9375
3311.14169	7627.8375
3313.38269	7597.0375
3315.62236	7547.0375
3317.86068	7449.0375
3320.09766	7382.9375
3322.3333	7320.0375
3324.5676	7331.3375
3326.80056	7197.6375
3329.03219	7187.9375
3331.26248	1.1375
3333.49143	-0.2625
3335.71905	-1.1625
