Data from AgNPs_FTO_APTES_UA_2uM_CRN_200uM_R6G_10uM_NaF_0.1M_Addition_RamanShift__19__16-41-05-374.txt Node

Date: Wed Feb 02 16:41:05 GMT 2022
User: TCL
Spectrometer: QEP01345
Trigger mode: 4
Integration Time (sec): 7.000000E0
Scans to average: 10
Electric dark correction enabled: true
Nonlinearity correction enabled: false
Boxcar width: 0
XAxis mode: Raman Shifts
Number of Pixels in Spectrum: 1044
>>>>>Begin Spectral Data<<<<<
46.04893	1.4875
50.45542	1.0875
54.85868	-1.8125
59.25871	0.9875
63.6555	66.0875
68.04907	68.6875
72.43941	70.9875
76.82654	80.7875
81.21044	81.9875
85.59113	87.8875
89.96862	88.5875
94.34289	90.1875
98.71396	94.6875
103.08183	101.7875
107.4465	102.7875
111.80798	105.5875
116.16626	104.2875
120.52136	111.6875
124.87327	113.3875
129.222	113.9875
133.56755	125.3875
137.90993	126.4875
142.24913	144.7875
146.58517	161.0875
150.91804	184.1875
155.24774	219.0875
159.57429	266.3875
163.89768	342.7875
168.21792	448.1875
172.53501	611.5875
176.84895	845.9875
181.15975	1179.5875
185.46741	1658.5875
189.77193	2269.4875
194.07331	3030.5875
198.37157	3906.7875
202.6667	4813.0875
206.9587	5726.7875
211.24758	6629.5875
215.53334	7521.0875
219.81599	8468.9875
224.09553	9510.5875
228.37195	10672.5875
232.64527	11877.3875
236.91549	13141.7875
241.18261	14445.7875
245.44663	15674.3875
249.70755	16838.9875
253.96539	17829.2875
258.22014	18709.4875
262.4718	19446.9875
266.72039	19954.0875
270.96589	20250.7875
275.20832	20383.8875
279.44768	20425.2875
283.68397	20377.0875
287.91719	20389.0875
292.14735	20446.3875
296.37445	20575.9875
300.59849	20685.5875
304.81948	20653.3875
309.03742	20390.2875
313.25231	19982.1875
317.46415	19395.0875
321.67296	18725.4875
325.87872	18238.2875
330.08145	17898.7875
334.28114	17797.4875
338.47781	17861.0875
342.67145	17936.9875
346.86207	18185.9875
351.04966	18425.8875
355.23424	18681.4875
359.4158	18876.8875
363.59435	19010.4875
367.76989	19101.3875
371.94243	19219.6875
376.11196	19296.9875
380.27849	19392.7875
384.44203	19538.2875
388.60257	19735.3875
392.76012	20017.8875
396.91468	20276.7875
401.06626	20605.9875
405.21485	20777.3875
409.36047	20737.0875
413.50311	20518.7875
417.64277	20385.5875
421.77947	20452.4875
425.9132	20561.9875
430.04396	20716.6875
434.17176	20932.0875
438.2966	21153.5875
442.41849	21460.0875
446.53742	22098.4875
450.6534	22806.8875
454.76644	23434.7875
458.87653	23705.0875
462.98368	23677.1875
467.08789	23537.4875
471.18916	23394.4875
475.2875	23398.1875
479.38291	23605.7875
483.4754	23668.5875
487.56496	23272.0875
491.6516	22584.2875
495.73531	21801.0875
499.81612	21348.6875
503.89401	21222.4875
507.96899	21223.1875
512.04106	21107.9875
516.11023	20768.2875
520.1765	20449.5875
524.23987	20117.3875
528.30034	19851.0875
532.35792	19654.3875
536.41261	19498.4875
540.46441	19401.2875
544.51333	19519.3875
548.55936	19928.2875
552.60252	20494.4875
556.64279	21176.9875
560.6802	21766.9875
564.71473	22206.0875
568.7464	22772.4875
572.7752	23543.7875
576.80114	24124.8875
580.82422	24543.1875
584.84444	24833.7875
588.86181	25105.1875
592.87633	25304.3875
596.888	25200.8875
600.89682	24878.9875
604.9028	24919.9875
608.90594	25720.6875
612.90624	26342.7875
616.90371	24436.7875
620.89834	21029.1875
624.89015	19561.4875
628.87913	19507.9875
632.86528	19759.2875
636.84862	19845.8875
640.82913	19586.9875
644.80683	19107.3875
648.78172	18654.0875
652.75379	18421.6875
656.72306	18444.7875
660.68952	18610.9875
664.65319	18504.0875
668.61405	18315.9875
672.57211	18246.9875
676.52738	18346.3875
680.47986	18348.4875
684.42955	18312.5875
688.37646	18233.6875
692.32058	18287.9875
696.26192	18434.4875
700.20048	18659.3875
704.13626	18819.1875
708.06928	18889.8875
711.99952	18823.1875
715.927	18752.3875
719.85171	18789.0875
723.77365	18742.7875
727.69284	18547.3875
731.60928	18334.0875
735.52295	18221.9875
739.43388	18195.7875
743.34206	18181.6875
747.24749	18289.4875
751.15017	18520.0875
755.05012	18937.7875
758.94733	19611.4875
762.8418	20679.4875
766.73354	22079.2875
770.62254	23256.6875
774.50882	23172.7875
778.39237	21900.3875
782.27321	20239.7875
786.15132	19050.3875
790.02671	18340.2875
793.89938	17978.1875
797.76935	17846.4875
801.6366	17847.1875
805.50115	17853.3875
809.36299	17774.7875
813.22213	17644.0875
817.07857	17637.2875
820.93231	17586.9875
824.78336	17453.6875
828.63172	17306.1875
832.47738	17183.3875
836.32036	17143.5875
840.16066	17154.8875
843.99827	17181.3875
847.8332	17114.0875
851.66546	17034.3875
855.49504	16993.0875
859.32195	16955.6875
863.1462	16945.4875
866.96777	16907.9875
870.78668	16839.2875
874.60293	16840.6875
878.41652	16844.1875
882.22745	16861.9875
886.03573	16918.2875
889.84136	16929.6875
893.64433	16837.5875
897.44466	16805.0875
901.24235	16726.7875
905.0374	16631.8875
908.8298	16622.4875
912.61957	16714.2875
916.40671	16952.1875
920.19121	17228.5875
923.97308	17394.3875
927.75233	17288.6875
931.52895	17018.3875
935.30295	16719.5875
939.07433	16341.5875
942.84309	16091.1875
946.60924	15913.0875
950.37278	15891.4875
954.13371	15907.3875
957.89203	15927.3875
961.64774	15959.1875
965.40086	15954.5875
969.15137	15839.8875
972.89929	15678.9875
976.64461	15548.5875
980.38733	15484.0875
984.12747	15483.5875
987.86502	15546.9875
991.59999	15666.3875
995.33237	15870.6875
999.06217	16199.0875
1002.78939	16587.7875
1006.51404	16895.3875
1010.23611	17066.5875
1013.95561	17232.5875
1017.67255	17291.9875
1021.38692	17126.0875
1025.09872	16880.0875
1028.80796	16728.9875
1032.51465	16829.4875
1036.21877	17002.1875
1039.92035	17075.2875
1043.61937	17057.2875
1047.31584	16951.8875
1051.00976	16880.6875
1054.70114	16880.8875
1058.38998	17091.2875
1062.07627	17328.3875
1065.76003	17627.2875
1069.44126	17831.0875
1073.11995	18020.1875
1076.79611	18145.9875
1080.46974	18177.6875
1084.14085	18251.6875
1087.80943	18397.9875
1091.47549	18650.6875
1095.13903	18798.2875
1098.80005	18677.0875
1102.45857	18254.1875
1106.11456	17814.9875
1109.76805	17567.7875
1113.41903	17578.2875
1117.06751	17692.2875
1120.71348	17888.1875
1124.35696	18126.2875
1127.99793	18358.7875
1131.63641	18570.1875
1135.2724	18547.3875
1138.90589	18526.0875
1142.5369	18648.0875
1146.16542	18912.7875
1149.79145	19284.8875
1153.415	19724.2875
1157.03607	20301.2875
1160.65467	21087.7875
1164.27079	22219.3875
1167.88443	23580.8875
1171.49561	25141.2875
1175.10432	27001.4875
1178.71056	29294.1875
1182.31434	31374.8875
1185.91565	32546.5875
1189.51451	32612.1875
1193.11091	32130.6875
1196.70485	31298.6875
1200.29634	30178.4875
1203.88538	29323.5875
1207.47197	28851.3875
1211.05612	28505.6875
1214.63782	27975.7875
1218.21708	27086.1875
1221.79391	26147.2875
1225.36829	25364.5875
1228.94024	24685.9875
1232.50976	24089.6875
1236.07685	23642.8875
1239.6415	23429.5875
1243.20374	23440.4875
1246.76355	23648.1875
1250.32093	23998.2875
1253.8759	24509.1875
1257.42845	25231.4875
1260.97859	26021.7875
1264.52631	26692.5875
1268.07163	27408.5875
1271.61453	28227.4875
1275.15503	29229.5875
1278.69312	30293.1875
1282.22882	31412.5875
1285.76211	32696.6875
1289.29301	34270.3875
1292.82151	36389.2875
1296.34761	38994.6875
1299.87133	41765.9875
1303.39266	44413.4875
1306.9116	46542.3875
1310.42815	48200.8875
1313.94233	49236.7875
1317.45412	49613.5875
1320.96354	49685.8875
1324.47058	49757.1875
1327.97525	49904.9875
1331.47754	49991.6875
1334.97747	50001.1875
1338.47502	49772.0875
1341.97022	49120.7875
1345.46305	47847.6875
1348.95352	46196.9875
1352.44163	44586.3875
1355.92738	43547.6875
1359.41078	43399.6875
1362.89183	43506.4875
1366.37053	42583.6875
1369.84688	39889.0875
1373.32088	36497.7875
1376.79254	34233.9875
1380.26186	33741.4875
1383.72883	34336.8875
1387.19347	35158.6875
1390.65578	35685.2875
1394.11575	36300.9875
1397.57339	37185.1875
1401.0287	38355.5875
1404.48168	39143.4875
1407.93234	39101.8875
1411.38068	37895.8875
1414.82669	35913.3875
1418.27039	33527.5875
1421.71177	31135.0875
1425.15083	29272.0875
1428.58758	28186.0875
1432.02203	28150.2875
1435.45416	28884.6875
1438.88399	30125.3875
1442.31151	31345.1875
1445.73673	32347.8875
1449.15965	33281.6875
1452.58027	34131.2875
1455.9986	34625.2875
1459.41463	35045.9875
1462.82837	35505.9875
1466.23982	35954.7875
1469.64898	36235.3875
1473.05586	36244.1875
1476.46045	35950.2875
1479.86276	35245.1875
1483.26279	34391.6875
1486.66054	33599.0875
1490.05602	33151.0875
1493.44922	33033.2875
1496.84016	32868.4875
1500.22882	32961.0875
1503.61521	33401.9875
1506.99934	34094.5875
1510.38121	34708.3875
1513.76081	35064.1875
1517.13816	34884.1875
1520.51324	34388.5875
1523.88607	34047.0875
1527.25665	34194.7875
1530.62498	34509.8875
1533.99105	34727.0875
1537.35488	34662.1875
1540.71647	34078.1875
1544.07581	33164.5875
1547.4329	32031.3875
1550.78776	31118.4875
1554.14038	30410.2875
1557.49077	29984.9875
1560.83892	29834.7875
1564.18484	29722.6875
1567.52853	29741.4875
1570.86999	29973.1875
1574.20922	30622.8875
1577.54624	31602.0875
1580.88103	32413.8875
1584.2136	33445.7875
1587.54395	34893.1875
1590.87208	36752.0875
1594.19801	38728.8875
1597.52172	40566.3875
1600.84321	40725.5875
1604.16251	38667.6875
1607.47959	35235.7875
1610.79447	31595.2875
1614.10715	28338.3875
1617.41763	25640.1875
1620.7259	23845.8875
1624.03199	22847.0875
1627.33587	22744.0875
1630.63757	23547.9875
1633.93707	25407.8875
1637.23439	28498.8875
1640.52951	32824.7875
1643.82246	37581.8875
1647.11321	41244.8875
1650.40179	41873.5875
1653.68819	38828.3875
1656.97241	33464.2875
1660.25446	27996.0875
1663.53433	23652.2875
1666.81203	20653.1875
1670.08756	18717.7875
1673.36092	17487.7875
1676.63211	16708.4875
1679.90115	16171.3875
1683.16801	15773.8875
1686.43272	15479.0875
1689.69527	15273.2875
1692.95567	15093.2875
1696.2139	14974.2875
1699.46999	14886.1875
1702.72392	14799.9875
1705.97571	14663.6875
1709.22535	14564.0875
1712.47284	14520.4875
1715.71819	14438.9875
1718.96139	14356.1875
1722.20246	14287.7875
1725.44139	14249.7875
1728.67818	14152.3875
1731.91284	14044.0875
1735.14537	13978.4875
1738.37576	13915.1875
1741.60403	13853.5875
1744.83017	13804.1875
1748.05418	13777.4875
1751.27607	13756.3875
1754.49584	13734.4875
1757.71349	13739.6875
1760.92903	13679.3875
1764.14244	13679.7875
1767.35375	13667.7875
1770.56294	13586.4875
1773.77002	13549.8875
1776.97499	13470.8875
1780.17785	13436.1875
1783.37861	13404.0875
1786.57727	13405.4875
1789.77382	13337.6875
1792.96828	13296.4875
1796.16064	13220.2875
1799.3509	13203.0875
1802.53907	13177.3875
1805.72514	13127.2875
1808.90913	13099.9875
1812.09102	13070.7875
1815.27083	13021.1875
1818.44856	13013.7875
1821.6242	12978.4875
1824.79776	12981.5875
1827.96924	12956.7875
1831.13864	12948.8875
1834.30597	12933.4875
1837.47122	12956.6875
1840.6344	12934.8875
1843.7955	12949.6875
1846.95454	12915.3875
1850.11151	12899.7875
1853.26642	12913.7875
1856.41926	12913.7875
1859.57004	12897.9875
1862.71876	12859.8875
1865.86542	12861.1875
1869.01003	12817.6875
1872.15258	12823.8875
1875.29308	12834.0875
1878.43152	12790.2875
1881.56792	12777.2875
1884.70227	12759.4875
1887.83457	12766.4875
1890.96482	12770.9875
1894.09304	12748.2875
1897.21921	12741.9875
1900.34335	12696.7875
1903.46544	12699.1875
1906.58551	12668.1875
1909.70353	12653.9875
1912.81953	12643.5875
1915.93349	12595.7875
1919.04543	12546.6875
1922.15534	12523.3875
1925.26322	12499.0875
1928.36908	12483.3875
1931.47292	12444.1875
1934.57473	12386.8875
1937.67453	12347.7875
1940.77232	12322.7875
1943.86808	12303.6875
1946.96184	12275.7875
1950.05358	12222.7875
1953.14331	12168.6875
1956.23103	12122.8875
1959.31675	12081.5875
1962.40046	12055.5875
1965.48217	11996.3875
1968.56188	11977.4875
1971.63959	11890.8875
1974.7153	11887.2875
1977.78901	11870.3875
1980.86073	11811.9875
1983.93046	11751.3875
1986.99819	11733.9875
1990.06394	11692.6875
1993.1277	11648.2875
1996.18947	11592.0875
1999.24925	11591.1875
2002.30706	11542.8875
2005.36288	11503.9875
2008.41672	11462.8875
2011.46859	11471.6875
2014.51848	11376.8875
2017.56639	11356.1875
2020.61233	11324.3875
2023.6563	11308.4875
2026.6983	11275.3875
2029.73833	11278.2875
2032.7764	11242.7875
2035.8125	11239.9875
2038.84664	11192.3875
2041.87881	11214.6875
2044.90903	11203.9875
2047.93729	11172.3875
2050.96359	11153.2875
2053.98794	11134.8875
2057.01034	11139.0875
2060.03078	11101.5875
2063.04927	11112.4875
2066.06582	11106.9875
2069.08042	11069.2875
2072.09307	11081.7875
2075.10378	11055.8875
2078.11255	11034.5875
2081.11938	11036.6875
2084.12426	10995.2875
2087.12722	10990.7875
2090.12824	11006.4875
2093.12732	11017.3875
2096.12447	11012.4875
2099.11969	11016.2875
2102.11299	11025.7875
2105.10435	11022.4875
2108.09379	11033.9875
2111.08131	11019.4875
2114.0669	11032.5875
2117.05057	11024.6875
2120.03233	11017.4875
2123.01216	11053.2875
2125.99008	11026.5875
2128.96609	11043.9875
2131.94018	11049.7875
2134.91236	11039.8875
2137.88263	11052.4875
2140.851	11014.0875
2143.81746	11062.0875
2146.78201	11035.4875
2149.74466	11033.2875
2152.7054	11039.0875
2155.66425	11005.3875
2158.6212	11032.4875
2161.57625	11013.9875
2164.52941	11005.1875
2167.48067	11010.9875
2170.43004	11011.2875
2173.37752	10946.1875
2176.32311	10960.5875
2179.26681	10976.2875
2182.20863	10958.1875
2185.14856	10989.4875
2188.08661	10985.1875
2191.02278	10973.4875
2193.95707	10949.6875
2196.88948	10922.2875
2199.82001	10914.2875
2202.74867	10917.6875
2205.67545	10905.6875
2208.60037	10884.9875
2211.52341	10871.5875
2214.44458	10854.5875
2217.36388	10841.3875
2220.28132	10838.6875
2223.1969	10805.7875
2226.11061	10777.0875
2229.02246	10753.5875
2231.93245	10733.5875
2234.84058	10720.3875
2237.74686	10689.2875
2240.65128	10675.3875
2243.55385	10657.3875
2246.45456	10659.9875
2249.35343	10622.6875
2252.25044	10575.6875
2255.14561	10571.4875
2258.03893	10590.9875
2260.93041	10529.4875
2263.82004	10492.3875
2266.70783	10473.6875
2269.59378	10443.1875
2272.4779	10410.4875
2275.36017	10365.6875
2278.24061	10367.9875
2281.11922	10334.4875
2283.996	10327.7875
2286.87094	10299.0875
2289.74405	10265.8875
2292.61534	10279.3875
2295.4848	10271.3875
2298.35243	10250.1875
2301.21824	10230.5875
2304.08223	10247.1875
2306.94439	10249.8875
2309.80474	10239.8875
2312.66327	10222.5875
2315.51999	10243.2875
2318.37489	10228.9875
2321.22797	10197.4875
2324.07925	10213.7875
2326.92871	10180.3875
2329.77637	10180.8875
2332.62222	10155.5875
2335.46626	10140.5875
2338.3085	10154.4875
2341.14893	10129.9875
2343.98756	10138.3875
2346.8244	10149.5875
2349.65943	10154.4875
2352.49267	10158.8875
2355.32411	10122.1875
2358.15376	10158.2875
2360.98161	10137.8875
2363.80768	10113.8875
2366.63195	10090.2875
2369.45444	10102.0875
2372.27514	10061.5875
2375.09405	10061.7875
2377.91118	10055.1875
2380.72652	10037.6875
2383.54009	10028.4875
2386.35187	10002.3875
2389.16188	9977.8875
2391.97011	9932.1875
2394.77657	9938.9875
2397.58125	9924.6875
2400.38416	9892.3875
2403.18529	9902.0875
2405.98466	9858.8875
2408.78226	9858.4875
2411.57809	9820.0875
2414.37216	9814.8875
2417.16446	9832.5875
2419.955	9819.3875
2422.74378	9800.7875
2425.5308	9781.0875
2428.31606	9783.0875
2431.09956	9788.6875
2433.88131	9752.7875
2436.6613	9766.3875
2439.43954	9772.4875
2442.21603	9761.6875
2444.99077	9758.4875
2447.76377	9772.4875
2450.53501	9758.5875
2453.30451	9751.9875
2456.07226	9738.0875
2458.83827	9739.1875
2461.60254	9744.6875
2464.36507	9769.7875
2467.12586	9749.5875
2469.88492	9745.0875
2472.64224	9740.1875
2475.39782	9761.3875
2478.15167	9755.6875
2480.90379	9762.5875
2483.65417	9751.1875
2486.40283	9742.7875
2489.14976	9748.9875
2491.89497	9756.4875
2494.63845	9779.5875
2497.3802	9744.6875
2500.12024	9739.8875
2502.85855	9750.0875
2505.59514	9774.7875
2508.33002	9754.6875
2511.06318	9759.6875
2513.79462	9751.1875
2516.52435	9720.8875
2519.25237	9719.9875
2521.97867	9715.6875
2524.70327	9709.3875
2527.42616	9718.6875
2530.14734	9696.7875
2532.86681	9693.3875
2535.58458	9694.0875
2538.30065	9682.5875
2541.01501	9665.8875
2543.72768	9668.3875
2546.43864	9649.6875
2549.14791	9610.8875
2551.85548	9619.8875
2554.56136	9637.4875
2557.26554	9625.4875
2559.96803	9605.9875
2562.66883	9608.5875
2565.36794	9606.3875
2568.06536	9611.3875
2570.7611	9585.9875
2573.45514	9609.0875
2576.14751	9591.1875
2578.83819	9576.3875
2581.52719	9541.2875
2584.21451	9570.9875
2586.90015	9566.0875
2589.58411	9551.3875
2592.2664	9555.1875
2594.94701	9545.0875
2597.62594	9558.4875
2600.30321	9537.0875
2602.9788	9525.2875
2605.65273	9521.8875
2608.32498	9530.4875
2610.99557	9541.0875
2613.66449	9556.4875
2616.33175	9552.7875
2618.99734	9550.5875
2621.66128	9556.1875
2624.32355	9567.7875
2626.98416	9560.0875
2629.64311	9548.2875
2632.30041	9576.8875
2634.95605	9573.2875
2637.61004	9557.9875
2640.26238	9549.6875
2642.91306	9557.1875
2645.56209	9521.9875
2648.20948	9564.9875
2650.85521	9544.3875
2653.4993	9556.5875
2656.14175	9545.5875
2658.78255	9552.5875
2661.42171	9552.4875
2664.05923	9573.6875
2666.6951	9591.0875
2669.32934	9610.5875
2671.96194	9566.0875
2674.59291	9577.4875
2677.22224	9571.4875
2679.84993	9605.9875
2682.476	9564.5875
2685.10043	9579.5875
2687.72324	9554.8875
2690.34441	9561.1875
2692.96396	9557.3875
2695.58188	9559.0875
2698.19818	9551.2875
2700.81285	9574.5875
2703.4259	9587.0875
2706.03733	9619.0875
2708.64714	9614.3875
2711.25533	9615.1875
2713.86191	9602.6875
2716.46687	9632.8875
2719.07021	9625.0875
2721.67194	9603.7875
2724.27206	9626.9875
2726.87057	9634.0875
2729.46747	9669.7875
2732.06276	9652.9875
2734.65644	9656.6875
2737.24852	9618.1875
2739.83899	9644.1875
2742.42786	9647.2875
2745.01513	9632.5875
2747.60079	9639.6875
2750.18486	9614.3875
2752.76733	9617.8875
2755.3482	9627.5875
2757.92747	9642.3875
2760.50515	9654.6875
2763.08123	9670.0875
2765.65573	9655.4875
2768.22863	9656.0875
2770.79994	9643.8875
2773.36967	9635.4875
2775.9378	9688.1875
2778.50435	9660.9875
2781.06932	9647.9875
2783.6327	9669.7875
2786.1945	9623.0875
2788.75471	9646.2875
2791.31335	9647.4875
2793.87041	9627.5875
2796.42589	9616.6875
2798.97979	9605.8875
2801.53212	9594.1875
2804.08288	9596.4875
2806.63206	9571.8875
2809.17967	9544.1875
2811.72571	9524.4875
2814.27018	9537.4875
2816.81308	9514.1875
2819.35442	9493.9875
2821.89419	9452.6875
2824.43239	9456.7875
2826.96904	9441.1875
2829.50412	9437.7875
2832.03763	9428.0875
2834.56959	9431.5875
2837.1	9427.0875
2839.62884	9441.9875
2842.15613	9414.7875
2844.68186	9467.8875
2847.20604	9502.7875
2849.72867	9512.9875
2852.24974	9522.8875
2854.76927	9499.8875
2857.28724	9503.7875
2859.80367	9464.7875
2862.31855	9461.4875
2864.83189	9450.2875
2867.34368	9447.5875
2869.85393	9450.6875
2872.36264	9433.4875
2874.8698	9446.0875
2877.37543	9440.7875
2879.87952	9444.0875
2882.38207	9451.9875
2884.88308	9453.8875
2887.38256	9439.9875
2889.88051	9450.9875
2892.37692	9474.4875
2894.8718	9473.6875
2897.36515	9495.8875
2899.85698	9491.2875
2902.34727	9519.2875
2904.83604	9503.6875
2907.32328	9539.9875
2909.809	9540.2875
2912.29319	9542.6875
2914.77587	9534.2875
2917.25702	9548.4875
2919.73665	9521.0875
2922.21476	9507.5875
2924.69136	9534.5875
2927.16644	9531.5875
2929.64	9554.0875
2932.11205	9528.7875
2934.58258	9502.6875
2937.05161	9539.2875
2939.51912	9504.4875
2941.98513	9504.6875
2944.44962	9464.3875
2946.91261	9407.1875
2949.37409	9432.4875
2951.83407	9404.4875
2954.29254	9376.8875
2956.74951	9368.6875
2959.20498	9371.3875
2961.65895	9334.0875
2964.11142	9302.5875
2966.56239	9313.0875
2969.01186	9295.6875
2971.45984	9252.3875
2973.90632	9252.9875
2976.35131	9199.9875
2978.7948	9187.6875
2981.23681	9138.2875
2983.67732	9127.6875
2986.11635	9090.6875
2988.55388	9071.0875
2990.98993	9076.8875
2993.4245	9050.6875
2995.85758	9041.3875
2998.28917	9012.7875
3000.71928	8981.8875
3003.14791	8967.3875
3005.57506	8965.3875
3008.00073	8933.5875
3010.42493	8872.6875
3012.84764	8878.4875
3015.26888	8868.2875
3017.68865	8855.7875
3020.10694	8833.8875
3022.52376	8830.7875
3024.9391	8804.1875
3027.35298	8786.5875
3029.76539	8773.7875
3032.17632	8774.2875
3034.5858	8763.0875
3036.9938	8768.5875
3039.40034	8789.3875
3041.80542	8746.5875
3044.20903	8765.1875
3046.61118	8745.7875
3049.01187	8728.7875
3051.4111	8709.0875
3053.80888	8668.9875
3056.20519	8650.9875
3058.60005	8629.2875
3060.99345	8639.8875
3063.3854	8598.6875
3065.7759	8565.9875
3068.16494	8570.5875
3070.55254	8511.7875
3072.93868	8507.9875
3075.32338	8461.4875
3077.70662	8463.9875
3080.08842	8425.6875
3082.46878	8412.9875
3084.84769	8410.1875
3087.22515	8415.0875
3089.60118	8402.9875
3091.97576	8405.0875
3094.3489	8391.7875
3096.72061	8395.7875
3099.09087	8370.5875
3101.4597	8342.4875
3103.82709	8374.4875
3106.19305	8338.0875
3108.55757	8331.5875
3110.92066	8284.8875
3113.28232	8293.4875
3115.64255	8258.2875
3118.00134	8240.3875
3120.35871	8223.8875
3122.71466	8199.1875
3125.06917	8209.1875
3127.42226	8163.2875
3129.77393	8174.5875
3132.12417	8166.2875
3134.47299	8175.6875
3136.82039	8145.3875
3139.16636	8143.9875
3141.51092	8149.0875
3143.85406	8159.9875
3146.19579	8173.9875
3148.53609	8180.3875
3150.87499	8188.5875
3153.21246	8171.1875
3155.54853	8171.7875
3157.88318	8150.9875
3160.21642	8165.3875
3162.54826	8164.4875
3164.87868	8190.8875
3167.2077	8154.2875
3169.5353	8168.3875
3171.86151	8159.0875
3174.18631	8142.6875
3176.5097	8138.8875
3178.83169	8135.4875
3181.15228	8133.4875
3183.47147	8131.0875
3185.78926	8128.4875
3188.10565	8122.6875
3190.42065	8112.2875
3192.73424	8125.0875
3195.04645	8085.8875
3197.35725	8118.4875
3199.66667	8112.0875
3201.97469	8123.6875
3204.28132	8084.9875
3206.58656	8097.6875
3208.8904	8083.7875
3211.19287	8101.7875
3213.49394	8101.8875
3215.79363	8093.5875
3218.09193	8069.0875
3220.38884	8113.8875
3222.68438	8091.1875
3224.97853	8101.9875
3227.2713	8089.9875
3229.56269	8068.7875
3231.8527	8050.9875
3234.14133	8052.0875
3236.42858	8035.8875
3238.71446	8051.4875
3240.99896	8033.1875
3243.28209	8051.3875
3245.56384	8024.6875
3247.84423	8024.3875
3250.12324	7995.1875
3252.40088	8008.7875
3254.67715	7972.5875
3256.95205	7968.4875
3259.22558	7965.8875
3261.49775	7927.5875
3263.76855	7902.7875
3266.03799	7898.9875
3268.30606	7859.0875
3270.57277	7871.3875
3272.83812	7854.5875
3275.10211	7827.7875
3277.36474	7827.6875
3279.62601	7818.7875
3281.88593	7828.9875
3284.14448	7835.6875
3286.40168	7836.7875
3288.65753	7808.3875
3290.91202	7794.5875
3293.16516	7779.6875
3295.41695	7755.4875
3297.66738	7726.6875
3299.91647	7664.5875
3302.16421	7635.8875
3304.4106	7589.5875
3306.65564	7556.9875
3308.89933	7497.4875
3311.14169	7462.9875
3313.38269	7426.0875
3315.62236	7379.5875
3317.86068	7302.6875
3320.09766	7220.4875
3322.3333	7149.7875
3324.5676	7168.1875
3326.80056	7040.0875
3329.03219	7021.1875
3331.26248	0.3875
3333.49143	-0.9125
3335.71905	-1.3125
