Data from AgNPs_FTO_APTES_UA_2uM_CRN_1uM_R6G_10uM_NaF_0.1M_Addition_RamanShift__2__11-21-25-001.txt Node

Date: Wed Feb 02 11:21:25 GMT 2022
User: TCL
Spectrometer: QEP01345
Trigger mode: 4
Integration Time (sec): 7.000000E0
Scans to average: 10
Electric dark correction enabled: true
Nonlinearity correction enabled: false
Boxcar width: 0
XAxis mode: Raman Shifts
Number of Pixels in Spectrum: 1044
>>>>>Begin Spectral Data<<<<<
46.04893	-0.2875
50.45542	-0.0875
54.85868	-0.7875
59.25871	0.0125
63.6555	73.0125
68.04907	79.0125
72.43941	82.0125
76.82654	91.0125
81.21044	93.6125
85.59113	95.9125
89.96862	94.4125
94.34289	101.1125
98.71396	106.0125
103.08183	111.0125
107.4465	110.8125
111.80798	115.0125
116.16626	115.8125
120.52136	121.4125
124.87327	121.7125
129.222	127.6125
133.56755	141.4125
137.90993	149.1125
142.24913	163.3125
146.58517	188.8125
150.91804	216.5125
155.24774	263.3125
159.57429	324.8125
163.89768	413.4125
168.21792	547.6125
172.53501	742.8125
176.84895	1045.9125
181.15975	1465.6125
185.46741	2048.9125
189.77193	2809.1125
194.07331	3754.0125
198.37157	4839.6125
202.6667	5951.7125
206.9587	7113.9125
211.24758	8221.1125
215.53334	9400.6125
219.81599	10609.9125
224.09553	12032.2125
228.37195	13540.0125
232.64527	15163.1125
236.91549	16892.2125
241.18261	18472.4125
245.44663	19969.5125
249.70755	21243.6125
253.96539	22274.3125
258.22014	23189.8125
262.4718	23903.3125
266.72039	24379.3125
270.96589	24525.4125
275.20832	24439.5125
279.44768	24083.0125
283.68397	23725.8125
287.91719	23439.8125
292.14735	23290.8125
296.37445	23284.7125
300.59849	23540.1125
304.81948	23948.9125
309.03742	24182.1125
313.25231	24238.8125
317.46415	23903.1125
321.67296	23333.6125
325.87872	22806.6125
330.08145	22524.2125
334.28114	22438.0125
338.47781	22548.5125
342.67145	22790.3125
346.86207	23189.6125
351.04966	23585.1125
355.23424	24160.7125
359.4158	24560.9125
363.59435	24843.0125
367.76989	25026.4125
371.94243	25073.4125
376.11196	25065.2125
380.27849	25110.3125
384.44203	25182.8125
388.60257	25355.6125
392.76012	25489.8125
396.91468	25766.0125
401.06626	26199.7125
405.21485	26492.5125
409.36047	26404.1125
413.50311	26108.8125
417.64277	25915.1125
421.77947	25949.3125
425.9132	26045.6125
430.04396	26109.6125
434.17176	26177.4125
438.2966	26346.2125
442.41849	26843.0125
446.53742	27854.4125
450.6534	28841.8125
454.76644	29312.1125
458.87653	29191.0125
462.98368	28637.5125
467.08789	28071.2125
471.18916	27357.8125
475.2875	26604.4125
479.38291	26157.9125
483.4754	25902.1125
487.56496	25763.0125
491.6516	25572.9125
495.73531	25371.8125
499.81612	25287.0125
503.89401	25440.7125
507.96899	25469.8125
512.04106	25340.9125
516.11023	25132.3125
520.1765	24969.0125
524.23987	24884.9125
528.30034	24888.8125
532.35792	24712.4125
536.41261	24286.7125
540.46441	23777.7125
544.51333	23483.7125
548.55936	23674.5125
552.60252	24204.8125
556.64279	25020.2125
560.6802	25627.4125
564.71473	25830.1125
568.7464	26178.1125
572.7752	26834.1125
576.80114	27485.5125
580.82422	28382.8125
584.84444	30062.1125
588.86181	32299.2125
592.87633	34392.2125
596.888	34462.1125
600.89682	32191.6125
604.9028	31015.7125
608.90594	33425.5125
612.90624	36962.9125
616.90371	35032.8125
620.89834	28472.1125
624.89015	25291.7125
628.87913	24744.3125
632.86528	24783.5125
636.84862	24532.7125
640.82913	23993.1125
644.80683	23290.2125
648.78172	22958.6125
652.75379	23016.2125
656.72306	23394.9125
660.68952	23849.6125
664.65319	23607.7125
668.61405	23032.6125
672.57211	22868.9125
676.52738	23050.4125
680.47986	23013.0125
684.42955	22814.5125
688.37646	22564.7125
692.32058	22816.4125
696.26192	23339.6125
700.20048	23907.3125
704.13626	24180.1125
708.06928	24093.8125
711.99952	23938.8125
715.927	24012.3125
719.85171	24270.3125
723.77365	24224.0125
727.69284	23730.0125
731.60928	23241.1125
735.52295	23124.7125
739.43388	23184.4125
743.34206	23285.5125
747.24749	23465.0125
751.15017	23686.4125
755.05012	24090.1125
758.94733	24804.4125
762.8418	26179.1125
766.73354	28427.2125
770.62254	30594.8125
774.50882	31206.7125
778.39237	29794.4125
782.27321	27574.8125
786.15132	25534.4125
790.02671	24324.3125
793.89938	23730.9125
797.76935	23511.9125
801.6366	23367.8125
805.50115	23282.1125
809.36299	23140.0125
813.22213	22958.5125
817.07857	22715.9125
820.93231	22585.9125
824.78336	22461.9125
828.63172	22461.8125
832.47738	22515.8125
836.32036	22581.4125
840.16066	22747.1125
843.99827	22808.3125
847.8332	22776.5125
851.66546	22596.1125
855.49504	22576.4125
859.32195	22538.7125
863.1462	22412.3125
866.96777	22296.1125
870.78668	22210.1125
874.60293	22238.8125
878.41652	22341.1125
882.22745	22516.6125
886.03573	22675.7125
889.84136	22680.2125
893.64433	22563.0125
897.44466	22465.1125
901.24235	22361.6125
905.0374	22294.2125
908.8298	22231.2125
912.61957	22278.4125
916.40671	22490.5125
920.19121	22825.8125
923.97308	23252.2125
927.75233	23549.2125
931.52895	23569.8125
935.30295	23147.1125
939.07433	22503.4125
942.84309	22061.7125
946.60924	21829.6125
950.37278	21713.9125
954.13371	21667.3125
957.89203	21563.3125
961.64774	21474.7125
965.40086	21456.4125
969.15137	21395.6125
972.89929	21298.3125
976.64461	21267.7125
980.38733	21273.5125
984.12747	21401.5125
987.86502	21558.7125
991.59999	21848.0125
995.33237	22305.9125
999.06217	23057.8125
1002.78939	23962.3125
1006.51404	24577.1125
1010.23611	24958.9125
1013.95561	25203.2125
1017.67255	25224.9125
1021.38692	24853.4125
1025.09872	24382.2125
1028.80796	24449.2125
1032.51465	25278.4125
1036.21877	26204.9125
1039.92035	26528.5125
1043.61937	26201.8125
1047.31584	25511.5125
1051.00976	24734.9125
1054.70114	24205.9125
1058.38998	24034.9125
1062.07627	23979.0125
1065.76003	23899.4125
1069.44126	24123.9125
1073.11995	24565.4125
1076.79611	25053.3125
1080.46974	25285.8125
1084.14085	25578.1125
1087.80943	25898.6125
1091.47549	26140.7125
1095.13903	26049.8125
1098.80005	25426.7125
1102.45857	24683.5125
1106.11456	24218.0125
1109.76805	24071.1125
1113.41903	24125.8125
1117.06751	24225.7125
1120.71348	24545.0125
1124.35696	24901.3125
1127.99793	25277.2125
1131.63641	25500.1125
1135.2724	25333.3125
1138.90589	25046.2125
1142.5369	24987.2125
1146.16542	25066.3125
1149.79145	25207.9125
1153.415	25353.7125
1157.03607	25701.4125
1160.65467	26597.8125
1164.27079	28066.3125
1167.88443	29925.3125
1171.49561	31957.1125
1175.10432	34674.0125
1178.71056	38346.3125
1182.31434	41746.0125
1185.91565	43032.4125
1189.51451	42041.0125
1193.11091	39971.4125
1196.70485	37760.3125
1200.29634	35869.2125
1203.88538	34541.2125
1207.47197	33648.6125
1211.05612	32896.9125
1214.63782	32177.4125
1218.21708	31519.3125
1221.79391	31182.7125
1225.36829	31039.1125
1228.94024	30754.7125
1232.50976	30084.6125
1236.07685	29221.9125
1239.6415	28683.6125
1243.20374	28478.2125
1246.76355	28693.2125
1250.32093	29191.3125
1253.8759	30006.8125
1257.42845	31084.9125
1260.97859	32250.5125
1264.52631	33420.7125
1268.07163	34678.2125
1271.61453	35893.6125
1275.15503	37288.0125
1278.69312	38571.9125
1282.22882	39961.0125
1285.76211	41561.1125
1289.29301	43344.5125
1292.82151	45530.8125
1296.34761	48091.6125
1299.87133	51453.5125
1303.39266	55278.8125
1306.9116	59052.9125
1310.42815	62153.9125
1313.94233	63494.4125
1317.45412	62386.2125
1320.96354	59615.0125
1324.47058	56740.3125
1327.97525	54374.1125
1331.47754	52599.6125
1334.97747	51302.0125
1338.47502	49868.9125
1341.97022	48168.7125
1345.46305	46769.3125
1348.95352	46664.5125
1352.44163	48303.3125
1355.92738	52087.1125
1359.41078	57309.0125
1362.89183	61799.4125
1366.37053	62202.6125
1369.84688	56861.1125
1373.32088	48573.2125
1376.79254	42625.0125
1380.26186	40306.0125
1383.72883	39905.5125
1387.19347	39514.2125
1390.65578	38523.6125
1394.11575	38068.1125
1397.57339	38524.1125
1401.0287	39407.4125
1404.48168	40076.9125
1407.93234	40072.2125
1411.38068	39340.8125
1414.82669	38190.7125
1418.27039	36887.3125
1421.71177	35494.0125
1425.15083	34288.4125
1428.58758	33852.1125
1432.02203	34375.2125
1435.45416	35618.8125
1438.88399	36719.2125
1442.31151	37289.1125
1445.73673	37426.5125
1449.15965	37491.0125
1452.58027	37100.4125
1455.9986	36431.0125
1459.41463	36120.9125
1462.82837	36543.8125
1466.23982	37531.6125
1469.64898	38500.4125
1473.05586	39205.8125
1476.46045	39598.7125
1479.86276	39699.8125
1483.26279	39632.4125
1486.66054	39699.3125
1490.05602	40144.2125
1493.44922	40769.9125
1496.84016	41245.8125
1500.22882	41786.4125
1503.61521	42907.8125
1506.99934	44393.9125
1510.38121	45895.8125
1513.76081	46495.4125
1517.13816	45430.3125
1520.51324	43392.0125
1523.88607	41547.4125
1527.25665	40591.2125
1530.62498	40280.5125
1533.99105	39800.7125
1537.35488	39054.2125
1540.71647	37961.3125
1544.07581	36813.5125
1547.4329	35636.4125
1550.78776	34643.5125
1554.14038	33940.3125
1557.49077	33520.6125
1560.83892	33293.3125
1564.18484	33305.7125
1567.52853	33521.9125
1570.86999	34011.1125
1574.20922	34796.0125
1577.54624	35374.3125
1580.88103	35515.7125
1584.2136	35830.1125
1587.54395	37316.3125
1590.87208	40123.1125
1594.19801	43563.3125
1597.52172	46717.3125
1600.84321	47505.7125
1604.16251	44762.2125
1607.47959	39903.7125
1610.79447	35119.1125
1614.10715	31254.0125
1617.41763	28569.0125
1620.7259	27101.2125
1624.03199	26632.3125
1627.33587	26856.7125
1630.63757	27948.8125
1633.93707	29960.5125
1637.23439	33409.1125
1640.52951	38796.7125
1643.82246	45597.5125
1647.11321	51169.4125
1650.40179	52066.1125
1653.68819	47191.6125
1656.97241	39395.2125
1660.25446	32390.7125
1663.53433	27657.6125
1666.81203	24863.7125
1670.08756	23238.4125
1673.36092	22296.5125
1676.63211	21680.4125
1679.90115	21244.7125
1683.16801	20888.1125
1686.43272	20657.2125
1689.69527	20534.2125
1692.95567	20384.0125
1696.2139	20313.1125
1699.46999	20257.1125
1702.72392	20178.7125
1705.97571	20102.0125
1709.22535	20082.4125
1712.47284	20064.7125
1715.71819	20061.3125
1718.96139	19996.1125
1722.20246	19948.5125
1725.44139	19863.3125
1728.67818	19717.7125
1731.91284	19604.7125
1735.14537	19503.3125
1738.37576	19396.6125
1741.60403	19321.2125
1744.83017	19258.1125
1748.05418	19244.8125
1751.27607	19178.7125
1754.49584	19158.0125
1757.71349	19136.5125
1760.92903	19136.8125
1764.14244	19105.2125
1767.35375	19089.5125
1770.56294	19056.4125
1773.77002	19015.5125
1776.97499	18959.4125
1780.17785	18963.7125
1783.37861	18949.7125
1786.57727	18877.8125
1789.77382	18850.8125
1792.96828	18834.7125
1796.16064	18811.5125
1799.3509	18777.6125
1802.53907	18739.4125
1805.72514	18711.2125
1808.90913	18693.3125
1812.09102	18609.3125
1815.27083	18610.3125
1818.44856	18564.1125
1821.6242	18576.6125
1824.79776	18552.8125
1827.96924	18521.5125
1831.13864	18568.0125
1834.30597	18546.6125
1837.47122	18528.8125
1840.6344	18551.9125
1843.7955	18580.2125
1846.95454	18557.0125
1850.11151	18543.4125
1853.26642	18541.0125
1856.41926	18515.9125
1859.57004	18561.6125
1862.71876	18489.7125
1865.86542	18489.9125
1869.01003	18475.6125
1872.15258	18466.0125
1875.29308	18483.3125
1878.43152	18470.6125
1881.56792	18453.2125
1884.70227	18425.2125
1887.83457	18425.1125
1890.96482	18383.4125
1894.09304	18373.2125
1897.21921	18356.1125
1900.34335	18297.6125
1903.46544	18288.3125
1906.58551	18283.2125
1909.70353	18246.9125
1912.81953	18209.0125
1915.93349	18149.1125
1919.04543	18146.3125
1922.15534	18106.1125
1925.26322	18042.4125
1928.36908	18007.6125
1931.47292	17955.5125
1934.57473	17888.4125
1937.67453	17824.4125
1940.77232	17800.7125
1943.86808	17760.3125
1946.96184	17731.3125
1950.05358	17702.7125
1953.14331	17666.0125
1956.23103	17625.7125
1959.31675	17570.6125
1962.40046	17544.8125
1965.48217	17483.9125
1968.56188	17426.7125
1971.63959	17363.0125
1974.7153	17349.1125
1977.78901	17282.7125
1980.86073	17254.2125
1983.93046	17176.4125
1986.99819	17144.9125
1990.06394	17120.9125
1993.1277	17033.7125
1996.18947	16967.1125
1999.24925	16927.5125
2002.30706	16889.2125
2005.36288	16801.4125
2008.41672	16839.4125
2011.46859	16790.4125
2014.51848	16735.8125
2017.56639	16668.1125
2020.61233	16629.1125
2023.6563	16616.8125
2026.6983	16577.6125
2029.73833	16566.1125
2032.7764	16534.8125
2035.8125	16508.7125
2038.84664	16495.5125
2041.87881	16488.0125
2044.90903	16494.3125
2047.93729	16467.2125
2050.96359	16468.9125
2053.98794	16416.0125
2057.01034	16409.8125
2060.03078	16373.0125
2063.04927	16358.6125
2066.06582	16356.4125
2069.08042	16339.3125
2072.09307	16362.2125
2075.10378	16324.9125
2078.11255	16348.2125
2081.11938	16341.4125
2084.12426	16336.0125
2087.12722	16328.2125
2090.12824	16310.7125
2093.12732	16342.9125
2096.12447	16366.7125
2099.11969	16369.6125
2102.11299	16408.7125
2105.10435	16405.6125
2108.09379	16375.6125
2111.08131	16414.3125
2114.0669	16424.5125
2117.05057	16445.6125
2120.03233	16425.1125
2123.01216	16382.7125
2125.99008	16438.3125
2128.96609	16411.7125
2131.94018	16428.0125
2134.91236	16431.1125
2137.88263	16473.6125
2140.851	16451.5125
2143.81746	16456.2125
2146.78201	16447.8125
2149.74466	16448.8125
2152.7054	16460.0125
2155.66425	16442.8125
2158.6212	16465.2125
2161.57625	16443.6125
2164.52941	16430.7125
2167.48067	16432.5125
2170.43004	16453.6125
2173.37752	16429.2125
2176.32311	16439.6125
2179.26681	16466.0125
2182.20863	16475.7125
2185.14856	16496.2125
2188.08661	16443.4125
2191.02278	16474.3125
2193.95707	16478.8125
2196.88948	16486.0125
2199.82001	16466.5125
2202.74867	16477.2125
2205.67545	16488.2125
2208.60037	16468.3125
2211.52341	16437.5125
2214.44458	16419.1125
2217.36388	16398.2125
2220.28132	16407.0125
2223.1969	16361.6125
2226.11061	16349.9125
2229.02246	16339.4125
2231.93245	16318.8125
2234.84058	16267.9125
2237.74686	16277.7125
2240.65128	16288.6125
2243.55385	16213.1125
2246.45456	16228.9125
2249.35343	16195.2125
2252.25044	16145.9125
2255.14561	16141.3125
2258.03893	16135.2125
2260.93041	16085.7125
2263.82004	16054.0125
2266.70783	16001.0125
2269.59378	15966.6125
2272.4779	15962.4125
2275.36017	15950.3125
2278.24061	15896.6125
2281.11922	15875.0125
2283.996	15907.7125
2286.87094	15888.5125
2289.74405	15835.8125
2292.61534	15771.0125
2295.4848	15769.8125
2298.35243	15809.9125
2301.21824	15815.0125
2304.08223	15811.9125
2306.94439	15832.7125
2309.80474	15843.4125
2312.66327	15878.3125
2315.51999	15853.4125
2318.37489	15841.4125
2321.22797	15820.6125
2324.07925	15819.6125
2326.92871	15806.6125
2329.77637	15813.7125
2332.62222	15808.4125
2335.46626	15822.2125
2338.3085	15783.4125
2341.14893	15811.1125
2343.98756	15807.6125
2346.8244	15809.6125
2349.65943	15812.1125
2352.49267	15801.6125
2355.32411	15793.3125
2358.15376	15778.0125
2360.98161	15769.4125
2363.80768	15737.2125
2366.63195	15735.6125
2369.45444	15699.1125
2372.27514	15703.6125
2375.09405	15661.0125
2377.91118	15647.9125
2380.72652	15591.4125
2383.54009	15566.3125
2386.35187	15567.4125
2389.16188	15492.8125
2391.97011	15478.6125
2394.77657	15482.3125
2397.58125	15477.5125
2400.38416	15437.9125
2403.18529	15429.7125
2405.98466	15395.3125
2408.78226	15363.0125
2411.57809	15358.5125
2414.37216	15321.9125
2417.16446	15304.0125
2419.955	15315.6125
2422.74378	15322.1125
2425.5308	15268.4125
2428.31606	15315.8125
2431.09956	15295.8125
2433.88131	15231.0125
2436.6613	15269.8125
2439.43954	15258.4125
2442.21603	15246.7125
2444.99077	15259.4125
2447.76377	15249.1125
2450.53501	15228.0125
2453.30451	15246.2125
2456.07226	15255.9125
2458.83827	15247.7125
2461.60254	15258.2125
2464.36507	15264.8125
2467.12586	15246.9125
2469.88492	15259.1125
2472.64224	15253.4125
2475.39782	15268.5125
2478.15167	15276.1125
2480.90379	15263.1125
2483.65417	15270.8125
2486.40283	15301.5125
2489.14976	15329.5125
2491.89497	15321.3125
2494.63845	15296.8125
2497.3802	15289.0125
2500.12024	15306.1125
2502.85855	15281.1125
2505.59514	15265.1125
2508.33002	15242.8125
2511.06318	15249.2125
2513.79462	15239.9125
2516.52435	15203.7125
2519.25237	15180.7125
2521.97867	15192.3125
2524.70327	15166.7125
2527.42616	15137.1125
2530.14734	15158.5125
2532.86681	15138.5125
2535.58458	15162.0125
2538.30065	15103.6125
2541.01501	15123.8125
2543.72768	15083.9125
2546.43864	15069.2125
2549.14791	15061.7125
2551.85548	15063.2125
2554.56136	15061.4125
2557.26554	15061.2125
2559.96803	15037.6125
2562.66883	15054.5125
2565.36794	15055.0125
2568.06536	15085.9125
2570.7611	15078.9125
2573.45514	15065.0125
2576.14751	15032.2125
2578.83819	15020.3125
2581.52719	15044.6125
2584.21451	15061.0125
2586.90015	15024.0125
2589.58411	15019.0125
2592.2664	15014.8125
2594.94701	14963.7125
2597.62594	14981.7125
2600.30321	14936.9125
2602.9788	14944.8125
2605.65273	14956.0125
2608.32498	14947.9125
2610.99557	14943.8125
2613.66449	14990.8125
2616.33175	14953.8125
2618.99734	14957.4125
2621.66128	14964.4125
2624.32355	14947.0125
2626.98416	14936.8125
2629.64311	14925.8125
2632.30041	14932.0125
2634.95605	14917.3125
2637.61004	14906.9125
2640.26238	14872.8125
2642.91306	14834.9125
2645.56209	14802.5125
2648.20948	14823.3125
2650.85521	14851.1125
2653.4993	14804.0125
2656.14175	14856.2125
2658.78255	14859.4125
2661.42171	14878.2125
2664.05923	14898.6125
2666.6951	14892.2125
2669.32934	14884.3125
2671.96194	14916.7125
2674.59291	14931.5125
2677.22224	14900.1125
2679.84993	14919.0125
2682.476	14896.2125
2685.10043	14898.4125
2687.72324	14859.5125
2690.34441	14871.3125
2692.96396	14843.4125
2695.58188	14887.3125
2698.19818	14846.9125
2700.81285	14852.5125
2703.4259	14872.8125
2706.03733	14910.5125
2708.64714	14886.3125
2711.25533	14940.6125
2713.86191	14922.9125
2716.46687	14947.3125
2719.07021	14940.6125
2721.67194	14940.4125
2724.27206	14950.2125
2726.87057	14950.2125
2729.46747	14958.2125
2732.06276	14985.5125
2734.65644	14965.8125
2737.24852	14991.8125
2739.83899	14975.8125
2742.42786	15002.9125
2745.01513	14958.0125
2747.60079	14965.8125
2750.18486	14989.9125
2752.76733	14975.1125
2755.3482	14964.5125
2757.92747	14965.9125
2760.50515	14944.4125
2763.08123	14946.4125
2765.65573	14930.9125
2768.22863	14957.4125
2770.79994	14968.6125
2773.36967	14945.7125
2775.9378	14912.3125
2778.50435	14944.5125
2781.06932	14921.5125
2783.6327	14915.7125
2786.1945	14906.8125
2788.75471	14916.8125
2791.31335	14885.9125
2793.87041	14875.0125
2796.42589	14855.8125
2798.97979	14833.8125
2801.53212	14831.2125
2804.08288	14831.3125
2806.63206	14803.8125
2809.17967	14789.5125
2811.72571	14754.4125
2814.27018	14745.9125
2816.81308	14748.8125
2819.35442	14762.4125
2821.89419	14754.5125
2824.43239	14731.1125
2826.96904	14724.3125
2829.50412	14714.9125
2832.03763	14695.8125
2834.56959	14688.7125
2837.1	14682.2125
2839.62884	14714.7125
2842.15613	14766.9125
2844.68186	14809.5125
2847.20604	14880.5125
2849.72867	14892.2125
2852.24974	14922.7125
2854.76927	14913.5125
2857.28724	14912.4125
2859.80367	14911.2125
2862.31855	14898.1125
2864.83189	14877.6125
2867.34368	14898.8125
2869.85393	14900.0125
2872.36264	14865.3125
2874.8698	14913.8125
2877.37543	14953.7125
2879.87952	14966.8125
2882.38207	14995.6125
2884.88308	15004.0125
2887.38256	15038.4125
2889.88051	15024.1125
2892.37692	15036.1125
2894.8718	15060.3125
2897.36515	15082.3125
2899.85698	15063.6125
2902.34727	15101.6125
2904.83604	15096.9125
2907.32328	15141.0125
2909.809	15110.2125
2912.29319	15112.6125
2914.77587	15118.8125
2917.25702	15113.0125
2919.73665	15077.6125
2922.21476	15066.0125
2924.69136	15057.5125
2927.16644	15080.3125
2929.64	15063.7125
2932.11205	15064.5125
2934.58258	14991.9125
2937.05161	15018.7125
2939.51912	14987.2125
2941.98513	14956.4125
2944.44962	14859.4125
2946.91261	14779.9125
2949.37409	14814.6125
2951.83407	14770.5125
2954.29254	14742.7125
2956.74951	14716.7125
2959.20498	14674.5125
2961.65895	14650.7125
2964.11142	14627.9125
2966.56239	14568.4125
2969.01186	14586.5125
2971.45984	14528.4125
2973.90632	14451.9125
2976.35131	14436.4125
2978.7948	14388.4125
2981.23681	14350.7125
2983.67732	14283.5125
2986.11635	14243.9125
2988.55388	14175.3125
2990.98993	14172.5125
2993.4245	14130.0125
2995.85758	14131.3125
2998.28917	14100.0125
3000.71928	14083.1125
3003.14791	14088.4125
3005.57506	14048.1125
3008.00073	14007.2125
3010.42493	14029.7125
3012.84764	13982.7125
3015.26888	14009.0125
3017.68865	13945.3125
3020.10694	13940.6125
3022.52376	13886.1125
3024.9391	13888.9125
3027.35298	13867.0125
3029.76539	13831.3125
3032.17632	13827.7125
3034.5858	13813.1125
3036.9938	13821.4125
3039.40034	13803.6125
3041.80542	13792.5125
3044.20903	13756.8125
3046.61118	13755.5125
3049.01187	13719.0125
3051.4111	13746.9125
3053.80888	13700.0125
3056.20519	13646.8125
3058.60005	13634.0125
3060.99345	13628.6125
3063.3854	13615.1125
3065.7759	13578.2125
3068.16494	13557.9125
3070.55254	13525.1125
3072.93868	13529.0125
3075.32338	13490.8125
3077.70662	13466.3125
3080.08842	13423.4125
3082.46878	13455.3125
3084.84769	13424.9125
3087.22515	13414.9125
3089.60118	13384.0125
3091.97576	13413.1125
3094.3489	13392.5125
3096.72061	13400.9125
3099.09087	13394.5125
3101.4597	13355.1125
3103.82709	13359.9125
3106.19305	13300.1125
3108.55757	13305.7125
3110.92066	13259.3125
3113.28232	13227.3125
3115.64255	13202.3125
3118.00134	13197.4125
3120.35871	13208.8125
3122.71466	13161.3125
3125.06917	13134.6125
3127.42226	13143.7125
3129.77393	13137.3125
3132.12417	13168.3125
3134.47299	13157.2125
3136.82039	13172.9125
3139.16636	13175.7125
3141.51092	13167.9125
3143.85406	13160.7125
3146.19579	13162.4125
3148.53609	13144.9125
3150.87499	13140.0125
3153.21246	13165.6125
3155.54853	13168.2125
3157.88318	13141.6125
3160.21642	13132.0125
3162.54826	13174.4125
3164.87868	13127.8125
3167.2077	13130.0125
3169.5353	13148.3125
3171.86151	13143.0125
3174.18631	13118.5125
3176.5097	13121.3125
3178.83169	13096.1125
3181.15228	13135.7125
3183.47147	13069.3125
3185.78926	13084.5125
3188.10565	13052.7125
3190.42065	13067.4125
3192.73424	13083.7125
3195.04645	13071.8125
3197.35725	13111.7125
3199.66667	13035.7125
3201.97469	13091.7125
3204.28132	13040.2125
3206.58656	13107.2125
3208.8904	13083.4125
3211.19287	13084.5125
3213.49394	13073.6125
3215.79363	13091.4125
3218.09193	13089.5125
3220.38884	13082.7125
3222.68438	13093.8125
3224.97853	13092.3125
3227.2713	13077.6125
3229.56269	13081.1125
3231.8527	13060.7125
3234.14133	13042.0125
3236.42858	13030.6125
3238.71446	13027.9125
3240.99896	12981.3125
3243.28209	13011.3125
3245.56384	13017.2125
3247.84423	13004.4125
3250.12324	13038.9125
3252.40088	12985.7125
3254.67715	12977.7125
3256.95205	12921.2125
3259.22558	12935.5125
3261.49775	12911.9125
3263.76855	12904.5125
3266.03799	12875.7125
3268.30606	12881.1125
3270.57277	12857.7125
3272.83812	12837.2125
3275.10211	12815.9125
3277.36474	12812.2125
3279.62601	12801.0125
3281.88593	12808.8125
3284.14448	12863.8125
3286.40168	12836.1125
3288.65753	12818.5125
3290.91202	12805.2125
3293.16516	12756.2125
3295.41695	12737.3125
3297.66738	12666.9125
3299.91647	12613.9125
3302.16421	12521.3125
3304.4106	12503.9125
3306.65564	12410.1125
3308.89933	12330.6125
3311.14169	12279.9125
3313.38269	12184.6125
3315.62236	12107.0125
3317.86068	12030.3125
3320.09766	11885.0125
3322.3333	11807.4125
3324.5676	11809.2125
3326.80056	11629.6125
3329.03219	11586.2125
3331.26248	2.4125
3333.49143	0.1125
3335.71905	-1.3875
