Data from AgNPs_FTO_APTES_UA_2uM_CRN_10uM_R6G_10uM_NaF_0.1M_Addition_RamanShift__20__13-41-25-163.txt Node

Date: Wed Feb 02 13:41:25 GMT 2022
User: TCL
Spectrometer: QEP01345
Trigger mode: 4
Integration Time (sec): 7.000000E0
Scans to average: 10
Electric dark correction enabled: true
Nonlinearity correction enabled: false
Boxcar width: 0
XAxis mode: Raman Shifts
Number of Pixels in Spectrum: 1044
>>>>>Begin Spectral Data<<<<<
46.04893	0.3375
50.45542	-0.5625
54.85868	-0.2625
59.25871	-0.5625
63.6555	87.9375
68.04907	94.7375
72.43941	98.0375
76.82654	107.2375
81.21044	113.4375
85.59113	115.4375
89.96862	137.0375
94.34289	124.9375
98.71396	122.9375
103.08183	135.7375
107.4465	136.0375
111.80798	137.7375
116.16626	142.8375
120.52136	150.6375
124.87327	153.9375
129.222	160.4375
133.56755	173.1375
137.90993	190.7375
142.24913	212.9375
146.58517	235.1375
150.91804	271.1375
155.24774	332.3375
159.57429	414.2375
163.89768	535.9375
168.21792	710.0375
172.53501	968.8375
176.84895	1357.6375
181.15975	1902.2375
185.46741	2679.2375
189.77193	3669.4375
194.07331	4927.9375
198.37157	6326.5375
202.6667	7815.6375
206.9587	9309.8375
211.24758	10732.6375
215.53334	12180.3375
219.81599	13755.9375
224.09553	15453.7375
228.37195	17356.5375
232.64527	19471.2375
236.91549	21719.0375
241.18261	23871.5375
245.44663	25920.6375
249.70755	27690.1375
253.96539	29316.1375
258.22014	30645.5375
262.4718	31823.3375
266.72039	32751.0375
270.96589	33239.9375
275.20832	33454.4375
279.44768	33386.7375
283.68397	33168.5375
287.91719	33097.5375
292.14735	33139.1375
296.37445	33265.8375
300.59849	33393.9375
304.81948	33527.5375
309.03742	33375.0375
313.25231	32824.7375
317.46415	31849.0375
321.67296	30583.8375
325.87872	29570.3375
330.08145	29093.2375
334.28114	28985.2375
338.47781	29171.1375
342.67145	29522.0375
346.86207	30159.1375
351.04966	30829.8375
355.23424	31580.8375
359.4158	32187.6375
363.59435	32620.8375
367.76989	32913.2375
371.94243	33078.3375
376.11196	33203.0375
380.27849	33376.9375
384.44203	33495.4375
388.60257	33698.9375
392.76012	34028.1375
396.91468	34480.6375
401.06626	35068.2375
405.21485	35448.2375
409.36047	35242.2375
413.50311	34593.2375
417.64277	34078.8375
421.77947	33958.6375
425.9132	34073.7375
430.04396	34226.7375
434.17176	34473.4375
438.2966	34738.9375
442.41849	35283.5375
446.53742	36225.9375
450.6534	37253.3375
454.76644	38061.5375
458.87653	38474.0375
462.98368	38415.5375
467.08789	38116.7375
471.18916	37637.7375
475.2875	37187.8375
479.38291	37031.9375
483.4754	36770.2375
487.56496	36268.6375
491.6516	35561.4375
495.73531	34924.1375
499.81612	34566.0375
503.89401	34695.0375
507.96899	34758.5375
512.04106	34688.4375
516.11023	34478.3375
520.1765	34203.6375
524.23987	33922.7375
528.30034	33514.6375
532.35792	33129.8375
536.41261	32707.6375
540.46441	32292.8375
544.51333	32416.5375
548.55936	32944.6375
552.60252	33808.1375
556.64279	34734.7375
560.6802	35323.5375
564.71473	35646.0375
568.7464	36286.6375
572.7752	37138.8375
576.80114	37594.0375
580.82422	37970.5375
584.84444	38238.3375
588.86181	38474.7375
592.87633	38766.3375
596.888	39169.3375
600.89682	39607.0375
604.9028	41192.2375
608.90594	45287.8375
612.90624	49581.9375
616.90371	46495.1375
620.89834	38208.5375
624.89015	34532.0375
628.87913	34170.9375
632.86528	34212.3375
636.84862	34048.6375
640.82913	33416.5375
644.80683	32386.2375
648.78172	31546.6375
652.75379	31308.3375
656.72306	31763.1375
660.68952	32427.0375
664.65319	32331.3375
668.61405	31720.2375
672.57211	31459.2375
676.52738	31506.7375
680.47986	31527.4375
684.42955	31376.8375
688.37646	31287.8375
692.32058	31414.7375
696.26192	31745.2375
700.20048	32114.5375
704.13626	32385.9375
708.06928	32320.6375
711.99952	32105.3375
715.927	31931.9375
719.85171	31952.6375
723.77365	31795.6375
727.69284	31459.9375
731.60928	31126.5375
735.52295	31042.8375
739.43388	31030.5375
743.34206	31181.2375
747.24749	31326.5375
751.15017	31708.9375
755.05012	32377.0375
758.94733	33560.1375
762.8418	35546.5375
766.73354	38627.0375
770.62254	41671.8375
774.50882	42458.8375
778.39237	40171.8375
782.27321	36729.3375
786.15132	33935.3375
790.02671	32234.0375
793.89938	31433.5375
797.76935	31123.8375
801.6366	31058.6375
805.50115	30919.4375
809.36299	30753.0375
813.22213	30464.0375
817.07857	30410.9375
820.93231	30344.2375
824.78336	30215.0375
828.63172	30142.9375
832.47738	30132.2375
836.32036	30114.0375
840.16066	30232.5375
843.99827	30358.6375
847.8332	30287.5375
851.66546	30103.1375
855.49504	29948.8375
859.32195	29944.9375
863.1462	29818.4375
866.96777	29682.1375
870.78668	29582.6375
874.60293	29555.2375
878.41652	29579.2375
882.22745	29627.2375
886.03573	29749.5375
889.84136	29758.7375
893.64433	29589.4375
897.44466	29488.1375
901.24235	29383.5375
905.0374	29284.6375
908.8298	29270.4375
912.61957	29330.1375
916.40671	29675.9375
920.19121	30084.5375
923.97308	30484.9375
927.75233	30612.3375
931.52895	30481.3375
935.30295	30085.3375
939.07433	29406.7375
942.84309	28868.4375
946.60924	28610.1375
950.37278	28539.6375
954.13371	28405.7375
957.89203	28262.5375
961.64774	28192.0375
965.40086	28210.3375
969.15137	28037.0375
972.89929	27878.5375
976.64461	27798.0375
980.38733	27784.7375
984.12747	27906.2375
987.86502	28208.8375
991.59999	28686.1375
995.33237	29305.7375
999.06217	30302.7375
1002.78939	31544.4375
1006.51404	32226.8375
1010.23611	32566.2375
1013.95561	32908.9375
1017.67255	32973.1375
1021.38692	32592.2375
1025.09872	32336.6375
1028.80796	32647.2375
1032.51465	33642.0375
1036.21877	34714.4375
1039.92035	34864.8375
1043.61937	34294.9375
1047.31584	33264.5375
1051.00976	32201.2375
1054.70114	31578.8375
1058.38998	31575.2375
1062.07627	31789.7375
1065.76003	31959.4375
1069.44126	32223.6375
1073.11995	32587.4375
1076.79611	32888.1375
1080.46974	33106.3375
1084.14085	33347.5375
1087.80943	33775.6375
1091.47549	34089.6375
1095.13903	34048.8375
1098.80005	33515.5375
1102.45857	32748.0375
1106.11456	32171.7375
1109.76805	31934.8375
1113.41903	32113.3375
1117.06751	32443.8375
1120.71348	32850.3375
1124.35696	33315.6375
1127.99793	33791.1375
1131.63641	33987.6375
1135.2724	33748.6375
1138.90589	33424.6375
1142.5369	33292.8375
1146.16542	33231.9375
1149.79145	33383.5375
1153.415	33804.0375
1157.03607	34345.3375
1160.65467	35327.9375
1164.27079	36832.4375
1167.88443	38904.9375
1171.49561	41631.9375
1175.10432	45287.3375
1178.71056	49911.9375
1182.31434	54199.1375
1185.91565	56776.2375
1189.51451	57161.3375
1193.11091	55609.2375
1196.70485	52960.6375
1200.29634	50149.5375
1203.88538	47829.1375
1207.47197	46052.8375
1211.05612	44772.4375
1214.63782	43862.5375
1218.21708	43173.5375
1221.79391	42867.9375
1225.36829	42583.7375
1228.94024	42189.3375
1232.50976	41656.2375
1236.07685	41250.6375
1239.6415	40912.6375
1243.20374	40732.9375
1246.76355	40916.0375
1250.32093	41473.7375
1253.8759	42501.0375
1257.42845	43936.2375
1260.97859	45381.3375
1264.52631	46614.4375
1268.07163	47987.0375
1271.61453	49553.3375
1275.15503	51244.4375
1278.69312	53045.8375
1282.22882	54482.7375
1285.76211	55789.6375
1289.29301	57300.1375
1292.82151	59147.7375
1296.34761	61751.7375
1299.87133	65116.6375
1303.39266	69206.7375
1306.9116	73978.2375
1310.42815	78646.0375
1313.94233	81847.5375
1317.45412	82332.1375
1320.96354	81038.5375
1324.47058	79401.4375
1327.97525	77777.1375
1331.47754	76649.1375
1334.97747	76072.4375
1338.47502	76128.3375
1341.97022	76015.1375
1345.46305	75123.2375
1348.95352	73567.3375
1352.44163	72098.0375
1355.92738	72126.6375
1359.41078	74652.2375
1362.89183	77392.3375
1366.37053	76065.4375
1369.84688	69859.1375
1373.32088	62571.4375
1376.79254	57573.0375
1380.26186	55477.5375
1383.72883	55115.9375
1387.19347	54924.8375
1390.65578	54624.0375
1394.11575	54814.9375
1397.57339	55546.8375
1401.0287	56819.7375
1404.48168	58087.5375
1407.93234	58643.1375
1411.38068	58183.1375
1414.82669	56605.4375
1418.27039	54171.4375
1421.71177	51559.2375
1425.15083	49412.5375
1428.58758	48163.7375
1432.02203	47994.3375
1435.45416	48681.3375
1438.88399	49930.9375
1442.31151	50944.5375
1445.73673	51869.3375
1449.15965	52753.4375
1452.58027	53530.0375
1455.9986	53969.3375
1459.41463	54497.5375
1462.82837	55225.9375
1466.23982	56252.6375
1469.64898	57160.4375
1473.05586	57606.2375
1476.46045	57517.2375
1479.86276	57158.0375
1483.26279	56604.5375
1486.66054	56309.0375
1490.05602	56409.5375
1493.44922	56838.4375
1496.84016	57366.6375
1500.22882	58346.2375
1503.61521	60069.5375
1506.99934	62331.3375
1510.38121	64606.3375
1513.76081	65544.7375
1517.13816	64443.6375
1520.51324	61775.6375
1523.88607	59129.4375
1527.25665	57468.4375
1530.62498	56571.7375
1533.99105	56064.2375
1537.35488	55622.4375
1540.71647	55020.8375
1544.07581	54207.1375
1547.4329	53216.8375
1550.78776	52322.6375
1554.14038	51670.0375
1557.49077	51489.5375
1560.83892	51395.8375
1564.18484	51392.8375
1567.52853	51400.0375
1570.86999	51402.0375
1574.20922	51858.1375
1577.54624	52422.7375
1580.88103	52660.4375
1584.2136	52995.4375
1587.54395	54431.1375
1590.87208	57162.6375
1594.19801	60602.1375
1597.52172	64235.5375
1600.84321	65229.6375
1604.16251	62506.3375
1607.47959	57559.8375
1610.79447	52440.4375
1614.10715	47677.9375
1617.41763	43597.4375
1620.7259	40845.8375
1624.03199	39379.5375
1627.33587	39338.5375
1630.63757	40641.0375
1633.93707	43274.0375
1637.23439	47488.8375
1640.52951	52978.2375
1643.82246	58683.3375
1647.11321	62679.3375
1650.40179	63210.6375
1653.68819	59151.5375
1656.97241	51953.3375
1660.25446	44394.9375
1663.53433	38625.5375
1666.81203	34739.8375
1670.08756	32297.8375
1673.36092	30774.3375
1676.63211	29739.5375
1679.90115	29031.4375
1683.16801	28492.0375
1686.43272	28102.8375
1689.69527	27830.6375
1692.95567	27568.6375
1696.2139	27465.6375
1699.46999	27327.2375
1702.72392	27271.1375
1705.97571	27165.9375
1709.22535	27035.9375
1712.47284	26971.1375
1715.71819	26900.5375
1718.96139	26836.6375
1722.20246	26717.3375
1725.44139	26598.2375
1728.67818	26462.5375
1731.91284	26294.4375
1735.14537	26162.7375
1738.37576	26023.2375
1741.60403	25960.8375
1744.83017	25869.8375
1748.05418	25820.8375
1751.27607	25768.8375
1754.49584	25735.1375
1757.71349	25717.0375
1760.92903	25647.6375
1764.14244	25628.9375
1767.35375	25615.7375
1770.56294	25595.6375
1773.77002	25497.1375
1776.97499	25482.0375
1780.17785	25385.1375
1783.37861	25356.8375
1786.57727	25274.2375
1789.77382	25276.0375
1792.96828	25230.0375
1796.16064	25217.2375
1799.3509	25173.3375
1802.53907	25131.4375
1805.72514	25087.8375
1808.90913	24935.0375
1812.09102	24923.4375
1815.27083	24918.7375
1818.44856	24897.5375
1821.6242	24866.6375
1824.79776	24836.4375
1827.96924	24809.3375
1831.13864	24813.3375
1834.30597	24815.0375
1837.47122	24833.5375
1840.6344	24832.0375
1843.7955	24869.5375
1846.95454	24893.6375
1850.11151	24896.9375
1853.26642	24915.5375
1856.41926	24961.4375
1859.57004	24923.2375
1862.71876	24948.2375
1865.86542	24952.4375
1869.01003	24905.1375
1872.15258	24919.7375
1875.29308	24929.9375
1878.43152	24895.5375
1881.56792	24899.4375
1884.70227	24947.5375
1887.83457	24938.5375
1890.96482	24927.8375
1894.09304	24977.0375
1897.21921	25004.0375
1900.34335	24987.5375
1903.46544	24931.7375
1906.58551	24922.0375
1909.70353	24895.0375
1912.81953	24844.4375
1915.93349	24805.8375
1919.04543	24767.9375
1922.15534	24722.9375
1925.26322	24611.0375
1928.36908	24559.5375
1931.47292	24435.3375
1934.57473	24283.9375
1937.67453	24246.6375
1940.77232	24130.9375
1943.86808	24026.7375
1946.96184	23952.5375
1950.05358	23815.3375
1953.14331	23778.8375
1956.23103	23668.2375
1959.31675	23544.9375
1962.40046	23519.6375
1965.48217	23454.2375
1968.56188	23362.3375
1971.63959	23257.6375
1974.7153	23229.9375
1977.78901	23202.4375
1980.86073	23089.9375
1983.93046	22983.5375
1986.99819	22955.8375
1990.06394	22882.6375
1993.1277	22813.1375
1996.18947	22707.2375
1999.24925	22654.1375
2002.30706	22535.7375
2005.36288	22480.5375
2008.41672	22488.5375
2011.46859	22387.4375
2014.51848	22360.1375
2017.56639	22275.0375
2020.61233	22234.7375
2023.6563	22216.1375
2026.6983	22158.8375
2029.73833	22156.7375
2032.7764	22103.5375
2035.8125	22082.3375
2038.84664	22048.1375
2041.87881	21997.9375
2044.90903	21937.0375
2047.93729	21910.5375
2050.96359	21920.7375
2053.98794	21877.4375
2057.01034	21888.2375
2060.03078	21831.0375
2063.04927	21803.9375
2066.06582	21838.8375
2069.08042	21805.9375
2072.09307	21748.3375
2075.10378	21710.2375
2078.11255	21712.4375
2081.11938	21696.4375
2084.12426	21699.2375
2087.12722	21670.5375
2090.12824	21677.8375
2093.12732	21668.9375
2096.12447	21660.6375
2099.11969	21705.0375
2102.11299	21697.6375
2105.10435	21660.2375
2108.09379	21680.5375
2111.08131	21663.3375
2114.0669	21730.7375
2117.05057	21749.5375
2120.03233	21769.8375
2123.01216	21771.1375
2125.99008	21745.0375
2128.96609	21786.2375
2131.94018	21824.3375
2134.91236	21813.2375
2137.88263	21853.5375
2140.851	21808.7375
2143.81746	21881.3375
2146.78201	21872.6375
2149.74466	21876.3375
2152.7054	21861.7375
2155.66425	21809.9375
2158.6212	21865.8375
2161.57625	21833.3375
2164.52941	21861.7375
2167.48067	21817.3375
2170.43004	21826.7375
2173.37752	21789.3375
2176.32311	21773.8375
2179.26681	21808.2375
2182.20863	21826.6375
2185.14856	21790.2375
2188.08661	21838.6375
2191.02278	21842.3375
2193.95707	21812.6375
2196.88948	21775.3375
2199.82001	21843.5375
2202.74867	21813.2375
2205.67545	21840.3375
2208.60037	21801.7375
2211.52341	21773.7375
2214.44458	21771.9375
2217.36388	21780.1375
2220.28132	21737.7375
2223.1969	21713.4375
2226.11061	21690.4375
2229.02246	21613.0375
2231.93245	21579.4375
2234.84058	21547.2375
2237.74686	21485.8375
2240.65128	21483.0375
2243.55385	21380.6375
2246.45456	21384.5375
2249.35343	21377.4375
2252.25044	21357.6375
2255.14561	21313.3375
2258.03893	21313.4375
2260.93041	21264.6375
2263.82004	21199.3375
2266.70783	21139.4375
2269.59378	21055.6375
2272.4779	21026.8375
2275.36017	21022.0375
2278.24061	20987.4375
2281.11922	20921.9375
2283.996	20893.3375
2286.87094	20872.6375
2289.74405	20863.9375
2292.61534	20835.6375
2295.4848	20826.5375
2298.35243	20809.2375
2301.21824	20842.8375
2304.08223	20848.3375
2306.94439	20857.9375
2309.80474	20856.0375
2312.66327	20913.0375
2315.51999	20886.3375
2318.37489	20891.3375
2321.22797	20878.8375
2324.07925	20844.5375
2326.92871	20844.3375
2329.77637	20834.6375
2332.62222	20817.3375
2335.46626	20851.6375
2338.3085	20785.6375
2341.14893	20821.5375
2343.98756	20923.5375
2346.8244	20900.6375
2349.65943	20876.0375
2352.49267	20847.0375
2355.32411	20849.0375
2358.15376	20837.2375
2360.98161	20846.2375
2363.80768	20816.1375
2366.63195	20754.2375
2369.45444	20707.3375
2372.27514	20666.0375
2375.09405	20671.0375
2377.91118	20623.0375
2380.72652	20552.7375
2383.54009	20518.7375
2386.35187	20539.2375
2389.16188	20470.4375
2391.97011	20449.4375
2394.77657	20379.0375
2397.58125	20366.5375
2400.38416	20349.4375
2403.18529	20352.4375
2405.98466	20267.1375
2408.78226	20235.2375
2411.57809	20219.8375
2414.37216	20197.5375
2417.16446	20158.9375
2419.955	20145.7375
2422.74378	20160.0375
2425.5308	20123.3375
2428.31606	20125.1375
2431.09956	20068.8375
2433.88131	20074.0375
2436.6613	20071.0375
2439.43954	20082.1375
2442.21603	20077.5375
2444.99077	20003.8375
2447.76377	20032.9375
2450.53501	20012.6375
2453.30451	20020.6375
2456.07226	20022.8375
2458.83827	20003.0375
2461.60254	20040.4375
2464.36507	20024.8375
2467.12586	20051.9375
2469.88492	20047.1375
2472.64224	20062.5375
2475.39782	20062.3375
2478.15167	20081.4375
2480.90379	20088.2375
2483.65417	20106.8375
2486.40283	20128.0375
2489.14976	20149.2375
2491.89497	20165.4375
2494.63845	20207.7375
2497.3802	20191.9375
2500.12024	20182.5375
2502.85855	20168.5375
2505.59514	20167.3375
2508.33002	20192.0375
2511.06318	20122.6375
2513.79462	20102.7375
2516.52435	20069.3375
2519.25237	20086.0375
2521.97867	20062.7375
2524.70327	20106.0375
2527.42616	20075.6375
2530.14734	20032.7375
2532.86681	20021.7375
2535.58458	20011.5375
2538.30065	19986.7375
2541.01501	19988.9375
2543.72768	19975.1375
2546.43864	19969.3375
2549.14791	19917.9375
2551.85548	19933.4375
2554.56136	19894.4375
2557.26554	19887.0375
2559.96803	19868.5375
2562.66883	19866.6375
2565.36794	19848.2375
2568.06536	19864.9375
2570.7611	19824.6375
2573.45514	19786.6375
2576.14751	19802.9375
2578.83819	19818.3375
2581.52719	19826.4375
2584.21451	19811.1375
2586.90015	19788.2375
2589.58411	19773.9375
2592.2664	19800.2375
2594.94701	19808.3375
2597.62594	19825.7375
2600.30321	19791.8375
2602.9788	19767.7375
2605.65273	19745.1375
2608.32498	19785.8375
2610.99557	19767.2375
2613.66449	19791.4375
2616.33175	19787.0375
2618.99734	19803.9375
2621.66128	19823.4375
2624.32355	19822.7375
2626.98416	19828.9375
2629.64311	19844.3375
2632.30041	19855.2375
2634.95605	19839.4375
2637.61004	19802.4375
2640.26238	19782.9375
2642.91306	19774.4375
2645.56209	19714.5375
2648.20948	19716.8375
2650.85521	19700.0375
2653.4993	19733.3375
2656.14175	19702.6375
2658.78255	19702.5375
2661.42171	19708.0375
2664.05923	19756.2375
2666.6951	19772.1375
2669.32934	19816.4375
2671.96194	19831.6375
2674.59291	19773.9375
2677.22224	19783.3375
2679.84993	19805.6375
2682.476	19758.2375
2685.10043	19778.9375
2687.72324	19742.1375
2690.34441	19754.5375
2692.96396	19689.3375
2695.58188	19750.4375
2698.19818	19700.2375
2700.81285	19735.1375
2703.4259	19701.2375
2706.03733	19806.9375
2708.64714	19732.3375
2711.25533	19741.1375
2713.86191	19710.1375
2716.46687	19783.6375
2719.07021	19726.2375
2721.67194	19764.1375
2724.27206	19754.0375
2726.87057	19790.4375
2729.46747	19803.3375
2732.06276	19787.4375
2734.65644	19782.0375
2737.24852	19751.8375
2739.83899	19738.8375
2742.42786	19791.7375
2745.01513	19740.3375
2747.60079	19763.4375
2750.18486	19753.7375
2752.76733	19776.8375
2755.3482	19790.4375
2757.92747	19794.2375
2760.50515	19792.0375
2763.08123	19758.5375
2765.65573	19749.8375
2768.22863	19713.3375
2770.79994	19713.1375
2773.36967	19699.1375
2775.9378	19724.9375
2778.50435	19740.9375
2781.06932	19716.2375
2783.6327	19748.6375
2786.1945	19731.3375
2788.75471	19713.6375
2791.31335	19628.9375
2793.87041	19618.5375
2796.42589	19585.8375
2798.97979	19562.5375
2801.53212	19544.6375
2804.08288	19527.6375
2806.63206	19478.8375
2809.17967	19475.8375
2811.72571	19417.8375
2814.27018	19435.6375
2816.81308	19384.9375
2819.35442	19393.6375
2821.89419	19340.1375
2824.43239	19384.9375
2826.96904	19318.6375
2829.50412	19369.3375
2832.03763	19319.5375
2834.56959	19298.4375
2837.1	19273.2375
2839.62884	19291.1375
2842.15613	19255.0375
2844.68186	19309.1375
2847.20604	19315.4375
2849.72867	19323.5375
2852.24974	19307.0375
2854.76927	19304.6375
2857.28724	19278.4375
2859.80367	19285.8375
2862.31855	19255.2375
2864.83189	19196.6375
2867.34368	19184.9375
2869.85393	19213.1375
2872.36264	19171.1375
2874.8698	19186.3375
2877.37543	19210.4375
2879.87952	19180.8375
2882.38207	19188.0375
2884.88308	19217.8375
2887.38256	19236.3375
2889.88051	19251.7375
2892.37692	19280.9375
2894.8718	19245.7375
2897.36515	19291.6375
2899.85698	19290.4375
2902.34727	19325.8375
2904.83604	19336.5375
2907.32328	19365.4375
2909.809	19342.3375
2912.29319	19323.6375
2914.77587	19304.0375
2917.25702	19301.3375
2919.73665	19303.3375
2922.21476	19320.2375
2924.69136	19303.5375
2927.16644	19354.8375
2929.64	19313.6375
2932.11205	19291.6375
2934.58258	19184.8375
2937.05161	19271.9375
2939.51912	19265.9375
2941.98513	19213.7375
2944.44962	19158.5375
2946.91261	19063.4375
2949.37409	19092.0375
2951.83407	19080.8375
2954.29254	19088.2375
2956.74951	19055.5375
2959.20498	19010.7375
2961.65895	18989.6375
2964.11142	18947.9375
2966.56239	18897.4375
2969.01186	18910.0375
2971.45984	18864.2375
2973.90632	18796.6375
2976.35131	18794.2375
2978.7948	18724.7375
2981.23681	18700.4375
2983.67732	18653.7375
2986.11635	18589.9375
2988.55388	18539.1375
2990.98993	18526.5375
2993.4245	18483.2375
2995.85758	18433.0375
2998.28917	18393.1375
3000.71928	18385.1375
3003.14791	18340.4375
3005.57506	18335.8375
3008.00073	18277.5375
3010.42493	18235.8375
3012.84764	18195.1375
3015.26888	18223.5375
3017.68865	18164.5375
3020.10694	18150.3375
3022.52376	18099.2375
3024.9391	18047.8375
3027.35298	18011.7375
3029.76539	17997.5375
3032.17632	17954.2375
3034.5858	17952.5375
3036.9938	17945.8375
3039.40034	17918.4375
3041.80542	17945.2375
3044.20903	17863.2375
3046.61118	17883.5375
3049.01187	17860.5375
3051.4111	17824.5375
3053.80888	17772.1375
3056.20519	17754.8375
3058.60005	17690.3375
3060.99345	17658.9375
3063.3854	17648.4375
3065.7759	17558.7375
3068.16494	17557.8375
3070.55254	17481.5375
3072.93868	17439.7375
3075.32338	17365.9375
3077.70662	17385.2375
3080.08842	17345.5375
3082.46878	17295.2375
3084.84769	17288.2375
3087.22515	17281.0375
3089.60118	17266.5375
3091.97576	17208.2375
3094.3489	17193.8375
3096.72061	17201.3375
3099.09087	17206.9375
3101.4597	17167.1375
3103.82709	17173.2375
3106.19305	17164.2375
3108.55757	17149.5375
3110.92066	17044.3375
3113.28232	17017.5375
3115.64255	16985.4375
3118.00134	16984.9375
3120.35871	16952.7375
3122.71466	16911.9375
3125.06917	16856.9375
3127.42226	16828.9375
3129.77393	16853.3375
3132.12417	16819.0375
3134.47299	16798.9375
3136.82039	16810.4375
3139.16636	16793.2375
3141.51092	16789.3375
3143.85406	16782.2375
3146.19579	16765.5375
3148.53609	16786.5375
3150.87499	16778.4375
3153.21246	16767.6375
3155.54853	16808.3375
3157.88318	16783.1375
3160.21642	16765.5375
3162.54826	16757.3375
3164.87868	16725.5375
3167.2077	16714.4375
3169.5353	16716.8375
3171.86151	16722.1375
3174.18631	16701.4375
3176.5097	16681.4375
3178.83169	16694.7375
3181.15228	16735.9375
3183.47147	16669.9375
3185.78926	16652.6375
3188.10565	16646.6375
3190.42065	16650.0375
3192.73424	16650.1375
3195.04645	16623.4375
3197.35725	16633.4375
3199.66667	16621.7375
3201.97469	16659.4375
3204.28132	16635.8375
3206.58656	16667.0375
3208.8904	16652.1375
3211.19287	16688.4375
3213.49394	16688.3375
3215.79363	16654.3375
3218.09193	16626.6375
3220.38884	16629.2375
3222.68438	16622.0375
3224.97853	16613.5375
3227.2713	16597.0375
3229.56269	16579.7375
3231.8527	16558.7375
3234.14133	16530.4375
3236.42858	16503.8375
3238.71446	16506.6375
3240.99896	16487.0375
3243.28209	16478.6375
3245.56384	16446.4375
3247.84423	16429.2375
3250.12324	16434.1375
3252.40088	16423.6375
3254.67715	16409.9375
3256.95205	16351.8375
3259.22558	16378.9375
3261.49775	16291.1375
3263.76855	16322.4375
3266.03799	16263.5375
3268.30606	16251.0375
3270.57277	16244.6375
3272.83812	16197.6375
3275.10211	16185.9375
3277.36474	16205.0375
3279.62601	16183.4375
3281.88593	16152.2375
3284.14448	16157.2375
3286.40168	16153.9375
3288.65753	16130.2375
3290.91202	16055.6375
3293.16516	16040.3375
3295.41695	16009.4375
3297.66738	15941.7375
3299.91647	15893.4375
3302.16421	15781.2375
3304.4106	15716.3375
3306.65564	15648.4375
3308.89933	15547.0375
3311.14169	15454.0375
3313.38269	15340.0375
3315.62236	15286.7375
3317.86068	15126.4375
3320.09766	14988.4375
3322.3333	14835.1375
3324.5676	14852.7375
3326.80056	14638.0375
3329.03219	14573.6375
3331.26248	2.8375
3333.49143	-1.0625
3335.71905	-0.9625
