Data from AgNPs_FTO_APTES_UA_2uM_CRN_100uM_R6G_10uM_NaF_0.1M_Addition_RamanShift__22__16-03-45-330.txt Node

Date: Wed Feb 02 16:03:45 GMT 2022
User: TCL
Spectrometer: QEP01345
Trigger mode: 4
Integration Time (sec): 7.000000E0
Scans to average: 10
Electric dark correction enabled: true
Nonlinearity correction enabled: false
Boxcar width: 0
XAxis mode: Raman Shifts
Number of Pixels in Spectrum: 1044
>>>>>Begin Spectral Data<<<<<
46.04893	1.1375
50.45542	0.5375
54.85868	-2.1625
59.25871	-1.7625
63.6555	74.9375
68.04907	83.4375
72.43941	82.0375
76.82654	88.9375
81.21044	94.3375
85.59113	100.8375
89.96862	100.5375
94.34289	106.6375
98.71396	108.0375
103.08183	114.9375
107.4465	120.0375
111.80798	121.0375
116.16626	120.3375
120.52136	126.7375
124.87327	130.6375
129.222	135.8375
133.56755	144.4375
137.90993	154.6375
142.24913	167.9375
146.58517	192.0375
150.91804	213.7375
155.24774	254.7375
159.57429	309.6375
163.89768	391.1375
168.21792	508.7375
172.53501	693.0375
176.84895	957.0375
181.15975	1342.3375
185.46741	1870.6375
189.77193	2582.2375
194.07331	3447.7375
198.37157	4427.5375
202.6667	5479.9375
206.9587	6500.9375
211.24758	7522.8375
215.53334	8535.3375
219.81599	9621.3375
224.09553	10801.0375
228.37195	12130.4375
232.64527	13549.5375
236.91549	15014.8375
241.18261	16528.0375
245.44663	17940.5375
249.70755	19240.6375
253.96539	20406.0375
258.22014	21360.0375
262.4718	22214.8375
266.72039	22851.9375
270.96589	23213.2375
275.20832	23376.8375
279.44768	23417.5375
283.68397	23416.4375
287.91719	23391.4375
292.14735	23433.4375
296.37445	23588.0375
300.59849	23640.7375
304.81948	23665.4375
309.03742	23340.0375
313.25231	22839.9375
317.46415	22086.2375
321.67296	21278.8375
325.87872	20676.0375
330.08145	20322.1375
334.28114	20256.9375
338.47781	20352.2375
342.67145	20534.5375
346.86207	20854.3375
351.04966	21204.6375
355.23424	21532.8375
359.4158	21841.7375
363.59435	22027.1375
367.76989	22104.0375
371.94243	22260.8375
376.11196	22356.8375
380.27849	22507.7375
384.44203	22695.9375
388.60257	22888.0375
392.76012	23168.9375
396.91468	23496.3375
401.06626	23811.4375
405.21485	24040.4375
409.36047	23945.5375
413.50311	23644.0375
417.64277	23419.8375
421.77947	23371.9375
425.9132	23508.0375
430.04396	23740.0375
434.17176	23965.9375
438.2966	24204.7375
442.41849	24683.2375
446.53742	25405.2375
450.6534	26251.1375
454.76644	26934.7375
458.87653	27236.5375
462.98368	27175.5375
467.08789	26953.8375
471.18916	26776.1375
475.2875	26759.1375
479.38291	26934.5375
483.4754	26880.4375
487.56496	26402.4375
491.6516	25672.6375
495.73531	24919.8375
499.81612	24424.4375
503.89401	24404.4375
507.96899	24308.1375
512.04106	24185.7375
516.11023	23910.0375
520.1765	23558.3375
524.23987	23246.8375
528.30034	22997.7375
532.35792	22783.8375
536.41261	22557.8375
540.46441	22378.9375
544.51333	22570.6375
548.55936	22942.5375
552.60252	23583.6375
556.64279	24324.6375
560.6802	24896.7375
564.71473	25292.3375
568.7464	25873.2375
572.7752	26542.8375
576.80114	27008.4375
580.82422	27228.2375
584.84444	27419.4375
588.86181	27780.0375
592.87633	28295.6375
596.888	28658.5375
600.89682	28654.0375
604.9028	29067.7375
608.90594	30439.1375
612.90624	31723.5375
616.90371	29474.8375
620.89834	24977.3375
624.89015	23007.8375
628.87913	22911.9375
632.86528	23208.8375
636.84862	23339.4375
640.82913	23052.4375
644.80683	22316.0375
648.78172	21728.8375
652.75379	21470.7375
656.72306	21538.1375
660.68952	21758.1375
664.65319	21708.3375
668.61405	21419.4375
672.57211	21309.2375
676.52738	21379.3375
680.47986	21399.5375
684.42955	21333.3375
688.37646	21262.8375
692.32058	21303.6375
696.26192	21493.9375
700.20048	21703.8375
704.13626	21905.3375
708.06928	21913.3375
711.99952	21776.7375
715.927	21684.7375
719.85171	21709.7375
723.77365	21653.0375
727.69284	21466.2375
731.60928	21327.9375
735.52295	21258.9375
739.43388	21240.2375
743.34206	21241.4375
747.24749	21374.5375
751.15017	21602.8375
755.05012	22041.2375
758.94733	22871.4375
762.8418	24117.4375
766.73354	25957.4375
770.62254	27550.6375
774.50882	27668.9375
778.39237	26169.7375
782.27321	24045.6375
786.15132	22424.2375
790.02671	21420.4375
793.89938	21007.3375
797.76935	20796.2375
801.6366	20765.4375
805.50115	20784.9375
809.36299	20705.8375
813.22213	20635.3375
817.07857	20595.5375
820.93231	20545.2375
824.78336	20453.3375
828.63172	20361.6375
832.47738	20257.4375
836.32036	20242.2375
840.16066	20199.8375
843.99827	20224.9375
847.8332	20157.8375
851.66546	20038.2375
855.49504	19996.1375
859.32195	19996.7375
863.1462	19943.9375
866.96777	19895.2375
870.78668	19832.2375
874.60293	19778.2375
878.41652	19764.5375
882.22745	19844.8375
886.03573	19876.5375
889.84136	19878.6375
893.64433	19804.8375
897.44466	19732.2375
901.24235	19635.0375
905.0374	19564.6375
908.8298	19552.2375
912.61957	19636.6375
916.40671	19891.0375
920.19121	20209.2375
923.97308	20371.5375
927.75233	20357.6375
931.52895	20110.7375
935.30295	19816.7375
939.07433	19416.2375
942.84309	19074.5375
946.60924	18904.7375
950.37278	18841.2375
954.13371	18858.8375
957.89203	18845.8375
961.64774	18871.7375
965.40086	18874.2375
969.15137	18778.9375
972.89929	18589.6375
976.64461	18438.3375
980.38733	18391.6375
984.12747	18411.0375
987.86502	18547.3375
991.59999	18707.5375
995.33237	18955.9375
999.06217	19460.4375
1002.78939	19990.3375
1006.51404	20380.2375
1010.23611	20633.0375
1013.95561	20807.4375
1017.67255	20823.5375
1021.38692	20610.6375
1025.09872	20307.2375
1028.80796	20228.7375
1032.51465	20387.9375
1036.21877	20666.8375
1039.92035	20731.5375
1043.61937	20667.0375
1047.31584	20488.6375
1051.00976	20262.6375
1054.70114	20229.7375
1058.38998	20391.7375
1062.07627	20633.3375
1065.76003	20898.4375
1069.44126	21082.9375
1073.11995	21322.1375
1076.79611	21504.1375
1080.46974	21546.4375
1084.14085	21593.0375
1087.80943	21830.7375
1091.47549	22099.4375
1095.13903	22184.2375
1098.80005	22018.7375
1102.45857	21518.3375
1106.11456	21052.2375
1109.76805	20859.3375
1113.41903	20916.0375
1117.06751	21147.3375
1120.71348	21398.9375
1124.35696	21672.7375
1127.99793	21989.2375
1131.63641	22171.3375
1135.2724	22070.5375
1138.90589	21930.6375
1142.5369	21954.8375
1146.16542	22141.7375
1149.79145	22452.9375
1153.415	22876.6375
1157.03607	23419.3375
1160.65467	24167.5375
1164.27079	25345.3375
1167.88443	26814.7375
1171.49561	28623.2375
1175.10432	30939.2375
1178.71056	33746.3375
1182.31434	36241.7375
1185.91565	37595.4375
1189.51451	37710.1375
1193.11091	37062.7375
1196.70485	35907.8375
1200.29634	34521.8375
1203.88538	33330.1375
1207.47197	32512.6375
1211.05612	31963.0375
1214.63782	31253.2375
1218.21708	30513.1375
1221.79391	29716.8375
1225.36829	29088.2375
1228.94024	28479.5375
1232.50976	27894.9375
1236.07685	27476.3375
1239.6415	27263.5375
1243.20374	27292.8375
1246.76355	27452.2375
1250.32093	27829.0375
1253.8759	28456.1375
1257.42845	29261.2375
1260.97859	30087.5375
1264.52631	30775.9375
1268.07163	31588.0375
1271.61453	32496.3375
1275.15503	33559.9375
1278.69312	34728.6375
1282.22882	35770.7375
1285.76211	37041.4375
1289.29301	38593.3375
1292.82151	40732.3375
1296.34761	43355.8375
1299.87133	46283.1375
1303.39266	49164.8375
1306.9116	51920.0375
1310.42815	54301.7375
1313.94233	55949.3375
1317.45412	56478.7375
1320.96354	56435.8375
1324.47058	56296.6375
1327.97525	56083.1375
1331.47754	55857.6375
1334.97747	55755.2375
1338.47502	55833.6375
1341.97022	55460.1375
1345.46305	54294.8375
1348.95352	52485.3375
1352.44163	50590.7375
1355.92738	49673.8375
1359.41078	49883.5375
1362.89183	50580.8375
1366.37053	49703.9375
1369.84688	46385.8375
1373.32088	42175.9375
1376.79254	39391.2375
1380.26186	38478.6375
1383.72883	38896.5375
1387.19347	39621.9375
1390.65578	40141.6375
1394.11575	40794.4375
1397.57339	41998.1375
1401.0287	43421.5375
1404.48168	44682.4375
1407.93234	44927.2375
1411.38068	44041.8375
1414.82669	42052.5375
1418.27039	39478.4375
1421.71177	36804.2375
1425.15083	34620.8375
1428.58758	33295.7375
1432.02203	33052.0375
1435.45416	33697.2375
1438.88399	34802.5375
1442.31151	36100.0375
1445.73673	37139.6375
1449.15965	38228.0375
1452.58027	39285.2375
1455.9986	40028.0375
1459.41463	40641.0375
1462.82837	41348.2375
1466.23982	42066.7375
1469.64898	42566.7375
1473.05586	42646.1375
1476.46045	42320.0375
1479.86276	41607.2375
1483.26279	40643.7375
1486.66054	39794.7375
1490.05602	39313.9375
1493.44922	39067.5375
1496.84016	38854.9375
1500.22882	38875.5375
1503.61521	39381.6375
1506.99934	40280.4375
1510.38121	41190.1375
1513.76081	41703.0375
1517.13816	41280.4375
1520.51324	40210.2375
1523.88607	39315.4375
1527.25665	38987.7375
1530.62498	39014.9375
1533.99105	39187.4375
1537.35488	39174.1375
1540.71647	38740.5375
1544.07581	37964.2375
1547.4329	37003.6375
1550.78776	36138.4375
1554.14038	35481.4375
1557.49077	35241.7375
1560.83892	35089.5375
1564.18484	35040.7375
1567.52853	35026.1375
1570.86999	35152.9375
1574.20922	35734.6375
1577.54624	36499.4375
1580.88103	37060.2375
1584.2136	37940.7375
1587.54395	39454.3375
1590.87208	41611.5375
1594.19801	44003.6375
1597.52172	46198.3375
1600.84321	46701.0375
1604.16251	44642.6375
1607.47959	40963.2375
1610.79447	36975.2375
1614.10715	33257.3375
1617.41763	30269.9375
1620.7259	28096.2375
1624.03199	26938.7375
1627.33587	26762.0375
1630.63757	27563.3375
1633.93707	29541.0375
1637.23439	32782.5375
1640.52951	37257.0375
1643.82246	42363.6375
1647.11321	46282.9375
1650.40179	47126.0375
1653.68819	44106.0375
1656.97241	38442.8375
1660.25446	32359.0375
1663.53433	27612.5375
1666.81203	24335.5375
1670.08756	22269.9375
1673.36092	20906.3375
1676.63211	20030.4375
1679.90115	19469.3375
1683.16801	19018.4375
1686.43272	18682.5375
1689.69527	18442.6375
1692.95567	18221.1375
1696.2139	18122.9375
1699.46999	18033.4375
1702.72392	17908.9375
1705.97571	17819.5375
1709.22535	17694.1375
1712.47284	17629.7375
1715.71819	17598.1375
1718.96139	17539.1375
1722.20246	17442.6375
1725.44139	17342.1375
1728.67818	17281.9375
1731.91284	17196.9375
1735.14537	17076.1375
1738.37576	16991.5375
1741.60403	16926.7375
1744.83017	16877.4375
1748.05418	16863.3375
1751.27607	16843.9375
1754.49584	16793.9375
1757.71349	16783.4375
1760.92903	16732.7375
1764.14244	16742.4375
1767.35375	16702.1375
1770.56294	16630.4375
1773.77002	16598.9375
1776.97499	16552.5375
1780.17785	16523.4375
1783.37861	16465.2375
1786.57727	16468.2375
1789.77382	16409.9375
1792.96828	16359.7375
1796.16064	16310.9375
1799.3509	16271.7375
1802.53907	16249.1375
1805.72514	16181.2375
1808.90913	16161.6375
1812.09102	16120.0375
1815.27083	16108.4375
1818.44856	16090.0375
1821.6242	16068.0375
1824.79776	16033.0375
1827.96924	16060.5375
1831.13864	15996.5375
1834.30597	15980.8375
1837.47122	16009.6375
1840.6344	15994.4375
1843.7955	15990.3375
1846.95454	15984.5375
1850.11151	16003.5375
1853.26642	16015.8375
1856.41926	15980.2375
1859.57004	15995.4375
1862.71876	15968.9375
1865.86542	15947.0375
1869.01003	15945.2375
1872.15258	15939.9375
1875.29308	15933.4375
1878.43152	15911.9375
1881.56792	15928.3375
1884.70227	15898.6375
1887.83457	15881.3375
1890.96482	15878.3375
1894.09304	15883.4375
1897.21921	15895.2375
1900.34335	15887.2375
1903.46544	15849.1375
1906.58551	15849.7375
1909.70353	15841.6375
1912.81953	15791.9375
1915.93349	15747.9375
1919.04543	15725.9375
1922.15534	15706.2375
1925.26322	15661.0375
1928.36908	15600.6375
1931.47292	15580.7375
1934.57473	15507.0375
1937.67453	15458.5375
1940.77232	15419.5375
1943.86808	15358.7375
1946.96184	15340.0375
1950.05358	15296.8375
1953.14331	15248.3375
1956.23103	15185.5375
1959.31675	15126.5375
1962.40046	15076.0375
1965.48217	15037.8375
1968.56188	14983.3375
1971.63959	14912.2375
1974.7153	14846.4375
1977.78901	14842.8375
1980.86073	14782.9375
1983.93046	14725.4375
1986.99819	14709.6375
1990.06394	14668.3375
1993.1277	14638.6375
1996.18947	14553.4375
1999.24925	14509.4375
2002.30706	14474.9375
2005.36288	14424.2375
2008.41672	14403.1375
2011.46859	14360.3375
2014.51848	14303.0375
2017.56639	14251.1375
2020.61233	14247.1375
2023.6563	14232.0375
2026.6983	14195.2375
2029.73833	14158.9375
2032.7764	14112.7375
2035.8125	14092.7375
2038.84664	14084.2375
2041.87881	14095.1375
2044.90903	14030.8375
2047.93729	14052.7375
2050.96359	14015.0375
2053.98794	13987.9375
2057.01034	14010.4375
2060.03078	13959.5375
2063.04927	13949.2375
2066.06582	13951.3375
2069.08042	13921.8375
2072.09307	13924.4375
2075.10378	13909.8375
2078.11255	13892.2375
2081.11938	13863.5375
2084.12426	13854.9375
2087.12722	13849.6375
2090.12824	13878.1375
2093.12732	13878.1375
2096.12447	13851.2375
2099.11969	13870.2375
2102.11299	13853.5375
2105.10435	13858.7375
2108.09379	13878.6375
2111.08131	13859.0375
2114.0669	13861.7375
2117.05057	13874.0375
2120.03233	13900.1375
2123.01216	13907.3375
2125.99008	13917.7375
2128.96609	13906.4375
2131.94018	13904.7375
2134.91236	13898.2375
2137.88263	13923.1375
2140.851	13901.6375
2143.81746	13949.0375
2146.78201	13936.0375
2149.74466	13947.2375
2152.7054	13919.0375
2155.66425	13920.5375
2158.6212	13929.6375
2161.57625	13898.7375
2164.52941	13901.0375
2167.48067	13879.8375
2170.43004	13869.6375
2173.37752	13869.3375
2176.32311	13848.8375
2179.26681	13884.4375
2182.20863	13836.4375
2185.14856	13857.7375
2188.08661	13866.3375
2191.02278	13860.8375
2193.95707	13856.3375
2196.88948	13845.0375
2199.82001	13820.4375
2202.74867	13828.3375
2205.67545	13827.4375
2208.60037	13792.3375
2211.52341	13767.4375
2214.44458	13742.4375
2217.36388	13713.7375
2220.28132	13725.9375
2223.1969	13701.0375
2226.11061	13692.6375
2229.02246	13627.7375
2231.93245	13610.2375
2234.84058	13569.6375
2237.74686	13551.2375
2240.65128	13540.5375
2243.55385	13550.9375
2246.45456	13525.9375
2249.35343	13498.2375
2252.25044	13443.0375
2255.14561	13439.4375
2258.03893	13441.9375
2260.93041	13407.8375
2263.82004	13371.5375
2266.70783	13324.6375
2269.59378	13293.4375
2272.4779	13245.1375
2275.36017	13213.5375
2278.24061	13176.8375
2281.11922	13153.3375
2283.996	13162.4375
2286.87094	13123.0375
2289.74405	13094.0375
2292.61534	13067.9375
2295.4848	13039.5375
2298.35243	13067.1375
2301.21824	13057.7375
2304.08223	13068.6375
2306.94439	13066.0375
2309.80474	13071.8375
2312.66327	13058.4375
2315.51999	13045.1375
2318.37489	13029.6375
2321.22797	13007.6375
2324.07925	13010.8375
2326.92871	12998.5375
2329.77637	13002.3375
2332.62222	12983.5375
2335.46626	12971.3375
2338.3085	12963.9375
2341.14893	12969.5375
2343.98756	12936.0375
2346.8244	12971.6375
2349.65943	12947.8375
2352.49267	12971.8375
2355.32411	12976.4375
2358.15376	12935.3375
2360.98161	12965.2375
2363.80768	12915.1375
2366.63195	12894.8375
2369.45444	12887.5375
2372.27514	12881.8375
2375.09405	12866.8375
2377.91118	12841.8375
2380.72652	12812.1375
2383.54009	12780.8375
2386.35187	12801.1375
2389.16188	12722.0375
2391.97011	12727.2375
2394.77657	12703.3375
2397.58125	12685.7375
2400.38416	12635.3375
2403.18529	12642.2375
2405.98466	12616.7375
2408.78226	12574.5375
2411.57809	12584.3375
2414.37216	12575.3375
2417.16446	12586.1375
2419.955	12549.0375
2422.74378	12523.6375
2425.5308	12528.3375
2428.31606	12544.8375
2431.09956	12476.5375
2433.88131	12479.8375
2436.6613	12496.0375
2439.43954	12471.7375
2442.21603	12499.3375
2444.99077	12465.7375
2447.76377	12472.4375
2450.53501	12458.4375
2453.30451	12494.4375
2456.07226	12427.9375
2458.83827	12462.6375
2461.60254	12460.3375
2464.36507	12457.5375
2467.12586	12469.7375
2469.88492	12440.1375
2472.64224	12469.5375
2475.39782	12460.2375
2478.15167	12485.8375
2480.90379	12489.0375
2483.65417	12473.0375
2486.40283	12476.5375
2489.14976	12495.1375
2491.89497	12499.9375
2494.63845	12492.5375
2497.3802	12469.1375
2500.12024	12475.8375
2502.85855	12476.4375
2505.59514	12503.3375
2508.33002	12500.2375
2511.06318	12525.3375
2513.79462	12474.6375
2516.52435	12482.0375
2519.25237	12493.0375
2521.97867	12461.4375
2524.70327	12405.5375
2527.42616	12441.6375
2530.14734	12407.1375
2532.86681	12422.5375
2535.58458	12422.8375
2538.30065	12398.0375
2541.01501	12387.3375
2543.72768	12374.8375
2546.43864	12331.3375
2549.14791	12317.7375
2551.85548	12329.4375
2554.56136	12345.5375
2557.26554	12318.5375
2559.96803	12319.4375
2562.66883	12308.4375
2565.36794	12297.3375
2568.06536	12279.0375
2570.7611	12294.5375
2573.45514	12278.0375
2576.14751	12292.9375
2578.83819	12277.1375
2581.52719	12273.1375
2584.21451	12256.1375
2586.90015	12242.4375
2589.58411	12290.7375
2592.2664	12271.6375
2594.94701	12251.1375
2597.62594	12233.0375
2600.30321	12240.2375
2602.9788	12228.3375
2605.65273	12224.0375
2608.32498	12248.3375
2610.99557	12242.2375
2613.66449	12248.5375
2616.33175	12261.4375
2618.99734	12279.5375
2621.66128	12253.7375
2624.32355	12270.6375
2626.98416	12269.3375
2629.64311	12275.8375
2632.30041	12297.2375
2634.95605	12267.3375
2637.61004	12262.7375
2640.26238	12245.9375
2642.91306	12266.9375
2645.56209	12266.0375
2648.20948	12246.8375
2650.85521	12258.3375
2653.4993	12230.2375
2656.14175	12247.3375
2658.78255	12254.7375
2661.42171	12249.9375
2664.05923	12312.0375
2666.6951	12303.4375
2669.32934	12297.7375
2671.96194	12275.6375
2674.59291	12280.5375
2677.22224	12279.8375
2679.84993	12313.3375
2682.476	12267.8375
2685.10043	12271.3375
2687.72324	12279.7375
2690.34441	12279.2375
2692.96396	12246.3375
2695.58188	12254.2375
2698.19818	12249.4375
2700.81285	12260.3375
2703.4259	12274.2375
2706.03733	12310.0375
2708.64714	12298.6375
2711.25533	12298.9375
2713.86191	12284.7375
2716.46687	12315.1375
2719.07021	12326.2375
2721.67194	12350.0375
2724.27206	12337.6375
2726.87057	12337.9375
2729.46747	12370.4375
2732.06276	12367.3375
2734.65644	12348.1375
2737.24852	12363.9375
2739.83899	12330.4375
2742.42786	12359.9375
2745.01513	12321.7375
2747.60079	12333.3375
2750.18486	12329.9375
2752.76733	12337.1375
2755.3482	12356.0375
2757.92747	12360.1375
2760.50515	12360.6375
2763.08123	12411.4375
2765.65573	12394.0375
2768.22863	12379.8375
2770.79994	12372.5375
2773.36967	12365.7375
2775.9378	12368.0375
2778.50435	12377.7375
2781.06932	12354.2375
2783.6327	12364.5375
2786.1945	12376.4375
2788.75471	12367.5375
2791.31335	12332.8375
2793.87041	12343.4375
2796.42589	12320.5375
2798.97979	12310.5375
2801.53212	12320.4375
2804.08288	12290.0375
2806.63206	12251.4375
2809.17967	12249.0375
2811.72571	12191.9375
2814.27018	12219.5375
2816.81308	12173.9375
2819.35442	12138.0375
2821.89419	12119.9375
2824.43239	12115.1375
2826.96904	12097.9375
2829.50412	12105.2375
2832.03763	12071.7375
2834.56959	12069.9375
2837.1	12076.5375
2839.62884	12084.9375
2842.15613	12059.2375
2844.68186	12103.4375
2847.20604	12116.9375
2849.72867	12134.8375
2852.24974	12136.7375
2854.76927	12104.7375
2857.28724	12110.0375
2859.80367	12112.1375
2862.31855	12054.1375
2864.83189	12061.6375
2867.34368	12042.3375
2869.85393	12048.4375
2872.36264	12045.6375
2874.8698	12051.2375
2877.37543	12063.1375
2879.87952	12050.0375
2882.38207	12067.9375
2884.88308	12073.9375
2887.38256	12073.6375
2889.88051	12107.0375
2892.37692	12101.8375
2894.8718	12071.6375
2897.36515	12106.9375
2899.85698	12098.1375
2902.34727	12122.3375
2904.83604	12137.8375
2907.32328	12177.7375
2909.809	12172.5375
2912.29319	12144.6375
2914.77587	12152.5375
2917.25702	12154.6375
2919.73665	12158.2375
2922.21476	12136.5375
2924.69136	12161.2375
2927.16644	12186.4375
2929.64	12163.2375
2932.11205	12159.3375
2934.58258	12141.8375
2937.05161	12121.2375
2939.51912	12143.3375
2941.98513	12126.8375
2944.44962	12079.0375
2946.91261	12015.2375
2949.37409	12015.0375
2951.83407	12001.0375
2954.29254	11999.7375
2956.74951	11953.4375
2959.20498	11987.9375
2961.65895	11927.4375
2964.11142	11914.0375
2966.56239	11875.3375
2969.01186	11880.6375
2971.45984	11824.0375
2973.90632	11802.9375
2976.35131	11763.8375
2978.7948	11738.4375
2981.23681	11683.3375
2983.67732	11671.4375
2986.11635	11664.0375
2988.55388	11650.1375
2990.98993	11621.8375
2993.4245	11594.4375
2995.85758	11551.3375
2998.28917	11524.9375
3000.71928	11501.5375
3003.14791	11462.8375
3005.57506	11483.4375
3008.00073	11409.2375
3010.42493	11391.6375
3012.84764	11377.3375
3015.26888	11400.1375
3017.68865	11353.8375
3020.10694	11334.2375
3022.52376	11303.3375
3024.9391	11300.6375
3027.35298	11289.9375
3029.76539	11259.7375
3032.17632	11248.1375
3034.5858	11256.8375
3036.9938	11223.2375
3039.40034	11243.2375
3041.80542	11223.6375
3044.20903	11186.7375
3046.61118	11187.8375
3049.01187	11175.7375
3051.4111	11144.3375
3053.80888	11106.4375
3056.20519	11098.4375
3058.60005	11065.8375
3060.99345	11052.0375
3063.3854	11003.9375
3065.7759	10980.6375
3068.16494	10962.8375
3070.55254	10898.5375
3072.93868	10887.8375
3075.32338	10860.2375
3077.70662	10824.1375
3080.08842	10785.7375
3082.46878	10787.0375
3084.84769	10773.0375
3087.22515	10763.7375
3089.60118	10764.8375
3091.97576	10760.5375
3094.3489	10765.8375
3096.72061	10736.3375
3099.09087	10733.0375
3101.4597	10716.4375
3103.82709	10740.1375
3106.19305	10685.2375
3108.55757	10693.3375
3110.92066	10630.7375
3113.28232	10629.1375
3115.64255	10580.5375
3118.00134	10538.1375
3120.35871	10508.7375
3122.71466	10499.7375
3125.06917	10496.6375
3127.42226	10456.8375
3129.77393	10472.9375
3132.12417	10452.9375
3134.47299	10457.5375
3136.82039	10433.4375
3139.16636	10433.2375
3141.51092	10435.0375
3143.85406	10407.2375
3146.19579	10424.1375
3148.53609	10425.0375
3150.87499	10427.9375
3153.21246	10418.2375
3155.54853	10441.9375
3157.88318	10428.2375
3160.21642	10443.1375
3162.54826	10401.9375
3164.87868	10417.1375
3167.2077	10385.6375
3169.5353	10394.6375
3171.86151	10405.4375
3174.18631	10405.9375
3176.5097	10397.5375
3178.83169	10364.1375
3181.15228	10393.6375
3183.47147	10355.0375
3185.78926	10339.2375
3188.10565	10341.5375
3190.42065	10354.1375
3192.73424	10352.4375
3195.04645	10333.2375
3197.35725	10322.0375
3199.66667	10299.5375
3201.97469	10335.8375
3204.28132	10307.8375
3206.58656	10322.3375
3208.8904	10324.9375
3211.19287	10359.2375
3213.49394	10346.1375
3215.79363	10321.8375
3218.09193	10314.7375
3220.38884	10308.7375
3222.68438	10344.9375
3224.97853	10303.6375
3227.2713	10284.8375
3229.56269	10273.1375
3231.8527	10284.4375
3234.14133	10256.4375
3236.42858	10216.9375
3238.71446	10240.9375
3240.99896	10219.4375
3243.28209	10232.1375
3245.56384	10222.3375
3247.84423	10225.2375
3250.12324	10210.0375
3252.40088	10177.7375
3254.67715	10181.6375
3256.95205	10153.8375
3259.22558	10158.3375
3261.49775	10125.1375
3263.76855	10101.3375
3266.03799	10078.1375
3268.30606	10057.0375
3270.57277	10028.2375
3272.83812	9994.4375
3275.10211	9986.8375
3277.36474	9974.2375
3279.62601	9967.8375
3281.88593	9991.3375
3284.14448	9989.6375
3286.40168	9972.8375
3288.65753	9991.5375
3290.91202	9964.2375
3293.16516	9934.6375
3295.41695	9877.6375
3297.66738	9848.9375
3299.91647	9782.6375
3302.16421	9736.1375
3304.4106	9675.2375
3306.65564	9621.9375
3308.89933	9587.3375
3311.14169	9511.4375
3313.38269	9464.6375
3315.62236	9408.2375
3317.86068	9313.6375
3320.09766	9202.1375
3322.3333	9126.0375
3324.5676	9155.9375
3326.80056	9001.8375
3329.03219	8936.5375
3331.26248	2.6375
3333.49143	-0.2625
3335.71905	-0.4625
