Data from AgNPs_FTO_APTES_UA_2uM_CRN_200uM_R6G_10uM_NaF_0.1M_Addition_RamanShift__1__16-20-05-349.txt Node

Date: Wed Feb 02 16:20:05 GMT 2022
User: TCL
Spectrometer: QEP01345
Trigger mode: 4
Integration Time (sec): 7.000000E0
Scans to average: 10
Electric dark correction enabled: true
Nonlinearity correction enabled: false
Boxcar width: 0
XAxis mode: Raman Shifts
Number of Pixels in Spectrum: 1044
>>>>>Begin Spectral Data<<<<<
46.04893	0.5375
50.45542	1.1375
54.85868	-0.6625
59.25871	-0.4625
63.6555	67.8375
68.04907	70.8375
72.43941	72.7375
76.82654	77.6375
81.21044	82.9375
85.59113	87.6375
89.96862	91.6375
94.34289	90.7375
98.71396	95.1375
103.08183	99.9375
107.4465	104.3375
111.80798	103.5375
116.16626	104.8375
120.52136	109.5375
124.87327	115.1375
129.222	115.4375
133.56755	126.6375
137.90993	127.8375
142.24913	146.0375
146.58517	161.2375
150.91804	186.5375
155.24774	221.1375
159.57429	270.1375
163.89768	349.7375
168.21792	452.0375
172.53501	613.5375
176.84895	854.7375
181.15975	1195.4375
185.46741	1665.6375
189.77193	2292.6375
194.07331	3070.8375
198.37157	3973.6375
202.6667	4881.2375
206.9587	5816.4375
211.24758	6706.4375
215.53334	7629.6375
219.81599	8623.0375
224.09553	9690.3375
228.37195	10872.6375
232.64527	12100.3375
236.91549	13408.6375
241.18261	14729.5375
245.44663	15953.8375
249.70755	17019.1375
253.96539	18002.7375
258.22014	18788.4375
262.4718	19482.1375
266.72039	19960.3375
270.96589	20229.5375
275.20832	20253.3375
279.44768	20190.9375
283.68397	20064.8375
287.91719	19930.7375
292.14735	19935.7375
296.37445	20015.8375
300.59849	20150.3375
304.81948	20305.7375
309.03742	20288.3375
313.25231	20088.8375
317.46415	19592.8375
321.67296	19007.6375
325.87872	18507.2375
330.08145	18220.6375
334.28114	18073.0375
338.47781	18102.6375
342.67145	18274.6375
346.86207	18545.2375
351.04966	18836.8375
355.23424	19167.1375
359.4158	19445.2375
363.59435	19628.2375
367.76989	19715.5375
371.94243	19842.0375
376.11196	19897.5375
380.27849	19960.2375
384.44203	20083.9375
388.60257	20290.8375
392.76012	20508.5375
396.91468	20833.3375
401.06626	21181.5375
405.21485	21400.0375
409.36047	21296.9375
413.50311	21013.5375
417.64277	20765.0375
421.77947	20732.4375
425.9132	20747.3375
430.04396	20900.5375
434.17176	21020.5375
438.2966	21131.4375
442.41849	21517.2375
446.53742	22174.8375
450.6534	22923.0375
454.76644	23430.0375
458.87653	23555.9375
462.98368	23451.6375
467.08789	23206.1375
471.18916	22965.7375
475.2875	22845.6375
479.38291	22905.7375
483.4754	22906.7375
487.56496	22595.7375
491.6516	21969.5375
495.73531	21343.2375
499.81612	20897.2375
503.89401	20801.5375
507.96899	20857.9375
512.04106	20776.0375
516.11023	20602.2375
520.1765	20330.8375
524.23987	20046.6375
528.30034	19834.9375
532.35792	19663.3375
536.41261	19426.2375
540.46441	19220.8375
544.51333	19252.1375
548.55936	19558.9375
552.60252	20112.3375
556.64279	20807.4375
560.6802	21358.8375
564.71473	21735.4375
568.7464	22315.5375
572.7752	23197.2375
576.80114	23965.4375
580.82422	24615.4375
584.84444	25275.6375
588.86181	26285.8375
592.87633	27017.5375
596.888	26654.0375
600.89682	25309.3375
604.9028	24773.7375
608.90594	25997.6375
612.90624	27621.9375
616.90371	25819.9375
620.89834	21568.6375
624.89015	19642.9375
628.87913	19393.8375
632.86528	19573.0375
636.84862	19577.0375
640.82913	19227.5375
644.80683	18779.0375
648.78172	18440.5375
652.75379	18407.3375
656.72306	18584.4375
660.68952	18823.2375
664.65319	18679.1375
668.61405	18313.0375
672.57211	18231.9375
676.52738	18299.7375
680.47986	18306.9375
684.42955	18264.4375
688.37646	18161.2375
692.32058	18208.8375
696.26192	18464.3375
700.20048	18754.2375
704.13626	18958.4375
708.06928	19028.1375
711.99952	19024.5375
715.927	19026.3375
719.85171	19046.0375
723.77365	18988.1375
727.69284	18693.5375
731.60928	18418.4375
735.52295	18325.5375
739.43388	18263.8375
743.34206	18344.0375
747.24749	18456.1375
751.15017	18684.8375
755.05012	19146.7375
758.94733	19837.4375
762.8418	20910.2375
766.73354	22490.9375
770.62254	23908.5375
774.50882	24091.8375
778.39237	22891.4375
782.27321	21155.7375
786.15132	19665.5375
790.02671	18777.7375
793.89938	18339.0375
797.76935	18169.2375
801.6366	18131.2375
805.50115	18078.5375
809.36299	17963.6375
813.22213	17891.3375
817.07857	17874.2375
820.93231	17800.0375
824.78336	17666.3375
828.63172	17545.1375
832.47738	17484.7375
836.32036	17476.4375
840.16066	17474.7375
843.99827	17495.3375
847.8332	17416.5375
851.66546	17370.7375
855.49504	17356.7375
859.32195	17326.3375
863.1462	17262.5375
866.96777	17182.5375
870.78668	17162.3375
874.60293	17176.6375
878.41652	17167.0375
882.22745	17220.3375
886.03573	17254.6375
889.84136	17253.2375
893.64433	17212.6375
897.44466	17131.9375
901.24235	17066.1375
905.0374	17009.5375
908.8298	17007.0375
912.61957	17095.3375
916.40671	17305.6375
920.19121	17594.5375
923.97308	17867.2375
927.75233	17808.4375
931.52895	17594.7375
935.30295	17215.4375
939.07433	16883.6375
942.84309	16529.3375
946.60924	16364.5375
950.37278	16314.0375
954.13371	16315.9375
957.89203	16341.2375
961.64774	16383.9375
965.40086	16355.3375
969.15137	16263.4375
972.89929	16137.3375
976.64461	16035.9375
980.38733	15991.5375
984.12747	15982.4375
987.86502	16077.7375
991.59999	16182.0375
995.33237	16320.1375
999.06217	16635.7375
1002.78939	17011.9375
1006.51404	17306.7375
1010.23611	17535.9375
1013.95561	17771.5375
1017.67255	17835.4375
1021.38692	17686.2375
1025.09872	17361.3375
1028.80796	17180.7375
1032.51465	17183.8375
1036.21877	17377.8375
1039.92035	17496.2375
1043.61937	17546.1375
1047.31584	17488.5375
1051.00976	17445.2375
1054.70114	17481.6375
1058.38998	17562.2375
1062.07627	17787.4375
1065.76003	18007.5375
1069.44126	18241.5375
1073.11995	18520.8375
1076.79611	18713.8375
1080.46974	18772.3375
1084.14085	18880.1375
1087.80943	19096.5375
1091.47549	19364.3375
1095.13903	19491.6375
1098.80005	19289.8375
1102.45857	18776.9375
1106.11456	18274.3375
1109.76805	18049.0375
1113.41903	18096.6375
1117.06751	18218.0375
1120.71348	18480.5375
1124.35696	18784.3375
1127.99793	19136.6375
1131.63641	19317.6375
1135.2724	19165.8375
1138.90589	19093.3375
1142.5369	19181.4375
1146.16542	19455.8375
1149.79145	19784.4375
1153.415	20135.2375
1157.03607	20536.6375
1160.65467	21318.8375
1164.27079	22499.0375
1167.88443	23886.8375
1171.49561	25406.3375
1175.10432	27266.5375
1178.71056	29627.4375
1182.31434	31678.4375
1185.91565	32580.5375
1189.51451	32131.0375
1193.11091	31188.8375
1196.70485	30024.2375
1200.29634	28953.9375
1203.88538	28202.6375
1207.47197	27901.5375
1211.05612	27754.5375
1214.63782	27189.5375
1218.21708	26270.0375
1221.79391	25284.3375
1225.36829	24586.8375
1228.94024	24080.4375
1232.50976	23631.9375
1236.07685	23231.0375
1239.6415	23005.1375
1243.20374	23005.2375
1246.76355	23242.6375
1250.32093	23572.1375
1253.8759	24097.5375
1257.42845	24753.0375
1260.97859	25562.6375
1264.52631	26280.0375
1268.07163	26967.1375
1271.61453	27796.3375
1275.15503	28672.7375
1278.69312	29658.3375
1282.22882	30834.8375
1285.76211	32274.1375
1289.29301	34084.1375
1292.82151	36278.3375
1296.34761	38839.3375
1299.87133	41593.2375
1303.39266	44249.0375
1306.9116	46387.3375
1310.42815	48028.6375
1313.94233	48896.4375
1317.45412	48725.4375
1320.96354	47953.6375
1324.47058	47244.1375
1327.97525	46730.0375
1331.47754	46275.4375
1334.97747	45783.4375
1338.47502	45050.2375
1341.97022	44101.3375
1345.46305	42952.9375
1348.95352	42194.3375
1352.44163	42035.5375
1355.92738	42810.5375
1359.41078	44481.1375
1362.89183	45864.8375
1366.37053	45044.0375
1369.84688	41471.6375
1373.32088	36869.6375
1376.79254	33806.9375
1380.26186	32993.8375
1383.72883	33380.0375
1387.19347	33783.2375
1390.65578	33866.0375
1394.11575	33947.0375
1397.57339	34589.8375
1401.0287	35344.4375
1404.48168	35771.4375
1407.93234	35401.1375
1411.38068	34247.9375
1414.82669	32541.1375
1418.27039	30641.7375
1421.71177	28870.4375
1425.15083	27448.7375
1428.58758	26732.6375
1432.02203	26928.3375
1435.45416	27764.5375
1438.88399	28754.8375
1442.31151	29645.4375
1445.73673	30306.5375
1449.15965	30816.5375
1452.58027	31160.1375
1455.9986	31207.3375
1459.41463	31378.8375
1462.82837	31651.0375
1466.23982	32131.3375
1469.64898	32523.8375
1473.05586	32744.0375
1476.46045	32735.0375
1479.86276	32393.5375
1483.26279	31895.3375
1486.66054	31662.0375
1490.05602	31752.9375
1493.44922	31958.2375
1496.84016	32382.2375
1500.22882	33095.3375
1503.61521	34173.8375
1506.99934	35393.8375
1510.38121	36475.5375
1513.76081	36860.2375
1517.13816	36229.4375
1520.51324	35067.5375
1523.88607	34212.3375
1527.25665	34037.4375
1530.62498	34070.7375
1533.99105	33993.3375
1537.35488	33486.6375
1540.71647	32617.6375
1544.07581	31475.0375
1547.4329	30260.5375
1550.78776	29238.4375
1554.14038	28518.5375
1557.49077	28165.3375
1560.83892	28072.5375
1564.18484	28092.1375
1567.52853	28337.8375
1570.86999	28780.8375
1574.20922	29597.7375
1577.54624	30392.6375
1580.88103	30935.9375
1584.2136	31578.6375
1587.54395	32699.3375
1590.87208	34404.1375
1594.19801	36313.0375
1597.52172	37966.0375
1600.84321	38192.8375
1604.16251	36140.8375
1607.47959	32779.4375
1610.79447	29285.9375
1614.10715	26253.3375
1617.41763	24022.8375
1620.7259	22588.4375
1624.03199	21981.6375
1627.33587	22049.8375
1630.63757	22945.4375
1633.93707	24676.0375
1637.23439	27624.6375
1640.52951	31871.4375
1643.82246	36960.3375
1647.11321	41217.8375
1650.40179	42246.6375
1653.68819	39160.4375
1656.97241	33327.2375
1660.25446	27671.8375
1663.53433	23324.6375
1666.81203	20524.2375
1670.08756	18775.5375
1673.36092	17661.2375
1676.63211	16959.9375
1679.90115	16514.5375
1683.16801	16166.4375
1686.43272	15919.4375
1689.69527	15723.5375
1692.95567	15557.8375
1696.2139	15466.3375
1699.46999	15388.9375
1702.72392	15319.3375
1705.97571	15234.6375
1709.22535	15155.6375
1712.47284	15115.5375
1715.71819	15083.6375
1718.96139	15019.9375
1722.20246	14949.4375
1725.44139	14902.0375
1728.67818	14811.5375
1731.91284	14722.6375
1735.14537	14615.5375
1738.37576	14561.9375
1741.60403	14499.1375
1744.83017	14408.4375
1748.05418	14405.8375
1751.27607	14385.9375
1754.49584	14358.4375
1757.71349	14353.7375
1760.92903	14297.8375
1764.14244	14340.4375
1767.35375	14294.2375
1770.56294	14256.0375
1773.77002	14194.2375
1776.97499	14170.1375
1780.17785	14108.8375
1783.37861	14085.2375
1786.57727	14040.0375
1789.77382	14004.7375
1792.96828	13972.4375
1796.16064	13927.4375
1799.3509	13904.3375
1802.53907	13882.3375
1805.72514	13849.4375
1808.90913	13797.0375
1812.09102	13760.9375
1815.27083	13736.4375
1818.44856	13728.2375
1821.6242	13696.8375
1824.79776	13678.0375
1827.96924	13691.4375
1831.13864	13634.2375
1834.30597	13662.6375
1837.47122	13667.8375
1840.6344	13651.2375
1843.7955	13659.1375
1846.95454	13617.6375
1850.11151	13634.0375
1853.26642	13614.5375
1856.41926	13606.0375
1859.57004	13605.7375
1862.71876	13556.0375
1865.86542	13579.2375
1869.01003	13554.8375
1872.15258	13532.9375
1875.29308	13522.5375
1878.43152	13508.8375
1881.56792	13490.2375
1884.70227	13446.4375
1887.83457	13442.1375
1890.96482	13457.7375
1894.09304	13415.3375
1897.21921	13422.3375
1900.34335	13390.4375
1903.46544	13366.6375
1906.58551	13333.2375
1909.70353	13353.3375
1912.81953	13319.9375
1915.93349	13307.0375
1919.04543	13241.3375
1922.15534	13210.8375
1925.26322	13180.8375
1928.36908	13168.3375
1931.47292	13134.4375
1934.57473	13074.7375
1937.67453	13057.9375
1940.77232	13001.2375
1943.86808	12969.8375
1946.96184	12964.5375
1950.05358	12914.6375
1953.14331	12883.4375
1956.23103	12850.0375
1959.31675	12815.4375
1962.40046	12764.1375
1965.48217	12744.2375
1968.56188	12670.6375
1971.63959	12655.0375
1974.7153	12619.8375
1977.78901	12566.5375
1980.86073	12524.3375
1983.93046	12471.8375
1986.99819	12416.0375
1990.06394	12415.2375
1993.1277	12368.2375
1996.18947	12322.0375
1999.24925	12299.8375
2002.30706	12252.5375
2005.36288	12218.5375
2008.41672	12175.1375
2011.46859	12171.8375
2014.51848	12128.4375
2017.56639	12058.2375
2020.61233	12032.8375
2023.6563	12028.5375
2026.6983	12009.2375
2029.73833	11973.2375
2032.7764	11936.1375
2035.8125	11934.7375
2038.84664	11886.5375
2041.87881	11899.6375
2044.90903	11893.8375
2047.93729	11869.1375
2050.96359	11848.0375
2053.98794	11811.3375
2057.01034	11838.8375
2060.03078	11802.9375
2063.04927	11791.3375
2066.06582	11762.8375
2069.08042	11794.7375
2072.09307	11808.0375
2075.10378	11733.3375
2078.11255	11736.3375
2081.11938	11724.8375
2084.12426	11710.1375
2087.12722	11733.6375
2090.12824	11737.5375
2093.12732	11728.4375
2096.12447	11716.1375
2099.11969	11741.4375
2102.11299	11732.0375
2105.10435	11728.5375
2108.09379	11747.3375
2111.08131	11744.3375
2114.0669	11731.9375
2117.05057	11756.9375
2120.03233	11745.5375
2123.01216	11768.3375
2125.99008	11784.7375
2128.96609	11763.7375
2131.94018	11788.0375
2134.91236	11757.3375
2137.88263	11759.9375
2140.851	11771.9375
2143.81746	11799.3375
2146.78201	11798.6375
2149.74466	11806.3375
2152.7054	11787.4375
2155.66425	11779.8375
2158.6212	11786.9375
2161.57625	11772.0375
2164.52941	11770.9375
2167.48067	11747.2375
2170.43004	11740.8375
2173.37752	11730.3375
2176.32311	11715.4375
2179.26681	11741.4375
2182.20863	11735.5375
2185.14856	11759.4375
2188.08661	11745.3375
2191.02278	11724.2375
2193.95707	11737.3375
2196.88948	11696.8375
2199.82001	11705.3375
2202.74867	11678.1375
2205.67545	11659.1375
2208.60037	11668.6375
2211.52341	11632.9375
2214.44458	11621.4375
2217.36388	11600.4375
2220.28132	11593.4375
2223.1969	11560.2375
2226.11061	11561.4375
2229.02246	11510.8375
2231.93245	11516.4375
2234.84058	11485.1375
2237.74686	11479.1375
2240.65128	11447.7375
2243.55385	11460.9375
2246.45456	11453.7375
2249.35343	11415.6375
2252.25044	11393.9375
2255.14561	11360.1375
2258.03893	11337.1375
2260.93041	11359.3375
2263.82004	11271.2375
2266.70783	11279.4375
2269.59378	11249.6375
2272.4779	11213.0375
2275.36017	11167.3375
2278.24061	11158.7375
2281.11922	11126.9375
2283.996	11103.7375
2286.87094	11105.1375
2289.74405	11047.8375
2292.61534	11053.3375
2295.4848	11051.8375
2298.35243	11038.3375
2301.21824	11044.8375
2304.08223	11032.4375
2306.94439	11053.9375
2309.80474	11030.3375
2312.66327	11019.4375
2315.51999	11014.2375
2318.37489	11026.3375
2321.22797	10997.2375
2324.07925	10972.6375
2326.92871	10986.3375
2329.77637	10955.4375
2332.62222	10942.1375
2335.46626	10934.5375
2338.3085	10930.5375
2341.14893	10917.5375
2343.98756	10910.2375
2346.8244	10932.1375
2349.65943	10931.4375
2352.49267	10933.1375
2355.32411	10899.3375
2358.15376	10890.5375
2360.98161	10908.9375
2363.80768	10889.5375
2366.63195	10885.1375
2369.45444	10866.9375
2372.27514	10878.4375
2375.09405	10883.9375
2377.91118	10829.7375
2380.72652	10837.1375
2383.54009	10792.3375
2386.35187	10776.7375
2389.16188	10752.2375
2391.97011	10735.6375
2394.77657	10716.0375
2397.58125	10706.2375
2400.38416	10668.7375
2403.18529	10633.9375
2405.98466	10654.0375
2408.78226	10630.5375
2411.57809	10634.8375
2414.37216	10622.2375
2417.16446	10601.2375
2419.955	10574.4375
2422.74378	10590.5375
2425.5308	10598.9375
2428.31606	10611.9375
2431.09956	10553.8375
2433.88131	10557.7375
2436.6613	10545.7375
2439.43954	10550.5375
2442.21603	10539.4375
2444.99077	10505.8375
2447.76377	10539.8375
2450.53501	10539.8375
2453.30451	10575.1375
2456.07226	10527.0375
2458.83827	10530.6375
2461.60254	10520.6375
2464.36507	10548.9375
2467.12586	10522.8375
2469.88492	10499.5375
2472.64224	10516.1375
2475.39782	10530.5375
2478.15167	10515.9375
2480.90379	10529.0375
2483.65417	10516.8375
2486.40283	10528.3375
2489.14976	10519.1375
2491.89497	10525.0375
2494.63845	10524.2375
2497.3802	10546.9375
2500.12024	10522.6375
2502.85855	10513.8375
2505.59514	10487.6375
2508.33002	10503.9375
2511.06318	10480.6375
2513.79462	10473.3375
2516.52435	10478.1375
2519.25237	10470.3375
2521.97867	10434.5375
2524.70327	10435.3375
2527.42616	10413.6375
2530.14734	10415.5375
2532.86681	10374.1375
2535.58458	10389.8375
2538.30065	10393.6375
2541.01501	10390.6375
2543.72768	10370.5375
2546.43864	10358.5375
2549.14791	10332.7375
2551.85548	10344.6375
2554.56136	10319.0375
2557.26554	10332.9375
2559.96803	10321.0375
2562.66883	10320.3375
2565.36794	10334.2375
2568.06536	10313.0375
2570.7611	10305.3375
2573.45514	10311.2375
2576.14751	10298.1375
2578.83819	10281.8375
2581.52719	10272.7375
2584.21451	10260.6375
2586.90015	10275.8375
2589.58411	10265.6375
2592.2664	10256.0375
2594.94701	10242.4375
2597.62594	10229.8375
2600.30321	10233.4375
2602.9788	10210.5375
2605.65273	10199.3375
2608.32498	10198.0375
2610.99557	10228.8375
2613.66449	10236.9375
2616.33175	10203.2375
2618.99734	10211.8375
2621.66128	10212.0375
2624.32355	10177.2375
2626.98416	10191.6375
2629.64311	10180.8375
2632.30041	10196.5375
2634.95605	10183.7375
2637.61004	10171.8375
2640.26238	10117.2375
2642.91306	10154.4375
2645.56209	10161.7375
2648.20948	10166.2375
2650.85521	10132.1375
2653.4993	10151.3375
2656.14175	10132.1375
2658.78255	10147.3375
2661.42171	10153.2375
2664.05923	10187.2375
2666.6951	10196.1375
2669.32934	10170.6375
2671.96194	10180.4375
2674.59291	10164.4375
2677.22224	10169.1375
2679.84993	10179.8375
2682.476	10162.8375
2685.10043	10167.3375
2687.72324	10150.3375
2690.34441	10151.9375
2692.96396	10156.2375
2695.58188	10190.2375
2698.19818	10158.0375
2700.81285	10180.0375
2703.4259	10191.1375
2706.03733	10245.2375
2708.64714	10217.4375
2711.25533	10207.6375
2713.86191	10186.0375
2716.46687	10210.5375
2719.07021	10222.3375
2721.67194	10239.2375
2724.27206	10234.8375
2726.87057	10274.1375
2729.46747	10249.2375
2732.06276	10253.6375
2734.65644	10230.3375
2737.24852	10242.8375
2739.83899	10219.0375
2742.42786	10210.2375
2745.01513	10189.1375
2747.60079	10205.6375
2750.18486	10173.4375
2752.76733	10199.3375
2755.3482	10203.2375
2757.92747	10209.7375
2760.50515	10212.6375
2763.08123	10220.5375
2765.65573	10236.7375
2768.22863	10204.5375
2770.79994	10182.2375
2773.36967	10193.2375
2775.9378	10177.8375
2778.50435	10192.4375
2781.06932	10182.5375
2783.6327	10178.1375
2786.1945	10158.9375
2788.75471	10160.5375
2791.31335	10139.4375
2793.87041	10130.6375
2796.42589	10109.6375
2798.97979	10139.5375
2801.53212	10105.7375
2804.08288	10087.7375
2806.63206	10065.9375
2809.17967	10051.0375
2811.72571	10038.0375
2814.27018	10045.3375
2816.81308	10001.3375
2819.35442	9984.9375
2821.89419	9957.5375
2824.43239	9985.3375
2826.96904	9968.4375
2829.50412	9980.4375
2832.03763	9968.0375
2834.56959	9963.9375
2837.1	9955.2375
2839.62884	9960.3375
2842.15613	9950.9375
2844.68186	9979.8375
2847.20604	10027.9375
2849.72867	10060.5375
2852.24974	10066.8375
2854.76927	10032.4375
2857.28724	10039.1375
2859.80367	10010.2375
2862.31855	9987.0375
2864.83189	10020.3375
2867.34368	9980.7375
2869.85393	9991.5375
2872.36264	9966.9375
2874.8698	9959.0375
2877.37543	9969.8375
2879.87952	9966.7375
2882.38207	9976.6375
2884.88308	9980.7375
2887.38256	9951.4375
2889.88051	9941.6375
2892.37692	9965.4375
2894.8718	9976.4375
2897.36515	9989.3375
2899.85698	9997.3375
2902.34727	9984.9375
2904.83604	9983.6375
2907.32328	10039.3375
2909.809	10021.6375
2912.29319	10005.7375
2914.77587	9997.0375
2917.25702	10020.2375
2919.73665	9981.7375
2922.21476	10000.0375
2924.69136	9983.1375
2927.16644	10036.7375
2929.64	10025.9375
2932.11205	10013.5375
2934.58258	9983.6375
2937.05161	9991.1375
2939.51912	10005.3375
2941.98513	9936.7375
2944.44962	9924.0375
2946.91261	9854.0375
2949.37409	9891.8375
2951.83407	9860.8375
2954.29254	9842.5375
2956.74951	9835.2375
2959.20498	9813.9375
2961.65895	9804.5375
2964.11142	9783.1375
2966.56239	9766.6375
2969.01186	9751.4375
2971.45984	9727.3375
2973.90632	9720.2375
2976.35131	9677.7375
2978.7948	9631.7375
2981.23681	9625.5375
2983.67732	9589.2375
2986.11635	9592.8375
2988.55388	9574.4375
2990.98993	9544.9375
2993.4245	9518.0375
2995.85758	9471.7375
2998.28917	9478.4375
3000.71928	9454.8375
3003.14791	9441.5375
3005.57506	9423.4375
3008.00073	9410.8375
3010.42493	9377.5375
3012.84764	9365.5375
3015.26888	9376.5375
3017.68865	9339.6375
3020.10694	9327.9375
3022.52376	9305.4375
3024.9391	9285.9375
3027.35298	9283.1375
3029.76539	9280.6375
3032.17632	9268.4375
3034.5858	9256.9375
3036.9938	9247.8375
3039.40034	9246.9375
3041.80542	9255.6375
3044.20903	9191.4375
3046.61118	9207.1375
3049.01187	9196.1375
3051.4111	9182.2375
3053.80888	9134.8375
3056.20519	9102.6375
3058.60005	9093.2375
3060.99345	9086.5375
3063.3854	9064.6375
3065.7759	9060.7375
3068.16494	9011.3375
3070.55254	8973.8375
3072.93868	8982.9375
3075.32338	8968.5375
3077.70662	8955.9375
3080.08842	8890.1375
3082.46878	8912.1375
3084.84769	8872.6375
3087.22515	8887.1375
3089.60118	8886.0375
3091.97576	8870.9375
3094.3489	8865.1375
3096.72061	8867.8375
3099.09087	8859.4375
3101.4597	8835.0375
3103.82709	8834.8375
3106.19305	8820.8375
3108.55757	8814.0375
3110.92066	8767.6375
3113.28232	8775.5375
3115.64255	8749.5375
3118.00134	8718.8375
3120.35871	8696.6375
3122.71466	8684.0375
3125.06917	8700.4375
3127.42226	8650.6375
3129.77393	8666.2375
3132.12417	8645.4375
3134.47299	8667.5375
3136.82039	8638.7375
3139.16636	8646.7375
3141.51092	8639.2375
3143.85406	8647.2375
3146.19579	8660.9375
3148.53609	8651.0375
3150.87499	8648.8375
3153.21246	8648.9375
3155.54853	8653.9375
3157.88318	8657.8375
3160.21642	8631.4375
3162.54826	8659.0375
3164.87868	8641.1375
3167.2077	8634.0375
3169.5353	8645.7375
3171.86151	8643.1375
3174.18631	8629.1375
3176.5097	8628.9375
3178.83169	8615.7375
3181.15228	8606.2375
3183.47147	8587.5375
3185.78926	8606.2375
3188.10565	8595.1375
3190.42065	8578.1375
3192.73424	8577.6375
3195.04645	8572.1375
3197.35725	8574.1375
3199.66667	8551.7375
3201.97469	8561.3375
3204.28132	8558.5375
3206.58656	8553.2375
3208.8904	8559.0375
3211.19287	8554.0375
3213.49394	8556.1375
3215.79363	8555.0375
3218.09193	8561.8375
3220.38884	8540.0375
3222.68438	8561.4375
3224.97853	8555.6375
3227.2713	8545.0375
3229.56269	8523.0375
3231.8527	8523.9375
3234.14133	8518.4375
3236.42858	8500.3375
3238.71446	8494.3375
3240.99896	8486.0375
3243.28209	8489.6375
3245.56384	8490.2375
3247.84423	8478.9375
3250.12324	8461.1375
3252.40088	8428.9375
3254.67715	8426.2375
3256.95205	8417.8375
3259.22558	8408.6375
3261.49775	8384.0375
3263.76855	8373.9375
3266.03799	8347.2375
3268.30606	8355.8375
3270.57277	8322.9375
3272.83812	8309.1375
3275.10211	8309.7375
3277.36474	8282.8375
3279.62601	8291.9375
3281.88593	8262.6375
3284.14448	8312.2375
3286.40168	8294.2375
3288.65753	8294.0375
3290.91202	8281.7375
3293.16516	8261.1375
3295.41695	8219.6375
3297.66738	8185.9375
3299.91647	8150.0375
3302.16421	8073.8375
3304.4106	8061.5375
3306.65564	7990.9375
3308.89933	7954.7375
3311.14169	7897.1375
3313.38269	7862.0375
3315.62236	7819.1375
3317.86068	7750.3375
3320.09766	7670.5375
3322.3333	7582.9375
3324.5676	7596.4375
3326.80056	7484.4375
3329.03219	7442.7375
3331.26248	1.9375
3333.49143	-0.6625
3335.71905	-1.6625
