Data from AgNPs_FTO_APTES_UA_2uM_CRN_500uM_R6G_10uM_NaF_0.1M_Addition_RamanShift__7__17-06-45-403.txt Node

Date: Wed Feb 02 17:06:45 GMT 2022
User: TCL
Spectrometer: QEP01345
Trigger mode: 4
Integration Time (sec): 7.000000E0
Scans to average: 10
Electric dark correction enabled: true
Nonlinearity correction enabled: false
Boxcar width: 0
XAxis mode: Raman Shifts
Number of Pixels in Spectrum: 1044
>>>>>Begin Spectral Data<<<<<
46.04893	0.4875
50.45542	0.5875
54.85868	-1.3125
59.25871	-0.6125
63.6555	61.9875
68.04907	68.8875
72.43941	70.3875
76.82654	78.9875
81.21044	78.5875
85.59113	83.1875
89.96862	87.2875
94.34289	87.6875
98.71396	89.8875
103.08183	97.8875
107.4465	98.2875
111.80798	100.6875
116.16626	98.0875
120.52136	104.6875
124.87327	108.3875
129.222	112.3875
133.56755	119.5875
137.90993	123.7875
142.24913	141.3875
146.58517	162.9875
150.91804	182.0875
155.24774	218.1875
159.57429	270.0875
163.89768	347.6875
168.21792	454.4875
172.53501	619.7875
176.84895	858.4875
181.15975	1212.1875
185.46741	1693.0875
189.77193	2334.3875
194.07331	3111.9875
198.37157	4008.2875
202.6667	4931.3875
206.9587	5852.9875
211.24758	6776.4875
215.53334	7733.2875
219.81599	8685.8875
224.09553	9772.2875
228.37195	10896.6875
232.64527	12167.5875
236.91549	13460.9875
241.18261	14762.4875
245.44663	15977.5875
249.70755	17157.5875
253.96539	18141.4875
258.22014	18980.1875
262.4718	19683.3875
266.72039	20169.6875
270.96589	20431.4875
275.20832	20548.3875
279.44768	20464.4875
283.68397	20396.9875
287.91719	20299.0875
292.14735	20235.7875
296.37445	20312.5875
300.59849	20391.8875
304.81948	20527.9875
309.03742	20466.4875
313.25231	20196.4875
317.46415	19692.6875
321.67296	19183.2875
325.87872	18695.2875
330.08145	18399.0875
334.28114	18288.0875
338.47781	18281.3875
342.67145	18417.1875
346.86207	18635.4875
351.04966	18852.8875
355.23424	19148.4875
359.4158	19411.7875
363.59435	19603.2875
367.76989	19684.2875
371.94243	19789.6875
376.11196	19782.3875
380.27849	19816.1875
384.44203	19954.1875
388.60257	20177.4875
392.76012	20458.6875
396.91468	20770.7875
401.06626	21080.6875
405.21485	21325.1875
409.36047	21263.6875
413.50311	21050.6875
417.64277	20994.2875
421.77947	21059.2875
425.9132	21226.6875
430.04396	21355.4875
434.17176	21510.5875
438.2966	21650.8875
442.41849	21974.8875
446.53742	22577.0875
450.6534	23340.5875
454.76644	23823.0875
458.87653	24054.5875
462.98368	23949.4875
467.08789	23729.8875
471.18916	23529.7875
475.2875	23445.1875
479.38291	23575.1875
483.4754	23628.3875
487.56496	23240.0875
491.6516	22559.3875
495.73531	21799.8875
499.81612	21275.4875
503.89401	21213.5875
507.96899	21276.9875
512.04106	21136.3875
516.11023	20901.6875
520.1765	20527.9875
524.23987	20184.4875
528.30034	19932.2875
532.35792	19738.6875
536.41261	19524.3875
540.46441	19313.5875
544.51333	19383.5875
548.55936	19768.9875
552.60252	20331.6875
556.64279	21009.7875
560.6802	21654.6875
564.71473	22155.4875
568.7464	22827.8875
572.7752	23923.1875
576.80114	25023.9875
580.82422	25911.3875
584.84444	26836.8875
588.86181	28042.3875
592.87633	28927.2875
596.888	28249.4875
600.89682	26380.6875
604.9028	25246.5875
608.90594	25612.3875
612.90624	26209.5875
616.90371	24400.4875
620.89834	21024.4875
624.89015	19534.4875
628.87913	19431.6875
632.86528	19613.9875
636.84862	19598.0875
640.82913	19254.1875
644.80683	18847.3875
648.78172	18513.5875
652.75379	18473.4875
656.72306	18614.2875
660.68952	18761.3875
664.65319	18570.6875
668.61405	18296.0875
672.57211	18265.5875
676.52738	18383.9875
680.47986	18440.6875
684.42955	18351.3875
688.37646	18266.9875
692.32058	18310.6875
696.26192	18567.0875
700.20048	18858.5875
704.13626	19075.3875
708.06928	19174.5875
711.99952	19225.4875
715.927	19215.6875
719.85171	19220.2875
723.77365	19073.9875
727.69284	18775.6875
731.60928	18491.6875
735.52295	18389.5875
739.43388	18325.0875
743.34206	18360.1875
747.24749	18486.3875
751.15017	18771.1875
755.05012	19234.5875
758.94733	19893.9875
762.8418	20888.6875
766.73354	22220.8875
770.62254	23208.4875
774.50882	23098.4875
778.39237	21923.1875
782.27321	20418.4875
786.15132	19262.9875
790.02671	18523.3875
793.89938	18200.6875
797.76935	18080.3875
801.6366	18023.2875
805.50115	18014.9875
809.36299	17913.9875
813.22213	17831.6875
817.07857	17797.8875
820.93231	17776.0875
824.78336	17529.8875
828.63172	17340.1875
832.47738	17230.0875
836.32036	17183.1875
840.16066	17161.8875
843.99827	17139.2875
847.8332	17131.5875
851.66546	17079.7875
855.49504	17120.6875
859.32195	17080.8875
863.1462	17024.0875
866.96777	16971.5875
870.78668	16911.0875
874.60293	16935.4875
878.41652	16924.4875
882.22745	16951.2875
886.03573	17000.5875
889.84136	17042.2875
893.64433	16944.4875
897.44466	16876.9875
901.24235	16844.5875
905.0374	16784.0875
908.8298	16763.8875
912.61957	16852.1875
916.40671	17130.2875
920.19121	17485.6875
923.97308	17665.9875
927.75233	17582.0875
931.52895	17228.6875
935.30295	16797.5875
939.07433	16414.8875
942.84309	16134.5875
946.60924	15967.0875
950.37278	15946.1875
954.13371	15954.5875
957.89203	16022.1875
961.64774	16060.2875
965.40086	16019.5875
969.15137	15902.6875
972.89929	15773.9875
976.64461	15579.2875
980.38733	15485.4875
984.12747	15452.1875
987.86502	15487.7875
991.59999	15584.2875
995.33237	15669.2875
999.06217	15886.1875
1002.78939	16191.1875
1006.51404	16480.7875
1010.23611	16831.0875
1013.95561	17072.8875
1017.67255	17159.8875
1021.38692	16991.5875
1025.09872	16696.3875
1028.80796	16358.1875
1032.51465	16267.5875
1036.21877	16254.5875
1039.92035	16365.6875
1043.61937	16471.3875
1047.31584	16554.8875
1051.00976	16635.9875
1054.70114	16796.5875
1058.38998	16951.7875
1062.07627	17226.2875
1065.76003	17527.1875
1069.44126	17771.1875
1073.11995	18058.0875
1076.79611	18252.2875
1080.46974	18305.3875
1084.14085	18356.7875
1087.80943	18499.6875
1091.47549	18787.5875
1095.13903	18966.2875
1098.80005	18804.3875
1102.45857	18271.0875
1106.11456	17782.7875
1109.76805	17497.1875
1113.41903	17434.2875
1117.06751	17564.4875
1120.71348	17773.0875
1124.35696	18053.1875
1127.99793	18347.8875
1131.63641	18574.0875
1135.2724	18572.9875
1138.90589	18616.5875
1142.5369	18819.8875
1146.16542	19154.5875
1149.79145	19627.8875
1153.415	20107.5875
1157.03607	20640.0875
1160.65467	21555.2875
1164.27079	22913.7875
1167.88443	24432.2875
1171.49561	25916.6875
1175.10432	27562.9875
1178.71056	29537.2875
1182.31434	31423.7875
1185.91565	32152.1875
1189.51451	31793.3875
1193.11091	30974.0875
1196.70485	30052.5875
1200.29634	29164.8875
1203.88538	28699.9875
1207.47197	28787.1875
1211.05612	28860.5875
1214.63782	28349.4875
1218.21708	27166.3875
1221.79391	25830.8875
1225.36829	24792.7875
1228.94024	24128.6875
1232.50976	23668.0875
1236.07685	23219.7875
1239.6415	22969.9875
1243.20374	23005.7875
1246.76355	23257.6875
1250.32093	23611.4875
1253.8759	24162.7875
1257.42845	24838.4875
1260.97859	25627.4875
1264.52631	26397.3875
1268.07163	27158.9875
1271.61453	28039.8875
1275.15503	28993.0875
1278.69312	30165.9875
1282.22882	31611.9875
1285.76211	33388.5875
1289.29301	35503.5875
1292.82151	38037.4875
1296.34761	41081.6875
1299.87133	44160.4875
1303.39266	46843.8875
1306.9116	48633.4875
1310.42815	49661.1875
1313.94233	50134.7875
1317.45412	49862.5875
1320.96354	49406.4875
1324.47058	49223.1875
1327.97525	49127.7875
1331.47754	49088.0875
1334.97747	48707.6875
1338.47502	47956.6875
1341.97022	46661.9875
1345.46305	45217.8875
1348.95352	43937.8875
1352.44163	43226.5875
1355.92738	43548.1875
1359.41078	44636.3875
1362.89183	45392.3875
1366.37053	44528.0875
1369.84688	41467.0875
1373.32088	37278.7875
1376.79254	34454.4875
1380.26186	33927.2875
1383.72883	34755.9875
1387.19347	35397.0875
1390.65578	35583.2875
1394.11575	35862.5875
1397.57339	36595.2875
1401.0287	37527.9875
1404.48168	37980.2875
1407.93234	37517.3875
1411.38068	36016.2875
1414.82669	33923.6875
1418.27039	31685.5875
1421.71177	29577.6875
1425.15083	27938.9875
1428.58758	27114.3875
1432.02203	27428.5875
1435.45416	28439.3875
1438.88399	29826.3875
1442.31151	30907.3875
1445.73673	31554.1875
1449.15965	32180.2875
1452.58027	32540.3875
1455.9986	32689.9875
1459.41463	32854.5875
1462.82837	33173.5875
1466.23982	33553.0875
1469.64898	33946.5875
1473.05586	34103.9875
1476.46045	33953.9875
1479.86276	33450.8875
1483.26279	32792.8875
1486.66054	32314.2875
1490.05602	32253.9875
1493.44922	32293.8875
1496.84016	32548.2875
1500.22882	32821.3875
1503.61521	33380.1875
1506.99934	33981.6875
1510.38121	34588.1875
1513.76081	34811.9875
1517.13816	34731.0875
1520.51324	34581.2875
1523.88607	34747.7875
1527.25665	35299.0875
1530.62498	35727.5875
1533.99105	35810.6875
1537.35488	35223.8875
1540.71647	34045.3875
1544.07581	32561.8875
1547.4329	31127.7875
1550.78776	29914.3875
1554.14038	28991.9875
1557.49077	28507.8875
1560.83892	28264.0875
1564.18484	28149.4875
1567.52853	28265.0875
1570.86999	28759.1875
1574.20922	29760.5875
1577.54624	30898.7875
1580.88103	31892.5875
1584.2136	33012.2875
1587.54395	34492.2875
1590.87208	36447.3875
1594.19801	38537.4875
1597.52172	40161.6875
1600.84321	40052.5875
1604.16251	37657.5875
1607.47959	33803.3875
1610.79447	29886.9875
1614.10715	26668.2875
1617.41763	24228.7875
1620.7259	22689.6875
1624.03199	22008.9875
1627.33587	22178.4875
1630.63757	23224.5875
1633.93707	25355.3875
1637.23439	28805.6875
1640.52951	33738.1875
1643.82246	39493.8875
1647.11321	43959.2875
1650.40179	44449.2875
1653.68819	40399.1875
1656.97241	33850.2875
1660.25446	27686.8875
1663.53433	23071.5875
1666.81203	20125.2875
1670.08756	18221.7875
1673.36092	17024.4875
1676.63211	16309.7875
1679.90115	15769.2875
1683.16801	15383.9875
1686.43272	15116.1875
1689.69527	14914.8875
1692.95567	14742.4875
1696.2139	14622.6875
1699.46999	14536.3875
1702.72392	14444.2875
1705.97571	14367.9875
1709.22535	14273.2875
1712.47284	14206.9875
1715.71819	14123.6875
1718.96139	14074.7875
1722.20246	13984.3875
1725.44139	13888.7875
1728.67818	13792.8875
1731.91284	13727.6875
1735.14537	13618.9875
1738.37576	13517.4875
1741.60403	13478.1875
1744.83017	13434.0875
1748.05418	13382.2875
1751.27607	13359.5875
1754.49584	13355.2875
1757.71349	13364.0875
1760.92903	13327.3875
1764.14244	13295.8875
1767.35375	13280.3875
1770.56294	13264.7875
1773.77002	13183.9875
1776.97499	13144.6875
1780.17785	13045.0875
1783.37861	13047.1875
1786.57727	13001.8875
1789.77382	12948.2875
1792.96828	12915.8875
1796.16064	12867.9875
1799.3509	12839.1875
1802.53907	12796.9875
1805.72514	12777.3875
1808.90913	12716.1875
1812.09102	12681.9875
1815.27083	12665.4875
1818.44856	12610.8875
1821.6242	12589.1875
1824.79776	12570.4875
1827.96924	12550.0875
1831.13864	12544.3875
1834.30597	12582.0875
1837.47122	12564.5875
1840.6344	12536.1875
1843.7955	12529.2875
1846.95454	12489.8875
1850.11151	12517.9875
1853.26642	12479.2875
1856.41926	12485.3875
1859.57004	12450.6875
1862.71876	12450.1875
1865.86542	12412.5875
1869.01003	12367.7875
1872.15258	12376.1875
1875.29308	12361.3875
1878.43152	12325.2875
1881.56792	12332.5875
1884.70227	12279.9875
1887.83457	12253.9875
1890.96482	12262.3875
1894.09304	12223.9875
1897.21921	12230.3875
1900.34335	12198.7875
1903.46544	12190.3875
1906.58551	12153.3875
1909.70353	12159.8875
1912.81953	12133.2875
1915.93349	12068.5875
1919.04543	12034.8875
1922.15534	11990.9875
1925.26322	11959.1875
1928.36908	11923.6875
1931.47292	11905.4875
1934.57473	11863.2875
1937.67453	11823.5875
1940.77232	11768.4875
1943.86808	11736.0875
1946.96184	11723.6875
1950.05358	11696.4875
1953.14331	11646.4875
1956.23103	11623.0875
1959.31675	11564.7875
1962.40046	11516.3875
1965.48217	11488.1875
1968.56188	11433.2875
1971.63959	11399.0875
1974.7153	11370.9875
1977.78901	11328.6875
1980.86073	11288.8875
1983.93046	11252.1875
1986.99819	11217.8875
1990.06394	11177.9875
1993.1277	11160.5875
1996.18947	11111.6875
1999.24925	11078.9875
2002.30706	11051.9875
2005.36288	10973.0875
2008.41672	10988.1875
2011.46859	10901.2875
2014.51848	10875.8875
2017.56639	10833.5875
2020.61233	10830.2875
2023.6563	10809.2875
2026.6983	10790.1875
2029.73833	10776.0875
2032.7764	10733.3875
2035.8125	10718.1875
2038.84664	10686.0875
2041.87881	10651.4875
2044.90903	10608.4875
2047.93729	10607.8875
2050.96359	10604.9875
2053.98794	10594.0875
2057.01034	10589.7875
2060.03078	10565.8875
2063.04927	10550.9875
2066.06582	10547.0875
2069.08042	10507.6875
2072.09307	10501.1875
2075.10378	10505.5875
2078.11255	10496.9875
2081.11938	10492.9875
2084.12426	10482.0875
2087.12722	10463.7875
2090.12824	10467.5875
2093.12732	10462.4875
2096.12447	10455.2875
2099.11969	10459.1875
2102.11299	10464.2875
2105.10435	10416.6875
2108.09379	10440.9875
2111.08131	10455.8875
2114.0669	10449.9875
2117.05057	10459.1875
2120.03233	10449.0875
2123.01216	10444.2875
2125.99008	10430.7875
2128.96609	10421.0875
2131.94018	10437.1875
2134.91236	10407.8875
2137.88263	10407.2875
2140.851	10403.5875
2143.81746	10431.9875
2146.78201	10421.0875
2149.74466	10390.0875
2152.7054	10388.4875
2155.66425	10365.7875
2158.6212	10371.0875
2161.57625	10355.3875
2164.52941	10369.0875
2167.48067	10334.1875
2170.43004	10337.7875
2173.37752	10324.3875
2176.32311	10353.3875
2179.26681	10351.8875
2182.20863	10320.2875
2185.14856	10340.0875
2188.08661	10336.5875
2191.02278	10339.4875
2193.95707	10273.9875
2196.88948	10260.9875
2199.82001	10242.0875
2202.74867	10224.0875
2205.67545	10237.5875
2208.60037	10197.8875
2211.52341	10190.9875
2214.44458	10175.0875
2217.36388	10158.8875
2220.28132	10159.6875
2223.1969	10114.4875
2226.11061	10115.7875
2229.02246	10090.9875
2231.93245	10069.3875
2234.84058	10056.6875
2237.74686	10033.3875
2240.65128	10025.0875
2243.55385	9999.8875
2246.45456	9968.9875
2249.35343	9929.6875
2252.25044	9882.6875
2255.14561	9890.7875
2258.03893	9842.1875
2260.93041	9800.6875
2263.82004	9774.8875
2266.70783	9759.2875
2269.59378	9718.9875
2272.4779	9700.1875
2275.36017	9669.7875
2278.24061	9663.4875
2281.11922	9643.7875
2283.996	9609.0875
2286.87094	9611.1875
2289.74405	9580.2875
2292.61534	9559.3875
2295.4848	9557.3875
2298.35243	9551.0875
2301.21824	9533.9875
2304.08223	9504.5875
2306.94439	9488.0875
2309.80474	9495.0875
2312.66327	9492.1875
2315.51999	9481.7875
2318.37489	9465.7875
2321.22797	9439.9875
2324.07925	9430.5875
2326.92871	9417.7875
2329.77637	9418.8875
2332.62222	9416.4875
2335.46626	9389.3875
2338.3085	9359.7875
2341.14893	9387.0875
2343.98756	9360.5875
2346.8244	9346.3875
2349.65943	9336.9875
2352.49267	9336.3875
2355.32411	9340.7875
2358.15376	9324.7875
2360.98161	9322.5875
2363.80768	9331.1875
2366.63195	9286.3875
2369.45444	9298.3875
2372.27514	9282.5875
2375.09405	9269.9875
2377.91118	9246.0875
2380.72652	9246.0875
2383.54009	9194.7875
2386.35187	9204.2875
2389.16188	9150.5875
2391.97011	9132.5875
2394.77657	9100.4875
2397.58125	9135.6875
2400.38416	9076.4875
2403.18529	9099.7875
2405.98466	9055.1875
2408.78226	9049.4875
2411.57809	9051.7875
2414.37216	9036.9875
2417.16446	9041.3875
2419.955	9032.7875
2422.74378	9001.6875
2425.5308	9004.0875
2428.31606	8999.2875
2431.09956	8981.0875
2433.88131	8968.3875
2436.6613	8953.7875
2439.43954	8962.3875
2442.21603	8931.2875
2444.99077	8938.1875
2447.76377	8940.4875
2450.53501	8938.4875
2453.30451	8920.3875
2456.07226	8945.2875
2458.83827	8923.2875
2461.60254	8930.0875
2464.36507	8910.5875
2467.12586	8932.6875
2469.88492	8889.7875
2472.64224	8901.8875
2475.39782	8908.8875
2478.15167	8899.2875
2480.90379	8895.8875
2483.65417	8894.2875
2486.40283	8908.5875
2489.14976	8903.0875
2491.89497	8897.1875
2494.63845	8904.8875
2497.3802	8867.4875
2500.12024	8881.9875
2502.85855	8877.9875
2505.59514	8885.5875
2508.33002	8857.3875
2511.06318	8862.2875
2513.79462	8848.2875
2516.52435	8831.1875
2519.25237	8842.1875
2521.97867	8813.1875
2524.70327	8821.7875
2527.42616	8791.5875
2530.14734	8771.2875
2532.86681	8777.8875
2535.58458	8769.5875
2538.30065	8774.8875
2541.01501	8748.3875
2543.72768	8726.0875
2546.43864	8725.1875
2549.14791	8710.6875
2551.85548	8699.6875
2554.56136	8704.2875
2557.26554	8701.7875
2559.96803	8682.9875
2562.66883	8667.1875
2565.36794	8691.2875
2568.06536	8692.7875
2570.7611	8688.5875
2573.45514	8649.8875
2576.14751	8658.9875
2578.83819	8646.1875
2581.52719	8649.7875
2584.21451	8635.6875
2586.90015	8638.8875
2589.58411	8613.1875
2592.2664	8626.1875
2594.94701	8623.0875
2597.62594	8592.3875
2600.30321	8614.1875
2602.9788	8623.4875
2605.65273	8602.6875
2608.32498	8604.3875
2610.99557	8590.4875
2613.66449	8611.0875
2616.33175	8608.8875
2618.99734	8602.5875
2621.66128	8601.9875
2624.32355	8579.9875
2626.98416	8595.6875
2629.64311	8576.3875
2632.30041	8570.4875
2634.95605	8558.1875
2637.61004	8560.2875
2640.26238	8537.9875
2642.91306	8539.2875
2645.56209	8549.0875
2648.20948	8541.4875
2650.85521	8539.9875
2653.4993	8527.8875
2656.14175	8532.9875
2658.78255	8560.5875
2661.42171	8573.1875
2664.05923	8574.9875
2666.6951	8553.0875
2669.32934	8552.8875
2671.96194	8579.7875
2674.59291	8562.7875
2677.22224	8556.5875
2679.84993	8569.0875
2682.476	8556.8875
2685.10043	8571.1875
2687.72324	8575.2875
2690.34441	8565.4875
2692.96396	8561.8875
2695.58188	8576.5875
2698.19818	8573.3875
2700.81285	8581.9875
2703.4259	8572.4875
2706.03733	8605.6875
2708.64714	8562.5875
2711.25533	8584.4875
2713.86191	8565.8875
2716.46687	8589.5875
2719.07021	8566.4875
2721.67194	8589.1875
2724.27206	8581.4875
2726.87057	8612.8875
2729.46747	8604.4875
2732.06276	8614.4875
2734.65644	8597.1875
2737.24852	8594.3875
2739.83899	8613.0875
2742.42786	8616.4875
2745.01513	8582.0875
2747.60079	8576.0875
2750.18486	8557.3875
2752.76733	8590.2875
2755.3482	8587.1875
2757.92747	8581.4875
2760.50515	8591.2875
2763.08123	8596.4875
2765.65573	8597.9875
2768.22863	8594.9875
2770.79994	8570.5875
2773.36967	8560.8875
2775.9378	8568.3875
2778.50435	8571.2875
2781.06932	8570.3875
2783.6327	8569.6875
2786.1945	8567.1875
2788.75471	8549.7875
2791.31335	8545.8875
2793.87041	8545.2875
2796.42589	8503.1875
2798.97979	8497.8875
2801.53212	8502.6875
2804.08288	8498.1875
2806.63206	8466.6875
2809.17967	8434.4875
2811.72571	8442.1875
2814.27018	8431.2875
2816.81308	8414.7875
2819.35442	8387.7875
2821.89419	8399.8875
2824.43239	8394.2875
2826.96904	8354.5875
2829.50412	8357.4875
2832.03763	8340.8875
2834.56959	8374.0875
2837.1	8371.5875
2839.62884	8380.0875
2842.15613	8386.5875
2844.68186	8415.7875
2847.20604	8434.3875
2849.72867	8475.7875
2852.24974	8474.7875
2854.76927	8440.8875
2857.28724	8438.6875
2859.80367	8428.4875
2862.31855	8399.1875
2864.83189	8402.4875
2867.34368	8375.8875
2869.85393	8367.9875
2872.36264	8359.1875
2874.8698	8366.8875
2877.37543	8342.1875
2879.87952	8364.9875
2882.38207	8334.0875
2884.88308	8331.0875
2887.38256	8346.4875
2889.88051	8321.9875
2892.37692	8326.3875
2894.8718	8342.8875
2897.36515	8367.0875
2899.85698	8350.6875
2902.34727	8369.4875
2904.83604	8370.6875
2907.32328	8357.3875
2909.809	8399.0875
2912.29319	8400.7875
2914.77587	8393.4875
2917.25702	8369.0875
2919.73665	8365.5875
2922.21476	8380.1875
2924.69136	8369.0875
2927.16644	8376.9875
2929.64	8353.4875
2932.11205	8338.5875
2934.58258	8335.8875
2937.05161	8326.4875
2939.51912	8342.6875
2941.98513	8306.6875
2944.44962	8298.2875
2946.91261	8259.2875
2949.37409	8234.5875
2951.83407	8209.9875
2954.29254	8197.2875
2956.74951	8175.7875
2959.20498	8169.2875
2961.65895	8161.9875
2964.11142	8118.3875
2966.56239	8126.1875
2969.01186	8081.0875
2971.45984	8042.6875
2973.90632	8031.3875
2976.35131	8031.6875
2978.7948	7967.7875
2981.23681	7955.8875
2983.67732	7924.9875
2986.11635	7913.7875
2988.55388	7892.2875
2990.98993	7866.4875
2993.4245	7831.1875
2995.85758	7820.5875
2998.28917	7764.4875
3000.71928	7755.0875
3003.14791	7765.9875
3005.57506	7739.0875
3008.00073	7718.9875
3010.42493	7719.3875
3012.84764	7707.9875
3015.26888	7696.2875
3017.68865	7645.3875
3020.10694	7632.5875
3022.52376	7622.1875
3024.9391	7607.2875
3027.35298	7603.3875
3029.76539	7583.0875
3032.17632	7570.7875
3034.5858	7548.1875
3036.9938	7549.6875
3039.40034	7559.2875
3041.80542	7542.9875
3044.20903	7524.5875
3046.61118	7502.8875
3049.01187	7490.1875
3051.4111	7488.3875
3053.80888	7481.1875
3056.20519	7449.9875
3058.60005	7411.8875
3060.99345	7386.1875
3063.3854	7391.8875
3065.7759	7361.4875
3068.16494	7311.2875
3070.55254	7274.3875
3072.93868	7287.5875
3075.32338	7256.9875
3077.70662	7227.8875
3080.08842	7211.3875
3082.46878	7202.9875
3084.84769	7185.2875
3087.22515	7186.5875
3089.60118	7156.9875
3091.97576	7168.5875
3094.3489	7150.5875
3096.72061	7137.9875
3099.09087	7120.1875
3101.4597	7114.0875
3103.82709	7098.0875
3106.19305	7091.8875
3108.55757	7077.3875
3110.92066	7071.2875
3113.28232	7049.7875
3115.64255	7035.1875
3118.00134	7032.5875
3120.35871	7015.7875
3122.71466	6991.0875
3125.06917	6980.4875
3127.42226	6971.6875
3129.77393	6950.8875
3132.12417	6958.3875
3134.47299	6943.3875
3136.82039	6939.7875
3139.16636	6943.4875
3141.51092	6944.4875
3143.85406	6924.9875
3146.19579	6936.7875
3148.53609	6929.2875
3150.87499	6917.1875
3153.21246	6926.2875
3155.54853	6918.9875
3157.88318	6922.9875
3160.21642	6903.6875
3162.54826	6910.6875
3164.87868	6908.0875
3167.2077	6899.6875
3169.5353	6883.2875
3171.86151	6889.7875
3174.18631	6888.9875
3176.5097	6872.2875
3178.83169	6863.3875
3181.15228	6868.5875
3183.47147	6851.9875
3185.78926	6848.3875
3188.10565	6841.0875
3190.42065	6833.1875
3192.73424	6834.1875
3195.04645	6806.9875
3197.35725	6822.1875
3199.66667	6816.9875
3201.97469	6816.6875
3204.28132	6816.5875
3206.58656	6816.7875
3208.8904	6830.1875
3211.19287	6789.7875
3213.49394	6790.7875
3215.79363	6782.2875
3218.09193	6780.8875
3220.38884	6792.0875
3222.68438	6778.3875
3224.97853	6794.6875
3227.2713	6770.9875
3229.56269	6788.9875
3231.8527	6747.2875
3234.14133	6740.5875
3236.42858	6747.2875
3238.71446	6739.1875
3240.99896	6724.6875
3243.28209	6709.7875
3245.56384	6704.8875
3247.84423	6717.7875
3250.12324	6684.4875
3252.40088	6673.2875
3254.67715	6659.2875
3256.95205	6630.6875
3259.22558	6603.2875
3261.49775	6622.1875
3263.76855	6582.1875
3266.03799	6556.5875
3268.30606	6544.3875
3270.57277	6533.5875
3272.83812	6512.7875
3275.10211	6513.4875
3277.36474	6509.4875
3279.62601	6493.5875
3281.88593	6494.1875
3284.14448	6523.7875
3286.40168	6491.9875
3288.65753	6495.4875
3290.91202	6491.2875
3293.16516	6474.0875
3295.41695	6454.7875
3297.66738	6422.3875
3299.91647	6365.4875
3302.16421	6334.3875
3304.4106	6328.8875
3306.65564	6270.4875
3308.89933	6210.5875
3311.14169	6173.6875
3313.38269	6115.3875
3315.62236	6063.9875
3317.86068	6014.1875
3320.09766	5948.5875
3322.3333	5891.3875
3324.5676	5891.8875
3326.80056	5802.6875
3329.03219	5754.2875
3331.26248	1.3875
3333.49143	-0.0125
3335.71905	-1.5125
