Data from AgNPs_FTO_APTES_UA_2uM_CRN_5uM_R6G_10uM_NaF_0.1M_Addition_RamanShift__12__12-52-25-106.txt Node

Date: Wed Feb 02 12:52:25 GMT 2022
User: TCL
Spectrometer: QEP01345
Trigger mode: 4
Integration Time (sec): 7.000000E0
Scans to average: 10
Electric dark correction enabled: true
Nonlinearity correction enabled: false
Boxcar width: 0
XAxis mode: Raman Shifts
Number of Pixels in Spectrum: 1044
>>>>>Begin Spectral Data<<<<<
46.04893	1.0875
50.45542	-0.3125
54.85868	-1.7125
59.25871	-0.9125
63.6555	95.1875
68.04907	97.7875
72.43941	98.3875
76.82654	108.7875
81.21044	112.9875
85.59113	113.5875
89.96862	112.4875
94.34289	120.1875
98.71396	123.8875
103.08183	133.5875
107.4465	132.4875
111.80798	140.0875
116.16626	142.2875
120.52136	149.8875
124.87327	160.0875
129.222	168.9875
133.56755	180.7875
137.90993	201.6875
142.24913	225.7875
146.58517	259.9875
150.91804	301.9875
155.24774	372.4875
159.57429	467.8875
163.89768	612.7875
168.21792	812.6875
172.53501	1126.4875
176.84895	1582.6875
181.15975	2220.2875
185.46741	3145.1875
189.77193	4317.4875
194.07331	5797.6875
198.37157	7488.9875
202.6667	9246.6875
206.9587	11029.3875
211.24758	12699.2875
215.53334	14429.0875
219.81599	16229.4875
224.09553	18190.7875
228.37195	20364.0875
232.64527	22762.9875
236.91549	25297.8875
241.18261	27887.9875
245.44663	30326.6875
249.70755	32529.5875
253.96539	34466.7875
258.22014	36094.6875
262.4718	37448.0875
266.72039	38319.1875
270.96589	38767.4875
275.20832	38826.7875
279.44768	38690.5875
283.68397	38365.5875
287.91719	38072.7875
292.14735	37879.1875
296.37445	37828.7875
300.59849	37790.0875
304.81948	37814.8875
309.03742	37727.0875
313.25231	37517.9875
317.46415	36946.8875
321.67296	36223.3875
325.87872	35548.4875
330.08145	35192.0875
334.28114	35135.1875
338.47781	35275.5875
342.67145	35583.4875
346.86207	36031.0875
351.04966	36472.1875
355.23424	36978.3875
359.4158	37442.3875
363.59435	37787.8875
367.76989	38080.3875
371.94243	38283.3875
376.11196	38340.0875
380.27849	38347.0875
384.44203	38426.8875
388.60257	38692.7875
392.76012	39142.0875
396.91468	39793.1875
401.06626	40444.3875
405.21485	40860.3875
409.36047	40741.5875
413.50311	40223.8875
417.64277	40065.3875
421.77947	40246.0875
425.9132	40458.7875
430.04396	40703.1875
434.17176	40864.0875
438.2966	41030.7875
442.41849	41336.0875
446.53742	41977.6875
450.6534	42825.6875
454.76644	43393.3875
458.87653	43675.9875
462.98368	43687.0875
467.08789	43499.5875
471.18916	43210.3875
475.2875	42761.9875
479.38291	42661.9875
483.4754	42505.3875
487.56496	42325.3875
491.6516	41837.8875
495.73531	41308.9875
499.81612	40925.3875
503.89401	40980.2875
507.96899	41213.3875
512.04106	41340.8875
516.11023	41126.0875
520.1765	40684.4875
524.23987	40157.2875
528.30034	39707.1875
532.35792	39335.5875
536.41261	39024.3875
540.46441	38730.0875
544.51333	38765.6875
548.55936	39245.0875
552.60252	40007.8875
556.64279	40736.8875
560.6802	41403.4875
564.71473	41865.9875
568.7464	42721.9875
572.7752	44159.7875
576.80114	45879.0875
580.82422	47554.8875
584.84444	48990.5875
588.86181	50380.0875
592.87633	51634.8875
596.888	51280.8875
600.89682	49256.6875
604.9028	48206.6875
608.90594	49632.7875
612.90624	51141.0875
616.90371	48076.7875
620.89834	42549.1875
624.89015	40209.8875
628.87913	40223.3875
632.86528	40678.9875
636.84862	40655.3875
640.82913	39939.7875
644.80683	38982.0875
648.78172	38308.4875
652.75379	38224.9875
656.72306	38513.6875
660.68952	38938.0875
664.65319	38800.9875
668.61405	38370.2875
672.57211	38280.0875
676.52738	38390.6875
680.47986	38380.3875
684.42955	38170.6875
688.37646	38104.7875
692.32058	38207.2875
696.26192	38652.5875
700.20048	39063.5875
704.13626	39382.5875
708.06928	39641.6875
711.99952	39519.3875
715.927	39388.9875
719.85171	39246.0875
723.77365	38958.4875
727.69284	38418.2875
731.60928	37942.7875
735.52295	37631.5875
739.43388	37605.3875
743.34206	37706.1875
747.24749	37923.0875
751.15017	38347.4875
755.05012	39002.0875
758.94733	40078.0875
762.8418	41698.9875
766.73354	44008.6875
770.62254	45972.8875
774.50882	45950.7875
778.39237	44058.1875
782.27321	41811.9875
786.15132	39966.1875
790.02671	38685.8875
793.89938	38006.7875
797.76935	37602.5875
801.6366	37424.6875
805.50115	37308.1875
809.36299	37158.6875
813.22213	36918.9875
817.07857	36875.5875
820.93231	36813.6875
824.78336	36715.3875
828.63172	36479.4875
832.47738	36306.9875
836.32036	36298.8875
840.16066	36279.6875
843.99827	36206.7875
847.8332	36191.9875
851.66546	36266.8875
855.49504	36347.2875
859.32195	36347.2875
863.1462	36258.8875
866.96777	36193.2875
870.78668	36211.3875
874.60293	36195.1875
878.41652	36278.9875
882.22745	36313.8875
886.03573	36395.8875
889.84136	36484.1875
893.64433	36379.4875
897.44466	36285.3875
901.24235	36237.6875
905.0374	36212.4875
908.8298	36173.0875
912.61957	36317.1875
916.40671	36691.9875
920.19121	37217.0875
923.97308	37589.3875
927.75233	37495.6875
931.52895	37048.2875
935.30295	36399.6875
939.07433	35769.2875
942.84309	35268.5875
946.60924	34976.8875
950.37278	34808.9875
954.13371	34759.4875
957.89203	34746.2875
961.64774	34794.6875
965.40086	34792.8875
969.15137	34686.8875
972.89929	34521.2875
976.64461	34330.3875
980.38733	34291.4875
984.12747	34266.7875
987.86502	34312.6875
991.59999	34429.9875
995.33237	34561.4875
999.06217	34911.6875
1002.78939	35373.4875
1006.51404	36019.5875
1010.23611	36646.8875
1013.95561	37004.9875
1017.67255	37018.0875
1021.38692	36709.5875
1025.09872	36259.5875
1028.80796	35767.2875
1032.51465	35582.3875
1036.21877	35596.7875
1039.92035	35773.5875
1043.61937	35949.5875
1047.31584	36101.6875
1051.00976	36280.9875
1054.70114	36480.8875
1058.38998	36778.8875
1062.07627	37189.3875
1065.76003	37742.1875
1069.44126	38327.8875
1073.11995	38928.9875
1076.79611	39414.6875
1080.46974	39605.4875
1084.14085	39781.1875
1087.80943	40080.8875
1091.47549	40462.4875
1095.13903	40660.5875
1098.80005	40322.1875
1102.45857	39454.7875
1106.11456	38555.0875
1109.76805	37999.6875
1113.41903	37769.1875
1117.06751	37723.3875
1120.71348	37949.8875
1124.35696	38288.9875
1127.99793	38704.6875
1131.63641	39024.0875
1135.2724	39037.9875
1138.90589	38986.3875
1142.5369	39128.0875
1146.16542	39527.3875
1149.79145	39949.2875
1153.415	40375.9875
1157.03607	40956.0875
1160.65467	41964.7875
1164.27079	43555.5875
1167.88443	45525.7875
1171.49561	47632.8875
1175.10432	50070.1875
1178.71056	52910.9875
1182.31434	55725.0875
1185.91565	57415.8875
1189.51451	58007.1875
1193.11091	57528.0875
1196.70485	56162.6875
1200.29634	54262.7875
1203.88538	52757.1875
1207.47197	52123.3875
1211.05612	51940.1875
1214.63782	51371.2875
1218.21708	50047.9875
1221.79391	48332.9875
1225.36829	46893.0875
1228.94024	45954.5875
1232.50976	45528.2875
1236.07685	45223.3875
1239.6415	45067.5875
1243.20374	45120.9875
1246.76355	45331.8875
1250.32093	45786.9875
1253.8759	46639.9875
1257.42845	47885.7875
1260.97859	49246.2875
1264.52631	50637.7875
1268.07163	51940.0875
1271.61453	53256.4875
1275.15503	54685.2875
1278.69312	56172.9875
1282.22882	57868.9875
1285.76211	59874.4875
1289.29301	62061.4875
1292.82151	64589.0875
1296.34761	67334.7875
1299.87133	70464.9875
1303.39266	73407.4875
1306.9116	75818.4875
1310.42815	77415.3875
1313.94233	77814.3875
1317.45412	77556.4875
1320.96354	77273.5875
1324.47058	77449.0875
1327.97525	77806.1875
1331.47754	78090.2875
1334.97747	78209.8875
1338.47502	78127.6875
1341.97022	77997.2875
1345.46305	77706.8875
1348.95352	76877.4875
1352.44163	75666.1875
1355.92738	74922.9875
1359.41078	75075.5875
1362.89183	75487.4875
1366.37053	74283.1875
1369.84688	70298.5875
1373.32088	64766.8875
1376.79254	60630.1875
1380.26186	59028.6875
1383.72883	59078.1875
1387.19347	59221.5875
1390.65578	58741.8875
1394.11575	58356.1875
1397.57339	58584.1875
1401.0287	59092.6875
1404.48168	59534.5875
1407.93234	59031.4875
1411.38068	57560.8875
1414.82669	55582.8875
1418.27039	53361.1875
1421.71177	51274.5875
1425.15083	49845.4875
1428.58758	49212.9875
1432.02203	49531.8875
1435.45416	50718.2875
1438.88399	51969.3875
1442.31151	53119.6875
1445.73673	53824.9875
1449.15965	54395.2875
1452.58027	54861.8875
1455.9986	55092.9875
1459.41463	55586.1875
1462.82837	56404.7875
1466.23982	57199.7875
1469.64898	57779.3875
1473.05586	58090.0875
1476.46045	58058.8875
1479.86276	57648.7875
1483.26279	57285.7875
1486.66054	57119.5875
1490.05602	57416.0875
1493.44922	58273.0875
1496.84016	59386.5875
1500.22882	60714.1875
1503.61521	62149.1875
1506.99934	63464.1875
1510.38121	64477.9875
1513.76081	64656.8875
1517.13816	64244.4875
1520.51324	63682.4875
1523.88607	63485.7875
1527.25665	63532.3875
1530.62498	63480.9875
1533.99105	62769.2875
1537.35488	61557.2875
1540.71647	59765.9875
1544.07581	57788.1875
1547.4329	55969.9875
1550.78776	54539.0875
1554.14038	53612.1875
1557.49077	53152.6875
1560.83892	52969.5875
1564.18484	52849.8875
1567.52853	52960.0875
1570.86999	53262.7875
1574.20922	54206.5875
1577.54624	55326.1875
1580.88103	55956.0875
1584.2136	56652.8875
1587.54395	58052.7875
1590.87208	60205.8875
1594.19801	62693.1875
1597.52172	64642.7875
1600.84321	64418.8875
1604.16251	61370.0875
1607.47959	57154.5875
1610.79447	53029.3875
1614.10715	49154.3875
1617.41763	45920.4875
1620.7259	43541.5875
1624.03199	42311.2875
1627.33587	42265.8875
1630.63757	43397.1875
1633.93707	46054.9875
1637.23439	50458.6875
1640.52951	56969.5875
1643.82246	64524.8875
1647.11321	70209.4875
1650.40179	71259.8875
1653.68819	66480.0875
1656.97241	58275.3875
1660.25446	50180.2875
1663.53433	43952.8875
1666.81203	39751.3875
1670.08756	37044.1875
1673.36092	35341.3875
1676.63211	34277.4875
1679.90115	33493.5875
1683.16801	32868.8875
1686.43272	32436.1875
1689.69527	32133.0875
1692.95567	31856.5875
1696.2139	31658.6875
1699.46999	31589.5875
1702.72392	31429.7875
1705.97571	31223.5875
1709.22535	31168.8875
1712.47284	31066.6875
1715.71819	31077.9875
1718.96139	30902.8875
1722.20246	30803.5875
1725.44139	30630.0875
1728.67818	30490.6875
1731.91284	30308.5875
1735.14537	30143.4875
1738.37576	30033.2875
1741.60403	29902.5875
1744.83017	29770.7875
1748.05418	29738.7875
1751.27607	29667.0875
1754.49584	29599.9875
1757.71349	29589.4875
1760.92903	29530.7875
1764.14244	29487.2875
1767.35375	29447.7875
1770.56294	29359.8875
1773.77002	29259.7875
1776.97499	29219.4875
1780.17785	29144.1875
1783.37861	29117.8875
1786.57727	29021.8875
1789.77382	28960.1875
1792.96828	28897.9875
1796.16064	28799.7875
1799.3509	28736.7875
1802.53907	28650.6875
1805.72514	28587.6875
1808.90913	28544.6875
1812.09102	28487.8875
1815.27083	28437.0875
1818.44856	28432.6875
1821.6242	28339.0875
1824.79776	28342.5875
1827.96924	28352.2875
1831.13864	28408.0875
1834.30597	28350.5875
1837.47122	28333.6875
1840.6344	28299.4875
1843.7955	28340.6875
1846.95454	28309.1875
1850.11151	28308.4875
1853.26642	28262.5875
1856.41926	28231.3875
1859.57004	28231.8875
1862.71876	28174.3875
1865.86542	28127.8875
1869.01003	28116.2875
1872.15258	28029.8875
1875.29308	28001.7875
1878.43152	27910.9875
1881.56792	27852.3875
1884.70227	27803.6875
1887.83457	27775.1875
1890.96482	27719.6875
1894.09304	27646.6875
1897.21921	27660.5875
1900.34335	27587.4875
1903.46544	27507.2875
1906.58551	27475.6875
1909.70353	27405.8875
1912.81953	27331.3875
1915.93349	27234.5875
1919.04543	27191.8875
1922.15534	27112.5875
1925.26322	27069.1875
1928.36908	26984.5875
1931.47292	26905.8875
1934.57473	26861.8875
1937.67453	26688.1875
1940.77232	26614.1875
1943.86808	26538.1875
1946.96184	26500.5875
1950.05358	26455.0875
1953.14331	26292.5875
1956.23103	26243.8875
1959.31675	26181.8875
1962.40046	26070.4875
1965.48217	26020.0875
1968.56188	25912.7875
1971.63959	25811.5875
1974.7153	25741.4875
1977.78901	25646.9875
1980.86073	25625.2875
1983.93046	25497.0875
1986.99819	25358.1875
1990.06394	25267.2875
1993.1277	25203.2875
1996.18947	25134.3875
1999.24925	25067.8875
2002.30706	24971.1875
2005.36288	24931.3875
2008.41672	24832.5875
2011.46859	24762.0875
2014.51848	24681.5875
2017.56639	24617.1875
2020.61233	24565.0875
2023.6563	24515.5875
2026.6983	24446.2875
2029.73833	24393.0875
2032.7764	24310.1875
2035.8125	24238.0875
2038.84664	24211.6875
2041.87881	24125.6875
2044.90903	24102.1875
2047.93729	24059.0875
2050.96359	23990.2875
2053.98794	23905.4875
2057.01034	23874.1875
2060.03078	23911.4875
2063.04927	23856.6875
2066.06582	23840.7875
2069.08042	23834.5875
2072.09307	23779.4875
2075.10378	23768.8875
2078.11255	23813.1875
2081.11938	23832.8875
2084.12426	23744.7875
2087.12722	23729.9875
2090.12824	23698.0875
2093.12732	23713.5875
2096.12447	23674.1875
2099.11969	23743.7875
2102.11299	23754.0875
2105.10435	23746.6875
2108.09379	23724.5875
2111.08131	23749.1875
2114.0669	23700.4875
2117.05057	23716.2875
2120.03233	23700.0875
2123.01216	23731.5875
2125.99008	23740.8875
2128.96609	23693.3875
2131.94018	23720.6875
2134.91236	23719.9875
2137.88263	23656.3875
2140.851	23680.3875
2143.81746	23702.9875
2146.78201	23677.1875
2149.74466	23661.6875
2152.7054	23655.7875
2155.66425	23624.1875
2158.6212	23643.3875
2161.57625	23671.7875
2164.52941	23622.0875
2167.48067	23626.0875
2170.43004	23578.8875
2173.37752	23556.6875
2176.32311	23557.2875
2179.26681	23605.1875
2182.20863	23602.3875
2185.14856	23577.9875
2188.08661	23571.6875
2191.02278	23565.5875
2193.95707	23499.6875
2196.88948	23459.8875
2199.82001	23461.3875
2202.74867	23387.8875
2205.67545	23426.2875
2208.60037	23325.1875
2211.52341	23295.1875
2214.44458	23281.6875
2217.36388	23225.9875
2220.28132	23192.2875
2223.1969	23134.1875
2226.11061	23096.7875
2229.02246	23069.2875
2231.93245	23019.1875
2234.84058	23029.0875
2237.74686	23012.0875
2240.65128	22960.6875
2243.55385	22846.8875
2246.45456	22819.9875
2249.35343	22813.4875
2252.25044	22731.3875
2255.14561	22662.1875
2258.03893	22600.8875
2260.93041	22516.7875
2263.82004	22454.4875
2266.70783	22391.1875
2269.59378	22334.6875
2272.4779	22289.8875
2275.36017	22212.2875
2278.24061	22154.8875
2281.11922	22125.7875
2283.996	22079.5875
2286.87094	22043.3875
2289.74405	21978.6875
2292.61534	21975.2875
2295.4848	21955.4875
2298.35243	21943.0875
2301.21824	21839.9875
2304.08223	21840.1875
2306.94439	21865.2875
2309.80474	21843.3875
2312.66327	21807.4875
2315.51999	21775.0875
2318.37489	21780.1875
2321.22797	21744.7875
2324.07925	21712.5875
2326.92871	21646.2875
2329.77637	21644.9875
2332.62222	21617.2875
2335.46626	21571.7875
2338.3085	21528.4875
2341.14893	21472.6875
2343.98756	21485.8875
2346.8244	21454.6875
2349.65943	21458.9875
2352.49267	21439.7875
2355.32411	21459.1875
2358.15376	21472.4875
2360.98161	21472.4875
2363.80768	21463.3875
2366.63195	21430.8875
2369.45444	21378.8875
2372.27514	21367.9875
2375.09405	21278.1875
2377.91118	21254.4875
2380.72652	21193.1875
2383.54009	21173.2875
2386.35187	21127.6875
2389.16188	21089.1875
2391.97011	21039.9875
2394.77657	20992.8875
2397.58125	20936.6875
2400.38416	20895.5875
2403.18529	20860.1875
2405.98466	20832.9875
2408.78226	20832.3875
2411.57809	20802.4875
2414.37216	20752.8875
2417.16446	20760.3875
2419.955	20775.6875
2422.74378	20727.5875
2425.5308	20695.0875
2428.31606	20719.1875
2431.09956	20706.8875
2433.88131	20628.8875
2436.6613	20644.9875
2439.43954	20607.9875
2442.21603	20564.6875
2444.99077	20561.7875
2447.76377	20538.8875
2450.53501	20524.6875
2453.30451	20480.8875
2456.07226	20492.0875
2458.83827	20452.4875
2461.60254	20431.9875
2464.36507	20410.6875
2467.12586	20396.8875
2469.88492	20385.7875
2472.64224	20396.0875
2475.39782	20398.8875
2478.15167	20387.3875
2480.90379	20317.3875
2483.65417	20341.4875
2486.40283	20340.5875
2489.14976	20325.3875
2491.89497	20278.7875
2494.63845	20321.5875
2497.3802	20282.8875
2500.12024	20265.7875
2502.85855	20233.7875
2505.59514	20246.7875
2508.33002	20233.1875
2511.06318	20202.5875
2513.79462	20196.0875
2516.52435	20171.8875
2519.25237	20195.8875
2521.97867	20117.1875
2524.70327	20095.7875
2527.42616	20098.2875
2530.14734	20072.2875
2532.86681	20027.7875
2535.58458	19999.9875
2538.30065	19977.2875
2541.01501	19997.6875
2543.72768	19955.3875
2546.43864	19914.1875
2549.14791	19869.2875
2551.85548	19846.9875
2554.56136	19828.8875
2557.26554	19839.4875
2559.96803	19765.8875
2562.66883	19749.8875
2565.36794	19731.9875
2568.06536	19691.2875
2570.7611	19677.3875
2573.45514	19628.1875
2576.14751	19604.3875
2578.83819	19544.5875
2581.52719	19518.3875
2584.21451	19489.7875
2586.90015	19497.9875
2589.58411	19448.2875
2592.2664	19445.1875
2594.94701	19372.5875
2597.62594	19401.3875
2600.30321	19343.4875
2602.9788	19345.3875
2605.65273	19290.5875
2608.32498	19306.8875
2610.99557	19267.6875
2613.66449	19294.9875
2616.33175	19256.4875
2618.99734	19236.0875
2621.66128	19249.7875
2624.32355	19225.1875
2626.98416	19175.9875
2629.64311	19158.7875
2632.30041	19156.8875
2634.95605	19134.3875
2637.61004	19086.8875
2640.26238	19066.8875
2642.91306	19062.7875
2645.56209	19072.7875
2648.20948	19082.0875
2650.85521	19068.3875
2653.4993	19054.8875
2656.14175	19014.1875
2658.78255	19070.0875
2661.42171	19013.5875
2664.05923	19051.5875
2666.6951	19005.5875
2669.32934	19027.7875
2671.96194	19026.0875
2674.59291	19043.4875
2677.22224	19051.8875
2679.84993	19052.1875
2682.476	19001.8875
2685.10043	18982.6875
2687.72324	19003.3875
2690.34441	19018.4875
2692.96396	19037.8875
2695.58188	19049.5875
2698.19818	18989.5875
2700.81285	19029.8875
2703.4259	18990.3875
2706.03733	19031.2875
2708.64714	18973.5875
2711.25533	18988.9875
2713.86191	18977.1875
2716.46687	19004.6875
2719.07021	18994.2875
2721.67194	19036.5875
2724.27206	19004.3875
2726.87057	19028.3875
2729.46747	18999.8875
2732.06276	19012.3875
2734.65644	18984.3875
2737.24852	19005.5875
2739.83899	18981.7875
2742.42786	18990.9875
2745.01513	18933.2875
2747.60079	18929.5875
2750.18486	18900.9875
2752.76733	18899.8875
2755.3482	18900.5875
2757.92747	18859.9875
2760.50515	18808.1875
2763.08123	18809.9875
2765.65573	18808.0875
2768.22863	18780.3875
2770.79994	18752.9875
2773.36967	18712.5875
2775.9378	18764.7875
2778.50435	18747.8875
2781.06932	18724.2875
2783.6327	18696.2875
2786.1945	18624.6875
2788.75471	18578.3875
2791.31335	18529.0875
2793.87041	18530.5875
2796.42589	18512.0875
2798.97979	18530.9875
2801.53212	18476.4875
2804.08288	18468.2875
2806.63206	18412.7875
2809.17967	18366.5875
2811.72571	18304.7875
2814.27018	18285.1875
2816.81308	18251.5875
2819.35442	18204.9875
2821.89419	18162.3875
2824.43239	18177.6875
2826.96904	18140.2875
2829.50412	18100.2875
2832.03763	18040.0875
2834.56959	18084.0875
2837.1	18030.4875
2839.62884	18012.3875
2842.15613	17992.3875
2844.68186	18051.6875
2847.20604	18079.3875
2849.72867	18053.9875
2852.24974	18060.5875
2854.76927	18037.5875
2857.28724	18007.9875
2859.80367	17946.0875
2862.31855	17930.0875
2864.83189	17914.8875
2867.34368	17877.7875
2869.85393	17843.4875
2872.36264	17808.3875
2874.8698	17807.3875
2877.37543	17829.1875
2879.87952	17776.1875
2882.38207	17795.8875
2884.88308	17724.9875
2887.38256	17758.5875
2889.88051	17737.3875
2892.37692	17758.4875
2894.8718	17799.1875
2897.36515	17806.1875
2899.85698	17781.4875
2902.34727	17790.1875
2904.83604	17785.8875
2907.32328	17814.7875
2909.809	17742.9875
2912.29319	17752.0875
2914.77587	17740.8875
2917.25702	17740.5875
2919.73665	17733.6875
2922.21476	17781.5875
2924.69136	17723.4875
2927.16644	17733.3875
2929.64	17711.0875
2932.11205	17708.1875
2934.58258	17636.3875
2937.05161	17654.6875
2939.51912	17638.7875
2941.98513	17604.3875
2944.44962	17541.2875
2946.91261	17477.4875
2949.37409	17552.3875
2951.83407	17502.4875
2954.29254	17502.7875
2956.74951	17463.0875
2959.20498	17413.6875
2961.65895	17381.7875
2964.11142	17415.7875
2966.56239	17332.3875
2969.01186	17306.9875
2971.45984	17291.1875
2973.90632	17266.3875
2976.35131	17204.8875
2978.7948	17198.3875
2981.23681	17174.0875
2983.67732	17080.3875
2986.11635	17049.5875
2988.55388	16982.5875
2990.98993	16963.4875
2993.4245	16882.6875
2995.85758	16824.8875
2998.28917	16762.2875
3000.71928	16778.8875
3003.14791	16731.5875
3005.57506	16727.0875
3008.00073	16631.5875
3010.42493	16639.7875
3012.84764	16596.3875
3015.26888	16595.8875
3017.68865	16518.3875
3020.10694	16505.6875
3022.52376	16463.4875
3024.9391	16410.4875
3027.35298	16401.2875
3029.76539	16394.9875
3032.17632	16389.1875
3034.5858	16311.2875
3036.9938	16300.5875
3039.40034	16288.2875
3041.80542	16281.8875
3044.20903	16242.7875
3046.61118	16227.4875
3049.01187	16151.2875
3051.4111	16165.4875
3053.80888	16092.0875
3056.20519	16057.0875
3058.60005	16032.2875
3060.99345	15961.5875
3063.3854	15916.0875
3065.7759	15859.6875
3068.16494	15845.9875
3070.55254	15763.2875
3072.93868	15751.0875
3075.32338	15711.5875
3077.70662	15669.2875
3080.08842	15644.5875
3082.46878	15585.9875
3084.84769	15536.3875
3087.22515	15540.6875
3089.60118	15523.6875
3091.97576	15490.2875
3094.3489	15490.6875
3096.72061	15473.0875
3099.09087	15424.4875
3101.4597	15389.7875
3103.82709	15368.5875
3106.19305	15367.1875
3108.55757	15335.0875
3110.92066	15261.4875
3113.28232	15246.2875
3115.64255	15209.7875
3118.00134	15164.5875
3120.35871	15116.0875
3122.71466	15112.0875
3125.06917	15051.5875
3127.42226	15007.5875
3129.77393	15015.8875
3132.12417	15023.6875
3134.47299	14995.4875
3136.82039	14973.5875
3139.16636	14961.7875
3141.51092	14946.5875
3143.85406	14974.9875
3146.19579	14943.5875
3148.53609	14891.9875
3150.87499	14933.8875
3153.21246	14946.3875
3155.54853	14952.5875
3157.88318	14894.0875
3160.21642	14888.4875
3162.54826	14839.5875
3164.87868	14837.6875
3167.2077	14842.8875
3169.5353	14829.7875
3171.86151	14801.9875
3174.18631	14757.1875
3176.5097	14734.4875
3178.83169	14738.5875
3181.15228	14735.3875
3183.47147	14696.8875
3185.78926	14674.8875
3188.10565	14643.2875
3190.42065	14622.3875
3192.73424	14611.1875
3195.04645	14629.2875
3197.35725	14632.5875
3199.66667	14592.7875
3201.97469	14567.7875
3204.28132	14531.8875
3206.58656	14553.5875
3208.8904	14533.7875
3211.19287	14574.5875
3213.49394	14535.0875
3215.79363	14517.4875
3218.09193	14517.1875
3220.38884	14455.3875
3222.68438	14482.9875
3224.97853	14443.8875
3227.2713	14460.6875
3229.56269	14402.5875
3231.8527	14395.2875
3234.14133	14370.1875
3236.42858	14332.5875
3238.71446	14335.4875
3240.99896	14287.4875
3243.28209	14252.6875
3245.56384	14225.0875
3247.84423	14206.1875
3250.12324	14172.4875
3252.40088	14154.4875
3254.67715	14120.6875
3256.95205	14053.0875
3259.22558	14069.1875
3261.49775	14002.5875
3263.76855	14002.6875
3266.03799	13971.1875
3268.30606	13952.5875
3270.57277	13908.6875
3272.83812	13881.0875
3275.10211	13887.2875
3277.36474	13875.9875
3279.62601	13861.1875
3281.88593	13873.0875
3284.14448	13853.6875
3286.40168	13887.1875
3288.65753	13810.0875
3290.91202	13827.2875
3293.16516	13727.4875
3295.41695	13696.7875
3297.66738	13627.0875
3299.91647	13581.4875
3302.16421	13481.1875
3304.4106	13408.3875
3306.65564	13291.7875
3308.89933	13209.7875
3311.14169	13112.6875
3313.38269	13004.6875
3315.62236	12947.9875
3317.86068	12811.9875
3320.09766	12643.1875
3322.3333	12573.8875
3324.5676	12545.6875
3326.80056	12334.4875
3329.03219	12264.6875
3331.26248	1.9875
3333.49143	0.2875
3335.71905	-1.3125
