Data from AgNPs_FTO_APTES_UA_2uM_CRN_1uM_R6G_10uM_NaF_0.1M_Addition_RamanShift__16__11-37-45-019.txt Node

Date: Wed Feb 02 11:37:45 GMT 2022
User: TCL
Spectrometer: QEP01345
Trigger mode: 4
Integration Time (sec): 7.000000E0
Scans to average: 10
Electric dark correction enabled: true
Nonlinearity correction enabled: false
Boxcar width: 0
XAxis mode: Raman Shifts
Number of Pixels in Spectrum: 1044
>>>>>Begin Spectral Data<<<<<
46.04893	-0.1625
50.45542	1.3375
54.85868	-1.5625
59.25871	-0.8625
63.6555	84.9375
68.04907	89.8375
72.43941	93.5375
76.82654	100.7375
81.21044	104.9375
85.59113	108.8375
89.96862	112.1375
94.34289	114.5375
98.71396	119.5375
103.08183	127.0375
107.4465	129.9375
111.80798	129.8375
116.16626	133.8375
120.52136	144.0375
124.87327	144.0375
129.222	154.5375
133.56755	170.8375
137.90993	177.2375
142.24913	204.3375
146.58517	232.7375
150.91804	268.1375
155.24774	321.8375
159.57429	405.5375
163.89768	533.1375
168.21792	698.8375
172.53501	963.4375
176.84895	1353.5375
181.15975	1902.0375
185.46741	2655.2375
189.77193	3660.4375
194.07331	4900.6375
198.37157	6285.4375
202.6667	7746.0375
206.9587	9231.8375
211.24758	10678.8375
215.53334	12136.3375
219.81599	13755.9375
224.09553	15513.9375
228.37195	17491.9375
232.64527	19564.1375
236.91549	21793.8375
241.18261	23901.1375
245.44663	25816.9375
249.70755	27519.8375
253.96539	28933.3375
258.22014	30169.9375
262.4718	31200.5375
266.72039	31958.4375
270.96589	32383.0375
275.20832	32406.9375
279.44768	32198.6375
283.68397	31970.9375
287.91719	31812.7375
292.14735	31768.2375
296.37445	31898.8375
300.59849	32165.1375
304.81948	32442.6375
309.03742	32503.3375
313.25231	32090.1375
317.46415	31107.1375
321.67296	29678.1375
325.87872	28477.0375
330.08145	27802.6375
334.28114	27626.4375
338.47781	27755.1375
342.67145	28083.8375
346.86207	28603.6375
351.04966	29362.5375
355.23424	30114.5375
359.4158	30799.5375
363.59435	31196.7375
367.76989	31416.9375
371.94243	31544.2375
376.11196	31601.4375
380.27849	31613.3375
384.44203	31751.2375
388.60257	31982.2375
392.76012	32264.2375
396.91468	32782.5375
401.06626	33388.8375
405.21485	33731.9375
409.36047	33388.2375
413.50311	32616.3375
417.64277	31934.8375
421.77947	31710.9375
425.9132	31765.0375
430.04396	31863.0375
434.17176	31926.4375
438.2966	32095.3375
442.41849	32565.0375
446.53742	33388.5375
450.6534	34353.7375
454.76644	35010.8375
458.87653	35301.5375
462.98368	35302.4375
467.08789	35051.1375
471.18916	34676.0375
475.2875	34367.2375
479.38291	34378.5375
483.4754	34405.3375
487.56496	34149.3375
491.6516	33574.7375
495.73531	32835.9375
499.81612	32388.6375
503.89401	32400.8375
507.96899	32411.8375
512.04106	32241.4375
516.11023	31941.1375
520.1765	31523.1375
524.23987	31103.9375
528.30034	30675.5375
532.35792	30232.0375
536.41261	29730.7375
540.46441	29250.4375
544.51333	29216.1375
548.55936	29697.0375
552.60252	30666.1375
556.64279	31635.4375
560.6802	32354.4375
564.71473	32848.0375
568.7464	33687.3375
572.7752	34894.5375
576.80114	35622.9375
580.82422	36242.7375
584.84444	36768.5375
588.86181	37163.9375
592.87633	37311.7375
596.888	37053.8375
600.89682	36740.7375
604.9028	38037.4375
608.90594	42592.1375
612.90624	47496.2375
616.90371	44330.6375
620.89834	35011.3375
624.89015	30712.1375
628.87913	30096.7375
632.86528	30337.0375
636.84862	30447.6375
640.82913	30012.0375
644.80683	28937.2375
648.78172	28066.5375
652.75379	27831.7375
656.72306	28239.3375
660.68952	28882.6375
664.65319	28703.3375
668.61405	27976.2375
672.57211	27612.5375
676.52738	27690.6375
680.47986	27604.3375
684.42955	27438.7375
688.37646	27259.6375
692.32058	27367.0375
696.26192	27758.1375
700.20048	28286.2375
704.13626	28585.2375
708.06928	28669.8375
711.99952	28475.6375
715.927	28354.3375
719.85171	28423.7375
723.77365	28317.6375
727.69284	27859.5375
731.60928	27447.8375
735.52295	27309.0375
739.43388	27245.1375
743.34206	27376.8375
747.24749	27502.8375
751.15017	27918.1375
755.05012	28549.3375
758.94733	29713.5375
762.8418	31854.1375
766.73354	35330.3375
770.62254	38759.9375
774.50882	39519.0375
778.39237	37228.8375
782.27321	33635.3375
786.15132	30663.7375
790.02671	28846.1375
793.89938	27922.8375
797.76935	27516.1375
801.6366	27350.1375
805.50115	27243.4375
809.36299	27018.3375
813.22213	26732.3375
817.07857	26613.2375
820.93231	26554.5375
824.78336	26298.5375
828.63172	26187.4375
832.47738	26048.7375
836.32036	26082.5375
840.16066	26097.7375
843.99827	26144.3375
847.8332	26047.2375
851.66546	25941.4375
855.49504	25876.8375
859.32195	25864.9375
863.1462	25731.1375
866.96777	25639.2375
870.78668	25594.3375
874.60293	25564.5375
878.41652	25588.3375
882.22745	25697.1375
886.03573	25876.0375
889.84136	25964.2375
893.64433	25879.1375
897.44466	25828.0375
901.24235	25730.7375
905.0374	25571.9375
908.8298	25405.8375
912.61957	25427.9375
916.40671	25691.7375
920.19121	26144.9375
923.97308	26555.7375
927.75233	26789.0375
931.52895	26653.6375
935.30295	26129.8375
939.07433	25385.1375
942.84309	24750.5375
946.60924	24403.3375
950.37278	24257.0375
954.13371	24254.9375
957.89203	24145.2375
961.64774	24136.3375
965.40086	24072.5375
969.15137	23980.7375
972.89929	23858.0375
976.64461	23709.3375
980.38733	23665.3375
984.12747	23726.2375
987.86502	23838.1375
991.59999	24157.3375
995.33237	24619.1375
999.06217	25376.3375
1002.78939	26306.1375
1006.51404	26946.9375
1010.23611	27405.9375
1013.95561	27739.2375
1017.67255	27788.4375
1021.38692	27386.6375
1025.09872	26875.6375
1028.80796	26853.2375
1032.51465	27360.4375
1036.21877	28030.6375
1039.92035	28174.8375
1043.61937	27878.8375
1047.31584	27320.2375
1051.00976	26799.1375
1054.70114	26549.8375
1058.38998	26626.6375
1062.07627	26843.0375
1065.76003	27176.2375
1069.44126	27534.1375
1073.11995	28111.1375
1076.79611	28684.8375
1080.46974	28873.2375
1084.14085	29173.7375
1087.80943	29658.4375
1091.47549	30085.7375
1095.13903	30239.2375
1098.80005	29730.3375
1102.45857	28752.3375
1106.11456	27899.8375
1109.76805	27436.8375
1113.41903	27342.4375
1117.06751	27504.1375
1120.71348	27933.3375
1124.35696	28425.6375
1127.99793	28972.5375
1131.63641	29398.1375
1135.2724	29218.7375
1138.90589	28827.3375
1142.5369	28731.7375
1146.16542	28773.1375
1149.79145	28994.6375
1153.415	29371.5375
1157.03607	29963.0375
1160.65467	30990.9375
1164.27079	32731.6375
1167.88443	35005.6375
1171.49561	37929.6375
1175.10432	41794.2375
1178.71056	46683.8375
1182.31434	51246.2375
1185.91565	53744.4375
1189.51451	53801.3375
1193.11091	52065.5375
1196.70485	49087.4375
1200.29634	46112.6375
1203.88538	43786.2375
1207.47197	42164.6375
1211.05612	40930.6375
1214.63782	39960.7375
1218.21708	39011.0375
1221.79391	38238.4375
1225.36829	37789.7375
1228.94024	37241.4375
1232.50976	36649.5375
1236.07685	36081.1375
1239.6415	35700.8375
1243.20374	35431.3375
1246.76355	35497.6375
1250.32093	35993.4375
1253.8759	36953.3375
1257.42845	38433.6375
1260.97859	40029.4375
1264.52631	41710.5375
1268.07163	43291.3375
1271.61453	44944.9375
1275.15503	46713.7375
1278.69312	48354.5375
1282.22882	49833.9375
1285.76211	51353.8375
1289.29301	53196.0375
1292.82151	55571.5375
1296.34761	58491.9375
1299.87133	62206.7375
1303.39266	66410.2375
1306.9116	70985.2375
1310.42815	75262.5375
1313.94233	78066.9375
1317.45412	78279.9375
1320.96354	77252.9375
1324.47058	76057.6375
1327.97525	74909.9375
1331.47754	73898.6375
1334.97747	72973.2375
1338.47502	72028.1375
1341.97022	70823.9375
1345.46305	69148.3375
1348.95352	67398.8375
1352.44163	66194.7375
1355.92738	66808.7375
1359.41078	69623.8375
1362.89183	73265.5375
1366.37053	72959.0375
1369.84688	67062.3375
1373.32088	59232.5375
1376.79254	53375.0375
1380.26186	50879.5375
1383.72883	50367.0375
1387.19347	50232.1375
1390.65578	49887.2375
1394.11575	49901.4375
1397.57339	50632.0375
1401.0287	51822.9375
1404.48168	52666.5375
1407.93234	52570.5375
1411.38068	51370.7375
1414.82669	49261.9375
1418.27039	46678.9375
1421.71177	44189.3375
1425.15083	42160.4375
1428.58758	41104.0375
1432.02203	41205.9375
1435.45416	42162.6375
1438.88399	43569.1375
1442.31151	44786.3375
1445.73673	45801.0375
1449.15965	46781.6375
1452.58027	47578.0375
1455.9986	47992.3375
1459.41463	48448.2375
1462.82837	49216.6375
1466.23982	50142.1375
1469.64898	50801.0375
1473.05586	51047.0375
1476.46045	50756.3375
1479.86276	50162.6375
1483.26279	49569.1375
1486.66054	49389.9375
1490.05602	49701.5375
1493.44922	50497.4375
1496.84016	51452.6375
1500.22882	53177.3375
1503.61521	55779.2375
1506.99934	58861.3375
1510.38121	61508.6375
1513.76081	62347.1375
1517.13816	60675.9375
1520.51324	57312.6375
1523.88607	54161.7375
1527.25665	52155.8375
1530.62498	51146.9375
1533.99105	50485.8375
1537.35488	49870.0375
1540.71647	48816.5375
1544.07581	47554.8375
1547.4329	46170.1375
1550.78776	44970.7375
1554.14038	44308.9375
1557.49077	44103.4375
1560.83892	44257.9375
1564.18484	44457.8375
1567.52853	44889.9375
1570.86999	45453.8375
1574.20922	46341.1375
1577.54624	47168.4375
1580.88103	47457.4375
1584.2136	47634.4375
1587.54395	48934.8375
1590.87208	51364.0375
1594.19801	54446.1375
1597.52172	57452.5375
1600.84321	57882.2375
1604.16251	54452.9375
1607.47959	49294.5375
1610.79447	44161.1375
1614.10715	39629.1375
1617.41763	35947.9375
1620.7259	33474.1375
1624.03199	32233.8375
1627.33587	32217.1375
1630.63757	33485.8375
1633.93707	36232.6375
1637.23439	40621.3375
1640.52951	46974.0375
1643.82246	54192.2375
1647.11321	59759.0375
1650.40179	61284.6375
1653.68819	57297.9375
1656.97241	49178.6375
1660.25446	40633.5375
1663.53433	33998.8375
1666.81203	29619.8375
1670.08756	26977.8375
1673.36092	25288.7375
1676.63211	24239.7375
1679.90115	23499.8375
1683.16801	23014.3375
1686.43272	22598.8375
1689.69527	22361.0375
1692.95567	22136.7375
1696.2139	21989.9375
1699.46999	21856.2375
1702.72392	21755.1375
1705.97571	21643.3375
1709.22535	21554.9375
1712.47284	21498.6375
1715.71819	21413.7375
1718.96139	21363.7375
1722.20246	21288.4375
1725.44139	21141.8375
1728.67818	20970.7375
1731.91284	20795.3375
1735.14537	20654.6375
1738.37576	20545.4375
1741.60403	20428.7375
1744.83017	20372.9375
1748.05418	20288.5375
1751.27607	20236.4375
1754.49584	20160.2375
1757.71349	20147.2375
1760.92903	20156.9375
1764.14244	20145.6375
1767.35375	20095.8375
1770.56294	20032.1375
1773.77002	19971.2375
1776.97499	19931.5375
1780.17785	19850.1375
1783.37861	19825.2375
1786.57727	19788.8375
1789.77382	19752.0375
1792.96828	19701.9375
1796.16064	19654.4375
1799.3509	19634.9375
1802.53907	19554.6375
1805.72514	19486.1375
1808.90913	19471.0375
1812.09102	19461.6375
1815.27083	19384.8375
1818.44856	19373.9375
1821.6242	19350.2375
1824.79776	19365.0375
1827.96924	19346.3375
1831.13864	19364.6375
1834.30597	19398.6375
1837.47122	19404.0375
1840.6344	19412.9375
1843.7955	19486.3375
1846.95454	19498.4375
1850.11151	19502.6375
1853.26642	19503.7375
1856.41926	19472.5375
1859.57004	19502.1375
1862.71876	19468.5375
1865.86542	19460.9375
1869.01003	19475.2375
1872.15258	19453.8375
1875.29308	19468.3375
1878.43152	19430.9375
1881.56792	19452.3375
1884.70227	19455.2375
1887.83457	19423.7375
1890.96482	19424.3375
1894.09304	19392.9375
1897.21921	19386.9375
1900.34335	19346.7375
1903.46544	19311.1375
1906.58551	19278.4375
1909.70353	19218.2375
1912.81953	19175.8375
1915.93349	19126.8375
1919.04543	19025.8375
1922.15534	18941.6375
1925.26322	18823.6375
1928.36908	18772.8375
1931.47292	18699.1375
1934.57473	18545.0375
1937.67453	18484.7375
1940.77232	18430.8375
1943.86808	18332.4375
1946.96184	18244.3375
1950.05358	18190.0375
1953.14331	18142.5375
1956.23103	18082.8375
1959.31675	18013.8375
1962.40046	17974.0375
1965.48217	17880.3375
1968.56188	17826.4375
1971.63959	17790.9375
1974.7153	17718.8375
1977.78901	17651.7375
1980.86073	17611.7375
1983.93046	17565.1375
1986.99819	17474.6375
1990.06394	17403.7375
1993.1277	17379.5375
1996.18947	17280.5375
1999.24925	17237.3375
2002.30706	17163.5375
2005.36288	17138.0375
2008.41672	17078.4375
2011.46859	17067.5375
2014.51848	17011.8375
2017.56639	16933.8375
2020.61233	16871.8375
2023.6563	16852.0375
2026.6983	16812.9375
2029.73833	16820.3375
2032.7764	16751.8375
2035.8125	16737.7375
2038.84664	16715.6375
2041.87881	16694.3375
2044.90903	16681.3375
2047.93729	16685.7375
2050.96359	16652.6375
2053.98794	16600.6375
2057.01034	16570.2375
2060.03078	16560.6375
2063.04927	16513.5375
2066.06582	16524.2375
2069.08042	16487.6375
2072.09307	16497.5375
2075.10378	16452.3375
2078.11255	16458.4375
2081.11938	16465.7375
2084.12426	16446.2375
2087.12722	16432.5375
2090.12824	16397.5375
2093.12732	16404.7375
2096.12447	16432.2375
2099.11969	16439.9375
2102.11299	16457.6375
2105.10435	16454.3375
2108.09379	16449.7375
2111.08131	16447.7375
2114.0669	16466.3375
2117.05057	16477.6375
2120.03233	16470.2375
2123.01216	16482.8375
2125.99008	16480.6375
2128.96609	16469.3375
2131.94018	16519.8375
2134.91236	16464.9375
2137.88263	16506.8375
2140.851	16495.0375
2143.81746	16480.6375
2146.78201	16499.9375
2149.74466	16481.3375
2152.7054	16490.2375
2155.66425	16488.5375
2158.6212	16508.6375
2161.57625	16456.3375
2164.52941	16475.7375
2167.48067	16471.8375
2170.43004	16458.8375
2173.37752	16444.8375
2176.32311	16457.6375
2179.26681	16450.3375
2182.20863	16476.7375
2185.14856	16461.9375
2188.08661	16429.8375
2191.02278	16411.1375
2193.95707	16432.0375
2196.88948	16400.9375
2199.82001	16418.5375
2202.74867	16390.7375
2205.67545	16394.8375
2208.60037	16394.6375
2211.52341	16386.5375
2214.44458	16374.7375
2217.36388	16334.1375
2220.28132	16322.2375
2223.1969	16280.1375
2226.11061	16258.5375
2229.02246	16214.2375
2231.93245	16183.8375
2234.84058	16157.6375
2237.74686	16101.4375
2240.65128	16120.9375
2243.55385	16099.0375
2246.45456	16049.5375
2249.35343	16024.0375
2252.25044	15975.0375
2255.14561	15963.8375
2258.03893	15985.4375
2260.93041	15941.0375
2263.82004	15894.9375
2266.70783	15855.1375
2269.59378	15845.4375
2272.4779	15782.1375
2275.36017	15726.1375
2278.24061	15697.0375
2281.11922	15646.3375
2283.996	15660.6375
2286.87094	15664.6375
2289.74405	15582.1375
2292.61534	15573.8375
2295.4848	15540.6375
2298.35243	15560.0375
2301.21824	15539.1375
2304.08223	15557.3375
2306.94439	15551.7375
2309.80474	15574.4375
2312.66327	15583.9375
2315.51999	15569.7375
2318.37489	15555.4375
2321.22797	15591.3375
2324.07925	15533.9375
2326.92871	15505.0375
2329.77637	15544.4375
2332.62222	15508.6375
2335.46626	15494.7375
2338.3085	15485.7375
2341.14893	15526.4375
2343.98756	15548.5375
2346.8244	15520.3375
2349.65943	15516.3375
2352.49267	15530.9375
2355.32411	15515.4375
2358.15376	15532.8375
2360.98161	15535.2375
2363.80768	15527.2375
2366.63195	15510.6375
2369.45444	15477.5375
2372.27514	15447.2375
2375.09405	15442.6375
2377.91118	15389.5375
2380.72652	15362.2375
2383.54009	15305.1375
2386.35187	15252.4375
2389.16188	15211.2375
2391.97011	15192.1375
2394.77657	15164.5375
2397.58125	15176.8375
2400.38416	15136.4375
2403.18529	15107.7375
2405.98466	15070.4375
2408.78226	15039.3375
2411.57809	15015.0375
2414.37216	15007.0375
2417.16446	14970.9375
2419.955	14963.8375
2422.74378	14986.1375
2425.5308	14974.0375
2428.31606	14960.8375
2431.09956	14954.9375
2433.88131	14914.1375
2436.6613	14940.6375
2439.43954	14940.6375
2442.21603	14916.8375
2444.99077	14922.2375
2447.76377	14958.2375
2450.53501	14942.1375
2453.30451	14920.0375
2456.07226	14936.8375
2458.83827	14973.4375
2461.60254	14954.6375
2464.36507	14951.9375
2467.12586	14963.8375
2469.88492	14915.0375
2472.64224	14952.4375
2475.39782	14965.4375
2478.15167	14973.9375
2480.90379	14952.6375
2483.65417	14981.1375
2486.40283	14975.9375
2489.14976	15003.6375
2491.89497	14977.8375
2494.63845	15023.4375
2497.3802	14991.1375
2500.12024	14997.5375
2502.85855	14963.2375
2505.59514	14989.7375
2508.33002	14963.9375
2511.06318	14907.0375
2513.79462	14957.5375
2516.52435	14907.8375
2519.25237	14872.9375
2521.97867	14877.0375
2524.70327	14852.0375
2527.42616	14839.0375
2530.14734	14827.8375
2532.86681	14807.1375
2535.58458	14802.8375
2538.30065	14765.7375
2541.01501	14769.7375
2543.72768	14755.9375
2546.43864	14766.7375
2549.14791	14746.4375
2551.85548	14740.7375
2554.56136	14747.6375
2557.26554	14718.8375
2559.96803	14717.9375
2562.66883	14685.8375
2565.36794	14700.1375
2568.06536	14707.2375
2570.7611	14687.7375
2573.45514	14657.4375
2576.14751	14658.5375
2578.83819	14650.5375
2581.52719	14678.7375
2584.21451	14645.8375
2586.90015	14673.8375
2589.58411	14625.2375
2592.2664	14626.2375
2594.94701	14599.9375
2597.62594	14602.1375
2600.30321	14590.3375
2602.9788	14585.1375
2605.65273	14576.6375
2608.32498	14592.0375
2610.99557	14590.4375
2613.66449	14625.6375
2616.33175	14589.4375
2618.99734	14630.8375
2621.66128	14631.0375
2624.32355	14584.2375
2626.98416	14602.2375
2629.64311	14591.4375
2632.30041	14595.7375
2634.95605	14558.6375
2637.61004	14589.8375
2640.26238	14575.1375
2642.91306	14530.0375
2645.56209	14515.5375
2648.20948	14535.8375
2650.85521	14529.6375
2653.4993	14495.4375
2656.14175	14515.7375
2658.78255	14546.9375
2661.42171	14568.1375
2664.05923	14532.7375
2666.6951	14583.1375
2669.32934	14563.9375
2671.96194	14561.7375
2674.59291	14585.1375
2677.22224	14560.8375
2679.84993	14566.2375
2682.476	14562.3375
2685.10043	14540.6375
2687.72324	14522.8375
2690.34441	14502.8375
2692.96396	14487.5375
2695.58188	14519.0375
2698.19818	14508.2375
2700.81285	14487.6375
2703.4259	14495.7375
2706.03733	14523.2375
2708.64714	14526.0375
2711.25533	14525.3375
2713.86191	14510.7375
2716.46687	14559.2375
2719.07021	14534.3375
2721.67194	14540.7375
2724.27206	14503.1375
2726.87057	14546.5375
2729.46747	14543.2375
2732.06276	14545.1375
2734.65644	14552.5375
2737.24852	14585.3375
2739.83899	14538.8375
2742.42786	14599.0375
2745.01513	14523.8375
2747.60079	14559.3375
2750.18486	14542.1375
2752.76733	14544.5375
2755.3482	14557.6375
2757.92747	14555.6375
2760.50515	14493.7375
2763.08123	14537.8375
2765.65573	14491.5375
2768.22863	14494.3375
2770.79994	14512.8375
2773.36967	14512.3375
2775.9378	14471.4375
2778.50435	14452.6375
2781.06932	14488.3375
2783.6327	14465.4375
2786.1945	14471.8375
2788.75471	14472.1375
2791.31335	14454.6375
2793.87041	14413.8375
2796.42589	14391.3375
2798.97979	14344.5375
2801.53212	14345.0375
2804.08288	14326.1375
2806.63206	14311.6375
2809.17967	14309.3375
2811.72571	14271.9375
2814.27018	14258.8375
2816.81308	14254.3375
2819.35442	14263.6375
2821.89419	14271.5375
2824.43239	14230.1375
2826.96904	14214.3375
2829.50412	14184.5375
2832.03763	14161.6375
2834.56959	14166.1375
2837.1	14141.4375
2839.62884	14167.0375
2842.15613	14200.6375
2844.68186	14234.3375
2847.20604	14234.8375
2849.72867	14291.1375
2852.24974	14281.3375
2854.76927	14275.3375
2857.28724	14246.6375
2859.80367	14248.1375
2862.31855	14232.1375
2864.83189	14183.5375
2867.34368	14222.2375
2869.85393	14221.4375
2872.36264	14216.3375
2874.8698	14224.1375
2877.37543	14242.2375
2879.87952	14259.4375
2882.38207	14276.1375
2884.88308	14278.1375
2887.38256	14283.7375
2889.88051	14282.8375
2892.37692	14268.2375
2894.8718	14303.7375
2897.36515	14306.0375
2899.85698	14324.8375
2902.34727	14375.1375
2904.83604	14338.6375
2907.32328	14392.9375
2909.809	14388.3375
2912.29319	14398.1375
2914.77587	14389.8375
2917.25702	14404.2375
2919.73665	14366.0375
2922.21476	14371.1375
2924.69136	14355.7375
2927.16644	14368.6375
2929.64	14363.0375
2932.11205	14326.8375
2934.58258	14290.3375
2937.05161	14286.2375
2939.51912	14260.9375
2941.98513	14233.8375
2944.44962	14190.6375
2946.91261	14109.7375
2949.37409	14107.2375
2951.83407	14081.5375
2954.29254	14068.5375
2956.74951	14004.1375
2959.20498	13989.0375
2961.65895	13970.3375
2964.11142	13955.7375
2966.56239	13923.0375
2969.01186	13919.9375
2971.45984	13828.0375
2973.90632	13809.3375
2976.35131	13777.7375
2978.7948	13738.5375
2981.23681	13664.0375
2983.67732	13651.1375
2986.11635	13579.1375
2988.55388	13565.0375
2990.98993	13539.7375
2993.4245	13483.1375
2995.85758	13464.1375
2998.28917	13393.3375
3000.71928	13429.5375
3003.14791	13398.2375
3005.57506	13366.4375
3008.00073	13308.4375
3010.42493	13306.8375
3012.84764	13289.7375
3015.26888	13278.9375
3017.68865	13277.2375
3020.10694	13239.8375
3022.52376	13191.6375
3024.9391	13178.9375
3027.35298	13131.6375
3029.76539	13127.9375
3032.17632	13123.0375
3034.5858	13094.3375
3036.9938	13109.8375
3039.40034	13071.1375
3041.80542	13061.5375
3044.20903	13043.0375
3046.61118	13045.0375
3049.01187	12979.6375
3051.4111	12989.8375
3053.80888	12970.8375
3056.20519	12938.9375
3058.60005	12904.1375
3060.99345	12872.9375
3063.3854	12858.0375
3065.7759	12807.5375
3068.16494	12776.9375
3070.55254	12761.3375
3072.93868	12746.6375
3075.32338	12725.0375
3077.70662	12683.1375
3080.08842	12627.2375
3082.46878	12651.3375
3084.84769	12609.0375
3087.22515	12597.3375
3089.60118	12596.5375
3091.97576	12565.4375
3094.3489	12571.7375
3096.72061	12562.0375
3099.09087	12561.7375
3101.4597	12514.9375
3103.82709	12501.4375
3106.19305	12489.0375
3108.55757	12474.1375
3110.92066	12440.6375
3113.28232	12386.0375
3115.64255	12345.8375
3118.00134	12347.3375
3120.35871	12343.0375
3122.71466	12309.3375
3125.06917	12275.0375
3127.42226	12268.2375
3129.77393	12270.7375
3132.12417	12266.8375
3134.47299	12284.0375
3136.82039	12246.9375
3139.16636	12233.4375
3141.51092	12228.4375
3143.85406	12218.8375
3146.19579	12261.3375
3148.53609	12229.1375
3150.87499	12269.2375
3153.21246	12247.1375
3155.54853	12235.5375
3157.88318	12242.8375
3160.21642	12223.9375
3162.54826	12241.2375
3164.87868	12223.4375
3167.2077	12221.3375
3169.5353	12221.4375
3171.86151	12222.5375
3174.18631	12200.7375
3176.5097	12192.6375
3178.83169	12193.3375
3181.15228	12185.5375
3183.47147	12167.6375
3185.78926	12159.3375
3188.10565	12156.9375
3190.42065	12150.4375
3192.73424	12184.4375
3195.04645	12180.2375
3197.35725	12149.9375
3199.66667	12131.3375
3201.97469	12135.0375
3204.28132	12131.3375
3206.58656	12142.4375
3208.8904	12142.2375
3211.19287	12136.1375
3213.49394	12145.7375
3215.79363	12135.8375
3218.09193	12153.0375
3220.38884	12147.3375
3222.68438	12163.0375
3224.97853	12115.8375
3227.2713	12155.5375
3229.56269	12128.3375
3231.8527	12106.3375
3234.14133	12118.3375
3236.42858	12040.7375
3238.71446	12049.5375
3240.99896	12034.9375
3243.28209	12039.2375
3245.56384	12055.2375
3247.84423	12028.6375
3250.12324	12028.1375
3252.40088	12010.8375
3254.67715	11984.0375
3256.95205	11939.9375
3259.22558	11932.0375
3261.49775	11917.5375
3263.76855	11909.4375
3266.03799	11866.2375
3268.30606	11874.3375
3270.57277	11831.7375
3272.83812	11836.1375
3275.10211	11792.1375
3277.36474	11793.8375
3279.62601	11807.3375
3281.88593	11812.2375
3284.14448	11829.7375
3286.40168	11827.3375
3288.65753	11787.9375
3290.91202	11775.8375
3293.16516	11750.4375
3295.41695	11715.7375
3297.66738	11644.8375
3299.91647	11571.0375
3302.16421	11513.5375
3304.4106	11493.0375
3306.65564	11422.8375
3308.89933	11329.7375
3311.14169	11281.6375
3313.38269	11175.3375
3315.62236	11105.4375
3317.86068	11020.9375
3320.09766	10909.9375
3322.3333	10810.8375
3324.5676	10828.8375
3326.80056	10661.4375
3329.03219	10606.1375
3331.26248	1.4375
3333.49143	0.3375
3335.71905	-0.4625
