Data from AgNPs_FTO_APTES_UA_2uM_CRN_1uM_R6G_10uM_NaF_0.1M_Addition_RamanShift__6__11-26-05-006.txt Node

Date: Wed Feb 02 11:26:05 GMT 2022
User: TCL
Spectrometer: QEP01345
Trigger mode: 4
Integration Time (sec): 7.000000E0
Scans to average: 10
Electric dark correction enabled: true
Nonlinearity correction enabled: false
Boxcar width: 0
XAxis mode: Raman Shifts
Number of Pixels in Spectrum: 1044
>>>>>Begin Spectral Data<<<<<
46.04893	0.7875
50.45542	1.1875
54.85868	-1.5125
59.25871	-0.1125
63.6555	80.1875
68.04907	87.4875
72.43941	87.7875
76.82654	98.9875
81.21044	97.5875
85.59113	105.2875
89.96862	106.9875
94.34289	111.9875
98.71396	118.0875
103.08183	123.6875
107.4465	122.1875
111.80798	127.8875
116.16626	124.0875
120.52136	136.5875
124.87327	140.6875
129.222	149.9875
133.56755	155.7875
137.90993	163.7875
142.24913	189.3875
146.58517	214.6875
150.91804	251.9875
155.24774	301.4875
159.57429	374.6875
163.89768	482.8875
168.21792	642.9875
172.53501	883.3875
176.84895	1225.8875
181.15975	1728.8875
185.46741	2412.2875
189.77193	3300.2875
194.07331	4411.8875
198.37157	5684.4875
202.6667	7012.4875
206.9587	8310.1875
211.24758	9633.8875
215.53334	10995.9875
219.81599	12420.1875
224.09553	14023.2875
228.37195	15778.6875
232.64527	17655.7875
236.91549	19571.7875
241.18261	21519.7875
245.44663	23226.4875
249.70755	24757.7875
253.96539	26077.5875
258.22014	27136.9875
262.4718	27994.0875
266.72039	28537.8875
270.96589	28711.3875
275.20832	28609.5875
279.44768	28327.6875
283.68397	27926.3875
287.91719	27640.8875
292.14735	27510.7875
296.37445	27549.4875
300.59849	27732.0875
304.81948	28011.3875
309.03742	28232.0875
313.25231	28190.9875
317.46415	27806.3875
321.67296	27172.7875
325.87872	26596.9875
330.08145	26268.4875
334.28114	26147.0875
338.47781	26185.1875
342.67145	26464.8875
346.86207	26820.9875
351.04966	27338.9875
355.23424	27913.1875
359.4158	28377.3875
363.59435	28740.0875
367.76989	28871.9875
371.94243	28892.5875
376.11196	28819.4875
380.27849	28793.7875
384.44203	28849.1875
388.60257	29038.8875
392.76012	29390.2875
396.91468	29835.8875
401.06626	30335.0875
405.21485	30689.1875
409.36047	30534.3875
413.50311	30157.0875
417.64277	30126.4875
421.77947	30392.8875
425.9132	30571.1875
430.04396	30663.5875
434.17176	30735.5875
438.2966	30775.2875
442.41849	31303.8875
446.53742	32254.0875
450.6534	33268.7875
454.76644	33803.0875
458.87653	33799.8875
462.98368	33365.2875
467.08789	32839.7875
471.18916	32149.5875
475.2875	31433.3875
479.38291	31055.2875
483.4754	30926.7875
487.56496	30727.8875
491.6516	30336.4875
495.73531	29783.8875
499.81612	29516.4875
503.89401	29562.4875
507.96899	29659.0875
512.04106	29502.2875
516.11023	29189.8875
520.1765	28781.2875
524.23987	28493.0875
528.30034	28300.1875
532.35792	28017.7875
536.41261	27580.6875
540.46441	27083.4875
544.51333	26916.5875
548.55936	27219.8875
552.60252	27900.5875
556.64279	28802.0875
560.6802	29562.6875
564.71473	30061.7875
568.7464	30730.7875
572.7752	31870.6875
576.80114	33220.9875
580.82422	34814.6875
584.84444	37169.9875
588.86181	40494.0875
592.87633	43199.7875
596.888	42551.7875
600.89682	38766.2875
604.9028	36485.2875
608.90594	38277.2875
612.90624	40922.3875
616.90371	38232.1875
620.89834	31496.2875
624.89015	28364.4875
628.87913	27969.7875
632.86528	28142.7875
636.84862	27962.3875
640.82913	27233.6875
644.80683	26396.3875
648.78172	26017.2875
652.75379	26191.6875
656.72306	26607.4875
660.68952	26950.0875
664.65319	26548.7875
668.61405	25858.4875
672.57211	25728.4875
676.52738	25932.0875
680.47986	25947.5875
684.42955	25678.9875
688.37646	25496.0875
692.32058	25687.1875
696.26192	26306.5875
700.20048	26970.6875
704.13626	27352.8875
708.06928	27400.7875
711.99952	27328.2875
715.927	27412.2875
719.85171	27640.6875
723.77365	27491.4875
727.69284	26820.3875
731.60928	26179.8875
735.52295	25992.2875
739.43388	26001.7875
743.34206	26112.3875
747.24749	26381.2875
751.15017	26752.5875
755.05012	27357.3875
758.94733	28270.1875
762.8418	29877.3875
766.73354	32272.8875
770.62254	34362.8875
774.50882	34435.8875
778.39237	32567.9875
782.27321	30125.0875
786.15132	28122.5875
790.02671	26871.6875
793.89938	26316.0875
797.76935	26040.2875
801.6366	25967.6875
805.50115	25938.1875
809.36299	25762.8875
813.22213	25531.7875
817.07857	25359.5875
820.93231	25117.2875
824.78336	24879.5875
828.63172	24705.0875
832.47738	24717.7875
836.32036	24731.5875
840.16066	24811.9875
843.99827	24855.2875
847.8332	24824.4875
851.66546	24766.1875
855.49504	24735.4875
859.32195	24752.5875
863.1462	24593.2875
866.96777	24457.5875
870.78668	24402.4875
874.60293	24392.3875
878.41652	24501.2875
882.22745	24648.2875
886.03573	24792.0875
889.84136	24788.5875
893.64433	24706.6875
897.44466	24622.6875
901.24235	24604.7875
905.0374	24533.5875
908.8298	24469.9875
912.61957	24513.1875
916.40671	24822.6875
920.19121	25243.9875
923.97308	25805.9875
927.75233	26035.6875
931.52895	25769.3875
935.30295	25036.5875
939.07433	24297.1875
942.84309	23782.1875
946.60924	23556.9875
950.37278	23455.1875
954.13371	23456.6875
957.89203	23407.5875
961.64774	23384.3875
965.40086	23389.0875
969.15137	23287.2875
972.89929	23108.7875
976.64461	22966.0875
980.38733	22932.9875
984.12747	22971.7875
987.86502	23093.8875
991.59999	23308.7875
995.33237	23646.3875
999.06217	24255.4875
1002.78939	25031.6875
1006.51404	25737.6875
1010.23611	26374.4875
1013.95561	26775.8875
1017.67255	26773.7875
1021.38692	26363.5875
1025.09872	25687.5875
1028.80796	25397.3875
1032.51465	25765.0875
1036.21877	26251.6875
1039.92035	26538.9875
1043.61937	26484.9875
1047.31584	26168.3875
1051.00976	25755.6875
1054.70114	25584.1875
1058.38998	25587.5875
1062.07627	25727.9875
1065.76003	25937.7875
1069.44126	26402.3875
1073.11995	27016.3875
1076.79611	27633.8875
1080.46974	27864.3875
1084.14085	28063.6875
1087.80943	28456.0875
1091.47549	28799.3875
1095.13903	28839.8875
1098.80005	28221.1875
1102.45857	27184.8875
1106.11456	26448.7875
1109.76805	26091.4875
1113.41903	25991.8875
1117.06751	26184.6875
1120.71348	26505.4875
1124.35696	26868.1875
1127.99793	27276.9875
1131.63641	27545.6875
1135.2724	27517.7875
1138.90589	27406.6875
1142.5369	27579.4875
1146.16542	27901.6875
1149.79145	28241.4875
1153.415	28640.1875
1157.03607	29281.1875
1160.65467	30557.5875
1164.27079	32691.0875
1167.88443	34996.4875
1171.49561	37273.3875
1175.10432	40087.1875
1178.71056	43797.0875
1182.31434	47322.6875
1185.91565	48540.0875
1189.51451	47502.2875
1193.11091	45527.5875
1196.70485	43369.4875
1200.29634	41454.8875
1203.88538	40302.2875
1207.47197	39841.4875
1211.05612	39555.0875
1214.63782	38754.7875
1218.21708	37479.6875
1221.79391	36133.3875
1225.36829	35334.3875
1228.94024	34811.3875
1232.50976	34147.8875
1236.07685	33302.9875
1239.6415	32683.3875
1243.20374	32494.8875
1246.76355	32717.6875
1250.32093	33324.0875
1253.8759	34262.5875
1257.42845	35543.6875
1260.97859	36988.3875
1264.52631	38431.4875
1268.07163	39880.8875
1271.61453	41266.1875
1275.15503	42872.8875
1278.69312	44647.5875
1282.22882	46864.3875
1285.76211	49368.0875
1289.29301	52298.5875
1292.82151	55403.2875
1296.34761	59088.2875
1299.87133	63431.3875
1303.39266	67863.0875
1306.9116	71447.4875
1310.42815	73676.1875
1313.94233	74249.3875
1317.45412	73011.5875
1320.96354	70830.1875
1324.47058	69025.4875
1327.97525	67804.2875
1331.47754	66671.9875
1334.97747	65219.2875
1338.47502	63257.5875
1341.97022	60880.3875
1345.46305	58715.2875
1348.95352	57686.0875
1352.44163	58435.7875
1355.92738	61571.5875
1359.41078	66614.2875
1362.89183	71067.2875
1366.37053	71781.0875
1369.84688	66372.7875
1373.32088	57322.9875
1376.79254	50498.5875
1380.26186	48043.1875
1383.72883	48130.5875
1387.19347	48047.8875
1390.65578	47227.9875
1394.11575	46990.9875
1397.57339	47855.1875
1401.0287	49273.9875
1404.48168	50349.6875
1407.93234	50136.6875
1411.38068	48589.2875
1414.82669	46415.1875
1418.27039	44092.1875
1421.71177	41867.3875
1425.15083	40110.3875
1428.58758	39449.6875
1432.02203	40141.7875
1435.45416	41829.8875
1438.88399	43381.6875
1442.31151	44313.2875
1445.73673	44732.1875
1449.15965	44868.3875
1452.58027	44570.9875
1455.9986	43940.6875
1459.41463	43773.4875
1462.82837	44386.7875
1466.23982	45469.4875
1469.64898	46567.9875
1473.05586	47211.6875
1476.46045	47460.3875
1479.86276	47214.2875
1483.26279	46879.3875
1486.66054	46790.4875
1490.05602	47244.2875
1493.44922	48000.5875
1496.84016	48566.6875
1500.22882	49100.8875
1503.61521	49950.6875
1506.99934	50963.2875
1510.38121	51906.4875
1513.76081	52233.0875
1517.13816	51507.5875
1520.51324	50335.8875
1523.88607	49654.0875
1527.25665	49713.3875
1530.62498	49859.2875
1533.99105	49382.4875
1537.35488	48213.5875
1540.71647	46357.9875
1544.07581	44402.8875
1547.4329	42467.4875
1550.78776	40900.8875
1554.14038	39919.3875
1557.49077	39331.8875
1560.83892	39146.2875
1564.18484	38968.0875
1567.52853	39118.3875
1570.86999	39637.4875
1574.20922	40665.5875
1577.54624	41782.8875
1580.88103	42486.8875
1584.2136	43618.0875
1587.54395	46161.1875
1590.87208	49954.9875
1594.19801	54029.5875
1597.52172	57191.4875
1600.84321	57182.1875
1604.16251	52816.6875
1607.47959	46557.6875
1610.79447	40591.5875
1614.10715	35977.0875
1617.41763	32671.7875
1620.7259	30818.7875
1624.03199	30095.9875
1627.33587	30441.2875
1630.63757	31905.7875
1633.93707	34903.9875
1637.23439	39967.4875
1640.52951	47714.5875
1643.82246	57275.4875
1647.11321	64781.1875
1650.40179	65427.1875
1653.68819	58434.1875
1656.97241	47821.0875
1660.25446	38422.9875
1663.53433	31981.6875
1666.81203	28080.7875
1670.08756	25846.6875
1673.36092	24451.6875
1676.63211	23573.6875
1679.90115	22953.1875
1683.16801	22502.6875
1686.43272	22195.7875
1689.69527	21981.8875
1692.95567	21754.2875
1696.2139	21616.5875
1699.46999	21559.0875
1702.72392	21432.5875
1705.97571	21347.3875
1709.22535	21270.6875
1712.47284	21194.9875
1715.71819	21162.4875
1718.96139	21124.0875
1722.20246	21064.8875
1725.44139	20936.9875
1728.67818	20762.9875
1731.91284	20589.9875
1735.14537	20442.5875
1738.37576	20298.8875
1741.60403	20218.5875
1744.83017	20165.2875
1748.05418	20069.6875
1751.27607	20035.4875
1754.49584	19983.2875
1757.71349	19975.3875
1760.92903	19964.0875
1764.14244	19920.0875
1767.35375	19926.8875
1770.56294	19862.8875
1773.77002	19825.5875
1776.97499	19794.6875
1780.17785	19690.6875
1783.37861	19691.8875
1786.57727	19636.6875
1789.77382	19604.4875
1792.96828	19571.7875
1796.16064	19535.4875
1799.3509	19464.4875
1802.53907	19448.3875
1805.72514	19388.4875
1808.90913	19367.1875
1812.09102	19288.6875
1815.27083	19249.6875
1818.44856	19260.2875
1821.6242	19236.8875
1824.79776	19203.7875
1827.96924	19212.7875
1831.13864	19206.3875
1834.30597	19253.3875
1837.47122	19266.8875
1840.6344	19271.0875
1843.7955	19307.1875
1846.95454	19268.6875
1850.11151	19300.4875
1853.26642	19213.2875
1856.41926	19249.0875
1859.57004	19212.6875
1862.71876	19183.7875
1865.86542	19178.9875
1869.01003	19149.3875
1872.15258	19133.2875
1875.29308	19115.2875
1878.43152	19056.8875
1881.56792	19023.6875
1884.70227	19025.6875
1887.83457	19002.4875
1890.96482	18969.9875
1894.09304	18946.1875
1897.21921	18918.7875
1900.34335	18855.3875
1903.46544	18805.3875
1906.58551	18832.7875
1909.70353	18752.1875
1912.81953	18679.9875
1915.93349	18657.6875
1919.04543	18609.7875
1922.15534	18587.1875
1925.26322	18497.7875
1928.36908	18434.1875
1931.47292	18367.8875
1934.57473	18295.1875
1937.67453	18256.4875
1940.77232	18220.6875
1943.86808	18175.6875
1946.96184	18134.2875
1950.05358	18133.7875
1953.14331	18032.1875
1956.23103	18021.0875
1959.31675	17987.2875
1962.40046	17902.4875
1965.48217	17868.2875
1968.56188	17782.7875
1971.63959	17722.6875
1974.7153	17656.8875
1977.78901	17629.5875
1980.86073	17569.2875
1983.93046	17507.1875
1986.99819	17429.6875
1990.06394	17398.4875
1993.1277	17370.1875
1996.18947	17281.1875
1999.24925	17197.7875
2002.30706	17167.0875
2005.36288	17109.5875
2008.41672	17101.6875
2011.46859	17027.1875
2014.51848	16999.1875
2017.56639	16942.8875
2020.61233	16890.6875
2023.6563	16861.4875
2026.6983	16826.8875
2029.73833	16807.1875
2032.7764	16762.0875
2035.8125	16720.6875
2038.84664	16694.4875
2041.87881	16717.0875
2044.90903	16702.2875
2047.93729	16647.3875
2050.96359	16672.8875
2053.98794	16617.1875
2057.01034	16578.7875
2060.03078	16565.4875
2063.04927	16521.5875
2066.06582	16557.5875
2069.08042	16526.1875
2072.09307	16503.7875
2075.10378	16500.8875
2078.11255	16499.7875
2081.11938	16506.3875
2084.12426	16516.0875
2087.12722	16474.8875
2090.12824	16457.1875
2093.12732	16449.5875
2096.12447	16523.0875
2099.11969	16525.0875
2102.11299	16534.7875
2105.10435	16530.5875
2108.09379	16540.2875
2111.08131	16532.2875
2114.0669	16547.9875
2117.05057	16561.9875
2120.03233	16560.5875
2123.01216	16513.3875
2125.99008	16539.4875
2128.96609	16529.1875
2131.94018	16547.7875
2134.91236	16533.4875
2137.88263	16539.1875
2140.851	16537.0875
2143.81746	16545.7875
2146.78201	16490.5875
2149.74466	16494.5875
2152.7054	16494.7875
2155.66425	16507.6875
2158.6212	16497.0875
2161.57625	16487.8875
2164.52941	16477.3875
2167.48067	16461.8875
2170.43004	16487.1875
2173.37752	16462.8875
2176.32311	16502.5875
2179.26681	16498.2875
2182.20863	16476.5875
2185.14856	16463.6875
2188.08661	16478.4875
2191.02278	16474.5875
2193.95707	16454.4875
2196.88948	16456.6875
2199.82001	16451.0875
2202.74867	16436.2875
2205.67545	16437.0875
2208.60037	16414.4875
2211.52341	16379.2875
2214.44458	16353.5875
2217.36388	16295.7875
2220.28132	16307.1875
2223.1969	16262.7875
2226.11061	16284.7875
2229.02246	16251.6875
2231.93245	16248.0875
2234.84058	16210.5875
2237.74686	16209.8875
2240.65128	16208.2875
2243.55385	16175.0875
2246.45456	16134.1875
2249.35343	16072.7875
2252.25044	16056.6875
2255.14561	16015.3875
2258.03893	16009.2875
2260.93041	15934.2875
2263.82004	15916.5875
2266.70783	15875.8875
2269.59378	15814.0875
2272.4779	15799.5875
2275.36017	15751.7875
2278.24061	15735.3875
2281.11922	15724.5875
2283.996	15677.5875
2286.87094	15685.0875
2289.74405	15646.8875
2292.61534	15577.2875
2295.4848	15602.3875
2298.35243	15576.6875
2301.21824	15604.4875
2304.08223	15597.3875
2306.94439	15611.6875
2309.80474	15606.4875
2312.66327	15629.3875
2315.51999	15584.8875
2318.37489	15611.6875
2321.22797	15556.5875
2324.07925	15554.2875
2326.92871	15543.3875
2329.77637	15525.2875
2332.62222	15517.3875
2335.46626	15508.3875
2338.3085	15510.8875
2341.14893	15528.0875
2343.98756	15505.3875
2346.8244	15507.5875
2349.65943	15473.7875
2352.49267	15450.1875
2355.32411	15486.1875
2358.15376	15486.6875
2360.98161	15457.0875
2363.80768	15482.9875
2366.63195	15457.9875
2369.45444	15445.8875
2372.27514	15422.3875
2375.09405	15376.9875
2377.91118	15376.2875
2380.72652	15310.9875
2383.54009	15293.0875
2386.35187	15235.6875
2389.16188	15202.7875
2391.97011	15197.6875
2394.77657	15160.3875
2397.58125	15150.4875
2400.38416	15158.0875
2403.18529	15142.6875
2405.98466	15065.9875
2408.78226	15043.2875
2411.57809	15041.6875
2414.37216	15020.0875
2417.16446	15010.2875
2419.955	15000.3875
2422.74378	15028.5875
2425.5308	14985.0875
2428.31606	14994.3875
2431.09956	14988.1875
2433.88131	14945.2875
2436.6613	14949.9875
2439.43954	14956.7875
2442.21603	14946.9875
2444.99077	14945.9875
2447.76377	14918.1875
2450.53501	14946.5875
2453.30451	14961.2875
2456.07226	14933.7875
2458.83827	14971.3875
2461.60254	14922.0875
2464.36507	14956.2875
2467.12586	14935.9875
2469.88492	14918.9875
2472.64224	14957.6875
2475.39782	14974.1875
2478.15167	14955.3875
2480.90379	14912.6875
2483.65417	14950.1875
2486.40283	14934.1875
2489.14976	14974.1875
2491.89497	14939.9875
2494.63845	14962.6875
2497.3802	14935.0875
2500.12024	14934.1875
2502.85855	14926.6875
2505.59514	14934.0875
2508.33002	14910.4875
2511.06318	14863.9875
2513.79462	14882.0875
2516.52435	14871.4875
2519.25237	14872.0875
2521.97867	14833.1875
2524.70327	14809.6875
2527.42616	14792.0875
2530.14734	14811.5875
2532.86681	14775.0875
2535.58458	14806.9875
2538.30065	14742.7875
2541.01501	14772.9875
2543.72768	14752.1875
2546.43864	14753.7875
2549.14791	14728.0875
2551.85548	14720.2875
2554.56136	14710.5875
2557.26554	14695.6875
2559.96803	14702.1875
2562.66883	14732.5875
2565.36794	14718.1875
2568.06536	14712.2875
2570.7611	14707.8875
2573.45514	14690.2875
2576.14751	14684.6875
2578.83819	14691.0875
2581.52719	14707.3875
2584.21451	14656.4875
2586.90015	14674.9875
2589.58411	14620.0875
2592.2664	14624.3875
2594.94701	14621.7875
2597.62594	14582.5875
2600.30321	14605.8875
2602.9788	14600.6875
2605.65273	14595.6875
2608.32498	14593.3875
2610.99557	14583.9875
2613.66449	14610.3875
2616.33175	14573.5875
2618.99734	14604.0875
2621.66128	14593.4875
2624.32355	14607.0875
2626.98416	14564.2875
2629.64311	14549.0875
2632.30041	14532.3875
2634.95605	14537.1875
2637.61004	14560.5875
2640.26238	14520.7875
2642.91306	14497.0875
2645.56209	14479.8875
2648.20948	14477.5875
2650.85521	14529.7875
2653.4993	14486.4875
2656.14175	14509.6875
2658.78255	14539.2875
2661.42171	14542.3875
2664.05923	14557.1875
2666.6951	14527.3875
2669.32934	14555.1875
2671.96194	14554.2875
2674.59291	14596.2875
2677.22224	14567.8875
2679.84993	14591.8875
2682.476	14561.0875
2685.10043	14555.8875
2687.72324	14539.4875
2690.34441	14515.4875
2692.96396	14553.3875
2695.58188	14548.0875
2698.19818	14520.3875
2700.81285	14535.2875
2703.4259	14530.9875
2706.03733	14585.5875
2708.64714	14585.7875
2711.25533	14572.4875
2713.86191	14587.3875
2716.46687	14609.4875
2719.07021	14553.1875
2721.67194	14596.6875
2724.27206	14580.5875
2726.87057	14609.6875
2729.46747	14593.2875
2732.06276	14617.2875
2734.65644	14667.9875
2737.24852	14665.1875
2739.83899	14659.0875
2742.42786	14671.1875
2745.01513	14626.8875
2747.60079	14618.4875
2750.18486	14630.7875
2752.76733	14607.7875
2755.3482	14608.9875
2757.92747	14638.7875
2760.50515	14624.1875
2763.08123	14623.1875
2765.65573	14593.9875
2768.22863	14607.6875
2770.79994	14604.0875
2773.36967	14579.8875
2775.9378	14594.2875
2778.50435	14579.5875
2781.06932	14575.6875
2783.6327	14582.6875
2786.1945	14569.2875
2788.75471	14605.6875
2791.31335	14574.9875
2793.87041	14563.9875
2796.42589	14501.7875
2798.97979	14460.9875
2801.53212	14497.9875
2804.08288	14464.2875
2806.63206	14446.5875
2809.17967	14435.3875
2811.72571	14416.8875
2814.27018	14359.7875
2816.81308	14394.9875
2819.35442	14395.3875
2821.89419	14363.5875
2824.43239	14354.9875
2826.96904	14328.4875
2829.50412	14331.3875
2832.03763	14322.3875
2834.56959	14304.7875
2837.1	14286.1875
2839.62884	14311.2875
2842.15613	14329.2875
2844.68186	14415.3875
2847.20604	14426.3875
2849.72867	14445.5875
2852.24974	14461.3875
2854.76927	14446.3875
2857.28724	14440.4875
2859.80367	14465.1875
2862.31855	14422.5875
2864.83189	14402.8875
2867.34368	14374.9875
2869.85393	14411.1875
2872.36264	14398.7875
2874.8698	14399.1875
2877.37543	14434.7875
2879.87952	14435.6875
2882.38207	14493.4875
2884.88308	14496.8875
2887.38256	14500.0875
2889.88051	14504.8875
2892.37692	14522.5875
2894.8718	14522.5875
2897.36515	14535.8875
2899.85698	14534.8875
2902.34727	14568.2875
2904.83604	14554.1875
2907.32328	14587.3875
2909.809	14599.9875
2912.29319	14596.3875
2914.77587	14582.0875
2917.25702	14556.4875
2919.73665	14541.8875
2922.21476	14551.4875
2924.69136	14558.7875
2927.16644	14540.4875
2929.64	14557.9875
2932.11205	14543.9875
2934.58258	14483.5875
2937.05161	14500.1875
2939.51912	14469.3875
2941.98513	14425.8875
2944.44962	14353.7875
2946.91261	14299.9875
2949.37409	14301.4875
2951.83407	14290.3875
2954.29254	14252.9875
2956.74951	14202.0875
2959.20498	14206.4875
2961.65895	14126.7875
2964.11142	14107.8875
2966.56239	14084.5875
2969.01186	14067.8875
2971.45984	14001.6875
2973.90632	13961.2875
2976.35131	13928.8875
2978.7948	13842.9875
2981.23681	13805.2875
2983.67732	13757.4875
2986.11635	13694.3875
2988.55388	13700.0875
2990.98993	13639.6875
2993.4245	13607.2875
2995.85758	13565.1875
2998.28917	13552.4875
3000.71928	13552.0875
3003.14791	13532.6875
3005.57506	13485.1875
3008.00073	13435.3875
3010.42493	13464.8875
3012.84764	13417.4875
3015.26888	13406.3875
3017.68865	13371.7875
3020.10694	13335.8875
3022.52376	13300.4875
3024.9391	13291.2875
3027.35298	13277.2875
3029.76539	13246.1875
3032.17632	13224.8875
3034.5858	13192.5875
3036.9938	13240.8875
3039.40034	13192.2875
3041.80542	13204.0875
3044.20903	13193.3875
3046.61118	13158.0875
3049.01187	13129.3875
3051.4111	13130.6875
3053.80888	13057.9875
3056.20519	13037.2875
3058.60005	13012.2875
3060.99345	12986.3875
3063.3854	12973.5875
3065.7759	12940.4875
3068.16494	12915.5875
3070.55254	12875.1875
3072.93868	12851.6875
3075.32338	12800.7875
3077.70662	12793.9875
3080.08842	12705.3875
3082.46878	12730.7875
3084.84769	12751.5875
3087.22515	12713.2875
3089.60118	12700.3875
3091.97576	12689.5875
3094.3489	12640.9875
3096.72061	12652.3875
3099.09087	12674.6875
3101.4597	12622.7875
3103.82709	12605.5875
3106.19305	12569.4875
3108.55757	12594.7875
3110.92066	12542.0875
3113.28232	12514.2875
3115.64255	12470.9875
3118.00134	12448.8875
3120.35871	12430.6875
3122.71466	12411.7875
3125.06917	12402.5875
3127.42226	12369.5875
3129.77393	12397.1875
3132.12417	12358.7875
3134.47299	12352.6875
3136.82039	12353.2875
3139.16636	12345.5875
3141.51092	12320.4875
3143.85406	12344.6875
3146.19579	12366.6875
3148.53609	12353.3875
3150.87499	12354.3875
3153.21246	12321.7875
3155.54853	12298.5875
3157.88318	12310.2875
3160.21642	12322.7875
3162.54826	12309.5875
3164.87868	12305.6875
3167.2077	12282.2875
3169.5353	12294.7875
3171.86151	12294.0875
3174.18631	12272.0875
3176.5097	12262.9875
3178.83169	12259.6875
3181.15228	12268.2875
3183.47147	12231.0875
3185.78926	12218.1875
3188.10565	12192.2875
3190.42065	12193.1875
3192.73424	12206.0875
3195.04645	12196.8875
3197.35725	12168.8875
3199.66667	12157.9875
3201.97469	12165.8875
3204.28132	12118.7875
3206.58656	12156.4875
3208.8904	12168.9875
3211.19287	12134.5875
3213.49394	12147.8875
3215.79363	12136.2875
3218.09193	12140.9875
3220.38884	12143.2875
3222.68438	12146.1875
3224.97853	12155.8875
3227.2713	12147.8875
3229.56269	12120.6875
3231.8527	12091.3875
3234.14133	12085.8875
3236.42858	12037.5875
3238.71446	12068.0875
3240.99896	12024.9875
3243.28209	12061.5875
3245.56384	12037.3875
3247.84423	12056.6875
3250.12324	12018.3875
3252.40088	12029.3875
3254.67715	11983.6875
3256.95205	11942.0875
3259.22558	11917.5875
3261.49775	11904.4875
3263.76855	11900.6875
3266.03799	11854.1875
3268.30606	11866.8875
3270.57277	11833.7875
3272.83812	11804.6875
3275.10211	11791.8875
3277.36474	11812.9875
3279.62601	11805.4875
3281.88593	11811.4875
3284.14448	11853.2875
3286.40168	11830.0875
3288.65753	11784.7875
3290.91202	11803.8875
3293.16516	11747.4875
3295.41695	11712.0875
3297.66738	11658.7875
3299.91647	11576.1875
3302.16421	11514.4875
3304.4106	11477.1875
3306.65564	11409.7875
3308.89933	11319.9875
3311.14169	11257.5875
3313.38269	11146.9875
3315.62236	11074.1875
3317.86068	10971.0875
3320.09766	10881.3875
3322.3333	10792.1875
3324.5676	10785.9875
3326.80056	10625.7875
3329.03219	10589.5875
3331.26248	1.7875
3333.49143	0.3875
3335.71905	-1.9125
