Data from AgNPs_FTO_APTES_UA_2uM_CRN_50uM_R6G_10uM_NaF_0.1M_Addition_RamanShift__2__14-38-35-230.txt Node

Date: Wed Feb 02 14:38:35 GMT 2022
User: TCL
Spectrometer: QEP01345
Trigger mode: 4
Integration Time (sec): 7.000000E0
Scans to average: 10
Electric dark correction enabled: true
Nonlinearity correction enabled: false
Boxcar width: 0
XAxis mode: Raman Shifts
Number of Pixels in Spectrum: 1044
>>>>>Begin Spectral Data<<<<<
46.04893	1.1875
50.45542	-1.1125
54.85868	-0.9125
59.25871	-0.5125
63.6555	101.3875
68.04907	107.5875
72.43941	107.7875
76.82654	116.7875
81.21044	120.2875
85.59113	125.7875
89.96862	130.3875
94.34289	133.9875
98.71396	136.2875
103.08183	143.5875
107.4465	145.2875
111.80798	149.9875
116.16626	150.5875
120.52136	158.1875
124.87327	167.9875
129.222	168.7875
133.56755	182.7875
137.90993	190.7875
142.24913	215.7875
146.58517	247.9875
150.91804	279.8875
155.24774	336.6875
159.57429	412.3875
163.89768	530.4875
168.21792	691.5875
172.53501	944.8875
176.84895	1320.5875
181.15975	1858.7875
185.46741	2596.6875
189.77193	3557.8875
194.07331	4769.9875
198.37157	6133.9875
202.6667	7560.0875
206.9587	8971.8875
211.24758	10366.0875
215.53334	11794.6875
219.81599	13320.9875
224.09553	15002.3875
228.37195	16816.6875
232.64527	18750.4875
236.91549	20812.8875
241.18261	22853.9875
245.44663	24715.0875
249.70755	26387.0875
253.96539	27878.6875
258.22014	29122.0875
262.4718	30185.0875
266.72039	30984.0875
270.96589	31379.7875
275.20832	31418.8875
279.44768	31216.2875
283.68397	31015.1875
287.91719	30826.2875
292.14735	30737.6875
296.37445	30773.7875
300.59849	30965.4875
304.81948	31135.5875
309.03742	31079.2875
313.25231	30830.0875
317.46415	30256.4875
321.67296	29491.7875
325.87872	28818.7875
330.08145	28447.9875
334.28114	28331.1875
338.47781	28428.0875
342.67145	28679.9875
346.86207	29124.3875
351.04966	29627.1875
355.23424	30216.0875
359.4158	30760.8875
363.59435	31188.4875
367.76989	31456.5875
371.94243	31641.8875
376.11196	31736.4875
380.27849	31818.8875
384.44203	31959.9875
388.60257	32288.1875
392.76012	32625.4875
396.91468	33115.5875
401.06626	33635.6875
405.21485	33953.2875
409.36047	33856.0875
413.50311	33574.7875
417.64277	33371.5875
421.77947	33475.0875
425.9132	33675.0875
430.04396	33873.5875
434.17176	34004.1875
438.2966	34212.0875
442.41849	34839.9875
446.53742	35944.1875
450.6534	37220.1875
454.76644	38157.5875
458.87653	38365.0875
462.98368	37984.9875
467.08789	37337.0875
471.18916	36707.9875
475.2875	36115.7875
479.38291	35898.2875
483.4754	35754.0875
487.56496	35356.6875
491.6516	34697.9875
495.73531	33965.7875
499.81612	33547.2875
503.89401	33530.6875
507.96899	33608.1875
512.04106	33447.2875
516.11023	33037.9875
520.1765	32610.9875
524.23987	32188.0875
528.30034	31933.1875
532.35792	31595.9875
536.41261	31176.5875
540.46441	30798.6875
544.51333	30814.4875
548.55936	31208.5875
552.60252	32008.0875
556.64279	33027.7875
560.6802	33876.1875
564.71473	34392.5875
568.7464	35097.1875
572.7752	36357.8875
576.80114	37558.9875
580.82422	38821.2875
584.84444	40372.8875
588.86181	42242.8875
592.87633	43659.5875
596.888	43104.2875
600.89682	40990.1875
604.9028	40196.9875
608.90594	42495.4875
612.90624	44932.3875
616.90371	41971.4875
620.89834	35317.6875
624.89015	32335.5875
628.87913	31979.1875
632.86528	31986.8875
636.84862	31695.0875
640.82913	31067.4875
644.80683	30205.6875
648.78172	29815.8875
652.75379	29828.4875
656.72306	30181.6875
660.68952	30583.7875
664.65319	30292.5875
668.61405	29690.7875
672.57211	29586.7875
676.52738	29765.0875
680.47986	29766.0875
684.42955	29456.7875
688.37646	29376.3875
692.32058	29580.8875
696.26192	30109.9875
700.20048	30713.3875
704.13626	31059.3875
708.06928	30980.1875
711.99952	30824.5875
715.927	30903.5875
719.85171	31114.9875
723.77365	30991.1875
727.69284	30468.9875
731.60928	29960.3875
735.52295	29738.6875
739.43388	29710.3875
743.34206	29861.5875
747.24749	30106.6875
751.15017	30489.0875
755.05012	31110.1875
758.94733	32164.4875
762.8418	33855.7875
766.73354	36200.1875
770.62254	38135.2875
774.50882	38194.5875
778.39237	36301.0875
782.27321	33742.8875
786.15132	31683.3875
790.02671	30495.1875
793.89938	29915.7875
797.76935	29737.6875
801.6366	29740.5875
805.50115	29706.8875
809.36299	29514.3875
813.22213	29287.0875
817.07857	29086.9875
820.93231	28894.9875
824.78336	28698.7875
828.63172	28558.3875
832.47738	28517.6875
836.32036	28628.8875
840.16066	28766.7875
843.99827	28856.4875
847.8332	28727.0875
851.66546	28557.5875
855.49504	28515.5875
859.32195	28505.2875
863.1462	28369.7875
866.96777	28228.3875
870.78668	28141.9875
874.60293	28098.7875
878.41652	28165.0875
882.22745	28272.0875
886.03573	28335.1875
889.84136	28351.7875
893.64433	28190.8875
897.44466	28066.2875
901.24235	27960.2875
905.0374	27901.7875
908.8298	27873.0875
912.61957	27964.1875
916.40671	28300.3875
920.19121	28846.5875
923.97308	29341.1875
927.75233	29430.3875
931.52895	29062.1875
935.30295	28556.2875
939.07433	27944.5875
942.84309	27493.5875
946.60924	27248.4875
950.37278	27218.8875
954.13371	27232.1875
957.89203	27199.7875
961.64774	27170.4875
965.40086	27234.7875
969.15137	27153.8875
972.89929	26966.5875
976.64461	26850.6875
980.38733	26890.5875
984.12747	26960.3875
987.86502	27164.6875
991.59999	27510.2875
995.33237	27998.8875
999.06217	28857.8875
1002.78939	29841.7875
1006.51404	30515.2875
1010.23611	30942.5875
1013.95561	31214.2875
1017.67255	31284.7875
1021.38692	30920.6875
1025.09872	30422.2875
1028.80796	30461.4875
1032.51465	31291.2875
1036.21877	32232.4875
1039.92035	32541.7875
1043.61937	32200.6875
1047.31584	31516.2875
1051.00976	30619.1875
1054.70114	30146.1875
1058.38998	30072.9875
1062.07627	30211.8875
1065.76003	30425.9875
1069.44126	30750.5875
1073.11995	31193.4875
1076.79611	31605.3875
1080.46974	31856.8875
1084.14085	32161.7875
1087.80943	32604.8875
1091.47549	32906.8875
1095.13903	32889.1875
1098.80005	32402.6875
1102.45857	31566.2875
1106.11456	30978.0875
1109.76805	30731.7875
1113.41903	30713.2875
1117.06751	30917.7875
1120.71348	31215.3875
1124.35696	31539.7875
1127.99793	31988.1875
1131.63641	32259.2875
1135.2724	32275.3875
1138.90589	32176.3875
1142.5369	32331.6875
1146.16542	32697.9875
1149.79145	33197.6875
1153.415	33690.2875
1157.03607	34515.1875
1160.65467	36030.1875
1164.27079	38173.4875
1167.88443	40656.5875
1171.49561	43089.3875
1175.10432	46070.2875
1178.71056	49923.3875
1182.31434	53579.7875
1185.91565	55133.0875
1189.51451	54460.7875
1193.11091	52758.5875
1196.70485	50813.9875
1200.29634	48961.9875
1203.88538	47805.6875
1207.47197	47286.4875
1211.05612	46788.2875
1214.63782	45865.3875
1218.21708	44510.1875
1221.79391	43155.4875
1225.36829	42292.2875
1228.94024	41390.1875
1232.50976	40467.4875
1236.07685	39662.9875
1239.6415	39221.6875
1243.20374	39311.6875
1246.76355	39782.5875
1250.32093	40523.7875
1253.8759	41557.0875
1257.42845	42909.2875
1260.97859	44251.7875
1264.52631	45718.2875
1268.07163	47227.3875
1271.61453	48785.9875
1275.15503	50482.0875
1278.69312	52345.8875
1282.22882	54245.5875
1285.76211	56502.7875
1289.29301	59204.8875
1292.82151	62504.8875
1296.34761	66622.4875
1299.87133	71378.9875
1303.39266	76392.5875
1306.9116	80618.7875
1310.42815	83518.6875
1313.94233	84688.2875
1317.45412	83792.3875
1320.96354	81992.8875
1324.47058	80400.9875
1327.97525	79348.4875
1331.47754	78539.2875
1334.97747	77893.7875
1338.47502	76777.5875
1341.97022	74747.7875
1345.46305	72344.6875
1348.95352	70750.4875
1352.44163	70490.1875
1355.92738	72354.7875
1359.41078	75780.5875
1362.89183	78336.2875
1366.37053	77246.1875
1369.84688	71243.8875
1373.32088	63106.1875
1376.79254	57455.8875
1380.26186	55854.9875
1383.72883	56390.1875
1387.19347	56934.6875
1390.65578	56609.8875
1394.11575	56520.9875
1397.57339	57555.0875
1401.0287	59219.8875
1404.48168	60420.1875
1407.93234	60514.9875
1411.38068	59097.0875
1414.82669	56707.8875
1418.27039	53876.5875
1421.71177	50958.0875
1425.15083	48522.4875
1428.58758	47325.6875
1432.02203	47785.5875
1435.45416	49428.0875
1438.88399	51521.3875
1442.31151	53101.4875
1445.73673	54067.7875
1449.15965	54776.8875
1452.58027	54898.1875
1455.9986	54531.1875
1459.41463	54361.4875
1462.82837	54895.5875
1466.23982	55952.5875
1469.64898	57089.7875
1473.05586	57832.4875
1476.46045	58066.8875
1479.86276	57700.5875
1483.26279	56845.2875
1486.66054	56199.2875
1490.05602	56210.2875
1493.44922	56566.6875
1496.84016	56669.3875
1500.22882	56973.4875
1503.61521	57608.6875
1506.99934	58707.4875
1510.38121	59784.7875
1513.76081	60079.7875
1517.13816	59292.5875
1520.51324	57969.1875
1523.88607	57101.4875
1527.25665	57118.4875
1530.62498	57417.5875
1533.99105	57513.3875
1537.35488	56906.1875
1540.71647	55550.3875
1544.07581	53808.3875
1547.4329	51938.3875
1550.78776	50376.0875
1554.14038	49154.7875
1557.49077	48548.1875
1560.83892	48085.7875
1564.18484	47825.1875
1567.52853	47907.4875
1570.86999	48430.9875
1574.20922	49506.8875
1577.54624	50792.7875
1580.88103	51853.1875
1584.2136	53319.7875
1587.54395	56122.2875
1590.87208	60060.0875
1594.19801	64450.9875
1597.52172	68087.7875
1600.84321	68515.3875
1604.16251	64441.8875
1607.47959	57828.6875
1610.79447	51110.1875
1614.10715	45583.0875
1617.41763	41613.4875
1620.7259	39155.9875
1624.03199	38136.8875
1627.33587	38497.2875
1630.63757	40169.6875
1633.93707	43471.6875
1637.23439	48735.0875
1640.52951	56286.4875
1643.82246	65124.5875
1647.11321	71773.3875
1650.40179	72274.2875
1653.68819	65578.3875
1656.97241	55210.1875
1660.25446	45692.3875
1663.53433	38924.6875
1666.81203	34646.5875
1670.08756	31994.7875
1673.36092	30431.6875
1676.63211	29377.1875
1679.90115	28626.8875
1683.16801	28050.9875
1686.43272	27675.3875
1689.69527	27375.0875
1692.95567	27170.1875
1696.2139	27022.8875
1699.46999	26897.0875
1702.72392	26784.0875
1705.97571	26708.9875
1709.22535	26574.7875
1712.47284	26510.6875
1715.71819	26477.5875
1718.96139	26375.7875
1722.20246	26303.2875
1725.44139	26194.3875
1728.67818	25997.1875
1731.91284	25839.3875
1735.14537	25691.0875
1738.37576	25553.1875
1741.60403	25453.8875
1744.83017	25404.9875
1748.05418	25346.0875
1751.27607	25318.5875
1754.49584	25233.0875
1757.71349	25189.0875
1760.92903	25206.6875
1764.14244	25136.4875
1767.35375	25175.1875
1770.56294	25071.8875
1773.77002	25015.8875
1776.97499	25025.7875
1780.17785	24931.6875
1783.37861	24902.6875
1786.57727	24863.7875
1789.77382	24825.7875
1792.96828	24792.7875
1796.16064	24748.6875
1799.3509	24715.1875
1802.53907	24680.8875
1805.72514	24567.5875
1808.90913	24538.3875
1812.09102	24498.0875
1815.27083	24467.1875
1818.44856	24444.7875
1821.6242	24414.0875
1824.79776	24368.8875
1827.96924	24387.4875
1831.13864	24376.3875
1834.30597	24385.1875
1837.47122	24415.3875
1840.6344	24436.1875
1843.7955	24412.9875
1846.95454	24412.3875
1850.11151	24410.0875
1853.26642	24403.4875
1856.41926	24386.9875
1859.57004	24370.4875
1862.71876	24312.1875
1865.86542	24310.5875
1869.01003	24306.5875
1872.15258	24279.1875
1875.29308	24284.9875
1878.43152	24253.2875
1881.56792	24281.9875
1884.70227	24202.1875
1887.83457	24215.3875
1890.96482	24185.1875
1894.09304	24163.1875
1897.21921	24187.6875
1900.34335	24141.9875
1903.46544	24056.6875
1906.58551	24088.7875
1909.70353	23992.9875
1912.81953	23993.4875
1915.93349	23924.6875
1919.04543	23879.9875
1922.15534	23800.6875
1925.26322	23791.1875
1928.36908	23728.9875
1931.47292	23679.6875
1934.57473	23608.4875
1937.67453	23546.5875
1940.77232	23488.4875
1943.86808	23451.3875
1946.96184	23414.1875
1950.05358	23329.5875
1953.14331	23267.2875
1956.23103	23242.3875
1959.31675	23154.3875
1962.40046	23105.6875
1965.48217	23042.8875
1968.56188	22933.9875
1971.63959	22854.4875
1974.7153	22821.0875
1977.78901	22800.3875
1980.86073	22731.5875
1983.93046	22659.3875
1986.99819	22578.5875
1990.06394	22565.2875
1993.1277	22485.9875
1996.18947	22369.2875
1999.24925	22298.3875
2002.30706	22249.6875
2005.36288	22229.3875
2008.41672	22181.7875
2011.46859	22119.6875
2014.51848	22058.9875
2017.56639	21993.3875
2020.61233	21944.7875
2023.6563	21942.4875
2026.6983	21897.2875
2029.73833	21855.9875
2032.7764	21855.9875
2035.8125	21781.0875
2038.84664	21767.1875
2041.87881	21766.3875
2044.90903	21759.7875
2047.93729	21683.4875
2050.96359	21705.7875
2053.98794	21612.1875
2057.01034	21645.1875
2060.03078	21610.5875
2063.04927	21618.5875
2066.06582	21606.5875
2069.08042	21617.0875
2072.09307	21620.7875
2075.10378	21522.1875
2078.11255	21525.9875
2081.11938	21538.1875
2084.12426	21505.3875
2087.12722	21516.8875
2090.12824	21531.2875
2093.12732	21514.2875
2096.12447	21561.6875
2099.11969	21557.8875
2102.11299	21579.1875
2105.10435	21614.6875
2108.09379	21585.6875
2111.08131	21633.2875
2114.0669	21620.7875
2117.05057	21666.1875
2120.03233	21670.3875
2123.01216	21661.4875
2125.99008	21699.5875
2128.96609	21712.2875
2131.94018	21748.5875
2134.91236	21740.9875
2137.88263	21754.0875
2140.851	21742.5875
2143.81746	21794.5875
2146.78201	21794.5875
2149.74466	21837.1875
2152.7054	21791.0875
2155.66425	21828.6875
2158.6212	21829.3875
2161.57625	21804.3875
2164.52941	21829.7875
2167.48067	21756.8875
2170.43004	21764.2875
2173.37752	21744.6875
2176.32311	21721.0875
2179.26681	21779.3875
2182.20863	21770.3875
2185.14856	21844.4875
2188.08661	21799.5875
2191.02278	21806.4875
2193.95707	21839.7875
2196.88948	21836.0875
2199.82001	21808.8875
2202.74867	21790.3875
2205.67545	21806.2875
2208.60037	21781.5875
2211.52341	21734.1875
2214.44458	21748.7875
2217.36388	21690.3875
2220.28132	21722.5875
2223.1969	21698.9875
2226.11061	21634.2875
2229.02246	21586.6875
2231.93245	21582.4875
2234.84058	21562.1875
2237.74686	21524.7875
2240.65128	21565.2875
2243.55385	21504.4875
2246.45456	21528.3875
2249.35343	21426.2875
2252.25044	21379.4875
2255.14561	21386.6875
2258.03893	21336.7875
2260.93041	21284.7875
2263.82004	21227.9875
2266.70783	21212.5875
2269.59378	21145.2875
2272.4779	21089.9875
2275.36017	21003.9875
2278.24061	21004.4875
2281.11922	21005.0875
2283.996	20967.4875
2286.87094	20985.4875
2289.74405	20923.4875
2292.61534	20934.8875
2295.4848	20944.5875
2298.35243	20964.3875
2301.21824	20967.7875
2304.08223	21025.5875
2306.94439	20994.0875
2309.80474	20998.4875
2312.66327	21006.7875
2315.51999	20979.7875
2318.37489	21003.2875
2321.22797	20979.6875
2324.07925	20971.0875
2326.92871	20989.7875
2329.77637	20961.3875
2332.62222	20950.3875
2335.46626	20938.4875
2338.3085	20966.4875
2341.14893	20965.4875
2343.98756	20939.3875
2346.8244	20939.6875
2349.65943	20942.7875
2352.49267	20915.5875
2355.32411	20922.0875
2358.15376	20861.6875
2360.98161	20891.4875
2363.80768	20839.8875
2366.63195	20842.4875
2369.45444	20826.1875
2372.27514	20800.0875
2375.09405	20753.0875
2377.91118	20714.0875
2380.72652	20706.4875
2383.54009	20679.9875
2386.35187	20662.3875
2389.16188	20612.3875
2391.97011	20599.8875
2394.77657	20609.8875
2397.58125	20596.8875
2400.38416	20528.8875
2403.18529	20544.1875
2405.98466	20535.3875
2408.78226	20488.0875
2411.57809	20447.3875
2414.37216	20444.7875
2417.16446	20436.8875
2419.955	20431.3875
2422.74378	20437.8875
2425.5308	20388.3875
2428.31606	20408.4875
2431.09956	20367.0875
2433.88131	20363.8875
2436.6613	20355.7875
2439.43954	20315.9875
2442.21603	20333.7875
2444.99077	20327.6875
2447.76377	20342.9875
2450.53501	20378.4875
2453.30451	20375.8875
2456.07226	20332.2875
2458.83827	20395.7875
2461.60254	20392.9875
2464.36507	20398.3875
2467.12586	20383.3875
2469.88492	20401.3875
2472.64224	20391.3875
2475.39782	20424.6875
2478.15167	20444.3875
2480.90379	20462.6875
2483.65417	20454.8875
2486.40283	20462.7875
2489.14976	20501.7875
2491.89497	20497.1875
2494.63845	20516.6875
2497.3802	20476.0875
2500.12024	20488.2875
2502.85855	20526.0875
2505.59514	20555.7875
2508.33002	20510.2875
2511.06318	20523.4875
2513.79462	20514.9875
2516.52435	20471.3875
2519.25237	20477.9875
2521.97867	20447.5875
2524.70327	20457.0875
2527.42616	20445.3875
2530.14734	20451.3875
2532.86681	20442.8875
2535.58458	20440.1875
2538.30065	20442.9875
2541.01501	20410.4875
2543.72768	20393.4875
2546.43864	20378.7875
2549.14791	20374.9875
2551.85548	20397.2875
2554.56136	20376.8875
2557.26554	20382.2875
2559.96803	20346.4875
2562.66883	20377.0875
2565.36794	20388.0875
2568.06536	20396.1875
2570.7611	20391.6875
2573.45514	20361.0875
2576.14751	20370.8875
2578.83819	20341.3875
2581.52719	20376.4875
2584.21451	20357.9875
2586.90015	20398.1875
2589.58411	20368.0875
2592.2664	20397.3875
2594.94701	20342.1875
2597.62594	20356.4875
2600.30321	20313.5875
2602.9788	20308.7875
2605.65273	20308.9875
2608.32498	20336.0875
2610.99557	20338.4875
2613.66449	20366.9875
2616.33175	20351.4875
2618.99734	20370.1875
2621.66128	20329.4875
2624.32355	20346.1875
2626.98416	20344.7875
2629.64311	20357.6875
2632.30041	20392.5875
2634.95605	20353.4875
2637.61004	20336.4875
2640.26238	20322.8875
2642.91306	20317.5875
2645.56209	20317.0875
2648.20948	20312.7875
2650.85521	20290.2875
2653.4993	20332.5875
2656.14175	20318.0875
2658.78255	20369.3875
2661.42171	20392.0875
2664.05923	20418.5875
2666.6951	20448.6875
2669.32934	20450.6875
2671.96194	20443.3875
2674.59291	20438.5875
2677.22224	20423.0875
2679.84993	20442.1875
2682.476	20416.3875
2685.10043	20428.1875
2687.72324	20396.9875
2690.34441	20387.8875
2692.96396	20426.6875
2695.58188	20381.4875
2698.19818	20412.0875
2700.81285	20436.3875
2703.4259	20435.1875
2706.03733	20505.8875
2708.64714	20511.9875
2711.25533	20505.3875
2713.86191	20526.0875
2716.46687	20558.1875
2719.07021	20567.6875
2721.67194	20620.1875
2724.27206	20604.8875
2726.87057	20668.5875
2729.46747	20671.0875
2732.06276	20663.3875
2734.65644	20650.1875
2737.24852	20680.8875
2739.83899	20654.7875
2742.42786	20616.0875
2745.01513	20575.9875
2747.60079	20596.7875
2750.18486	20575.9875
2752.76733	20622.3875
2755.3482	20649.7875
2757.92747	20670.1875
2760.50515	20685.9875
2763.08123	20719.1875
2765.65573	20684.6875
2768.22863	20689.9875
2770.79994	20628.3875
2773.36967	20692.0875
2775.9378	20687.4875
2778.50435	20683.4875
2781.06932	20662.6875
2783.6327	20660.7875
2786.1945	20647.8875
2788.75471	20652.9875
2791.31335	20597.2875
2793.87041	20630.0875
2796.42589	20584.6875
2798.97979	20584.4875
2801.53212	20564.3875
2804.08288	20552.5875
2806.63206	20481.7875
2809.17967	20458.1875
2811.72571	20404.2875
2814.27018	20422.3875
2816.81308	20391.5875
2819.35442	20374.0875
2821.89419	20320.2875
2824.43239	20343.6875
2826.96904	20271.6875
2829.50412	20308.6875
2832.03763	20284.5875
2834.56959	20316.1875
2837.1	20287.7875
2839.62884	20291.1875
2842.15613	20262.6875
2844.68186	20314.7875
2847.20604	20362.8875
2849.72867	20336.4875
2852.24974	20343.7875
2854.76927	20314.0875
2857.28724	20286.2875
2859.80367	20254.2875
2862.31855	20262.7875
2864.83189	20235.5875
2867.34368	20217.1875
2869.85393	20258.9875
2872.36264	20214.0875
2874.8698	20246.2875
2877.37543	20261.3875
2879.87952	20215.0875
2882.38207	20246.6875
2884.88308	20258.4875
2887.38256	20273.6875
2889.88051	20287.8875
2892.37692	20325.7875
2894.8718	20296.9875
2897.36515	20357.5875
2899.85698	20354.7875
2902.34727	20429.2875
2904.83604	20400.3875
2907.32328	20468.2875
2909.809	20420.2875
2912.29319	20438.0875
2914.77587	20408.3875
2917.25702	20425.3875
2919.73665	20396.0875
2922.21476	20402.6875
2924.69136	20407.7875
2927.16644	20436.9875
2929.64	20447.1875
2932.11205	20421.3875
2934.58258	20363.9875
2937.05161	20429.2875
2939.51912	20424.6875
2941.98513	20433.7875
2944.44962	20351.2875
2946.91261	20257.9875
2949.37409	20295.4875
2951.83407	20277.5875
2954.29254	20286.6875
2956.74951	20253.4875
2959.20498	20274.9875
2961.65895	20241.3875
2964.11142	20236.3875
2966.56239	20196.2875
2969.01186	20189.4875
2971.45984	20175.3875
2973.90632	20129.7875
2976.35131	20108.9875
2978.7948	20024.8875
2981.23681	19989.7875
2983.67732	19948.0875
2986.11635	19925.7875
2988.55388	19862.2875
2990.98993	19852.1875
2993.4245	19804.5875
2995.85758	19790.5875
2998.28917	19757.8875
3000.71928	19726.9875
3003.14791	19672.9875
3005.57506	19637.2875
3008.00073	19612.0875
3010.42493	19611.4875
3012.84764	19590.3875
3015.26888	19573.9875
3017.68865	19527.9875
3020.10694	19481.2875
3022.52376	19483.6875
3024.9391	19414.3875
3027.35298	19389.5875
3029.76539	19398.4875
3032.17632	19414.8875
3034.5858	19417.4875
3036.9938	19412.5875
3039.40034	19353.8875
3041.80542	19335.6875
3044.20903	19322.1875
3046.61118	19298.8875
3049.01187	19264.5875
3051.4111	19230.6875
3053.80888	19149.8875
3056.20519	19161.6875
3058.60005	19100.7875
3060.99345	19080.0875
3063.3854	19067.4875
3065.7759	19023.6875
3068.16494	19009.1875
3070.55254	18914.6875
3072.93868	18892.3875
3075.32338	18845.1875
3077.70662	18812.5875
3080.08842	18767.7875
3082.46878	18755.1875
3084.84769	18711.2875
3087.22515	18748.7875
3089.60118	18764.3875
3091.97576	18749.0875
3094.3489	18712.0875
3096.72061	18708.2875
3099.09087	18712.6875
3101.4597	18644.9875
3103.82709	18706.9875
3106.19305	18667.8875
3108.55757	18658.6875
3110.92066	18528.5875
3113.28232	18515.8875
3115.64255	18489.8875
3118.00134	18466.2875
3120.35871	18408.9875
3122.71466	18380.1875
3125.06917	18361.2875
3127.42226	18367.6875
3129.77393	18359.2875
3132.12417	18321.3875
3134.47299	18358.1875
3136.82039	18322.4875
3139.16636	18314.5875
3141.51092	18324.0875
3143.85406	18331.4875
3146.19579	18347.2875
3148.53609	18323.0875
3150.87499	18312.3875
3153.21246	18325.1875
3155.54853	18336.2875
3157.88318	18301.6875
3160.21642	18302.4875
3162.54826	18301.8875
3164.87868	18322.2875
3167.2077	18240.9875
3169.5353	18316.3875
3171.86151	18309.4875
3174.18631	18244.5875
3176.5097	18263.5875
3178.83169	18234.6875
3181.15228	18212.1875
3183.47147	18161.1875
3185.78926	18202.4875
3188.10565	18181.8875
3190.42065	18174.4875
3192.73424	18185.1875
3195.04645	18169.2875
3197.35725	18122.1875
3199.66667	18152.0875
3201.97469	18136.7875
3204.28132	18085.5875
3206.58656	18162.7875
3208.8904	18105.2875
3211.19287	18161.1875
3213.49394	18132.9875
3215.79363	18157.6875
3218.09193	18141.9875
3220.38884	18151.5875
3222.68438	18152.2875
3224.97853	18144.9875
3227.2713	18131.7875
3229.56269	18071.5875
3231.8527	18080.8875
3234.14133	18085.8875
3236.42858	18067.2875
3238.71446	18059.5875
3240.99896	17988.9875
3243.28209	18035.6875
3245.56384	18003.2875
3247.84423	18031.7875
3250.12324	17984.3875
3252.40088	17972.6875
3254.67715	17983.9875
3256.95205	17951.8875
3259.22558	17929.8875
3261.49775	17888.6875
3263.76855	17841.9875
3266.03799	17781.3875
3268.30606	17778.7875
3270.57277	17731.1875
3272.83812	17743.6875
3275.10211	17697.5875
3277.36474	17737.9875
3279.62601	17721.7875
3281.88593	17704.5875
3284.14448	17731.2875
3286.40168	17732.5875
3288.65753	17727.4875
3290.91202	17653.6875
3293.16516	17617.4875
3295.41695	17588.4875
3297.66738	17465.0875
3299.91647	17402.8875
3302.16421	17289.8875
3304.4106	17246.0875
3306.65564	17169.8875
3308.89933	17050.0875
3311.14169	16975.2875
3313.38269	16888.4875
3315.62236	16761.8875
3317.86068	16627.6875
3320.09766	16473.9875
3322.3333	16339.0875
3324.5676	16303.3875
3326.80056	16049.9875
3329.03219	15976.3875
3331.26248	3.7875
3333.49143	-0.7125
3335.71905	-1.3125
