Data from AgNPs_FTO_APTES_UA_2uM_CRN_20uM_R6G_10uM_NaF_0.1M_Addition_RamanShift__13__14-12-55-200.txt Node

Date: Wed Feb 02 14:12:55 GMT 2022
User: TCL
Spectrometer: QEP01345
Trigger mode: 4
Integration Time (sec): 7.000000E0
Scans to average: 10
Electric dark correction enabled: true
Nonlinearity correction enabled: false
Boxcar width: 0
XAxis mode: Raman Shifts
Number of Pixels in Spectrum: 1044
>>>>>Begin Spectral Data<<<<<
46.04893	0.6875
50.45542	0.8875
54.85868	-1.6125
59.25871	-0.4125
63.6555	97.8875
68.04907	103.1875
72.43941	106.0875
76.82654	113.4875
81.21044	113.1875
85.59113	121.3875
89.96862	125.6875
94.34289	127.1875
98.71396	135.1875
103.08183	141.7875
107.4465	144.9875
111.80798	150.0875
116.16626	147.6875
120.52136	158.3875
124.87327	162.1875
129.222	172.8875
133.56755	185.1875
137.90993	197.8875
142.24913	220.3875
146.58517	252.3875
150.91804	294.2875
155.24774	348.8875
159.57429	435.1875
163.89768	558.3875
168.21792	739.6875
172.53501	1011.9875
176.84895	1408.9875
181.15975	1991.4875
185.46741	2784.9875
189.77193	3836.8875
194.07331	5159.9875
198.37157	6647.6875
202.6667	8229.4875
206.9587	9821.2875
211.24758	11367.3875
215.53334	12876.7875
219.81599	14462.3875
224.09553	16189.8875
228.37195	18109.1875
232.64527	20193.8875
236.91549	22442.2875
241.18261	24720.7875
245.44663	26837.1875
249.70755	28843.8875
253.96539	30525.1875
258.22014	31980.6875
262.4718	33146.7875
266.72039	33955.3875
270.96589	34384.5875
275.20832	34534.1875
279.44768	34437.4875
283.68397	34259.9875
287.91719	34040.2875
292.14735	33899.1875
296.37445	33876.0875
300.59849	33940.6875
304.81948	33959.5875
309.03742	33920.6875
313.25231	33595.9875
317.46415	33007.7875
321.67296	32212.6875
325.87872	31510.7875
330.08145	31166.8875
334.28114	31109.2875
338.47781	31271.1875
342.67145	31495.1875
346.86207	31848.1875
351.04966	32261.4875
355.23424	32584.8875
359.4158	32979.2875
363.59435	33287.4875
367.76989	33474.4875
371.94243	33563.1875
376.11196	33684.6875
380.27849	33671.3875
384.44203	33775.8875
388.60257	33924.3875
392.76012	34374.1875
396.91468	34906.5875
401.06626	35509.4875
405.21485	35831.6875
409.36047	35723.1875
413.50311	35391.4875
417.64277	35101.5875
421.77947	35097.1875
425.9132	35218.6875
430.04396	35436.1875
434.17176	35595.6875
438.2966	35766.2875
442.41849	36103.2875
446.53742	36681.9875
450.6534	37325.4875
454.76644	37863.7875
458.87653	38137.8875
462.98368	38171.6875
467.08789	38063.6875
471.18916	37873.1875
475.2875	37660.4875
479.38291	37539.5875
483.4754	37482.2875
487.56496	37278.5875
491.6516	36854.8875
495.73531	36303.7875
499.81612	35854.2875
503.89401	35866.0875
507.96899	36004.9875
512.04106	36069.9875
516.11023	35942.5875
520.1765	35606.2875
524.23987	35244.6875
528.30034	34822.9875
532.35792	34458.1875
536.41261	34128.7875
540.46441	33908.4875
544.51333	34030.7875
548.55936	34495.0875
552.60252	35090.3875
556.64279	35803.3875
560.6802	36378.2875
564.71473	36880.3875
568.7464	37632.7875
572.7752	38881.1875
576.80114	40451.8875
580.82422	41768.2875
584.84444	42622.4875
588.86181	43272.4875
592.87633	43760.7875
596.888	43493.2875
600.89682	42285.7875
604.9028	41810.3875
608.90594	43069.0875
612.90624	44323.5875
616.90371	41751.1875
620.89834	36983.8875
624.89015	34937.1875
628.87913	34862.7875
632.86528	35286.2875
636.84862	35369.0875
640.82913	34857.8875
644.80683	34107.5875
648.78172	33474.8875
652.75379	33304.4875
656.72306	33533.5875
660.68952	33845.0875
664.65319	33791.4875
668.61405	33523.5875
672.57211	33498.1875
676.52738	33524.7875
680.47986	33509.0875
684.42955	33329.3875
688.37646	33256.1875
692.32058	33352.2875
696.26192	33609.7875
700.20048	33970.8875
704.13626	34263.6875
708.06928	34510.7875
711.99952	34483.9875
715.927	34368.0875
719.85171	34238.8875
723.77365	33925.2875
727.69284	33441.8875
731.60928	33017.9875
735.52295	32779.0875
739.43388	32642.7875
743.34206	32712.5875
747.24749	32925.2875
751.15017	33244.2875
755.05012	33811.3875
758.94733	34723.7875
762.8418	36128.3875
766.73354	38186.6875
770.62254	39925.1875
774.50882	40014.9875
778.39237	38411.4875
782.27321	36327.8875
786.15132	34731.7875
790.02671	33579.9875
793.89938	32912.6875
797.76935	32517.6875
801.6366	32383.1875
805.50115	32279.1875
809.36299	32095.0875
813.22213	31946.4875
817.07857	31917.1875
820.93231	31950.4875
824.78336	31830.2875
828.63172	31695.9875
832.47738	31562.9875
836.32036	31474.2875
840.16066	31398.2875
843.99827	31343.8875
847.8332	31349.0875
851.66546	31377.2875
855.49504	31432.3875
859.32195	31456.6875
863.1462	31404.4875
866.96777	31353.0875
870.78668	31310.5875
874.60293	31286.9875
878.41652	31290.5875
882.22745	31348.3875
886.03573	31358.9875
889.84136	31378.7875
893.64433	31327.0875
897.44466	31284.3875
901.24235	31257.1875
905.0374	31231.2875
908.8298	31186.6875
912.61957	31358.5875
916.40671	31677.5875
920.19121	32190.0875
923.97308	32464.1875
927.75233	32251.6875
931.52895	31834.6875
935.30295	31321.3875
939.07433	30752.4875
942.84309	30341.9875
946.60924	30117.9875
950.37278	30005.6875
954.13371	30011.1875
957.89203	30001.6875
961.64774	29965.2875
965.40086	29967.1875
969.15137	29938.3875
972.89929	29744.5875
976.64461	29563.3875
980.38733	29461.9875
984.12747	29434.5875
987.86502	29536.6875
991.59999	29690.3875
995.33237	29780.4875
999.06217	30012.4875
1002.78939	30399.0875
1006.51404	30807.5875
1010.23611	31169.5875
1013.95561	31444.3875
1017.67255	31530.3875
1021.38692	31356.0875
1025.09872	31023.2875
1028.80796	30728.6875
1032.51465	30508.6875
1036.21877	30567.7875
1039.92035	30698.9875
1043.61937	30891.1875
1047.31584	31010.8875
1051.00976	31143.8875
1054.70114	31315.2875
1058.38998	31659.1875
1062.07627	32152.8875
1065.76003	32612.4875
1069.44126	33118.0875
1073.11995	33573.9875
1076.79611	33937.6875
1080.46974	33994.7875
1084.14085	34107.9875
1087.80943	34331.3875
1091.47549	34706.0875
1095.13903	34904.0875
1098.80005	34648.2875
1102.45857	33876.1875
1106.11456	33084.7875
1109.76805	32566.6875
1113.41903	32407.1875
1117.06751	32466.7875
1120.71348	32701.3875
1124.35696	32975.6875
1127.99793	33301.5875
1131.63641	33564.6875
1135.2724	33609.2875
1138.90589	33562.5875
1142.5369	33677.4875
1146.16542	33938.5875
1149.79145	34357.4875
1153.415	34788.5875
1157.03607	35301.9875
1160.65467	36078.8875
1164.27079	37367.1875
1167.88443	38940.7875
1171.49561	40702.4875
1175.10432	42772.0875
1178.71056	45265.4875
1182.31434	47598.2875
1185.91565	49069.6875
1189.51451	49630.8875
1193.11091	49451.1875
1196.70485	48294.3875
1200.29634	46612.4875
1203.88538	45262.7875
1207.47197	44619.8875
1211.05612	44402.5875
1214.63782	43900.1875
1218.21708	42757.1875
1221.79391	41287.7875
1225.36829	39985.2875
1228.94024	39238.7875
1232.50976	38888.0875
1236.07685	38702.9875
1239.6415	38578.4875
1243.20374	38676.6875
1246.76355	38968.2875
1250.32093	39402.4875
1253.8759	40078.6875
1257.42845	41036.9875
1260.97859	42195.4875
1264.52631	43294.2875
1268.07163	44351.3875
1271.61453	45441.4875
1275.15503	46530.7875
1278.69312	47750.2875
1282.22882	49059.0875
1285.76211	50636.4875
1289.29301	52342.8875
1292.82151	54365.3875
1296.34761	56750.3875
1299.87133	59324.7875
1303.39266	61681.1875
1306.9116	63615.9875
1310.42815	64730.0875
1313.94233	65167.5875
1317.45412	65013.5875
1320.96354	64750.6875
1324.47058	65066.7875
1327.97525	65551.8875
1331.47754	66024.2875
1334.97747	66292.1875
1338.47502	66482.8875
1341.97022	66697.0875
1345.46305	66665.6875
1348.95352	66083.4875
1352.44163	64966.4875
1355.92738	63884.3875
1359.41078	63682.5875
1362.89183	63586.7875
1366.37053	62430.9875
1369.84688	59117.6875
1373.32088	54797.6875
1376.79254	51566.1875
1380.26186	50256.8875
1383.72883	50272.8875
1387.19347	50426.4875
1390.65578	50192.7875
1394.11575	49906.8875
1397.57339	49945.1875
1401.0287	50166.1875
1404.48168	50300.7875
1407.93234	49838.2875
1411.38068	48666.3875
1414.82669	46976.8875
1418.27039	45055.8875
1421.71177	43313.0875
1425.15083	41939.9875
1428.58758	41392.6875
1432.02203	41555.8875
1435.45416	42394.3875
1438.88399	43464.9875
1442.31151	44428.1875
1445.73673	45140.2875
1449.15965	45824.0875
1452.58027	46417.9875
1455.9986	46835.0875
1459.41463	47309.1875
1462.82837	47892.1875
1466.23982	48449.0875
1469.64898	49035.6875
1473.05586	49214.4875
1476.46045	49158.6875
1479.86276	48940.0875
1483.26279	48718.4875
1486.66054	48635.1875
1490.05602	48938.8875
1493.44922	49660.8875
1496.84016	50711.1875
1500.22882	51998.8875
1503.61521	53560.2875
1506.99934	55055.2875
1510.38121	56042.4875
1513.76081	56232.2875
1517.13816	55718.6875
1520.51324	54989.4875
1523.88607	54658.7875
1527.25665	54539.1875
1530.62498	54388.1875
1533.99105	53766.2875
1537.35488	52692.2875
1540.71647	51196.8875
1544.07581	49465.0875
1547.4329	47909.2875
1550.78776	46677.7875
1554.14038	46014.9875
1557.49077	45624.8875
1560.83892	45480.8875
1564.18484	45475.2875
1567.52853	45604.1875
1570.86999	45974.5875
1574.20922	46784.9875
1577.54624	47674.4875
1580.88103	48176.0875
1584.2136	48479.6875
1587.54395	49305.1875
1590.87208	50691.4875
1594.19801	52430.6875
1597.52172	53915.9875
1600.84321	53686.1875
1604.16251	51457.8875
1607.47959	48283.6875
1610.79447	45156.7875
1614.10715	42082.2875
1617.41763	39414.9875
1620.7259	37395.2875
1624.03199	36351.3875
1627.33587	36135.9875
1630.63757	36951.7875
1633.93707	38881.8875
1637.23439	42370.1875
1640.52951	47386.9875
1643.82246	53233.3875
1647.11321	57867.1875
1650.40179	59253.6875
1653.68819	56224.7875
1656.97241	50212.1875
1660.25446	43553.7875
1663.53433	38207.6875
1666.81203	34459.5875
1670.08756	31986.3875
1673.36092	30429.0875
1676.63211	29397.0875
1679.90115	28724.5875
1683.16801	28185.9875
1686.43272	27794.2875
1689.69527	27502.5875
1692.95567	27270.9875
1696.2139	27149.5875
1699.46999	27015.0875
1702.72392	26886.4875
1705.97571	26756.9875
1709.22535	26651.3875
1712.47284	26581.9875
1715.71819	26552.6875
1718.96139	26412.8875
1722.20246	26337.0875
1725.44139	26144.4875
1728.67818	26058.8875
1731.91284	25883.6875
1735.14537	25736.7875
1738.37576	25602.0875
1741.60403	25463.3875
1744.83017	25453.7875
1748.05418	25398.4875
1751.27607	25293.1875
1754.49584	25278.7875
1757.71349	25228.9875
1760.92903	25195.2875
1764.14244	25138.2875
1767.35375	25108.9875
1770.56294	25074.1875
1773.77002	24988.5875
1776.97499	24952.0875
1780.17785	24833.4875
1783.37861	24802.6875
1786.57727	24724.1875
1789.77382	24669.2875
1792.96828	24600.3875
1796.16064	24567.0875
1799.3509	24534.9875
1802.53907	24479.9875
1805.72514	24356.3875
1808.90913	24293.5875
1812.09102	24238.8875
1815.27083	24204.5875
1818.44856	24196.3875
1821.6242	24112.4875
1824.79776	24119.8875
1827.96924	24042.6875
1831.13864	24067.5875
1834.30597	24054.2875
1837.47122	24069.1875
1840.6344	24058.2875
1843.7955	24033.1875
1846.95454	24039.9875
1850.11151	24054.4875
1853.26642	24020.4875
1856.41926	23925.2875
1859.57004	23951.8875
1862.71876	23909.1875
1865.86542	23854.6875
1869.01003	23808.0875
1872.15258	23743.7875
1875.29308	23724.9875
1878.43152	23669.4875
1881.56792	23616.5875
1884.70227	23567.9875
1887.83457	23541.2875
1890.96482	23522.3875
1894.09304	23464.0875
1897.21921	23407.9875
1900.34335	23371.5875
1903.46544	23313.5875
1906.58551	23299.2875
1909.70353	23262.7875
1912.81953	23189.9875
1915.93349	23143.1875
1919.04543	23097.9875
1922.15534	23032.1875
1925.26322	22996.9875
1928.36908	22927.1875
1931.47292	22845.6875
1934.57473	22760.7875
1937.67453	22716.1875
1940.77232	22646.4875
1943.86808	22566.6875
1946.96184	22566.4875
1950.05358	22481.1875
1953.14331	22400.4875
1956.23103	22311.1875
1959.31675	22226.0875
1962.40046	22220.8875
1965.48217	22084.3875
1968.56188	22074.2875
1971.63959	21945.1875
1974.7153	21900.6875
1977.78901	21821.8875
1980.86073	21726.3875
1983.93046	21646.0875
1986.99819	21588.5875
1990.06394	21530.5875
1993.1277	21464.3875
1996.18947	21371.2875
1999.24925	21334.8875
2002.30706	21218.9875
2005.36288	21155.2875
2008.41672	21094.9875
2011.46859	20992.2875
2014.51848	20953.9875
2017.56639	20919.6875
2020.61233	20841.1875
2023.6563	20816.7875
2026.6983	20758.3875
2029.73833	20666.4875
2032.7764	20603.3875
2035.8125	20560.6875
2038.84664	20499.5875
2041.87881	20496.7875
2044.90903	20410.6875
2047.93729	20364.9875
2050.96359	20355.0875
2053.98794	20309.5875
2057.01034	20314.7875
2060.03078	20245.4875
2063.04927	20228.0875
2066.06582	20251.7875
2069.08042	20204.1875
2072.09307	20217.3875
2075.10378	20154.9875
2078.11255	20138.9875
2081.11938	20120.2875
2084.12426	20079.6875
2087.12722	20081.7875
2090.12824	20046.3875
2093.12732	20080.7875
2096.12447	20095.3875
2099.11969	20142.2875
2102.11299	20083.6875
2105.10435	20048.7875
2108.09379	20056.2875
2111.08131	20094.2875
2114.0669	20065.7875
2117.05057	20092.2875
2120.03233	20089.0875
2123.01216	20123.3875
2125.99008	20142.9875
2128.96609	20127.2875
2131.94018	20140.2875
2134.91236	20114.4875
2137.88263	20152.6875
2140.851	20135.8875
2143.81746	20148.1875
2146.78201	20128.9875
2149.74466	20095.5875
2152.7054	20098.4875
2155.66425	20049.2875
2158.6212	20054.6875
2161.57625	20062.5875
2164.52941	20053.6875
2167.48067	20050.1875
2170.43004	19996.1875
2173.37752	19954.0875
2176.32311	19935.4875
2179.26681	19966.8875
2182.20863	19926.2875
2185.14856	19961.2875
2188.08661	19928.2875
2191.02278	19938.7875
2193.95707	19912.9875
2196.88948	19838.9875
2199.82001	19868.2875
2202.74867	19835.4875
2205.67545	19835.4875
2208.60037	19761.6875
2211.52341	19721.1875
2214.44458	19723.3875
2217.36388	19654.7875
2220.28132	19605.7875
2223.1969	19548.1875
2226.11061	19511.4875
2229.02246	19508.9875
2231.93245	19483.9875
2234.84058	19449.7875
2237.74686	19412.7875
2240.65128	19372.4875
2243.55385	19323.5875
2246.45456	19315.6875
2249.35343	19282.8875
2252.25044	19236.8875
2255.14561	19199.3875
2258.03893	19155.1875
2260.93041	19113.0875
2263.82004	19034.8875
2266.70783	18957.1875
2269.59378	18876.5875
2272.4779	18834.0875
2275.36017	18760.2875
2278.24061	18778.3875
2281.11922	18742.5875
2283.996	18693.3875
2286.87094	18680.2875
2289.74405	18620.2875
2292.61534	18564.9875
2295.4848	18559.3875
2298.35243	18515.1875
2301.21824	18511.6875
2304.08223	18506.8875
2306.94439	18515.0875
2309.80474	18442.6875
2312.66327	18432.6875
2315.51999	18407.9875
2318.37489	18389.7875
2321.22797	18338.8875
2324.07925	18305.6875
2326.92871	18293.1875
2329.77637	18259.5875
2332.62222	18260.9875
2335.46626	18193.8875
2338.3085	18166.4875
2341.14893	18171.9875
2343.98756	18165.4875
2346.8244	18123.7875
2349.65943	18106.2875
2352.49267	18115.9875
2355.32411	18098.5875
2358.15376	18089.3875
2360.98161	18119.8875
2363.80768	18079.8875
2366.63195	18054.5875
2369.45444	18011.1875
2372.27514	18005.1875
2375.09405	17973.0875
2377.91118	17968.5875
2380.72652	17920.3875
2383.54009	17899.0875
2386.35187	17857.8875
2389.16188	17800.8875
2391.97011	17753.7875
2394.77657	17688.8875
2397.58125	17682.9875
2400.38416	17639.5875
2403.18529	17611.9875
2405.98466	17620.1875
2408.78226	17549.1875
2411.57809	17537.9875
2414.37216	17526.2875
2417.16446	17531.3875
2419.955	17480.3875
2422.74378	17512.1875
2425.5308	17480.1875
2428.31606	17478.1875
2431.09956	17430.0875
2433.88131	17414.6875
2436.6613	17385.9875
2439.43954	17364.9875
2442.21603	17347.1875
2444.99077	17297.2875
2447.76377	17299.5875
2450.53501	17247.8875
2453.30451	17254.5875
2456.07226	17247.5875
2458.83827	17240.6875
2461.60254	17201.1875
2464.36507	17205.7875
2467.12586	17189.7875
2469.88492	17167.8875
2472.64224	17120.2875
2475.39782	17131.0875
2478.15167	17124.6875
2480.90379	17130.5875
2483.65417	17116.2875
2486.40283	17121.3875
2489.14976	17134.5875
2491.89497	17093.0875
2494.63845	17140.9875
2497.3802	17055.0875
2500.12024	17059.8875
2502.85855	17045.0875
2505.59514	17046.2875
2508.33002	17037.3875
2511.06318	17024.4875
2513.79462	16976.2875
2516.52435	16995.8875
2519.25237	16962.7875
2521.97867	16928.3875
2524.70327	16948.2875
2527.42616	16916.3875
2530.14734	16904.5875
2532.86681	16880.9875
2535.58458	16847.7875
2538.30065	16806.7875
2541.01501	16782.6875
2543.72768	16717.6875
2546.43864	16732.1875
2549.14791	16679.1875
2551.85548	16692.6875
2554.56136	16657.9875
2557.26554	16664.0875
2559.96803	16635.7875
2562.66883	16610.8875
2565.36794	16577.7875
2568.06536	16569.7875
2570.7611	16506.5875
2573.45514	16482.6875
2576.14751	16481.3875
2578.83819	16441.2875
2581.52719	16412.6875
2584.21451	16374.1875
2586.90015	16397.3875
2589.58411	16333.5875
2592.2664	16329.3875
2594.94701	16324.1875
2597.62594	16307.3875
2600.30321	16257.6875
2602.9788	16244.8875
2605.65273	16236.6875
2608.32498	16238.6875
2610.99557	16230.7875
2613.66449	16227.8875
2616.33175	16202.8875
2618.99734	16148.6875
2621.66128	16139.5875
2624.32355	16153.6875
2626.98416	16133.7875
2629.64311	16119.6875
2632.30041	16119.2875
2634.95605	16084.8875
2637.61004	16084.4875
2640.26238	16038.9875
2642.91306	16038.9875
2645.56209	15978.4875
2648.20948	15994.5875
2650.85521	16019.6875
2653.4993	16010.3875
2656.14175	16009.5875
2658.78255	16007.7875
2661.42171	16020.8875
2664.05923	16037.9875
2666.6951	16034.1875
2669.32934	16049.4875
2671.96194	16022.5875
2674.59291	16026.0875
2677.22224	16022.4875
2679.84993	15990.8875
2682.476	15993.6875
2685.10043	16002.1875
2687.72324	16003.8875
2690.34441	16014.2875
2692.96396	15976.5875
2695.58188	15998.3875
2698.19818	15970.7875
2700.81285	15971.4875
2703.4259	15970.9875
2706.03733	16011.6875
2708.64714	15985.1875
2711.25533	15995.7875
2713.86191	15943.9875
2716.46687	15945.3875
2719.07021	15944.8875
2721.67194	15980.8875
2724.27206	15933.1875
2726.87057	15954.3875
2729.46747	15953.4875
2732.06276	15915.6875
2734.65644	15908.5875
2737.24852	15890.2875
2739.83899	15905.3875
2742.42786	15904.4875
2745.01513	15862.7875
2747.60079	15850.0875
2750.18486	15844.6875
2752.76733	15879.3875
2755.3482	15816.2875
2757.92747	15844.2875
2760.50515	15816.1875
2763.08123	15847.1875
2765.65573	15811.7875
2768.22863	15778.2875
2770.79994	15745.4875
2773.36967	15745.5875
2775.9378	15731.7875
2778.50435	15710.3875
2781.06932	15696.8875
2783.6327	15698.4875
2786.1945	15682.3875
2788.75471	15662.7875
2791.31335	15617.1875
2793.87041	15565.4875
2796.42589	15520.6875
2798.97979	15510.1875
2801.53212	15509.4875
2804.08288	15464.8875
2806.63206	15470.1875
2809.17967	15421.8875
2811.72571	15366.5875
2814.27018	15397.2875
2816.81308	15324.1875
2819.35442	15264.1875
2821.89419	15243.4875
2824.43239	15253.8875
2826.96904	15241.2875
2829.50412	15212.7875
2832.03763	15189.3875
2834.56959	15171.5875
2837.1	15175.7875
2839.62884	15190.1875
2842.15613	15152.1875
2844.68186	15201.0875
2847.20604	15192.4875
2849.72867	15192.7875
2852.24974	15174.8875
2854.76927	15143.1875
2857.28724	15161.3875
2859.80367	15123.0875
2862.31855	15093.1875
2864.83189	15057.9875
2867.34368	15013.1875
2869.85393	14995.6875
2872.36264	14968.1875
2874.8698	14964.2875
2877.37543	14968.6875
2879.87952	14938.2875
2882.38207	14927.6875
2884.88308	14963.4875
2887.38256	14909.8875
2889.88051	14944.1875
2892.37692	14942.3875
2894.8718	14911.5875
2897.36515	14894.7875
2899.85698	14966.1875
2902.34727	14946.9875
2904.83604	14943.0875
2907.32328	14937.4875
2909.809	14907.3875
2912.29319	14905.8875
2914.77587	14891.6875
2917.25702	14845.5875
2919.73665	14872.2875
2922.21476	14868.0875
2924.69136	14875.2875
2927.16644	14905.1875
2929.64	14862.6875
2932.11205	14870.1875
2934.58258	14834.5875
2937.05161	14828.7875
2939.51912	14825.9875
2941.98513	14801.0875
2944.44962	14740.1875
2946.91261	14674.3875
2949.37409	14701.7875
2951.83407	14703.0875
2954.29254	14681.8875
2956.74951	14658.0875
2959.20498	14639.1875
2961.65895	14589.0875
2964.11142	14594.4875
2966.56239	14572.9875
2969.01186	14563.7875
2971.45984	14548.5875
2973.90632	14521.0875
2976.35131	14456.1875
2978.7948	14410.3875
2981.23681	14382.5875
2983.67732	14355.5875
2986.11635	14318.1875
2988.55388	14287.1875
2990.98993	14268.1875
2993.4245	14205.8875
2995.85758	14153.9875
2998.28917	14109.8875
3000.71928	14071.3875
3003.14791	14055.4875
3005.57506	14052.5875
3008.00073	13999.3875
3010.42493	13995.4875
3012.84764	13936.0875
3015.26888	13954.6875
3017.68865	13890.2875
3020.10694	13836.1875
3022.52376	13832.1875
3024.9391	13791.2875
3027.35298	13778.6875
3029.76539	13723.1875
3032.17632	13683.8875
3034.5858	13686.0875
3036.9938	13710.3875
3039.40034	13682.8875
3041.80542	13657.0875
3044.20903	13634.6875
3046.61118	13602.4875
3049.01187	13573.5875
3051.4111	13563.7875
3053.80888	13520.1875
3056.20519	13491.8875
3058.60005	13442.9875
3060.99345	13437.6875
3063.3854	13397.9875
3065.7759	13350.0875
3068.16494	13332.9875
3070.55254	13232.5875
3072.93868	13206.7875
3075.32338	13168.1875
3077.70662	13137.5875
3080.08842	13127.6875
3082.46878	13086.3875
3084.84769	13066.4875
3087.22515	13089.9875
3089.60118	13070.7875
3091.97576	13061.4875
3094.3489	13046.3875
3096.72061	13001.2875
3099.09087	13006.3875
3101.4597	12947.5875
3103.82709	12957.8875
3106.19305	12932.1875
3108.55757	12939.3875
3110.92066	12869.4875
3113.28232	12839.9875
3115.64255	12821.7875
3118.00134	12817.1875
3120.35871	12752.7875
3122.71466	12700.8875
3125.06917	12693.1875
3127.42226	12680.7875
3129.77393	12659.6875
3132.12417	12637.8875
3134.47299	12643.4875
3136.82039	12618.5875
3139.16636	12628.5875
3141.51092	12609.7875
3143.85406	12612.7875
3146.19579	12590.3875
3148.53609	12577.1875
3150.87499	12574.7875
3153.21246	12555.1875
3155.54853	12580.4875
3157.88318	12581.2875
3160.21642	12560.7875
3162.54826	12552.7875
3164.87868	12521.1875
3167.2077	12522.8875
3169.5353	12501.3875
3171.86151	12469.0875
3174.18631	12472.0875
3176.5097	12459.4875
3178.83169	12416.8875
3181.15228	12440.4875
3183.47147	12388.7875
3185.78926	12372.7875
3188.10565	12369.7875
3190.42065	12373.3875
3192.73424	12368.0875
3195.04645	12370.3875
3197.35725	12336.1875
3199.66667	12334.8875
3201.97469	12317.6875
3204.28132	12266.5875
3206.58656	12285.3875
3208.8904	12255.6875
3211.19287	12299.4875
3213.49394	12294.2875
3215.79363	12261.6875
3218.09193	12228.5875
3220.38884	12242.6875
3222.68438	12243.8875
3224.97853	12207.9875
3227.2713	12208.4875
3229.56269	12181.4875
3231.8527	12155.5875
3234.14133	12116.1875
3236.42858	12089.5875
3238.71446	12083.0875
3240.99896	12046.0875
3243.28209	12053.1875
3245.56384	12038.7875
3247.84423	12029.6875
3250.12324	12021.2875
3252.40088	12011.1875
3254.67715	11977.4875
3256.95205	11943.9875
3259.22558	11951.4875
3261.49775	11932.9875
3263.76855	11885.1875
3266.03799	11839.0875
3268.30606	11827.4875
3270.57277	11808.3875
3272.83812	11801.3875
3275.10211	11775.0875
3277.36474	11763.1875
3279.62601	11783.4875
3281.88593	11714.6875
3284.14448	11728.1875
3286.40168	11729.2875
3288.65753	11689.8875
3290.91202	11674.9875
3293.16516	11661.5875
3295.41695	11621.0875
3297.66738	11523.2875
3299.91647	11469.1875
3302.16421	11420.8875
3304.4106	11351.1875
3306.65564	11267.2875
3308.89933	11200.3875
3311.14169	11154.2875
3313.38269	11063.2875
3315.62236	10966.1875
3317.86068	10875.3875
3320.09766	10763.1875
3322.3333	10660.0875
3324.5676	10629.1875
3326.80056	10476.1875
3329.03219	10412.6875
3331.26248	2.3875
3333.49143	-1.1125
3335.71905	-0.5125
