Data from AgNPs_FTO_APTES_UA_5uM_CRN_200uM_R6G_10uM_NaF_0.1M_Addition_RamanShift__17__16-19-41-783.txt Node

Date: Mon Feb 07 16:19:41 GMT 2022
User: TCL
Spectrometer: QEP01345
Trigger mode: 4
Integration Time (sec): 7.000000E0
Scans to average: 10
Electric dark correction enabled: true
Nonlinearity correction enabled: false
Boxcar width: 0
XAxis mode: Raman Shifts
Number of Pixels in Spectrum: 1044
>>>>>Begin Spectral Data<<<<<
46.04893	-1.4125
50.45542	-0.9125
54.85868	-1.1125
59.25871	-0.5125
63.6555	69.6875
68.04907	72.0875
72.43941	75.8875
76.82654	75.2875
81.21044	78.1875
85.59113	79.0875
89.96862	88.1875
94.34289	85.3875
98.71396	88.6875
103.08183	93.6875
107.4465	93.6875
111.80798	100.2875
116.16626	98.7875
120.52136	106.1875
124.87327	112.3875
129.222	121.1875
133.56755	124.8875
137.90993	140.2875
142.24913	156.3875
146.58517	175.5875
150.91804	201.6875
155.24774	249.4875
159.57429	313.4875
163.89768	402.8875
168.21792	542.3875
172.53501	742.6875
176.84895	1037.7875
181.15975	1463.7875
185.46741	2045.7875
189.77193	2832.3875
194.07331	3791.7875
198.37157	4885.3875
202.6667	6029.8875
206.9587	7174.4875
211.24758	8275.6875
215.53334	9414.4875
219.81599	10609.8875
224.09553	11923.0875
228.37195	13379.0875
232.64527	14902.5875
236.91549	16563.3875
241.18261	18214.5875
245.44663	19763.3875
249.70755	21193.3875
253.96539	22461.2875
258.22014	23444.7875
262.4718	24348.4875
266.72039	24999.0875
270.96589	25427.5875
275.20832	25618.9875
279.44768	25608.3875
283.68397	25534.4875
287.91719	25474.8875
292.14735	25586.2875
296.37445	25740.5875
300.59849	25897.6875
304.81948	25857.5875
309.03742	25649.4875
313.25231	25162.8875
317.46415	24447.9875
321.67296	23613.2875
325.87872	22953.4875
330.08145	22562.6875
334.28114	22505.4875
338.47781	22631.0875
342.67145	22799.3875
346.86207	23109.7875
351.04966	23444.4875
355.23424	23811.6875
359.4158	24075.9875
363.59435	24277.6875
367.76989	24411.8875
371.94243	24544.3875
376.11196	24675.5875
380.27849	24786.9875
384.44203	24997.4875
388.60257	25212.4875
392.76012	25473.6875
396.91468	25752.2875
401.06626	26142.5875
405.21485	26358.4875
409.36047	26202.9875
413.50311	25799.6875
417.64277	25512.4875
421.77947	25371.2875
425.9132	25428.9875
430.04396	25619.0875
434.17176	25801.6875
438.2966	26139.4875
442.41849	26590.8875
446.53742	27344.3875
450.6534	28157.1875
454.76644	28791.1875
458.87653	29087.3875
462.98368	29056.1875
467.08789	28933.7875
471.18916	28805.0875
475.2875	28808.6875
479.38291	28962.7875
483.4754	28884.2875
487.56496	28355.5875
491.6516	27573.1875
495.73531	26832.9875
499.81612	26413.7875
503.89401	26383.4875
507.96899	26439.5875
512.04106	26293.8875
516.11023	26136.3875
520.1765	25880.8875
524.23987	25609.0875
528.30034	25401.8875
532.35792	25191.6875
536.41261	24977.0875
540.46441	24822.9875
544.51333	24909.9875
548.55936	25322.3875
552.60252	26020.5875
556.64279	26776.7875
560.6802	27341.6875
564.71473	27713.7875
568.7464	28284.4875
572.7752	29057.0875
576.80114	29530.7875
580.82422	29849.2875
584.84444	29986.1875
588.86181	30223.1875
592.87633	30503.0875
596.888	30566.2875
600.89682	30423.9875
604.9028	30736.9875
608.90594	32258.1875
612.90624	33914.0875
616.90371	31836.4875
620.89834	27232.1875
624.89015	25258.3875
628.87913	25100.4875
632.86528	25395.6875
636.84862	25495.8875
640.82913	25213.7875
644.80683	24615.0875
648.78172	24106.5875
652.75379	23923.8875
656.72306	23994.4875
660.68952	24263.9875
664.65319	24134.5875
668.61405	23839.8875
672.57211	23742.3875
676.52738	23816.3875
680.47986	23866.1875
684.42955	23771.1875
688.37646	23704.0875
692.32058	23711.6875
696.26192	23836.3875
700.20048	24076.3875
704.13626	24213.0875
708.06928	24269.8875
711.99952	24206.9875
715.927	24146.3875
719.85171	24141.1875
723.77365	24059.3875
727.69284	23887.9875
731.60928	23666.7875
735.52295	23568.8875
739.43388	23521.2875
743.34206	23534.5875
747.24749	23640.2875
751.15017	23880.0875
755.05012	24299.7875
758.94733	25066.2875
762.8418	26356.3875
766.73354	28285.7875
770.62254	30036.1875
774.50882	30300.8875
778.39237	28817.3875
782.27321	26722.4875
786.15132	24964.6875
790.02671	23982.3875
793.89938	23452.1875
797.76935	23232.5875
801.6366	23144.6875
805.50115	23112.8875
809.36299	23006.9875
813.22213	22876.2875
817.07857	22886.8875
820.93231	22920.4875
824.78336	22773.6875
828.63172	22656.5875
832.47738	22559.7875
836.32036	22532.7875
840.16066	22545.3875
843.99827	22555.2875
847.8332	22519.8875
851.66546	22463.4875
855.49504	22418.5875
859.32195	22427.4875
863.1462	22362.5875
866.96777	22336.5875
870.78668	22236.1875
874.60293	22243.7875
878.41652	22240.4875
882.22745	22275.8875
886.03573	22295.4875
889.84136	22263.4875
893.64433	22245.7875
897.44466	22166.3875
901.24235	22067.0875
905.0374	21955.3875
908.8298	21938.7875
912.61957	22063.4875
916.40671	22288.0875
920.19121	22625.5875
923.97308	22775.8875
927.75233	22689.1875
931.52895	22489.2875
935.30295	22202.1875
939.07433	21801.3875
942.84309	21501.2875
946.60924	21315.2875
950.37278	21208.7875
954.13371	21147.4875
957.89203	21164.0875
961.64774	21156.9875
965.40086	21090.2875
969.15137	20992.7875
972.89929	20877.0875
976.64461	20745.9875
980.38733	20686.8875
984.12747	20700.1875
987.86502	20850.8875
991.59999	21019.1875
995.33237	21274.2875
999.06217	21670.3875
1002.78939	22129.3875
1006.51404	22410.6875
1010.23611	22608.0875
1013.95561	22791.8875
1017.67255	22864.9875
1021.38692	22702.5875
1025.09872	22417.1875
1028.80796	22339.8875
1032.51465	22576.6875
1036.21877	22802.6875
1039.92035	22856.7875
1043.61937	22820.3875
1047.31584	22665.0875
1051.00976	22536.0875
1054.70114	22501.6875
1058.38998	22646.5875
1062.07627	22943.8875
1065.76003	23244.3875
1069.44126	23407.3875
1073.11995	23634.6875
1076.79611	23831.4875
1080.46974	23946.2875
1084.14085	24006.3875
1087.80943	24194.5875
1091.47549	24389.1875
1095.13903	24522.8875
1098.80005	24361.1875
1102.45857	23916.0875
1106.11456	23463.0875
1109.76805	23230.4875
1113.41903	23268.7875
1117.06751	23467.3875
1120.71348	23724.0875
1124.35696	24024.5875
1127.99793	24390.8875
1131.63641	24627.9875
1135.2724	24457.7875
1138.90589	24284.7875
1142.5369	24256.9875
1146.16542	24399.3875
1149.79145	24698.0875
1153.415	25108.5875
1157.03607	25645.6875
1160.65467	26389.7875
1164.27079	27542.4875
1167.88443	28969.2875
1171.49561	30756.6875
1175.10432	32981.9875
1178.71056	35764.2875
1182.31434	38294.7875
1185.91565	39730.6875
1189.51451	39871.9875
1193.11091	39212.1875
1196.70485	37918.9875
1200.29634	36413.9875
1203.88538	35105.0875
1207.47197	34133.2875
1211.05612	33425.9875
1214.63782	32711.4875
1218.21708	31937.2875
1221.79391	31224.4875
1225.36829	30668.2875
1228.94024	30129.0875
1232.50976	29443.9875
1236.07685	28956.5875
1239.6415	28717.2875
1243.20374	28756.4875
1246.76355	28995.8875
1250.32093	29349.8875
1253.8759	29912.9875
1257.42845	30638.6875
1260.97859	31434.1875
1264.52631	32196.2875
1268.07163	33002.8875
1271.61453	33843.9875
1275.15503	34794.5875
1278.69312	35880.5875
1282.22882	36949.5875
1285.76211	38143.8875
1289.29301	39713.4875
1292.82151	41767.5875
1296.34761	44252.8875
1299.87133	47096.3875
1303.39266	49756.8875
1306.9116	52255.3875
1310.42815	54364.9875
1313.94233	55794.9875
1317.45412	56185.9875
1320.96354	55944.7875
1324.47058	55707.4875
1327.97525	55310.4875
1331.47754	54968.0875
1334.97747	54700.8875
1338.47502	54445.8875
1341.97022	54082.5875
1345.46305	53471.8875
1348.95352	52334.0875
1352.44163	51110.5875
1355.92738	50530.9875
1359.41078	51001.1875
1362.89183	51746.9875
1366.37053	50635.9875
1369.84688	47066.3875
1373.32088	42924.6875
1376.79254	40275.2875
1380.26186	39434.9875
1383.72883	39735.3875
1387.19347	40299.4875
1390.65578	40698.7875
1394.11575	41159.1875
1397.57339	41740.7875
1401.0287	42482.9875
1404.48168	42868.5875
1407.93234	42524.4875
1411.38068	41271.6875
1414.82669	39276.4875
1418.27039	37035.1875
1421.71177	34968.8875
1425.15083	33263.3875
1428.58758	32423.9875
1432.02203	32467.7875
1435.45416	33212.9875
1438.88399	34348.7875
1442.31151	35426.2875
1445.73673	36278.5875
1449.15965	37152.8875
1452.58027	38013.3875
1455.9986	38688.6875
1459.41463	39237.7875
1462.82837	39757.9875
1466.23982	40152.6875
1469.64898	40317.7875
1473.05586	40282.8875
1476.46045	39935.0875
1479.86276	39328.0875
1483.26279	38629.4875
1486.66054	38102.9875
1490.05602	37935.8875
1493.44922	38016.2875
1496.84016	38307.0875
1500.22882	39052.1875
1503.61521	40277.3875
1506.99934	41830.1875
1510.38121	43187.3875
1513.76081	43682.4875
1517.13816	43133.2875
1520.51324	41872.3875
1523.88607	40818.0875
1527.25665	40335.3875
1530.62498	40216.0875
1533.99105	40288.7875
1537.35488	40014.7875
1540.71647	39361.3875
1544.07581	38395.6875
1547.4329	37303.5875
1550.78776	36374.5875
1554.14038	35787.6875
1557.49077	35527.7875
1560.83892	35380.5875
1564.18484	35475.4875
1567.52853	35623.2875
1570.86999	35959.8875
1574.20922	36682.8875
1577.54624	37479.3875
1580.88103	37947.6875
1584.2136	38349.1875
1587.54395	39278.2875
1590.87208	40645.9875
1594.19801	42330.6875
1597.52172	44056.1875
1600.84321	44364.4875
1604.16251	42535.3875
1607.47959	39470.6875
1610.79447	36206.2875
1614.10715	33154.2875
1617.41763	30515.3875
1620.7259	28627.6875
1624.03199	27550.0875
1627.33587	27443.1875
1630.63757	28140.3875
1633.93707	29926.2875
1637.23439	32837.6875
1640.52951	36985.5875
1643.82246	41748.9875
1647.11321	45489.5875
1650.40179	46342.6875
1653.68819	43599.6875
1656.97241	38299.2875
1660.25446	32753.7875
1663.53433	28332.4875
1666.81203	25262.6875
1670.08756	23315.1875
1673.36092	22095.0875
1676.63211	21277.0875
1679.90115	20712.5875
1683.16801	20270.0875
1686.43272	19943.4875
1689.69527	19667.4875
1692.95567	19518.7875
1696.2139	19422.0875
1699.46999	19274.8875
1702.72392	19161.0875
1705.97571	19096.5875
1709.22535	19023.3875
1712.47284	18968.5875
1715.71819	18915.6875
1718.96139	18832.8875
1722.20246	18778.6875
1725.44139	18675.6875
1728.67818	18539.8875
1731.91284	18478.3875
1735.14537	18349.4875
1738.37576	18315.4875
1741.60403	18206.9875
1744.83017	18147.4875
1748.05418	18075.9875
1751.27607	18082.5875
1754.49584	18067.1875
1757.71349	18041.0875
1760.92903	17996.6875
1764.14244	17971.1875
1767.35375	17935.2875
1770.56294	17876.2875
1773.77002	17824.7875
1776.97499	17765.1875
1780.17785	17719.4875
1783.37861	17699.6875
1786.57727	17671.4875
1789.77382	17641.2875
1792.96828	17560.1875
1796.16064	17521.3875
1799.3509	17482.1875
1802.53907	17449.4875
1805.72514	17406.2875
1808.90913	17364.3875
1812.09102	17320.3875
1815.27083	17264.3875
1818.44856	17228.7875
1821.6242	17181.9875
1824.79776	17139.2875
1827.96924	17128.3875
1831.13864	17121.6875
1834.30597	17092.3875
1837.47122	17053.0875
1840.6344	17046.9875
1843.7955	17022.8875
1846.95454	17027.7875
1850.11151	17001.4875
1853.26642	16967.5875
1856.41926	16968.5875
1859.57004	16972.7875
1862.71876	16935.6875
1865.86542	16902.7875
1869.01003	16881.5875
1872.15258	16904.9875
1875.29308	16868.6875
1878.43152	16861.0875
1881.56792	16826.4875
1884.70227	16833.6875
1887.83457	16801.3875
1890.96482	16740.9875
1894.09304	16722.2875
1897.21921	16722.3875
1900.34335	16707.0875
1903.46544	16666.6875
1906.58551	16655.2875
1909.70353	16637.5875
1912.81953	16621.8875
1915.93349	16573.3875
1919.04543	16561.9875
1922.15534	16521.3875
1925.26322	16460.3875
1928.36908	16434.5875
1931.47292	16446.6875
1934.57473	16399.6875
1937.67453	16373.0875
1940.77232	16297.0875
1943.86808	16223.8875
1946.96184	16164.3875
1950.05358	16125.3875
1953.14331	16062.6875
1956.23103	15989.1875
1959.31675	15952.5875
1962.40046	15920.5875
1965.48217	15884.5875
1968.56188	15825.6875
1971.63959	15758.5875
1974.7153	15727.5875
1977.78901	15672.8875
1980.86073	15617.8875
1983.93046	15596.2875
1986.99819	15523.4875
1990.06394	15455.4875
1993.1277	15427.3875
1996.18947	15375.4875
1999.24925	15344.7875
2002.30706	15311.0875
2005.36288	15233.7875
2008.41672	15179.5875
2011.46859	15137.6875
2014.51848	15099.3875
2017.56639	15062.7875
2020.61233	15038.3875
2023.6563	14980.4875
2026.6983	14940.5875
2029.73833	14909.1875
2032.7764	14840.3875
2035.8125	14853.4875
2038.84664	14807.1875
2041.87881	14804.7875
2044.90903	14757.4875
2047.93729	14731.9875
2050.96359	14732.6875
2053.98794	14715.3875
2057.01034	14673.7875
2060.03078	14678.7875
2063.04927	14656.8875
2066.06582	14668.8875
2069.08042	14644.1875
2072.09307	14632.7875
2075.10378	14624.9875
2078.11255	14606.7875
2081.11938	14615.5875
2084.12426	14586.9875
2087.12722	14558.1875
2090.12824	14545.4875
2093.12732	14577.1875
2096.12447	14572.0875
2099.11969	14530.1875
2102.11299	14559.6875
2105.10435	14556.6875
2108.09379	14544.2875
2111.08131	14557.9875
2114.0669	14548.6875
2117.05057	14556.6875
2120.03233	14567.3875
2123.01216	14575.0875
2125.99008	14584.0875
2128.96609	14594.7875
2131.94018	14600.2875
2134.91236	14598.7875
2137.88263	14617.7875
2140.851	14614.9875
2143.81746	14617.1875
2146.78201	14621.6875
2149.74466	14615.6875
2152.7054	14617.8875
2155.66425	14578.6875
2158.6212	14556.4875
2161.57625	14545.1875
2164.52941	14553.6875
2167.48067	14563.9875
2170.43004	14543.0875
2173.37752	14510.5875
2176.32311	14578.9875
2179.26681	14561.7875
2182.20863	14526.3875
2185.14856	14531.9875
2188.08661	14522.1875
2191.02278	14530.9875
2193.95707	14488.6875
2196.88948	14492.4875
2199.82001	14462.9875
2202.74867	14469.1875
2205.67545	14448.6875
2208.60037	14428.3875
2211.52341	14416.7875
2214.44458	14362.2875
2217.36388	14372.6875
2220.28132	14299.5875
2223.1969	14243.5875
2226.11061	14254.5875
2229.02246	14233.6875
2231.93245	14227.4875
2234.84058	14171.9875
2237.74686	14123.7875
2240.65128	14135.4875
2243.55385	14109.0875
2246.45456	14120.3875
2249.35343	14087.5875
2252.25044	14056.0875
2255.14561	14020.5875
2258.03893	13961.9875
2260.93041	13931.6875
2263.82004	13924.3875
2266.70783	13872.6875
2269.59378	13839.4875
2272.4779	13784.0875
2275.36017	13730.8875
2278.24061	13736.0875
2281.11922	13688.2875
2283.996	13697.7875
2286.87094	13660.6875
2289.74405	13620.2875
2292.61534	13621.5875
2295.4848	13607.0875
2298.35243	13630.8875
2301.21824	13632.3875
2304.08223	13638.3875
2306.94439	13647.1875
2309.80474	13639.8875
2312.66327	13617.3875
2315.51999	13606.0875
2318.37489	13604.0875
2321.22797	13549.9875
2324.07925	13532.8875
2326.92871	13504.8875
2329.77637	13481.8875
2332.62222	13511.7875
2335.46626	13489.4875
2338.3085	13458.8875
2341.14893	13452.2875
2343.98756	13423.8875
2346.8244	13464.5875
2349.65943	13441.9875
2352.49267	13454.7875
2355.32411	13462.2875
2358.15376	13425.9875
2360.98161	13441.9875
2363.80768	13417.9875
2366.63195	13450.1875
2369.45444	13407.7875
2372.27514	13391.8875
2375.09405	13330.7875
2377.91118	13305.6875
2380.72652	13290.0875
2383.54009	13262.6875
2386.35187	13232.1875
2389.16188	13202.7875
2391.97011	13158.9875
2394.77657	13124.1875
2397.58125	13107.5875
2400.38416	13090.0875
2403.18529	13067.9875
2405.98466	13073.6875
2408.78226	13036.9875
2411.57809	13037.9875
2414.37216	13000.2875
2417.16446	13028.4875
2419.955	13012.9875
2422.74378	12974.3875
2425.5308	12955.1875
2428.31606	12958.9875
2431.09956	12925.3875
2433.88131	12930.6875
2436.6613	12958.9875
2439.43954	12951.6875
2442.21603	12919.7875
2444.99077	12886.8875
2447.76377	12903.1875
2450.53501	12889.5875
2453.30451	12875.7875
2456.07226	12867.5875
2458.83827	12868.3875
2461.60254	12858.6875
2464.36507	12863.1875
2467.12586	12854.3875
2469.88492	12832.4875
2472.64224	12861.1875
2475.39782	12845.6875
2478.15167	12856.9875
2480.90379	12832.9875
2483.65417	12861.4875
2486.40283	12826.3875
2489.14976	12861.5875
2491.89497	12899.9875
2494.63845	12890.5875
2497.3802	12862.9875
2500.12024	12854.6875
2502.85855	12867.9875
2505.59514	12838.7875
2508.33002	12795.5875
2511.06318	12834.3875
2513.79462	12824.6875
2516.52435	12817.2875
2519.25237	12795.5875
2521.97867	12747.4875
2524.70327	12740.7875
2527.42616	12750.8875
2530.14734	12740.8875
2532.86681	12733.0875
2535.58458	12759.8875
2538.30065	12715.4875
2541.01501	12721.4875
2543.72768	12655.1875
2546.43864	12694.7875
2549.14791	12649.7875
2551.85548	12628.4875
2554.56136	12626.7875
2557.26554	12576.6875
2559.96803	12596.9875
2562.66883	12567.6875
2565.36794	12548.6875
2568.06536	12590.2875
2570.7611	12539.9875
2573.45514	12533.7875
2576.14751	12536.2875
2578.83819	12520.9875
2581.52719	12545.3875
2584.21451	12518.6875
2586.90015	12504.2875
2589.58411	12509.8875
2592.2664	12467.2875
2594.94701	12465.3875
2597.62594	12488.0875
2600.30321	12460.5875
2602.9788	12448.1875
2605.65273	12451.2875
2608.32498	12450.2875
2610.99557	12449.1875
2613.66449	12449.3875
2616.33175	12441.0875
2618.99734	12441.6875
2621.66128	12415.6875
2624.32355	12427.4875
2626.98416	12374.3875
2629.64311	12400.9875
2632.30041	12395.5875
2634.95605	12402.7875
2637.61004	12370.3875
2640.26238	12363.4875
2642.91306	12330.7875
2645.56209	12360.2875
2648.20948	12337.0875
2650.85521	12357.5875
2653.4993	12363.0875
2656.14175	12372.2875
2658.78255	12399.3875
2661.42171	12366.3875
2664.05923	12365.9875
2666.6951	12386.0875
2669.32934	12382.7875
2671.96194	12394.3875
2674.59291	12379.6875
2677.22224	12364.0875
2679.84993	12363.6875
2682.476	12336.2875
2685.10043	12342.2875
2687.72324	12310.3875
2690.34441	12346.2875
2692.96396	12306.6875
2695.58188	12319.8875
2698.19818	12319.6875
2700.81285	12343.2875
2703.4259	12335.0875
2706.03733	12360.8875
2708.64714	12332.5875
2711.25533	12362.7875
2713.86191	12364.5875
2716.46687	12368.7875
2719.07021	12367.3875
2721.67194	12396.8875
2724.27206	12397.0875
2726.87057	12380.3875
2729.46747	12421.3875
2732.06276	12411.5875
2734.65644	12403.1875
2737.24852	12405.5875
2739.83899	12400.7875
2742.42786	12381.6875
2745.01513	12369.9875
2747.60079	12362.6875
2750.18486	12361.2875
2752.76733	12365.9875
2755.3482	12335.6875
2757.92747	12356.4875
2760.50515	12330.5875
2763.08123	12349.5875
2765.65573	12320.4875
2768.22863	12315.4875
2770.79994	12323.2875
2773.36967	12338.3875
2775.9378	12325.2875
2778.50435	12321.1875
2781.06932	12317.9875
2783.6327	12324.9875
2786.1945	12338.2875
2788.75471	12340.0875
2791.31335	12293.6875
2793.87041	12302.3875
2796.42589	12288.8875
2798.97979	12254.6875
2801.53212	12242.7875
2804.08288	12210.5875
2806.63206	12173.3875
2809.17967	12175.3875
2811.72571	12160.5875
2814.27018	12119.5875
2816.81308	12110.1875
2819.35442	12072.7875
2821.89419	12047.7875
2824.43239	12046.0875
2826.96904	12024.5875
2829.50412	12044.9875
2832.03763	11988.0875
2834.56959	12003.9875
2837.1	12019.0875
2839.62884	11997.1875
2842.15613	11997.5875
2844.68186	12043.0875
2847.20604	12095.5875
2849.72867	12076.2875
2852.24974	12080.3875
2854.76927	12092.1875
2857.28724	12070.8875
2859.80367	12070.4875
2862.31855	12010.7875
2864.83189	12005.5875
2867.34368	11971.1875
2869.85393	11978.8875
2872.36264	11973.1875
2874.8698	12005.4875
2877.37543	12013.4875
2879.87952	11961.6875
2882.38207	11974.0875
2884.88308	11977.1875
2887.38256	11991.6875
2889.88051	11962.3875
2892.37692	11981.4875
2894.8718	11983.9875
2897.36515	12016.4875
2899.85698	12009.1875
2902.34727	12027.6875
2904.83604	12066.6875
2907.32328	12071.2875
2909.809	12066.7875
2912.29319	12071.6875
2914.77587	12058.1875
2917.25702	12057.0875
2919.73665	12025.9875
2922.21476	12045.4875
2924.69136	12053.8875
2927.16644	12047.9875
2929.64	12048.7875
2932.11205	12020.2875
2934.58258	11994.8875
2937.05161	12001.4875
2939.51912	11967.3875
2941.98513	11959.3875
2944.44962	11948.5875
2946.91261	11889.5875
2949.37409	11912.2875
2951.83407	11875.6875
2954.29254	11847.1875
2956.74951	11849.3875
2959.20498	11848.4875
2961.65895	11813.3875
2964.11142	11787.1875
2966.56239	11786.4875
2969.01186	11798.8875
2971.45984	11758.0875
2973.90632	11754.8875
2976.35131	11707.0875
2978.7948	11688.0875
2981.23681	11671.9875
2983.67732	11651.7875
2986.11635	11590.5875
2988.55388	11575.9875
2990.98993	11553.6875
2993.4245	11511.6875
2995.85758	11499.6875
2998.28917	11435.9875
3000.71928	11443.5875
3003.14791	11395.6875
3005.57506	11380.2875
3008.00073	11330.5875
3010.42493	11339.3875
3012.84764	11351.8875
3015.26888	11318.0875
3017.68865	11255.8875
3020.10694	11256.7875
3022.52376	11244.4875
3024.9391	11205.6875
3027.35298	11230.1875
3029.76539	11223.0875
3032.17632	11205.3875
3034.5858	11201.8875
3036.9938	11187.8875
3039.40034	11179.5875
3041.80542	11204.0875
3044.20903	11172.2875
3046.61118	11141.9875
3049.01187	11108.7875
3051.4111	11115.6875
3053.80888	11089.0875
3056.20519	11059.8875
3058.60005	11043.3875
3060.99345	10991.4875
3063.3854	10972.9875
3065.7759	10941.7875
3068.16494	10912.4875
3070.55254	10854.6875
3072.93868	10819.0875
3075.32338	10814.5875
3077.70662	10761.3875
3080.08842	10756.7875
3082.46878	10742.1875
3084.84769	10731.6875
3087.22515	10744.5875
3089.60118	10717.0875
3091.97576	10718.0875
3094.3489	10729.4875
3096.72061	10732.8875
3099.09087	10734.7875
3101.4597	10721.2875
3103.82709	10693.1875
3106.19305	10681.4875
3108.55757	10701.9875
3110.92066	10623.9875
3113.28232	10621.5875
3115.64255	10587.1875
3118.00134	10571.7875
3120.35871	10560.6875
3122.71466	10555.2875
3125.06917	10508.5875
3127.42226	10495.2875
3129.77393	10494.7875
3132.12417	10455.4875
3134.47299	10475.2875
3136.82039	10466.9875
3139.16636	10462.3875
3141.51092	10457.4875
3143.85406	10441.8875
3146.19579	10446.0875
3148.53609	10449.4875
3150.87499	10449.3875
3153.21246	10463.7875
3155.54853	10495.7875
3157.88318	10453.0875
3160.21642	10517.7875
3162.54826	10496.7875
3164.87868	10505.9875
3167.2077	10506.0875
3169.5353	10510.4875
3171.86151	10513.1875
3174.18631	10509.6875
3176.5097	10479.0875
3178.83169	10462.1875
3181.15228	10461.3875
3183.47147	10444.1875
3185.78926	10426.7875
3188.10565	10422.5875
3190.42065	10405.7875
3192.73424	10405.6875
3195.04645	10401.2875
3197.35725	10394.2875
3199.66667	10363.0875
3201.97469	10404.3875
3204.28132	10364.0875
3206.58656	10400.4875
3208.8904	10395.6875
3211.19287	10411.8875
3213.49394	10389.3875
3215.79363	10402.6875
3218.09193	10424.5875
3220.38884	10413.4875
3222.68438	10430.0875
3224.97853	10412.3875
3227.2713	10382.8875
3229.56269	10380.9875
3231.8527	10362.7875
3234.14133	10347.4875
3236.42858	10309.8875
3238.71446	10303.9875
3240.99896	10282.3875
3243.28209	10270.0875
3245.56384	10271.8875
3247.84423	10261.5875
3250.12324	10255.7875
3252.40088	10251.1875
3254.67715	10231.5875
3256.95205	10226.9875
3259.22558	10200.2875
3261.49775	10188.8875
3263.76855	10177.7875
3266.03799	10139.5875
3268.30606	10139.0875
3270.57277	10118.6875
3272.83812	10095.8875
3275.10211	10076.0875
3277.36474	10048.1875
3279.62601	10081.9875
3281.88593	10049.8875
3284.14448	10047.3875
3286.40168	10070.7875
3288.65753	10082.7875
3290.91202	10036.8875
3293.16516	10013.1875
3295.41695	10013.6875
3297.66738	9938.3875
3299.91647	9869.3875
3302.16421	9802.6875
3304.4106	9778.5875
3306.65564	9734.9875
3308.89933	9657.9875
3311.14169	9582.0875
3313.38269	9495.0875
3315.62236	9434.8875
3317.86068	9341.8875
3320.09766	9316.8875
3322.3333	9223.1875
3324.5676	9184.0875
3326.80056	9048.3875
3329.03219	8979.7875
3331.26248	3.4875
3333.49143	0.8875
3335.71905	-1.7125
