Data from AgNPs_FTO_APTES_UA_5uM_CRN_5uM_R6G_10uM_NaF_0.1M_Addition_RamanShift__5__11-50-36-673.txt Node

Date: Mon Feb 07 11:50:36 GMT 2022
User: TCL
Spectrometer: QEP01345
Trigger mode: 4
Integration Time (sec): 7.000000E0
Scans to average: 10
Electric dark correction enabled: true
Nonlinearity correction enabled: false
Boxcar width: 0
XAxis mode: Raman Shifts
Number of Pixels in Spectrum: 1044
>>>>>Begin Spectral Data<<<<<
46.04893	-0.7625
50.45542	-2.3625
54.85868	-0.4625
59.25871	0.8375
63.6555	106.7375
68.04907	108.8375
72.43941	119.0375
76.82654	116.8375
81.21044	126.7375
85.59113	129.1375
89.96862	137.4375
94.34289	134.1375
98.71396	138.1375
103.08183	145.7375
107.4465	153.8375
111.80798	157.5375
116.16626	161.8375
120.52136	167.0375
124.87327	175.6375
129.222	193.6375
133.56755	200.0375
137.90993	218.6375
142.24913	239.3375
146.58517	280.7375
150.91804	323.8375
155.24774	388.5375
159.57429	488.3375
163.89768	635.6375
168.21792	852.5375
172.53501	1166.9375
176.84895	1619.6375
181.15975	2276.4375
185.46741	3185.3375
189.77193	4403.4375
194.07331	5889.6375
198.37157	7543.4375
202.6667	9316.9375
206.9587	11040.7375
211.24758	12760.8375
215.53334	14485.0375
219.81599	16345.5375
224.09553	18398.2375
228.37195	20677.9375
232.64527	23107.5375
236.91549	25653.6375
241.18261	28179.5375
245.44663	30488.6375
249.70755	32566.0375
253.96539	34387.4375
258.22014	35961.0375
262.4718	37205.2375
266.72039	38104.6375
270.96589	38557.7375
275.20832	38688.6375
279.44768	38490.3375
283.68397	38209.4375
287.91719	38025.8375
292.14735	37870.8375
296.37445	37934.4375
300.59849	38109.3375
304.81948	38273.1375
309.03742	38293.3375
313.25231	37981.4375
317.46415	37340.1375
321.67296	36445.8375
325.87872	35563.5375
330.08145	35173.7375
334.28114	35038.4375
338.47781	35141.7375
342.67145	35564.9375
346.86207	36077.4375
351.04966	36722.7375
355.23424	37384.5375
359.4158	37970.9375
363.59435	38449.5375
367.76989	38718.4375
371.94243	38906.6375
376.11196	39025.6375
380.27849	39092.4375
384.44203	39167.6375
388.60257	39536.2375
392.76012	40067.5375
396.91468	40705.0375
401.06626	41478.6375
405.21485	41835.8375
409.36047	41689.1375
413.50311	41355.6375
417.64277	41367.1375
421.77947	41790.6375
425.9132	42160.6375
430.04396	42368.6375
434.17176	42477.8375
438.2966	42588.0375
442.41849	43129.5375
446.53742	44375.3375
450.6534	45830.7375
454.76644	46911.1375
458.87653	47236.9375
462.98368	46858.7375
467.08789	46058.7375
471.18916	45126.9375
475.2875	44227.2375
479.38291	43893.9375
483.4754	43645.2375
487.56496	43215.0375
491.6516	42476.3375
495.73531	41662.3375
499.81612	41229.5375
503.89401	41330.2375
507.96899	41606.6375
512.04106	41544.2375
516.11023	41052.0375
520.1765	40230.5375
524.23987	39508.2375
528.30034	38893.6375
532.35792	38354.7375
536.41261	37778.2375
540.46441	37342.8375
544.51333	37337.2375
548.55936	37877.1375
552.60252	38966.4375
556.64279	40163.8375
560.6802	41266.8375
564.71473	42086.2375
568.7464	43206.5375
572.7752	45113.9375
576.80114	47497.2375
580.82422	49878.5375
584.84444	52664.0375
588.86181	55985.2375
592.87633	58417.2375
596.888	57116.0375
600.89682	52985.3375
604.9028	50781.6375
608.90594	52337.3375
612.90624	54344.7375
616.90371	50249.1375
620.89834	42529.5375
624.89015	39176.0375
628.87913	38932.1375
632.86528	39128.6375
636.84862	38851.6375
640.82913	37873.5375
644.80683	36763.5375
648.78172	36170.2375
652.75379	36183.7375
656.72306	36626.3375
660.68952	37080.9375
664.65319	36706.0375
668.61405	36023.6375
672.57211	35892.5375
676.52738	36089.8375
680.47986	36052.1375
684.42955	35671.2375
688.37646	35508.4375
692.32058	35850.7375
696.26192	36611.2375
700.20048	37352.0375
704.13626	37770.8375
708.06928	37851.8375
711.99952	37780.2375
715.927	37760.4375
719.85171	37993.9375
723.77365	37735.3375
727.69284	36937.4375
731.60928	36123.4375
735.52295	35776.1375
739.43388	35737.2375
743.34206	35918.2375
747.24749	36283.7375
751.15017	36828.4375
755.05012	37696.7375
758.94733	39088.8375
762.8418	41192.8375
766.73354	44135.0375
770.62254	46498.2375
774.50882	46263.2375
778.39237	43555.5375
782.27321	40443.5375
786.15132	38074.9375
790.02671	36611.3375
793.89938	35919.9375
797.76935	35645.0375
801.6366	35595.6375
805.50115	35547.9375
809.36299	35394.0375
813.22213	35079.8375
817.07857	34832.3375
820.93231	34608.7375
824.78336	34254.3375
828.63172	33937.6375
832.47738	33806.9375
836.32036	33844.0375
840.16066	33980.4375
843.99827	34066.9375
847.8332	33987.9375
851.66546	33959.9375
855.49504	33965.3375
859.32195	33906.6375
863.1462	33835.2375
866.96777	33707.7375
870.78668	33595.1375
874.60293	33551.9375
878.41652	33547.4375
882.22745	33639.3375
886.03573	33801.3375
889.84136	33782.2375
893.64433	33590.4375
897.44466	33462.7375
901.24235	33316.2375
905.0374	33167.9375
908.8298	33164.8375
912.61957	33310.1375
916.40671	33810.0375
920.19121	34654.4375
923.97308	35280.6375
927.75233	35275.9375
931.52895	34667.5375
935.30295	33800.3375
939.07433	32941.1375
942.84309	32440.5375
946.60924	32187.4375
950.37278	32148.7375
954.13371	32149.1375
957.89203	32146.6375
961.64774	32185.5375
965.40086	32183.2375
969.15137	32159.7375
972.89929	31988.4375
976.64461	31773.5375
980.38733	31729.2375
984.12747	31809.0375
987.86502	32017.2375
991.59999	32308.8375
995.33237	32838.6375
999.06217	33735.5375
1002.78939	34797.0375
1006.51404	35858.1375
1010.23611	36692.1375
1013.95561	37173.7375
1017.67255	37177.0375
1021.38692	36540.5375
1025.09872	35646.4375
1028.80796	35308.2375
1032.51465	35757.2375
1036.21877	36512.8375
1039.92035	36782.0375
1043.61937	36653.0375
1047.31584	36197.7375
1051.00976	35585.2375
1054.70114	35367.3375
1058.38998	35489.6375
1062.07627	35843.1375
1065.76003	36358.6375
1069.44126	37030.2375
1073.11995	37800.0375
1076.79611	38445.1375
1080.46974	38724.8375
1084.14085	39066.6375
1087.80943	39643.9375
1091.47549	40214.6375
1095.13903	40390.5375
1098.80005	39708.5375
1102.45857	38467.5375
1106.11456	37394.9375
1109.76805	36872.2375
1113.41903	36762.0375
1117.06751	36856.3375
1120.71348	37178.3375
1124.35696	37544.1375
1127.99793	38004.0375
1131.63641	38388.9375
1135.2724	38589.4375
1138.90589	38688.3375
1142.5369	39022.5375
1146.16542	39698.4375
1149.79145	40328.3375
1153.415	41084.3375
1157.03607	42138.0375
1160.65467	44056.8375
1164.27079	47166.9375
1167.88443	50532.9375
1171.49561	53731.0375
1175.10432	57285.9375
1178.71056	61756.6375
1182.31434	66215.9375
1185.91565	68182.5375
1189.51451	67541.8375
1193.11091	65524.0375
1196.70485	63055.1375
1200.29634	60846.0375
1203.88538	59629.3375
1207.47197	59631.9375
1211.05612	59625.5375
1214.63782	58547.7375
1218.21708	56439.7375
1221.79391	54062.0375
1225.36829	52203.9375
1228.94024	50948.2375
1232.50976	49676.6375
1236.07685	48563.0375
1239.6415	47892.3375
1243.20374	47885.4375
1246.76355	48354.3375
1250.32093	49346.0375
1253.8759	50813.8375
1257.42845	52506.1375
1260.97859	54491.3375
1264.52631	56504.0375
1268.07163	58683.2375
1271.61453	60848.9375
1275.15503	63278.8375
1278.69312	65873.1375
1282.22882	68693.9375
1285.76211	71975.1375
1289.29301	75846.8375
1292.82151	80434.0375
1296.34761	86140.1375
1299.87133	92863.9375
1303.39266	99468.1375
1306.9116	104758.2375
1310.42815	107938.4375
1313.94233	108696.0375
1317.45412	107273.4375
1320.96354	105192.1375
1324.47058	103953.6375
1327.97525	103642.7375
1331.47754	103394.2375
1334.97747	102710.0375
1338.47502	100998.9375
1341.97022	98413.4375
1345.46305	95285.1375
1348.95352	92509.8375
1352.44163	91142.6375
1355.92738	92304.4375
1359.41078	95742.6375
1362.89183	98616.8375
1366.37053	97511.8375
1369.84688	90628.0375
1373.32088	80417.7375
1376.79254	73114.8375
1380.26186	70963.6375
1383.72883	71980.4375
1387.19347	72900.9375
1390.65578	72473.2375
1394.11575	72376.7375
1397.57339	73869.6375
1401.0287	76175.2375
1404.48168	78083.2375
1407.93234	78209.7375
1411.38068	76145.3375
1414.82669	72457.2375
1418.27039	68091.4375
1421.71177	63849.4375
1425.15083	60614.5375
1428.58758	59303.4375
1432.02203	60224.3375
1435.45416	62903.3375
1438.88399	65908.3375
1442.31151	68132.9375
1445.73673	69281.9375
1449.15965	69943.0375
1452.58027	69912.9375
1455.9986	69508.0375
1459.41463	69702.8375
1462.82837	70774.5375
1466.23982	72385.7375
1469.64898	73913.7375
1473.05586	74598.5375
1476.46045	74510.2375
1479.86276	73533.1375
1483.26279	72107.5375
1486.66054	71253.1375
1490.05602	71159.4375
1493.44922	71486.3375
1496.84016	71726.0375
1500.22882	71927.1375
1503.61521	72575.9375
1506.99934	73367.1375
1510.38121	74102.2375
1513.76081	74175.4375
1517.13816	73616.1375
1520.51324	72991.2375
1523.88607	73216.8375
1527.25665	74260.0375
1530.62498	75282.1375
1533.99105	75332.5375
1537.35488	74315.9375
1540.71647	72283.9375
1544.07581	69448.0375
1547.4329	66466.5375
1550.78776	64077.5375
1554.14038	62306.9375
1557.49077	61211.0375
1560.83892	60338.0375
1564.18484	59873.2375
1567.52853	59665.7375
1570.86999	60297.3375
1574.20922	61769.6375
1577.54624	63611.7375
1580.88103	65084.0375
1584.2136	67309.2375
1587.54395	71331.0375
1590.87208	77203.7375
1594.19801	83597.5375
1597.52172	88689.1375
1600.84321	88775.9375
1604.16251	82635.4375
1607.47959	73346.6375
1610.79447	64398.9375
1614.10715	56837.6375
1617.41763	51287.5375
1620.7259	47718.2375
1624.03199	46172.8375
1627.33587	46535.6375
1630.63757	48868.9375
1633.93707	53654.2375
1637.23439	61618.5375
1640.52951	73009.7375
1643.82246	86225.0375
1647.11321	95897.6375
1650.40179	96019.1375
1653.68819	85838.6375
1656.97241	70865.2375
1660.25446	57358.2375
1663.53433	47809.1375
1666.81203	41678.7375
1670.08756	37992.1375
1673.36092	35658.6375
1676.63211	34196.4375
1679.90115	33142.5375
1683.16801	32358.3375
1686.43272	31800.6375
1689.69527	31360.1375
1692.95567	31028.3375
1696.2139	30739.4375
1699.46999	30531.6375
1702.72392	30374.0375
1705.97571	30261.0375
1709.22535	30149.2375
1712.47284	30051.9375
1715.71819	29964.0375
1718.96139	29847.5375
1722.20246	29715.7375
1725.44139	29547.3375
1728.67818	29327.4375
1731.91284	29061.5375
1735.14537	28833.5375
1738.37576	28700.8375
1741.60403	28543.3375
1744.83017	28371.6375
1748.05418	28253.3375
1751.27607	28172.0375
1754.49584	28151.0375
1757.71349	28055.8375
1760.92903	28016.0375
1764.14244	28003.7375
1767.35375	27974.3375
1770.56294	27904.9375
1773.77002	27814.2375
1776.97499	27695.9375
1780.17785	27638.7375
1783.37861	27603.1375
1786.57727	27506.5375
1789.77382	27487.6375
1792.96828	27412.7375
1796.16064	27335.6375
1799.3509	27266.7375
1802.53907	27227.6375
1805.72514	27117.3375
1808.90913	27030.8375
1812.09102	27013.1375
1815.27083	26914.2375
1818.44856	26897.6375
1821.6242	26879.5375
1824.79776	26824.5375
1827.96924	26798.2375
1831.13864	26729.7375
1834.30597	26788.7375
1837.47122	26829.8375
1840.6344	26809.5375
1843.7955	26868.5375
1846.95454	26847.5375
1850.11151	26836.3375
1853.26642	26770.8375
1856.41926	26778.2375
1859.57004	26774.7375
1862.71876	26735.7375
1865.86542	26691.5375
1869.01003	26599.6375
1872.15258	26558.6375
1875.29308	26559.1375
1878.43152	26537.9375
1881.56792	26488.2375
1884.70227	26453.0375
1887.83457	26413.5375
1890.96482	26421.4375
1894.09304	26315.6375
1897.21921	26298.4375
1900.34335	26276.0375
1903.46544	26224.3375
1906.58551	26186.8375
1909.70353	26135.4375
1912.81953	26085.1375
1915.93349	25982.8375
1919.04543	25877.9375
1922.15534	25832.8375
1925.26322	25770.3375
1928.36908	25692.7375
1931.47292	25631.9375
1934.57473	25509.7375
1937.67453	25437.9375
1940.77232	25397.1375
1943.86808	25261.6375
1946.96184	25244.0375
1950.05358	25166.8375
1953.14331	25120.4375
1956.23103	24972.3375
1959.31675	24928.3375
1962.40046	24847.4375
1965.48217	24776.1375
1968.56188	24726.0375
1971.63959	24602.5375
1974.7153	24507.8375
1977.78901	24415.9375
1980.86073	24289.0375
1983.93046	24268.2375
1986.99819	24181.2375
1990.06394	24134.2375
1993.1277	24088.3375
1996.18947	24061.3375
1999.24925	23952.2375
2002.30706	23852.7375
2005.36288	23749.5375
2008.41672	23723.0375
2011.46859	23661.5375
2014.51848	23575.0375
2017.56639	23526.9375
2020.61233	23447.8375
2023.6563	23386.9375
2026.6983	23325.6375
2029.73833	23274.3375
2032.7764	23248.4375
2035.8125	23236.7375
2038.84664	23178.6375
2041.87881	23120.7375
2044.90903	23099.6375
2047.93729	23054.0375
2050.96359	23004.6375
2053.98794	22985.1375
2057.01034	23019.9375
2060.03078	22996.1375
2063.04927	22957.0375
2066.06582	22991.2375
2069.08042	22930.8375
2072.09307	22908.2375
2075.10378	22857.1375
2078.11255	22824.5375
2081.11938	22850.9375
2084.12426	22810.4375
2087.12722	22775.0375
2090.12824	22748.0375
2093.12732	22794.8375
2096.12447	22765.7375
2099.11969	22808.8375
2102.11299	22774.8375
2105.10435	22786.7375
2108.09379	22764.8375
2111.08131	22799.0375
2114.0669	22809.5375
2117.05057	22814.7375
2120.03233	22800.1375
2123.01216	22791.9375
2125.99008	22803.3375
2128.96609	22805.1375
2131.94018	22781.7375
2134.91236	22789.7375
2137.88263	22834.6375
2140.851	22815.2375
2143.81746	22824.1375
2146.78201	22746.5375
2149.74466	22771.6375
2152.7054	22752.9375
2155.66425	22703.4375
2158.6212	22709.1375
2161.57625	22695.7375
2164.52941	22725.7375
2167.48067	22700.5375
2170.43004	22722.8375
2173.37752	22698.9375
2176.32311	22700.6375
2179.26681	22685.7375
2182.20863	22703.0375
2185.14856	22714.8375
2188.08661	22722.0375
2191.02278	22747.7375
2193.95707	22733.9375
2196.88948	22669.9375
2199.82001	22661.5375
2202.74867	22606.6375
2205.67545	22611.6375
2208.60037	22538.8375
2211.52341	22513.0375
2214.44458	22495.1375
2217.36388	22473.0375
2220.28132	22406.2375
2223.1969	22390.9375
2226.11061	22341.1375
2229.02246	22328.0375
2231.93245	22304.7375
2234.84058	22305.9375
2237.74686	22230.5375
2240.65128	22208.5375
2243.55385	22191.5375
2246.45456	22071.7375
2249.35343	22040.8375
2252.25044	22007.9375
2255.14561	21930.7375
2258.03893	21901.2375
2260.93041	21819.5375
2263.82004	21763.0375
2266.70783	21697.5375
2269.59378	21606.5375
2272.4779	21548.2375
2275.36017	21519.7375
2278.24061	21467.8375
2281.11922	21454.3375
2283.996	21409.1375
2286.87094	21396.2375
2289.74405	21375.5375
2292.61534	21371.8375
2295.4848	21352.3375
2298.35243	21360.8375
2301.21824	21379.5375
2304.08223	21364.3375
2306.94439	21382.8375
2309.80474	21397.2375
2312.66327	21388.0375
2315.51999	21358.9375
2318.37489	21344.8375
2321.22797	21286.6375
2324.07925	21287.4375
2326.92871	21266.0375
2329.77637	21265.1375
2332.62222	21221.6375
2335.46626	21179.8375
2338.3085	21218.3375
2341.14893	21237.5375
2343.98756	21239.2375
2346.8244	21273.7375
2349.65943	21246.1375
2352.49267	21217.1375
2355.32411	21250.7375
2358.15376	21251.6375
2360.98161	21199.0375
2363.80768	21186.1375
2366.63195	21190.3375
2369.45444	21167.9375
2372.27514	21106.8375
2375.09405	21103.0375
2377.91118	21027.0375
2380.72652	20951.3375
2383.54009	20950.4375
2386.35187	20901.3375
2389.16188	20856.6375
2391.97011	20830.6375
2394.77657	20795.5375
2397.58125	20779.6375
2400.38416	20739.3375
2403.18529	20740.0375
2405.98466	20718.8375
2408.78226	20631.6375
2411.57809	20642.8375
2414.37216	20623.7375
2417.16446	20632.7375
2419.955	20613.8375
2422.74378	20584.7375
2425.5308	20523.9375
2428.31606	20513.4375
2431.09956	20538.9375
2433.88131	20525.2375
2436.6613	20543.1375
2439.43954	20496.1375
2442.21603	20512.8375
2444.99077	20478.5375
2447.76377	20501.6375
2450.53501	20489.8375
2453.30451	20492.2375
2456.07226	20442.0375
2458.83827	20474.0375
2461.60254	20515.8375
2464.36507	20441.0375
2467.12586	20492.4375
2469.88492	20493.8375
2472.64224	20476.5375
2475.39782	20549.6375
2478.15167	20583.9375
2480.90379	20563.7375
2483.65417	20577.2375
2486.40283	20570.7375
2489.14976	20617.4375
2491.89497	20546.2375
2494.63845	20631.3375
2497.3802	20577.6375
2500.12024	20630.6375
2502.85855	20613.3375
2505.59514	20597.4375
2508.33002	20590.9375
2511.06318	20606.4375
2513.79462	20575.6375
2516.52435	20564.0375
2519.25237	20579.9375
2521.97867	20580.2375
2524.70327	20560.2375
2527.42616	20485.9375
2530.14734	20551.0375
2532.86681	20554.9375
2535.58458	20611.4375
2538.30065	20581.5375
2541.01501	20546.5375
2543.72768	20510.4375
2546.43864	20514.5375
2549.14791	20486.7375
2551.85548	20496.7375
2554.56136	20457.0375
2557.26554	20466.7375
2559.96803	20456.2375
2562.66883	20461.0375
2565.36794	20424.1375
2568.06536	20416.7375
2570.7611	20435.7375
2573.45514	20415.7375
2576.14751	20440.9375
2578.83819	20435.8375
2581.52719	20417.9375
2584.21451	20419.7375
2586.90015	20436.6375
2589.58411	20439.0375
2592.2664	20457.3375
2594.94701	20420.3375
2597.62594	20459.1375
2600.30321	20414.8375
2602.9788	20430.4375
2605.65273	20398.6375
2608.32498	20451.8375
2610.99557	20450.1375
2613.66449	20472.9375
2616.33175	20460.9375
2618.99734	20480.4375
2621.66128	20460.9375
2624.32355	20428.6375
2626.98416	20418.6375
2629.64311	20436.2375
2632.30041	20440.9375
2634.95605	20446.6375
2637.61004	20400.4375
2640.26238	20417.5375
2642.91306	20402.1375
2645.56209	20357.3375
2648.20948	20424.2375
2650.85521	20475.0375
2653.4993	20485.7375
2656.14175	20493.3375
2658.78255	20492.2375
2661.42171	20503.1375
2664.05923	20540.5375
2666.6951	20562.0375
2669.32934	20606.2375
2671.96194	20628.3375
2674.59291	20611.4375
2677.22224	20603.2375
2679.84993	20624.2375
2682.476	20592.1375
2685.10043	20585.2375
2687.72324	20512.4375
2690.34441	20503.1375
2692.96396	20495.0375
2695.58188	20549.7375
2698.19818	20521.1375
2700.81285	20560.7375
2703.4259	20538.2375
2706.03733	20554.6375
2708.64714	20560.5375
2711.25533	20589.5375
2713.86191	20603.3375
2716.46687	20603.1375
2719.07021	20670.0375
2721.67194	20718.2375
2724.27206	20716.9375
2726.87057	20754.2375
2729.46747	20798.2375
2732.06276	20803.9375
2734.65644	20812.9375
2737.24852	20834.8375
2739.83899	20814.0375
2742.42786	20796.5375
2745.01513	20793.9375
2747.60079	20781.8375
2750.18486	20784.5375
2752.76733	20783.1375
2755.3482	20745.6375
2757.92747	20766.6375
2760.50515	20745.2375
2763.08123	20733.2375
2765.65573	20754.9375
2768.22863	20782.4375
2770.79994	20796.0375
2773.36967	20791.5375
2775.9378	20765.9375
2778.50435	20758.9375
2781.06932	20785.5375
2783.6327	20783.6375
2786.1945	20792.6375
2788.75471	20840.5375
2791.31335	20796.5375
2793.87041	20773.0375
2796.42589	20686.2375
2798.97979	20690.5375
2801.53212	20724.1375
2804.08288	20627.9375
2806.63206	20592.1375
2809.17967	20553.7375
2811.72571	20521.3375
2814.27018	20509.5375
2816.81308	20444.2375
2819.35442	20393.9375
2821.89419	20384.5375
2824.43239	20382.0375
2826.96904	20371.9375
2829.50412	20370.0375
2832.03763	20324.8375
2834.56959	20290.4375
2837.1	20279.0375
2839.62884	20255.6375
2842.15613	20227.1375
2844.68186	20291.1375
2847.20604	20314.3375
2849.72867	20299.1375
2852.24974	20309.1375
2854.76927	20298.5375
2857.28724	20301.2375
2859.80367	20282.3375
2862.31855	20227.3375
2864.83189	20194.0375
2867.34368	20177.4375
2869.85393	20151.7375
2872.36264	20125.3375
2874.8698	20123.6375
2877.37543	20110.8375
2879.87952	20082.0375
2882.38207	20148.2375
2884.88308	20099.0375
2887.38256	20143.0375
2889.88051	20122.5375
2892.37692	20157.4375
2894.8718	20170.7375
2897.36515	20187.4375
2899.85698	20249.2375
2902.34727	20258.4375
2904.83604	20273.0375
2907.32328	20342.9375
2909.809	20309.2375
2912.29319	20296.1375
2914.77587	20323.5375
2917.25702	20331.4375
2919.73665	20319.6375
2922.21476	20288.3375
2924.69136	20301.2375
2927.16644	20285.5375
2929.64	20221.4375
2932.11205	20186.6375
2934.58258	20184.4375
2937.05161	20155.3375
2939.51912	20156.8375
2941.98513	20139.8375
2944.44962	20112.4375
2946.91261	20045.2375
2949.37409	20037.4375
2951.83407	20011.1375
2954.29254	19992.9375
2956.74951	19959.9375
2959.20498	19945.6375
2961.65895	19930.1375
2964.11142	19904.0375
2966.56239	19838.7375
2969.01186	19833.4375
2971.45984	19800.6375
2973.90632	19792.3375
2976.35131	19722.8375
2978.7948	19692.4375
2981.23681	19667.6375
2983.67732	19571.8375
2986.11635	19553.3375
2988.55388	19498.3375
2990.98993	19420.7375
2993.4245	19360.3375
2995.85758	19286.6375
2998.28917	19296.0375
3000.71928	19229.5375
3003.14791	19180.1375
3005.57506	19132.1375
3008.00073	19071.4375
3010.42493	19052.7375
3012.84764	19014.6375
3015.26888	19003.4375
3017.68865	18903.8375
3020.10694	18902.0375
3022.52376	18838.3375
3024.9391	18831.8375
3027.35298	18835.9375
3029.76539	18798.4375
3032.17632	18794.8375
3034.5858	18752.8375
3036.9938	18772.9375
3039.40034	18750.6375
3041.80542	18760.2375
3044.20903	18719.0375
3046.61118	18730.6375
3049.01187	18674.0375
3051.4111	18644.4375
3053.80888	18628.1375
3056.20519	18642.7375
3058.60005	18528.1375
3060.99345	18473.1375
3063.3854	18401.9375
3065.7759	18337.7375
3068.16494	18262.6375
3070.55254	18208.8375
3072.93868	18129.1375
3075.32338	18069.4375
3077.70662	18048.9375
3080.08842	17984.9375
3082.46878	17963.7375
3084.84769	17901.0375
3087.22515	17884.2375
3089.60118	17869.0375
3091.97576	17853.5375
3094.3489	17813.7375
3096.72061	17839.5375
3099.09087	17796.8375
3101.4597	17819.3375
3103.82709	17807.2375
3106.19305	17739.0375
3108.55757	17741.4375
3110.92066	17665.3375
3113.28232	17656.3375
3115.64255	17617.3375
3118.00134	17545.1375
3120.35871	17532.8375
3122.71466	17492.3375
3125.06917	17423.3375
3127.42226	17374.2375
3129.77393	17375.7375
3132.12417	17304.3375
3134.47299	17320.6375
3136.82039	17295.6375
3139.16636	17306.2375
3141.51092	17278.9375
3143.85406	17237.6375
3146.19579	17235.1375
3148.53609	17251.0375
3150.87499	17219.5375
3153.21246	17205.1375
3155.54853	17217.3375
3157.88318	17159.6375
3160.21642	17212.4375
3162.54826	17172.0375
3164.87868	17216.0375
3167.2077	17197.8375
3169.5353	17167.5375
3171.86151	17170.2375
3174.18631	17146.0375
3176.5097	17143.9375
3178.83169	17130.4375
3181.15228	17088.9375
3183.47147	17077.5375
3185.78926	17064.2375
3188.10565	16996.3375
3190.42065	16994.3375
3192.73424	16948.7375
3195.04645	16952.5375
3197.35725	16904.1375
3199.66667	16879.2375
3201.97469	16878.7375
3204.28132	16817.4375
3206.58656	16813.3375
3208.8904	16854.1375
3211.19287	16867.9375
3213.49394	16825.2375
3215.79363	16879.4375
3218.09193	16833.2375
3220.38884	16813.5375
3222.68438	16828.8375
3224.97853	16783.4375
3227.2713	16772.8375
3229.56269	16749.5375
3231.8527	16753.1375
3234.14133	16729.2375
3236.42858	16696.7375
3238.71446	16703.6375
3240.99896	16674.5375
3243.28209	16638.1375
3245.56384	16599.1375
3247.84423	16594.9375
3250.12324	16530.0375
3252.40088	16488.2375
3254.67715	16488.7375
3256.95205	16445.7375
3259.22558	16428.2375
3261.49775	16378.1375
3263.76855	16362.1375
3266.03799	16354.5375
3268.30606	16300.0375
3270.57277	16260.8375
3272.83812	16234.0375
3275.10211	16198.1375
3277.36474	16190.6375
3279.62601	16210.1375
3281.88593	16172.4375
3284.14448	16190.6375
3286.40168	16223.6375
3288.65753	16183.1375
3290.91202	16193.9375
3293.16516	16120.6375
3295.41695	16109.7375
3297.66738	16002.1375
3299.91647	15937.6375
3302.16421	15817.6375
3304.4106	15712.6375
3306.65564	15591.2375
3308.89933	15461.6375
3311.14169	15348.1375
3313.38269	15204.2375
3315.62236	15127.1375
3317.86068	14956.3375
3320.09766	14854.8375
3322.3333	14728.4375
3324.5676	14664.3375
3326.80056	14434.7375
3329.03219	14339.7375
3331.26248	4.4375
3333.49143	-1.4625
3335.71905	-0.7625
