Data from AgNPs_FTO_APTES_UA_5uM_CRN_500uM_R6G_10uM_NaF_0.1M_Addition_RamanShift__28__17-13-21-847.txt Node

Date: Mon Feb 07 17:13:21 GMT 2022
User: TCL
Spectrometer: QEP01345
Trigger mode: 4
Integration Time (sec): 7.000000E0
Scans to average: 10
Electric dark correction enabled: true
Nonlinearity correction enabled: false
Boxcar width: 0
XAxis mode: Raman Shifts
Number of Pixels in Spectrum: 1044
>>>>>Begin Spectral Data<<<<<
46.04893	-2.8125
50.45542	-1.2125
54.85868	0.2875
59.25871	-0.8125
63.6555	71.8875
68.04907	74.2875
72.43941	79.1875
76.82654	78.0875
81.21044	82.2875
85.59113	85.5875
89.96862	87.7875
94.34289	88.9875
98.71396	90.8875
103.08183	98.4875
107.4465	98.6875
111.80798	101.7875
116.16626	104.8875
120.52136	112.9875
124.87327	113.1875
129.222	126.0875
133.56755	130.9875
137.90993	143.0875
142.24913	160.0875
146.58517	180.1875
150.91804	211.4875
155.24774	263.2875
159.57429	333.9875
163.89768	426.6875
168.21792	572.9875
172.53501	792.8875
176.84895	1100.2875
181.15975	1550.2875
185.46741	2176.5875
189.77193	3005.5875
194.07331	4025.2875
198.37157	5198.5875
202.6667	6439.2875
206.9587	7676.9875
211.24758	8956.6875
215.53334	10244.7875
219.81599	11651.6875
224.09553	13246.2875
228.37195	14981.3875
232.64527	16882.2875
236.91549	18755.6875
241.18261	20527.8875
245.44663	22047.1875
249.70755	23357.8875
253.96539	24517.4875
258.22014	25506.5875
262.4718	26313.1875
266.72039	26927.6875
270.96589	27267.3875
275.20832	27309.0875
279.44768	27108.1875
283.68397	26839.6875
287.91719	26661.5875
292.14735	26763.9875
296.37445	27222.3875
300.59849	27992.8875
304.81948	28852.5875
309.03742	29320.8875
313.25231	29118.3875
317.46415	27787.7875
321.67296	25923.3875
325.87872	24342.9875
330.08145	23621.2875
334.28114	23590.5875
338.47781	23878.1875
342.67145	24445.8875
346.86207	25332.1875
351.04966	26583.9875
355.23424	27980.9875
359.4158	28995.0875
363.59435	29450.5875
367.76989	29576.1875
371.94243	29464.1875
376.11196	29381.1875
380.27849	29248.8875
384.44203	29094.4875
388.60257	28878.5875
392.76012	28763.7875
396.91468	28967.5875
401.06626	29624.7875
405.21485	30094.2875
409.36047	29670.0875
413.50311	28366.2875
417.64277	27155.3875
421.77947	26527.3875
425.9132	26380.2875
430.04396	26459.1875
434.17176	26743.9875
438.2966	27158.6875
442.41849	27963.8875
446.53742	28962.9875
450.6534	29981.0875
454.76644	30655.8875
458.87653	30683.8875
462.98368	30369.3875
467.08789	29891.4875
471.18916	29483.7875
475.2875	29109.4875
479.38291	28840.8875
483.4754	28468.1875
487.56496	27932.0875
491.6516	27257.7875
495.73531	26722.0875
499.81612	26438.0875
503.89401	26621.3875
507.96899	26786.0875
512.04106	26923.1875
516.11023	27128.4875
520.1765	27175.0875
524.23987	27104.6875
528.30034	26723.3875
532.35792	26393.0875
536.41261	25924.4875
540.46441	25473.0875
544.51333	25315.3875
548.55936	25607.2875
552.60252	26349.7875
556.64279	27220.5875
560.6802	27949.0875
564.71473	28592.8875
568.7464	29883.8875
572.7752	30843.4875
576.80114	30182.7875
580.82422	29089.9875
584.84444	28575.7875
588.86181	28739.0875
592.87633	29309.3875
596.888	29700.5875
600.89682	29968.1875
604.9028	31982.8875
608.90594	38467.4875
612.90624	47533.9875
616.90371	45455.4875
620.89834	32844.3875
624.89015	26890.3875
628.87913	25888.0875
632.86528	26081.3875
636.84862	26301.5875
640.82913	25756.9875
644.80683	24712.2875
648.78172	23922.7875
652.75379	23880.8875
656.72306	24562.1875
660.68952	25613.3875
664.65319	25455.9875
668.61405	24405.8875
672.57211	23908.7875
676.52738	23868.3875
680.47986	23902.0875
684.42955	23745.7875
688.37646	23612.7875
692.32058	23695.8875
696.26192	23883.9875
700.20048	24189.6875
704.13626	24359.2875
708.06928	24340.3875
711.99952	24155.2875
715.927	24054.6875
719.85171	24109.1875
723.77365	24130.5875
727.69284	23940.8875
731.60928	23697.0875
735.52295	23643.5875
739.43388	23722.8875
743.34206	23802.4875
747.24749	23870.1875
751.15017	24082.5875
755.05012	24566.7875
758.94733	25725.1875
762.8418	28270.9875
766.73354	32531.2875
770.62254	36768.5875
774.50882	38764.5875
778.39237	36900.7875
782.27321	32229.8875
786.15132	27744.1875
790.02671	25208.8875
793.89938	24048.8875
797.76935	23604.8875
801.6366	23368.6875
805.50115	23282.5875
809.36299	23159.2875
813.22213	23032.3875
817.07857	23067.1875
820.93231	23076.5875
824.78336	23112.1875
828.63172	23113.3875
832.47738	23128.9875
836.32036	23051.3875
840.16066	22881.2875
843.99827	22800.3875
847.8332	22751.0875
851.66546	22648.3875
855.49504	22618.4875
859.32195	22565.4875
863.1462	22504.4875
866.96777	22446.5875
870.78668	22368.9875
874.60293	22393.9875
878.41652	22441.9875
882.22745	22614.1875
886.03573	22648.9875
889.84136	22600.8875
893.64433	22468.7875
897.44466	22431.1875
901.24235	22370.0875
905.0374	22268.9875
908.8298	22183.1875
912.61957	22184.6875
916.40671	22359.8875
920.19121	22569.5875
923.97308	22808.7875
927.75233	22969.6875
931.52895	23103.4875
935.30295	22835.6875
939.07433	22235.3875
942.84309	21675.3875
946.60924	21340.7875
950.37278	21153.2875
954.13371	21068.6875
957.89203	21036.9875
961.64774	20990.4875
965.40086	20986.4875
969.15137	20843.3875
972.89929	20737.1875
976.64461	20669.1875
980.38733	20643.4875
984.12747	20648.0875
987.86502	20789.6875
991.59999	20961.6875
995.33237	21329.1875
999.06217	21881.1875
1002.78939	22576.6875
1006.51404	23167.4875
1010.23611	23593.1875
1013.95561	23801.2875
1017.67255	23662.3875
1021.38692	23286.4875
1025.09872	22780.9875
1028.80796	22603.1875
1032.51465	22781.9875
1036.21877	23010.8875
1039.92035	23128.5875
1043.61937	23094.7875
1047.31584	22974.4875
1051.00976	22813.1875
1054.70114	22689.5875
1058.38998	22691.5875
1062.07627	22910.8875
1065.76003	23067.4875
1069.44126	23163.4875
1073.11995	23341.4875
1076.79611	23606.3875
1080.46974	23975.6875
1084.14085	24504.6875
1087.80943	25095.3875
1091.47549	25400.5875
1095.13903	25143.8875
1098.80005	24482.8875
1102.45857	23844.1875
1106.11456	23484.4875
1109.76805	23599.0875
1113.41903	24032.9875
1117.06751	24809.4875
1120.71348	25803.8875
1124.35696	26805.7875
1127.99793	27655.0875
1131.63641	27477.3875
1135.2724	26368.6875
1138.90589	25321.4875
1142.5369	24761.4875
1146.16542	24506.1875
1149.79145	24454.6875
1153.415	24612.8875
1157.03607	24913.9875
1160.65467	25539.9875
1164.27079	26651.8875
1167.88443	28242.0875
1171.49561	30659.0875
1175.10432	34337.6875
1178.71056	39119.5875
1182.31434	42846.5875
1185.91565	43956.6875
1189.51451	43046.0875
1193.11091	40920.3875
1196.70485	38446.3875
1200.29634	36375.9875
1203.88538	34670.6875
1207.47197	32885.5875
1211.05612	31351.8875
1214.63782	30435.7875
1218.21708	30037.6875
1221.79391	29907.5875
1225.36829	29662.0875
1228.94024	29183.1875
1232.50976	28699.9875
1236.07685	28381.9875
1239.6415	28301.4875
1243.20374	28405.6875
1246.76355	28598.7875
1250.32093	29053.1875
1253.8759	29714.7875
1257.42845	30651.0875
1260.97859	31619.4875
1264.52631	32584.3875
1268.07163	33502.4875
1271.61453	34394.7875
1275.15503	35135.6875
1278.69312	35697.8875
1282.22882	36268.0875
1285.76211	37231.7875
1289.29301	38745.9875
1292.82151	40466.6875
1296.34761	42566.0875
1299.87133	45391.8875
1303.39266	49229.9875
1306.9116	54411.5875
1310.42815	60020.7875
1313.94233	63401.4875
1317.45412	62836.6875
1320.96354	59840.3875
1324.47058	56479.9875
1327.97525	53381.7875
1331.47754	51405.0875
1334.97747	50621.3875
1338.47502	50878.8875
1341.97022	51444.9875
1345.46305	52019.1875
1348.95352	52663.5875
1352.44163	53983.1875
1355.92738	57072.1875
1359.41078	63115.3875
1362.89183	68970.2875
1366.37053	66746.7875
1369.84688	57260.0875
1373.32088	48057.9875
1376.79254	42603.9875
1380.26186	40171.9875
1383.72883	39330.3875
1387.19347	38996.2875
1390.65578	38650.3875
1394.11575	38573.4875
1397.57339	39202.4875
1401.0287	40295.3875
1404.48168	41362.5875
1407.93234	41924.3875
1411.38068	41783.2875
1414.82669	40708.8875
1418.27039	38763.4875
1421.71177	36722.3875
1425.15083	34841.5875
1428.58758	33850.5875
1432.02203	33833.0875
1435.45416	34303.5875
1438.88399	34944.4875
1442.31151	35478.2875
1445.73673	36092.5875
1449.15965	36795.3875
1452.58027	37374.8875
1455.9986	37693.1875
1459.41463	38047.9875
1462.82837	38678.8875
1466.23982	39480.8875
1469.64898	40245.8875
1473.05586	40431.9875
1476.46045	40302.3875
1479.86276	40144.6875
1483.26279	40064.3875
1486.66054	40177.0875
1490.05602	40689.5875
1493.44922	41409.5875
1496.84016	42548.1875
1500.22882	44870.6875
1503.61521	48616.6875
1506.99934	53502.9875
1510.38121	58388.9875
1513.76081	60632.1875
1517.13816	58025.6875
1520.51324	52076.7875
1523.88607	46245.9875
1527.25665	42514.2875
1530.62498	40560.4875
1533.99105	39687.3875
1537.35488	39154.9875
1540.71647	38786.4875
1544.07581	38346.6875
1547.4329	37854.8875
1550.78776	37356.6875
1554.14038	36978.6875
1557.49077	36971.6875
1560.83892	37260.4875
1564.18484	37969.8875
1567.52853	38649.7875
1570.86999	39260.5875
1574.20922	39724.0875
1577.54624	39847.4875
1580.88103	38818.7875
1584.2136	37609.0875
1587.54395	37556.5875
1590.87208	38990.6875
1594.19801	41692.3875
1597.52172	44731.2875
1600.84321	46058.1875
1604.16251	44400.3875
1607.47959	40765.4875
1610.79447	36690.1875
1614.10715	32847.4875
1617.41763	29886.1875
1620.7259	27923.8875
1624.03199	26972.5875
1627.33587	26904.1875
1630.63757	27678.9875
1633.93707	29414.9875
1637.23439	32308.5875
1640.52951	36620.9875
1643.82246	42189.4875
1647.11321	47714.6875
1650.40179	50614.8875
1653.68819	48274.9875
1656.97241	41270.4875
1660.25446	33837.3875
1663.53433	28462.0875
1666.81203	25073.6875
1670.08756	23111.4875
1673.36092	21913.6875
1676.63211	21099.9875
1679.90115	20586.4875
1683.16801	20230.6875
1686.43272	19911.9875
1689.69527	19706.8875
1692.95567	19566.1875
1696.2139	19439.1875
1699.46999	19310.9875
1702.72392	19222.4875
1705.97571	19220.2875
1709.22535	19166.3875
1712.47284	19153.4875
1715.71819	19102.8875
1718.96139	19094.5875
1722.20246	19005.1875
1725.44139	18906.6875
1728.67818	18772.2875
1731.91284	18676.7875
1735.14537	18537.6875
1738.37576	18440.2875
1741.60403	18362.7875
1744.83017	18328.5875
1748.05418	18281.9875
1751.27607	18212.9875
1754.49584	18154.2875
1757.71349	18097.4875
1760.92903	18129.6875
1764.14244	18057.6875
1767.35375	18070.5875
1770.56294	18008.3875
1773.77002	17929.8875
1776.97499	17868.2875
1780.17785	17834.3875
1783.37861	17810.9875
1786.57727	17756.3875
1789.77382	17775.5875
1792.96828	17717.9875
1796.16064	17683.2875
1799.3509	17670.6875
1802.53907	17595.7875
1805.72514	17565.8875
1808.90913	17503.1875
1812.09102	17491.0875
1815.27083	17410.3875
1818.44856	17362.6875
1821.6242	17342.2875
1824.79776	17297.4875
1827.96924	17282.5875
1831.13864	17255.1875
1834.30597	17216.2875
1837.47122	17197.1875
1840.6344	17208.5875
1843.7955	17161.6875
1846.95454	17153.2875
1850.11151	17140.2875
1853.26642	17131.9875
1856.41926	17111.4875
1859.57004	17135.2875
1862.71876	17130.3875
1865.86542	17129.8875
1869.01003	17112.6875
1872.15258	17113.2875
1875.29308	17128.3875
1878.43152	17091.0875
1881.56792	17104.2875
1884.70227	17115.2875
1887.83457	17090.1875
1890.96482	17054.9875
1894.09304	17068.9875
1897.21921	17060.6875
1900.34335	17055.9875
1903.46544	17048.0875
1906.58551	17062.3875
1909.70353	17052.6875
1912.81953	17035.7875
1915.93349	16986.5875
1919.04543	16975.3875
1922.15534	16952.2875
1925.26322	16883.5875
1928.36908	16867.8875
1931.47292	16816.5875
1934.57473	16752.5875
1937.67453	16679.7875
1940.77232	16641.4875
1943.86808	16537.4875
1946.96184	16457.6875
1950.05358	16426.9875
1953.14331	16350.2875
1956.23103	16267.8875
1959.31675	16215.7875
1962.40046	16167.4875
1965.48217	16152.9875
1968.56188	16077.7875
1971.63959	16023.3875
1974.7153	16000.2875
1977.78901	15936.4875
1980.86073	15939.2875
1983.93046	15840.8875
1986.99819	15780.0875
1990.06394	15744.7875
1993.1277	15658.6875
1996.18947	15602.1875
1999.24925	15563.0875
2002.30706	15529.0875
2005.36288	15462.8875
2008.41672	15429.1875
2011.46859	15354.0875
2014.51848	15323.1875
2017.56639	15287.5875
2020.61233	15258.6875
2023.6563	15183.4875
2026.6983	15115.4875
2029.73833	15119.7875
2032.7764	15068.6875
2035.8125	15056.2875
2038.84664	15026.9875
2041.87881	14997.3875
2044.90903	14969.8875
2047.93729	14939.4875
2050.96359	14958.1875
2053.98794	14903.9875
2057.01034	14868.2875
2060.03078	14869.8875
2063.04927	14877.0875
2066.06582	14868.8875
2069.08042	14854.8875
2072.09307	14835.7875
2075.10378	14796.3875
2078.11255	14762.5875
2081.11938	14780.2875
2084.12426	14748.7875
2087.12722	14733.4875
2090.12824	14743.0875
2093.12732	14729.5875
2096.12447	14737.0875
2099.11969	14726.6875
2102.11299	14696.2875
2105.10435	14706.4875
2108.09379	14719.7875
2111.08131	14691.6875
2114.0669	14718.7875
2117.05057	14740.1875
2120.03233	14750.3875
2123.01216	14732.3875
2125.99008	14750.5875
2128.96609	14764.2875
2131.94018	14772.5875
2134.91236	14774.1875
2137.88263	14795.6875
2140.851	14778.7875
2143.81746	14744.5875
2146.78201	14777.1875
2149.74466	14764.9875
2152.7054	14763.0875
2155.66425	14746.0875
2158.6212	14696.4875
2161.57625	14681.3875
2164.52941	14674.6875
2167.48067	14689.0875
2170.43004	14664.3875
2173.37752	14655.3875
2176.32311	14658.2875
2179.26681	14694.8875
2182.20863	14659.0875
2185.14856	14705.5875
2188.08661	14686.2875
2191.02278	14703.7875
2193.95707	14656.9875
2196.88948	14610.2875
2199.82001	14598.6875
2202.74867	14578.1875
2205.67545	14591.4875
2208.60037	14551.1875
2211.52341	14533.7875
2214.44458	14512.9875
2217.36388	14486.8875
2220.28132	14434.6875
2223.1969	14372.7875
2226.11061	14375.4875
2229.02246	14347.5875
2231.93245	14319.0875
2234.84058	14240.5875
2237.74686	14222.4875
2240.65128	14239.7875
2243.55385	14234.6875
2246.45456	14239.8875
2249.35343	14209.5875
2252.25044	14186.8875
2255.14561	14144.7875
2258.03893	14112.9875
2260.93041	14112.4875
2263.82004	14071.3875
2266.70783	14075.5875
2269.59378	13991.4875
2272.4779	13968.8875
2275.36017	13943.9875
2278.24061	13919.7875
2281.11922	13889.5875
2283.996	13835.9875
2286.87094	13809.8875
2289.74405	13771.4875
2292.61534	13764.2875
2295.4848	13748.0875
2298.35243	13734.5875
2301.21824	13767.7875
2304.08223	13783.5875
2306.94439	13778.1875
2309.80474	13756.6875
2312.66327	13760.3875
2315.51999	13737.3875
2318.37489	13742.6875
2321.22797	13690.2875
2324.07925	13676.4875
2326.92871	13631.5875
2329.77637	13664.9875
2332.62222	13629.0875
2335.46626	13625.8875
2338.3085	13608.3875
2341.14893	13613.1875
2343.98756	13640.3875
2346.8244	13592.7875
2349.65943	13603.2875
2352.49267	13603.6875
2355.32411	13620.5875
2358.15376	13636.9875
2360.98161	13642.8875
2363.80768	13665.3875
2366.63195	13663.7875
2369.45444	13639.7875
2372.27514	13641.0875
2375.09405	13597.0875
2377.91118	13554.9875
2380.72652	13505.4875
2383.54009	13431.8875
2386.35187	13454.5875
2389.16188	13361.5875
2391.97011	13322.8875
2394.77657	13290.5875
2397.58125	13238.8875
2400.38416	13258.1875
2403.18529	13188.6875
2405.98466	13171.9875
2408.78226	13178.3875
2411.57809	13158.5875
2414.37216	13127.1875
2417.16446	13130.8875
2419.955	13089.3875
2422.74378	13101.0875
2425.5308	13060.6875
2428.31606	13080.2875
2431.09956	13034.2875
2433.88131	13018.4875
2436.6613	13069.4875
2439.43954	13051.8875
2442.21603	13052.7875
2444.99077	13045.2875
2447.76377	13033.5875
2450.53501	13016.3875
2453.30451	13032.9875
2456.07226	13027.2875
2458.83827	13027.1875
2461.60254	13006.6875
2464.36507	12998.2875
2467.12586	13036.0875
2469.88492	12979.2875
2472.64224	12961.5875
2475.39782	12964.6875
2478.15167	13018.2875
2480.90379	13028.0875
2483.65417	13026.9875
2486.40283	13065.2875
2489.14976	13065.3875
2491.89497	13080.7875
2494.63845	13110.1875
2497.3802	13101.7875
2500.12024	13104.9875
2502.85855	13043.8875
2505.59514	13047.0875
2508.33002	12982.0875
2511.06318	12974.3875
2513.79462	12942.6875
2516.52435	12903.2875
2519.25237	12863.1875
2521.97867	12836.6875
2524.70327	12825.9875
2527.42616	12801.8875
2530.14734	12812.4875
2532.86681	12799.8875
2535.58458	12812.1875
2538.30065	12776.2875
2541.01501	12788.3875
2543.72768	12777.5875
2546.43864	12737.1875
2549.14791	12719.6875
2551.85548	12746.2875
2554.56136	12731.3875
2557.26554	12671.8875
2559.96803	12686.0875
2562.66883	12654.3875
2565.36794	12656.1875
2568.06536	12644.1875
2570.7611	12664.0875
2573.45514	12626.9875
2576.14751	12596.2875
2578.83819	12572.4875
2581.52719	12576.6875
2584.21451	12570.8875
2586.90015	12555.4875
2589.58411	12571.0875
2592.2664	12532.8875
2594.94701	12524.4875
2597.62594	12532.3875
2600.30321	12499.1875
2602.9788	12505.1875
2605.65273	12504.5875
2608.32498	12531.3875
2610.99557	12516.9875
2613.66449	12517.4875
2616.33175	12501.1875
2618.99734	12507.5875
2621.66128	12473.4875
2624.32355	12520.7875
2626.98416	12460.1875
2629.64311	12471.5875
2632.30041	12470.7875
2634.95605	12444.4875
2637.61004	12420.3875
2640.26238	12426.3875
2642.91306	12373.1875
2645.56209	12368.7875
2648.20948	12389.1875
2650.85521	12395.6875
2653.4993	12361.2875
2656.14175	12381.3875
2658.78255	12395.9875
2661.42171	12408.1875
2664.05923	12416.1875
2666.6951	12404.8875
2669.32934	12436.2875
2671.96194	12428.5875
2674.59291	12424.5875
2677.22224	12427.0875
2679.84993	12442.9875
2682.476	12412.7875
2685.10043	12399.5875
2687.72324	12399.8875
2690.34441	12356.4875
2692.96396	12356.1875
2695.58188	12368.0875
2698.19818	12366.0875
2700.81285	12383.4875
2703.4259	12395.1875
2706.03733	12403.6875
2708.64714	12403.1875
2711.25533	12400.5875
2713.86191	12415.5875
2716.46687	12406.4875
2719.07021	12431.7875
2721.67194	12451.3875
2724.27206	12414.8875
2726.87057	12447.7875
2729.46747	12460.0875
2732.06276	12455.1875
2734.65644	12427.9875
2737.24852	12412.6875
2739.83899	12411.4875
2742.42786	12390.3875
2745.01513	12376.0875
2747.60079	12373.7875
2750.18486	12344.7875
2752.76733	12354.3875
2755.3482	12323.8875
2757.92747	12338.5875
2760.50515	12323.9875
2763.08123	12326.2875
2765.65573	12306.5875
2768.22863	12298.9875
2770.79994	12304.6875
2773.36967	12295.2875
2775.9378	12311.6875
2778.50435	12291.7875
2781.06932	12320.6875
2783.6327	12272.2875
2786.1945	12258.2875
2788.75471	12284.3875
2791.31335	12281.4875
2793.87041	12259.0875
2796.42589	12259.2875
2798.97979	12258.4875
2801.53212	12204.3875
2804.08288	12180.1875
2806.63206	12184.4875
2809.17967	12165.0875
2811.72571	12131.0875
2814.27018	12146.7875
2816.81308	12144.7875
2819.35442	12109.3875
2821.89419	12085.5875
2824.43239	12119.6875
2826.96904	12101.0875
2829.50412	12120.6875
2832.03763	12085.7875
2834.56959	12083.7875
2837.1	12047.5875
2839.62884	12063.1875
2842.15613	12080.4875
2844.68186	12150.6875
2847.20604	12204.6875
2849.72867	12218.5875
2852.24974	12205.6875
2854.76927	12223.1875
2857.28724	12198.2875
2859.80367	12191.4875
2862.31855	12184.6875
2864.83189	12151.1875
2867.34368	12111.8875
2869.85393	12136.8875
2872.36264	12135.8875
2874.8698	12116.7875
2877.37543	12123.0875
2879.87952	12108.2875
2882.38207	12091.9875
2884.88308	12081.4875
2887.38256	12098.6875
2889.88051	12082.0875
2892.37692	12102.5875
2894.8718	12083.3875
2897.36515	12102.5875
2899.85698	12119.8875
2902.34727	12126.3875
2904.83604	12127.3875
2907.32328	12120.9875
2909.809	12138.8875
2912.29319	12139.2875
2914.77587	12123.5875
2917.25702	12087.7875
2919.73665	12073.0875
2922.21476	12084.9875
2924.69136	12056.5875
2927.16644	12089.9875
2929.64	12043.8875
2932.11205	12026.6875
2934.58258	11973.9875
2937.05161	11967.0875
2939.51912	11939.7875
2941.98513	11924.6875
2944.44962	11880.9875
2946.91261	11810.6875
2949.37409	11817.4875
2951.83407	11789.2875
2954.29254	11780.3875
2956.74951	11745.0875
2959.20498	11752.8875
2961.65895	11733.5875
2964.11142	11687.9875
2966.56239	11699.3875
2969.01186	11659.4875
2971.45984	11617.5875
2973.90632	11639.3875
2976.35131	11579.4875
2978.7948	11548.4875
2981.23681	11509.2875
2983.67732	11492.7875
2986.11635	11463.3875
2988.55388	11422.9875
2990.98993	11391.6875
2993.4245	11375.0875
2995.85758	11340.9875
2998.28917	11311.4875
3000.71928	11306.1875
3003.14791	11280.1875
3005.57506	11267.8875
3008.00073	11221.1875
3010.42493	11219.8875
3012.84764	11198.2875
3015.26888	11173.1875
3017.68865	11133.3875
3020.10694	11134.5875
3022.52376	11113.3875
3024.9391	11079.7875
3027.35298	11048.8875
3029.76539	11029.5875
3032.17632	11032.5875
3034.5858	11018.8875
3036.9938	11007.7875
3039.40034	10989.1875
3041.80542	10987.4875
3044.20903	10954.2875
3046.61118	10938.6875
3049.01187	10912.9875
3051.4111	10910.5875
3053.80888	10869.9875
3056.20519	10842.2875
3058.60005	10813.8875
3060.99345	10798.1875
3063.3854	10775.7875
3065.7759	10717.3875
3068.16494	10681.9875
3070.55254	10630.8875
3072.93868	10619.8875
3075.32338	10577.1875
3077.70662	10546.9875
3080.08842	10511.2875
3082.46878	10497.2875
3084.84769	10436.6875
3087.22515	10436.2875
3089.60118	10462.0875
3091.97576	10457.4875
3094.3489	10449.5875
3096.72061	10436.6875
3099.09087	10448.8875
3101.4597	10417.6875
3103.82709	10428.4875
3106.19305	10388.8875
3108.55757	10387.1875
3110.92066	10339.0875
3113.28232	10316.7875
3115.64255	10283.0875
3118.00134	10263.6875
3120.35871	10236.4875
3122.71466	10231.1875
3125.06917	10204.6875
3127.42226	10155.6875
3129.77393	10181.3875
3132.12417	10130.3875
3134.47299	10157.4875
3136.82039	10153.0875
3139.16636	10135.8875
3141.51092	10123.6875
3143.85406	10120.0875
3146.19579	10124.4875
3148.53609	10103.3875
3150.87499	10108.3875
3153.21246	10116.4875
3155.54853	10139.1875
3157.88318	10126.6875
3160.21642	10136.7875
3162.54826	10109.2875
3164.87868	10128.6875
3167.2077	10107.0875
3169.5353	10123.7875
3171.86151	10115.2875
3174.18631	10105.4875
3176.5097	10102.9875
3178.83169	10060.2875
3181.15228	10079.9875
3183.47147	10037.1875
3185.78926	10025.0875
3188.10565	10028.2875
3190.42065	10015.4875
3192.73424	9999.0875
3195.04645	10007.0875
3197.35725	9996.4875
3199.66667	10002.6875
3201.97469	10012.5875
3204.28132	9986.0875
3206.58656	10024.4875
3208.8904	10014.1875
3211.19287	10006.2875
3213.49394	10009.4875
3215.79363	10031.2875
3218.09193	10017.6875
3220.38884	9993.7875
3222.68438	9992.8875
3224.97853	9989.2875
3227.2713	9992.8875
3229.56269	9977.2875
3231.8527	9985.5875
3234.14133	9963.9875
3236.42858	9932.5875
3238.71446	9917.7875
3240.99896	9875.0875
3243.28209	9873.3875
3245.56384	9881.6875
3247.84423	9863.8875
3250.12324	9850.8875
3252.40088	9823.0875
3254.67715	9821.3875
3256.95205	9804.4875
3259.22558	9803.2875
3261.49775	9769.0875
3263.76855	9769.9875
3266.03799	9740.3875
3268.30606	9729.7875
3270.57277	9697.2875
3272.83812	9671.9875
3275.10211	9661.9875
3277.36474	9666.3875
3279.62601	9646.1875
3281.88593	9633.1875
3284.14448	9641.1875
3286.40168	9644.7875
3288.65753	9625.4875
3290.91202	9642.1875
3293.16516	9607.5875
3295.41695	9555.5875
3297.66738	9512.5875
3299.91647	9465.0875
3302.16421	9381.2875
3304.4106	9326.8875
3306.65564	9273.6875
3308.89933	9227.5875
3311.14169	9142.2875
3313.38269	9069.4875
3315.62236	9004.2875
3317.86068	8917.4875
3320.09766	8869.5875
3322.3333	8782.6875
3324.5676	8763.0875
3326.80056	8615.2875
3329.03219	8550.5875
3331.26248	3.8875
3333.49143	0.5875
3335.71905	-0.7125
