Data from AgNPs_FTO_APTES_UA_5uM_CRN_2uM_R6G_10uM_NaF_0.1M_Addition_RamanShift__4__11-01-36-615.txt Node

Date: Mon Feb 07 11:01:36 GMT 2022
User: TCL
Spectrometer: QEP01345
Trigger mode: 4
Integration Time (sec): 7.000000E0
Scans to average: 10
Electric dark correction enabled: true
Nonlinearity correction enabled: false
Boxcar width: 0
XAxis mode: Raman Shifts
Number of Pixels in Spectrum: 1044
>>>>>Begin Spectral Data<<<<<
46.04893	-0.4875
50.45542	-1.8875
54.85868	-1.3875
59.25871	-0.5875
63.6555	106.1125
68.04907	110.3125
72.43941	117.1125
76.82654	120.1125
81.21044	126.7125
85.59113	125.6125
89.96862	133.6125
94.34289	133.7125
98.71396	141.6125
103.08183	145.9125
107.4465	153.3125
111.80798	152.7125
116.16626	156.4125
120.52136	165.7125
124.87327	172.4125
129.222	184.1125
133.56755	195.6125
137.90993	209.6125
142.24913	227.2125
146.58517	265.3125
150.91804	302.7125
155.24774	366.5125
159.57429	458.9125
163.89768	589.0125
168.21792	791.7125
172.53501	1076.5125
176.84895	1495.3125
181.15975	2094.4125
185.46741	2939.4125
189.77193	4056.8125
194.07331	5429.7125
198.37157	6963.0125
202.6667	8587.1125
206.9587	10224.8125
211.24758	11813.7125
215.53334	13444.5125
219.81599	15217.2125
224.09553	17202.7125
228.37195	19325.1125
232.64527	21634.7125
236.91549	23956.6125
241.18261	26306.5125
245.44663	28458.1125
249.70755	30335.6125
253.96539	31944.1125
258.22014	33340.3125
262.4718	34490.5125
266.72039	35241.3125
270.96589	35663.5125
275.20832	35669.6125
279.44768	35350.3125
283.68397	34984.9125
287.91719	34762.8125
292.14735	34610.0125
296.37445	34600.6125
300.59849	34727.1125
304.81948	35009.9125
309.03742	35139.4125
313.25231	34975.7125
317.46415	34464.1125
321.67296	33765.4125
325.87872	33108.1125
330.08145	32739.3125
334.28114	32622.2125
338.47781	32757.7125
342.67145	33127.4125
346.86207	33644.8125
351.04966	34322.3125
355.23424	35038.5125
359.4158	35732.7125
363.59435	36242.0125
367.76989	36651.0125
371.94243	36899.8125
376.11196	36986.1125
380.27849	37108.1125
384.44203	37329.8125
388.60257	37705.1125
392.76012	38109.1125
396.91468	38624.1125
401.06626	39254.4125
405.21485	39752.5125
409.36047	39760.5125
413.50311	39532.8125
417.64277	39679.7125
421.77947	40130.3125
425.9132	40429.2125
430.04396	40673.4125
434.17176	40823.9125
438.2966	40899.8125
442.41849	41464.7125
446.53742	42821.9125
450.6534	44431.2125
454.76644	45514.0125
458.87653	45500.4125
462.98368	44795.0125
467.08789	43793.4125
471.18916	42630.8125
475.2875	41496.1125
479.38291	40843.2125
483.4754	40511.1125
487.56496	40268.8125
491.6516	39828.9125
495.73531	39366.1125
499.81612	39151.4125
503.89401	39461.7125
507.96899	39608.0125
512.04106	39440.5125
516.11023	38903.3125
520.1765	38212.0125
524.23987	37814.6125
528.30034	37484.5125
532.35792	37117.1125
536.41261	36446.2125
540.46441	35792.0125
544.51333	35583.2125
548.55936	35925.1125
552.60252	36902.5125
556.64279	38157.0125
560.6802	39164.2125
564.71473	39771.7125
568.7464	40556.2125
572.7752	42099.8125
576.80114	43925.7125
580.82422	46157.9125
584.84444	49294.2125
588.86181	52969.7125
592.87633	55849.7125
596.888	54918.2125
600.89682	50655.9125
604.9028	48500.7125
608.90594	50955.9125
612.90624	54184.1125
616.90371	50557.8125
620.89834	42251.5125
624.89015	38492.6125
628.87913	37982.5125
632.86528	37888.6125
636.84862	37331.8125
640.82913	36301.9125
644.80683	35165.8125
648.78172	34656.1125
652.75379	34809.3125
656.72306	35354.8125
660.68952	35828.1125
664.65319	35508.4125
668.61405	34770.1125
672.57211	34654.9125
676.52738	34926.9125
680.47986	34835.1125
684.42955	34418.4125
688.37646	34189.7125
692.32058	34648.4125
696.26192	35558.9125
700.20048	36428.3125
704.13626	36864.4125
708.06928	36666.9125
711.99952	36408.6125
715.927	36532.5125
719.85171	36972.3125
723.77365	36816.9125
727.69284	35945.9125
731.60928	35107.3125
735.52295	34873.0125
739.43388	34858.8125
743.34206	35064.9125
747.24749	35371.0125
751.15017	35861.4125
755.05012	36635.9125
758.94733	37850.1125
762.8418	39797.4125
766.73354	42510.6125
770.62254	44960.2125
774.50882	44987.2125
778.39237	42712.1125
782.27321	39782.1125
786.15132	37338.9125
790.02671	35935.1125
793.89938	35281.9125
797.76935	35161.5125
801.6366	35254.1125
805.50115	35205.0125
809.36299	34991.6125
813.22213	34557.4125
817.07857	34227.2125
820.93231	33916.5125
824.78336	33614.7125
828.63172	33466.0125
832.47738	33443.9125
836.32036	33636.7125
840.16066	33851.3125
843.99827	34159.2125
847.8332	34029.4125
851.66546	33797.2125
855.49504	33676.3125
859.32195	33683.7125
863.1462	33478.3125
866.96777	33323.2125
870.78668	33192.6125
874.60293	33146.6125
878.41652	33174.9125
882.22745	33339.5125
886.03573	33539.7125
889.84136	33458.5125
893.64433	33257.4125
897.44466	33108.8125
901.24235	32934.6125
905.0374	32842.9125
908.8298	32758.8125
912.61957	32904.0125
916.40671	33298.4125
920.19121	34045.4125
923.97308	34797.2125
927.75233	35247.8125
931.52895	34890.9125
935.30295	34161.4125
939.07433	33290.2125
942.84309	32754.9125
946.60924	32545.1125
950.37278	32494.5125
954.13371	32403.0125
957.89203	32315.5125
961.64774	32213.4125
965.40086	32257.5125
969.15137	32249.4125
972.89929	32023.2125
976.64461	32012.7125
980.38733	32082.2125
984.12747	32246.1125
987.86502	32601.9125
991.59999	33148.3125
995.33237	33968.9125
999.06217	35363.0125
1002.78939	37038.0125
1006.51404	38267.5125
1010.23611	39023.1125
1013.95561	39389.9125
1017.67255	39333.3125
1021.38692	38546.4125
1025.09872	37774.2125
1028.80796	38088.8125
1032.51465	39708.4125
1036.21877	41461.8125
1039.92035	41892.7125
1043.61937	41282.3125
1047.31584	39841.6125
1051.00976	38110.3125
1054.70114	37158.2125
1058.38998	36802.5125
1062.07627	36689.6125
1065.76003	36897.7125
1069.44126	37344.5125
1073.11995	38058.9125
1076.79611	38808.6125
1080.46974	39222.5125
1084.14085	39658.6125
1087.80943	40252.6125
1091.47549	40635.3125
1095.13903	40591.2125
1098.80005	39800.7125
1102.45857	38631.7125
1106.11456	37717.5125
1109.76805	37334.7125
1113.41903	37295.9125
1117.06751	37397.9125
1120.71348	37651.7125
1124.35696	37979.1125
1127.99793	38504.6125
1131.63641	38862.1125
1135.2724	38993.3125
1138.90589	38983.9125
1142.5369	39281.8125
1146.16542	39716.5125
1149.79145	40159.7125
1153.415	40680.4125
1157.03607	41621.1125
1160.65467	43512.7125
1164.27079	46540.7125
1167.88443	50012.8125
1171.49561	53242.7125
1175.10432	56912.2125
1178.71056	62019.9125
1182.31434	67044.4125
1185.91565	69380.5125
1189.51451	68256.8125
1193.11091	65350.2125
1196.70485	62356.6125
1200.29634	59989.6125
1203.88538	58796.5125
1207.47197	58598.1125
1211.05612	58254.7125
1214.63782	57068.8125
1218.21708	55312.3125
1221.79391	53589.7125
1225.36829	52457.7125
1228.94024	51318.6125
1232.50976	49810.2125
1236.07685	48345.5125
1239.6415	47577.6125
1243.20374	47448.2125
1246.76355	48032.0125
1250.32093	49244.2125
1253.8759	50925.4125
1257.42845	52777.9125
1260.97859	54746.1125
1264.52631	56741.7125
1268.07163	59088.2125
1271.61453	61536.5125
1275.15503	64088.4125
1278.69312	66824.0125
1282.22882	69644.1125
1285.76211	72725.0125
1289.29301	76362.1125
1292.82151	80464.1125
1296.34761	85944.5125
1299.87133	92773.7125
1303.39266	100350.0125
1306.9116	107088.0125
1310.42815	111388.3125
1313.94233	112384.8125
1317.45412	109946.1125
1320.96354	106001.5125
1324.47058	102762.5125
1327.97525	100710.8125
1331.47754	99659.9125
1334.97747	98519.7125
1338.47502	96259.3125
1341.97022	92681.0125
1345.46305	88960.2125
1348.95352	86659.7125
1352.44163	87290.7125
1355.92738	91595.6125
1359.41078	98206.7125
1362.89183	103039.8125
1366.37053	102227.7125
1369.84688	94126.2125
1373.32088	82060.8125
1376.79254	73304.0125
1380.26186	70532.8125
1383.72883	71013.8125
1387.19347	71061.8125
1390.65578	69905.2125
1394.11575	69385.0125
1397.57339	70601.8125
1401.0287	73126.9125
1404.48168	75316.7125
1407.93234	76091.7125
1411.38068	74644.3125
1414.82669	71625.7125
1418.27039	67896.8125
1421.71177	64048.2125
1425.15083	60918.0125
1428.58758	59676.3125
1432.02203	60772.1125
1435.45416	63581.7125
1438.88399	66374.1125
1442.31151	68330.7125
1445.73673	69170.4125
1449.15965	69427.6125
1452.58027	68996.8125
1455.9986	67917.2125
1459.41463	67624.9125
1462.82837	68594.3125
1466.23982	70491.8125
1469.64898	72600.7125
1473.05586	73949.6125
1476.46045	74460.0125
1479.86276	73996.8125
1483.26279	72880.4125
1486.66054	72235.6125
1490.05602	72187.4125
1493.44922	72311.8125
1496.84016	72151.8125
1500.22882	71889.2125
1503.61521	72160.0125
1506.99934	73085.8125
1510.38121	73955.6125
1513.76081	74037.0125
1517.13816	73010.3125
1520.51324	71684.3125
1523.88607	71156.4125
1527.25665	71753.1125
1530.62498	72626.1125
1533.99105	72949.7125
1537.35488	72090.5125
1540.71647	70336.0125
1544.07581	67992.3125
1547.4329	65674.6125
1550.78776	63345.0125
1554.14038	61499.8125
1557.49077	60155.0125
1560.83892	59177.7125
1564.18484	58539.6125
1567.52853	58474.3125
1570.86999	58877.3125
1574.20922	60085.1125
1577.54624	61532.1125
1580.88103	62767.9125
1584.2136	64737.1125
1587.54395	69202.9125
1590.87208	75906.0125
1594.19801	83716.1125
1597.52172	90036.1125
1600.84321	91148.4125
1604.16251	84908.0125
1607.47959	74595.8125
1610.79447	64323.6125
1614.10715	56109.8125
1617.41763	50517.0125
1620.7259	47269.1125
1624.03199	46063.1125
1627.33587	46660.6125
1630.63757	49088.6125
1633.93707	53598.7125
1637.23439	60922.3125
1640.52951	71787.9125
1643.82246	84740.3125
1647.11321	94769.8125
1650.40179	95075.4125
1653.68819	84355.7125
1656.97241	69177.0125
1660.25446	55963.2125
1663.53433	47087.8125
1666.81203	41632.8125
1670.08756	38445.2125
1673.36092	36417.8125
1676.63211	35140.6125
1679.90115	34218.5125
1683.16801	33614.0125
1686.43272	33052.3125
1689.69527	32712.4125
1692.95567	32439.4125
1696.2139	32264.8125
1699.46999	32137.3125
1702.72392	31968.1125
1705.97571	31901.3125
1709.22535	31776.8125
1712.47284	31709.3125
1715.71819	31628.4125
1718.96139	31581.3125
1722.20246	31453.5125
1725.44139	31309.0125
1728.67818	31103.9125
1731.91284	30858.9125
1735.14537	30633.0125
1738.37576	30442.1125
1741.60403	30329.7125
1744.83017	30228.5125
1748.05418	30106.9125
1751.27607	30017.9125
1754.49584	29977.7125
1757.71349	29935.6125
1760.92903	29939.4125
1764.14244	29901.1125
1767.35375	29934.8125
1770.56294	29835.3125
1773.77002	29785.9125
1776.97499	29718.9125
1780.17785	29646.0125
1783.37861	29603.9125
1786.57727	29579.8125
1789.77382	29541.1125
1792.96828	29462.5125
1796.16064	29410.6125
1799.3509	29361.6125
1802.53907	29331.0125
1805.72514	29265.7125
1808.90913	29175.1125
1812.09102	29092.4125
1815.27083	29047.7125
1818.44856	29012.4125
1821.6242	28974.1125
1824.79776	28972.7125
1827.96924	28976.1125
1831.13864	28945.1125
1834.30597	28990.3125
1837.47122	28930.4125
1840.6344	28918.2125
1843.7955	29032.2125
1846.95454	28999.9125
1850.11151	29018.8125
1853.26642	28989.5125
1856.41926	28993.5125
1859.57004	29046.5125
1862.71876	28976.6125
1865.86542	28920.6125
1869.01003	28912.7125
1872.15258	28865.1125
1875.29308	28840.9125
1878.43152	28853.1125
1881.56792	28862.4125
1884.70227	28836.7125
1887.83457	28857.4125
1890.96482	28779.8125
1894.09304	28726.1125
1897.21921	28756.7125
1900.34335	28700.4125
1903.46544	28646.1125
1906.58551	28643.0125
1909.70353	28578.9125
1912.81953	28523.9125
1915.93349	28490.1125
1919.04543	28438.5125
1922.15534	28361.1125
1925.26322	28247.4125
1928.36908	28238.1125
1931.47292	28158.9125
1934.57473	28051.9125
1937.67453	27968.5125
1940.77232	27936.2125
1943.86808	27776.4125
1946.96184	27726.8125
1950.05358	27672.5125
1953.14331	27644.9125
1956.23103	27560.0125
1959.31675	27450.1125
1962.40046	27395.5125
1965.48217	27336.9125
1968.56188	27293.2125
1971.63959	27195.7125
1974.7153	27090.6125
1977.78901	27018.3125
1980.86073	26931.1125
1983.93046	26837.6125
1986.99819	26772.3125
1990.06394	26724.6125
1993.1277	26668.4125
1996.18947	26561.9125
1999.24925	26483.9125
2002.30706	26359.3125
2005.36288	26315.0125
2008.41672	26265.2125
2011.46859	26200.2125
2014.51848	26137.7125
2017.56639	26101.4125
2020.61233	26061.8125
2023.6563	26005.9125
2026.6983	25957.3125
2029.73833	25969.4125
2032.7764	25927.3125
2035.8125	25890.1125
2038.84664	25866.0125
2041.87881	25876.3125
2044.90903	25812.8125
2047.93729	25750.8125
2050.96359	25790.6125
2053.98794	25766.5125
2057.01034	25708.9125
2060.03078	25722.2125
2063.04927	25732.6125
2066.06582	25707.8125
2069.08042	25709.5125
2072.09307	25630.9125
2075.10378	25627.0125
2078.11255	25564.9125
2081.11938	25565.8125
2084.12426	25572.7125
2087.12722	25539.9125
2090.12824	25543.3125
2093.12732	25481.6125
2096.12447	25534.5125
2099.11969	25552.9125
2102.11299	25557.4125
2105.10435	25521.4125
2108.09379	25517.1125
2111.08131	25576.6125
2114.0669	25563.6125
2117.05057	25605.7125
2120.03233	25630.9125
2123.01216	25628.9125
2125.99008	25673.6125
2128.96609	25676.1125
2131.94018	25717.3125
2134.91236	25716.1125
2137.88263	25699.3125
2140.851	25744.7125
2143.81746	25812.8125
2146.78201	25758.9125
2149.74466	25766.5125
2152.7054	25788.4125
2155.66425	25724.2125
2158.6212	25734.2125
2161.57625	25719.2125
2164.52941	25673.3125
2167.48067	25701.1125
2170.43004	25702.0125
2173.37752	25715.7125
2176.32311	25712.1125
2179.26681	25685.0125
2182.20863	25675.1125
2185.14856	25760.7125
2188.08661	25777.4125
2191.02278	25792.9125
2193.95707	25802.9125
2196.88948	25765.0125
2199.82001	25743.9125
2202.74867	25724.7125
2205.67545	25733.7125
2208.60037	25708.0125
2211.52341	25709.2125
2214.44458	25682.3125
2217.36388	25681.4125
2220.28132	25664.2125
2223.1969	25619.7125
2226.11061	25584.4125
2229.02246	25540.3125
2231.93245	25518.0125
2234.84058	25525.9125
2237.74686	25452.0125
2240.65128	25453.8125
2243.55385	25398.3125
2246.45456	25360.5125
2249.35343	25274.1125
2252.25044	25206.4125
2255.14561	25147.0125
2258.03893	25083.6125
2260.93041	25025.6125
2263.82004	25035.0125
2266.70783	24946.1125
2269.59378	24870.6125
2272.4779	24813.2125
2275.36017	24762.5125
2278.24061	24735.0125
2281.11922	24734.6125
2283.996	24690.3125
2286.87094	24723.3125
2289.74405	24698.8125
2292.61534	24683.7125
2295.4848	24706.5125
2298.35243	24732.5125
2301.21824	24774.0125
2304.08223	24824.0125
2306.94439	24818.0125
2309.80474	24867.7125
2312.66327	24914.7125
2315.51999	24885.0125
2318.37489	24827.6125
2321.22797	24835.2125
2324.07925	24850.7125
2326.92871	24828.9125
2329.77637	24802.3125
2332.62222	24752.6125
2335.46626	24815.7125
2338.3085	24837.8125
2341.14893	24853.2125
2343.98756	24898.1125
2346.8244	24913.8125
2349.65943	24913.2125
2352.49267	24842.4125
2355.32411	24857.0125
2358.15376	24842.4125
2360.98161	24766.2125
2363.80768	24733.6125
2366.63195	24731.8125
2369.45444	24694.2125
2372.27514	24622.2125
2375.09405	24607.7125
2377.91118	24568.7125
2380.72652	24463.9125
2383.54009	24441.9125
2386.35187	24444.3125
2389.16188	24381.0125
2391.97011	24393.3125
2394.77657	24382.4125
2397.58125	24291.7125
2400.38416	24285.1125
2403.18529	24246.2125
2405.98466	24242.4125
2408.78226	24177.2125
2411.57809	24148.7125
2414.37216	24128.5125
2417.16446	24203.6125
2419.955	24132.4125
2422.74378	24071.1125
2425.5308	24037.1125
2428.31606	24056.3125
2431.09956	24060.5125
2433.88131	24032.2125
2436.6613	24104.7125
2439.43954	24067.1125
2442.21603	24080.2125
2444.99077	24054.5125
2447.76377	24070.2125
2450.53501	24030.2125
2453.30451	24062.7125
2456.07226	23983.6125
2458.83827	24048.6125
2461.60254	24073.9125
2464.36507	24074.7125
2467.12586	24043.4125
2469.88492	24069.1125
2472.64224	24119.1125
2475.39782	24211.2125
2478.15167	24217.7125
2480.90379	24211.6125
2483.65417	24234.4125
2486.40283	24271.4125
2489.14976	24298.9125
2491.89497	24301.8125
2494.63845	24335.0125
2497.3802	24324.5125
2500.12024	24315.0125
2502.85855	24329.3125
2505.59514	24270.9125
2508.33002	24267.1125
2511.06318	24257.1125
2513.79462	24255.6125
2516.52435	24193.2125
2519.25237	24250.6125
2521.97867	24234.6125
2524.70327	24292.9125
2527.42616	24242.0125
2530.14734	24250.0125
2532.86681	24261.2125
2535.58458	24286.5125
2538.30065	24261.4125
2541.01501	24225.1125
2543.72768	24247.0125
2546.43864	24232.1125
2549.14791	24245.4125
2551.85548	24240.7125
2554.56136	24202.2125
2557.26554	24211.1125
2559.96803	24224.5125
2562.66883	24249.3125
2565.36794	24251.5125
2568.06536	24198.5125
2570.7611	24217.3125
2573.45514	24202.5125
2576.14751	24264.9125
2578.83819	24210.4125
2581.52719	24238.7125
2584.21451	24232.7125
2586.90015	24278.1125
2589.58411	24254.4125
2592.2664	24276.5125
2594.94701	24242.5125
2597.62594	24232.6125
2600.30321	24208.0125
2602.9788	24233.9125
2605.65273	24230.9125
2608.32498	24282.9125
2610.99557	24308.1125
2613.66449	24312.3125
2616.33175	24307.7125
2618.99734	24298.3125
2621.66128	24298.0125
2624.32355	24277.3125
2626.98416	24259.1125
2629.64311	24273.1125
2632.30041	24282.8125
2634.95605	24281.1125
2637.61004	24246.6125
2640.26238	24217.9125
2642.91306	24190.7125
2645.56209	24176.6125
2648.20948	24212.1125
2650.85521	24262.6125
2653.4993	24250.0125
2656.14175	24255.1125
2658.78255	24268.8125
2661.42171	24336.5125
2664.05923	24328.3125
2666.6951	24385.2125
2669.32934	24375.9125
2671.96194	24383.5125
2674.59291	24434.6125
2677.22224	24385.3125
2679.84993	24428.8125
2682.476	24365.4125
2685.10043	24348.5125
2687.72324	24298.4125
2690.34441	24291.7125
2692.96396	24332.8125
2695.58188	24318.3125
2698.19818	24288.3125
2700.81285	24332.4125
2703.4259	24298.3125
2706.03733	24376.3125
2708.64714	24349.8125
2711.25533	24394.0125
2713.86191	24367.6125
2716.46687	24407.7125
2719.07021	24425.0125
2721.67194	24485.4125
2724.27206	24493.3125
2726.87057	24606.2125
2729.46747	24571.2125
2732.06276	24591.6125
2734.65644	24575.2125
2737.24852	24550.9125
2739.83899	24581.2125
2742.42786	24607.4125
2745.01513	24532.2125
2747.60079	24568.4125
2750.18486	24590.7125
2752.76733	24570.7125
2755.3482	24513.8125
2757.92747	24602.9125
2760.50515	24571.5125
2763.08123	24599.8125
2765.65573	24586.3125
2768.22863	24579.7125
2770.79994	24567.8125
2773.36967	24616.8125
2775.9378	24626.4125
2778.50435	24662.2125
2781.06932	24665.1125
2783.6327	24696.6125
2786.1945	24674.0125
2788.75471	24696.3125
2791.31335	24684.3125
2793.87041	24639.7125
2796.42589	24589.4125
2798.97979	24589.7125
2801.53212	24541.9125
2804.08288	24517.9125
2806.63206	24439.1125
2809.17967	24399.8125
2811.72571	24367.3125
2814.27018	24329.2125
2816.81308	24279.9125
2819.35442	24259.8125
2821.89419	24202.9125
2824.43239	24261.9125
2826.96904	24235.9125
2829.50412	24221.4125
2832.03763	24146.3125
2834.56959	24180.3125
2837.1	24127.4125
2839.62884	24173.4125
2842.15613	24151.1125
2844.68186	24230.2125
2847.20604	24247.9125
2849.72867	24218.2125
2852.24974	24222.6125
2854.76927	24236.5125
2857.28724	24233.8125
2859.80367	24193.8125
2862.31855	24175.3125
2864.83189	24171.4125
2867.34368	24065.7125
2869.85393	24045.8125
2872.36264	24018.2125
2874.8698	24043.6125
2877.37543	24048.9125
2879.87952	24052.0125
2882.38207	24062.4125
2884.88308	24092.2125
2887.38256	24102.6125
2889.88051	24166.5125
2892.37692	24217.0125
2894.8718	24191.6125
2897.36515	24262.6125
2899.85698	24271.0125
2902.34727	24305.2125
2904.83604	24378.8125
2907.32328	24391.6125
2909.809	24387.8125
2912.29319	24405.6125
2914.77587	24383.1125
2917.25702	24415.6125
2919.73665	24356.5125
2922.21476	24363.7125
2924.69136	24343.8125
2927.16644	24349.0125
2929.64	24308.8125
2932.11205	24259.5125
2934.58258	24194.5125
2937.05161	24182.7125
2939.51912	24182.4125
2941.98513	24207.6125
2944.44962	24142.1125
2946.91261	24043.2125
2949.37409	24118.9125
2951.83407	24110.9125
2954.29254	24036.3125
2956.74951	24075.3125
2959.20498	24105.7125
2961.65895	24020.1125
2964.11142	23997.0125
2966.56239	23952.2125
2969.01186	23936.5125
2971.45984	23884.0125
2973.90632	23884.7125
2976.35131	23794.7125
2978.7948	23698.7125
2981.23681	23687.4125
2983.67732	23676.0125
2986.11635	23630.3125
2988.55388	23515.5125
2990.98993	23471.4125
2993.4245	23399.8125
2995.85758	23337.4125
2998.28917	23280.2125
3000.71928	23265.2125
3003.14791	23250.4125
3005.57506	23249.1125
3008.00073	23166.8125
3010.42493	23146.0125
3012.84764	23083.0125
3015.26888	23124.5125
3017.68865	23033.8125
3020.10694	23047.8125
3022.52376	22943.6125
3024.9391	22951.2125
3027.35298	22920.9125
3029.76539	22914.7125
3032.17632	22891.9125
3034.5858	22816.1125
3036.9938	22852.3125
3039.40034	22832.7125
3041.80542	22830.4125
3044.20903	22818.4125
3046.61118	22831.9125
3049.01187	22798.5125
3051.4111	22771.7125
3053.80888	22663.6125
3056.20519	22678.4125
3058.60005	22647.9125
3060.99345	22562.1125
3063.3854	22559.3125
3065.7759	22417.2125
3068.16494	22406.5125
3070.55254	22320.8125
3072.93868	22273.0125
3075.32338	22221.5125
3077.70662	22151.2125
3080.08842	22099.7125
3082.46878	22093.8125
3084.84769	22030.7125
3087.22515	22036.6125
3089.60118	21987.8125
3091.97576	22034.3125
3094.3489	22047.4125
3096.72061	21979.7125
3099.09087	21992.1125
3101.4597	21973.8125
3103.82709	21956.9125
3106.19305	21880.6125
3108.55757	21878.5125
3110.92066	21820.7125
3113.28232	21839.6125
3115.64255	21736.8125
3118.00134	21722.5125
3120.35871	21710.9125
3122.71466	21665.9125
3125.06917	21573.1125
3127.42226	21521.2125
3129.77393	21565.7125
3132.12417	21514.8125
3134.47299	21466.4125
3136.82039	21506.9125
3139.16636	21495.1125
3141.51092	21474.9125
3143.85406	21468.8125
3146.19579	21427.8125
3148.53609	21447.1125
3150.87499	21431.0125
3153.21246	21427.0125
3155.54853	21431.0125
3157.88318	21395.7125
3160.21642	21388.6125
3162.54826	21427.9125
3164.87868	21424.6125
3167.2077	21380.3125
3169.5353	21392.8125
3171.86151	21400.8125
3174.18631	21378.1125
3176.5097	21396.6125
3178.83169	21373.4125
3181.15228	21353.8125
3183.47147	21287.2125
3185.78926	21287.7125
3188.10565	21235.1125
3190.42065	21241.6125
3192.73424	21215.5125
3195.04645	21230.2125
3197.35725	21181.5125
3199.66667	21183.2125
3201.97469	21170.8125
3204.28132	21165.1125
3206.58656	21162.2125
3208.8904	21127.6125
3211.19287	21168.3125
3213.49394	21169.6125
3215.79363	21130.5125
3218.09193	21135.3125
3220.38884	21155.8125
3222.68438	21183.4125
3224.97853	21146.1125
3227.2713	21130.8125
3229.56269	21096.2125
3231.8527	21145.3125
3234.14133	21101.0125
3236.42858	21058.8125
3238.71446	21058.4125
3240.99896	21007.9125
3243.28209	21001.8125
3245.56384	20964.1125
3247.84423	20979.1125
3250.12324	20911.8125
3252.40088	20912.7125
3254.67715	20866.4125
3256.95205	20807.0125
3259.22558	20793.4125
3261.49775	20797.3125
3263.76855	20762.1125
3266.03799	20722.2125
3268.30606	20673.4125
3270.57277	20626.2125
3272.83812	20577.8125
3275.10211	20554.7125
3277.36474	20549.6125
3279.62601	20569.7125
3281.88593	20518.7125
3284.14448	20535.9125
3286.40168	20563.3125
3288.65753	20576.8125
3290.91202	20521.1125
3293.16516	20459.4125
3295.41695	20464.4125
3297.66738	20354.6125
3299.91647	20272.0125
3302.16421	20109.9125
3304.4106	19994.7125
3306.65564	19813.2125
3308.89933	19703.5125
3311.14169	19563.1125
3313.38269	19434.8125
3315.62236	19341.3125
3317.86068	19173.9125
3320.09766	18995.0125
3322.3333	18905.8125
3324.5676	18808.6125
3326.80056	18509.6125
3329.03219	18419.9125
3331.26248	4.9125
3333.49143	-0.1875
3335.71905	-1.0875
