Data from AgNPs_FTO_APTES_UA_5uM_CRN_100uM_R6G_10uM_NaF_0.1M_Addition_RamanShift__24__15-04-16-896.txt Node

Date: Mon Feb 07 15:04:16 GMT 2022
User: TCL
Spectrometer: QEP01345
Trigger mode: 4
Integration Time (sec): 7.000000E0
Scans to average: 10
Electric dark correction enabled: true
Nonlinearity correction enabled: false
Boxcar width: 0
XAxis mode: Raman Shifts
Number of Pixels in Spectrum: 1044
>>>>>Begin Spectral Data<<<<<
46.04893	0.0875
50.45542	-0.4125
54.85868	-1.4125
59.25871	0.9875
63.6555	72.1875
68.04907	73.1875
72.43941	80.9875
76.82654	83.2875
81.21044	82.4875
85.59113	85.4875
89.96862	92.3875
94.34289	92.1875
98.71396	98.3875
103.08183	98.6875
107.4465	106.5875
111.80798	103.2875
116.16626	110.1875
120.52136	117.1875
124.87327	121.5875
129.222	127.9875
133.56755	139.7875
137.90993	151.8875
142.24913	168.1875
146.58517	189.7875
150.91804	227.8875
155.24774	273.4875
159.57429	345.5875
163.89768	447.7875
168.21792	596.0875
172.53501	811.8875
176.84895	1135.6875
181.15975	1606.3875
185.46741	2261.9875
189.77193	3129.9875
194.07331	4172.7875
198.37157	5385.4875
202.6667	6658.7875
206.9587	7926.1875
211.24758	9167.3875
215.53334	10415.6875
219.81599	11778.5875
224.09553	13254.7875
228.37195	14885.8875
232.64527	16695.8875
236.91549	18568.1875
241.18261	20388.9875
245.44663	22131.2875
249.70755	23621.3875
253.96539	24941.6875
258.22014	26179.5875
262.4718	27174.2875
266.72039	27897.3875
270.96589	28362.4875
275.20832	28565.8875
279.44768	28543.9875
283.68397	28452.7875
287.91719	28369.7875
292.14735	28429.4875
296.37445	28635.4875
300.59849	28873.4875
304.81948	28976.2875
309.03742	28886.9875
313.25231	28372.9875
317.46415	27384.1875
321.67296	26247.2875
325.87872	25330.2875
330.08145	24900.5875
334.28114	24829.7875
338.47781	25019.4875
342.67145	25367.5875
346.86207	25879.8875
351.04966	26588.2875
355.23424	27328.3875
359.4158	27942.9875
363.59435	28290.1875
367.76989	28493.3875
371.94243	28627.5875
376.11196	28665.1875
380.27849	28772.4875
384.44203	28880.2875
388.60257	28995.7875
392.76012	29155.6875
396.91468	29472.1875
401.06626	29973.7875
405.21485	30351.6875
409.36047	30233.3875
413.50311	29605.1875
417.64277	29006.5875
421.77947	28782.3875
425.9132	28880.1875
430.04396	29064.1875
434.17176	29284.4875
438.2966	29675.9875
442.41849	30322.4875
446.53742	31083.1875
450.6534	32096.3875
454.76644	32877.3875
458.87653	33122.4875
462.98368	33059.0875
467.08789	32798.9875
471.18916	32475.6875
475.2875	32280.0875
479.38291	32292.1875
483.4754	32147.1875
487.56496	31704.6875
491.6516	30909.3875
495.73531	30222.8875
499.81612	29809.5875
503.89401	29808.9875
507.96899	29893.9875
512.04106	29810.7875
516.11023	29700.8875
520.1765	29472.0875
524.23987	29173.3875
528.30034	28844.7875
532.35792	28572.4875
536.41261	28300.1875
540.46441	28052.8875
544.51333	28066.3875
548.55936	28420.3875
552.60252	29175.6875
556.64279	29931.3875
560.6802	30542.4875
564.71473	30970.9875
568.7464	31719.2875
572.7752	32556.3875
576.80114	32781.6875
580.82422	32720.4875
584.84444	32801.9875
588.86181	33053.2875
592.87633	33538.9875
596.888	33888.6875
600.89682	34089.9875
604.9028	35117.9875
608.90594	38339.9875
612.90624	42327.6875
616.90371	40086.7875
620.89834	32722.9875
624.89015	29466.7875
628.87913	29117.0875
632.86528	29349.4875
636.84862	29405.6875
640.82913	28925.6875
644.80683	28055.0875
648.78172	27349.5875
652.75379	27153.4875
656.72306	27422.0875
660.68952	27986.3875
664.65319	27882.4875
668.61405	27381.1875
672.57211	27166.8875
676.52738	27186.9875
680.47986	27205.5875
684.42955	27121.4875
688.37646	26996.0875
692.32058	27080.4875
696.26192	27308.6875
700.20048	27594.7875
704.13626	27819.1875
708.06928	27822.3875
711.99952	27665.0875
715.927	27492.5875
719.85171	27556.0875
723.77365	27489.6875
727.69284	27281.2875
731.60928	27056.0875
735.52295	26974.7875
739.43388	27009.9875
743.34206	27056.7875
747.24749	27230.5875
751.15017	27480.0875
755.05012	28042.1875
758.94733	28942.6875
762.8418	30680.3875
766.73354	33396.8875
770.62254	36069.2875
774.50882	36799.3875
778.39237	34964.5875
782.27321	31894.3875
786.15132	29263.1875
790.02671	27789.0875
793.89938	27070.5875
797.76935	26781.8875
801.6366	26726.3875
805.50115	26677.5875
809.36299	26581.7875
813.22213	26444.5875
817.07857	26443.4875
820.93231	26425.5875
824.78336	26342.7875
828.63172	26303.6875
832.47738	26254.2875
836.32036	26234.4875
840.16066	26240.2875
843.99827	26231.3875
847.8332	26143.2875
851.66546	26014.2875
855.49504	25995.3875
859.32195	26015.9875
863.1462	25941.0875
866.96777	25872.2875
870.78668	25785.3875
874.60293	25768.6875
878.41652	25724.2875
882.22745	25836.2875
886.03573	25908.4875
889.84136	25879.5875
893.64433	25787.6875
897.44466	25741.5875
901.24235	25641.5875
905.0374	25542.6875
908.8298	25499.2875
912.61957	25586.7875
916.40671	25799.0875
920.19121	26170.0875
923.97308	26412.9875
927.75233	26410.2875
931.52895	26274.4875
935.30295	25998.3875
939.07433	25499.0875
942.84309	25108.4875
946.60924	24854.0875
950.37278	24737.9875
954.13371	24660.2875
957.89203	24597.9875
961.64774	24574.2875
965.40086	24535.4875
969.15137	24415.4875
972.89929	24268.5875
976.64461	24118.9875
980.38733	24078.2875
984.12747	24171.1875
987.86502	24365.7875
991.59999	24607.4875
995.33237	24987.3875
999.06217	25561.9875
1002.78939	26344.4875
1006.51404	26870.8875
1010.23611	27148.8875
1013.95561	27381.8875
1017.67255	27400.1875
1021.38692	27078.4875
1025.09872	26798.2875
1028.80796	26830.8875
1032.51465	27235.3875
1036.21877	27744.6875
1039.92035	27816.2875
1043.61937	27563.7875
1047.31584	27186.9875
1051.00976	26721.7875
1054.70114	26583.7875
1058.38998	26676.9875
1062.07627	26891.3875
1065.76003	27175.5875
1069.44126	27351.4875
1073.11995	27511.1875
1076.79611	27665.3875
1080.46974	27880.2875
1084.14085	28088.0875
1087.80943	28395.1875
1091.47549	28747.0875
1095.13903	28694.6875
1098.80005	28351.7875
1102.45857	27801.2875
1106.11456	27400.9875
1109.76805	27287.8875
1113.41903	27498.3875
1117.06751	27886.0875
1120.71348	28366.4875
1124.35696	28820.9875
1127.99793	29222.5875
1131.63641	29329.2875
1135.2724	28988.7875
1138.90589	28531.3875
1142.5369	28338.8875
1146.16542	28330.0875
1149.79145	28493.5875
1153.415	28793.3875
1157.03607	29317.4875
1160.65467	30145.3875
1164.27079	31378.9875
1167.88443	33002.7875
1171.49561	35185.1875
1175.10432	38101.3875
1178.71056	41702.4875
1182.31434	44835.7875
1185.91565	46369.2875
1189.51451	46374.9875
1193.11091	45176.9875
1196.70485	43362.7875
1200.29634	41555.9875
1203.88538	40045.6875
1207.47197	38809.9875
1211.05612	37813.7875
1214.63782	37010.4875
1218.21708	36266.4875
1221.79391	35667.2875
1225.36829	35281.0875
1228.94024	34740.1875
1232.50976	34209.7875
1236.07685	33752.1875
1239.6415	33585.3875
1243.20374	33622.5875
1246.76355	33894.5875
1250.32093	34303.6875
1253.8759	35121.2875
1257.42845	36108.1875
1260.97859	37044.1875
1264.52631	37846.5875
1268.07163	38739.0875
1271.61453	39724.8875
1275.15503	40837.7875
1278.69312	41944.7875
1282.22882	42981.5875
1285.76211	44134.5875
1289.29301	45631.3875
1292.82151	47609.0875
1296.34761	50154.6875
1299.87133	53131.3875
1303.39266	56624.1875
1306.9116	60451.2875
1310.42815	64216.0875
1313.94233	66635.6875
1317.45412	66877.0875
1320.96354	65779.5875
1324.47058	64359.7875
1327.97525	63182.5875
1331.47754	62227.5875
1334.97747	61915.0875
1338.47502	62091.1875
1341.97022	62283.1875
1345.46305	61684.8875
1348.95352	60535.0875
1352.44163	59511.8875
1355.92738	59592.1875
1359.41078	61681.2875
1362.89183	64164.1875
1366.37053	62807.0875
1369.84688	57101.7875
1373.32088	50976.5875
1376.79254	47023.8875
1380.26186	45518.7875
1383.72883	45579.6875
1387.19347	45899.4875
1390.65578	46219.8875
1394.11575	46665.4875
1397.57339	47609.1875
1401.0287	48992.8875
1404.48168	50188.1875
1407.93234	50647.3875
1411.38068	50133.5875
1414.82669	48413.3875
1418.27039	45912.3875
1421.71177	43298.4875
1425.15083	41118.5875
1428.58758	39803.0875
1432.02203	39631.3875
1435.45416	40251.0875
1438.88399	41271.2875
1442.31151	42304.5875
1445.73673	43290.5875
1449.15965	44281.0875
1452.58027	45184.0875
1455.9986	45789.1875
1459.41463	46386.4875
1462.82837	47074.5875
1466.23982	47765.7875
1469.64898	48330.1875
1473.05586	48465.1875
1476.46045	48199.8875
1479.86276	47694.7875
1483.26279	47037.0875
1486.66054	46647.7875
1490.05602	46515.7875
1493.44922	46558.8875
1496.84016	46849.6875
1500.22882	47699.4875
1503.61521	49187.9875
1506.99934	51361.8875
1510.38121	53600.2875
1513.76081	54792.2875
1517.13816	53833.6875
1520.51324	51285.0875
1523.88607	48784.8875
1527.25665	47272.2875
1530.62498	46623.4875
1533.99105	46357.5875
1537.35488	46207.0875
1540.71647	45804.6875
1544.07581	45191.2875
1547.4329	44318.6875
1550.78776	43532.6875
1554.14038	42934.8875
1557.49077	42734.6875
1560.83892	42822.3875
1564.18484	42893.0875
1567.52853	43118.2875
1570.86999	43329.4875
1574.20922	43874.6875
1577.54624	44379.7875
1580.88103	44570.7875
1584.2136	44739.5875
1587.54395	45828.6875
1590.87208	47883.5875
1594.19801	50583.4875
1597.52172	53182.1875
1600.84321	53939.9875
1604.16251	51748.8875
1607.47959	47892.5875
1610.79447	43623.8875
1614.10715	39670.3875
1617.41763	36528.8875
1620.7259	34338.7875
1624.03199	33082.9875
1627.33587	32926.5875
1630.63757	33796.1875
1633.93707	35829.4875
1637.23439	39095.7875
1640.52951	43514.7875
1643.82246	48618.3875
1647.11321	52941.4875
1650.40179	54264.3875
1653.68819	51395.2875
1656.97241	45209.0875
1660.25446	38554.9875
1663.53433	33456.2875
1666.81203	30050.5875
1670.08756	27881.4875
1673.36092	26535.3875
1676.63211	25634.1875
1679.90115	25010.6875
1683.16801	24570.8875
1686.43272	24262.1875
1689.69527	23956.7875
1692.95567	23788.2875
1696.2139	23643.2875
1699.46999	23572.7875
1702.72392	23394.0875
1705.97571	23343.6875
1709.22535	23286.8875
1712.47284	23255.6875
1715.71819	23147.2875
1718.96139	23111.9875
1722.20246	23082.7875
1725.44139	22963.6875
1728.67818	22832.3875
1731.91284	22672.4875
1735.14537	22573.5875
1738.37576	22460.3875
1741.60403	22401.1875
1744.83017	22302.2875
1748.05418	22302.6875
1751.27607	22253.9875
1754.49584	22233.1875
1757.71349	22188.6875
1760.92903	22179.3875
1764.14244	22151.7875
1767.35375	22115.1875
1770.56294	22047.2875
1773.77002	22005.3875
1776.97499	21959.0875
1780.17785	21918.3875
1783.37861	21895.0875
1786.57727	21875.5875
1789.77382	21809.6875
1792.96828	21780.9875
1796.16064	21762.2875
1799.3509	21693.2875
1802.53907	21683.2875
1805.72514	21606.9875
1808.90913	21537.2875
1812.09102	21496.2875
1815.27083	21457.6875
1818.44856	21428.4875
1821.6242	21354.4875
1824.79776	21322.6875
1827.96924	21313.7875
1831.13864	21295.7875
1834.30597	21304.2875
1837.47122	21259.0875
1840.6344	21278.7875
1843.7955	21274.1875
1846.95454	21235.6875
1850.11151	21240.1875
1853.26642	21247.0875
1856.41926	21277.7875
1859.57004	21305.4875
1862.71876	21275.2875
1865.86542	21267.7875
1869.01003	21260.4875
1872.15258	21226.7875
1875.29308	21227.6875
1878.43152	21210.0875
1881.56792	21198.1875
1884.70227	21180.8875
1887.83457	21165.1875
1890.96482	21167.6875
1894.09304	21139.7875
1897.21921	21146.6875
1900.34335	21110.8875
1903.46544	21129.1875
1906.58551	21144.5875
1909.70353	21118.6875
1912.81953	21093.9875
1915.93349	21074.4875
1919.04543	20987.0875
1922.15534	20945.1875
1925.26322	20946.2875
1928.36908	20836.7875
1931.47292	20786.4875
1934.57473	20756.7875
1937.67453	20684.1875
1940.77232	20635.0875
1943.86808	20550.0875
1946.96184	20485.5875
1950.05358	20453.4875
1953.14331	20393.0875
1956.23103	20296.9875
1959.31675	20285.0875
1962.40046	20189.9875
1965.48217	20116.5875
1968.56188	20086.9875
1971.63959	19979.0875
1974.7153	19923.3875
1977.78901	19855.1875
1980.86073	19820.5875
1983.93046	19707.9875
1986.99819	19654.8875
1990.06394	19649.4875
1993.1277	19576.1875
1996.18947	19520.5875
1999.24925	19428.8875
2002.30706	19405.3875
2005.36288	19365.2875
2008.41672	19317.3875
2011.46859	19226.6875
2014.51848	19203.3875
2017.56639	19167.0875
2020.61233	19051.1875
2023.6563	19040.9875
2026.6983	18989.3875
2029.73833	18944.9875
2032.7764	18914.8875
2035.8125	18862.2875
2038.84664	18831.0875
2041.87881	18848.7875
2044.90903	18790.5875
2047.93729	18744.3875
2050.96359	18752.2875
2053.98794	18740.5875
2057.01034	18723.5875
2060.03078	18720.2875
2063.04927	18678.7875
2066.06582	18652.9875
2069.08042	18644.8875
2072.09307	18639.5875
2075.10378	18605.3875
2078.11255	18610.7875
2081.11938	18568.5875
2084.12426	18564.7875
2087.12722	18603.5875
2090.12824	18517.3875
2093.12732	18554.0875
2096.12447	18530.0875
2099.11969	18531.0875
2102.11299	18523.3875
2105.10435	18513.4875
2108.09379	18527.0875
2111.08131	18541.8875
2114.0669	18584.4875
2117.05057	18579.9875
2120.03233	18597.8875
2123.01216	18601.6875
2125.99008	18599.5875
2128.96609	18609.3875
2131.94018	18615.4875
2134.91236	18670.6875
2137.88263	18635.8875
2140.851	18689.6875
2143.81746	18695.8875
2146.78201	18660.2875
2149.74466	18664.2875
2152.7054	18690.7875
2155.66425	18630.7875
2158.6212	18610.5875
2161.57625	18633.9875
2164.52941	18640.7875
2167.48067	18587.8875
2170.43004	18612.0875
2173.37752	18594.7875
2176.32311	18577.2875
2179.26681	18605.0875
2182.20863	18598.3875
2185.14856	18591.0875
2188.08661	18604.5875
2191.02278	18599.4875
2193.95707	18609.3875
2196.88948	18564.3875
2199.82001	18561.2875
2202.74867	18503.5875
2205.67545	18521.3875
2208.60037	18522.9875
2211.52341	18496.0875
2214.44458	18504.6875
2217.36388	18464.4875
2220.28132	18408.2875
2223.1969	18372.0875
2226.11061	18373.7875
2229.02246	18348.2875
2231.93245	18296.5875
2234.84058	18219.2875
2237.74686	18206.6875
2240.65128	18164.9875
2243.55385	18150.8875
2246.45456	18148.6875
2249.35343	18066.6875
2252.25044	18055.3875
2255.14561	18060.2875
2258.03893	18030.8875
2260.93041	17992.9875
2263.82004	17943.4875
2266.70783	17930.2875
2269.59378	17834.1875
2272.4779	17779.2875
2275.36017	17727.0875
2278.24061	17700.0875
2281.11922	17675.2875
2283.996	17687.4875
2286.87094	17638.3875
2289.74405	17605.3875
2292.61534	17607.7875
2295.4848	17594.6875
2298.35243	17579.6875
2301.21824	17584.3875
2304.08223	17570.9875
2306.94439	17556.2875
2309.80474	17570.4875
2312.66327	17604.4875
2315.51999	17584.5875
2318.37489	17568.9875
2321.22797	17561.2875
2324.07925	17541.4875
2326.92871	17497.8875
2329.77637	17458.9875
2332.62222	17460.1875
2335.46626	17453.5875
2338.3085	17460.1875
2341.14893	17457.3875
2343.98756	17481.9875
2346.8244	17503.1875
2349.65943	17478.4875
2352.49267	17475.2875
2355.32411	17485.2875
2358.15376	17443.1875
2360.98161	17444.2875
2363.80768	17445.5875
2366.63195	17426.4875
2369.45444	17402.7875
2372.27514	17399.3875
2375.09405	17373.3875
2377.91118	17312.8875
2380.72652	17280.5875
2383.54009	17239.0875
2386.35187	17186.4875
2389.16188	17147.3875
2391.97011	17144.9875
2394.77657	17064.3875
2397.58125	17049.7875
2400.38416	17022.2875
2403.18529	16992.8875
2405.98466	16963.9875
2408.78226	16903.8875
2411.57809	16929.0875
2414.37216	16896.8875
2417.16446	16888.2875
2419.955	16851.6875
2422.74378	16865.2875
2425.5308	16809.2875
2428.31606	16830.2875
2431.09956	16796.8875
2433.88131	16785.9875
2436.6613	16785.9875
2439.43954	16795.9875
2442.21603	16802.4875
2444.99077	16749.4875
2447.76377	16764.3875
2450.53501	16749.2875
2453.30451	16738.8875
2456.07226	16739.3875
2458.83827	16757.9875
2461.60254	16706.2875
2464.36507	16698.0875
2467.12586	16692.6875
2469.88492	16711.4875
2472.64224	16725.7875
2475.39782	16732.9875
2478.15167	16739.2875
2480.90379	16727.7875
2483.65417	16734.9875
2486.40283	16768.6875
2489.14976	16809.3875
2491.89497	16770.5875
2494.63845	16821.3875
2497.3802	16808.0875
2500.12024	16804.7875
2502.85855	16820.4875
2505.59514	16794.6875
2508.33002	16765.3875
2511.06318	16714.9875
2513.79462	16727.1875
2516.52435	16706.1875
2519.25237	16692.0875
2521.97867	16661.4875
2524.70327	16642.9875
2527.42616	16615.8875
2530.14734	16662.1875
2532.86681	16636.7875
2535.58458	16660.6875
2538.30065	16593.8875
2541.01501	16606.9875
2543.72768	16580.8875
2546.43864	16584.8875
2549.14791	16538.9875
2551.85548	16525.3875
2554.56136	16501.6875
2557.26554	16482.1875
2559.96803	16464.6875
2562.66883	16496.9875
2565.36794	16459.3875
2568.06536	16433.1875
2570.7611	16399.9875
2573.45514	16391.6875
2576.14751	16374.7875
2578.83819	16335.3875
2581.52719	16360.7875
2584.21451	16386.9875
2586.90015	16384.0875
2589.58411	16402.3875
2592.2664	16361.9875
2594.94701	16347.2875
2597.62594	16331.7875
2600.30321	16311.1875
2602.9788	16334.7875
2605.65273	16294.1875
2608.32498	16311.0875
2610.99557	16341.1875
2613.66449	16345.7875
2616.33175	16340.3875
2618.99734	16363.1875
2621.66128	16335.7875
2624.32355	16324.0875
2626.98416	16332.7875
2629.64311	16344.0875
2632.30041	16333.0875
2634.95605	16312.0875
2637.61004	16285.3875
2640.26238	16283.0875
2642.91306	16246.6875
2645.56209	16247.9875
2648.20948	16246.9875
2650.85521	16260.7875
2653.4993	16268.0875
2656.14175	16268.7875
2658.78255	16262.9875
2661.42171	16276.2875
2664.05923	16289.5875
2666.6951	16288.6875
2669.32934	16343.4875
2671.96194	16337.0875
2674.59291	16330.0875
2677.22224	16315.1875
2679.84993	16341.8875
2682.476	16285.7875
2685.10043	16255.4875
2687.72324	16247.3875
2690.34441	16268.1875
2692.96396	16232.6875
2695.58188	16233.6875
2698.19818	16231.9875
2700.81285	16262.9875
2703.4259	16279.2875
2706.03733	16367.1875
2708.64714	16320.0875
2711.25533	16339.1875
2713.86191	16296.4875
2716.46687	16341.5875
2719.07021	16332.9875
2721.67194	16354.1875
2724.27206	16363.6875
2726.87057	16379.9875
2729.46747	16368.4875
2732.06276	16347.0875
2734.65644	16370.0875
2737.24852	16345.5875
2739.83899	16332.1875
2742.42786	16366.5875
2745.01513	16344.4875
2747.60079	16333.7875
2750.18486	16346.5875
2752.76733	16320.2875
2755.3482	16292.1875
2757.92747	16282.2875
2760.50515	16302.2875
2763.08123	16289.0875
2765.65573	16321.8875
2768.22863	16308.5875
2770.79994	16272.6875
2773.36967	16284.8875
2775.9378	16313.4875
2778.50435	16304.4875
2781.06932	16264.4875
2783.6327	16335.4875
2786.1945	16336.2875
2788.75471	16335.8875
2791.31335	16251.7875
2793.87041	16261.9875
2796.42589	16200.6875
2798.97979	16223.0875
2801.53212	16152.7875
2804.08288	16142.2875
2806.63206	16096.2875
2809.17967	16098.7875
2811.72571	16071.5875
2814.27018	16028.4875
2816.81308	16020.9875
2819.35442	15974.8875
2821.89419	15976.6875
2824.43239	15980.4875
2826.96904	15955.6875
2829.50412	15955.5875
2832.03763	15897.7875
2834.56959	15899.0875
2837.1	15894.8875
2839.62884	15905.7875
2842.15613	15876.0875
2844.68186	15935.7875
2847.20604	15971.4875
2849.72867	15964.5875
2852.24974	15947.4875
2854.76927	15953.6875
2857.28724	15964.5875
2859.80367	15917.3875
2862.31855	15879.8875
2864.83189	15866.7875
2867.34368	15865.3875
2869.85393	15842.3875
2872.36264	15824.4875
2874.8698	15813.9875
2877.37543	15800.6875
2879.87952	15794.5875
2882.38207	15824.0875
2884.88308	15803.3875
2887.38256	15830.7875
2889.88051	15829.0875
2892.37692	15825.6875
2894.8718	15816.4875
2897.36515	15853.6875
2899.85698	15841.6875
2902.34727	15876.6875
2904.83604	15894.8875
2907.32328	15939.0875
2909.809	15940.4875
2912.29319	15979.6875
2914.77587	15941.2875
2917.25702	15961.7875
2919.73665	15926.1875
2922.21476	15938.0875
2924.69136	15918.4875
2927.16644	15921.3875
2929.64	15897.5875
2932.11205	15851.6875
2934.58258	15793.0875
2937.05161	15851.3875
2939.51912	15822.6875
2941.98513	15806.5875
2944.44962	15753.0875
2946.91261	15702.4875
2949.37409	15721.7875
2951.83407	15690.9875
2954.29254	15686.0875
2956.74951	15652.9875
2959.20498	15649.1875
2961.65895	15618.0875
2964.11142	15607.8875
2966.56239	15575.3875
2969.01186	15557.8875
2971.45984	15550.0875
2973.90632	15508.2875
2976.35131	15493.0875
2978.7948	15471.1875
2981.23681	15440.4875
2983.67732	15401.7875
2986.11635	15339.5875
2988.55388	15294.4875
2990.98993	15276.6875
2993.4245	15244.0875
2995.85758	15194.4875
2998.28917	15146.5875
3000.71928	15135.2875
3003.14791	15054.5875
3005.57506	15071.9875
3008.00073	15000.4875
3010.42493	14925.8875
3012.84764	14998.3875
3015.26888	14962.7875
3017.68865	14906.0875
3020.10694	14897.0875
3022.52376	14846.8875
3024.9391	14851.9875
3027.35298	14841.7875
3029.76539	14836.4875
3032.17632	14809.8875
3034.5858	14758.7875
3036.9938	14778.5875
3039.40034	14761.5875
3041.80542	14771.2875
3044.20903	14779.1875
3046.61118	14748.8875
3049.01187	14719.0875
3051.4111	14724.9875
3053.80888	14661.8875
3056.20519	14652.4875
3058.60005	14608.0875
3060.99345	14568.1875
3063.3854	14487.6875
3065.7759	14445.5875
3068.16494	14412.2875
3070.55254	14354.0875
3072.93868	14323.6875
3075.32338	14274.2875
3077.70662	14240.9875
3080.08842	14222.2875
3082.46878	14176.3875
3084.84769	14157.4875
3087.22515	14148.1875
3089.60118	14150.3875
3091.97576	14120.3875
3094.3489	14127.2875
3096.72061	14145.3875
3099.09087	14104.4875
3101.4597	14103.1875
3103.82709	14113.8875
3106.19305	14071.3875
3108.55757	14070.1875
3110.92066	14026.1875
3113.28232	14028.9875
3115.64255	13990.4875
3118.00134	13954.9875
3120.35871	13918.8875
3122.71466	13865.2875
3125.06917	13857.0875
3127.42226	13802.2875
3129.77393	13810.6875
3132.12417	13752.9875
3134.47299	13782.0875
3136.82039	13759.9875
3139.16636	13761.0875
3141.51092	13738.7875
3143.85406	13732.3875
3146.19579	13719.2875
3148.53609	13700.4875
3150.87499	13724.4875
3153.21246	13702.6875
3155.54853	13731.3875
3157.88318	13706.7875
3160.21642	13737.2875
3162.54826	13738.7875
3164.87868	13735.1875
3167.2077	13712.8875
3169.5353	13732.7875
3171.86151	13741.7875
3174.18631	13733.3875
3176.5097	13726.9875
3178.83169	13701.3875
3181.15228	13687.9875
3183.47147	13660.6875
3185.78926	13648.3875
3188.10565	13602.5875
3190.42065	13627.8875
3192.73424	13631.0875
3195.04645	13583.4875
3197.35725	13554.0875
3199.66667	13549.3875
3201.97469	13561.3875
3204.28132	13572.3875
3206.58656	13593.2875
3208.8904	13576.9875
3211.19287	13593.2875
3213.49394	13563.2875
3215.79363	13614.0875
3218.09193	13614.6875
3220.38884	13592.9875
3222.68438	13602.7875
3224.97853	13586.4875
3227.2713	13539.7875
3229.56269	13527.7875
3231.8527	13533.0875
3234.14133	13499.1875
3236.42858	13469.3875
3238.71446	13452.6875
3240.99896	13416.6875
3243.28209	13394.8875
3245.56384	13361.1875
3247.84423	13376.7875
3250.12324	13372.4875
3252.40088	13327.1875
3254.67715	13335.9875
3256.95205	13339.0875
3259.22558	13324.3875
3261.49775	13308.1875
3263.76855	13292.3875
3266.03799	13244.6875
3268.30606	13246.8875
3270.57277	13204.4875
3272.83812	13174.7875
3275.10211	13139.6875
3277.36474	13111.4875
3279.62601	13118.3875
3281.88593	13053.4875
3284.14448	13100.6875
3286.40168	13093.8875
3288.65753	13089.6875
3290.91202	13109.6875
3293.16516	13055.6875
3295.41695	13002.9875
3297.66738	12945.0875
3299.91647	12845.5875
3302.16421	12792.4875
3304.4106	12761.7875
3306.65564	12650.6875
3308.89933	12580.9875
3311.14169	12488.3875
3313.38269	12381.7875
3315.62236	12315.6875
3317.86068	12220.6875
3320.09766	12120.7875
3322.3333	12036.2875
3324.5676	11996.7875
3326.80056	11793.5875
3329.03219	11743.5875
3331.26248	3.6875
3333.49143	-1.4125
3335.71905	-1.3125
