Data from AgNPs_FTO_APTES_UA_5uM_CRN_50uM_R6G_10uM_NaF_0.1M_Addition_RamanShift__3__13-46-06-806.txt Node

Date: Mon Feb 07 13:46:06 GMT 2022
User: TCL
Spectrometer: QEP01345
Trigger mode: 4
Integration Time (sec): 7.000000E0
Scans to average: 10
Electric dark correction enabled: true
Nonlinearity correction enabled: false
Boxcar width: 0
XAxis mode: Raman Shifts
Number of Pixels in Spectrum: 1044
>>>>>Begin Spectral Data<<<<<
46.04893	-1.3125
50.45542	-2.5125
54.85868	-1.4125
59.25871	0.1875
63.6555	79.2875
68.04907	83.9875
72.43941	87.7875
76.82654	89.2875
81.21044	91.4875
85.59113	98.5875
89.96862	104.7875
94.34289	100.6875
98.71396	109.2875
103.08183	110.3875
107.4465	113.8875
111.80798	116.1875
116.16626	121.7875
120.52136	125.2875
124.87327	133.2875
129.222	145.4875
133.56755	152.6875
137.90993	168.3875
142.24913	183.2875
146.58517	211.0875
150.91804	247.0875
155.24774	300.1875
159.57429	384.8875
163.89768	491.7875
168.21792	654.8875
172.53501	896.8875
176.84895	1258.3875
181.15975	1780.9875
185.46741	2491.4875
189.77193	3434.0875
194.07331	4566.8875
198.37157	5900.6875
202.6667	7273.8875
206.9587	8663.0875
211.24758	10002.3875
215.53334	11365.7875
219.81599	12804.9875
224.09553	14408.0875
228.37195	16162.3875
232.64527	18043.1875
236.91549	19996.1875
241.18261	21940.1875
245.44663	23783.5875
249.70755	25376.7875
253.96539	26788.5875
258.22014	28018.3875
262.4718	29057.9875
266.72039	29796.3875
270.96589	30221.3875
275.20832	30290.5875
279.44768	30135.0875
283.68397	29941.5875
287.91719	29754.8875
292.14735	29696.5875
296.37445	29771.6875
300.59849	29897.8875
304.81948	30073.7875
309.03742	29979.1875
313.25231	29756.2875
317.46415	29164.1875
321.67296	28408.6875
325.87872	27759.0875
330.08145	27403.8875
334.28114	27275.3875
338.47781	27387.2875
342.67145	27659.0875
346.86207	28042.1875
351.04966	28511.4875
355.23424	29087.7875
359.4158	29552.7875
363.59435	29941.2875
367.76989	30210.1875
371.94243	30363.1875
376.11196	30437.4875
380.27849	30532.0875
384.44203	30681.9875
388.60257	30942.0875
392.76012	31302.3875
396.91468	31778.5875
401.06626	32292.9875
405.21485	32641.8875
409.36047	32510.5875
413.50311	32178.5875
417.64277	32028.1875
421.77947	32136.8875
425.9132	32321.3875
430.04396	32502.3875
434.17176	32687.6875
438.2966	32950.9875
442.41849	33586.0875
446.53742	34755.5875
450.6534	36080.4875
454.76644	37000.3875
458.87653	37220.8875
462.98368	36956.1875
467.08789	36319.6875
471.18916	35708.8875
475.2875	35238.8875
479.38291	35088.2875
483.4754	35018.7875
487.56496	34655.0875
491.6516	33916.4875
495.73531	33032.5875
499.81612	32477.8875
503.89401	32381.1875
507.96899	32440.4875
512.04106	32270.7875
516.11023	31871.8875
520.1765	31371.3875
524.23987	30961.6875
528.30034	30665.9875
532.35792	30391.3875
536.41261	30028.0875
540.46441	29648.4875
544.51333	29616.2875
548.55936	30039.9875
552.60252	30861.2875
556.64279	31860.7875
560.6802	32726.2875
564.71473	33325.4875
568.7464	34244.5875
572.7752	35597.3875
576.80114	36804.4875
580.82422	37953.2875
584.84444	39305.3875
588.86181	41119.6875
592.87633	42475.4875
596.888	42020.5875
600.89682	39963.9875
604.9028	39116.0875
608.90594	40717.4875
612.90624	42696.7875
616.90371	39728.6875
620.89834	33652.3875
624.89015	30925.5875
628.87913	30652.0875
632.86528	30773.3875
636.84862	30506.3875
640.82913	29827.3875
644.80683	29058.9875
648.78172	28555.2875
652.75379	28489.6875
656.72306	28846.8875
660.68952	29183.1875
664.65319	28989.0875
668.61405	28442.1875
672.57211	28341.0875
676.52738	28397.7875
680.47986	28455.8875
684.42955	28204.5875
688.37646	28063.8875
692.32058	28299.2875
696.26192	28765.2875
700.20048	29284.4875
704.13626	29552.0875
708.06928	29597.6875
711.99952	29443.7875
715.927	29486.8875
719.85171	29695.5875
723.77365	29581.6875
727.69284	29093.9875
731.60928	28634.7875
735.52295	28439.6875
739.43388	28444.3875
743.34206	28536.6875
747.24749	28728.5875
751.15017	29162.0875
755.05012	29798.9875
758.94733	30832.2875
762.8418	32463.7875
766.73354	34712.5875
770.62254	36540.1875
774.50882	36531.9875
778.39237	34627.1875
782.27321	32155.9875
786.15132	30201.7875
790.02671	29058.7875
793.89938	28540.7875
797.76935	28325.5875
801.6366	28305.3875
805.50115	28259.8875
809.36299	28103.0875
813.22213	27909.6875
817.07857	27818.3875
820.93231	27704.4875
824.78336	27487.3875
828.63172	27281.4875
832.47738	27163.8875
836.32036	27219.1875
840.16066	27368.6875
843.99827	27465.7875
847.8332	27434.4875
851.66546	27298.3875
855.49504	27264.9875
859.32195	27232.2875
863.1462	27101.0875
866.96777	26979.9875
870.78668	26831.5875
874.60293	26835.0875
878.41652	26788.3875
882.22745	26871.0875
886.03573	26991.4875
889.84136	26965.8875
893.64433	26831.1875
897.44466	26715.1875
901.24235	26603.2875
905.0374	26535.7875
908.8298	26553.7875
912.61957	26652.4875
916.40671	27031.7875
920.19121	27603.9875
923.97308	28058.8875
927.75233	28015.5875
931.52895	27699.4875
935.30295	27153.4875
939.07433	26533.6875
942.84309	26142.7875
946.60924	25980.9875
950.37278	25946.2875
954.13371	25895.2875
957.89203	25790.2875
961.64774	25782.7875
965.40086	25812.6875
969.15137	25716.5875
972.89929	25568.0875
976.64461	25439.2875
980.38733	25414.7875
984.12747	25506.8875
987.86502	25700.7875
991.59999	26001.1875
995.33237	26461.2875
999.06217	27297.2875
1002.78939	28199.0875
1006.51404	28850.6875
1010.23611	29229.1875
1013.95561	29522.4875
1017.67255	29547.2875
1021.38692	29109.0875
1025.09872	28649.8875
1028.80796	28670.8875
1032.51465	29390.5875
1036.21877	30262.7875
1039.92035	30540.0875
1043.61937	30300.7875
1047.31584	29635.8875
1051.00976	28907.4875
1054.70114	28502.8875
1058.38998	28451.2875
1062.07627	28627.9875
1065.76003	28838.1875
1069.44126	29171.6875
1073.11995	29585.1875
1076.79611	29922.0875
1080.46974	30180.1875
1084.14085	30422.1875
1087.80943	30781.9875
1091.47549	31076.7875
1095.13903	31217.0875
1098.80005	30784.3875
1102.45857	30032.5875
1106.11456	29429.8875
1109.76805	29087.9875
1113.41903	29150.6875
1117.06751	29326.2875
1120.71348	29627.1875
1124.35696	29933.7875
1127.99793	30301.4875
1131.63641	30611.7875
1135.2724	30557.0875
1138.90589	30576.2875
1142.5369	30827.0875
1146.16542	31167.0875
1149.79145	31641.2875
1153.415	32227.0875
1157.03607	33049.4875
1160.65467	34511.2875
1164.27079	36685.9875
1167.88443	39131.7875
1171.49561	41573.5875
1175.10432	44453.3875
1178.71056	48091.8875
1182.31434	51516.2875
1185.91565	53010.9875
1189.51451	52339.9875
1193.11091	50701.8875
1196.70485	48804.1875
1200.29634	47130.0875
1203.88538	46275.5875
1207.47197	46070.8875
1211.05612	45587.6875
1214.63782	44603.3875
1218.21708	43175.2875
1221.79391	41755.9875
1225.36829	40696.8875
1228.94024	39760.0875
1232.50976	38709.6875
1236.07685	37909.9875
1239.6415	37503.8875
1243.20374	37534.6875
1246.76355	37996.8875
1250.32093	38804.5875
1253.8759	39788.7875
1257.42845	40982.2875
1260.97859	42206.2875
1264.52631	43439.5875
1268.07163	44854.8875
1271.61453	46401.3875
1275.15503	48137.0875
1278.69312	50006.6875
1282.22882	52040.6875
1285.76211	54362.1875
1289.29301	57185.5875
1292.82151	60721.3875
1296.34761	65073.7875
1299.87133	70079.0875
1303.39266	74999.1875
1306.9116	79111.1875
1310.42815	81755.2875
1313.94233	82665.9875
1317.45412	81970.9875
1320.96354	80407.1875
1324.47058	79136.9875
1327.97525	78154.8875
1331.47754	77365.7875
1334.97747	76653.4875
1338.47502	75424.5875
1341.97022	73483.3875
1345.46305	71039.5875
1348.95352	69144.5875
1352.44163	68597.5875
1355.92738	70052.7875
1359.41078	72988.0875
1362.89183	75163.0875
1366.37053	74100.7875
1369.84688	68458.5875
1373.32088	60786.3875
1376.79254	55552.6875
1380.26186	54211.3875
1383.72883	54980.1875
1387.19347	55820.4875
1390.65578	55679.6875
1394.11575	55798.4875
1397.57339	56916.7875
1401.0287	58654.8875
1404.48168	59958.7875
1407.93234	59917.8875
1411.38068	58275.2875
1414.82669	55509.4875
1418.27039	52187.7875
1421.71177	48977.0875
1425.15083	46393.7875
1428.58758	45102.9875
1432.02203	45499.0875
1435.45416	47213.7875
1438.88399	49357.1875
1442.31151	51089.0875
1445.73673	52206.7875
1449.15965	53019.6875
1452.58027	53405.2875
1455.9986	53208.2875
1459.41463	53196.7875
1462.82837	53750.1875
1466.23982	54819.6875
1469.64898	55802.6875
1473.05586	56456.0875
1476.46045	56505.8875
1479.86276	56000.1875
1483.26279	55102.1875
1486.66054	54431.2875
1490.05602	54250.9875
1493.44922	54370.5875
1496.84016	54344.2875
1500.22882	54463.3875
1503.61521	55004.2875
1506.99934	55960.4875
1510.38121	56881.9875
1513.76081	57170.0875
1517.13816	56611.3875
1520.51324	55599.6875
1523.88607	55148.9875
1527.25665	55507.3875
1530.62498	56078.3875
1533.99105	56270.1875
1537.35488	55765.0875
1540.71647	54496.9875
1544.07581	52628.2875
1547.4329	50593.8875
1550.78776	48926.9875
1554.14038	47703.4875
1557.49077	46898.6875
1560.83892	46389.6875
1564.18484	46088.7875
1567.52853	46150.5875
1570.86999	46713.8875
1574.20922	47983.8875
1577.54624	49426.2875
1580.88103	50536.8875
1584.2136	52036.7875
1587.54395	54845.1875
1590.87208	58719.1875
1594.19801	63006.3875
1597.52172	66282.1875
1600.84321	66380.0875
1604.16251	62271.0875
1607.47959	55608.8875
1610.79447	49143.6875
1614.10715	43708.9875
1617.41763	39795.4875
1620.7259	37420.5875
1624.03199	36417.4875
1627.33587	36774.9875
1630.63757	38482.1875
1633.93707	41851.2875
1637.23439	47135.8875
1640.52951	54707.0875
1643.82246	63523.9875
1647.11321	70130.0875
1650.40179	70598.6875
1653.68819	63938.4875
1656.97241	53696.4875
1660.25446	44189.5875
1663.53433	37277.7875
1666.81203	32918.5875
1670.08756	30187.8875
1673.36092	28571.6875
1676.63211	27498.5875
1679.90115	26716.6875
1683.16801	26175.0875
1686.43272	25766.1875
1689.69527	25466.2875
1692.95567	25249.2875
1696.2139	25068.9875
1699.46999	24972.8875
1702.72392	24782.5875
1705.97571	24716.4875
1709.22535	24652.5875
1712.47284	24580.8875
1715.71819	24518.0875
1718.96139	24429.7875
1722.20246	24295.4875
1725.44139	24189.3875
1728.67818	24042.7875
1731.91284	23885.3875
1735.14537	23702.5875
1738.37576	23567.1875
1741.60403	23487.7875
1744.83017	23373.4875
1748.05418	23315.3875
1751.27607	23277.7875
1754.49584	23260.8875
1757.71349	23224.4875
1760.92903	23212.5875
1764.14244	23213.4875
1767.35375	23166.1875
1770.56294	23144.8875
1773.77002	23059.9875
1776.97499	23004.9875
1780.17785	22931.6875
1783.37861	22908.3875
1786.57727	22919.8875
1789.77382	22838.2875
1792.96828	22780.8875
1796.16064	22767.3875
1799.3509	22688.8875
1802.53907	22619.9875
1805.72514	22594.8875
1808.90913	22532.7875
1812.09102	22439.9875
1815.27083	22400.9875
1818.44856	22367.2875
1821.6242	22311.6875
1824.79776	22323.8875
1827.96924	22302.8875
1831.13864	22266.0875
1834.30597	22298.9875
1837.47122	22223.3875
1840.6344	22221.1875
1843.7955	22251.6875
1846.95454	22251.2875
1850.11151	22244.9875
1853.26642	22222.2875
1856.41926	22238.5875
1859.57004	22184.8875
1862.71876	22199.2875
1865.86542	22188.8875
1869.01003	22123.5875
1872.15258	22100.8875
1875.29308	22096.8875
1878.43152	22040.6875
1881.56792	22075.5875
1884.70227	22051.5875
1887.83457	22042.2875
1890.96482	22007.2875
1894.09304	21974.2875
1897.21921	21952.0875
1900.34335	21936.8875
1903.46544	21947.6875
1906.58551	21885.6875
1909.70353	21895.1875
1912.81953	21849.6875
1915.93349	21796.3875
1919.04543	21782.2875
1922.15534	21707.0875
1925.26322	21650.5875
1928.36908	21591.9875
1931.47292	21557.3875
1934.57473	21516.0875
1937.67453	21458.9875
1940.77232	21390.3875
1943.86808	21355.8875
1946.96184	21311.9875
1950.05358	21238.8875
1953.14331	21222.6875
1956.23103	21131.7875
1959.31675	21059.4875
1962.40046	20980.5875
1965.48217	20937.3875
1968.56188	20869.5875
1971.63959	20805.2875
1974.7153	20706.9875
1977.78901	20704.7875
1980.86073	20574.7875
1983.93046	20527.0875
1986.99819	20498.2875
1990.06394	20390.5875
1993.1277	20361.4875
1996.18947	20340.3875
1999.24925	20316.3875
2002.30706	20219.1875
2005.36288	20172.0875
2008.41672	20134.0875
2011.46859	20030.2875
2014.51848	20001.6875
2017.56639	19958.2875
2020.61233	19919.6875
2023.6563	19902.6875
2026.6983	19817.5875
2029.73833	19781.4875
2032.7764	19755.9875
2035.8125	19748.5875
2038.84664	19668.9875
2041.87881	19703.8875
2044.90903	19683.8875
2047.93729	19631.0875
2050.96359	19610.4875
2053.98794	19589.8875
2057.01034	19591.1875
2060.03078	19582.1875
2063.04927	19571.8875
2066.06582	19511.5875
2069.08042	19521.1875
2072.09307	19518.0875
2075.10378	19473.6875
2078.11255	19455.5875
2081.11938	19459.8875
2084.12426	19445.1875
2087.12722	19440.2875
2090.12824	19402.2875
2093.12732	19400.3875
2096.12447	19430.4875
2099.11969	19434.5875
2102.11299	19424.4875
2105.10435	19426.7875
2108.09379	19438.7875
2111.08131	19457.2875
2114.0669	19456.8875
2117.05057	19482.6875
2120.03233	19477.8875
2123.01216	19513.0875
2125.99008	19523.6875
2128.96609	19532.5875
2131.94018	19532.6875
2134.91236	19553.8875
2137.88263	19570.8875
2140.851	19594.4875
2143.81746	19589.5875
2146.78201	19552.7875
2149.74466	19582.8875
2152.7054	19545.0875
2155.66425	19565.4875
2158.6212	19547.7875
2161.57625	19507.4875
2164.52941	19538.9875
2167.48067	19517.3875
2170.43004	19518.4875
2173.37752	19510.0875
2176.32311	19498.9875
2179.26681	19540.2875
2182.20863	19524.9875
2185.14856	19544.9875
2188.08661	19533.3875
2191.02278	19571.8875
2193.95707	19591.2875
2196.88948	19503.4875
2199.82001	19494.4875
2202.74867	19500.5875
2205.67545	19488.0875
2208.60037	19476.7875
2211.52341	19470.3875
2214.44458	19453.6875
2217.36388	19428.1875
2220.28132	19400.3875
2223.1969	19334.0875
2226.11061	19339.9875
2229.02246	19322.8875
2231.93245	19279.9875
2234.84058	19243.9875
2237.74686	19190.1875
2240.65128	19184.1875
2243.55385	19187.5875
2246.45456	19147.0875
2249.35343	19075.2875
2252.25044	19028.2875
2255.14561	19017.0875
2258.03893	18997.4875
2260.93041	18954.6875
2263.82004	18895.4875
2266.70783	18893.7875
2269.59378	18788.7875
2272.4779	18761.6875
2275.36017	18708.9875
2278.24061	18692.9875
2281.11922	18667.5875
2283.996	18646.8875
2286.87094	18622.7875
2289.74405	18596.3875
2292.61534	18613.2875
2295.4848	18617.1875
2298.35243	18624.0875
2301.21824	18650.0875
2304.08223	18670.6875
2306.94439	18683.3875
2309.80474	18691.4875
2312.66327	18676.3875
2315.51999	18700.5875
2318.37489	18660.8875
2321.22797	18623.2875
2324.07925	18636.7875
2326.92871	18601.1875
2329.77637	18561.3875
2332.62222	18559.5875
2335.46626	18555.1875
2338.3085	18574.7875
2341.14893	18550.2875
2343.98756	18581.3875
2346.8244	18579.0875
2349.65943	18594.7875
2352.49267	18555.9875
2355.32411	18577.2875
2358.15376	18545.2875
2360.98161	18542.7875
2363.80768	18526.8875
2366.63195	18560.6875
2369.45444	18498.5875
2372.27514	18470.2875
2375.09405	18430.2875
2377.91118	18348.4875
2380.72652	18351.9875
2383.54009	18308.4875
2386.35187	18332.0875
2389.16188	18263.0875
2391.97011	18245.4875
2394.77657	18196.8875
2397.58125	18204.3875
2400.38416	18199.6875
2403.18529	18184.4875
2405.98466	18162.2875
2408.78226	18117.8875
2411.57809	18083.7875
2414.37216	18088.8875
2417.16446	18086.5875
2419.955	18022.4875
2422.74378	18050.2875
2425.5308	17970.4875
2428.31606	18031.6875
2431.09956	18048.4875
2433.88131	18001.2875
2436.6613	18055.7875
2439.43954	18035.4875
2442.21603	18033.8875
2444.99077	17997.7875
2447.76377	18022.9875
2450.53501	18000.1875
2453.30451	18023.8875
2456.07226	17966.5875
2458.83827	18002.6875
2461.60254	17994.6875
2464.36507	18033.7875
2467.12586	17995.9875
2469.88492	18036.7875
2472.64224	18113.8875
2475.39782	18092.9875
2478.15167	18116.7875
2480.90379	18069.1875
2483.65417	18098.1875
2486.40283	18084.2875
2489.14976	18143.3875
2491.89497	18165.2875
2494.63845	18163.5875
2497.3802	18213.9875
2500.12024	18192.7875
2502.85855	18147.8875
2505.59514	18137.9875
2508.33002	18159.0875
2511.06318	18133.4875
2513.79462	18101.9875
2516.52435	18125.2875
2519.25237	18130.5875
2521.97867	18082.8875
2524.70327	18084.5875
2527.42616	18113.5875
2530.14734	18077.5875
2532.86681	18122.6875
2535.58458	18147.9875
2538.30065	18094.6875
2541.01501	18094.3875
2543.72768	18080.9875
2546.43864	18097.2875
2549.14791	18087.5875
2551.85548	18100.4875
2554.56136	18068.2875
2557.26554	18045.6875
2559.96803	18036.1875
2562.66883	18053.7875
2565.36794	18042.1875
2568.06536	18041.4875
2570.7611	18031.5875
2573.45514	18031.3875
2576.14751	18004.1875
2578.83819	17988.7875
2581.52719	18024.2875
2584.21451	18038.5875
2586.90015	18046.2875
2589.58411	18072.5875
2592.2664	18062.2875
2594.94701	18002.9875
2597.62594	18048.6875
2600.30321	18033.3875
2602.9788	18024.2875
2605.65273	18016.5875
2608.32498	18085.1875
2610.99557	18052.6875
2613.66449	18098.2875
2616.33175	18080.0875
2618.99734	18076.1875
2621.66128	18091.7875
2624.32355	18075.6875
2626.98416	18054.8875
2629.64311	18076.3875
2632.30041	18104.4875
2634.95605	18068.9875
2637.61004	18073.8875
2640.26238	18035.7875
2642.91306	18050.7875
2645.56209	18031.3875
2648.20948	18060.8875
2650.85521	18095.4875
2653.4993	18103.9875
2656.14175	18063.8875
2658.78255	18121.1875
2661.42171	18133.8875
2664.05923	18155.6875
2666.6951	18174.9875
2669.32934	18214.6875
2671.96194	18193.3875
2674.59291	18200.9875
2677.22224	18180.1875
2679.84993	18225.5875
2682.476	18196.4875
2685.10043	18205.8875
2687.72324	18156.5875
2690.34441	18121.9875
2692.96396	18091.8875
2695.58188	18125.9875
2698.19818	18149.0875
2700.81285	18169.9875
2703.4259	18219.1875
2706.03733	18238.6875
2708.64714	18208.4875
2711.25533	18238.9875
2713.86191	18230.7875
2716.46687	18299.2875
2719.07021	18305.3875
2721.67194	18317.3875
2724.27206	18330.1875
2726.87057	18350.9875
2729.46747	18402.4875
2732.06276	18426.2875
2734.65644	18404.3875
2737.24852	18394.7875
2739.83899	18416.7875
2742.42786	18421.1875
2745.01513	18378.1875
2747.60079	18397.4875
2750.18486	18415.0875
2752.76733	18375.1875
2755.3482	18357.4875
2757.92747	18391.9875
2760.50515	18384.2875
2763.08123	18388.5875
2765.65573	18431.6875
2768.22863	18416.4875
2770.79994	18398.2875
2773.36967	18432.7875
2775.9378	18439.9875
2778.50435	18436.3875
2781.06932	18461.0875
2783.6327	18447.1875
2786.1945	18491.4875
2788.75471	18463.1875
2791.31335	18442.7875
2793.87041	18445.2875
2796.42589	18394.3875
2798.97979	18412.6875
2801.53212	18356.5875
2804.08288	18349.8875
2806.63206	18282.5875
2809.17967	18278.0875
2811.72571	18220.7875
2814.27018	18219.7875
2816.81308	18167.5875
2819.35442	18159.9875
2821.89419	18123.6875
2824.43239	18136.6875
2826.96904	18144.2875
2829.50412	18144.4875
2832.03763	18101.2875
2834.56959	18102.4875
2837.1	18067.3875
2839.62884	18101.4875
2842.15613	18092.1875
2844.68186	18168.9875
2847.20604	18175.0875
2849.72867	18197.5875
2852.24974	18173.7875
2854.76927	18223.7875
2857.28724	18216.5875
2859.80367	18205.8875
2862.31855	18157.8875
2864.83189	18089.9875
2867.34368	18108.6875
2869.85393	18091.9875
2872.36264	18059.2875
2874.8698	18097.8875
2877.37543	18029.9875
2879.87952	18050.5875
2882.38207	18065.6875
2884.88308	18066.9875
2887.38256	18101.0875
2889.88051	18118.5875
2892.37692	18117.9875
2894.8718	18131.7875
2897.36515	18151.6875
2899.85698	18155.0875
2902.34727	18197.3875
2904.83604	18218.6875
2907.32328	18247.8875
2909.809	18266.0875
2912.29319	18290.1875
2914.77587	18281.8875
2917.25702	18289.8875
2919.73665	18268.1875
2922.21476	18250.9875
2924.69136	18231.7875
2927.16644	18263.4875
2929.64	18216.8875
2932.11205	18202.9875
2934.58258	18184.0875
2937.05161	18198.1875
2939.51912	18191.1875
2941.98513	18185.5875
2944.44962	18126.7875
2946.91261	18096.6875
2949.37409	18052.7875
2951.83407	18065.6875
2954.29254	18077.6875
2956.74951	18030.8875
2959.20498	18024.8875
2961.65895	18003.3875
2964.11142	18031.4875
2966.56239	17966.1875
2969.01186	17972.8875
2971.45984	17948.2875
2973.90632	17964.5875
2976.35131	17950.5875
2978.7948	17921.0875
2981.23681	17874.3875
2983.67732	17813.9875
2986.11635	17794.9875
2988.55388	17722.0875
2990.98993	17695.2875
2993.4245	17638.7875
2995.85758	17611.9875
2998.28917	17534.5875
3000.71928	17523.3875
3003.14791	17514.4875
3005.57506	17509.4875
3008.00073	17454.4875
3010.42493	17358.8875
3012.84764	17403.8875
3015.26888	17391.9875
3017.68865	17335.0875
3020.10694	17336.7875
3022.52376	17286.0875
3024.9391	17256.2875
3027.35298	17265.6875
3029.76539	17277.7875
3032.17632	17220.3875
3034.5858	17200.0875
3036.9938	17225.7875
3039.40034	17215.8875
3041.80542	17234.4875
3044.20903	17201.0875
3046.61118	17187.9875
3049.01187	17149.7875
3051.4111	17167.1875
3053.80888	17097.8875
3056.20519	17081.6875
3058.60005	17071.8875
3060.99345	16990.3875
3063.3854	16980.4875
3065.7759	16928.4875
3068.16494	16858.8875
3070.55254	16798.4875
3072.93868	16784.0875
3075.32338	16700.8875
3077.70662	16706.6875
3080.08842	16661.0875
3082.46878	16654.8875
3084.84769	16600.8875
3087.22515	16619.0875
3089.60118	16589.2875
3091.97576	16591.6875
3094.3489	16615.3875
3096.72061	16563.1875
3099.09087	16579.9875
3101.4597	16571.2875
3103.82709	16597.6875
3106.19305	16564.5875
3108.55757	16523.6875
3110.92066	16487.0875
3113.28232	16495.2875
3115.64255	16470.7875
3118.00134	16418.5875
3120.35871	16408.4875
3122.71466	16373.0875
3125.06917	16313.6875
3127.42226	16282.9875
3129.77393	16267.5875
3132.12417	16256.4875
3134.47299	16264.9875
3136.82039	16220.6875
3139.16636	16237.2875
3141.51092	16212.2875
3143.85406	16185.2875
3146.19579	16227.8875
3148.53609	16177.9875
3150.87499	16225.4875
3153.21246	16234.0875
3155.54853	16213.7875
3157.88318	16238.0875
3160.21642	16233.3875
3162.54826	16244.7875
3164.87868	16239.3875
3167.2077	16258.9875
3169.5353	16226.4875
3171.86151	16244.5875
3174.18631	16257.2875
3176.5097	16210.2875
3178.83169	16206.0875
3181.15228	16193.3875
3183.47147	16156.7875
3185.78926	16153.7875
3188.10565	16117.0875
3190.42065	16101.5875
3192.73424	16115.8875
3195.04645	16097.7875
3197.35725	16028.8875
3199.66667	16061.1875
3201.97469	16055.8875
3204.28132	16078.6875
3206.58656	16069.7875
3208.8904	16061.1875
3211.19287	16075.7875
3213.49394	16093.5875
3215.79363	16090.7875
3218.09193	16070.7875
3220.38884	16061.9875
3222.68438	16083.9875
3224.97853	16070.6875
3227.2713	16037.8875
3229.56269	16028.3875
3231.8527	16057.7875
3234.14133	16023.3875
3236.42858	15967.1875
3238.71446	15998.0875
3240.99896	15947.4875
3243.28209	15939.0875
3245.56384	15913.0875
3247.84423	15920.5875
3250.12324	15889.0875
3252.40088	15856.1875
3254.67715	15845.5875
3256.95205	15840.8875
3259.22558	15869.8875
3261.49775	15837.4875
3263.76855	15793.4875
3266.03799	15752.5875
3268.30606	15753.2875
3270.57277	15686.0875
3272.83812	15678.0875
3275.10211	15640.9875
3277.36474	15636.8875
3279.62601	15646.2875
3281.88593	15627.9875
3284.14448	15623.8875
3286.40168	15657.1875
3288.65753	15665.3875
3290.91202	15627.6875
3293.16516	15635.0875
3295.41695	15569.6875
3297.66738	15453.0875
3299.91647	15403.2875
3302.16421	15316.5875
3304.4106	15232.2875
3306.65564	15143.1875
3308.89933	15052.3875
3311.14169	14931.3875
3313.38269	14822.6875
3315.62236	14745.0875
3317.86068	14589.2875
3320.09766	14498.7875
3322.3333	14420.4875
3324.5676	14341.1875
3326.80056	14107.9875
3329.03219	14028.9875
3331.26248	5.2875
3333.49143	-0.2125
3335.71905	-0.1125
