Data from AgNPs_FTO_APTES_UA_5uM_CRN_2uM_R6G_10uM_NaF_0.1M_Addition_RamanShift__15__11-14-26-630.txt Node

Date: Mon Feb 07 11:14:26 GMT 2022
User: TCL
Spectrometer: QEP01345
Trigger mode: 4
Integration Time (sec): 7.000000E0
Scans to average: 10
Electric dark correction enabled: true
Nonlinearity correction enabled: false
Boxcar width: 0
XAxis mode: Raman Shifts
Number of Pixels in Spectrum: 1044
>>>>>Begin Spectral Data<<<<<
46.04893	-0.7125
50.45542	-2.1125
54.85868	0.6875
59.25871	0.1875
63.6555	106.2875
68.04907	110.4875
72.43941	116.1875
76.82654	117.6875
81.21044	122.8875
85.59113	132.2875
89.96862	133.2875
94.34289	137.0875
98.71396	138.6875
103.08183	146.9875
107.4465	149.3875
111.80798	152.3875
116.16626	157.2875
120.52136	167.1875
124.87327	175.4875
129.222	181.9875
133.56755	199.5875
137.90993	219.2875
142.24913	233.9875
146.58517	269.7875
150.91804	308.9875
155.24774	384.6875
159.57429	476.4875
163.89768	613.0875
168.21792	834.3875
172.53501	1129.3875
176.84895	1581.3875
181.15975	2228.0875
185.46741	3129.6875
189.77193	4324.6875
194.07331	5790.7875
198.37157	7448.0875
202.6667	9199.6875
206.9587	10978.9875
211.24758	12682.1875
215.53334	14415.7875
219.81599	16237.8875
224.09553	18281.0875
228.37195	20502.0875
232.64527	22920.4875
236.91549	25464.8875
241.18261	27995.4875
245.44663	30398.0875
249.70755	32601.5875
253.96539	34437.1875
258.22014	36089.3875
262.4718	37405.6875
266.72039	38307.6875
270.96589	38863.1875
275.20832	38980.5875
279.44768	38772.0875
283.68397	38485.6875
287.91719	38174.0875
292.14735	38080.3875
296.37445	38018.0875
300.59849	38066.2875
304.81948	38290.4875
309.03742	38197.5875
313.25231	37820.3875
317.46415	37076.0875
321.67296	36001.8875
325.87872	35110.1875
330.08145	34628.8875
334.28114	34544.2875
338.47781	34809.9875
342.67145	35138.6875
346.86207	35644.6875
351.04966	36322.1875
355.23424	37009.9875
359.4158	37623.2875
363.59435	38128.3875
367.76989	38446.8875
371.94243	38682.1875
376.11196	38822.7875
380.27849	38889.7875
384.44203	39043.1875
388.60257	39308.1875
392.76012	39755.6875
396.91468	40276.2875
401.06626	40949.3875
405.21485	41402.6875
409.36047	41222.6875
413.50311	40735.8875
417.64277	40402.2875
421.77947	40455.9875
425.9132	40565.2875
430.04396	40748.9875
434.17176	40816.9875
438.2966	40924.5875
442.41849	41308.9875
446.53742	42115.1875
450.6534	43127.3875
454.76644	43884.3875
458.87653	44256.0875
462.98368	44143.9875
467.08789	43803.2875
471.18916	43342.7875
475.2875	42909.7875
479.38291	42786.0875
483.4754	42779.8875
487.56496	42524.5875
491.6516	41969.4875
495.73531	41430.9875
499.81612	40985.3875
503.89401	41123.1875
507.96899	41324.2875
512.04106	41326.5875
516.11023	40934.6875
520.1765	40398.8875
524.23987	39739.3875
528.30034	39156.4875
532.35792	38708.9875
536.41261	38264.8875
540.46441	37882.6875
544.51333	37907.6875
548.55936	38430.4875
552.60252	39341.4875
556.64279	40366.1875
560.6802	41203.2875
564.71473	41741.4875
568.7464	42632.7875
572.7752	44092.0875
576.80114	45711.9875
580.82422	47164.4875
584.84444	48738.3875
588.86181	50078.9875
592.87633	50749.1875
596.888	49764.1875
600.89682	47862.9875
604.9028	47853.8875
608.90594	50723.5875
612.90624	53947.1875
616.90371	50678.6875
620.89834	43037.0875
624.89015	39556.1875
628.87913	39179.0875
632.86528	39470.9875
636.84862	39557.6875
640.82913	38991.3875
644.80683	38021.4875
648.78172	37326.4875
652.75379	37235.6875
656.72306	37653.8875
660.68952	38161.5875
664.65319	37978.4875
668.61405	37327.3875
672.57211	37261.0875
676.52738	37397.1875
680.47986	37313.4875
684.42955	37021.5875
688.37646	36827.8875
692.32058	37080.5875
696.26192	37665.6875
700.20048	38260.2875
704.13626	38657.8875
708.06928	38739.8875
711.99952	38579.9875
715.927	38537.5875
719.85171	38641.5875
723.77365	38454.7875
727.69284	37792.0875
731.60928	37208.4875
735.52295	36906.1875
739.43388	36862.4875
743.34206	36965.3875
747.24749	37183.5875
751.15017	37641.3875
755.05012	38342.2875
758.94733	39456.8875
762.8418	41401.7875
766.73354	44192.5875
770.62254	46813.3875
774.50882	47018.7875
778.39237	44940.3875
782.27321	42105.0875
786.15132	39738.7875
790.02671	38077.4875
793.89938	37278.9875
797.76935	36980.1875
801.6366	36834.1875
805.50115	36746.3875
809.36299	36637.2875
813.22213	36313.9875
817.07857	36145.7875
820.93231	35990.9875
824.78336	35832.1875
828.63172	35603.6875
832.47738	35492.9875
836.32036	35390.1875
840.16066	35430.3875
843.99827	35488.0875
847.8332	35458.4875
851.66546	35447.8875
855.49504	35514.0875
859.32195	35535.1875
863.1462	35405.8875
866.96777	35350.2875
870.78668	35341.7875
874.60293	35298.0875
878.41652	35310.9875
882.22745	35413.7875
886.03573	35495.0875
889.84136	35534.6875
893.64433	35428.4875
897.44466	35406.4875
901.24235	35294.2875
905.0374	35167.1875
908.8298	35091.3875
912.61957	35119.3875
916.40671	35424.9875
920.19121	35995.4875
923.97308	36411.4875
927.75233	36506.8875
931.52895	36071.8875
935.30295	35483.2875
939.07433	34788.5875
942.84309	34272.6875
946.60924	33996.9875
950.37278	33872.0875
954.13371	33883.3875
957.89203	33832.0875
961.64774	33866.8875
965.40086	33900.4875
969.15137	33861.2875
972.89929	33743.4875
976.64461	33583.1875
980.38733	33562.1875
984.12747	33571.3875
987.86502	33775.2875
991.59999	33944.6875
995.33237	34242.2875
999.06217	34739.7875
1002.78939	35378.3875
1006.51404	35994.6875
1010.23611	36558.8875
1013.95561	37038.0875
1017.67255	37144.1875
1021.38692	36745.1875
1025.09872	36142.7875
1028.80796	35755.0875
1032.51465	35920.2875
1036.21877	36304.0875
1039.92035	36486.0875
1043.61937	36488.0875
1047.31584	36308.9875
1051.00976	36151.3875
1054.70114	36245.0875
1058.38998	36462.5875
1062.07627	36826.2875
1065.76003	37417.4875
1069.44126	37974.1875
1073.11995	38583.4875
1076.79611	39210.6875
1080.46974	39504.7875
1084.14085	39809.0875
1087.80943	40236.8875
1091.47549	40743.7875
1095.13903	41014.3875
1098.80005	40536.6875
1102.45857	39495.0875
1106.11456	38499.7875
1109.76805	37963.1875
1113.41903	37780.3875
1117.06751	37822.9875
1120.71348	38101.0875
1124.35696	38474.0875
1127.99793	38913.0875
1131.63641	39246.4875
1135.2724	39200.8875
1138.90589	39131.4875
1142.5369	39237.6875
1146.16542	39474.6875
1149.79145	39801.4875
1153.415	40307.7875
1157.03607	41057.1875
1160.65467	42337.6875
1164.27079	44485.5875
1167.88443	47038.0875
1171.49561	49673.6875
1175.10432	52694.4875
1178.71056	56618.9875
1182.31434	60250.6875
1185.91565	62253.3875
1189.51451	62336.2875
1193.11091	61123.3875
1196.70485	59018.1875
1200.29634	56735.4875
1203.88538	55156.1875
1207.47197	54557.4875
1211.05612	54130.2875
1214.63782	53184.3875
1218.21708	51604.3875
1221.79391	49806.5875
1225.36829	48491.6875
1228.94024	47512.9875
1232.50976	46800.1875
1236.07685	46201.4875
1239.6415	45953.2875
1243.20374	45890.9875
1246.76355	46171.7875
1250.32093	46875.6875
1253.8759	47893.7875
1257.42845	49239.5875
1260.97859	50774.8875
1264.52631	52338.3875
1268.07163	53878.0875
1271.61453	55489.4875
1275.15503	57157.9875
1278.69312	58986.4875
1282.22882	60771.5875
1285.76211	62864.0875
1289.29301	65416.0875
1292.82151	68621.3875
1296.34761	72294.3875
1299.87133	76632.2875
1303.39266	81147.3875
1306.9116	85181.2875
1310.42815	87872.7875
1313.94233	88836.5875
1317.45412	88214.2875
1320.96354	87083.7875
1324.47058	86814.1875
1327.97525	86832.0875
1331.47754	87120.8875
1334.97747	86951.1875
1338.47502	86280.2875
1341.97022	85253.0875
1345.46305	83835.8875
1348.95352	82326.4875
1352.44163	81042.2875
1355.92738	80940.9875
1359.41078	82557.7875
1362.89183	84441.4875
1366.37053	83406.7875
1369.84688	77842.4875
1373.32088	70404.3875
1376.79254	64849.0875
1380.26186	62811.8875
1383.72883	62897.7875
1387.19347	63101.9875
1390.65578	62657.0875
1394.11575	62321.7875
1397.57339	62920.2875
1401.0287	64202.1875
1404.48168	65253.5875
1407.93234	65286.4875
1411.38068	63831.6875
1414.82669	61196.7875
1418.27039	58120.3875
1421.71177	55288.7875
1425.15083	53123.4875
1428.58758	52220.9875
1432.02203	52683.7875
1435.45416	54215.4875
1438.88399	56019.7875
1442.31151	57509.9875
1445.73673	58409.3875
1449.15965	59198.1875
1452.58027	59510.1875
1455.9986	59549.2875
1459.41463	59852.3875
1462.82837	60692.6875
1466.23982	61591.4875
1469.64898	62572.5875
1473.05586	62960.6875
1476.46045	62704.0875
1479.86276	62272.1875
1483.26279	61659.0875
1486.66054	61395.3875
1490.05602	61678.9875
1493.44922	62251.8875
1496.84016	63252.2875
1500.22882	64633.8875
1503.61521	66600.0875
1506.99934	68682.1875
1510.38121	70262.5875
1513.76081	70590.5875
1517.13816	69577.7875
1520.51324	67863.9875
1523.88607	66581.2875
1527.25665	66095.2875
1530.62498	65998.9875
1533.99105	65633.6875
1537.35488	64746.5875
1540.71647	63117.8875
1544.07581	61131.0875
1547.4329	59052.3875
1550.78776	57397.4875
1554.14038	56264.4875
1557.49077	55597.4875
1560.83892	55326.4875
1564.18484	55319.6875
1567.52853	55515.4875
1570.86999	56015.0875
1574.20922	57038.7875
1577.54624	58235.6875
1580.88103	58822.5875
1584.2136	59632.6875
1587.54395	61692.7875
1590.87208	64899.0875
1594.19801	68757.0875
1597.52172	71938.4875
1600.84321	72051.5875
1604.16251	68226.3875
1607.47959	62539.2875
1610.79447	56951.0875
1614.10715	51876.5875
1617.41763	47699.7875
1620.7259	44828.1875
1624.03199	43325.0875
1627.33587	43294.9875
1630.63757	44613.4875
1633.93707	47756.3875
1637.23439	53000.0875
1640.52951	60607.6875
1643.82246	69642.8875
1647.11321	76838.1875
1650.40179	78218.0875
1653.68819	72466.0875
1656.97241	62606.3875
1660.25446	52847.9875
1663.53433	45421.8875
1666.81203	40491.1875
1670.08756	37396.2875
1673.36092	35497.0875
1676.63211	34249.7875
1679.90115	33392.6875
1683.16801	32793.9875
1686.43272	32261.3875
1689.69527	31886.5875
1692.95567	31611.2875
1696.2139	31513.0875
1699.46999	31267.9875
1702.72392	31132.0875
1705.97571	31042.8875
1709.22535	30897.5875
1712.47284	30831.1875
1715.71819	30742.1875
1718.96139	30692.5875
1722.20246	30512.9875
1725.44139	30411.7875
1728.67818	30202.5875
1731.91284	29987.5875
1735.14537	29819.6875
1738.37576	29678.8875
1741.60403	29551.8875
1744.83017	29430.7875
1748.05418	29281.2875
1751.27607	29178.5875
1754.49584	29172.7875
1757.71349	29124.0875
1760.92903	29040.0875
1764.14244	29051.2875
1767.35375	29024.7875
1770.56294	28945.8875
1773.77002	28857.6875
1776.97499	28782.3875
1780.17785	28719.3875
1783.37861	28689.3875
1786.57727	28585.6875
1789.77382	28574.2875
1792.96828	28507.0875
1796.16064	28374.6875
1799.3509	28382.9875
1802.53907	28319.5875
1805.72514	28209.9875
1808.90913	28148.1875
1812.09102	28079.5875
1815.27083	28054.2875
1818.44856	28026.1875
1821.6242	27939.8875
1824.79776	27966.1875
1827.96924	27948.6875
1831.13864	27896.9875
1834.30597	27900.5875
1837.47122	27906.8875
1840.6344	27916.8875
1843.7955	27937.7875
1846.95454	27944.7875
1850.11151	27934.6875
1853.26642	27879.9875
1856.41926	27843.1875
1859.57004	27831.5875
1862.71876	27808.4875
1865.86542	27754.8875
1869.01003	27679.5875
1872.15258	27643.8875
1875.29308	27552.8875
1878.43152	27503.5875
1881.56792	27533.8875
1884.70227	27470.9875
1887.83457	27378.0875
1890.96482	27334.1875
1894.09304	27314.1875
1897.21921	27233.8875
1900.34335	27212.2875
1903.46544	27124.7875
1906.58551	27115.1875
1909.70353	27070.8875
1912.81953	26975.8875
1915.93349	26946.0875
1919.04543	26843.7875
1922.15534	26773.8875
1925.26322	26696.3875
1928.36908	26670.8875
1931.47292	26590.4875
1934.57473	26518.8875
1937.67453	26393.9875
1940.77232	26361.3875
1943.86808	26230.5875
1946.96184	26214.6875
1950.05358	26115.2875
1953.14331	26017.0875
1956.23103	25958.2875
1959.31675	25835.3875
1962.40046	25822.3875
1965.48217	25726.2875
1968.56188	25635.3875
1971.63959	25528.6875
1974.7153	25441.3875
1977.78901	25362.6875
1980.86073	25281.7875
1983.93046	25199.6875
1986.99819	25118.2875
1990.06394	25056.4875
1993.1277	25013.5875
1996.18947	24863.9875
1999.24925	24831.5875
2002.30706	24731.3875
2005.36288	24623.5875
2008.41672	24572.1875
2011.46859	24500.2875
2014.51848	24417.9875
2017.56639	24399.6875
2020.61233	24328.3875
2023.6563	24242.0875
2026.6983	24203.5875
2029.73833	24156.3875
2032.7764	24067.2875
2035.8125	24031.8875
2038.84664	23960.6875
2041.87881	23915.7875
2044.90903	23881.3875
2047.93729	23843.4875
2050.96359	23834.6875
2053.98794	23799.9875
2057.01034	23724.3875
2060.03078	23741.0875
2063.04927	23708.8875
2066.06582	23712.5875
2069.08042	23647.8875
2072.09307	23634.9875
2075.10378	23615.7875
2078.11255	23576.0875
2081.11938	23608.1875
2084.12426	23552.7875
2087.12722	23522.9875
2090.12824	23546.9875
2093.12732	23504.7875
2096.12447	23522.5875
2099.11969	23561.4875
2102.11299	23577.6875
2105.10435	23543.2875
2108.09379	23524.6875
2111.08131	23489.4875
2114.0669	23544.3875
2117.05057	23551.7875
2120.03233	23550.3875
2123.01216	23558.6875
2125.99008	23575.6875
2128.96609	23641.7875
2131.94018	23602.9875
2134.91236	23612.9875
2137.88263	23638.7875
2140.851	23613.1875
2143.81746	23651.9875
2146.78201	23629.4875
2149.74466	23610.6875
2152.7054	23599.2875
2155.66425	23564.7875
2158.6212	23514.7875
2161.57625	23504.0875
2164.52941	23478.7875
2167.48067	23490.2875
2170.43004	23542.8875
2173.37752	23494.2875
2176.32311	23504.4875
2179.26681	23481.7875
2182.20863	23434.3875
2185.14856	23473.9875
2188.08661	23472.8875
2191.02278	23463.9875
2193.95707	23402.8875
2196.88948	23412.9875
2199.82001	23371.8875
2202.74867	23321.9875
2205.67545	23293.2875
2208.60037	23279.9875
2211.52341	23206.6875
2214.44458	23196.2875
2217.36388	23136.9875
2220.28132	23076.6875
2223.1969	23020.4875
2226.11061	22999.2875
2229.02246	22952.7875
2231.93245	22916.4875
2234.84058	22881.5875
2237.74686	22822.4875
2240.65128	22833.5875
2243.55385	22772.2875
2246.45456	22743.7875
2249.35343	22697.1875
2252.25044	22620.1875
2255.14561	22612.2875
2258.03893	22557.2875
2260.93041	22488.7875
2263.82004	22444.7875
2266.70783	22377.5875
2269.59378	22279.3875
2272.4779	22235.4875
2275.36017	22133.7875
2278.24061	22137.5875
2281.11922	22055.2875
2283.996	22036.2875
2286.87094	22040.8875
2289.74405	21978.1875
2292.61534	21966.9875
2295.4848	21964.8875
2298.35243	21914.2875
2301.21824	21926.6875
2304.08223	21929.5875
2306.94439	21888.6875
2309.80474	21936.8875
2312.66327	21924.5875
2315.51999	21864.7875
2318.37489	21834.0875
2321.22797	21770.3875
2324.07925	21768.8875
2326.92871	21723.0875
2329.77637	21653.0875
2332.62222	21657.6875
2335.46626	21659.1875
2338.3085	21656.9875
2341.14893	21588.6875
2343.98756	21637.3875
2346.8244	21643.0875
2349.65943	21626.2875
2352.49267	21596.7875
2355.32411	21605.0875
2358.15376	21569.0875
2360.98161	21555.2875
2363.80768	21535.9875
2366.63195	21559.4875
2369.45444	21539.1875
2372.27514	21508.4875
2375.09405	21493.5875
2377.91118	21426.0875
2380.72652	21363.2875
2383.54009	21276.4875
2386.35187	21274.6875
2389.16188	21193.4875
2391.97011	21165.8875
2394.77657	21074.9875
2397.58125	21036.6875
2400.38416	21008.0875
2403.18529	21001.7875
2405.98466	20992.5875
2408.78226	20950.5875
2411.57809	20936.6875
2414.37216	20932.6875
2417.16446	20942.5875
2419.955	20889.4875
2422.74378	20827.1875
2425.5308	20788.2875
2428.31606	20819.8875
2431.09956	20803.7875
2433.88131	20801.7875
2436.6613	20822.6875
2439.43954	20803.1875
2442.21603	20787.9875
2444.99077	20737.5875
2447.76377	20729.9875
2450.53501	20727.1875
2453.30451	20696.9875
2456.07226	20665.9875
2458.83827	20670.2875
2461.60254	20678.7875
2464.36507	20655.0875
2467.12586	20609.4875
2469.88492	20618.6875
2472.64224	20620.9875
2475.39782	20666.4875
2478.15167	20646.2875
2480.90379	20643.3875
2483.65417	20640.2875
2486.40283	20657.8875
2489.14976	20667.0875
2491.89497	20619.7875
2494.63845	20646.8875
2497.3802	20626.5875
2500.12024	20609.6875
2502.85855	20601.2875
2505.59514	20551.6875
2508.33002	20541.0875
2511.06318	20533.5875
2513.79462	20499.2875
2516.52435	20426.9875
2519.25237	20472.4875
2521.97867	20425.0875
2524.70327	20408.1875
2527.42616	20410.8875
2530.14734	20406.5875
2532.86681	20421.4875
2535.58458	20362.4875
2538.30065	20336.3875
2541.01501	20349.8875
2543.72768	20324.9875
2546.43864	20278.9875
2549.14791	20256.9875
2551.85548	20225.3875
2554.56136	20174.7875
2557.26554	20155.2875
2559.96803	20133.3875
2562.66883	20129.0875
2565.36794	20091.6875
2568.06536	20094.6875
2570.7611	20069.9875
2573.45514	20041.8875
2576.14751	20045.3875
2578.83819	19976.7875
2581.52719	19999.2875
2584.21451	19978.4875
2586.90015	19954.6875
2589.58411	19909.9875
2592.2664	19879.0875
2594.94701	19874.2875
2597.62594	19865.3875
2600.30321	19822.9875
2602.9788	19816.4875
2605.65273	19804.5875
2608.32498	19830.1875
2610.99557	19833.0875
2613.66449	19850.5875
2616.33175	19806.7875
2618.99734	19797.3875
2621.66128	19756.5875
2624.32355	19747.7875
2626.98416	19756.2875
2629.64311	19727.6875
2632.30041	19725.7875
2634.95605	19660.7875
2637.61004	19664.0875
2640.26238	19639.2875
2642.91306	19621.7875
2645.56209	19610.2875
2648.20948	19641.9875
2650.85521	19641.5875
2653.4993	19648.9875
2656.14175	19612.0875
2658.78255	19657.1875
2661.42171	19662.0875
2664.05923	19692.5875
2666.6951	19717.8875
2669.32934	19691.4875
2671.96194	19704.6875
2674.59291	19749.8875
2677.22224	19745.3875
2679.84993	19757.7875
2682.476	19706.6875
2685.10043	19693.4875
2687.72324	19645.4875
2690.34441	19654.0875
2692.96396	19635.1875
2695.58188	19686.4875
2698.19818	19624.1875
2700.81285	19638.6875
2703.4259	19651.2875
2706.03733	19671.8875
2708.64714	19667.7875
2711.25533	19652.6875
2713.86191	19656.9875
2716.46687	19690.8875
2719.07021	19688.1875
2721.67194	19716.9875
2724.27206	19712.0875
2726.87057	19742.8875
2729.46747	19745.9875
2732.06276	19707.6875
2734.65644	19728.4875
2737.24852	19734.8875
2739.83899	19699.0875
2742.42786	19688.2875
2745.01513	19675.8875
2747.60079	19691.6875
2750.18486	19636.8875
2752.76733	19628.7875
2755.3482	19605.3875
2757.92747	19585.0875
2760.50515	19588.1875
2763.08123	19541.8875
2765.65573	19568.6875
2768.22863	19512.2875
2770.79994	19515.1875
2773.36967	19525.4875
2775.9378	19507.9875
2778.50435	19564.9875
2781.06932	19524.4875
2783.6327	19520.4875
2786.1945	19529.3875
2788.75471	19544.1875
2791.31335	19465.6875
2793.87041	19447.5875
2796.42589	19356.4875
2798.97979	19401.5875
2801.53212	19316.4875
2804.08288	19309.5875
2806.63206	19235.3875
2809.17967	19230.5875
2811.72571	19199.5875
2814.27018	19141.3875
2816.81308	19103.2875
2819.35442	19065.9875
2821.89419	19045.3875
2824.43239	19028.1875
2826.96904	18982.0875
2829.50412	19009.5875
2832.03763	18919.6875
2834.56959	18919.6875
2837.1	18890.3875
2839.62884	18923.0875
2842.15613	18895.1875
2844.68186	18925.4875
2847.20604	18931.1875
2849.72867	18931.1875
2852.24974	18943.5875
2854.76927	18911.6875
2857.28724	18883.2875
2859.80367	18860.0875
2862.31855	18837.1875
2864.83189	18784.0875
2867.34368	18741.4875
2869.85393	18748.5875
2872.36264	18672.7875
2874.8698	18671.9875
2877.37543	18671.8875
2879.87952	18694.5875
2882.38207	18665.6875
2884.88308	18679.0875
2887.38256	18660.8875
2889.88051	18649.8875
2892.37692	18696.2875
2894.8718	18666.7875
2897.36515	18669.8875
2899.85698	18684.5875
2902.34727	18723.0875
2904.83604	18742.0875
2907.32328	18789.6875
2909.809	18732.9875
2912.29319	18745.1875
2914.77587	18746.9875
2917.25702	18740.2875
2919.73665	18720.9875
2922.21476	18730.6875
2924.69136	18698.0875
2927.16644	18690.6875
2929.64	18677.6875
2932.11205	18634.4875
2934.58258	18582.1875
2937.05161	18581.6875
2939.51912	18608.9875
2941.98513	18600.3875
2944.44962	18513.9875
2946.91261	18427.4875
2949.37409	18466.5875
2951.83407	18409.0875
2954.29254	18418.1875
2956.74951	18402.2875
2959.20498	18358.4875
2961.65895	18332.5875
2964.11142	18331.5875
2966.56239	18316.4875
2969.01186	18258.2875
2971.45984	18219.4875
2973.90632	18260.0875
2976.35131	18181.1875
2978.7948	18128.4875
2981.23681	18076.3875
2983.67732	18095.8875
2986.11635	18039.7875
2988.55388	17997.6875
2990.98993	17926.0875
2993.4245	17862.6875
2995.85758	17833.9875
2998.28917	17789.1875
3000.71928	17742.0875
3003.14791	17688.8875
3005.57506	17670.3875
3008.00073	17593.6875
3010.42493	17618.1875
3012.84764	17554.3875
3015.26888	17555.3875
3017.68865	17479.9875
3020.10694	17486.4875
3022.52376	17398.9875
3024.9391	17407.5875
3027.35298	17376.3875
3029.76539	17368.8875
3032.17632	17340.7875
3034.5858	17323.9875
3036.9938	17284.5875
3039.40034	17268.3875
3041.80542	17237.0875
3044.20903	17285.4875
3046.61118	17230.2875
3049.01187	17198.1875
3051.4111	17184.6875
3053.80888	17176.9875
3056.20519	17104.5875
3058.60005	17057.8875
3060.99345	16985.9875
3063.3854	16927.7875
3065.7759	16869.6875
3068.16494	16822.6875
3070.55254	16752.4875
3072.93868	16734.5875
3075.32338	16690.5875
3077.70662	16639.0875
3080.08842	16592.1875
3082.46878	16515.4875
3084.84769	16533.6875
3087.22515	16497.0875
3089.60118	16528.0875
3091.97576	16483.1875
3094.3489	16423.8875
3096.72061	16470.1875
3099.09087	16454.6875
3101.4597	16440.0875
3103.82709	16452.0875
3106.19305	16397.2875
3108.55757	16375.6875
3110.92066	16314.2875
3113.28232	16301.5875
3115.64255	16236.3875
3118.00134	16221.5875
3120.35871	16177.4875
3122.71466	16147.0875
3125.06917	16071.6875
3127.42226	16037.0875
3129.77393	16042.9875
3132.12417	15965.3875
3134.47299	15993.2875
3136.82039	15974.2875
3139.16636	15957.8875
3141.51092	15925.7875
3143.85406	15944.7875
3146.19579	15915.5875
3148.53609	15911.3875
3150.87499	15908.8875
3153.21246	15889.3875
3155.54853	15927.9875
3157.88318	15885.2875
3160.21642	15886.1875
3162.54826	15891.4875
3164.87868	15866.7875
3167.2077	15882.7875
3169.5353	15871.0875
3171.86151	15867.7875
3174.18631	15849.3875
3176.5097	15829.8875
3178.83169	15788.8875
3181.15228	15807.7875
3183.47147	15736.0875
3185.78926	15714.5875
3188.10565	15661.2875
3190.42065	15630.2875
3192.73424	15640.4875
3195.04645	15604.8875
3197.35725	15601.2875
3199.66667	15588.0875
3201.97469	15600.9875
3204.28132	15563.3875
3206.58656	15569.6875
3208.8904	15551.5875
3211.19287	15560.4875
3213.49394	15548.6875
3215.79363	15569.7875
3218.09193	15548.9875
3220.38884	15522.6875
3222.68438	15554.1875
3224.97853	15516.8875
3227.2713	15512.4875
3229.56269	15484.1875
3231.8527	15477.0875
3234.14133	15435.4875
3236.42858	15389.3875
3238.71446	15378.1875
3240.99896	15366.1875
3243.28209	15320.7875
3245.56384	15320.3875
3247.84423	15311.9875
3250.12324	15249.2875
3252.40088	15253.7875
3254.67715	15215.0875
3256.95205	15184.9875
3259.22558	15182.8875
3261.49775	15158.7875
3263.76855	15123.7875
3266.03799	15082.0875
3268.30606	15033.9875
3270.57277	15020.9875
3272.83812	15007.7875
3275.10211	14946.9875
3277.36474	14932.4875
3279.62601	14921.2875
3281.88593	14887.0875
3284.14448	14884.8875
3286.40168	14883.0875
3288.65753	14898.8875
3290.91202	14863.3875
3293.16516	14835.2875
3295.41695	14799.8875
3297.66738	14717.3875
3299.91647	14632.8875
3302.16421	14513.1875
3304.4106	14444.3875
3306.65564	14342.2875
3308.89933	14232.6875
3311.14169	14115.2875
3313.38269	14016.8875
3315.62236	13912.2875
3317.86068	13787.0875
3320.09766	13655.5875
3322.3333	13571.7875
3324.5676	13489.7875
3326.80056	13279.1875
3329.03219	13195.6875
3331.26248	4.3875
3333.49143	-1.2125
3335.71905	-0.9125
