Data from AgNPs_FTO_APTES_UA_5uM_CRN_0uM_R6G_10uM_NaF_0.1M_Addition_RamanShift__24__10-06-46-551.txt Node

Date: Mon Feb 07 10:06:46 GMT 2022
User: TCL
Spectrometer: QEP01345
Trigger mode: 4
Integration Time (sec): 7.000000E0
Scans to average: 10
Electric dark correction enabled: true
Nonlinearity correction enabled: false
Boxcar width: 0
XAxis mode: Raman Shifts
Number of Pixels in Spectrum: 1044
>>>>>Begin Spectral Data<<<<<
46.04893	-0.2125
50.45542	-0.7125
54.85868	-0.7125
59.25871	0.2875
63.6555	79.7875
68.04907	83.3875
72.43941	88.6875
76.82654	92.0875
81.21044	95.5875
85.59113	96.5875
89.96862	103.9875
94.34289	102.3875
98.71396	107.8875
103.08183	111.1875
107.4465	116.3875
111.80798	117.1875
116.16626	120.6875
120.52136	128.2875
124.87327	134.4875
129.222	144.2875
133.56755	156.1875
137.90993	168.1875
142.24913	181.3875
146.58517	213.9875
150.91804	245.8875
155.24774	296.3875
159.57429	380.2875
163.89768	487.9875
168.21792	666.4875
172.53501	905.5875
176.84895	1278.0875
181.15975	1795.3875
185.46741	2506.3875
189.77193	3442.9875
194.07331	4594.9875
198.37157	5902.8875
202.6667	7275.9875
206.9587	8647.9875
211.24758	10000.6875
215.53334	11386.4875
219.81599	12938.9875
224.09553	14709.2875
228.37195	16675.9875
232.64527	18815.4875
236.91549	21010.6875
241.18261	23073.0875
245.44663	24862.2875
249.70755	26402.5875
253.96539	27801.9875
258.22014	29007.5875
262.4718	30059.0875
266.72039	30843.6875
270.96589	31324.4875
275.20832	31561.7875
279.44768	31525.8875
283.68397	31465.8875
287.91719	31556.4875
292.14735	31700.2875
296.37445	31886.8875
300.59849	32174.5875
304.81948	32643.1875
309.03742	32979.3875
313.25231	32556.3875
317.46415	30949.4875
321.67296	28692.7875
325.87872	26805.4875
330.08145	25835.6875
334.28114	25700.4875
338.47781	25995.3875
342.67145	26506.9875
346.86207	27304.9875
351.04966	28481.6875
355.23424	29767.0875
359.4158	30892.8875
363.59435	31322.1875
367.76989	31381.9875
371.94243	31301.5875
376.11196	31138.5875
380.27849	30960.4875
384.44203	30704.3875
388.60257	30450.6875
392.76012	30491.6875
396.91468	30964.3875
401.06626	31800.6875
405.21485	32542.5875
409.36047	32255.7875
413.50311	31189.5875
417.64277	30156.1875
421.77947	29726.1875
425.9132	29666.2875
430.04396	29693.4875
434.17176	29585.5875
438.2966	29522.6875
442.41849	29748.2875
446.53742	30389.3875
450.6534	31179.2875
454.76644	31844.5875
458.87653	32073.6875
462.98368	32063.4875
467.08789	31839.6875
471.18916	31429.8875
475.2875	30950.3875
479.38291	30756.2875
483.4754	30597.6875
487.56496	30405.1875
491.6516	30191.8875
495.73531	30052.6875
499.81612	30127.2875
503.89401	30416.9875
507.96899	30596.7875
512.04106	30445.1875
516.11023	30021.0875
520.1765	29513.3875
524.23987	28869.3875
528.30034	28194.1875
532.35792	27538.2875
536.41261	26921.4875
540.46441	26374.4875
544.51333	26261.1875
548.55936	26784.9875
552.60252	27871.6875
556.64279	28935.8875
560.6802	29414.5875
564.71473	29916.9875
568.7464	31253.6875
572.7752	32741.2875
576.80114	33089.2875
580.82422	33029.4875
584.84444	33095.5875
588.86181	32536.5875
592.87633	31705.3875
596.888	31492.5875
600.89682	32212.6875
604.9028	35320.0875
608.90594	42878.3875
612.90624	51906.1875
616.90371	49089.3875
620.89834	35561.5875
624.89015	28985.5875
628.87913	27896.3875
632.86528	28084.5875
636.84862	28291.3875
640.82913	27740.6875
644.80683	26352.1875
648.78172	25239.5875
652.75379	25121.2875
656.72306	25890.0875
660.68952	27138.6875
664.65319	27316.4875
668.61405	26469.0875
672.57211	25961.4875
676.52738	25828.2875
680.47986	25681.5875
684.42955	25344.8875
688.37646	25077.9875
692.32058	25109.1875
696.26192	25403.9875
700.20048	25828.0875
704.13626	26321.1875
708.06928	26570.4875
711.99952	26349.4875
715.927	26034.8875
719.85171	25857.4875
723.77365	25661.5875
727.69284	25184.4875
731.60928	24778.8875
735.52295	24555.6875
739.43388	24601.0875
743.34206	24811.6875
747.24749	25093.6875
751.15017	25541.8875
755.05012	26317.2875
758.94733	27759.0875
762.8418	30833.6875
766.73354	36101.1875
770.62254	41399.9875
774.50882	42806.9875
778.39237	39690.3875
782.27321	34363.9875
786.15132	29760.8875
790.02671	27040.3875
793.89938	25612.6875
797.76935	24936.6875
801.6366	24680.5875
805.50115	24489.3875
809.36299	24262.2875
813.22213	24023.5875
817.07857	23960.2875
820.93231	23919.2875
824.78336	23925.8875
828.63172	23970.7875
832.47738	24035.5875
836.32036	24052.4875
840.16066	23964.6875
843.99827	24078.1875
847.8332	24040.6875
851.66546	23881.6875
855.49504	23831.5875
859.32195	23783.3875
863.1462	23511.7875
866.96777	23365.6875
870.78668	23171.7875
874.60293	23115.8875
878.41652	23079.8875
882.22745	23144.1875
886.03573	23269.6875
889.84136	23213.5875
893.64433	23091.8875
897.44466	23009.6875
901.24235	22952.6875
905.0374	22902.2875
908.8298	22761.6875
912.61957	22803.7875
916.40671	23184.0875
920.19121	23801.8875
923.97308	24491.6875
927.75233	24794.9875
931.52895	24726.6875
935.30295	24128.8875
939.07433	23169.7875
942.84309	22397.3875
946.60924	22038.6875
950.37278	21874.8875
954.13371	21675.5875
957.89203	21513.8875
961.64774	21416.2875
965.40086	21307.5875
969.15137	21253.3875
972.89929	21156.3875
976.64461	21100.9875
980.38733	21128.6875
984.12747	21189.5875
987.86502	21395.5875
991.59999	21729.4875
995.33237	22211.2875
999.06217	23145.0875
1002.78939	24357.8875
1006.51404	25334.4875
1010.23611	25967.2875
1013.95561	26247.8875
1017.67255	26277.9875
1021.38692	25898.0875
1025.09872	25777.3875
1028.80796	26227.3875
1032.51465	27351.6875
1036.21877	28398.3875
1039.92035	28478.2875
1043.61937	27784.0875
1047.31584	26696.5875
1051.00976	25539.8875
1054.70114	24952.7875
1058.38998	24880.3875
1062.07627	25083.4875
1065.76003	25381.6875
1069.44126	25953.5875
1073.11995	26734.7875
1076.79611	27314.9875
1080.46974	27489.8875
1084.14085	27720.1875
1087.80943	28363.8875
1091.47549	28803.5875
1095.13903	28632.9875
1098.80005	27768.0875
1102.45857	26409.2875
1106.11456	25208.7875
1109.76805	24668.8875
1113.41903	24701.1875
1117.06751	25095.0875
1120.71348	25752.1875
1124.35696	26615.7875
1127.99793	27505.8875
1131.63641	27889.5875
1135.2724	27334.5875
1138.90589	26588.6875
1142.5369	25968.3875
1146.16542	25577.2875
1149.79145	25494.1875
1153.415	25616.4875
1157.03607	26041.8875
1160.65467	26833.4875
1164.27079	28151.4875
1167.88443	30257.1875
1171.49561	33402.5875
1175.10432	38018.0875
1178.71056	43656.0875
1182.31434	48281.1875
1185.91565	50469.0875
1189.51451	50384.1875
1193.11091	48151.0875
1196.70485	44598.1875
1200.29634	41058.8875
1203.88538	38295.0875
1207.47197	35772.8875
1211.05612	33644.5875
1214.63782	32501.3875
1218.21708	32110.0875
1221.79391	32217.6875
1225.36829	32310.9875
1228.94024	31990.4875
1232.50976	31283.4875
1236.07685	30744.1875
1239.6415	30528.5875
1243.20374	30545.0875
1246.76355	30711.6875
1250.32093	31295.1875
1253.8759	32297.3875
1257.42845	33817.0875
1260.97859	35334.2875
1264.52631	36669.9875
1268.07163	38018.6875
1271.61453	39535.4875
1275.15503	41125.3875
1278.69312	42618.0875
1282.22882	43623.0875
1285.76211	44674.0875
1289.29301	45936.3875
1292.82151	47701.0875
1296.34761	50036.1875
1299.87133	53343.6875
1303.39266	57938.1875
1306.9116	63849.1875
1310.42815	70171.1875
1313.94233	74452.7875
1317.45412	74674.5875
1320.96354	72351.7875
1324.47058	69808.3875
1327.97525	67532.4875
1331.47754	65871.3875
1334.97747	64631.9875
1338.47502	64006.9875
1341.97022	63647.6875
1345.46305	63063.1875
1348.95352	61977.9875
1352.44163	61245.1875
1355.92738	62524.3875
1359.41078	67263.5875
1362.89183	73293.3875
1366.37053	73439.0875
1369.84688	66279.0875
1373.32088	57426.2875
1376.79254	50584.9875
1380.26186	46600.7875
1383.72883	44662.5875
1387.19347	43738.1875
1390.65578	43097.7875
1394.11575	42782.6875
1397.57339	43223.1875
1401.0287	44101.7875
1404.48168	45042.0875
1407.93234	45547.0875
1411.38068	45246.6875
1414.82669	43887.5875
1418.27039	41574.2875
1421.71177	39161.8875
1425.15083	37051.6875
1428.58758	35660.8875
1432.02203	35280.4875
1435.45416	35556.9875
1438.88399	36234.1875
1442.31151	36868.3875
1445.73673	37575.5875
1449.15965	38467.0875
1452.58027	39193.7875
1455.9986	39592.6875
1459.41463	40151.6875
1462.82837	40975.6875
1466.23982	42158.9875
1469.64898	43256.2875
1473.05586	43976.3875
1476.46045	44255.2875
1479.86276	44467.5875
1483.26279	44699.6875
1486.66054	45263.7875
1490.05602	46106.4875
1493.44922	47481.5875
1496.84016	49368.8875
1500.22882	52341.8875
1503.61521	56356.7875
1506.99934	61414.3875
1510.38121	66458.0875
1513.76081	69516.0875
1517.13816	68141.8875
1520.51324	63143.3875
1523.88607	57367.1875
1527.25665	52890.1875
1530.62498	49849.8875
1533.99105	47822.7875
1537.35488	46445.9875
1540.71647	45450.0875
1544.07581	44520.9875
1547.4329	43525.9875
1550.78776	42668.4875
1554.14038	42161.1875
1557.49077	42235.0875
1560.83892	42861.8875
1564.18484	43658.2875
1567.52853	44155.6875
1570.86999	44330.5875
1574.20922	44381.3875
1577.54624	44365.0875
1580.88103	43023.0875
1584.2136	41324.7875
1587.54395	41100.5875
1590.87208	42862.6875
1594.19801	46402.3875
1597.52172	50539.5875
1600.84321	52392.5875
1604.16251	50106.4875
1607.47959	45481.8875
1610.79447	40627.9875
1614.10715	36198.3875
1617.41763	32610.0875
1620.7259	30261.2875
1624.03199	28998.2875
1627.33587	28855.5875
1630.63757	29713.5875
1633.93707	31669.3875
1637.23439	34707.0875
1640.52951	38962.4875
1643.82246	44320.0875
1647.11321	50077.2875
1650.40179	54004.5875
1653.68819	53004.8875
1656.97241	46655.9875
1660.25446	38407.6875
1663.53433	31577.7875
1666.81203	27146.9875
1670.08756	24535.0875
1673.36092	22974.1875
1676.63211	21967.6875
1679.90115	21265.5875
1683.16801	20750.4875
1686.43272	20394.3875
1689.69527	20122.0875
1692.95567	19958.3875
1696.2139	19766.5875
1699.46999	19657.7875
1702.72392	19628.6875
1705.97571	19516.7875
1709.22535	19462.9875
1712.47284	19375.6875
1715.71819	19351.5875
1718.96139	19279.3875
1722.20246	19192.1875
1725.44139	19101.3875
1728.67818	18937.7875
1731.91284	18728.2875
1735.14537	18625.4875
1738.37576	18508.7875
1741.60403	18440.0875
1744.83017	18324.5875
1748.05418	18287.4875
1751.27607	18224.8875
1754.49584	18168.9875
1757.71349	18151.2875
1760.92903	18094.2875
1764.14244	18069.7875
1767.35375	18091.2875
1770.56294	18038.9875
1773.77002	18013.6875
1776.97499	17953.4875
1780.17785	17863.6875
1783.37861	17811.7875
1786.57727	17796.6875
1789.77382	17712.2875
1792.96828	17745.5875
1796.16064	17720.8875
1799.3509	17684.3875
1802.53907	17631.9875
1805.72514	17541.3875
1808.90913	17510.4875
1812.09102	17452.6875
1815.27083	17404.4875
1818.44856	17359.3875
1821.6242	17345.2875
1824.79776	17313.9875
1827.96924	17293.6875
1831.13864	17266.7875
1834.30597	17267.7875
1837.47122	17252.5875
1840.6344	17259.1875
1843.7955	17297.3875
1846.95454	17245.4875
1850.11151	17243.6875
1853.26642	17217.4875
1856.41926	17235.8875
1859.57004	17241.8875
1862.71876	17237.9875
1865.86542	17245.4875
1869.01003	17223.1875
1872.15258	17188.4875
1875.29308	17174.4875
1878.43152	17151.8875
1881.56792	17125.6875
1884.70227	17083.0875
1887.83457	17121.1875
1890.96482	17160.9875
1894.09304	17136.3875
1897.21921	17146.4875
1900.34335	17140.6875
1903.46544	17112.5875
1906.58551	17145.5875
1909.70353	17139.3875
1912.81953	17102.6875
1915.93349	17106.0875
1919.04543	17075.5875
1922.15534	17051.0875
1925.26322	17018.1875
1928.36908	16943.7875
1931.47292	16901.0875
1934.57473	16796.7875
1937.67453	16746.0875
1940.77232	16690.7875
1943.86808	16599.9875
1946.96184	16554.5875
1950.05358	16479.5875
1953.14331	16467.2875
1956.23103	16408.2875
1959.31675	16340.4875
1962.40046	16273.8875
1965.48217	16273.9875
1968.56188	16223.8875
1971.63959	16187.8875
1974.7153	16159.5875
1977.78901	16092.6875
1980.86073	16022.9875
1983.93046	16001.8875
1986.99819	15904.5875
1990.06394	15885.1875
1993.1277	15805.5875
1996.18947	15723.3875
1999.24925	15696.8875
2002.30706	15624.3875
2005.36288	15578.4875
2008.41672	15559.5875
2011.46859	15538.5875
2014.51848	15438.5875
2017.56639	15426.9875
2020.61233	15396.8875
2023.6563	15363.3875
2026.6983	15304.9875
2029.73833	15308.1875
2032.7764	15253.6875
2035.8125	15287.5875
2038.84664	15242.4875
2041.87881	15238.4875
2044.90903	15172.2875
2047.93729	15189.8875
2050.96359	15152.6875
2053.98794	15151.8875
2057.01034	15143.4875
2060.03078	15145.7875
2063.04927	15104.9875
2066.06582	15033.7875
2069.08042	15040.6875
2072.09307	15006.9875
2075.10378	15019.0875
2078.11255	14973.8875
2081.11938	14977.0875
2084.12426	14958.0875
2087.12722	14942.6875
2090.12824	14935.0875
2093.12732	14935.7875
2096.12447	14916.9875
2099.11969	14902.6875
2102.11299	14911.1875
2105.10435	14916.3875
2108.09379	14917.8875
2111.08131	14928.3875
2114.0669	14913.5875
2117.05057	14936.2875
2120.03233	14931.6875
2123.01216	14933.0875
2125.99008	15003.6875
2128.96609	15006.9875
2131.94018	15018.1875
2134.91236	14999.2875
2137.88263	15027.7875
2140.851	15022.3875
2143.81746	15047.1875
2146.78201	15024.5875
2149.74466	15020.6875
2152.7054	15029.5875
2155.66425	15016.8875
2158.6212	14991.7875
2161.57625	15015.6875
2164.52941	14985.5875
2167.48067	14975.3875
2170.43004	14974.1875
2173.37752	14965.8875
2176.32311	14973.3875
2179.26681	14971.4875
2182.20863	14994.4875
2185.14856	14983.1875
2188.08661	14951.2875
2191.02278	14961.4875
2193.95707	14979.5875
2196.88948	14965.2875
2199.82001	14975.3875
2202.74867	14914.8875
2205.67545	14927.9875
2208.60037	14934.0875
2211.52341	14947.2875
2214.44458	14992.1875
2217.36388	14973.5875
2220.28132	14912.5875
2223.1969	14888.4875
2226.11061	14868.1875
2229.02246	14853.6875
2231.93245	14782.1875
2234.84058	14745.0875
2237.74686	14704.5875
2240.65128	14667.5875
2243.55385	14666.5875
2246.45456	14641.4875
2249.35343	14613.6875
2252.25044	14587.4875
2255.14561	14599.5875
2258.03893	14567.7875
2260.93041	14582.7875
2263.82004	14561.0875
2266.70783	14542.7875
2269.59378	14464.5875
2272.4779	14423.1875
2275.36017	14390.0875
2278.24061	14392.2875
2281.11922	14340.4875
2283.996	14348.6875
2286.87094	14327.8875
2289.74405	14310.2875
2292.61534	14302.1875
2295.4848	14287.9875
2298.35243	14255.1875
2301.21824	14290.4875
2304.08223	14309.3875
2306.94439	14330.2875
2309.80474	14379.5875
2312.66327	14382.9875
2315.51999	14391.2875
2318.37489	14406.8875
2321.22797	14396.1875
2324.07925	14404.0875
2326.92871	14399.5875
2329.77637	14400.3875
2332.62222	14392.4875
2335.46626	14399.4875
2338.3085	14417.8875
2341.14893	14429.6875
2343.98756	14525.3875
2346.8244	14517.0875
2349.65943	14544.7875
2352.49267	14544.4875
2355.32411	14558.5875
2358.15376	14563.0875
2360.98161	14559.8875
2363.80768	14547.5875
2366.63195	14530.6875
2369.45444	14520.8875
2372.27514	14448.2875
2375.09405	14413.9875
2377.91118	14353.9875
2380.72652	14315.8875
2383.54009	14239.5875
2386.35187	14204.3875
2389.16188	14186.3875
2391.97011	14153.2875
2394.77657	14124.5875
2397.58125	14120.2875
2400.38416	14093.9875
2403.18529	14047.0875
2405.98466	13982.5875
2408.78226	13913.6875
2411.57809	13929.3875
2414.37216	13878.9875
2417.16446	13833.9875
2419.955	13821.5875
2422.74378	13786.5875
2425.5308	13790.6875
2428.31606	13795.1875
2431.09956	13786.7875
2433.88131	13792.5875
2436.6613	13827.3875
2439.43954	13819.5875
2442.21603	13827.5875
2444.99077	13794.4875
2447.76377	13825.8875
2450.53501	13793.8875
2453.30451	13796.4875
2456.07226	13787.9875
2458.83827	13806.1875
2461.60254	13808.3875
2464.36507	13794.9875
2467.12586	13823.9875
2469.88492	13800.8875
2472.64224	13792.2875
2475.39782	13828.3875
2478.15167	13885.4875
2480.90379	13841.8875
2483.65417	13892.2875
2486.40283	13919.8875
2489.14976	13987.5875
2491.89497	14000.6875
2494.63845	14035.0875
2497.3802	14025.8875
2500.12024	14040.2875
2502.85855	14013.2875
2505.59514	13998.5875
2508.33002	13937.4875
2511.06318	13915.8875
2513.79462	13912.4875
2516.52435	13855.1875
2519.25237	13870.3875
2521.97867	13863.6875
2524.70327	13838.7875
2527.42616	13783.3875
2530.14734	13785.5875
2532.86681	13824.3875
2535.58458	13841.5875
2538.30065	13799.2875
2541.01501	13776.5875
2543.72768	13763.4875
2546.43864	13742.8875
2549.14791	13725.8875
2551.85548	13723.2875
2554.56136	13720.7875
2557.26554	13728.1875
2559.96803	13723.2875
2562.66883	13716.9875
2565.36794	13700.7875
2568.06536	13683.1875
2570.7611	13664.9875
2573.45514	13706.5875
2576.14751	13683.3875
2578.83819	13660.8875
2581.52719	13645.7875
2584.21451	13663.2875
2586.90015	13668.6875
2589.58411	13684.8875
2592.2664	13696.6875
2594.94701	13687.4875
2597.62594	13688.0875
2600.30321	13676.1875
2602.9788	13688.4875
2605.65273	13684.5875
2608.32498	13690.4875
2610.99557	13752.3875
2613.66449	13717.6875
2616.33175	13714.7875
2618.99734	13757.2875
2621.66128	13749.8875
2624.32355	13778.1875
2626.98416	13798.7875
2629.64311	13787.5875
2632.30041	13786.9875
2634.95605	13777.3875
2637.61004	13757.7875
2640.26238	13731.5875
2642.91306	13717.7875
2645.56209	13693.5875
2648.20948	13674.8875
2650.85521	13657.9875
2653.4993	13653.9875
2656.14175	13634.6875
2658.78255	13649.7875
2661.42171	13648.5875
2664.05923	13701.2875
2666.6951	13690.4875
2669.32934	13706.4875
2671.96194	13726.6875
2674.59291	13750.9875
2677.22224	13712.9875
2679.84993	13691.1875
2682.476	13706.8875
2685.10043	13691.8875
2687.72324	13635.0875
2690.34441	13609.9875
2692.96396	13635.1875
2695.58188	13600.2875
2698.19818	13603.7875
2700.81285	13576.3875
2703.4259	13602.4875
2706.03733	13626.8875
2708.64714	13602.8875
2711.25533	13593.4875
2713.86191	13607.9875
2716.46687	13598.3875
2719.07021	13594.2875
2721.67194	13632.7875
2724.27206	13638.7875
2726.87057	13651.6875
2729.46747	13679.2875
2732.06276	13659.1875
2734.65644	13661.5875
2737.24852	13632.6875
2739.83899	13617.9875
2742.42786	13643.1875
2745.01513	13607.7875
2747.60079	13583.2875
2750.18486	13576.4875
2752.76733	13576.5875
2755.3482	13538.8875
2757.92747	13529.8875
2760.50515	13528.1875
2763.08123	13536.1875
2765.65573	13509.5875
2768.22863	13522.5875
2770.79994	13510.9875
2773.36967	13514.4875
2775.9378	13547.2875
2778.50435	13567.2875
2781.06932	13549.3875
2783.6327	13585.9875
2786.1945	13572.2875
2788.75471	13607.5875
2791.31335	13571.0875
2793.87041	13533.9875
2796.42589	13497.4875
2798.97979	13541.1875
2801.53212	13485.4875
2804.08288	13500.8875
2806.63206	13458.1875
2809.17967	13479.1875
2811.72571	13425.8875
2814.27018	13448.4875
2816.81308	13445.9875
2819.35442	13433.6875
2821.89419	13441.2875
2824.43239	13455.2875
2826.96904	13468.1875
2829.50412	13465.2875
2832.03763	13452.5875
2834.56959	13451.3875
2837.1	13430.0875
2839.62884	13460.5875
2842.15613	13488.5875
2844.68186	13523.8875
2847.20604	13561.0875
2849.72867	13585.1875
2852.24974	13584.5875
2854.76927	13590.0875
2857.28724	13559.0875
2859.80367	13587.6875
2862.31855	13545.7875
2864.83189	13554.9875
2867.34368	13553.3875
2869.85393	13547.7875
2872.36264	13533.7875
2874.8698	13522.5875
2877.37543	13506.1875
2879.87952	13536.5875
2882.38207	13472.8875
2884.88308	13495.1875
2887.38256	13518.0875
2889.88051	13484.3875
2892.37692	13541.5875
2894.8718	13512.2875
2897.36515	13527.3875
2899.85698	13589.2875
2902.34727	13591.9875
2904.83604	13606.0875
2907.32328	13639.7875
2909.809	13626.4875
2912.29319	13634.8875
2914.77587	13667.3875
2917.25702	13645.8875
2919.73665	13619.8875
2922.21476	13616.8875
2924.69136	13599.3875
2927.16644	13573.1875
2929.64	13542.0875
2932.11205	13507.0875
2934.58258	13457.0875
2937.05161	13472.1875
2939.51912	13421.0875
2941.98513	13400.2875
2944.44962	13354.7875
2946.91261	13262.3875
2949.37409	13263.9875
2951.83407	13231.7875
2954.29254	13187.4875
2956.74951	13171.4875
2959.20498	13195.8875
2961.65895	13148.2875
2964.11142	13139.9875
2966.56239	13071.2875
2969.01186	13077.1875
2971.45984	13036.5875
2973.90632	13012.3875
2976.35131	13005.1875
2978.7948	12965.0875
2981.23681	12943.4875
2983.67732	12910.9875
2986.11635	12886.7875
2988.55388	12854.2875
2990.98993	12820.7875
2993.4245	12768.3875
2995.85758	12730.3875
2998.28917	12688.7875
3000.71928	12669.0875
3003.14791	12633.3875
3005.57506	12629.8875
3008.00073	12596.8875
3010.42493	12554.5875
3012.84764	12545.1875
3015.26888	12570.5875
3017.68865	12512.5875
3020.10694	12489.6875
3022.52376	12439.4875
3024.9391	12453.0875
3027.35298	12414.2875
3029.76539	12390.5875
3032.17632	12374.4875
3034.5858	12397.8875
3036.9938	12373.1875
3039.40034	12354.2875
3041.80542	12355.3875
3044.20903	12324.6875
3046.61118	12333.9875
3049.01187	12311.8875
3051.4111	12303.1875
3053.80888	12261.2875
3056.20519	12239.3875
3058.60005	12225.1875
3060.99345	12218.8875
3063.3854	12158.5875
3065.7759	12095.3875
3068.16494	12068.1875
3070.55254	12025.3875
3072.93868	11989.3875
3075.32338	11947.5875
3077.70662	11898.8875
3080.08842	11842.3875
3082.46878	11850.1875
3084.84769	11843.9875
3087.22515	11838.8875
3089.60118	11833.0875
3091.97576	11804.8875
3094.3489	11816.1875
3096.72061	11803.8875
3099.09087	11795.6875
3101.4597	11757.0875
3103.82709	11793.9875
3106.19305	11773.6875
3108.55757	11786.1875
3110.92066	11733.9875
3113.28232	11725.7875
3115.64255	11687.2875
3118.00134	11673.2875
3120.35871	11645.9875
3122.71466	11647.9875
3125.06917	11664.3875
3127.42226	11604.0875
3129.77393	11622.3875
3132.12417	11591.0875
3134.47299	11586.0875
3136.82039	11580.8875
3139.16636	11576.5875
3141.51092	11585.0875
3143.85406	11564.4875
3146.19579	11559.2875
3148.53609	11551.5875
3150.87499	11566.6875
3153.21246	11573.4875
3155.54853	11581.9875
3157.88318	11581.6875
3160.21642	11606.7875
3162.54826	11609.9875
3164.87868	11613.8875
3167.2077	11605.7875
3169.5353	11605.7875
3171.86151	11587.2875
3174.18631	11557.7875
3176.5097	11591.6875
3178.83169	11549.6875
3181.15228	11569.0875
3183.47147	11547.1875
3185.78926	11526.9875
3188.10565	11528.2875
3190.42065	11507.7875
3192.73424	11531.4875
3195.04645	11548.3875
3197.35725	11540.3875
3199.66667	11525.0875
3201.97469	11489.1875
3204.28132	11497.7875
3206.58656	11565.9875
3208.8904	11546.0875
3211.19287	11542.1875
3213.49394	11543.7875
3215.79363	11555.4875
3218.09193	11557.3875
3220.38884	11577.1875
3222.68438	11600.9875
3224.97853	11554.9875
3227.2713	11537.3875
3229.56269	11510.2875
3231.8527	11520.0875
3234.14133	11491.6875
3236.42858	11502.9875
3238.71446	11498.7875
3240.99896	11456.0875
3243.28209	11481.8875
3245.56384	11433.5875
3247.84423	11448.9875
3250.12324	11426.3875
3252.40088	11407.3875
3254.67715	11401.6875
3256.95205	11411.2875
3259.22558	11406.3875
3261.49775	11393.2875
3263.76855	11378.1875
3266.03799	11321.2875
3268.30606	11336.4875
3270.57277	11315.6875
3272.83812	11282.0875
3275.10211	11256.4875
3277.36474	11254.2875
3279.62601	11222.6875
3281.88593	11214.9875
3284.14448	11248.0875
3286.40168	11225.5875
3288.65753	11215.6875
3290.91202	11223.0875
3293.16516	11193.3875
3295.41695	11178.1875
3297.66738	11092.1875
3299.91647	11056.4875
3302.16421	11003.5875
3304.4106	10917.9875
3306.65564	10862.9875
3308.89933	10784.6875
3311.14169	10705.8875
3313.38269	10649.8875
3315.62236	10550.2875
3317.86068	10460.9875
3320.09766	10369.0875
3322.3333	10283.4875
3324.5676	10254.7875
3326.80056	10087.8875
3329.03219	10037.3875
3331.26248	2.0875
3333.49143	-0.4125
3335.71905	-0.5125
