Data from AgNPs_FTO_APTES_UA_5uM_CRN_500uM_R6G_10uM_NaF_0.1M_Addition_RamanShift__2__16-43-01-811.txt Node

Date: Mon Feb 07 16:43:01 GMT 2022
User: TCL
Spectrometer: QEP01345
Trigger mode: 4
Integration Time (sec): 7.000000E0
Scans to average: 10
Electric dark correction enabled: true
Nonlinearity correction enabled: false
Boxcar width: 0
XAxis mode: Raman Shifts
Number of Pixels in Spectrum: 1044
>>>>>Begin Spectral Data<<<<<
46.04893	-1.1
50.45542	-0.6
54.85868	-0.7
59.25871	0.5
63.6555	71.2
68.04907	73.8
72.43941	75.5
76.82654	78
81.21044	80.7
85.59113	79.5
89.96862	82.6
94.34289	92.6
98.71396	90
103.08183	95.1
107.4465	98.5
111.80798	97.8
116.16626	101.7
120.52136	111
124.87327	113.9
129.222	120.1
133.56755	127.3
137.90993	140.7
142.24913	160.4
146.58517	180.4
150.91804	206.5
155.24774	257.7
159.57429	321.5
163.89768	410.9
168.21792	552.4
172.53501	764.6
176.84895	1064.4
181.15975	1505.5
185.46741	2118.5
189.77193	2924.5
194.07331	3929.3
198.37157	5045.3
202.6667	6222.3
206.9587	7409.6
211.24758	8564
215.53334	9722.2
219.81599	10953.8
224.09553	12333.5
228.37195	13845.2
232.64527	15409.6
236.91549	17137.8
241.18261	18831.9
245.44663	20363.9
249.70755	21799.8
253.96539	23050.7
258.22014	24075.1
262.4718	24913.2
266.72039	25526.5
270.96589	25910.1
275.20832	26003
279.44768	25902.2
283.68397	25679.4
287.91719	25507.5
292.14735	25461.3
296.37445	25564.1
300.59849	25690.6
304.81948	25912.6
309.03742	25950.9
313.25231	25627.2
317.46415	25110.5
321.67296	24402.1
325.87872	23823.1
330.08145	23473.5
334.28114	23364.7
338.47781	23472.6
342.67145	23667.7
346.86207	24029.6
351.04966	24474.1
355.23424	24899
359.4158	25242.9
363.59435	25525.9
367.76989	25705.6
371.94243	25825.4
376.11196	25943.7
380.27849	26001.7
384.44203	26176.1
388.60257	26394.8
392.76012	26700.9
396.91468	26990.3
401.06626	27384.2
405.21485	27640.5
409.36047	27498.7
413.50311	27070.5
417.64277	26810.9
421.77947	26739.9
425.9132	26821.5
430.04396	26957.8
434.17176	27135.4
438.2966	27388.3
442.41849	27908.6
446.53742	28759.1
450.6534	29730.5
454.76644	30318.9
458.87653	30483.9
462.98368	30285.7
467.08789	29956.3
471.18916	29663.9
475.2875	29442.9
479.38291	29442.4
483.4754	29360.3
487.56496	28919.2
491.6516	28238.8
495.73531	27538.4
499.81612	27037.4
503.89401	27021.9
507.96899	27093.1
512.04106	27025.9
516.11023	26837.2
520.1765	26545.9
524.23987	26331.9
528.30034	26136.2
532.35792	25900.4
536.41261	25597.1
540.46441	25337
544.51333	25367.7
548.55936	25695
552.60252	26359.3
556.64279	27184.1
560.6802	27888.1
564.71473	28322.8
568.7464	28942.8
572.7752	29988.1
576.80114	30836.7
580.82422	31441.6
584.84444	32247.2
588.86181	33429.5
592.87633	34493.2
596.888	34198.7
600.89682	32620.2
604.9028	31970
608.90594	33496.5
612.90624	35587
616.90371	33512.1
620.89834	28250.4
624.89015	25851.5
628.87913	25581.4
632.86528	25767.9
636.84862	25788.3
640.82913	25407
644.80683	24830
648.78172	24444.5
652.75379	24383.3
656.72306	24609.4
660.68952	24864.7
664.65319	24702.4
668.61405	24261.9
672.57211	24148.5
676.52738	24264.6
680.47986	24295.2
684.42955	24143.8
688.37646	24060.8
692.32058	24113.3
696.26192	24407.2
700.20048	24691.6
704.13626	24919.9
708.06928	25003.1
711.99952	24986
715.927	24907.7
719.85171	25039.9
723.77365	24901.1
727.69284	24577.9
731.60928	24306.2
735.52295	24208.6
739.43388	24206.4
743.34206	24251.5
747.24749	24352.1
751.15017	24648.3
755.05012	25128
758.94733	25909.8
762.8418	27210.7
766.73354	29178.8
770.62254	30966.7
774.50882	31337.5
778.39237	29983.5
782.27321	27752.4
786.15132	25892.5
790.02671	24822.2
793.89938	24257.4
797.76935	24018.8
801.6366	23930.6
805.50115	23887
809.36299	23738.4
813.22213	23583.4
817.07857	23583.1
820.93231	23508.5
824.78336	23347.9
828.63172	23214
832.47738	23140.8
836.32036	23087.4
840.16066	23093.8
843.99827	23111.4
847.8332	23113.2
851.66546	23080.7
855.49504	23035.4
859.32195	23047.4
863.1462	22938.9
866.96777	22902.2
870.78668	22844.4
874.60293	22828.3
878.41652	22881.5
882.22745	22930.6
886.03573	22960.1
889.84136	22981.2
893.64433	22881.8
897.44466	22821.6
901.24235	22747.7
905.0374	22640.4
908.8298	22614.5
912.61957	22668.1
916.40671	22916.5
920.19121	23248
923.97308	23545.1
927.75233	23457.9
931.52895	23238.3
935.30295	22816.4
939.07433	22412
942.84309	22042.9
946.60924	21836.3
950.37278	21740.8
954.13371	21709.2
957.89203	21758.1
961.64774	21744.3
965.40086	21722.2
969.15137	21609
972.89929	21467.2
976.64461	21377.3
980.38733	21283.6
984.12747	21280.8
987.86502	21414
991.59999	21556.1
995.33237	21791.2
999.06217	22136.2
1002.78939	22582.6
1006.51404	22980.8
1010.23611	23309.9
1013.95561	23597.6
1017.67255	23658.7
1021.38692	23517.8
1025.09872	23059.5
1028.80796	22801.3
1032.51465	22860.1
1036.21877	23070.6
1039.92035	23185.9
1043.61937	23204
1047.31584	23138.7
1051.00976	23037.4
1054.70114	22989.2
1058.38998	23115.3
1062.07627	23333.1
1065.76003	23595.1
1069.44126	23821.8
1073.11995	24125.8
1076.79611	24362.1
1080.46974	24497.6
1084.14085	24679.7
1087.80943	24927.9
1091.47549	25199.7
1095.13903	25300.4
1098.80005	25029.4
1102.45857	24506.2
1106.11456	24024.8
1109.76805	23770.1
1113.41903	23900.3
1117.06751	24094.8
1120.71348	24403.1
1124.35696	24715.2
1127.99793	25155.8
1131.63641	25423.8
1135.2724	25212.8
1138.90589	24981.6
1142.5369	25014.5
1146.16542	25233.3
1149.79145	25590.1
1153.415	26005.4
1157.03607	26508.5
1160.65467	27402.9
1164.27079	28876.1
1167.88443	30619.8
1171.49561	32460.9
1175.10432	34846.3
1178.71056	37791
1182.31434	40492.1
1185.91565	41667.1
1189.51451	41202.9
1193.11091	39901.7
1196.70485	38342.8
1200.29634	36860.5
1203.88538	35866.4
1207.47197	35348.7
1211.05612	34893.9
1214.63782	34196.8
1218.21708	33171.9
1221.79391	32121.3
1225.36829	31465.1
1228.94024	30930.1
1232.50976	30331
1236.07685	29740.5
1239.6415	29429.9
1243.20374	29428.4
1246.76355	29634
1250.32093	30034.1
1253.8759	30576.8
1257.42845	31353.9
1260.97859	32203.5
1264.52631	33100.7
1268.07163	34013.4
1271.61453	34972.9
1275.15503	36016.6
1278.69312	37211.8
1282.22882	38523.1
1285.76211	40232.8
1289.29301	42383.7
1292.82151	44966.2
1296.34761	48039.4
1299.87133	51456.8
1303.39266	54784
1306.9116	57642.1
1310.42815	59967.3
1313.94233	61162.6
1317.45412	60818.6
1320.96354	59649.3
1324.47058	58507
1327.97525	57546.3
1331.47754	56831.3
1334.97747	56076.1
1338.47502	55252
1341.97022	54244.7
1345.46305	53250.9
1348.95352	52544.1
1352.44163	52491.8
1355.92738	53668.9
1359.41078	55921.8
1362.89183	57711.4
1366.37053	56635
1369.84688	51841.3
1373.32088	45932.6
1376.79254	42173.9
1380.26186	41188.6
1383.72883	41549.1
1387.19347	41941.6
1390.65578	41919.7
1394.11575	42126.7
1397.57339	42898
1401.0287	43751.2
1404.48168	44275.1
1407.93234	43879
1411.38068	42560.8
1414.82669	40553
1418.27039	38295.1
1421.71177	36241.8
1425.15083	34479.4
1428.58758	33670.7
1432.02203	33925.2
1435.45416	34949.4
1438.88399	36203.8
1442.31151	37180.9
1445.73673	37842.7
1449.15965	38364.7
1452.58027	38719.3
1455.9986	38904.8
1459.41463	39123.6
1462.82837	39561.7
1466.23982	40069
1469.64898	40646.4
1473.05586	40879.9
1476.46045	40762.4
1479.86276	40340
1483.26279	39774.3
1486.66054	39418.7
1490.05602	39450.4
1493.44922	39752.1
1496.84016	40228.4
1500.22882	41084.7
1503.61521	42434.1
1506.99934	44146.5
1510.38121	45542.1
1513.76081	45953.5
1517.13816	45004.6
1520.51324	43470
1523.88607	42360.1
1527.25665	42002.9
1530.62498	42136.7
1533.99105	42111.2
1537.35488	41645.6
1540.71647	40691.1
1544.07581	39350.2
1547.4329	37920.7
1550.78776	36670.8
1554.14038	35862.8
1557.49077	35334.3
1560.83892	35173.2
1564.18484	35162.4
1567.52853	35414.4
1570.86999	36000.9
1574.20922	37005.4
1577.54624	37930.1
1580.88103	38417.4
1584.2136	38982.6
1587.54395	40196.1
1590.87208	42132.8
1594.19801	44598.1
1597.52172	46801.1
1600.84321	47306.3
1604.16251	45055.6
1607.47959	41053.3
1610.79447	36810
1614.10715	33136.2
1617.41763	30351.2
1620.7259	28524.9
1624.03199	27653.5
1627.33587	27771.5
1630.63757	28774.6
1633.93707	30827.1
1637.23439	34439.9
1640.52951	39652.3
1643.82246	45831.9
1647.11321	51090.3
1650.40179	52202.5
1653.68819	48211.5
1656.97241	41062.7
1660.25446	34105.2
1663.53433	29010.9
1666.81203	25715.3
1670.08756	23619.4
1673.36092	22374.3
1676.63211	21510.1
1679.90115	20977.4
1683.16801	20538.7
1686.43272	20226.4
1689.69527	20007.2
1692.95567	19834.3
1696.2139	19653.8
1699.46999	19526.9
1702.72392	19433
1705.97571	19365.6
1709.22535	19340.6
1712.47284	19268.5
1715.71819	19195.4
1718.96139	19190.3
1722.20246	19106.2
1725.44139	19008.3
1728.67818	18869.2
1731.91284	18739.6
1735.14537	18642.7
1738.37576	18503.2
1741.60403	18477.2
1744.83017	18384.3
1748.05418	18304
1751.27607	18319.8
1754.49584	18260.9
1757.71349	18226.5
1760.92903	18221
1764.14244	18191.1
1767.35375	18159.7
1770.56294	18141.1
1773.77002	18030.6
1776.97499	17979.9
1780.17785	17952
1783.37861	17910.2
1786.57727	17907.5
1789.77382	17841.6
1792.96828	17802.1
1796.16064	17790.6
1799.3509	17717.2
1802.53907	17672.1
1805.72514	17635.6
1808.90913	17548.9
1812.09102	17505.2
1815.27083	17454.2
1818.44856	17416.9
1821.6242	17383.5
1824.79776	17368.5
1827.96924	17356.2
1831.13864	17304.8
1834.30597	17322.5
1837.47122	17317.4
1840.6344	17256.7
1843.7955	17270.2
1846.95454	17260.9
1850.11151	17245.9
1853.26642	17222.6
1856.41926	17243.4
1859.57004	17193.9
1862.71876	17175.3
1865.86542	17120.8
1869.01003	17104.4
1872.15258	17071.8
1875.29308	17075.5
1878.43152	17050.1
1881.56792	17024.1
1884.70227	17031.9
1887.83457	17021.8
1890.96482	16956.8
1894.09304	16904.4
1897.21921	16893
1900.34335	16854.2
1903.46544	16839
1906.58551	16822.8
1909.70353	16771.7
1912.81953	16745.4
1915.93349	16707.3
1919.04543	16673.7
1922.15534	16667.6
1925.26322	16607
1928.36908	16555.9
1931.47292	16533.6
1934.57473	16528.2
1937.67453	16433.5
1940.77232	16403.5
1943.86808	16331
1946.96184	16263.2
1950.05358	16228.9
1953.14331	16181.5
1956.23103	16128.2
1959.31675	16080.9
1962.40046	16006.3
1965.48217	15980.6
1968.56188	15904.3
1971.63959	15844.5
1974.7153	15776.7
1977.78901	15754
1980.86073	15693.5
1983.93046	15656.5
1986.99819	15618.8
1990.06394	15588.5
1993.1277	15511.3
1996.18947	15452.6
1999.24925	15415.2
2002.30706	15343
2005.36288	15306.3
2008.41672	15256.6
2011.46859	15224.9
2014.51848	15158
2017.56639	15128.3
2020.61233	15066.9
2023.6563	15007.4
2026.6983	14955.8
2029.73833	14976.7
2032.7764	14912.2
2035.8125	14878.7
2038.84664	14866.9
2041.87881	14850.5
2044.90903	14792.1
2047.93729	14743
2050.96359	14741.6
2053.98794	14712.1
2057.01034	14707.2
2060.03078	14699.6
2063.04927	14690
2066.06582	14691.1
2069.08042	14680.2
2072.09307	14699.6
2075.10378	14632.7
2078.11255	14623
2081.11938	14606.3
2084.12426	14582.5
2087.12722	14562.7
2090.12824	14556
2093.12732	14558.4
2096.12447	14577.2
2099.11969	14542.8
2102.11299	14527.8
2105.10435	14530.4
2108.09379	14524.2
2111.08131	14520.6
2114.0669	14540
2117.05057	14573
2120.03233	14573.6
2123.01216	14574.1
2125.99008	14563.8
2128.96609	14568.3
2131.94018	14587.3
2134.91236	14568.4
2137.88263	14605.5
2140.851	14557.6
2143.81746	14580.5
2146.78201	14545.8
2149.74466	14535
2152.7054	14540.7
2155.66425	14502.3
2158.6212	14526.5
2161.57625	14469.8
2164.52941	14482.2
2167.48067	14460
2170.43004	14445.5
2173.37752	14453.7
2176.32311	14467.6
2179.26681	14480.2
2182.20863	14467.2
2185.14856	14489.3
2188.08661	14474.2
2191.02278	14466.4
2193.95707	14435.2
2196.88948	14435.2
2199.82001	14390.1
2202.74867	14377.3
2205.67545	14331.3
2208.60037	14337.9
2211.52341	14286
2214.44458	14253.2
2217.36388	14219.9
2220.28132	14188.4
2223.1969	14151.2
2226.11061	14159.2
2229.02246	14137.6
2231.93245	14116.3
2234.84058	14081.1
2237.74686	14044.5
2240.65128	14014.7
2243.55385	14002.7
2246.45456	13997.5
2249.35343	13946
2252.25044	13950.1
2255.14561	13886.7
2258.03893	13822.9
2260.93041	13804
2263.82004	13776.3
2266.70783	13740.9
2269.59378	13713.2
2272.4779	13671.7
2275.36017	13636.3
2278.24061	13596.3
2281.11922	13573.5
2283.996	13578.1
2286.87094	13544.5
2289.74405	13495.8
2292.61534	13478.2
2295.4848	13467.8
2298.35243	13479.4
2301.21824	13468.2
2304.08223	13505.2
2306.94439	13478.8
2309.80474	13448.5
2312.66327	13459.4
2315.51999	13451.5
2318.37489	13448.7
2321.22797	13406.7
2324.07925	13371.1
2326.92871	13374.4
2329.77637	13352.4
2332.62222	13301.3
2335.46626	13324.3
2338.3085	13303.7
2341.14893	13296.5
2343.98756	13300.4
2346.8244	13298.4
2349.65943	13274.8
2352.49267	13277.8
2355.32411	13256.7
2358.15376	13251.5
2360.98161	13265.9
2363.80768	13253.1
2366.63195	13232.5
2369.45444	13230
2372.27514	13200.9
2375.09405	13153.2
2377.91118	13126.4
2380.72652	13090.4
2383.54009	13060.2
2386.35187	13077
2389.16188	13026.7
2391.97011	12992.8
2394.77657	12942.7
2397.58125	12909.1
2400.38416	12920.9
2403.18529	12872.9
2405.98466	12908
2408.78226	12879.8
2411.57809	12843.1
2414.37216	12829.5
2417.16446	12821
2419.955	12806.5
2422.74378	12785.5
2425.5308	12766
2428.31606	12760
2431.09956	12731.8
2433.88131	12732.3
2436.6613	12744.9
2439.43954	12762.1
2442.21603	12744.8
2444.99077	12709.5
2447.76377	12721.7
2450.53501	12677.2
2453.30451	12704.8
2456.07226	12693.6
2458.83827	12687
2461.60254	12650.9
2464.36507	12639.2
2467.12586	12640.5
2469.88492	12642.1
2472.64224	12675.4
2475.39782	12662.6
2478.15167	12683.7
2480.90379	12667.2
2483.65417	12642.6
2486.40283	12651.4
2489.14976	12684.4
2491.89497	12694
2494.63845	12674.2
2497.3802	12682.5
2500.12024	12669.6
2502.85855	12634.9
2505.59514	12640.4
2508.33002	12640.2
2511.06318	12616.2
2513.79462	12598.4
2516.52435	12557.1
2519.25237	12519.3
2521.97867	12513.2
2524.70327	12508.6
2527.42616	12495.7
2530.14734	12511.4
2532.86681	12490.6
2535.58458	12508.7
2538.30065	12481.7
2541.01501	12479.6
2543.72768	12457.4
2546.43864	12454.9
2549.14791	12425.2
2551.85548	12406.7
2554.56136	12407.4
2557.26554	12376.1
2559.96803	12388.3
2562.66883	12386.4
2565.36794	12365
2568.06536	12337.1
2570.7611	12343.9
2573.45514	12302
2576.14751	12308
2578.83819	12282.5
2581.52719	12284.4
2584.21451	12273.5
2586.90015	12270.2
2589.58411	12252.5
2592.2664	12242
2594.94701	12239
2597.62594	12201
2600.30321	12189.7
2602.9788	12195.7
2605.65273	12213.9
2608.32498	12209.9
2610.99557	12212.9
2613.66449	12233.5
2616.33175	12206.1
2618.99734	12201.3
2621.66128	12170
2624.32355	12155.9
2626.98416	12150.2
2629.64311	12148.9
2632.30041	12136.9
2634.95605	12154.3
2637.61004	12111.2
2640.26238	12100.2
2642.91306	12079.4
2645.56209	12089.4
2648.20948	12102.4
2650.85521	12087
2653.4993	12111.4
2656.14175	12101.8
2658.78255	12126.1
2661.42171	12096.6
2664.05923	12130.5
2666.6951	12109
2669.32934	12137.2
2671.96194	12129.3
2674.59291	12121.6
2677.22224	12092.6
2679.84993	12105.6
2682.476	12083.5
2685.10043	12093.3
2687.72324	12083
2690.34441	12104.1
2692.96396	12051.4
2695.58188	12066.4
2698.19818	12076.7
2700.81285	12107.1
2703.4259	12073.7
2706.03733	12105.9
2708.64714	12084.9
2711.25533	12117.6
2713.86191	12112.8
2716.46687	12144.4
2719.07021	12137.7
2721.67194	12152
2724.27206	12134.7
2726.87057	12145
2729.46747	12176.2
2732.06276	12146.1
2734.65644	12172.8
2737.24852	12148.2
2739.83899	12140.1
2742.42786	12156.9
2745.01513	12130.6
2747.60079	12115.3
2750.18486	12108.9
2752.76733	12090.1
2755.3482	12063.5
2757.92747	12060.1
2760.50515	12083.3
2763.08123	12074.1
2765.65573	12060.7
2768.22863	12046.2
2770.79994	12064.5
2773.36967	12056.2
2775.9378	12056.3
2778.50435	12057.5
2781.06932	12064.2
2783.6327	12061.7
2786.1945	12047.1
2788.75471	12056.2
2791.31335	12019.5
2793.87041	12054.3
2796.42589	12001
2798.97979	12003.9
2801.53212	11986.3
2804.08288	11935.3
2806.63206	11921
2809.17967	11902.7
2811.72571	11889
2814.27018	11837.6
2816.81308	11836.3
2819.35442	11782.5
2821.89419	11769.4
2824.43239	11766.6
2826.96904	11784.9
2829.50412	11752
2832.03763	11717.8
2834.56959	11759.8
2837.1	11736.1
2839.62884	11759.9
2842.15613	11770.6
2844.68186	11830.1
2847.20604	11865.4
2849.72867	11840.6
2852.24974	11863.9
2854.76927	11856.4
2857.28724	11838.6
2859.80367	11835.8
2862.31855	11780.2
2864.83189	11780.9
2867.34368	11760.5
2869.85393	11764.9
2872.36264	11730.9
2874.8698	11730.8
2877.37543	11745.9
2879.87952	11736.8
2882.38207	11709.5
2884.88308	11712.7
2887.38256	11687.4
2889.88051	11710.5
2892.37692	11711.9
2894.8718	11724.4
2897.36515	11720
2899.85698	11728.6
2902.34727	11769.1
2904.83604	11764.1
2907.32328	11802.5
2909.809	11790.2
2912.29319	11778.6
2914.77587	11819.4
2917.25702	11753.7
2919.73665	11742
2922.21476	11746.3
2924.69136	11748.2
2927.16644	11760.8
2929.64	11773.8
2932.11205	11734.8
2934.58258	11702.7
2937.05161	11688.3
2939.51912	11666.3
2941.98513	11669
2944.44962	11656.5
2946.91261	11594.2
2949.37409	11586.3
2951.83407	11580.4
2954.29254	11560.9
2956.74951	11547.7
2959.20498	11527.8
2961.65895	11491.4
2964.11142	11501.4
2966.56239	11494.3
2969.01186	11482.5
2971.45984	11450.4
2973.90632	11458
2976.35131	11373.6
2978.7948	11373
2981.23681	11325.6
2983.67732	11308.4
2986.11635	11285
2988.55388	11211
2990.98993	11211
2993.4245	11184.2
2995.85758	11123.7
2998.28917	11104.7
3000.71928	11105.7
3003.14791	11102.3
3005.57506	11061.1
3008.00073	11046.6
3010.42493	11039.9
3012.84764	10992.4
3015.26888	10962.7
3017.68865	10904.9
3020.10694	10904.8
3022.52376	10909.9
3024.9391	10862.5
3027.35298	10834.4
3029.76539	10863.6
3032.17632	10842.5
3034.5858	10839.3
3036.9938	10842.9
3039.40034	10834
3041.80542	10837.7
3044.20903	10798
3046.61118	10792.2
3049.01187	10782.8
3051.4111	10773
3053.80888	10742.7
3056.20519	10713.8
3058.60005	10701.6
3060.99345	10643
3063.3854	10612.4
3065.7759	10585.1
3068.16494	10558.7
3070.55254	10500
3072.93868	10462.5
3075.32338	10461.7
3077.70662	10418.7
3080.08842	10370.3
3082.46878	10359.2
3084.84769	10352
3087.22515	10363.5
3089.60118	10359.2
3091.97576	10361.4
3094.3489	10361.5
3096.72061	10368
3099.09087	10329.7
3101.4597	10333.7
3103.82709	10285.4
3106.19305	10291.8
3108.55757	10278.7
3110.92066	10232.2
3113.28232	10243
3115.64255	10190.5
3118.00134	10172.6
3120.35871	10188.5
3122.71466	10153.3
3125.06917	10131.4
3127.42226	10083.2
3129.77393	10119.8
3132.12417	10072.6
3134.47299	10055.3
3136.82039	10075.1
3139.16636	10084
3141.51092	10054.7
3143.85406	10041.3
3146.19579	10044.9
3148.53609	10028.8
3150.87499	10043.2
3153.21246	10041.9
3155.54853	10051.5
3157.88318	10064.7
3160.21642	10082.4
3162.54826	10067.5
3164.87868	10077.4
3167.2077	10084.5
3169.5353	10060.7
3171.86151	10073.2
3174.18631	10047
3176.5097	10020.7
3178.83169	10023.8
3181.15228	10028.2
3183.47147	9993.6
3185.78926	9975.9
3188.10565	9964.2
3190.42065	9969.9
3192.73424	9962.3
3195.04645	9925.5
3197.35725	9942
3199.66667	9890.9
3201.97469	9912
3204.28132	9885.5
3206.58656	9909.1
3208.8904	9919.2
3211.19287	9919
3213.49394	9921.6
3215.79363	9944.4
3218.09193	9906.6
3220.38884	9927.8
3222.68438	9903.3
3224.97853	9888
3227.2713	9911.6
3229.56269	9883.7
3231.8527	9888.9
3234.14133	9858.2
3236.42858	9820.2
3238.71446	9835.2
3240.99896	9831.1
3243.28209	9796.5
3245.56384	9766.7
3247.84423	9768.2
3250.12324	9753.4
3252.40088	9754.5
3254.67715	9727.9
3256.95205	9681.2
3259.22558	9687.7
3261.49775	9664.6
3263.76855	9660.7
3266.03799	9629.1
3268.30606	9621.9
3270.57277	9615.9
3272.83812	9570.6
3275.10211	9572.6
3277.36474	9560.5
3279.62601	9560.3
3281.88593	9532.3
3284.14448	9551.9
3286.40168	9542.1
3288.65753	9542
3290.91202	9541.4
3293.16516	9502.2
3295.41695	9504.7
3297.66738	9424.1
3299.91647	9371.8
3302.16421	9305.4
3304.4106	9282.7
3306.65564	9182.4
3308.89933	9137
3311.14169	9060.8
3313.38269	8989.5
3315.62236	8900.3
3317.86068	8835.9
3320.09766	8772.7
3322.3333	8713.5
3324.5676	8671.2
3326.80056	8533.2
3329.03219	8472.5
3331.26248	3.1
3333.49143	0.4
3335.71905	-1.7
