Data from AgNPs_FTO_APTES_UA_5uM_CRN_2uM_R6G_10uM_NaF_0.1M_Addition_RamanShift__27__11-28-26-649.txt Node

Date: Mon Feb 07 11:28:26 GMT 2022
User: TCL
Spectrometer: QEP01345
Trigger mode: 4
Integration Time (sec): 7.000000E0
Scans to average: 10
Electric dark correction enabled: true
Nonlinearity correction enabled: false
Boxcar width: 0
XAxis mode: Raman Shifts
Number of Pixels in Spectrum: 1044
>>>>>Begin Spectral Data<<<<<
46.04893	-1.6625
50.45542	-1.6625
54.85868	-0.4625
59.25871	0.8375
63.6555	84.6375
68.04907	87.9375
72.43941	92.2375
76.82654	97.4375
81.21044	98.8375
85.59113	99.7375
89.96862	107.6375
94.34289	108.7375
98.71396	111.9375
103.08183	114.5375
107.4465	116.8375
111.80798	121.0375
116.16626	126.1375
120.52136	132.0375
124.87327	135.9375
129.222	145.6375
133.56755	158.8375
137.90993	171.0375
142.24913	187.1375
146.58517	211.6375
150.91804	244.5375
155.24774	295.7375
159.57429	377.5375
163.89768	483.5375
168.21792	644.8375
172.53501	884.4375
176.84895	1224.3375
181.15975	1726.3375
185.46741	2415.8375
189.77193	3336.2375
194.07331	4447.9375
198.37157	5746.2375
202.6667	7070.5375
206.9587	8437.6375
211.24758	9760.1375
215.53334	11163.2375
219.81599	12735.3375
224.09553	14482.3375
228.37195	16448.4375
232.64527	18569.0375
236.91549	20654.2375
241.18261	22628.2375
245.44663	24262.2375
249.70755	25630.3375
253.96539	26858.3375
258.22014	27892.5375
262.4718	28805.0375
266.72039	29487.2375
270.96589	29977.5375
275.20832	30058.7375
279.44768	29933.0375
283.68397	29748.9375
287.91719	29696.7375
292.14735	29785.8375
296.37445	30169.2375
300.59849	30922.6375
304.81948	31877.5375
309.03742	32434.6375
313.25231	32256.9375
317.46415	30860.9375
321.67296	28668.4375
325.87872	26823.5375
330.08145	25898.8375
334.28114	25762.9375
338.47781	26022.5375
342.67145	26702.9375
346.86207	27646.4375
351.04966	29066.8375
355.23424	30667.1375
359.4158	31916.9375
363.59435	32451.4375
367.76989	32528.6375
371.94243	32379.9375
376.11196	32177.6375
380.27849	31932.0375
384.44203	31646.2375
388.60257	31353.0375
392.76012	31340.5375
396.91468	31732.8375
401.06626	32633.8375
405.21485	33335.6375
409.36047	32909.2375
413.50311	31467.4375
417.64277	30160.2375
421.77947	29538.9375
425.9132	29346.9375
430.04396	29377.9375
434.17176	29462.5375
438.2966	29792.5375
442.41849	30474.9375
446.53742	31431.3375
450.6534	32519.6375
454.76644	33274.5375
458.87653	33449.5375
462.98368	33233.4375
467.08789	32731.9375
471.18916	31996.4375
475.2875	31278.3375
479.38291	30757.5375
483.4754	30333.4375
487.56496	29895.0375
491.6516	29410.9375
495.73531	29153.2375
499.81612	29105.8375
503.89401	29341.3375
507.96899	29558.9375
512.04106	29697.2375
516.11023	29764.6375
520.1765	29697.9375
524.23987	29417.9375
528.30034	28884.5375
532.35792	28304.7375
536.41261	27673.7375
540.46441	27073.5375
544.51333	26870.4375
548.55936	27238.5375
552.60252	28117.5375
556.64279	29121.4375
560.6802	29642.1375
564.71473	30249.1375
568.7464	31607.0375
572.7752	32816.0375
576.80114	32693.1375
580.82422	32132.4375
584.84444	31957.7375
588.86181	31953.5375
592.87633	32103.0375
596.888	32552.0375
600.89682	33336.8375
604.9028	36259.7375
608.90594	44323.6375
612.90624	54498.4375
616.90371	51890.1375
620.89834	37041.2375
624.89015	30135.0375
628.87913	29008.9375
632.86528	29165.6375
636.84862	29275.5375
640.82913	28559.2375
644.80683	27117.8375
648.78172	26110.8375
652.75379	26025.8375
656.72306	27025.4375
660.68952	28387.9375
664.65319	28251.1375
668.61405	27060.9375
672.57211	26393.5375
676.52738	26324.2375
680.47986	26277.3375
684.42955	26013.4375
688.37646	25876.4375
692.32058	25985.9375
696.26192	26366.3375
700.20048	26765.3375
704.13626	27148.3375
708.06928	27151.4375
711.99952	26904.6375
715.927	26701.7375
719.85171	26686.3375
723.77365	26575.6375
727.69284	26142.6375
731.60928	25779.6375
735.52295	25662.7375
739.43388	25813.1375
743.34206	26007.4375
747.24749	26234.0375
751.15017	26596.6375
755.05012	27325.1375
758.94733	28756.0375
762.8418	31894.7375
766.73354	37137.0375
770.62254	42348.5375
774.50882	44203.4375
778.39237	41489.1375
782.27321	36084.5375
786.15132	31061.6375
790.02671	28092.5375
793.89938	26758.1375
797.76935	26140.1375
801.6366	25884.8375
805.50115	25627.8375
809.36299	25453.4375
813.22213	25296.0375
817.07857	25210.6375
820.93231	25144.6375
824.78336	25206.4375
828.63172	25320.8375
832.47738	25368.3375
836.32036	25393.9375
840.16066	25322.8375
843.99827	25283.9375
847.8332	25187.3375
851.66546	25024.5375
855.49504	24982.2375
859.32195	24896.0375
863.1462	24740.6375
866.96777	24587.5375
870.78668	24517.5375
874.60293	24519.5375
878.41652	24540.4375
882.22745	24718.4375
886.03573	24892.0375
889.84136	24836.5375
893.64433	24610.9375
897.44466	24548.3375
901.24235	24510.1375
905.0374	24460.9375
908.8298	24364.5375
912.61957	24360.6375
916.40671	24647.7375
920.19121	25148.2375
923.97308	25566.8375
927.75233	25910.7375
931.52895	25970.5375
935.30295	25448.6375
939.07433	24597.8375
942.84309	23914.4375
946.60924	23552.5375
950.37278	23368.7375
954.13371	23195.7375
957.89203	23048.4375
961.64774	22953.8375
965.40086	22954.2375
969.15137	22844.5375
972.89929	22769.0375
976.64461	22698.0375
980.38733	22742.7375
984.12747	22872.2375
987.86502	23114.3375
991.59999	23440.7375
995.33237	23894.2375
999.06217	24794.8375
1002.78939	25960.2375
1006.51404	26938.4375
1010.23611	27662.1375
1013.95561	28029.2375
1017.67255	27952.3375
1021.38692	27394.4375
1025.09872	26903.7375
1028.80796	26950.3375
1032.51465	27621.7375
1036.21877	28385.6375
1039.92035	28466.1375
1043.61937	28117.1375
1047.31584	27380.4375
1051.00976	26673.8375
1054.70114	26260.1375
1058.38998	26180.5375
1062.07627	26332.1375
1065.76003	26574.8375
1069.44126	26857.4375
1073.11995	27287.9375
1076.79611	27683.4375
1080.46974	28003.4375
1084.14085	28557.9375
1087.80943	29339.3375
1091.47549	29786.8375
1095.13903	29442.0375
1098.80005	28500.1375
1102.45857	27484.7375
1106.11456	26778.7375
1109.76805	26653.0375
1113.41903	27014.6375
1117.06751	27711.1375
1120.71348	28674.0375
1124.35696	29737.8375
1127.99793	30717.0375
1131.63641	30797.1375
1135.2724	29798.1375
1138.90589	28690.2375
1142.5369	28053.1375
1146.16542	27685.5375
1149.79145	27559.1375
1153.415	27702.9375
1157.03607	28153.9375
1160.65467	28984.9375
1164.27079	30318.0375
1167.88443	32294.4375
1171.49561	35304.3375
1175.10432	39881.7375
1178.71056	45815.6375
1182.31434	50528.5375
1185.91565	52542.3375
1189.51451	52017.5375
1193.11091	49458.2375
1196.70485	45817.8375
1200.29634	42589.0375
1203.88538	40053.0375
1207.47197	37586.0375
1211.05612	35594.3375
1214.63782	34458.1375
1218.21708	34145.5375
1221.79391	34265.5375
1225.36829	34526.6375
1228.94024	34604.7375
1232.50976	34396.8375
1236.07685	34159.1375
1239.6415	33901.0375
1243.20374	33621.9375
1246.76355	33621.0375
1250.32093	34069.8375
1253.8759	35033.8375
1257.42845	36356.9375
1260.97859	37833.9375
1264.52631	39045.7375
1268.07163	40431.7375
1271.61453	41771.9375
1275.15503	43152.7375
1278.69312	44294.1375
1282.22882	45368.8375
1285.76211	46610.8375
1289.29301	48241.7375
1292.82151	49975.1375
1296.34761	52125.6375
1299.87133	55004.7375
1303.39266	59217.6375
1306.9116	65335.7375
1310.42815	72146.7375
1313.94233	76993.9375
1317.45412	77334.9375
1320.96354	74347.8375
1324.47058	70484.8375
1327.97525	66719.6375
1331.47754	64224.6375
1334.97747	62923.2375
1338.47502	62596.3375
1341.97022	62822.6375
1345.46305	63037.5375
1348.95352	63420.1375
1352.44163	64462.4375
1355.92738	67713.4375
1359.41078	74389.0375
1362.89183	81767.2375
1366.37053	80704.3375
1369.84688	70609.3375
1373.32088	59683.1375
1376.79254	52606.4375
1380.26186	49273.6375
1383.72883	47762.6375
1387.19347	46772.6375
1390.65578	45733.8375
1394.11575	45215.7375
1397.57339	45595.1375
1401.0287	46603.3375
1404.48168	47661.5375
1407.93234	48552.2375
1411.38068	48658.2375
1414.82669	47682.7375
1418.27039	45768.0375
1421.71177	43639.0375
1425.15083	41728.5375
1428.58758	40639.2375
1432.02203	40488.6375
1435.45416	40850.8375
1438.88399	41390.3375
1442.31151	41826.4375
1445.73673	42419.1375
1449.15965	43005.1375
1452.58027	43443.1375
1455.9986	43483.0375
1459.41463	43629.2375
1462.82837	44255.7375
1466.23982	45092.0375
1469.64898	46022.9375
1473.05586	46533.7375
1476.46045	46750.7375
1479.86276	46949.0375
1483.26279	47393.8375
1486.66054	48030.1375
1490.05602	49076.0375
1493.44922	50400.4375
1496.84016	52324.4375
1500.22882	55200.5375
1503.61521	59315.0375
1506.99934	64476.4375
1510.38121	69925.6375
1513.76081	73143.4375
1517.13816	71408.3375
1520.51324	65563.0375
1523.88607	58912.4375
1527.25665	53994.3375
1530.62498	51005.5375
1533.99105	49167.4375
1537.35488	47934.3375
1540.71647	47026.5375
1544.07581	46240.0375
1547.4329	45422.9375
1550.78776	44790.5375
1554.14038	44269.5375
1557.49077	44463.5375
1560.83892	44903.8375
1564.18484	45690.2375
1567.52853	46344.1375
1570.86999	46692.5375
1574.20922	47095.2375
1577.54624	47035.7375
1580.88103	45808.4375
1584.2136	44339.8375
1587.54395	44370.3375
1590.87208	46425.6375
1594.19801	49992.8375
1597.52172	53845.1375
1600.84321	55338.4375
1604.16251	52938.9375
1607.47959	48330.9375
1610.79447	43513.9375
1614.10715	39103.7375
1617.41763	35626.4375
1620.7259	33446.5375
1624.03199	32298.7375
1627.33587	32355.3375
1630.63757	33501.8375
1633.93707	35869.5375
1637.23439	39494.9375
1640.52951	44439.5375
1643.82246	50214.5375
1647.11321	55719.8375
1650.40179	58779.8375
1653.68819	56360.9375
1656.97241	48817.7375
1660.25446	40235.7375
1663.53433	33729.2375
1666.81203	29584.1375
1670.08756	27135.7375
1673.36092	25641.2375
1676.63211	24719.3375
1679.90115	24084.1375
1683.16801	23634.6375
1686.43272	23217.4375
1689.69527	23027.1375
1692.95567	22830.4375
1696.2139	22681.1375
1699.46999	22608.7375
1702.72392	22532.5375
1705.97571	22432.1375
1709.22535	22429.6375
1712.47284	22420.5375
1715.71819	22410.5375
1718.96139	22362.5375
1722.20246	22307.0375
1725.44139	22242.4375
1728.67818	22026.5375
1731.91284	21868.5375
1735.14537	21732.8375
1738.37576	21587.9375
1741.60403	21504.7375
1744.83017	21383.5375
1748.05418	21295.5375
1751.27607	21265.6375
1754.49584	21240.6375
1757.71349	21222.1375
1760.92903	21187.6375
1764.14244	21154.6375
1767.35375	21112.4375
1770.56294	21081.1375
1773.77002	21019.8375
1776.97499	20967.3375
1780.17785	20891.3375
1783.37861	20860.9375
1786.57727	20816.1375
1789.77382	20769.1375
1792.96828	20776.0375
1796.16064	20743.6375
1799.3509	20699.7375
1802.53907	20700.2375
1805.72514	20595.5375
1808.90913	20564.1375
1812.09102	20511.8375
1815.27083	20486.8375
1818.44856	20420.8375
1821.6242	20385.4375
1824.79776	20382.5375
1827.96924	20393.5375
1831.13864	20330.8375
1834.30597	20358.5375
1837.47122	20316.4375
1840.6344	20321.5375
1843.7955	20340.3375
1846.95454	20376.6375
1850.11151	20374.6375
1853.26642	20382.6375
1856.41926	20375.3375
1859.57004	20416.1375
1862.71876	20452.4375
1865.86542	20438.7375
1869.01003	20476.8375
1872.15258	20489.5375
1875.29308	20514.6375
1878.43152	20560.8375
1881.56792	20580.8375
1884.70227	20605.2375
1887.83457	20654.0375
1890.96482	20646.3375
1894.09304	20681.2375
1897.21921	20668.2375
1900.34335	20680.2375
1903.46544	20701.7375
1906.58551	20724.6375
1909.70353	20746.0375
1912.81953	20734.3375
1915.93349	20733.9375
1919.04543	20718.0375
1922.15534	20652.7375
1925.26322	20605.0375
1928.36908	20528.6375
1931.47292	20400.1375
1934.57473	20236.1375
1937.67453	20158.4375
1940.77232	20004.0375
1943.86808	19877.4375
1946.96184	19759.5375
1950.05358	19648.8375
1953.14331	19566.9375
1956.23103	19455.9375
1959.31675	19405.3375
1962.40046	19314.1375
1965.48217	19275.0375
1968.56188	19254.8375
1971.63959	19165.8375
1974.7153	19089.2375
1977.78901	19026.8375
1980.86073	18919.0375
1983.93046	18894.0375
1986.99819	18831.1375
1990.06394	18743.4375
1993.1277	18714.8375
1996.18947	18628.8375
1999.24925	18555.6375
2002.30706	18517.7375
2005.36288	18463.1375
2008.41672	18398.4375
2011.46859	18357.9375
2014.51848	18296.7375
2017.56639	18247.2375
2020.61233	18190.1375
2023.6563	18179.8375
2026.6983	18103.0375
2029.73833	18102.6375
2032.7764	18014.7375
2035.8125	18020.0375
2038.84664	17964.0375
2041.87881	17968.1375
2044.90903	17962.4375
2047.93729	17906.1375
2050.96359	17890.5375
2053.98794	17859.5375
2057.01034	17824.9375
2060.03078	17807.7375
2063.04927	17798.8375
2066.06582	17832.8375
2069.08042	17755.0375
2072.09307	17733.9375
2075.10378	17704.8375
2078.11255	17693.5375
2081.11938	17710.7375
2084.12426	17649.5375
2087.12722	17645.3375
2090.12824	17648.7375
2093.12732	17653.1375
2096.12447	17640.7375
2099.11969	17630.6375
2102.11299	17608.9375
2105.10435	17606.8375
2108.09379	17621.2375
2111.08131	17649.1375
2114.0669	17630.1375
2117.05057	17671.2375
2120.03233	17665.8375
2123.01216	17686.5375
2125.99008	17718.9375
2128.96609	17707.4375
2131.94018	17728.9375
2134.91236	17737.2375
2137.88263	17746.8375
2140.851	17737.8375
2143.81746	17765.5375
2146.78201	17736.7375
2149.74466	17726.8375
2152.7054	17691.4375
2155.66425	17677.0375
2158.6212	17675.7375
2161.57625	17653.0375
2164.52941	17681.5375
2167.48067	17670.3375
2170.43004	17668.3375
2173.37752	17627.4375
2176.32311	17637.0375
2179.26681	17624.2375
2182.20863	17630.0375
2185.14856	17619.3375
2188.08661	17645.2375
2191.02278	17653.6375
2193.95707	17636.5375
2196.88948	17599.6375
2199.82001	17602.3375
2202.74867	17566.9375
2205.67545	17571.6375
2208.60037	17585.2375
2211.52341	17571.6375
2214.44458	17555.4375
2217.36388	17514.5375
2220.28132	17485.9375
2223.1969	17422.7375
2226.11061	17407.2375
2229.02246	17375.6375
2231.93245	17363.9375
2234.84058	17310.9375
2237.74686	17306.8375
2240.65128	17272.2375
2243.55385	17260.3375
2246.45456	17225.8375
2249.35343	17220.2375
2252.25044	17182.0375
2255.14561	17145.5375
2258.03893	17136.6375
2260.93041	17139.3375
2263.82004	17078.8375
2266.70783	17056.2375
2269.59378	16981.4375
2272.4779	16909.3375
2275.36017	16880.0375
2278.24061	16852.9375
2281.11922	16841.0375
2283.996	16834.8375
2286.87094	16785.9375
2289.74405	16790.2375
2292.61534	16760.7375
2295.4848	16741.5375
2298.35243	16739.4375
2301.21824	16729.3375
2304.08223	16738.3375
2306.94439	16765.2375
2309.80474	16812.8375
2312.66327	16808.2375
2315.51999	16774.0375
2318.37489	16749.1375
2321.22797	16739.9375
2324.07925	16737.4375
2326.92871	16733.1375
2329.77637	16675.3375
2332.62222	16705.1375
2335.46626	16704.6375
2338.3085	16682.0375
2341.14893	16735.0375
2343.98756	16771.3375
2346.8244	16769.8375
2349.65943	16791.1375
2352.49267	16788.8375
2355.32411	16825.9375
2358.15376	16848.0375
2360.98161	16814.9375
2363.80768	16792.5375
2366.63195	16788.8375
2369.45444	16779.6375
2372.27514	16747.4375
2375.09405	16730.4375
2377.91118	16647.9375
2380.72652	16586.8375
2383.54009	16566.9375
2386.35187	16507.8375
2389.16188	16460.4375
2391.97011	16428.5375
2394.77657	16378.3375
2397.58125	16340.5375
2400.38416	16299.5375
2403.18529	16272.2375
2405.98466	16229.7375
2408.78226	16219.7375
2411.57809	16155.0375
2414.37216	16128.2375
2417.16446	16161.2375
2419.955	16120.6375
2422.74378	16099.1375
2425.5308	16043.2375
2428.31606	16051.3375
2431.09956	16064.6375
2433.88131	16069.0375
2436.6613	16066.7375
2439.43954	16065.8375
2442.21603	16050.9375
2444.99077	16046.0375
2447.76377	16046.4375
2450.53501	16037.0375
2453.30451	16047.1375
2456.07226	15988.1375
2458.83827	16001.6375
2461.60254	16059.3375
2464.36507	16007.7375
2467.12586	16006.3375
2469.88492	16024.0375
2472.64224	16043.3375
2475.39782	16086.0375
2478.15167	16116.5375
2480.90379	16124.2375
2483.65417	16170.5375
2486.40283	16167.1375
2489.14976	16221.8375
2491.89497	16226.4375
2494.63845	16226.0375
2497.3802	16231.8375
2500.12024	16255.3375
2502.85855	16224.0375
2505.59514	16206.2375
2508.33002	16168.6375
2511.06318	16135.2375
2513.79462	16107.1375
2516.52435	16068.7375
2519.25237	16019.6375
2521.97867	15986.3375
2524.70327	15954.1375
2527.42616	15916.7375
2530.14734	15976.1375
2532.86681	15942.1375
2535.58458	15965.6375
2538.30065	15930.5375
2541.01501	15942.3375
2543.72768	15924.8375
2546.43864	15929.3375
2549.14791	15908.1375
2551.85548	15938.5375
2554.56136	15891.7375
2557.26554	15848.0375
2559.96803	15877.1375
2562.66883	15836.8375
2565.36794	15786.9375
2568.06536	15781.9375
2570.7611	15769.8375
2573.45514	15813.2375
2576.14751	15763.8375
2578.83819	15747.2375
2581.52719	15791.1375
2584.21451	15764.0375
2586.90015	15772.6375
2589.58411	15789.6375
2592.2664	15782.9375
2594.94701	15761.7375
2597.62594	15746.2375
2600.30321	15736.8375
2602.9788	15746.1375
2605.65273	15746.6375
2608.32498	15759.0375
2610.99557	15775.6375
2613.66449	15767.5375
2616.33175	15791.5375
2618.99734	15801.4375
2621.66128	15779.0375
2624.32355	15785.7375
2626.98416	15797.7375
2629.64311	15803.2375
2632.30041	15790.0375
2634.95605	15762.8375
2637.61004	15766.5375
2640.26238	15696.2375
2642.91306	15701.6375
2645.56209	15660.1375
2648.20948	15676.2375
2650.85521	15668.7375
2653.4993	15681.3375
2656.14175	15660.8375
2658.78255	15671.8375
2661.42171	15677.9375
2664.05923	15702.5375
2666.6951	15719.2375
2669.32934	15763.2375
2671.96194	15783.3375
2674.59291	15795.5375
2677.22224	15805.1375
2679.84993	15802.5375
2682.476	15758.9375
2685.10043	15768.0375
2687.72324	15723.0375
2690.34441	15718.3375
2692.96396	15704.7375
2695.58188	15707.7375
2698.19818	15680.6375
2700.81285	15678.6375
2703.4259	15670.9375
2706.03733	15731.3375
2708.64714	15720.2375
2711.25533	15724.6375
2713.86191	15688.1375
2716.46687	15730.0375
2719.07021	15726.5375
2721.67194	15769.0375
2724.27206	15733.7375
2726.87057	15763.9375
2729.46747	15770.4375
2732.06276	15778.9375
2734.65644	15732.8375
2737.24852	15732.7375
2739.83899	15723.6375
2742.42786	15725.3375
2745.01513	15675.4375
2747.60079	15687.8375
2750.18486	15683.1375
2752.76733	15693.8375
2755.3482	15654.4375
2757.92747	15658.6375
2760.50515	15614.4375
2763.08123	15656.5375
2765.65573	15607.6375
2768.22863	15615.3375
2770.79994	15603.9375
2773.36967	15639.8375
2775.9378	15600.9375
2778.50435	15607.3375
2781.06932	15594.9375
2783.6327	15638.9375
2786.1945	15620.3375
2788.75471	15658.2375
2791.31335	15603.3375
2793.87041	15558.1375
2796.42589	15526.5375
2798.97979	15530.6375
2801.53212	15518.3375
2804.08288	15503.0375
2806.63206	15459.8375
2809.17967	15439.2375
2811.72571	15421.9375
2814.27018	15425.0375
2816.81308	15408.6375
2819.35442	15393.0375
2821.89419	15385.7375
2824.43239	15427.4375
2826.96904	15432.3375
2829.50412	15415.9375
2832.03763	15389.1375
2834.56959	15393.0375
2837.1	15345.8375
2839.62884	15382.2375
2842.15613	15383.2375
2844.68186	15454.2375
2847.20604	15487.0375
2849.72867	15484.6375
2852.24974	15495.7375
2854.76927	15491.7375
2857.28724	15481.3375
2859.80367	15486.3375
2862.31855	15438.1375
2864.83189	15435.8375
2867.34368	15414.2375
2869.85393	15415.6375
2872.36264	15345.6375
2874.8698	15348.0375
2877.37543	15373.6375
2879.87952	15343.1375
2882.38207	15368.3375
2884.88308	15337.0375
2887.38256	15346.7375
2889.88051	15340.1375
2892.37692	15332.9375
2894.8718	15333.7375
2897.36515	15369.5375
2899.85698	15364.3375
2902.34727	15420.6375
2904.83604	15389.2375
2907.32328	15448.0375
2909.809	15441.7375
2912.29319	15444.2375
2914.77587	15420.1375
2917.25702	15428.8375
2919.73665	15433.4375
2922.21476	15410.0375
2924.69136	15375.6375
2927.16644	15403.5375
2929.64	15317.1375
2932.11205	15271.6375
2934.58258	15234.2375
2937.05161	15218.0375
2939.51912	15215.8375
2941.98513	15179.2375
2944.44962	15141.5375
2946.91261	15059.1375
2949.37409	15063.7375
2951.83407	15017.3375
2954.29254	14997.9375
2956.74951	15004.8375
2959.20498	14978.4375
2961.65895	14944.0375
2964.11142	14915.8375
2966.56239	14881.8375
2969.01186	14871.8375
2971.45984	14843.1375
2973.90632	14846.2375
2976.35131	14780.9375
2978.7948	14711.4375
2981.23681	14695.7375
2983.67732	14670.4375
2986.11635	14647.7375
2988.55388	14590.9375
2990.98993	14559.8375
2993.4245	14527.3375
2995.85758	14467.0375
2998.28917	14450.6375
3000.71928	14442.2375
3003.14791	14398.8375
3005.57506	14377.1375
3008.00073	14335.2375
3010.42493	14353.2375
3012.84764	14334.2375
3015.26888	14291.2375
3017.68865	14260.7375
3020.10694	14216.7375
3022.52376	14168.1375
3024.9391	14155.1375
3027.35298	14150.6375
3029.76539	14122.6375
3032.17632	14084.6375
3034.5858	14051.3375
3036.9938	14055.2375
3039.40034	14044.0375
3041.80542	14001.7375
3044.20903	13979.5375
3046.61118	14003.6375
3049.01187	13962.6375
3051.4111	13961.3375
3053.80888	13929.7375
3056.20519	13882.2375
3058.60005	13818.5375
3060.99345	13821.3375
3063.3854	13762.3375
3065.7759	13687.6375
3068.16494	13656.4375
3070.55254	13609.2375
3072.93868	13570.2375
3075.32338	13525.9375
3077.70662	13476.7375
3080.08842	13439.1375
3082.46878	13418.8375
3084.84769	13358.1375
3087.22515	13352.4375
3089.60118	13362.5375
3091.97576	13346.3375
3094.3489	13344.5375
3096.72061	13317.5375
3099.09087	13283.1375
3101.4597	13260.2375
3103.82709	13263.3375
3106.19305	13259.4375
3108.55757	13245.7375
3110.92066	13185.1375
3113.28232	13195.6375
3115.64255	13176.6375
3118.00134	13125.2375
3120.35871	13123.6375
3122.71466	13099.8375
3125.06917	13052.4375
3127.42226	13035.7375
3129.77393	13036.2375
3132.12417	12965.0375
3134.47299	12979.5375
3136.82039	12956.2375
3139.16636	12960.8375
3141.51092	12931.4375
3143.85406	12934.5375
3146.19579	12947.0375
3148.53609	12956.0375
3150.87499	12928.4375
3153.21246	12928.5375
3155.54853	12932.6375
3157.88318	12937.8375
3160.21642	12920.7375
3162.54826	12932.7375
3164.87868	12929.5375
3167.2077	12930.5375
3169.5353	12914.8375
3171.86151	12887.4375
3174.18631	12891.1375
3176.5097	12915.4375
3178.83169	12870.0375
3181.15228	12868.7375
3183.47147	12836.9375
3185.78926	12817.5375
3188.10565	12764.0375
3190.42065	12780.0375
3192.73424	12779.8375
3195.04645	12801.1375
3197.35725	12773.4375
3199.66667	12748.2375
3201.97469	12782.8375
3204.28132	12784.9375
3206.58656	12807.1375
3208.8904	12805.7375
3211.19287	12784.0375
3213.49394	12820.7375
3215.79363	12813.4375
3218.09193	12825.8375
3220.38884	12797.7375
3222.68438	12819.5375
3224.97853	12777.2375
3227.2713	12787.6375
3229.56269	12783.5375
3231.8527	12745.4375
3234.14133	12734.4375
3236.42858	12706.7375
3238.71446	12690.5375
3240.99896	12661.4375
3243.28209	12653.7375
3245.56384	12632.3375
3247.84423	12613.8375
3250.12324	12597.9375
3252.40088	12550.6375
3254.67715	12551.3375
3256.95205	12567.6375
3259.22558	12552.6375
3261.49775	12536.3375
3263.76855	12495.9375
3266.03799	12502.2375
3268.30606	12461.9375
3270.57277	12433.1375
3272.83812	12396.2375
3275.10211	12371.8375
3277.36474	12347.7375
3279.62601	12338.9375
3281.88593	12337.4375
3284.14448	12369.9375
3286.40168	12344.9375
3288.65753	12340.8375
3290.91202	12323.1375
3293.16516	12275.4375
3295.41695	12262.7375
3297.66738	12191.5375
3299.91647	12141.2375
3302.16421	12039.1375
3304.4106	11993.8375
3306.65564	11882.3375
3308.89933	11814.5375
3311.14169	11736.7375
3313.38269	11636.5375
3315.62236	11564.0375
3317.86068	11470.3375
3320.09766	11382.5375
3322.3333	11294.6375
3324.5676	11237.2375
3326.80056	11086.4375
3329.03219	11019.7375
3331.26248	3.6375
3333.49143	-1.5625
3335.71905	0.2375
