Data from AgNPs_FTO_APTES_UA_5uM_CRN_50uM_R6G_10uM_NaF_0.1M_Addition_RamanShift__22__14-08-16-831.txt Node

Date: Mon Feb 07 14:08:16 GMT 2022
User: TCL
Spectrometer: QEP01345
Trigger mode: 4
Integration Time (sec): 7.000000E0
Scans to average: 10
Electric dark correction enabled: true
Nonlinearity correction enabled: false
Boxcar width: 0
XAxis mode: Raman Shifts
Number of Pixels in Spectrum: 1044
>>>>>Begin Spectral Data<<<<<
46.04893	-0.3625
50.45542	-1.7625
54.85868	-0.6625
59.25871	0.1375
63.6555	76.7375
68.04907	80.4375
72.43941	82.1375
76.82654	84.3375
81.21044	83.8375
85.59113	91.4375
89.96862	95.2375
94.34289	95.1375
98.71396	100.5375
103.08183	103.5375
107.4465	106.8375
111.80798	105.8375
116.16626	115.7375
120.52136	119.7375
124.87327	127.9375
129.222	131.5375
133.56755	142.2375
137.90993	153.9375
142.24913	170.8375
146.58517	195.8375
150.91804	225.6375
155.24774	276.2375
159.57429	345.9375
163.89768	453.7375
168.21792	602.6375
172.53501	821.1375
176.84895	1145.9375
181.15975	1624.3375
185.46741	2276.8375
189.77193	3143.6375
194.07331	4193.5375
198.37157	5408.4375
202.6667	6673.7375
206.9587	7912.5375
211.24758	9182.2375
215.53334	10415.8375
219.81599	11740.0375
224.09553	13185.4375
228.37195	14807.8375
232.64527	16600.6375
236.91549	18413.7375
241.18261	20277.6375
245.44663	22046.1375
249.70755	23577.5375
253.96539	24971.8375
258.22014	26185.2375
262.4718	27217.6375
266.72039	27969.3375
270.96589	28458.7375
275.20832	28665.0375
279.44768	28676.9375
283.68397	28606.1375
287.91719	28584.4375
292.14735	28593.0375
296.37445	28664.4375
300.59849	28826.7375
304.81948	28830.5375
309.03742	28603.3375
313.25231	28071.4375
317.46415	27200.6375
321.67296	26247.0375
325.87872	25504.5375
330.08145	25085.5375
334.28114	25028.1375
338.47781	25216.0375
342.67145	25460.2375
346.86207	25877.5375
351.04966	26373.2375
355.23424	26949.0375
359.4158	27364.3375
363.59435	27668.4375
367.76989	27819.7375
371.94243	27973.8375
376.11196	28109.0375
380.27849	28282.0375
384.44203	28422.1375
388.60257	28630.8375
392.76012	28957.4375
396.91468	29348.0375
401.06626	29809.6375
405.21485	30136.7375
409.36047	30029.2375
413.50311	29555.6375
417.64277	29150.2375
421.77947	29074.1375
425.9132	29216.5375
430.04396	29441.5375
434.17176	29713.6375
438.2966	30006.8375
442.41849	30618.5375
446.53742	31430.9375
450.6534	32478.7375
454.76644	33226.3375
458.87653	33592.8375
462.98368	33580.2375
467.08789	33274.9375
471.18916	32955.1375
475.2875	32754.1375
479.38291	32881.6375
483.4754	32723.7375
487.56496	32273.3375
491.6516	31471.2375
495.73531	30756.2375
499.81612	30348.2375
503.89401	30278.5375
507.96899	30305.5375
512.04106	30178.8375
516.11023	29902.2375
520.1765	29545.9375
524.23987	29183.4375
528.30034	28814.6375
532.35792	28625.8375
536.41261	28343.3375
540.46441	28112.2375
544.51333	28219.3375
548.55936	28722.8375
552.60252	29421.9375
556.64279	30262.5375
560.6802	30843.6375
564.71473	31194.1375
568.7464	31808.2375
572.7752	32645.2375
576.80114	33189.1375
580.82422	33539.3375
584.84444	33926.6375
588.86181	34265.7375
592.87633	34823.1375
596.888	35277.2375
600.89682	35388.6375
604.9028	36031.3375
608.90594	38217.2375
612.90624	40558.7375
616.90371	37960.6375
620.89834	32078.2375
624.89015	29536.6375
628.87913	29426.6375
632.86528	29663.9375
636.84862	29698.8375
640.82913	29143.9375
644.80683	28296.4375
648.78172	27559.8375
652.75379	27302.3375
656.72306	27444.2375
660.68952	27873.0375
664.65319	27772.3375
668.61405	27361.7375
672.57211	27212.5375
676.52738	27245.1375
680.47986	27219.3375
684.42955	27144.1375
688.37646	27037.4375
692.32058	27127.6375
696.26192	27394.4375
700.20048	27668.8375
704.13626	27893.0375
708.06928	27921.4375
711.99952	27746.5375
715.927	27645.9375
719.85171	27672.2375
723.77365	27591.1375
727.69284	27314.9375
731.60928	27084.9375
735.52295	27028.8375
739.43388	27053.0375
743.34206	27091.9375
747.24749	27238.5375
751.15017	27500.6375
755.05012	28070.2375
758.94733	29005.9375
762.8418	30594.6375
766.73354	32993.9375
770.62254	35075.8375
774.50882	35355.4375
778.39237	33531.2375
782.27321	30841.3375
786.15132	28795.2375
790.02671	27600.8375
793.89938	26973.2375
797.76935	26750.6375
801.6366	26734.4375
805.50115	26696.8375
809.36299	26646.4375
813.22213	26445.6375
817.07857	26423.8375
820.93231	26399.5375
824.78336	26294.1375
828.63172	26132.3375
832.47738	26065.7375
836.32036	26062.0375
840.16066	26118.5375
843.99827	26178.9375
847.8332	26135.2375
851.66546	26011.8375
855.49504	25948.9375
859.32195	25914.6375
863.1462	25838.5375
866.96777	25724.4375
870.78668	25618.5375
874.60293	25613.5375
878.41652	25613.6375
882.22745	25666.5375
886.03573	25750.7375
889.84136	25748.9375
893.64433	25611.1375
897.44466	25537.8375
901.24235	25425.4375
905.0374	25375.0375
908.8298	25295.6375
912.61957	25422.6375
916.40671	25733.9375
920.19121	26158.1375
923.97308	26434.1375
927.75233	26383.7375
931.52895	26165.0375
935.30295	25870.6375
939.07433	25333.7375
942.84309	24993.0375
946.60924	24779.2375
950.37278	24649.9375
954.13371	24631.8375
957.89203	24559.6375
961.64774	24525.9375
965.40086	24511.2375
969.15137	24388.8375
972.89929	24206.0375
976.64461	24090.1375
980.38733	24028.6375
984.12747	24064.2375
987.86502	24287.5375
991.59999	24613.0375
995.33237	25005.2375
999.06217	25708.9375
1002.78939	26540.8375
1006.51404	27029.7375
1010.23611	27317.7375
1013.95561	27533.7375
1017.67255	27598.7375
1021.38692	27313.2375
1025.09872	27055.9375
1028.80796	27104.0375
1032.51465	27710.7375
1036.21877	28235.4375
1039.92035	28372.7375
1043.61937	28092.5375
1047.31584	27548.4375
1051.00976	26971.4375
1054.70114	26752.3375
1058.38998	26883.5375
1062.07627	27130.6375
1065.76003	27400.9375
1069.44126	27612.2375
1073.11995	27834.7375
1076.79611	28025.6375
1080.46974	28134.7375
1084.14085	28304.2375
1087.80943	28598.3375
1091.47549	28917.5375
1095.13903	28979.8375
1098.80005	28705.1375
1102.45857	28156.7375
1106.11456	27684.2375
1109.76805	27459.9375
1113.41903	27604.8375
1117.06751	27839.8375
1120.71348	28262.0375
1124.35696	28493.7375
1127.99793	28857.1375
1131.63641	28980.3375
1135.2724	28851.6375
1138.90589	28655.3375
1142.5369	28611.5375
1146.16542	28706.2375
1149.79145	28962.0375
1153.415	29399.9375
1157.03607	30046.3375
1160.65467	30944.0375
1164.27079	32384.3375
1167.88443	34221.3375
1171.49561	36419.6375
1175.10432	39388.9375
1178.71056	42860.9375
1182.31434	46032.0375
1185.91565	47814.1375
1189.51451	47939.1375
1193.11091	46872.4375
1196.70485	45136.9375
1200.29634	43177.7375
1203.88538	41650.8375
1207.47197	40591.0375
1211.05612	39791.4375
1214.63782	38943.3375
1218.21708	38103.5375
1221.79391	37388.2375
1225.36829	36824.6375
1228.94024	36264.5375
1232.50976	35595.7375
1236.07685	35124.7375
1239.6415	34852.3375
1243.20374	34854.5375
1246.76355	35124.4375
1250.32093	35653.6375
1253.8759	36449.0375
1257.42845	37519.6375
1260.97859	38516.4375
1264.52631	39389.9375
1268.07163	40364.8375
1271.61453	41483.5375
1275.15503	42854.6375
1278.69312	44293.8375
1282.22882	45701.3375
1285.76211	47047.2375
1289.29301	48698.4375
1292.82151	50915.1375
1296.34761	53803.1375
1299.87133	57167.5375
1303.39266	60789.8375
1306.9116	64417.5375
1310.42815	67747.4375
1313.94233	69901.4375
1317.45412	70438.5375
1320.96354	69849.0375
1324.47058	69073.1375
1327.97525	68324.5375
1331.47754	67732.1375
1334.97747	67566.2375
1338.47502	67634.2375
1341.97022	67505.8375
1345.46305	66537.5375
1348.95352	64731.6375
1352.44163	62934.9375
1355.92738	62124.5375
1359.41078	63132.7375
1362.89183	64466.0375
1366.37053	63208.5375
1369.84688	58448.1375
1373.32088	52995.2375
1376.79254	49191.9375
1380.26186	47961.1375
1383.72883	48163.5375
1387.19347	48770.0375
1390.65578	49088.2375
1394.11575	49588.4375
1397.57339	50761.8375
1401.0287	52331.6375
1404.48168	53619.2375
1407.93234	54063.6375
1411.38068	53240.7375
1414.82669	51145.7375
1418.27039	48335.3375
1421.71177	45460.0375
1425.15083	43048.9375
1428.58758	41664.8375
1432.02203	41468.5375
1435.45416	42220.5375
1438.88399	43579.2375
1442.31151	44908.6375
1445.73673	46111.6375
1449.15965	47245.6375
1452.58027	48285.5375
1455.9986	48986.2375
1459.41463	49625.6375
1462.82837	50439.9375
1466.23982	51236.5375
1469.64898	51903.5375
1473.05586	52047.8375
1476.46045	51714.1375
1479.86276	51084.2375
1483.26279	50219.4375
1486.66054	49534.9375
1490.05602	49155.7375
1493.44922	48984.0375
1496.84016	48978.1375
1500.22882	49306.9375
1503.61521	50128.0375
1506.99934	51551.0375
1510.38121	52948.9375
1513.76081	53651.6375
1517.13816	53029.8375
1520.51324	51561.4375
1523.88607	50219.0375
1527.25665	49488.2375
1530.62498	49234.2375
1533.99105	49236.2375
1537.35488	49186.2375
1540.71647	48751.1375
1544.07581	47852.8375
1547.4329	46720.2375
1550.78776	45702.6375
1554.14038	45017.0375
1557.49077	44732.1375
1560.83892	44544.0375
1564.18484	44449.9375
1567.52853	44424.9375
1570.86999	44559.0375
1574.20922	45143.1375
1577.54624	45994.8375
1580.88103	46503.3375
1584.2136	47190.8375
1587.54395	48724.1375
1590.87208	51116.1375
1594.19801	54143.6375
1597.52172	56975.8375
1600.84321	57774.7375
1604.16251	55291.7375
1607.47959	50895.5375
1610.79447	46281.1375
1614.10715	41980.3375
1617.41763	38429.9375
1620.7259	35977.8375
1624.03199	34596.2375
1627.33587	34401.4375
1630.63757	35353.4375
1633.93707	37792.8375
1637.23439	41617.6375
1640.52951	46745.3375
1643.82246	52508.1375
1647.11321	56850.7375
1650.40179	57682.3375
1653.68819	53967.8375
1656.97241	47239.4375
1660.25446	40233.6375
1663.53433	34706.9375
1666.81203	30950.6375
1670.08756	28663.4375
1673.36092	27086.9375
1676.63211	26092.9375
1679.90115	25440.4375
1683.16801	24925.3375
1686.43272	24513.1375
1689.69527	24279.2375
1692.95567	24089.2375
1696.2139	23891.4375
1699.46999	23769.3375
1702.72392	23624.2375
1705.97571	23566.2375
1709.22535	23504.8375
1712.47284	23454.5375
1715.71819	23357.8375
1718.96139	23280.5375
1722.20246	23184.1375
1725.44139	23085.6375
1728.67818	22940.1375
1731.91284	22790.5375
1735.14537	22675.7375
1738.37576	22531.1375
1741.60403	22478.3375
1744.83017	22402.5375
1748.05418	22361.0375
1751.27607	22332.2375
1754.49584	22293.5375
1757.71349	22313.1375
1760.92903	22235.5375
1764.14244	22236.7375
1767.35375	22232.7375
1770.56294	22157.0375
1773.77002	22126.9375
1776.97499	22057.4375
1780.17785	22019.7375
1783.37861	22000.6375
1786.57727	21946.7375
1789.77382	21896.1375
1792.96828	21871.1375
1796.16064	21884.9375
1799.3509	21799.4375
1802.53907	21773.1375
1805.72514	21715.9375
1808.90913	21652.3375
1812.09102	21571.4375
1815.27083	21511.6375
1818.44856	21490.6375
1821.6242	21497.7375
1824.79776	21438.4375
1827.96924	21420.8375
1831.13864	21429.2375
1834.30597	21419.4375
1837.47122	21378.1375
1840.6344	21404.7375
1843.7955	21396.3375
1846.95454	21413.2375
1850.11151	21395.3375
1853.26642	21359.6375
1856.41926	21404.8375
1859.57004	21400.8375
1862.71876	21416.8375
1865.86542	21385.7375
1869.01003	21339.8375
1872.15258	21303.0375
1875.29308	21331.6375
1878.43152	21306.2375
1881.56792	21292.4375
1884.70227	21318.5375
1887.83457	21307.1375
1890.96482	21291.0375
1894.09304	21258.9375
1897.21921	21229.4375
1900.34335	21275.8375
1903.46544	21227.6375
1906.58551	21242.7375
1909.70353	21231.3375
1912.81953	21182.8375
1915.93349	21163.6375
1919.04543	21131.0375
1922.15534	21096.9375
1925.26322	21008.4375
1928.36908	20947.7375
1931.47292	20915.8375
1934.57473	20845.1375
1937.67453	20808.8375
1940.77232	20725.3375
1943.86808	20690.5375
1946.96184	20612.4375
1950.05358	20535.5375
1953.14331	20477.3375
1956.23103	20394.4375
1959.31675	20321.1375
1962.40046	20247.1375
1965.48217	20226.3375
1968.56188	20117.1375
1971.63959	20075.3375
1974.7153	20009.2375
1977.78901	19967.4375
1980.86073	19849.9375
1983.93046	19808.3375
1986.99819	19765.2375
1990.06394	19706.7375
1993.1277	19667.2375
1996.18947	19617.6375
1999.24925	19544.9375
2002.30706	19489.4375
2005.36288	19446.7375
2008.41672	19409.5375
2011.46859	19351.9375
2014.51848	19294.8375
2017.56639	19241.5375
2020.61233	19195.7375
2023.6563	19148.1375
2026.6983	19080.0375
2029.73833	19051.7375
2032.7764	19012.8375
2035.8125	18974.6375
2038.84664	18933.4375
2041.87881	18961.9375
2044.90903	18950.8375
2047.93729	18908.5375
2050.96359	18869.5375
2053.98794	18813.3375
2057.01034	18849.5375
2060.03078	18831.1375
2063.04927	18792.5375
2066.06582	18785.6375
2069.08042	18763.3375
2072.09307	18752.6375
2075.10378	18712.3375
2078.11255	18695.3375
2081.11938	18707.9375
2084.12426	18706.3375
2087.12722	18664.3375
2090.12824	18647.9375
2093.12732	18630.5375
2096.12447	18652.3375
2099.11969	18646.7375
2102.11299	18642.2375
2105.10435	18638.4375
2108.09379	18646.9375
2111.08131	18638.5375
2114.0669	18657.9375
2117.05057	18700.1375
2120.03233	18698.2375
2123.01216	18716.4375
2125.99008	18693.0375
2128.96609	18701.5375
2131.94018	18749.2375
2134.91236	18713.2375
2137.88263	18773.1375
2140.851	18803.6375
2143.81746	18788.7375
2146.78201	18788.4375
2149.74466	18761.8375
2152.7054	18789.2375
2155.66425	18743.0375
2158.6212	18735.1375
2161.57625	18726.7375
2164.52941	18740.8375
2167.48067	18756.3375
2170.43004	18715.5375
2173.37752	18740.8375
2176.32311	18729.6375
2179.26681	18734.6375
2182.20863	18728.7375
2185.14856	18716.8375
2188.08661	18756.1375
2191.02278	18757.5375
2193.95707	18733.4375
2196.88948	18713.3375
2199.82001	18691.9375
2202.74867	18688.4375
2205.67545	18669.9375
2208.60037	18639.9375
2211.52341	18651.5375
2214.44458	18676.6375
2217.36388	18605.6375
2220.28132	18574.8375
2223.1969	18538.4375
2226.11061	18522.0375
2229.02246	18482.5375
2231.93245	18459.5375
2234.84058	18391.7375
2237.74686	18325.6375
2240.65128	18327.5375
2243.55385	18336.1375
2246.45456	18266.6375
2249.35343	18256.7375
2252.25044	18229.4375
2255.14561	18178.8375
2258.03893	18147.8375
2260.93041	18132.3375
2263.82004	18118.1375
2266.70783	18089.7375
2269.59378	18010.6375
2272.4779	17955.6375
2275.36017	17911.4375
2278.24061	17881.4375
2281.11922	17856.3375
2283.996	17808.5375
2286.87094	17804.6375
2289.74405	17763.5375
2292.61534	17771.3375
2295.4848	17732.7375
2298.35243	17739.0375
2301.21824	17752.0375
2304.08223	17774.5375
2306.94439	17778.7375
2309.80474	17768.0375
2312.66327	17799.0375
2315.51999	17777.5375
2318.37489	17800.2375
2321.22797	17746.9375
2324.07925	17752.9375
2326.92871	17729.9375
2329.77637	17684.0375
2332.62222	17668.3375
2335.46626	17677.7375
2338.3085	17663.5375
2341.14893	17656.1375
2343.98756	17712.9375
2346.8244	17690.3375
2349.65943	17709.0375
2352.49267	17692.3375
2355.32411	17693.8375
2358.15376	17655.6375
2360.98161	17667.2375
2363.80768	17647.4375
2366.63195	17640.9375
2369.45444	17617.7375
2372.27514	17556.8375
2375.09405	17529.2375
2377.91118	17510.1375
2380.72652	17468.8375
2383.54009	17407.4375
2386.35187	17407.7375
2389.16188	17395.6375
2391.97011	17329.7375
2394.77657	17297.0375
2397.58125	17297.5375
2400.38416	17245.0375
2403.18529	17224.0375
2405.98466	17230.9375
2408.78226	17177.6375
2411.57809	17158.7375
2414.37216	17139.9375
2417.16446	17129.6375
2419.955	17066.4375
2422.74378	17061.6375
2425.5308	17033.9375
2428.31606	17052.6375
2431.09956	17041.1375
2433.88131	17042.5375
2436.6613	17049.7375
2439.43954	17065.5375
2442.21603	17022.1375
2444.99077	17020.7375
2447.76377	17004.6375
2450.53501	16966.1375
2453.30451	17009.1375
2456.07226	16978.5375
2458.83827	16975.4375
2461.60254	16992.4375
2464.36507	17008.2375
2467.12586	16937.8375
2469.88492	16953.6375
2472.64224	17032.7375
2475.39782	17003.2375
2478.15167	17023.4375
2480.90379	17028.3375
2483.65417	17037.7375
2486.40283	17056.1375
2489.14976	17062.0375
2491.89497	17052.3375
2494.63845	17106.4375
2497.3802	17101.6375
2500.12024	17112.9375
2502.85855	17092.8375
2505.59514	17069.2375
2508.33002	17057.0375
2511.06318	17044.7375
2513.79462	17014.4375
2516.52435	17000.2375
2519.25237	17019.8375
2521.97867	17008.6375
2524.70327	16973.8375
2527.42616	16969.9375
2530.14734	16989.0375
2532.86681	16981.9375
2535.58458	17010.6375
2538.30065	16966.9375
2541.01501	16967.4375
2543.72768	16972.7375
2546.43864	16955.7375
2549.14791	16913.9375
2551.85548	16906.9375
2554.56136	16905.9375
2557.26554	16867.9375
2559.96803	16816.6375
2562.66883	16837.4375
2565.36794	16791.4375
2568.06536	16788.1375
2570.7611	16807.1375
2573.45514	16754.4375
2576.14751	16776.1375
2578.83819	16756.9375
2581.52719	16777.4375
2584.21451	16804.4375
2586.90015	16781.8375
2589.58411	16784.4375
2592.2664	16779.0375
2594.94701	16760.5375
2597.62594	16766.0375
2600.30321	16771.1375
2602.9788	16728.3375
2605.65273	16767.5375
2608.32498	16799.0375
2610.99557	16757.4375
2613.66449	16801.8375
2616.33175	16782.8375
2618.99734	16822.2375
2621.66128	16797.2375
2624.32355	16786.3375
2626.98416	16804.7375
2629.64311	16801.8375
2632.30041	16824.1375
2634.95605	16796.8375
2637.61004	16796.0375
2640.26238	16767.9375
2642.91306	16779.6375
2645.56209	16748.5375
2648.20948	16757.2375
2650.85521	16775.8375
2653.4993	16788.8375
2656.14175	16747.5375
2658.78255	16753.9375
2661.42171	16788.3375
2664.05923	16828.4375
2666.6951	16826.0375
2669.32934	16837.6375
2671.96194	16831.6375
2674.59291	16833.5375
2677.22224	16813.3375
2679.84993	16848.9375
2682.476	16800.8375
2685.10043	16792.6375
2687.72324	16784.8375
2690.34441	16776.6375
2692.96396	16748.3375
2695.58188	16744.8375
2698.19818	16740.3375
2700.81285	16765.5375
2703.4259	16800.1375
2706.03733	16829.8375
2708.64714	16831.5375
2711.25533	16810.9375
2713.86191	16814.3375
2716.46687	16823.8375
2719.07021	16845.8375
2721.67194	16877.3375
2724.27206	16848.3375
2726.87057	16899.9375
2729.46747	16934.5375
2732.06276	16948.7375
2734.65644	16921.2375
2737.24852	16924.2375
2739.83899	16865.9375
2742.42786	16916.3375
2745.01513	16874.0375
2747.60079	16875.6375
2750.18486	16863.8375
2752.76733	16838.2375
2755.3482	16860.9375
2757.92747	16861.8375
2760.50515	16830.8375
2763.08123	16890.6375
2765.65573	16887.0375
2768.22863	16875.4375
2770.79994	16888.2375
2773.36967	16905.0375
2775.9378	16886.4375
2778.50435	16890.5375
2781.06932	16883.8375
2783.6327	16909.4375
2786.1945	16875.1375
2788.75471	16923.2375
2791.31335	16861.3375
2793.87041	16831.9375
2796.42589	16793.9375
2798.97979	16799.6375
2801.53212	16750.6375
2804.08288	16738.5375
2806.63206	16684.7375
2809.17967	16662.8375
2811.72571	16662.5375
2814.27018	16639.8375
2816.81308	16595.8375
2819.35442	16581.7375
2821.89419	16503.6375
2824.43239	16545.3375
2826.96904	16558.6375
2829.50412	16539.3375
2832.03763	16480.0375
2834.56959	16475.5375
2837.1	16470.1375
2839.62884	16471.8375
2842.15613	16481.9375
2844.68186	16487.6375
2847.20604	16507.0375
2849.72867	16532.7375
2852.24974	16505.5375
2854.76927	16525.3375
2857.28724	16508.1375
2859.80367	16503.0375
2862.31855	16463.8375
2864.83189	16435.3375
2867.34368	16418.7375
2869.85393	16400.6375
2872.36264	16372.3375
2874.8698	16396.0375
2877.37543	16362.6375
2879.87952	16359.3375
2882.38207	16384.6375
2884.88308	16387.9375
2887.38256	16370.8375
2889.88051	16411.6375
2892.37692	16388.6375
2894.8718	16403.1375
2897.36515	16428.1375
2899.85698	16448.0375
2902.34727	16501.5375
2904.83604	16491.0375
2907.32328	16556.5375
2909.809	16514.9375
2912.29319	16566.8375
2914.77587	16555.2375
2917.25702	16581.4375
2919.73665	16556.2375
2922.21476	16537.9375
2924.69136	16513.0375
2927.16644	16532.5375
2929.64	16490.5375
2932.11205	16492.0375
2934.58258	16437.1375
2937.05161	16446.5375
2939.51912	16431.5375
2941.98513	16410.7375
2944.44962	16366.1375
2946.91261	16314.7375
2949.37409	16306.4375
2951.83407	16285.1375
2954.29254	16293.4375
2956.74951	16271.4375
2959.20498	16256.6375
2961.65895	16216.2375
2964.11142	16221.6375
2966.56239	16178.6375
2969.01186	16186.8375
2971.45984	16119.2375
2973.90632	16154.7375
2976.35131	16133.5375
2978.7948	16104.1375
2981.23681	16040.3375
2983.67732	16045.6375
2986.11635	15991.6375
2988.55388	15915.3375
2990.98993	15911.5375
2993.4245	15879.9375
2995.85758	15822.7375
2998.28917	15769.5375
3000.71928	15749.5375
3003.14791	15687.3375
3005.57506	15720.8375
3008.00073	15643.3375
3010.42493	15539.6375
3012.84764	15570.8375
3015.26888	15592.2375
3017.68865	15507.5375
3020.10694	15523.2375
3022.52376	15494.3375
3024.9391	15488.6375
3027.35298	15451.8375
3029.76539	15462.7375
3032.17632	15389.9375
3034.5858	15384.2375
3036.9938	15381.5375
3039.40034	15403.1375
3041.80542	15397.2375
3044.20903	15361.9375
3046.61118	15387.5375
3049.01187	15321.2375
3051.4111	15340.9375
3053.80888	15299.7375
3056.20519	15242.0375
3058.60005	15219.9375
3060.99345	15175.4375
3063.3854	15151.9375
3065.7759	15064.5375
3068.16494	15061.8375
3070.55254	14987.6375
3072.93868	14944.1375
3075.32338	14914.5375
3077.70662	14874.7375
3080.08842	14825.8375
3082.46878	14792.5375
3084.84769	14766.5375
3087.22515	14775.0375
3089.60118	14757.8375
3091.97576	14792.2375
3094.3489	14738.4375
3096.72061	14742.6375
3099.09087	14727.3375
3101.4597	14724.6375
3103.82709	14718.3375
3106.19305	14705.8375
3108.55757	14680.1375
3110.92066	14643.8375
3113.28232	14638.1375
3115.64255	14612.5375
3118.00134	14566.8375
3120.35871	14564.1375
3122.71466	14491.4375
3125.06917	14498.6375
3127.42226	14460.3375
3129.77393	14430.9375
3132.12417	14394.1375
3134.47299	14386.0375
3136.82039	14389.2375
3139.16636	14365.2375
3141.51092	14324.4375
3143.85406	14357.5375
3146.19579	14343.7375
3148.53609	14335.7375
3150.87499	14341.5375
3153.21246	14363.1375
3155.54853	14368.2375
3157.88318	14347.8375
3160.21642	14382.6375
3162.54826	14398.3375
3164.87868	14367.9375
3167.2077	14379.0375
3169.5353	14362.6375
3171.86151	14367.6375
3174.18631	14348.0375
3176.5097	14321.8375
3178.83169	14313.7375
3181.15228	14325.3375
3183.47147	14266.3375
3185.78926	14270.2375
3188.10565	14238.1375
3190.42065	14238.6375
3192.73424	14224.8375
3195.04645	14237.2375
3197.35725	14213.7375
3199.66667	14188.6375
3201.97469	14200.8375
3204.28132	14206.1375
3206.58656	14214.7375
3208.8904	14208.9375
3211.19287	14237.2375
3213.49394	14234.1375
3215.79363	14210.9375
3218.09193	14224.2375
3220.38884	14216.1375
3222.68438	14233.2375
3224.97853	14212.8375
3227.2713	14198.2375
3229.56269	14178.6375
3231.8527	14175.3375
3234.14133	14128.9375
3236.42858	14096.2375
3238.71446	14133.4375
3240.99896	14072.3375
3243.28209	14066.9375
3245.56384	14031.1375
3247.84423	14034.3375
3250.12324	14024.0375
3252.40088	13993.3375
3254.67715	13997.1375
3256.95205	13986.4375
3259.22558	13969.5375
3261.49775	13951.5375
3263.76855	13933.5375
3266.03799	13889.2375
3268.30606	13869.2375
3270.57277	13870.6375
3272.83812	13806.5375
3275.10211	13789.1375
3277.36474	13763.3375
3279.62601	13777.9375
3281.88593	13737.0375
3284.14448	13779.8375
3286.40168	13763.0375
3288.65753	13766.1375
3290.91202	13776.0375
3293.16516	13725.2375
3295.41695	13688.2375
3297.66738	13620.1375
3299.91647	13538.0375
3302.16421	13442.4375
3304.4106	13401.3375
3306.65564	13300.8375
3308.89933	13226.5375
3311.14169	13137.5375
3313.38269	13036.9375
3315.62236	12949.1375
3317.86068	12840.6375
3320.09766	12728.6375
3322.3333	12650.1375
3324.5676	12617.4375
3326.80056	12397.7375
3329.03219	12316.3375
3331.26248	4.0375
3333.49143	-1.2625
3335.71905	-0.4625
