Data from AgNPs_FTO_APTES_UA_5uM_CRN_100uM_R6G_10uM_NaF_0.1M_Addition_RamanShift__25__15-05-26-897.txt Node

Date: Mon Feb 07 15:05:26 GMT 2022
User: TCL
Spectrometer: QEP01345
Trigger mode: 4
Integration Time (sec): 7.000000E0
Scans to average: 10
Electric dark correction enabled: true
Nonlinearity correction enabled: false
Boxcar width: 0
XAxis mode: Raman Shifts
Number of Pixels in Spectrum: 1044
>>>>>Begin Spectral Data<<<<<
46.04893	-0.3125
50.45542	-0.9125
54.85868	-1.5125
59.25871	-0.0125
63.6555	75.7875
68.04907	76.6875
72.43941	81.8875
76.82654	87.5875
81.21044	89.6875
85.59113	90.6875
89.96862	95.7875
94.34289	93.8875
98.71396	99.8875
103.08183	103.8875
107.4465	106.1875
111.80798	109.1875
116.16626	112.8875
120.52136	119.4875
124.87327	126.5875
129.222	136.8875
133.56755	143.2875
137.90993	158.4875
142.24913	175.3875
146.58517	197.8875
150.91804	238.1875
155.24774	289.3875
159.57429	359.5875
163.89768	467.3875
168.21792	637.5875
172.53501	864.7875
176.84895	1213.3875
181.15975	1712.8875
185.46741	2388.5875
189.77193	3303.5875
194.07331	4447.2875
198.37157	5727.6875
202.6667	7081.1875
206.9587	8432.3875
211.24758	9791.9875
215.53334	11137.6875
219.81599	12612.4875
224.09553	14283.4875
228.37195	16087.8875
232.64527	18059.3875
236.91549	20100.6875
241.18261	22082.2875
245.44663	23857.3875
249.70755	25361.5875
253.96539	26666.6875
258.22014	27871.3875
262.4718	28887.8875
266.72039	29735.6875
270.96589	30223.4875
275.20832	30368.9875
279.44768	30306.3875
283.68397	30128.3875
287.91719	29995.5875
292.14735	30075.8875
296.37445	30454.1875
300.59849	30997.2875
304.81948	31484.1875
309.03742	31646.8875
313.25231	31193.5875
317.46415	29892.9875
321.67296	28220.4875
325.87872	26866.9875
330.08145	26200.6875
334.28114	26149.2875
338.47781	26412.2875
342.67145	26867.1875
346.86207	27646.3875
351.04966	28775.6875
355.23424	29992.6875
359.4158	30904.5875
363.59435	31399.6875
367.76989	31582.6875
371.94243	31630.6875
376.11196	31604.6875
380.27849	31617.8875
384.44203	31565.2875
388.60257	31452.5875
392.76012	31454.8875
396.91468	31811.8875
401.06626	32410.2875
405.21485	32953.4875
409.36047	32618.8875
413.50311	31534.1875
417.64277	30518.8875
421.77947	29999.3875
425.9132	29921.5875
430.04396	30028.3875
434.17176	30274.8875
438.2966	30644.3875
442.41849	31319.5875
446.53742	32231.6875
450.6534	33155.5875
454.76644	33934.3875
458.87653	34117.2875
462.98368	33996.9875
467.08789	33670.9875
471.18916	33369.5875
475.2875	33073.1875
479.38291	32854.6875
483.4754	32559.8875
487.56496	32050.5875
491.6516	31346.3875
495.73531	30795.2875
499.81612	30505.5875
503.89401	30587.7875
507.96899	30747.7875
512.04106	30831.5875
516.11023	30905.1875
520.1765	30879.7875
524.23987	30622.5875
528.30034	30211.1875
532.35792	29833.6875
536.41261	29460.5875
540.46441	29080.9875
544.51333	29024.9875
548.55936	29389.5875
552.60252	30137.0875
556.64279	30984.0875
560.6802	31548.3875
564.71473	32078.0875
568.7464	33008.1875
572.7752	33911.6875
576.80114	33680.2875
580.82422	33112.2875
584.84444	32854.1875
588.86181	32931.3875
592.87633	33228.7875
596.888	33584.3875
600.89682	34041.6875
604.9028	35989.3875
608.90594	41750.6875
612.90624	49232.4875
616.90371	47007.7875
620.89834	36047.0875
624.89015	31074.7875
628.87913	30274.3875
632.86528	30442.8875
636.84862	30586.1875
640.82913	29976.8875
644.80683	28854.7875
648.78172	28103.6875
652.75379	27962.4875
656.72306	28603.1875
660.68952	29476.5875
664.65319	29370.3875
668.61405	28528.1875
672.57211	28074.2875
676.52738	28061.9875
680.47986	28074.6875
684.42955	28016.7875
688.37646	27875.0875
692.32058	27975.2875
696.26192	28202.0875
700.20048	28557.6875
704.13626	28790.5875
708.06928	28784.3875
711.99952	28561.5875
715.927	28409.2875
719.85171	28460.9875
723.77365	28364.9875
727.69284	28182.4875
731.60928	27922.0875
735.52295	27877.8875
739.43388	27886.4875
743.34206	27965.2875
747.24749	28110.5875
751.15017	28390.9875
755.05012	28916.9875
758.94733	30064.3875
762.8418	32374.7875
766.73354	36204.6875
770.62254	40051.1875
774.50882	41615.6875
778.39237	39587.2875
782.27321	35279.3875
786.15132	31439.9875
790.02671	29268.6875
793.89938	28252.5875
797.76935	27803.5875
801.6366	27669.4875
805.50115	27574.1875
809.36299	27457.2875
813.22213	27372.6875
817.07857	27403.3875
820.93231	27397.2875
824.78336	27349.5875
828.63172	27335.2875
832.47738	27321.3875
836.32036	27304.5875
840.16066	27228.5875
843.99827	27236.6875
847.8332	27105.2875
851.66546	27010.0875
855.49504	26963.6875
859.32195	26952.9875
863.1462	26860.3875
866.96777	26785.5875
870.78668	26653.2875
874.60293	26722.1875
878.41652	26712.0875
882.22745	26803.6875
886.03573	26926.3875
889.84136	26863.9875
893.64433	26753.8875
897.44466	26633.9875
901.24235	26587.3875
905.0374	26549.9875
908.8298	26484.0875
912.61957	26515.5875
916.40671	26767.4875
920.19121	27069.8875
923.97308	27283.0875
927.75233	27386.8875
931.52895	27448.9875
935.30295	27165.1875
939.07433	26565.5875
942.84309	26052.0875
946.60924	25758.5875
950.37278	25564.6875
954.13371	25432.1875
957.89203	25364.4875
961.64774	25349.3875
965.40086	25287.8875
969.15137	25185.3875
972.89929	25053.3875
976.64461	24961.6875
980.38733	24938.9875
984.12747	25002.0875
987.86502	25203.5875
991.59999	25462.5875
995.33237	25844.8875
999.06217	26482.3875
1002.78939	27280.2875
1006.51404	27851.0875
1010.23611	28220.9875
1013.95561	28538.0875
1017.67255	28504.4875
1021.38692	28127.9875
1025.09872	27835.2875
1028.80796	27871.9875
1032.51465	28321.6875
1036.21877	28789.7875
1039.92035	28914.0875
1043.61937	28723.9875
1047.31584	28290.2875
1051.00976	27806.0875
1054.70114	27636.1875
1058.38998	27676.4875
1062.07627	27890.0875
1065.76003	28150.5875
1069.44126	28244.7875
1073.11995	28394.0875
1076.79611	28614.0875
1080.46974	28858.7875
1084.14085	29264.1875
1087.80943	29738.6875
1091.47549	30078.8875
1095.13903	29934.0875
1098.80005	29384.0875
1102.45857	28765.4875
1106.11456	28316.9875
1109.76805	28314.6875
1113.41903	28681.5875
1117.06751	29266.1875
1120.71348	30013.3875
1124.35696	30768.5875
1127.99793	31435.4875
1131.63641	31464.3875
1135.2724	30666.8875
1138.90589	29805.6875
1142.5369	29331.0875
1146.16542	29157.6875
1149.79145	29149.9875
1153.415	29379.5875
1157.03607	29814.0875
1160.65467	30536.6875
1164.27079	31651.0875
1167.88443	33334.2875
1171.49561	35709.8875
1175.10432	39145.5875
1178.71056	43535.2875
1182.31434	47190.2875
1185.91565	48732.4875
1189.51451	48357.4875
1193.11091	46559.0875
1196.70485	44093.3875
1200.29634	41914.3875
1203.88538	40162.8875
1207.47197	38501.6875
1211.05612	37078.6875
1214.63782	36079.8875
1218.21708	35545.6875
1221.79391	35260.4875
1225.36829	35018.2875
1228.94024	34677.4875
1232.50976	34258.6875
1236.07685	33920.3875
1239.6415	33865.4875
1243.20374	33952.5875
1246.76355	34200.4875
1250.32093	34727.8875
1253.8759	35528.2875
1257.42845	36615.1875
1260.97859	37607.5875
1264.52631	38406.9875
1268.07163	39328.4875
1271.61453	40289.7875
1275.15503	41309.6875
1278.69312	42149.9875
1282.22882	42936.4875
1285.76211	43897.9875
1289.29301	45217.3875
1292.82151	46939.9875
1296.34761	49096.2875
1299.87133	51828.8875
1303.39266	55535.7875
1306.9116	60193.8875
1310.42815	65212.3875
1313.94233	68396.9875
1317.45412	68188.4875
1320.96354	66067.0875
1324.47058	63573.7875
1327.97525	61218.9875
1331.47754	59640.6875
1334.97747	59175.8875
1338.47502	59430.5875
1341.97022	60001.7875
1345.46305	60115.9875
1348.95352	60036.2875
1352.44163	60233.4875
1355.92738	61920.4875
1359.41078	66304.3875
1362.89183	71023.8875
1366.37053	69421.7875
1369.84688	61275.7875
1373.32088	53127.7875
1376.79254	48059.0875
1380.26186	45861.1875
1383.72883	45334.1875
1387.19347	45234.5875
1390.65578	45100.8875
1394.11575	45091.7875
1397.57339	45760.5875
1401.0287	46845.7875
1404.48168	47889.0875
1407.93234	48487.5875
1411.38068	48265.2875
1414.82669	47057.5875
1418.27039	44999.1875
1421.71177	42772.3875
1425.15083	40852.6875
1428.58758	39713.5875
1432.02203	39499.2875
1435.45416	39987.0875
1438.88399	40675.5875
1442.31151	41319.9875
1445.73673	42083.6875
1449.15965	42989.2875
1452.58027	43690.2875
1455.9986	44127.3875
1459.41463	44694.7875
1462.82837	45299.3875
1466.23982	46055.5875
1469.64898	46636.6875
1473.05586	46814.3875
1476.46045	46604.1875
1479.86276	46396.7875
1483.26279	46292.8875
1486.66054	46333.3875
1490.05602	46745.6875
1493.44922	47319.2875
1496.84016	48337.7875
1500.22882	50252.0875
1503.61521	53273.0875
1506.99934	57134.1875
1510.38121	61152.4875
1513.76081	63195.1875
1517.13816	61510.0875
1520.51324	56945.7875
1523.88607	52164.7875
1527.25665	49030.6875
1530.62498	47330.9875
1533.99105	46327.7875
1537.35488	45827.7875
1540.71647	45371.4875
1544.07581	44932.0875
1547.4329	44289.9875
1550.78776	43722.0875
1554.14038	43414.6875
1557.49077	43436.7875
1560.83892	43807.8875
1564.18484	44181.8875
1567.52853	44715.0875
1570.86999	45064.3875
1574.20922	45471.1875
1577.54624	45709.8875
1580.88103	45161.6875
1584.2136	44417.7875
1587.54395	44758.7875
1590.87208	46369.7875
1594.19801	48943.1875
1597.52172	51788.4875
1600.84321	52749.3875
1604.16251	50728.6875
1607.47959	47112.6875
1610.79447	43112.0875
1614.10715	39319.1875
1617.41763	36281.0875
1620.7259	34227.5875
1624.03199	33147.6875
1627.33587	32940.8875
1630.63757	33794.4875
1633.93707	35603.2875
1637.23439	38571.3875
1640.52951	42654.1875
1643.82246	47547.0875
1647.11321	52229.5875
1650.40179	54564.1875
1653.68819	52322.0875
1656.97241	45994.0875
1660.25446	39055.7875
1663.53433	33742.9875
1666.81203	30347.9875
1670.08756	28283.5875
1673.36092	27017.1875
1676.63211	26173.2875
1679.90115	25579.6875
1683.16801	25157.0875
1686.43272	24812.7875
1689.69527	24567.0875
1692.95567	24440.4875
1696.2139	24270.0875
1699.46999	24195.0875
1702.72392	24117.9875
1705.97571	24036.9875
1709.22535	23978.6875
1712.47284	23965.9875
1715.71819	23930.1875
1718.96139	23896.3875
1722.20246	23866.0875
1725.44139	23725.8875
1728.67818	23586.5875
1731.91284	23426.0875
1735.14537	23292.3875
1738.37576	23211.8875
1741.60403	23141.7875
1744.83017	23077.0875
1748.05418	23010.5875
1751.27607	22968.3875
1754.49584	22931.1875
1757.71349	22912.5875
1760.92903	22862.5875
1764.14244	22844.8875
1767.35375	22818.0875
1770.56294	22772.9875
1773.77002	22710.8875
1776.97499	22663.3875
1780.17785	22600.3875
1783.37861	22600.9875
1786.57727	22580.3875
1789.77382	22518.5875
1792.96828	22520.1875
1796.16064	22470.9875
1799.3509	22421.5875
1802.53907	22383.8875
1805.72514	22301.9875
1808.90913	22244.8875
1812.09102	22212.7875
1815.27083	22157.7875
1818.44856	22083.8875
1821.6242	22052.3875
1824.79776	22040.3875
1827.96924	21986.3875
1831.13864	22026.6875
1834.30597	21992.9875
1837.47122	21955.3875
1840.6344	21959.6875
1843.7955	21958.1875
1846.95454	21964.5875
1850.11151	21907.8875
1853.26642	21927.3875
1856.41926	21936.6875
1859.57004	21938.8875
1862.71876	21935.7875
1865.86542	21956.3875
1869.01003	21918.0875
1872.15258	21886.8875
1875.29308	21901.8875
1878.43152	21909.1875
1881.56792	21873.5875
1884.70227	21891.6875
1887.83457	21885.1875
1890.96482	21850.0875
1894.09304	21869.1875
1897.21921	21879.6875
1900.34335	21829.6875
1903.46544	21824.3875
1906.58551	21865.0875
1909.70353	21835.0875
1912.81953	21843.1875
1915.93349	21812.7875
1919.04543	21743.0875
1922.15534	21739.0875
1925.26322	21668.9875
1928.36908	21579.4875
1931.47292	21545.0875
1934.57473	21451.4875
1937.67453	21415.7875
1940.77232	21335.3875
1943.86808	21272.0875
1946.96184	21203.4875
1950.05358	21110.3875
1953.14331	21070.6875
1956.23103	21010.7875
1959.31675	20948.8875
1962.40046	20883.9875
1965.48217	20812.0875
1968.56188	20766.6875
1971.63959	20684.8875
1974.7153	20625.9875
1977.78901	20563.5875
1980.86073	20485.3875
1983.93046	20415.2875
1986.99819	20298.4875
1990.06394	20253.1875
1993.1277	20234.4875
1996.18947	20145.0875
1999.24925	20096.2875
2002.30706	20034.7875
2005.36288	19974.1875
2008.41672	19943.5875
2011.46859	19880.0875
2014.51848	19823.3875
2017.56639	19802.5875
2020.61233	19725.1875
2023.6563	19676.8875
2026.6983	19586.9875
2029.73833	19569.7875
2032.7764	19536.4875
2035.8125	19496.8875
2038.84664	19456.8875
2041.87881	19445.6875
2044.90903	19409.7875
2047.93729	19373.1875
2050.96359	19368.8875
2053.98794	19348.2875
2057.01034	19327.6875
2060.03078	19271.1875
2063.04927	19257.1875
2066.06582	19267.2875
2069.08042	19250.3875
2072.09307	19226.4875
2075.10378	19176.0875
2078.11255	19169.9875
2081.11938	19208.5875
2084.12426	19157.0875
2087.12722	19159.7875
2090.12824	19128.3875
2093.12732	19115.6875
2096.12447	19105.7875
2099.11969	19107.0875
2102.11299	19132.5875
2105.10435	19103.8875
2108.09379	19119.5875
2111.08131	19116.1875
2114.0669	19124.4875
2117.05057	19188.2875
2120.03233	19196.0875
2123.01216	19164.1875
2125.99008	19187.1875
2128.96609	19203.5875
2131.94018	19261.1875
2134.91236	19237.4875
2137.88263	19267.8875
2140.851	19246.4875
2143.81746	19291.0875
2146.78201	19269.3875
2149.74466	19266.2875
2152.7054	19266.6875
2155.66425	19196.4875
2158.6212	19205.2875
2161.57625	19184.8875
2164.52941	19221.1875
2167.48067	19191.5875
2170.43004	19179.2875
2173.37752	19162.2875
2176.32311	19154.5875
2179.26681	19180.2875
2182.20863	19170.9875
2185.14856	19154.0875
2188.08661	19207.2875
2191.02278	19199.4875
2193.95707	19151.4875
2196.88948	19167.3875
2199.82001	19135.7875
2202.74867	19127.5875
2205.67545	19080.8875
2208.60037	19105.1875
2211.52341	19083.8875
2214.44458	19067.9875
2217.36388	19038.6875
2220.28132	18999.2875
2223.1969	18923.7875
2226.11061	18931.4875
2229.02246	18921.2875
2231.93245	18843.8875
2234.84058	18791.7875
2237.74686	18764.1875
2240.65128	18729.1875
2243.55385	18694.0875
2246.45456	18696.4875
2249.35343	18654.0875
2252.25044	18644.8875
2255.14561	18612.9875
2258.03893	18610.3875
2260.93041	18604.2875
2263.82004	18522.0875
2266.70783	18482.6875
2269.59378	18421.6875
2272.4779	18383.6875
2275.36017	18309.2875
2278.24061	18298.1875
2281.11922	18282.7875
2283.996	18282.1875
2286.87094	18194.1875
2289.74405	18190.2875
2292.61534	18177.1875
2295.4848	18140.3875
2298.35243	18123.7875
2301.21824	18107.5875
2304.08223	18120.0875
2306.94439	18119.9875
2309.80474	18152.3875
2312.66327	18169.3875
2315.51999	18130.7875
2318.37489	18139.3875
2321.22797	18106.5875
2324.07925	18087.3875
2326.92871	18067.0875
2329.77637	18069.8875
2332.62222	18028.3875
2335.46626	18013.5875
2338.3085	17998.6875
2341.14893	18026.7875
2343.98756	18037.7875
2346.8244	18061.1875
2349.65943	18076.8875
2352.49267	18013.7875
2355.32411	18048.7875
2358.15376	18036.0875
2360.98161	18024.2875
2363.80768	18012.1875
2366.63195	18094.1875
2369.45444	17994.2875
2372.27514	17996.9875
2375.09405	17940.0875
2377.91118	17893.1875
2380.72652	17827.2875
2383.54009	17774.2875
2386.35187	17769.3875
2389.16188	17690.2875
2391.97011	17672.4875
2394.77657	17599.0875
2397.58125	17595.8875
2400.38416	17572.1875
2403.18529	17514.3875
2405.98466	17484.4875
2408.78226	17435.4875
2411.57809	17435.0875
2414.37216	17395.9875
2417.16446	17378.2875
2419.955	17381.3875
2422.74378	17351.3875
2425.5308	17288.8875
2428.31606	17335.9875
2431.09956	17322.2875
2433.88131	17290.7875
2436.6613	17313.0875
2439.43954	17295.9875
2442.21603	17301.5875
2444.99077	17250.6875
2447.76377	17343.5875
2450.53501	17276.8875
2453.30451	17279.1875
2456.07226	17254.1875
2458.83827	17271.3875
2461.60254	17228.4875
2464.36507	17213.4875
2467.12586	17196.6875
2469.88492	17210.7875
2472.64224	17242.5875
2475.39782	17244.3875
2478.15167	17285.2875
2480.90379	17218.4875
2483.65417	17273.7875
2486.40283	17309.7875
2489.14976	17306.2875
2491.89497	17316.3875
2494.63845	17339.1875
2497.3802	17331.5875
2500.12024	17330.4875
2502.85855	17323.1875
2505.59514	17280.2875
2508.33002	17243.3875
2511.06318	17246.9875
2513.79462	17179.6875
2516.52435	17189.5875
2519.25237	17164.0875
2521.97867	17113.0875
2524.70327	17091.0875
2527.42616	17074.6875
2530.14734	17066.6875
2532.86681	17043.5875
2535.58458	17051.2875
2538.30065	17053.3875
2541.01501	17058.7875
2543.72768	17039.0875
2546.43864	17009.4875
2549.14791	16986.7875
2551.85548	16992.7875
2554.56136	16969.7875
2557.26554	16948.9875
2559.96803	16940.6875
2562.66883	16891.0875
2565.36794	16889.4875
2568.06536	16845.2875
2570.7611	16862.7875
2573.45514	16809.0875
2576.14751	16787.0875
2578.83819	16778.4875
2581.52719	16802.4875
2584.21451	16789.2875
2586.90015	16806.8875
2589.58411	16796.3875
2592.2664	16781.4875
2594.94701	16742.9875
2597.62594	16750.5875
2600.30321	16743.1875
2602.9788	16749.7875
2605.65273	16697.1875
2608.32498	16697.1875
2610.99557	16713.4875
2613.66449	16721.0875
2616.33175	16718.5875
2618.99734	16739.8875
2621.66128	16742.4875
2624.32355	16695.3875
2626.98416	16688.8875
2629.64311	16679.2875
2632.30041	16718.9875
2634.95605	16686.6875
2637.61004	16645.2875
2640.26238	16605.0875
2642.91306	16604.6875
2645.56209	16579.1875
2648.20948	16586.8875
2650.85521	16588.9875
2653.4993	16586.7875
2656.14175	16577.8875
2658.78255	16592.2875
2661.42171	16617.6875
2664.05923	16612.4875
2666.6951	16662.5875
2669.32934	16669.7875
2671.96194	16678.2875
2674.59291	16656.0875
2677.22224	16676.1875
2679.84993	16663.5875
2682.476	16653.7875
2685.10043	16654.8875
2687.72324	16596.1875
2690.34441	16626.4875
2692.96396	16555.8875
2695.58188	16594.6875
2698.19818	16582.4875
2700.81285	16615.7875
2703.4259	16663.2875
2706.03733	16680.3875
2708.64714	16657.0875
2711.25533	16654.4875
2713.86191	16628.3875
2716.46687	16688.7875
2719.07021	16673.3875
2721.67194	16689.9875
2724.27206	16671.8875
2726.87057	16659.0875
2729.46747	16688.2875
2732.06276	16683.1875
2734.65644	16666.1875
2737.24852	16674.9875
2739.83899	16648.2875
2742.42786	16650.7875
2745.01513	16615.0875
2747.60079	16630.9875
2750.18486	16637.3875
2752.76733	16565.7875
2755.3482	16554.8875
2757.92747	16592.5875
2760.50515	16577.2875
2763.08123	16559.9875
2765.65573	16575.0875
2768.22863	16545.9875
2770.79994	16527.7875
2773.36967	16577.5875
2775.9378	16552.9875
2778.50435	16527.0875
2781.06932	16545.6875
2783.6327	16563.9875
2786.1945	16581.2875
2788.75471	16573.5875
2791.31335	16525.1875
2793.87041	16513.2875
2796.42589	16433.1875
2798.97979	16463.9875
2801.53212	16414.9875
2804.08288	16400.0875
2806.63206	16344.6875
2809.17967	16288.4875
2811.72571	16265.8875
2814.27018	16272.9875
2816.81308	16238.8875
2819.35442	16236.3875
2821.89419	16238.5875
2824.43239	16213.2875
2826.96904	16210.3875
2829.50412	16219.3875
2832.03763	16174.0875
2834.56959	16174.0875
2837.1	16147.7875
2839.62884	16172.4875
2842.15613	16182.6875
2844.68186	16219.1875
2847.20604	16231.3875
2849.72867	16243.7875
2852.24974	16254.4875
2854.76927	16279.8875
2857.28724	16248.5875
2859.80367	16234.8875
2862.31855	16182.9875
2864.83189	16157.3875
2867.34368	16167.1875
2869.85393	16173.1875
2872.36264	16149.2875
2874.8698	16143.7875
2877.37543	16090.4875
2879.87952	16109.1875
2882.38207	16101.6875
2884.88308	16112.0875
2887.38256	16112.6875
2889.88051	16108.9875
2892.37692	16121.7875
2894.8718	16099.5875
2897.36515	16112.2875
2899.85698	16109.1875
2902.34727	16131.5875
2904.83604	16154.3875
2907.32328	16201.3875
2909.809	16207.5875
2912.29319	16196.1875
2914.77587	16192.7875
2917.25702	16195.9875
2919.73665	16189.3875
2922.21476	16180.3875
2924.69136	16162.9875
2927.16644	16146.8875
2929.64	16127.5875
2932.11205	16071.0875
2934.58258	16014.2875
2937.05161	16031.7875
2939.51912	16039.3875
2941.98513	16017.8875
2944.44962	15956.6875
2946.91261	15906.8875
2949.37409	15908.6875
2951.83407	15880.3875
2954.29254	15833.9875
2956.74951	15820.2875
2959.20498	15830.9875
2961.65895	15808.3875
2964.11142	15779.6875
2966.56239	15756.6875
2969.01186	15767.4875
2971.45984	15722.4875
2973.90632	15733.2875
2976.35131	15678.5875
2978.7948	15663.4875
2981.23681	15636.2875
2983.67732	15577.9875
2986.11635	15541.1875
2988.55388	15474.7875
2990.98993	15475.9875
2993.4245	15421.5875
2995.85758	15365.0875
2998.28917	15305.0875
3000.71928	15313.9875
3003.14791	15287.9875
3005.57506	15279.7875
3008.00073	15212.2875
3010.42493	15122.6875
3012.84764	15204.0875
3015.26888	15169.0875
3017.68865	15136.1875
3020.10694	15090.2875
3022.52376	15062.0875
3024.9391	15067.9875
3027.35298	15062.0875
3029.76539	15014.7875
3032.17632	14991.0875
3034.5858	14959.0875
3036.9938	14955.9875
3039.40034	14943.8875
3041.80542	14937.1875
3044.20903	14910.9875
3046.61118	14915.1875
3049.01187	14866.3875
3051.4111	14848.9875
3053.80888	14823.8875
3056.20519	14777.4875
3058.60005	14736.4875
3060.99345	14713.5875
3063.3854	14657.8875
3065.7759	14619.1875
3068.16494	14532.7875
3070.55254	14498.5875
3072.93868	14484.7875
3075.32338	14414.0875
3077.70662	14411.1875
3080.08842	14375.8875
3082.46878	14360.9875
3084.84769	14322.2875
3087.22515	14277.1875
3089.60118	14269.3875
3091.97576	14285.7875
3094.3489	14274.2875
3096.72061	14277.2875
3099.09087	14260.2875
3101.4597	14258.4875
3103.82709	14235.8875
3106.19305	14199.3875
3108.55757	14204.8875
3110.92066	14168.6875
3113.28232	14161.7875
3115.64255	14123.3875
3118.00134	14093.9875
3120.35871	14068.5875
3122.71466	14013.4875
3125.06917	13946.9875
3127.42226	13934.8875
3129.77393	13943.5875
3132.12417	13906.8875
3134.47299	13893.2875
3136.82039	13885.8875
3139.16636	13897.2875
3141.51092	13881.8875
3143.85406	13872.7875
3146.19579	13857.5875
3148.53609	13849.8875
3150.87499	13835.3875
3153.21246	13849.3875
3155.54853	13860.9875
3157.88318	13832.7875
3160.21642	13855.4875
3162.54826	13843.4875
3164.87868	13852.9875
3167.2077	13835.8875
3169.5353	13829.8875
3171.86151	13856.5875
3174.18631	13848.1875
3176.5097	13837.8875
3178.83169	13806.0875
3181.15228	13767.0875
3183.47147	13758.0875
3185.78926	13750.4875
3188.10565	13734.6875
3190.42065	13709.4875
3192.73424	13690.4875
3195.04645	13691.7875
3197.35725	13710.2875
3199.66667	13665.1875
3201.97469	13706.8875
3204.28132	13698.7875
3206.58656	13699.7875
3208.8904	13706.3875
3211.19287	13705.9875
3213.49394	13697.0875
3215.79363	13726.8875
3218.09193	13724.4875
3220.38884	13730.1875
3222.68438	13744.2875
3224.97853	13710.6875
3227.2713	13680.5875
3229.56269	13648.1875
3231.8527	13647.8875
3234.14133	13614.5875
3236.42858	13574.1875
3238.71446	13544.0875
3240.99896	13533.5875
3243.28209	13547.3875
3245.56384	13498.1875
3247.84423	13508.0875
3250.12324	13483.7875
3252.40088	13461.1875
3254.67715	13445.2875
3256.95205	13451.2875
3259.22558	13458.5875
3261.49775	13428.7875
3263.76855	13401.7875
3266.03799	13381.5875
3268.30606	13367.3875
3270.57277	13319.9875
3272.83812	13279.7875
3275.10211	13249.9875
3277.36474	13222.1875
3279.62601	13245.4875
3281.88593	13212.7875
3284.14448	13206.9875
3286.40168	13255.1875
3288.65753	13212.0875
3290.91202	13207.1875
3293.16516	13165.9875
3295.41695	13133.5875
3297.66738	13060.3875
3299.91647	12979.1875
3302.16421	12917.7875
3304.4106	12871.9875
3306.65564	12783.3875
3308.89933	12684.9875
3311.14169	12601.3875
3313.38269	12489.9875
3315.62236	12445.6875
3317.86068	12340.6875
3320.09766	12234.8875
3322.3333	12147.6875
3324.5676	12088.5875
3326.80056	11910.0875
3329.03219	11828.0875
3331.26248	3.0875
3333.49143	-0.4125
3335.71905	-0.1125
