Data from AgNPs_FTO_APTES_UA_5uM_CRN_2uM_R6G_10uM_NaF_0.1M_Addition_RamanShift__8__11-06-16-620.txt Node

Date: Mon Feb 07 11:06:16 GMT 2022
User: TCL
Spectrometer: QEP01345
Trigger mode: 4
Integration Time (sec): 7.000000E0
Scans to average: 10
Electric dark correction enabled: true
Nonlinearity correction enabled: false
Boxcar width: 0
XAxis mode: Raman Shifts
Number of Pixels in Spectrum: 1044
>>>>>Begin Spectral Data<<<<<
46.04893	-0.2375
50.45542	-1.4375
54.85868	-1.3375
59.25871	0.5625
63.6555	108.2625
68.04907	110.3625
72.43941	114.5625
76.82654	120.0625
81.21044	124.8625
85.59113	123.5625
89.96862	134.3625
94.34289	134.5625
98.71396	139.1625
103.08183	144.2625
107.4465	148.7625
111.80798	150.5625
116.16626	157.8625
120.52136	166.0625
124.87327	172.6625
129.222	184.5625
133.56755	199.5625
137.90993	216.9625
142.24913	235.7625
146.58517	273.8625
150.91804	317.5625
155.24774	388.0625
159.57429	486.0625
163.89768	639.0625
168.21792	847.8625
172.53501	1158.0625
176.84895	1614.4625
181.15975	2275.8625
185.46741	3196.1625
189.77193	4411.8625
194.07331	5888.6625
198.37157	7565.3625
202.6667	9356.8625
206.9587	11134.5625
211.24758	12883.7625
215.53334	14608.6625
219.81599	16486.1625
224.09553	18527.6625
228.37195	20781.4625
232.64527	23255.1625
236.91549	25806.5625
241.18261	28351.4625
245.44663	30690.6625
249.70755	32801.1625
253.96539	34615.7625
258.22014	36122.3625
262.4718	37332.7625
266.72039	38174.9625
270.96589	38619.1625
275.20832	38592.3625
279.44768	38266.4625
283.68397	37895.7625
287.91719	37628.3625
292.14735	37454.5625
296.37445	37392.8625
300.59849	37442.3625
304.81948	37739.4625
309.03742	37838.5625
313.25231	37685.0625
317.46415	37167.3625
321.67296	36431.7625
325.87872	35789.8625
330.08145	35335.3625
334.28114	35209.2625
338.47781	35316.9625
342.67145	35684.0625
346.86207	36193.6625
351.04966	36850.3625
355.23424	37560.7625
359.4158	38258.8625
363.59435	38753.0625
367.76989	39086.0625
371.94243	39216.3625
376.11196	39222.4625
380.27849	39154.2625
384.44203	39239.6625
388.60257	39530.5625
392.76012	40034.1625
396.91468	40719.7625
401.06626	41502.3625
405.21485	41973.8625
409.36047	41840.7625
413.50311	41460.0625
417.64277	41501.2625
421.77947	41993.5625
425.9132	42446.5625
430.04396	42697.4625
434.17176	42781.6625
438.2966	42714.0625
442.41849	43103.1625
446.53742	44146.8625
450.6534	45342.1625
454.76644	46136.1625
458.87653	46279.3625
462.98368	45924.9625
467.08789	45123.1625
471.18916	44320.4625
475.2875	43421.4625
479.38291	42871.8625
483.4754	42641.2625
487.56496	42381.1625
491.6516	41838.3625
495.73531	41187.2625
499.81612	40872.9625
503.89401	41096.1625
507.96899	41373.1625
512.04106	41389.2625
516.11023	40885.6625
520.1765	40101.1625
524.23987	39470.9625
528.30034	38874.6625
532.35792	38355.6625
536.41261	37792.9625
540.46441	37226.9625
544.51333	37241.8625
548.55936	37588.7625
552.60252	38566.6625
556.64279	39745.6625
560.6802	40673.6625
564.71473	41315.4625
568.7464	42369.6625
572.7752	44339.7625
576.80114	46809.8625
580.82422	49558.6625
584.84444	53115.9625
588.86181	57689.3625
592.87633	61528.7625
596.888	60539.9625
600.89682	55000.0625
604.9028	51288.3625
608.90594	52186.3625
612.90624	54186.6625
616.90371	50333.2625
620.89834	42654.9625
624.89015	39242.6625
628.87913	39101.7625
632.86528	39500.7625
636.84862	39359.4625
640.82913	38237.0625
644.80683	36980.5625
648.78172	36373.2625
652.75379	36554.0625
656.72306	37035.7625
660.68952	37424.5625
664.65319	37017.3625
668.61405	36308.9625
672.57211	36215.5625
676.52738	36433.0625
680.47986	36402.6625
684.42955	35942.4625
688.37646	35722.8625
692.32058	36071.1625
696.26192	36878.7625
700.20048	37702.4625
704.13626	38177.0625
708.06928	38392.4625
711.99952	38275.6625
715.927	38325.9625
719.85171	38509.4625
723.77365	38112.7625
727.69284	37148.5625
731.60928	36290.1625
735.52295	35931.6625
739.43388	35913.4625
743.34206	36114.6625
747.24749	36448.2625
751.15017	37067.5625
755.05012	37932.9625
758.94733	39300.2625
762.8418	41273.0625
766.73354	44116.4625
770.62254	46404.7625
774.50882	46263.1625
778.39237	43802.7625
782.27321	40825.9625
786.15132	38523.2625
790.02671	36968.8625
793.89938	36241.7625
797.76935	35943.4625
801.6366	35833.0625
805.50115	35763.3625
809.36299	35627.5625
813.22213	35317.8625
817.07857	35047.0625
820.93231	34771.1625
824.78336	34452.5625
828.63172	34124.2625
832.47738	33991.9625
836.32036	33945.9625
840.16066	33974.4625
843.99827	34012.9625
847.8332	34037.4625
851.66546	34088.5625
855.49504	34161.9625
859.32195	34142.4625
863.1462	34024.3625
866.96777	33872.9625
870.78668	33813.9625
874.60293	33764.3625
878.41652	33758.5625
882.22745	33873.4625
886.03573	34037.7625
889.84136	33995.8625
893.64433	33868.1625
897.44466	33750.3625
901.24235	33683.3625
905.0374	33597.9625
908.8298	33519.8625
912.61957	33645.8625
916.40671	34075.1625
920.19121	34787.2625
923.97308	35506.5625
927.75233	35707.1625
931.52895	35129.9625
935.30295	34177.5625
939.07433	33212.2625
942.84309	32568.6625
946.60924	32291.1625
950.37278	32216.4625
954.13371	32228.4625
957.89203	32341.8625
961.64774	32303.6625
965.40086	32376.4625
969.15137	32365.0625
972.89929	32132.7625
976.64461	31937.1625
980.38733	31867.3625
984.12747	31858.2625
987.86502	32060.8625
991.59999	32248.3625
995.33237	32581.9625
999.06217	33241.8625
1002.78939	34191.5625
1006.51404	35147.0625
1010.23611	36057.5625
1013.95561	36664.6625
1017.67255	36652.5625
1021.38692	36083.3625
1025.09872	35196.9625
1028.80796	34623.9625
1032.51465	34623.8625
1036.21877	34983.6625
1039.92035	35228.8625
1043.61937	35308.8625
1047.31584	35139.1625
1051.00976	34963.9625
1054.70114	35008.9625
1058.38998	35169.7625
1062.07627	35548.7625
1065.76003	36149.9625
1069.44126	36907.7625
1073.11995	37833.7625
1076.79611	38587.0625
1080.46974	38848.8625
1084.14085	39157.7625
1087.80943	39780.0625
1091.47549	40376.3625
1095.13903	40593.7625
1098.80005	39844.4625
1102.45857	38380.9625
1106.11456	37206.6625
1109.76805	36589.3625
1113.41903	36478.1625
1117.06751	36580.0625
1120.71348	36947.0625
1124.35696	37307.8625
1127.99793	37816.6625
1131.63641	38235.3625
1135.2724	38364.8625
1138.90589	38475.3625
1142.5369	38830.7625
1146.16542	39381.6625
1149.79145	39978.7625
1153.415	40662.1625
1157.03607	41648.7625
1160.65467	43474.7625
1164.27079	46442.3625
1167.88443	49707.5625
1171.49561	52605.5625
1175.10432	55671.9625
1178.71056	59794.1625
1182.31434	63622.1625
1185.91565	65436.3625
1189.51451	64645.4625
1193.11091	62690.8625
1196.70485	60398.2625
1200.29634	58274.9625
1203.88538	57237.7625
1207.47197	57468.4625
1211.05612	57850.2625
1214.63782	57061.8625
1218.21708	54843.9625
1221.79391	52323.6625
1225.36829	50303.7625
1228.94024	49225.8625
1232.50976	48246.6625
1236.07685	47335.3625
1239.6415	46644.1625
1243.20374	46504.3625
1246.76355	46905.8625
1250.32093	47803.8625
1253.8759	49179.6625
1257.42845	50805.9625
1260.97859	52746.5625
1264.52631	54731.8625
1268.07163	56718.0625
1271.61453	58805.4625
1275.15503	60922.2625
1278.69312	63493.6625
1282.22882	66425.0625
1285.76211	69978.9625
1289.29301	74093.1625
1292.82151	78525.0625
1296.34761	83838.4625
1299.87133	90044.6625
1303.39266	96089.1625
1306.9116	100938.9625
1310.42815	103414.8625
1313.94233	103676.5625
1317.45412	101972.4625
1320.96354	99587.1625
1324.47058	98345.6625
1327.97525	98118.4625
1331.47754	98037.4625
1334.97747	97213.3625
1338.47502	95149.6625
1341.97022	92523.3625
1345.46305	89620.8625
1348.95352	87343.4625
1352.44163	86745.7625
1355.92738	88906.3625
1359.41078	93323.7625
1362.89183	97124.1625
1366.37053	96849.0625
1369.84688	90169.0625
1373.32088	79449.5625
1376.79254	71344.0625
1380.26186	68791.9625
1383.72883	69535.6625
1387.19347	70000.0625
1390.65578	69070.9625
1394.11575	68627.0625
1397.57339	69906.5625
1401.0287	72127.2625
1404.48168	74062.9625
1407.93234	74266.7625
1411.38068	72063.1625
1414.82669	68422.4625
1418.27039	64363.5625
1421.71177	60631.5625
1425.15083	57901.6625
1428.58758	57009.3625
1432.02203	58109.0625
1435.45416	60712.3625
1438.88399	63436.5625
1442.31151	65197.0625
1445.73673	66012.3625
1449.15965	66296.2625
1452.58027	65917.4625
1455.9986	65418.2625
1459.41463	65532.3625
1462.82837	66682.8625
1466.23982	68340.3625
1469.64898	69803.1625
1473.05586	70673.8625
1476.46045	70679.9625
1479.86276	70004.3625
1483.26279	69114.2625
1486.66054	68724.2625
1490.05602	68929.6625
1493.44922	69586.9625
1496.84016	70290.7625
1500.22882	70855.1625
1503.61521	71591.6625
1506.99934	72601.6625
1510.38121	73401.7625
1513.76081	73457.8625
1517.13816	72868.7625
1520.51324	72411.2625
1523.88607	72649.8625
1527.25665	73687.0625
1530.62498	74506.8625
1533.99105	74131.6625
1537.35488	72481.7625
1540.71647	69852.4625
1544.07581	66853.6625
1547.4329	63902.0625
1550.78776	61422.4625
1554.14038	59715.5625
1557.49077	58640.8625
1560.83892	57871.3625
1564.18484	57490.2625
1567.52853	57398.6625
1570.86999	57919.7625
1574.20922	59495.4625
1577.54624	61076.5625
1580.88103	62327.7625
1584.2136	64312.3625
1587.54395	68243.8625
1590.87208	73972.0625
1594.19801	80320.4625
1597.52172	85156.4625
1600.84321	85152.7625
1604.16251	78920.2625
1607.47959	69798.6625
1610.79447	61111.6625
1614.10715	54088.7625
1617.41763	48933.8625
1620.7259	45774.2625
1624.03199	44478.7625
1627.33587	44847.0625
1630.63757	47005.5625
1633.93707	51535.9625
1637.23439	59256.3625
1640.52951	70718.3625
1643.82246	84669.2625
1647.11321	95620.8625
1650.40179	96681.7625
1653.68819	86355.4625
1656.97241	70903.2625
1660.25446	57005.5625
1663.53433	47389.7625
1666.81203	41326.4625
1670.08756	37662.7625
1673.36092	35506.6625
1676.63211	34008.9625
1679.90115	33090.9625
1683.16801	32316.4625
1686.43272	31713.7625
1689.69527	31353.8625
1692.95567	31041.0625
1696.2139	30771.9625
1699.46999	30606.6625
1702.72392	30408.7625
1705.97571	30339.6625
1709.22535	30202.8625
1712.47284	30098.7625
1715.71819	29996.3625
1718.96139	29923.1625
1722.20246	29779.6625
1725.44139	29621.3625
1728.67818	29369.4625
1731.91284	29129.8625
1735.14537	28921.8625
1738.37576	28711.6625
1741.60403	28579.7625
1744.83017	28460.4625
1748.05418	28300.3625
1751.27607	28259.6625
1754.49584	28160.8625
1757.71349	28106.6625
1760.92903	28054.4625
1764.14244	28048.0625
1767.35375	28015.4625
1770.56294	27933.1625
1773.77002	27854.6625
1776.97499	27789.0625
1780.17785	27675.4625
1783.37861	27656.4625
1786.57727	27562.5625
1789.77382	27511.5625
1792.96828	27441.9625
1796.16064	27338.6625
1799.3509	27314.1625
1802.53907	27308.7625
1805.72514	27181.1625
1808.90913	27079.6625
1812.09102	27041.2625
1815.27083	26958.3625
1818.44856	26954.0625
1821.6242	26872.8625
1824.79776	26847.4625
1827.96924	26845.5625
1831.13864	26848.6625
1834.30597	26848.5625
1837.47122	26815.4625
1840.6344	26831.2625
1843.7955	26872.2625
1846.95454	26857.9625
1850.11151	26873.1625
1853.26642	26795.1625
1856.41926	26774.0625
1859.57004	26801.2625
1862.71876	26737.7625
1865.86542	26687.1625
1869.01003	26629.2625
1872.15258	26591.0625
1875.29308	26523.1625
1878.43152	26486.6625
1881.56792	26496.4625
1884.70227	26441.2625
1887.83457	26359.6625
1890.96482	26335.3625
1894.09304	26323.7625
1897.21921	26300.6625
1900.34335	26253.2625
1903.46544	26167.7625
1906.58551	26147.0625
1909.70353	26103.3625
1912.81953	26028.8625
1915.93349	25975.5625
1919.04543	25913.4625
1922.15534	25793.8625
1925.26322	25732.9625
1928.36908	25687.1625
1931.47292	25569.6625
1934.57473	25497.5625
1937.67453	25413.5625
1940.77232	25298.8625
1943.86808	25252.1625
1946.96184	25190.9625
1950.05358	25167.5625
1953.14331	25073.6625
1956.23103	24995.7625
1959.31675	24884.3625
1962.40046	24788.9625
1965.48217	24727.5625
1968.56188	24662.7625
1971.63959	24591.6625
1974.7153	24459.1625
1977.78901	24370.3625
1980.86073	24271.4625
1983.93046	24196.7625
1986.99819	24131.2625
1990.06394	24065.4625
1993.1277	24014.8625
1996.18947	23979.7625
1999.24925	23846.5625
2002.30706	23753.3625
2005.36288	23668.7625
2008.41672	23597.2625
2011.46859	23581.2625
2014.51848	23472.0625
2017.56639	23407.2625
2020.61233	23377.8625
2023.6563	23303.9625
2026.6983	23273.2625
2029.73833	23248.8625
2032.7764	23171.3625
2035.8125	23091.7625
2038.84664	23076.1625
2041.87881	23032.5625
2044.90903	22992.9625
2047.93729	22962.8625
2050.96359	22898.6625
2053.98794	22880.1625
2057.01034	22878.7625
2060.03078	22851.2625
2063.04927	22827.8625
2066.06582	22829.9625
2069.08042	22813.1625
2072.09307	22772.3625
2075.10378	22753.2625
2078.11255	22713.5625
2081.11938	22731.7625
2084.12426	22677.3625
2087.12722	22698.3625
2090.12824	22683.6625
2093.12732	22606.5625
2096.12447	22653.7625
2099.11969	22637.4625
2102.11299	22678.3625
2105.10435	22640.4625
2108.09379	22609.3625
2111.08131	22638.6625
2114.0669	22643.4625
2117.05057	22619.6625
2120.03233	22677.0625
2123.01216	22692.9625
2125.99008	22696.1625
2128.96609	22701.0625
2131.94018	22720.6625
2134.91236	22670.0625
2137.88263	22692.9625
2140.851	22679.9625
2143.81746	22683.9625
2146.78201	22671.5625
2149.74466	22640.4625
2152.7054	22619.6625
2155.66425	22605.3625
2158.6212	22565.7625
2161.57625	22542.0625
2164.52941	22516.4625
2167.48067	22513.9625
2170.43004	22520.4625
2173.37752	22500.0625
2176.32311	22501.2625
2179.26681	22521.2625
2182.20863	22485.5625
2185.14856	22528.3625
2188.08661	22511.0625
2191.02278	22545.2625
2193.95707	22526.4625
2196.88948	22454.1625
2199.82001	22402.9625
2202.74867	22364.9625
2205.67545	22335.2625
2208.60037	22311.9625
2211.52341	22271.1625
2214.44458	22281.6625
2217.36388	22206.1625
2220.28132	22182.5625
2223.1969	22118.5625
2226.11061	22105.6625
2229.02246	22081.9625
2231.93245	22115.3625
2234.84058	22074.5625
2237.74686	22039.5625
2240.65128	22053.4625
2243.55385	21974.3625
2246.45456	21945.0625
2249.35343	21846.2625
2252.25044	21791.6625
2255.14561	21700.1625
2258.03893	21628.5625
2260.93041	21570.3625
2263.82004	21517.5625
2266.70783	21456.5625
2269.59378	21363.8625
2272.4779	21316.4625
2275.36017	21241.5625
2278.24061	21222.3625
2281.11922	21184.2625
2283.996	21200.6625
2286.87094	21136.4625
2289.74405	21109.7625
2292.61534	21109.4625
2295.4848	21058.5625
2298.35243	21073.9625
2301.21824	21068.9625
2304.08223	21054.3625
2306.94439	21048.8625
2309.80474	21104.0625
2312.66327	21084.7625
2315.51999	21052.6625
2318.37489	20981.3625
2321.22797	20932.7625
2324.07925	20941.1625
2326.92871	20923.5625
2329.77637	20872.7625
2332.62222	20844.1625
2335.46626	20849.1625
2338.3085	20841.2625
2341.14893	20844.2625
2343.98756	20888.4625
2346.8244	20856.8625
2349.65943	20820.9625
2352.49267	20842.7625
2355.32411	20850.8625
2358.15376	20822.7625
2360.98161	20817.1625
2363.80768	20798.5625
2366.63195	20793.8625
2369.45444	20800.8625
2372.27514	20729.5625
2375.09405	20688.9625
2377.91118	20652.0625
2380.72652	20581.8625
2383.54009	20525.6625
2386.35187	20516.6625
2389.16188	20438.4625
2391.97011	20429.0625
2394.77657	20365.8625
2397.58125	20329.6625
2400.38416	20323.1625
2403.18529	20325.5625
2405.98466	20279.8625
2408.78226	20234.0625
2411.57809	20234.2625
2414.37216	20250.8625
2417.16446	20217.4625
2419.955	20188.3625
2422.74378	20177.5625
2425.5308	20147.0625
2428.31606	20182.4625
2431.09956	20128.0625
2433.88131	20130.9625
2436.6613	20136.2625
2439.43954	20166.0625
2442.21603	20124.0625
2444.99077	20111.8625
2447.76377	20096.4625
2450.53501	20088.6625
2453.30451	20050.5625
2456.07226	20080.1625
2458.83827	20060.5625
2461.60254	20073.2625
2464.36507	20063.2625
2467.12586	20032.5625
2469.88492	20034.2625
2472.64224	20059.6625
2475.39782	20099.7625
2478.15167	20108.1625
2480.90379	20114.5625
2483.65417	20099.5625
2486.40283	20112.9625
2489.14976	20099.1625
2491.89497	20068.7625
2494.63845	20090.0625
2497.3802	20119.9625
2500.12024	20129.0625
2502.85855	20073.8625
2505.59514	20056.4625
2508.33002	20059.5625
2511.06318	20048.2625
2513.79462	20030.4625
2516.52435	19999.8625
2519.25237	20014.9625
2521.97867	19976.8625
2524.70327	19962.7625
2527.42616	19960.5625
2530.14734	19963.3625
2532.86681	19987.2625
2535.58458	19969.4625
2538.30065	19956.0625
2541.01501	19935.0625
2543.72768	19917.8625
2546.43864	19912.6625
2549.14791	19904.2625
2551.85548	19885.4625
2554.56136	19864.4625
2557.26554	19855.2625
2559.96803	19837.8625
2562.66883	19827.4625
2565.36794	19798.2625
2568.06536	19784.3625
2570.7611	19819.3625
2573.45514	19816.8625
2576.14751	19805.6625
2578.83819	19767.7625
2581.52719	19757.3625
2584.21451	19755.4625
2586.90015	19764.4625
2589.58411	19735.3625
2592.2664	19684.4625
2594.94701	19701.6625
2597.62594	19688.1625
2600.30321	19666.9625
2602.9788	19693.0625
2605.65273	19707.9625
2608.32498	19760.3625
2610.99557	19729.3625
2613.66449	19734.7625
2616.33175	19720.9625
2618.99734	19764.3625
2621.66128	19713.4625
2624.32355	19633.6625
2626.98416	19647.5625
2629.64311	19654.0625
2632.30041	19673.1625
2634.95605	19626.1625
2637.61004	19611.8625
2640.26238	19613.1625
2642.91306	19614.4625
2645.56209	19582.5625
2648.20948	19610.6625
2650.85521	19664.2625
2653.4993	19676.4625
2656.14175	19639.0625
2658.78255	19681.8625
2661.42171	19711.8625
2664.05923	19757.9625
2666.6951	19741.5625
2669.32934	19771.1625
2671.96194	19795.0625
2674.59291	19785.5625
2677.22224	19802.4625
2679.84993	19766.7625
2682.476	19779.3625
2685.10043	19740.4625
2687.72324	19716.0625
2690.34441	19707.3625
2692.96396	19731.0625
2695.58188	19736.0625
2698.19818	19764.4625
2700.81285	19725.8625
2703.4259	19716.3625
2706.03733	19786.6625
2708.64714	19746.8625
2711.25533	19759.1625
2713.86191	19743.0625
2716.46687	19780.4625
2719.07021	19787.3625
2721.67194	19849.9625
2724.27206	19846.6625
2726.87057	19850.6625
2729.46747	19921.2625
2732.06276	19921.0625
2734.65644	19924.5625
2737.24852	19932.6625
2739.83899	19888.9625
2742.42786	19907.2625
2745.01513	19856.7625
2747.60079	19895.1625
2750.18486	19860.8625
2752.76733	19844.4625
2755.3482	19783.5625
2757.92747	19845.0625
2760.50515	19845.7625
2763.08123	19819.3625
2765.65573	19814.7625
2768.22863	19810.4625
2770.79994	19785.9625
2773.36967	19822.5625
2775.9378	19822.9625
2778.50435	19840.9625
2781.06932	19811.4625
2783.6327	19818.8625
2786.1945	19840.4625
2788.75471	19834.3625
2791.31335	19827.9625
2793.87041	19793.6625
2796.42589	19749.9625
2798.97979	19769.0625
2801.53212	19727.4625
2804.08288	19695.9625
2806.63206	19622.5625
2809.17967	19626.7625
2811.72571	19560.2625
2814.27018	19541.7625
2816.81308	19492.8625
2819.35442	19450.7625
2821.89419	19411.5625
2824.43239	19400.7625
2826.96904	19375.1625
2829.50412	19391.1625
2832.03763	19363.5625
2834.56959	19328.9625
2837.1	19288.8625
2839.62884	19315.2625
2842.15613	19314.0625
2844.68186	19356.7625
2847.20604	19315.0625
2849.72867	19328.5625
2852.24974	19341.2625
2854.76927	19366.2625
2857.28724	19312.9625
2859.80367	19301.0625
2862.31855	19273.9625
2864.83189	19276.0625
2867.34368	19215.7625
2869.85393	19181.6625
2872.36264	19117.3625
2874.8698	19093.2625
2877.37543	19081.5625
2879.87952	19094.1625
2882.38207	19086.9625
2884.88308	19088.4625
2887.38256	19106.4625
2889.88051	19106.2625
2892.37692	19123.3625
2894.8718	19113.5625
2897.36515	19143.0625
2899.85698	19147.5625
2902.34727	19176.0625
2904.83604	19190.3625
2907.32328	19239.6625
2909.809	19226.6625
2912.29319	19223.5625
2914.77587	19222.8625
2917.25702	19246.0625
2919.73665	19204.7625
2922.21476	19212.4625
2924.69136	19197.7625
2927.16644	19188.5625
2929.64	19180.6625
2932.11205	19121.9625
2934.58258	19081.0625
2937.05161	19100.8625
2939.51912	19101.9625
2941.98513	19061.1625
2944.44962	19044.8625
2946.91261	18979.0625
2949.37409	18988.3625
2951.83407	18966.6625
2954.29254	18948.0625
2956.74951	18922.2625
2959.20498	18921.6625
2961.65895	18831.7625
2964.11142	18858.0625
2966.56239	18796.0625
2969.01186	18786.0625
2971.45984	18752.2625
2973.90632	18716.0625
2976.35131	18661.4625
2978.7948	18585.0625
2981.23681	18565.9625
2983.67732	18511.2625
2986.11635	18490.4625
2988.55388	18422.7625
2990.98993	18320.1625
2993.4245	18257.2625
2995.85758	18208.7625
2998.28917	18176.6625
3000.71928	18163.1625
3003.14791	18068.6625
3005.57506	18075.3625
3008.00073	17996.9625
3010.42493	17989.2625
3012.84764	17947.7625
3015.26888	17954.7625
3017.68865	17860.6625
3020.10694	17849.4625
3022.52376	17810.1625
3024.9391	17777.2625
3027.35298	17737.8625
3029.76539	17726.5625
3032.17632	17729.6625
3034.5858	17690.1625
3036.9938	17650.9625
3039.40034	17668.3625
3041.80542	17677.3625
3044.20903	17645.7625
3046.61118	17645.6625
3049.01187	17565.3625
3051.4111	17560.2625
3053.80888	17508.4625
3056.20519	17487.3625
3058.60005	17420.3625
3060.99345	17378.9625
3063.3854	17316.9625
3065.7759	17230.2625
3068.16494	17165.2625
3070.55254	17072.2625
3072.93868	17057.2625
3075.32338	16996.9625
3077.70662	16944.2625
3080.08842	16888.4625
3082.46878	16870.8625
3084.84769	16844.3625
3087.22515	16781.3625
3089.60118	16771.6625
3091.97576	16787.2625
3094.3489	16771.3625
3096.72061	16731.7625
3099.09087	16711.9625
3101.4597	16701.9625
3103.82709	16716.5625
3106.19305	16653.4625
3108.55757	16611.5625
3110.92066	16568.4625
3113.28232	16549.4625
3115.64255	16483.0625
3118.00134	16477.7625
3120.35871	16441.6625
3122.71466	16381.4625
3125.06917	16343.9625
3127.42226	16266.5625
3129.77393	16278.1625
3132.12417	16249.1625
3134.47299	16213.6625
3136.82039	16208.9625
3139.16636	16180.2625
3141.51092	16184.0625
3143.85406	16135.5625
3146.19579	16135.6625
3148.53609	16128.3625
3150.87499	16097.0625
3153.21246	16073.5625
3155.54853	16114.0625
3157.88318	16052.4625
3160.21642	16061.4625
3162.54826	16073.7625
3164.87868	16062.2625
3167.2077	16034.6625
3169.5353	16058.3625
3171.86151	16039.3625
3174.18631	16012.6625
3176.5097	15986.2625
3178.83169	16013.5625
3181.15228	15972.7625
3183.47147	15897.7625
3185.78926	15906.4625
3188.10565	15847.7625
3190.42065	15801.5625
3192.73424	15779.1625
3195.04645	15778.8625
3197.35725	15736.0625
3199.66667	15714.9625
3201.97469	15718.3625
3204.28132	15690.1625
3206.58656	15697.8625
3208.8904	15649.9625
3211.19287	15644.9625
3213.49394	15694.3625
3215.79363	15677.9625
3218.09193	15643.8625
3220.38884	15640.2625
3222.68438	15675.6625
3224.97853	15608.4625
3227.2713	15625.4625
3229.56269	15615.5625
3231.8527	15614.7625
3234.14133	15562.3625
3236.42858	15525.8625
3238.71446	15496.6625
3240.99896	15491.2625
3243.28209	15498.7625
3245.56384	15472.2625
3247.84423	15440.5625
3250.12324	15398.3625
3252.40088	15364.8625
3254.67715	15325.0625
3256.95205	15282.6625
3259.22558	15272.9625
3261.49775	15237.5625
3263.76855	15210.9625
3266.03799	15131.1625
3268.30606	15109.5625
3270.57277	15093.7625
3272.83812	15048.7625
3275.10211	15030.3625
3277.36474	15028.1625
3279.62601	15018.2625
3281.88593	15011.4625
3284.14448	15002.9625
3286.40168	15025.1625
3288.65753	15021.9625
3290.91202	15004.0625
3293.16516	14987.6625
3295.41695	14931.5625
3297.66738	14853.9625
3299.91647	14772.3625
3302.16421	14644.6625
3304.4106	14546.7625
3306.65564	14418.4625
3308.89933	14306.4625
3311.14169	14205.6625
3313.38269	14021.7625
3315.62236	13980.3625
3317.86068	13862.6625
3320.09766	13718.9625
3322.3333	13601.9625
3324.5676	13536.5625
3326.80056	13323.2625
3329.03219	13246.8625
3331.26248	4.4625
3333.49143	-1.5375
3335.71905	-1.6375
