Data from AgNPs_FTO_APTES_UA_5uM_CRN_50uM_R6G_10uM_NaF_0.1M_Addition_RamanShift__38__14-26-56-848.txt Node

Date: Mon Feb 07 14:26:56 GMT 2022
User: TCL
Spectrometer: QEP01345
Trigger mode: 4
Integration Time (sec): 7.000000E0
Scans to average: 10
Electric dark correction enabled: true
Nonlinearity correction enabled: false
Boxcar width: 0
XAxis mode: Raman Shifts
Number of Pixels in Spectrum: 1044
>>>>>Begin Spectral Data<<<<<
46.04893	-0.1625
50.45542	-1.5625
54.85868	-0.9625
59.25871	0.6375
63.6555	75.8375
68.04907	79.3375
72.43941	86.5375
76.82654	85.5375
81.21044	90.7375
85.59113	88.1375
89.96862	97.6375
94.34289	95.5375
98.71396	103.0375
103.08183	105.4375
107.4465	108.1375
111.80798	106.1375
116.16626	112.7375
120.52136	123.1375
124.87327	124.9375
129.222	134.3375
133.56755	147.1375
137.90993	158.2375
142.24913	175.3375
146.58517	198.5375
150.91804	235.7375
155.24774	282.6375
159.57429	361.6375
163.89768	462.6375
168.21792	622.2375
172.53501	852.7375
176.84895	1194.2375
181.15975	1682.7375
185.46741	2363.7375
189.77193	3251.3375
194.07331	4367.2375
198.37157	5634.2375
202.6667	6967.2375
206.9587	8269.1375
211.24758	9578.1375
215.53334	10844.8375
219.81599	12227.0375
224.09553	13722.3375
228.37195	15363.4375
232.64527	17119.1375
236.91549	18946.3375
241.18261	20831.8375
245.44663	22655.8375
249.70755	24213.4375
253.96539	25655.5375
258.22014	26881.3375
262.4718	27917.0375
266.72039	28649.7375
270.96589	28996.8375
275.20832	29106.6375
279.44768	28988.2375
283.68397	28767.2375
287.91719	28551.8375
292.14735	28409.4375
296.37445	28407.1375
300.59849	28519.4375
304.81948	28583.5375
309.03742	28530.3375
313.25231	28244.8375
317.46415	27768.2375
321.67296	27178.0375
325.87872	26643.2375
330.08145	26382.0375
334.28114	26308.4375
338.47781	26432.0375
342.67145	26645.1375
346.86207	26994.7375
351.04966	27368.6375
355.23424	27836.0375
359.4158	28250.8375
363.59435	28565.5375
367.76989	28817.8375
371.94243	28977.4375
376.11196	29049.6375
380.27849	29138.6375
384.44203	29272.1375
388.60257	29526.4375
392.76012	29830.2375
396.91468	30294.4375
401.06626	30794.2375
405.21485	31058.7375
409.36047	30964.7375
413.50311	30694.1375
417.64277	30620.9375
421.77947	30742.5375
425.9132	30942.5375
430.04396	31068.8375
434.17176	31309.5375
438.2966	31516.3375
442.41849	32023.2375
446.53742	32916.5375
450.6534	33820.5375
454.76644	34429.1375
458.87653	34679.5375
462.98368	34501.5375
467.08789	34110.8375
471.18916	33663.3375
475.2875	33330.6375
479.38291	33224.1375
483.4754	33160.3375
487.56496	32840.6375
491.6516	32193.2375
495.73531	31483.9375
499.81612	31078.1375
503.89401	31061.8375
507.96899	31188.3375
512.04106	31111.5375
516.11023	30793.7375
520.1765	30386.9375
524.23987	29964.0375
528.30034	29671.2375
532.35792	29417.9375
536.41261	29116.2375
540.46441	28838.6375
544.51333	28847.8375
548.55936	29160.8375
552.60252	29841.1375
556.64279	30618.3375
560.6802	31318.1375
564.71473	31827.7375
568.7464	32554.7375
572.7752	33753.5375
576.80114	35063.7375
580.82422	36223.4375
584.84444	37648.2375
588.86181	39454.1375
592.87633	40823.4375
596.888	40330.3375
600.89682	38194.8375
604.9028	36879.5375
608.90594	37689.6375
612.90624	38893.2375
616.90371	36537.5375
620.89834	31808.1375
624.89015	29701.4375
628.87913	29611.7375
632.86528	29789.4375
636.84862	29649.0375
640.82913	29106.9375
644.80683	28544.0375
648.78172	28138.1375
652.75379	28157.9375
656.72306	28339.6375
660.68952	28623.8375
664.65319	28383.8375
668.61405	28035.3375
672.57211	27987.4375
676.52738	28137.1375
680.47986	28147.0375
684.42955	27964.8375
688.37646	27819.5375
692.32058	27946.1375
696.26192	28372.6375
700.20048	28750.4375
704.13626	29027.5375
708.06928	29139.1375
711.99952	29122.5375
715.927	29103.9375
719.85171	29247.0375
723.77365	29047.0375
727.69284	28605.4375
731.60928	28200.0375
735.52295	27998.1375
739.43388	27982.7375
743.34206	28061.8375
747.24749	28239.6375
751.15017	28567.5375
755.05012	29130.2375
758.94733	29938.6375
762.8418	31212.0375
766.73354	33031.5375
770.62254	34475.4375
774.50882	34474.4375
778.39237	32934.9375
782.27321	30976.2375
786.15132	29345.0375
790.02671	28449.2375
793.89938	27964.1375
797.76935	27735.1375
801.6366	27706.0375
805.50115	27689.2375
809.36299	27582.2375
813.22213	27427.5375
817.07857	27375.8375
820.93231	27245.2375
824.78336	26998.9375
828.63172	26832.6375
832.47738	26705.1375
836.32036	26690.0375
840.16066	26774.0375
843.99827	26819.3375
847.8332	26787.1375
851.66546	26718.6375
855.49504	26740.2375
859.32195	26708.5375
863.1462	26662.1375
866.96777	26538.6375
870.78668	26452.0375
874.60293	26486.1375
878.41652	26460.1375
882.22745	26536.4375
886.03573	26576.2375
889.84136	26557.9375
893.64433	26522.0375
897.44466	26371.2375
901.24235	26364.2375
905.0374	26280.7375
908.8298	26275.9375
912.61957	26355.8375
916.40671	26651.0375
920.19121	27138.0375
923.97308	27462.0375
927.75233	27363.0375
931.52895	26993.8375
935.30295	26477.7375
939.07433	26017.9375
942.84309	25668.6375
946.60924	25493.6375
950.37278	25431.1375
954.13371	25413.9375
957.89203	25390.3375
961.64774	25421.8375
965.40086	25406.0375
969.15137	25341.9375
972.89929	25165.1375
976.64461	25052.1375
980.38733	24942.0375
984.12747	24989.2375
987.86502	25112.5375
991.59999	25262.4375
995.33237	25435.2375
999.06217	25830.9375
1002.78939	26318.4375
1006.51404	26795.7375
1010.23611	27216.9375
1013.95561	27526.6375
1017.67255	27547.8375
1021.38692	27306.0375
1025.09872	26908.5375
1028.80796	26638.9375
1032.51465	26726.8375
1036.21877	26987.9375
1039.92035	27088.8375
1043.61937	27166.3375
1047.31584	27031.2375
1051.00976	26892.2375
1054.70114	26910.3375
1058.38998	27124.3375
1062.07627	27364.8375
1065.76003	27678.5375
1069.44126	28011.6375
1073.11995	28394.7375
1076.79611	28723.4375
1080.46974	28833.1375
1084.14085	28979.8375
1087.80943	29244.6375
1091.47549	29606.3375
1095.13903	29655.4375
1098.80005	29413.5375
1102.45857	28751.8375
1106.11456	28129.5375
1109.76805	27839.6375
1113.41903	27807.4375
1117.06751	27932.4375
1120.71348	28221.0375
1124.35696	28475.6375
1127.99793	28788.0375
1131.63641	29089.7375
1135.2724	29072.4375
1138.90589	29048.4375
1142.5369	29267.3375
1146.16542	29632.0375
1149.79145	30075.6375
1153.415	30499.5375
1157.03607	31138.5375
1160.65467	32351.6375
1164.27079	34164.0375
1167.88443	36156.1375
1171.49561	37987.3375
1175.10432	40005.8375
1178.71056	42556.9375
1182.31434	45007.1375
1185.91565	46039.2375
1189.51451	45613.9375
1193.11091	44534.2375
1196.70485	43309.6375
1200.29634	42108.1375
1203.88538	41496.0375
1207.47197	41482.8375
1211.05612	41446.8375
1214.63782	40702.7375
1218.21708	39326.6375
1221.79391	37741.4375
1225.36829	36607.3375
1228.94024	35793.8375
1232.50976	35157.2375
1236.07685	34650.4375
1239.6415	34367.7375
1243.20374	34393.2375
1246.76355	34749.3375
1250.32093	35313.5375
1253.8759	36033.7375
1257.42845	36894.3375
1260.97859	37900.9375
1264.52631	38883.5375
1268.07163	39937.4375
1271.61453	41104.9375
1275.15503	42309.4375
1278.69312	43808.9375
1282.22882	45511.0375
1285.76211	47571.2375
1289.29301	49998.9375
1292.82151	52994.2375
1296.34761	56561.3375
1299.87133	60498.2375
1303.39266	64122.3375
1306.9116	66787.8375
1310.42815	68357.9375
1313.94233	68762.8375
1317.45412	68130.4375
1320.96354	67243.5375
1324.47058	66583.2375
1327.97525	66317.7375
1331.47754	66015.6375
1334.97747	65624.4375
1338.47502	64791.6375
1341.97022	63411.2375
1345.46305	61819.0375
1348.95352	60412.4375
1352.44163	59864.5375
1355.92738	60681.2375
1359.41078	62527.3375
1362.89183	63988.6375
1366.37053	63015.6375
1369.84688	58747.2375
1373.32088	52817.7375
1376.79254	48686.4375
1380.26186	47576.4375
1383.72883	48331.7375
1387.19347	49000.9375
1390.65578	48857.9375
1394.11575	48936.3375
1397.57339	49703.5375
1401.0287	50966.4375
1404.48168	51824.9375
1407.93234	51681.0375
1411.38068	50205.4375
1414.82669	47920.7375
1418.27039	45265.6375
1421.71177	42716.7375
1425.15083	40712.1375
1428.58758	39749.5375
1432.02203	40077.0375
1435.45416	41438.0375
1438.88399	43080.2375
1442.31151	44368.0375
1445.73673	45229.3375
1449.15965	45833.6375
1452.58027	46144.3375
1455.9986	46130.9375
1459.41463	46210.6375
1462.82837	46661.3375
1466.23982	47494.1375
1469.64898	48208.6375
1473.05586	48693.7375
1476.46045	48707.9375
1479.86276	48317.6375
1483.26279	47694.6375
1486.66054	47164.0375
1490.05602	47145.8375
1493.44922	47360.8375
1496.84016	47561.6375
1500.22882	47803.0375
1503.61521	48300.8375
1506.99934	49026.5375
1510.38121	49640.4375
1513.76081	49867.6375
1517.13816	49551.1375
1520.51324	49064.2375
1523.88607	48945.0375
1527.25665	49448.4375
1530.62498	49880.5375
1533.99105	49926.2375
1537.35488	49265.4375
1540.71647	47927.0375
1544.07581	46308.2375
1547.4329	44598.6375
1550.78776	43107.6375
1554.14038	42079.6375
1557.49077	41477.8375
1560.83892	41016.1375
1564.18484	40830.8375
1567.52853	40935.8375
1570.86999	41437.9375
1574.20922	42482.8375
1577.54624	43643.8375
1580.88103	44621.9375
1584.2136	45715.4375
1587.54395	47697.4375
1590.87208	50603.0375
1594.19801	53762.5375
1597.52172	56174.3375
1600.84321	56221.4375
1604.16251	52968.2375
1607.47959	48026.0375
1610.79447	43111.5375
1614.10715	38988.1375
1617.41763	35888.3375
1620.7259	33973.2375
1624.03199	33042.8375
1627.33587	33236.8375
1630.63757	34467.4375
1633.93707	37080.3375
1637.23439	41362.0375
1640.52951	47636.4375
1643.82246	55044.7375
1647.11321	60847.3375
1650.40179	61620.0375
1653.68819	56364.0375
1656.97241	48027.5375
1660.25446	40163.0375
1663.53433	34313.0375
1666.81203	30551.8375
1670.08756	28163.0375
1673.36092	26722.9375
1676.63211	25793.1375
1679.90115	25089.1375
1683.16801	24649.8375
1686.43272	24274.2375
1689.69527	24038.9375
1692.95567	23814.2375
1696.2139	23667.5375
1699.46999	23558.6375
1702.72392	23402.9375
1705.97571	23326.7375
1709.22535	23263.3375
1712.47284	23182.3375
1715.71819	23117.0375
1718.96139	23052.4375
1722.20246	22956.4375
1725.44139	22832.2375
1728.67818	22704.1375
1731.91284	22570.8375
1735.14537	22414.9375
1738.37576	22258.1375
1741.60403	22186.0375
1744.83017	22115.8375
1748.05418	22052.5375
1751.27607	21986.6375
1754.49584	22027.5375
1757.71349	22005.6375
1760.92903	21969.5375
1764.14244	21907.8375
1767.35375	21922.1375
1770.56294	21843.6375
1773.77002	21806.9375
1776.97499	21724.8375
1780.17785	21648.1375
1783.37861	21644.2375
1786.57727	21559.7375
1789.77382	21542.4375
1792.96828	21494.1375
1796.16064	21468.9375
1799.3509	21399.6375
1802.53907	21323.6375
1805.72514	21257.3375
1808.90913	21233.3375
1812.09102	21130.2375
1815.27083	21104.6375
1818.44856	21018.5375
1821.6242	21013.2375
1824.79776	21001.8375
1827.96924	20955.9375
1831.13864	20957.6375
1834.30597	20935.3375
1837.47122	20920.8375
1840.6344	20895.6375
1843.7955	20902.8375
1846.95454	20927.4375
1850.11151	20853.5375
1853.26642	20845.1375
1856.41926	20839.9375
1859.57004	20803.4375
1862.71876	20804.6375
1865.86542	20770.7375
1869.01003	20723.8375
1872.15258	20679.1375
1875.29308	20647.3375
1878.43152	20660.4375
1881.56792	20642.6375
1884.70227	20608.2375
1887.83457	20589.4375
1890.96482	20547.1375
1894.09304	20531.8375
1897.21921	20486.6375
1900.34335	20495.6375
1903.46544	20428.2375
1906.58551	20463.2375
1909.70353	20394.2375
1912.81953	20384.6375
1915.93349	20327.1375
1919.04543	20277.2375
1922.15534	20245.7375
1925.26322	20189.9375
1928.36908	20124.6375
1931.47292	20108.6375
1934.57473	20045.3375
1937.67453	19983.3375
1940.77232	19934.6375
1943.86808	19881.2375
1946.96184	19835.3375
1950.05358	19780.3375
1953.14331	19769.0375
1956.23103	19669.4375
1959.31675	19622.9375
1962.40046	19548.4375
1965.48217	19467.2375
1968.56188	19415.6375
1971.63959	19318.0375
1974.7153	19306.6375
1977.78901	19228.6375
1980.86073	19152.4375
1983.93046	19063.1375
1986.99819	19053.3375
1990.06394	19005.6375
1993.1277	18943.4375
1996.18947	18881.9375
1999.24925	18822.8375
2002.30706	18757.3375
2005.36288	18717.3375
2008.41672	18683.3375
2011.46859	18601.0375
2014.51848	18564.4375
2017.56639	18495.0375
2020.61233	18447.4375
2023.6563	18436.7375
2026.6983	18366.9375
2029.73833	18293.5375
2032.7764	18288.7375
2035.8125	18253.1375
2038.84664	18184.9375
2041.87881	18164.1375
2044.90903	18133.6375
2047.93729	18099.3375
2050.96359	18090.1375
2053.98794	18056.6375
2057.01034	18048.3375
2060.03078	18053.3375
2063.04927	17992.6375
2066.06582	18013.8375
2069.08042	17996.4375
2072.09307	17963.4375
2075.10378	17922.1375
2078.11255	17939.3375
2081.11938	17907.1375
2084.12426	17873.6375
2087.12722	17887.0375
2090.12824	17869.2375
2093.12732	17885.2375
2096.12447	17869.5375
2099.11969	17842.2375
2102.11299	17872.4375
2105.10435	17875.4375
2108.09379	17871.5375
2111.08131	17886.2375
2114.0669	17898.7375
2117.05057	17915.3375
2120.03233	17940.5375
2123.01216	17928.4375
2125.99008	17965.2375
2128.96609	17907.3375
2131.94018	17918.0375
2134.91236	17972.6375
2137.88263	17954.5375
2140.851	17941.8375
2143.81746	17959.3375
2146.78201	17915.5375
2149.74466	17900.6375
2152.7054	17889.5375
2155.66425	17866.9375
2158.6212	17921.5375
2161.57625	17870.6375
2164.52941	17854.5375
2167.48067	17868.5375
2170.43004	17839.1375
2173.37752	17858.2375
2176.32311	17832.0375
2179.26681	17846.4375
2182.20863	17905.4375
2185.14856	17853.7375
2188.08661	17805.8375
2191.02278	17870.6375
2193.95707	17861.0375
2196.88948	17792.0375
2199.82001	17759.8375
2202.74867	17738.4375
2205.67545	17733.5375
2208.60037	17714.7375
2211.52341	17665.1375
2214.44458	17656.1375
2217.36388	17620.1375
2220.28132	17620.1375
2223.1969	17553.7375
2226.11061	17533.2375
2229.02246	17495.2375
2231.93245	17483.0375
2234.84058	17460.3375
2237.74686	17413.9375
2240.65128	17401.6375
2243.55385	17386.5375
2246.45456	17348.8375
2249.35343	17326.5375
2252.25044	17264.7375
2255.14561	17229.0375
2258.03893	17201.1375
2260.93041	17126.9375
2263.82004	17090.1375
2266.70783	17051.7375
2269.59378	16993.8375
2272.4779	16965.1375
2275.36017	16900.1375
2278.24061	16867.8375
2281.11922	16867.5375
2283.996	16818.6375
2286.87094	16803.9375
2289.74405	16741.2375
2292.61534	16769.3375
2295.4848	16726.4375
2298.35243	16758.5375
2301.21824	16712.3375
2304.08223	16706.8375
2306.94439	16700.2375
2309.80474	16740.0375
2312.66327	16728.9375
2315.51999	16715.9375
2318.37489	16684.8375
2321.22797	16640.6375
2324.07925	16630.6375
2326.92871	16581.6375
2329.77637	16579.0375
2332.62222	16520.3375
2335.46626	16520.4375
2338.3085	16504.1375
2341.14893	16536.8375
2343.98756	16522.9375
2346.8244	16483.5375
2349.65943	16471.7375
2352.49267	16482.1375
2355.32411	16501.5375
2358.15376	16457.8375
2360.98161	16469.2375
2363.80768	16457.6375
2366.63195	16444.7375
2369.45444	16418.8375
2372.27514	16409.1375
2375.09405	16368.8375
2377.91118	16363.4375
2380.72652	16283.4375
2383.54009	16265.4375
2386.35187	16252.0375
2389.16188	16188.9375
2391.97011	16207.6375
2394.77657	16099.1375
2397.58125	16145.2375
2400.38416	16122.7375
2403.18529	16089.5375
2405.98466	16056.2375
2408.78226	16040.6375
2411.57809	16022.3375
2414.37216	16002.7375
2417.16446	16012.8375
2419.955	15974.0375
2422.74378	15978.4375
2425.5308	15916.5375
2428.31606	15905.7375
2431.09956	15946.3375
2433.88131	15928.1375
2436.6613	15929.4375
2439.43954	15898.4375
2442.21603	15879.0375
2444.99077	15861.3375
2447.76377	15865.1375
2450.53501	15877.1375
2453.30451	15856.6375
2456.07226	15846.5375
2458.83827	15871.9375
2461.60254	15850.8375
2464.36507	15840.9375
2467.12586	15808.1375
2469.88492	15810.3375
2472.64224	15876.3375
2475.39782	15838.7375
2478.15167	15849.5375
2480.90379	15801.9375
2483.65417	15791.7375
2486.40283	15816.0375
2489.14976	15841.6375
2491.89497	15815.5375
2494.63845	15875.8375
2497.3802	15836.2375
2500.12024	15848.6375
2502.85855	15802.1375
2505.59514	15793.7375
2508.33002	15774.6375
2511.06318	15764.5375
2513.79462	15733.9375
2516.52435	15723.7375
2519.25237	15729.7375
2521.97867	15737.3375
2524.70327	15692.1375
2527.42616	15671.4375
2530.14734	15716.7375
2532.86681	15706.6375
2535.58458	15708.4375
2538.30065	15666.1375
2541.01501	15661.9375
2543.72768	15676.4375
2546.43864	15649.5375
2549.14791	15619.1375
2551.85548	15637.7375
2554.56136	15624.3375
2557.26554	15562.9375
2559.96803	15564.8375
2562.66883	15554.8375
2565.36794	15519.6375
2568.06536	15487.1375
2570.7611	15503.1375
2573.45514	15484.7375
2576.14751	15453.5375
2578.83819	15467.4375
2581.52719	15459.6375
2584.21451	15442.6375
2586.90015	15439.8375
2589.58411	15438.9375
2592.2664	15441.6375
2594.94701	15402.1375
2597.62594	15395.9375
2600.30321	15378.9375
2602.9788	15381.6375
2605.65273	15387.8375
2608.32498	15391.8375
2610.99557	15329.3375
2613.66449	15393.9375
2616.33175	15359.1375
2618.99734	15357.8375
2621.66128	15353.8375
2624.32355	15333.0375
2626.98416	15312.0375
2629.64311	15285.5375
2632.30041	15314.1375
2634.95605	15289.0375
2637.61004	15299.5375
2640.26238	15251.7375
2642.91306	15266.1375
2645.56209	15261.7375
2648.20948	15297.9375
2650.85521	15297.7375
2653.4993	15322.8375
2656.14175	15290.8375
2658.78255	15315.3375
2661.42171	15330.3375
2664.05923	15334.7375
2666.6951	15317.1375
2669.32934	15364.8375
2671.96194	15345.3375
2674.59291	15343.4375
2677.22224	15359.7375
2679.84993	15363.3375
2682.476	15330.2375
2685.10043	15332.3375
2687.72324	15323.5375
2690.34441	15300.9375
2692.96396	15295.5375
2695.58188	15331.3375
2698.19818	15306.5375
2700.81285	15321.2375
2703.4259	15353.6375
2706.03733	15392.8375
2708.64714	15384.9375
2711.25533	15396.9375
2713.86191	15359.8375
2716.46687	15407.9375
2719.07021	15384.8375
2721.67194	15439.0375
2724.27206	15428.8375
2726.87057	15461.0375
2729.46747	15436.6375
2732.06276	15491.4375
2734.65644	15473.7375
2737.24852	15463.3375
2739.83899	15444.2375
2742.42786	15437.8375
2745.01513	15417.5375
2747.60079	15392.1375
2750.18486	15403.6375
2752.76733	15386.8375
2755.3482	15368.7375
2757.92747	15360.2375
2760.50515	15347.3375
2763.08123	15408.4375
2765.65573	15413.7375
2768.22863	15397.1375
2770.79994	15356.6375
2773.36967	15379.8375
2775.9378	15356.4375
2778.50435	15352.7375
2781.06932	15363.7375
2783.6327	15361.6375
2786.1945	15335.0375
2788.75471	15350.4375
2791.31335	15339.8375
2793.87041	15312.3375
2796.42589	15255.3375
2798.97979	15296.7375
2801.53212	15245.2375
2804.08288	15210.1375
2806.63206	15179.0375
2809.17967	15122.7375
2811.72571	15089.1375
2814.27018	15115.3375
2816.81308	15069.5375
2819.35442	15040.1375
2821.89419	15035.8375
2824.43239	15003.9375
2826.96904	15027.4375
2829.50412	15007.8375
2832.03763	14930.7375
2834.56959	14969.3375
2837.1	14944.2375
2839.62884	14947.4375
2842.15613	14972.3375
2844.68186	15015.4375
2847.20604	14996.8375
2849.72867	15044.5375
2852.24974	15023.8375
2854.76927	15013.3375
2857.28724	15013.6375
2859.80367	14996.0375
2862.31855	14960.4375
2864.83189	14903.3375
2867.34368	14936.9375
2869.85393	14892.2375
2872.36264	14845.7375
2874.8698	14841.3375
2877.37543	14813.7375
2879.87952	14804.7375
2882.38207	14825.8375
2884.88308	14827.5375
2887.38256	14808.6375
2889.88051	14824.9375
2892.37692	14850.3375
2894.8718	14805.5375
2897.36515	14876.3375
2899.85698	14852.7375
2902.34727	14873.4375
2904.83604	14909.6375
2907.32328	14901.6375
2909.809	14903.7375
2912.29319	14924.1375
2914.77587	14938.5375
2917.25702	14907.9375
2919.73665	14917.3375
2922.21476	14938.7375
2924.69136	14868.1375
2927.16644	14922.3375
2929.64	14879.6375
2932.11205	14868.6375
2934.58258	14815.8375
2937.05161	14825.5375
2939.51912	14849.0375
2941.98513	14823.1375
2944.44962	14803.7375
2946.91261	14718.8375
2949.37409	14740.8375
2951.83407	14711.8375
2954.29254	14701.5375
2956.74951	14684.7375
2959.20498	14675.9375
2961.65895	14664.9375
2964.11142	14638.8375
2966.56239	14625.7375
2969.01186	14612.3375
2971.45984	14593.9375
2973.90632	14600.1375
2976.35131	14592.1375
2978.7948	14540.1375
2981.23681	14479.0375
2983.67732	14456.7375
2986.11635	14436.2375
2988.55388	14419.3375
2990.98993	14368.5375
2993.4245	14289.3375
2995.85758	14264.5375
2998.28917	14199.8375
3000.71928	14179.6375
3003.14791	14172.3375
3005.57506	14160.4375
3008.00073	14108.7375
3010.42493	14010.7375
3012.84764	14065.4375
3015.26888	14056.7375
3017.68865	13999.5375
3020.10694	13997.2375
3022.52376	13935.9375
3024.9391	13957.4375
3027.35298	13921.4375
3029.76539	13920.5375
3032.17632	13889.5375
3034.5858	13853.5375
3036.9938	13852.2375
3039.40034	13849.6375
3041.80542	13871.0375
3044.20903	13842.1375
3046.61118	13832.6375
3049.01187	13784.4375
3051.4111	13759.7375
3053.80888	13748.8375
3056.20519	13727.5375
3058.60005	13694.9375
3060.99345	13677.5375
3063.3854	13626.2375
3065.7759	13555.7375
3068.16494	13509.5375
3070.55254	13468.1375
3072.93868	13455.0375
3075.32338	13394.2375
3077.70662	13379.8375
3080.08842	13340.7375
3082.46878	13332.0375
3084.84769	13275.7375
3087.22515	13288.5375
3089.60118	13272.5375
3091.97576	13274.9375
3094.3489	13277.8375
3096.72061	13263.9375
3099.09087	13247.2375
3101.4597	13223.0375
3103.82709	13230.7375
3106.19305	13225.8375
3108.55757	13174.9375
3110.92066	13136.6375
3113.28232	13161.1375
3115.64255	13128.7375
3118.00134	13100.2375
3120.35871	13084.5375
3122.71466	13053.6375
3125.06917	13009.9375
3127.42226	12968.4375
3129.77393	12947.8375
3132.12417	12956.5375
3134.47299	12936.1375
3136.82039	12923.5375
3139.16636	12892.4375
3141.51092	12883.7375
3143.85406	12875.3375
3146.19579	12862.3375
3148.53609	12838.6375
3150.87499	12879.7375
3153.21246	12893.7375
3155.54853	12876.1375
3157.88318	12889.2375
3160.21642	12873.3375
3162.54826	12880.6375
3164.87868	12911.7375
3167.2077	12862.9375
3169.5353	12858.5375
3171.86151	12890.5375
3174.18631	12831.0375
3176.5097	12850.3375
3178.83169	12802.3375
3181.15228	12830.7375
3183.47147	12772.0375
3185.78926	12786.8375
3188.10565	12723.2375
3190.42065	12725.7375
3192.73424	12716.0375
3195.04645	12693.6375
3197.35725	12659.4375
3199.66667	12661.6375
3201.97469	12670.9375
3204.28132	12633.6375
3206.58656	12669.1375
3208.8904	12643.2375
3211.19287	12638.0375
3213.49394	12652.9375
3215.79363	12649.3375
3218.09193	12653.7375
3220.38884	12633.1375
3222.68438	12661.9375
3224.97853	12614.9375
3227.2713	12615.5375
3229.56269	12584.7375
3231.8527	12587.3375
3234.14133	12580.3375
3236.42858	12551.6375
3238.71446	12487.6375
3240.99896	12524.3375
3243.28209	12501.9375
3245.56384	12458.9375
3247.84423	12475.5375
3250.12324	12444.6375
3252.40088	12437.9375
3254.67715	12407.5375
3256.95205	12381.2375
3259.22558	12390.2375
3261.49775	12360.7375
3263.76855	12344.6375
3266.03799	12291.3375
3268.30606	12303.2375
3270.57277	12241.4375
3272.83812	12230.5375
3275.10211	12193.3375
3277.36474	12181.1375
3279.62601	12193.2375
3281.88593	12167.0375
3284.14448	12175.6375
3286.40168	12204.2375
3288.65753	12200.3375
3290.91202	12191.1375
3293.16516	12155.1375
3295.41695	12122.2375
3297.66738	12071.2375
3299.91647	11970.0375
3302.16421	11902.3375
3304.4106	11840.6375
3306.65564	11772.3375
3308.89933	11682.6375
3311.14169	11597.1375
3313.38269	11501.2375
3315.62236	11454.0375
3317.86068	11297.6375
3320.09766	11214.4375
3322.3333	11131.7375
3324.5676	11122.5375
3326.80056	10906.2375
3329.03219	10845.7375
3331.26248	3.9375
3333.49143	-0.7625
3335.71905	-1.3625
