Data from AgNPs_FTO_APTES_UA_5uM_CRN_500uM_R6G_10uM_NaF_0.1M_Addition_RamanShift__32__17-18-01-853.txt Node

Date: Mon Feb 07 17:18:01 GMT 2022
User: TCL
Spectrometer: QEP01345
Trigger mode: 4
Integration Time (sec): 7.000000E0
Scans to average: 10
Electric dark correction enabled: true
Nonlinearity correction enabled: false
Boxcar width: 0
XAxis mode: Raman Shifts
Number of Pixels in Spectrum: 1044
>>>>>Begin Spectral Data<<<<<
46.04893	-2.325
50.45542	-0.625
54.85868	0.475
59.25871	2.275
63.6555	39.075
68.04907	41.475
72.43941	44.875
76.82654	47.075
81.21044	47.275
85.59113	46.475
89.96862	53.375
94.34289	56.475
98.71396	56.975
103.08183	55.875
107.4465	58.575
111.80798	58.675
116.16626	59.575
120.52136	64.075
124.87327	66.475
129.222	70.875
133.56755	71.375
137.90993	79.975
142.24913	84.075
146.58517	94.375
150.91804	104.375
155.24774	129.575
159.57429	160.075
163.89768	204.575
168.21792	278.375
172.53501	371.175
176.84895	514.475
181.15975	727.875
185.46741	1007.975
189.77193	1392.775
194.07331	1861.275
198.37157	2398.675
202.6667	2955.075
206.9587	3529.875
211.24758	4120.875
215.53334	4727.575
219.81599	5428.475
224.09553	6206.975
228.37195	7072.275
232.64527	8011.775
236.91549	8942.675
241.18261	9759.675
245.44663	10382.275
249.70755	10842.875
253.96539	11241.175
258.22014	11611.275
262.4718	11890.275
266.72039	12092.775
270.96589	12188.975
275.20832	12183.675
279.44768	12077.675
283.68397	11923.575
287.91719	11867.975
292.14735	11987.575
296.37445	12360.375
300.59849	12991.875
304.81948	13722.175
309.03742	14264.775
313.25231	14271.775
317.46415	13424.875
321.67296	12126.675
325.87872	10995.475
330.08145	10466.675
334.28114	10397.975
338.47781	10638.075
342.67145	11015.975
346.86207	11652.075
351.04966	12542.175
355.23424	13575.275
359.4158	14255.975
363.59435	14495.875
367.76989	14495.475
371.94243	14341.675
376.11196	14157.175
380.27849	13972.375
384.44203	13717.875
388.60257	13432.675
392.76012	13271.075
396.91468	13369.175
401.06626	13837.475
405.21485	14147.575
409.36047	13816.275
413.50311	12840.775
417.64277	11916.575
421.77947	11374.175
425.9132	11156.075
430.04396	11081.775
434.17176	11155.575
438.2966	11311.975
442.41849	11626.975
446.53742	11988.375
450.6534	12359.975
454.76644	12579.875
458.87653	12600.175
462.98368	12420.075
467.08789	12186.275
471.18916	11916.975
475.2875	11617.275
479.38291	11366.075
483.4754	11095.975
487.56496	10863.575
491.6516	10718.775
495.73531	10649.075
499.81612	10715.975
503.89401	10892.475
507.96899	11092.975
512.04106	11313.975
516.11023	11583.975
520.1765	11773.075
524.23987	11703.475
528.30034	11433.675
532.35792	11113.075
536.41261	10769.875
540.46441	10428.275
544.51333	10279.575
548.55936	10372.275
552.60252	10702.075
556.64279	11114.875
560.6802	11399.675
564.71473	11724.875
568.7464	12523.875
572.7752	13000.975
576.80114	12414.475
580.82422	11587.675
584.84444	11210.675
588.86181	11086.075
592.87633	11116.975
596.888	11245.175
600.89682	11690.375
604.9028	13386.375
608.90594	18357.375
612.90624	25428.775
616.90371	24712.675
620.89834	15722.175
624.89015	11414.975
628.87913	10572.075
632.86528	10678.075
636.84862	10969.475
640.82913	10787.575
644.80683	10147.875
648.78172	9734.475
652.75379	9778.675
656.72306	10370.975
660.68952	11145.975
664.65319	11010.775
668.61405	10229.875
672.57211	9835.475
676.52738	9816.375
680.47986	9818.575
684.42955	9732.475
688.37646	9625.875
692.32058	9663.075
696.26192	9770.875
700.20048	9917.275
704.13626	10046.175
708.06928	10030.375
711.99952	9896.075
715.927	9824.275
719.85171	9895.175
723.77365	9849.075
727.69284	9730.475
731.60928	9569.275
735.52295	9521.575
739.43388	9564.775
743.34206	9555.475
747.24749	9616.975
751.15017	9729.075
755.05012	10020.275
758.94733	10711.275
762.8418	12388.575
766.73354	15313.775
770.62254	18392.775
774.50882	20027.875
778.39237	19156.675
782.27321	15989.175
786.15132	12721.475
790.02671	10872.275
793.89938	10050.075
797.76935	9697.575
801.6366	9544.075
805.50115	9446.075
809.36299	9384.775
813.22213	9308.875
817.07857	9280.075
820.93231	9284.175
824.78336	9332.175
828.63172	9440.275
832.47738	9454.375
836.32036	9405.575
840.16066	9258.075
843.99827	9177.875
847.8332	9153.075
851.66546	9116.575
855.49504	9121.775
859.32195	9083.775
863.1462	9019.275
866.96777	8977.675
870.78668	8952.875
874.60293	8967.175
878.41652	9023.775
882.22745	9104.375
886.03573	9147.275
889.84136	9129.675
893.64433	9049.775
897.44466	9033.575
901.24235	9022.075
905.0374	8978.675
908.8298	8940.375
912.61957	8922.075
916.40671	8995.575
920.19121	9090.275
923.97308	9188.375
927.75233	9314.475
931.52895	9445.475
935.30295	9323.375
939.07433	8926.375
942.84309	8591.075
946.60924	8363.775
950.37278	8251.875
954.13371	8193.775
957.89203	8155.675
961.64774	8098.475
965.40086	8093.475
969.15137	8057.875
972.89929	8048.775
976.64461	8044.075
980.38733	8022.575
984.12747	8015.375
987.86502	8057.675
991.59999	8088.275
995.33237	8173.675
999.06217	8341.975
1002.78939	8554.875
1006.51404	8819.675
1010.23611	9067.075
1013.95561	9217.075
1017.67255	9127.075
1021.38692	8957.075
1025.09872	8746.775
1028.80796	8601.575
1032.51465	8585.975
1036.21877	8699.075
1039.92035	8834.575
1043.61937	8919.975
1047.31584	8981.975
1051.00976	9014.475
1054.70114	9015.775
1058.38998	9004.275
1062.07627	9074.875
1065.76003	9153.875
1069.44126	9216.875
1073.11995	9333.975
1076.79611	9518.775
1080.46974	9768.575
1084.14085	10128.175
1087.80943	10563.175
1091.47549	10751.275
1095.13903	10507.875
1098.80005	9971.975
1102.45857	9552.475
1106.11456	9363.775
1109.76805	9424.475
1113.41903	9713.675
1117.06751	10257.175
1120.71348	10973.475
1124.35696	11729.275
1127.99793	12377.375
1131.63641	12195.475
1135.2724	11289.375
1138.90589	10482.075
1142.5369	9997.975
1146.16542	9741.475
1149.79145	9581.375
1153.415	9594.575
1157.03607	9708.875
1160.65467	10020.875
1164.27079	10513.075
1167.88443	11321.175
1171.49561	12598.075
1175.10432	14826.875
1178.71056	17623.775
1182.31434	19390.075
1185.91565	19495.575
1189.51451	18637.675
1193.11091	17234.775
1196.70485	15616.575
1200.29634	14529.175
1203.88538	13616.575
1207.47197	12543.875
1211.05612	11583.775
1214.63782	11082.875
1218.21708	10904.475
1221.79391	10914.875
1225.36829	10956.575
1228.94024	10958.975
1232.50976	10928.675
1236.07685	10942.975
1239.6415	10952.975
1243.20374	11015.675
1246.76355	11065.175
1250.32093	11224.175
1253.8759	11464.475
1257.42845	11872.275
1260.97859	12357.375
1264.52631	12917.975
1268.07163	13367.575
1271.61453	13815.875
1275.15503	14115.975
1278.69312	14137.275
1282.22882	14156.375
1285.76211	14525.475
1289.29301	15178.175
1292.82151	15862.975
1296.34761	16555.775
1299.87133	17670.075
1303.39266	19544.875
1306.9116	22434.475
1310.42815	25777.175
1313.94233	27625.275
1317.45412	26919.075
1320.96354	24586.775
1324.47058	22005.075
1327.97525	19835.275
1331.47754	18489.175
1334.97747	17901.375
1338.47502	17949.875
1341.97022	18426.175
1345.46305	19400.175
1348.95352	20925.175
1352.44163	22972.075
1355.92738	25996.375
1359.41078	30718.575
1362.89183	35198.975
1366.37053	33809.375
1369.84688	27581.775
1373.32088	21786.475
1376.79254	18268.475
1380.26186	16472.475
1383.72883	15542.075
1387.19347	14886.775
1390.65578	14249.375
1394.11575	13692.275
1397.57339	13440.275
1401.0287	13488.375
1404.48168	13617.475
1407.93234	13708.775
1411.38068	13685.675
1414.82669	13549.375
1418.27039	13217.275
1421.71177	12856.675
1425.15083	12477.875
1428.58758	12224.075
1432.02203	12264.075
1435.45416	12431.375
1438.88399	12500.975
1442.31151	12539.175
1445.73673	12598.975
1449.15965	12734.875
1452.58027	12741.275
1455.9986	12701.475
1459.41463	12722.275
1462.82837	12939.575
1466.23982	13283.175
1469.64898	13608.175
1473.05586	13831.775
1476.46045	13953.375
1479.86276	14244.375
1483.26279	14578.875
1486.66054	14981.375
1490.05602	15622.075
1493.44922	16541.875
1496.84016	17985.475
1500.22882	20425.375
1503.61521	23741.275
1506.99934	27516.375
1510.38121	31210.575
1513.76081	33051.275
1517.13816	31256.675
1520.51324	26599.575
1523.88607	21963.175
1527.25665	18863.375
1530.62498	17133.875
1533.99105	16130.475
1537.35488	15486.075
1540.71647	15101.975
1544.07581	14859.675
1547.4329	14722.475
1550.78776	14622.375
1554.14038	14618.275
1557.49077	14758.775
1560.83892	15167.775
1564.18484	15826.975
1567.52853	16500.475
1570.86999	17106.075
1574.20922	17438.075
1577.54624	17271.775
1580.88103	16106.575
1584.2136	14592.175
1587.54395	13739.575
1590.87208	13785.475
1594.19801	14621.175
1597.52172	15841.475
1600.84321	16397.075
1604.16251	15782.375
1607.47959	14518.575
1610.79447	13201.375
1614.10715	11952.275
1617.41763	10945.875
1620.7259	10325.075
1624.03199	10018.075
1627.33587	9982.775
1630.63757	10218.175
1633.93707	10795.175
1637.23439	11788.275
1640.52951	13393.675
1643.82246	15743.175
1647.11321	18719.775
1650.40179	20927.275
1653.68819	20555.375
1656.97241	17415.875
1660.25446	13771.575
1663.53433	11123.475
1666.81203	9618.775
1670.08756	8781.575
1673.36092	8296.575
1676.63211	7981.775
1679.90115	7744.775
1683.16801	7573.875
1686.43272	7461.475
1689.69527	7370.275
1692.95567	7290.775
1696.2139	7223.775
1699.46999	7174.675
1702.72392	7141.975
1705.97571	7137.775
1709.22535	7117.575
1712.47284	7126.075
1715.71819	7125.175
1718.96139	7143.875
1722.20246	7125.075
1725.44139	7092.075
1728.67818	7020.475
1731.91284	6955.975
1735.14537	6868.275
1738.37576	6816.075
1741.60403	6768.675
1744.83017	6711.475
1748.05418	6690.675
1751.27607	6671.175
1754.49584	6662.975
1757.71349	6632.975
1760.92903	6608.475
1764.14244	6605.475
1767.35375	6580.275
1770.56294	6534.575
1773.77002	6505.775
1776.97499	6448.975
1780.17785	6436.975
1783.37861	6422.275
1786.57727	6410.575
1789.77382	6394.675
1792.96828	6371.875
1796.16064	6342.375
1799.3509	6349.875
1802.53907	6314.375
1805.72514	6308.975
1808.90913	6257.475
1812.09102	6237.075
1815.27083	6206.575
1818.44856	6195.075
1821.6242	6175.575
1824.79776	6160.375
1827.96924	6162.275
1831.13864	6141.075
1834.30597	6136.375
1837.47122	6097.875
1840.6344	6083.675
1843.7955	6084.075
1846.95454	6089.275
1850.11151	6083.175
1853.26642	6062.275
1856.41926	6062.275
1859.57004	6052.375
1862.71876	6061.275
1865.86542	6066.075
1869.01003	6054.875
1872.15258	6047.075
1875.29308	6053.875
1878.43152	6039.375
1881.56792	6041.075
1884.70227	6046.175
1887.83457	6029.875
1890.96482	6040.275
1894.09304	6019.375
1897.21921	6025.575
1900.34335	6023.575
1903.46544	6012.975
1906.58551	6035.875
1909.70353	6019.975
1912.81953	6018.275
1915.93349	6014.575
1919.04543	6016.375
1922.15534	5998.875
1925.26322	5968.975
1928.36908	5953.775
1931.47292	5946.175
1934.57473	5911.575
1937.67453	5873.875
1940.77232	5827.675
1943.86808	5805.275
1946.96184	5777.575
1950.05358	5750.175
1953.14331	5724.175
1956.23103	5703.275
1959.31675	5673.675
1962.40046	5649.675
1965.48217	5659.275
1968.56188	5631.475
1971.63959	5627.775
1974.7153	5607.675
1977.78901	5575.575
1980.86073	5565.875
1983.93046	5538.375
1986.99819	5506.775
1990.06394	5496.475
1993.1277	5455.775
1996.18947	5447.575
1999.24925	5424.575
2002.30706	5417.775
2005.36288	5379.675
2008.41672	5362.175
2011.46859	5343.875
2014.51848	5332.775
2017.56639	5297.975
2020.61233	5287.575
2023.6563	5272.975
2026.6983	5250.075
2029.73833	5222.575
2032.7764	5215.975
2035.8125	5205.475
2038.84664	5186.675
2041.87881	5192.675
2044.90903	5165.675
2047.93729	5151.675
2050.96359	5150.875
2053.98794	5147.475
2057.01034	5134.575
2060.03078	5130.875
2063.04927	5107.275
2066.06582	5102.175
2069.08042	5098.775
2072.09307	5101.375
2075.10378	5083.075
2078.11255	5084.675
2081.11938	5063.575
2084.12426	5084.175
2087.12722	5076.175
2090.12824	5066.275
2093.12732	5057.075
2096.12447	5067.875
2099.11969	5055.375
2102.11299	5057.975
2105.10435	5053.675
2108.09379	5023.875
2111.08131	5049.675
2114.0669	5055.075
2117.05057	5075.075
2120.03233	5070.375
2123.01216	5079.875
2125.99008	5070.175
2128.96609	5077.575
2131.94018	5077.575
2134.91236	5084.975
2137.88263	5081.975
2140.851	5080.775
2143.81746	5083.575
2146.78201	5043.575
2149.74466	5054.275
2152.7054	5040.175
2155.66425	5035.575
2158.6212	5024.375
2161.57625	5009.575
2164.52941	5009.275
2167.48067	5003.775
2170.43004	4996.375
2173.37752	4997.875
2176.32311	5000.875
2179.26681	5006.275
2182.20863	5002.575
2185.14856	5002.275
2188.08661	4996.775
2191.02278	4998.775
2193.95707	4986.075
2196.88948	4960.775
2199.82001	4944.175
2202.74867	4924.375
2205.67545	4935.475
2208.60037	4933.475
2211.52341	4923.375
2214.44458	4911.775
2217.36388	4904.475
2220.28132	4896.675
2223.1969	4882.375
2226.11061	4853.875
2229.02246	4849.675
2231.93245	4833.075
2234.84058	4814.575
2237.74686	4798.775
2240.65128	4812.675
2243.55385	4781.375
2246.45456	4792.475
2249.35343	4787.775
2252.25044	4792.275
2255.14561	4800.075
2258.03893	4782.775
2260.93041	4771.075
2263.82004	4768.875
2266.70783	4781.275
2269.59378	4744.375
2272.4779	4743.875
2275.36017	4706.375
2278.24061	4690.475
2281.11922	4704.575
2283.996	4687.275
2286.87094	4678.575
2289.74405	4640.475
2292.61534	4650.875
2295.4848	4628.875
2298.35243	4631.075
2301.21824	4627.075
2304.08223	4628.075
2306.94439	4624.375
2309.80474	4616.075
2312.66327	4598.675
2315.51999	4596.675
2318.37489	4591.875
2321.22797	4588.075
2324.07925	4578.775
2326.92871	4580.275
2329.77637	4565.475
2332.62222	4562.975
2335.46626	4557.775
2338.3085	4558.575
2341.14893	4559.775
2343.98756	4547.875
2346.8244	4550.475
2349.65943	4552.675
2352.49267	4557.775
2355.32411	4568.575
2358.15376	4578.875
2360.98161	4586.475
2363.80768	4614.475
2366.63195	4628.875
2369.45444	4627.575
2372.27514	4617.875
2375.09405	4603.375
2377.91118	4591.375
2380.72652	4566.675
2383.54009	4538.375
2386.35187	4521.375
2389.16188	4475.875
2391.97011	4465.975
2394.77657	4453.975
2397.58125	4426.175
2400.38416	4415.475
2403.18529	4388.975
2405.98466	4395.775
2408.78226	4383.375
2411.57809	4375.875
2414.37216	4372.775
2417.16446	4372.975
2419.955	4372.475
2422.74378	4359.075
2425.5308	4356.175
2428.31606	4353.175
2431.09956	4358.075
2433.88131	4361.075
2436.6613	4361.475
2439.43954	4365.075
2442.21603	4354.775
2444.99077	4372.775
2447.76377	4357.275
2450.53501	4355.375
2453.30451	4366.975
2456.07226	4368.175
2458.83827	4364.175
2461.60254	4357.675
2464.36507	4361.575
2467.12586	4343.175
2469.88492	4336.975
2472.64224	4339.075
2475.39782	4361.075
2478.15167	4356.875
2480.90379	4368.475
2483.65417	4372.975
2486.40283	4401.675
2489.14976	4418.275
2491.89497	4404.175
2494.63845	4424.275
2497.3802	4414.775
2500.12024	4403.975
2502.85855	4389.175
2505.59514	4365.875
2508.33002	4350.975
2511.06318	4315.575
2513.79462	4305.575
2516.52435	4276.675
2519.25237	4240.775
2521.97867	4225.475
2524.70327	4224.375
2527.42616	4211.475
2530.14734	4209.775
2532.86681	4194.075
2535.58458	4216.775
2538.30065	4200.875
2541.01501	4205.975
2543.72768	4193.975
2546.43864	4186.075
2549.14791	4179.675
2551.85548	4209.875
2554.56136	4185.075
2557.26554	4189.175
2559.96803	4179.275
2562.66883	4148.675
2565.36794	4160.075
2568.06536	4144.275
2570.7611	4154.275
2573.45514	4153.975
2576.14751	4119.975
2578.83819	4127.675
2581.52719	4119.775
2584.21451	4111.375
2586.90015	4105.375
2589.58411	4089.975
2592.2664	4080.075
2594.94701	4073.575
2597.62594	4069.475
2600.30321	4056.975
2602.9788	4083.275
2605.65273	4062.975
2608.32498	4065.975
2610.99557	4076.075
2613.66449	4065.975
2616.33175	4057.075
2618.99734	4057.675
2621.66128	4066.575
2624.32355	4044.275
2626.98416	4044.375
2629.64311	4017.475
2632.30041	4024.775
2634.95605	4018.775
2637.61004	3986.175
2640.26238	3990.575
2642.91306	3987.075
2645.56209	3978.075
2648.20948	3957.175
2650.85521	3984.675
2653.4993	3995.875
2656.14175	3976.575
2658.78255	3982.175
2661.42171	4007.675
2664.05923	3993.975
2666.6951	4001.475
2669.32934	4007.875
2671.96194	4015.975
2674.59291	4011.675
2677.22224	4009.975
2679.84993	4013.775
2682.476	4016.175
2685.10043	4006.275
2687.72324	4006.175
2690.34441	3994.775
2692.96396	3988.475
2695.58188	3995.675
2698.19818	3978.175
2700.81285	4004.075
2703.4259	4006.375
2706.03733	4016.375
2708.64714	4015.675
2711.25533	4028.375
2713.86191	4030.375
2716.46687	4033.675
2719.07021	4027.975
2721.67194	4041.475
2724.27206	4024.575
2726.87057	4034.475
2729.46747	4030.875
2732.06276	4048.575
2734.65644	4014.375
2737.24852	3988.075
2739.83899	3982.875
2742.42786	3988.475
2745.01513	3978.475
2747.60079	3965.775
2750.18486	3955.775
2752.76733	3952.575
2755.3482	3944.775
2757.92747	3931.875
2760.50515	3928.075
2763.08123	3913.675
2765.65573	3911.975
2768.22863	3906.575
2770.79994	3900.975
2773.36967	3905.775
2775.9378	3900.475
2778.50435	3897.375
2781.06932	3901.075
2783.6327	3891.075
2786.1945	3901.675
2788.75471	3902.975
2791.31335	3899.375
2793.87041	3900.875
2796.42589	3903.175
2798.97979	3911.775
2801.53212	3897.375
2804.08288	3888.375
2806.63206	3900.175
2809.17967	3910.075
2811.72571	3914.575
2814.27018	3909.775
2816.81308	3905.375
2819.35442	3920.575
2821.89419	3928.375
2824.43239	3949.075
2826.96904	3954.275
2829.50412	3969.475
2832.03763	3951.275
2834.56959	3956.075
2837.1	3958.975
2839.62884	4004.575
2842.15613	4038.075
2844.68186	4124.575
2847.20604	4224.275
2849.72867	4278.575
2852.24974	4292.475
2854.76927	4296.375
2857.28724	4294.075
2859.80367	4284.575
2862.31855	4256.975
2864.83189	4241.475
2867.34368	4222.875
2869.85393	4222.475
2872.36264	4226.675
2874.8698	4216.575
2877.37543	4217.375
2879.87952	4204.675
2882.38207	4197.675
2884.88308	4192.975
2887.38256	4183.775
2889.88051	4192.875
2892.37692	4185.075
2894.8718	4196.175
2897.36515	4196.675
2899.85698	4197.975
2902.34727	4203.275
2904.83604	4205.375
2907.32328	4200.275
2909.809	4201.175
2912.29319	4197.575
2914.77587	4183.875
2917.25702	4182.575
2919.73665	4173.275
2922.21476	4176.175
2924.69136	4164.675
2927.16644	4164.775
2929.64	4145.175
2932.11205	4136.975
2934.58258	4117.775
2937.05161	4105.375
2939.51912	4069.475
2941.98513	4034.275
2944.44962	3989.175
2946.91261	3938.575
2949.37409	3910.975
2951.83407	3877.675
2954.29254	3859.775
2956.74951	3839.975
2959.20498	3834.375
2961.65895	3836.175
2964.11142	3799.775
2966.56239	3786.375
2969.01186	3783.875
2971.45984	3766.275
2973.90632	3737.775
2976.35131	3738.875
2978.7948	3717.175
2981.23681	3706.475
2983.67732	3692.075
2986.11635	3681.575
2988.55388	3667.875
2990.98993	3653.175
2993.4245	3652.475
2995.85758	3626.175
2998.28917	3626.475
3000.71928	3609.075
3003.14791	3613.975
3005.57506	3611.375
3008.00073	3595.475
3010.42493	3591.675
3012.84764	3586.175
3015.26888	3591.475
3017.68865	3571.375
3020.10694	3579.375
3022.52376	3568.975
3024.9391	3546.275
3027.35298	3548.075
3029.76539	3549.475
3032.17632	3554.175
3034.5858	3533.075
3036.9938	3537.575
3039.40034	3529.675
3041.80542	3522.275
3044.20903	3507.575
3046.61118	3506.175
3049.01187	3480.275
3051.4111	3500.275
3053.80888	3500.375
3056.20519	3479.575
3058.60005	3467.275
3060.99345	3473.075
3063.3854	3478.775
3065.7759	3456.975
3068.16494	3448.775
3070.55254	3443.975
3072.93868	3434.375
3075.32338	3422.875
3077.70662	3412.975
3080.08842	3400.675
3082.46878	3394.075
3084.84769	3382.975
3087.22515	3369.575
3089.60118	3366.375
3091.97576	3361.475
3094.3489	3359.175
3096.72061	3368.275
3099.09087	3361.675
3101.4597	3361.875
3103.82709	3356.175
3106.19305	3353.575
3108.55757	3353.775
3110.92066	3344.375
3113.28232	3346.975
3115.64255	3331.975
3118.00134	3306.575
3120.35871	3332.775
3122.71466	3315.275
3125.06917	3312.575
3127.42226	3319.875
3129.77393	3317.275
3132.12417	3318.575
3134.47299	3321.175
3136.82039	3329.675
3139.16636	3334.775
3141.51092	3319.475
3143.85406	3319.575
3146.19579	3333.175
3148.53609	3337.275
3150.87499	3332.575
3153.21246	3345.675
3155.54853	3350.875
3157.88318	3354.275
3160.21642	3362.175
3162.54826	3355.975
3164.87868	3378.275
3167.2077	3362.275
3169.5353	3365.175
3171.86151	3386.675
3174.18631	3383.675
3176.5097	3376.075
3178.83169	3366.175
3181.15228	3376.875
3183.47147	3359.075
3185.78926	3365.675
3188.10565	3367.375
3190.42065	3364.575
3192.73424	3369.475
3195.04645	3372.475
3197.35725	3371.875
3199.66667	3370.675
3201.97469	3387.275
3204.28132	3397.175
3206.58656	3396.375
3208.8904	3394.475
3211.19287	3402.975
3213.49394	3413.075
3215.79363	3418.675
3218.09193	3421.875
3220.38884	3420.775
3222.68438	3422.275
3224.97853	3415.475
3227.2713	3445.375
3229.56269	3412.875
3231.8527	3413.275
3234.14133	3407.875
3236.42858	3403.975
3238.71446	3389.275
3240.99896	3387.375
3243.28209	3378.675
3245.56384	3380.375
3247.84423	3375.675
3250.12324	3383.875
3252.40088	3378.075
3254.67715	3374.375
3256.95205	3364.575
3259.22558	3360.975
3261.49775	3363.875
3263.76855	3359.775
3266.03799	3342.475
3268.30606	3337.975
3270.57277	3342.875
3272.83812	3326.175
3275.10211	3327.075
3277.36474	3324.975
3279.62601	3324.775
3281.88593	3311.675
3284.14448	3307.275
3286.40168	3319.575
3288.65753	3316.275
3290.91202	3306.475
3293.16516	3301.875
3295.41695	3294.575
3297.66738	3283.175
3299.91647	3249.875
3302.16421	3237.075
3304.4106	3227.375
3306.65564	3200.575
3308.89933	3183.475
3311.14169	3147.075
3313.38269	3125.675
3315.62236	3116.175
3317.86068	3076.775
3320.09766	3055.375
3322.3333	3032.175
3324.5676	3018.175
3326.80056	2967.075
3329.03219	2935.475
3331.26248	1.875
3333.49143	0.075
3335.71905	-1.825
