Data from AgNPs_FTO_APTES_UA_5uM_CRN_50uM_R6G_10uM_NaF_0.1M_Addition_RamanShift__0__13-42-36-802.txt Node

Date: Mon Feb 07 13:42:36 GMT 2022
User: TCL
Spectrometer: QEP01345
Trigger mode: 4
Integration Time (sec): 7.000000E0
Scans to average: 10
Electric dark correction enabled: true
Nonlinearity correction enabled: false
Boxcar width: 0
XAxis mode: Raman Shifts
Number of Pixels in Spectrum: 1044
>>>>>Begin Spectral Data<<<<<
46.04893	-1.3375
50.45542	-0.4375
54.85868	-0.3375
59.25871	-0.4375
63.6555	78.1625
68.04907	82.2625
72.43941	86.4625
76.82654	89.8625
81.21044	93.3625
85.59113	93.1625
89.96862	99.0625
94.34289	97.6625
98.71396	104.2625
103.08183	107.0625
107.4465	109.4625
111.80798	113.8625
116.16626	116.8625
120.52136	120.6625
124.87327	123.7625
129.222	138.8625
133.56755	146.7625
137.90993	158.0625
142.24913	174.9625
146.58517	193.7625
150.91804	229.9625
155.24774	278.1625
159.57429	345.7625
163.89768	451.4625
168.21792	608.7625
172.53501	837.5625
176.84895	1159.5625
181.15975	1635.6625
185.46741	2298.2625
189.77193	3178.6625
194.07331	4243.0625
198.37157	5459.7625
202.6667	6742.1625
206.9587	8011.2625
211.24758	9311.8625
215.53334	10566.0625
219.81599	11954.4625
224.09553	13484.7625
228.37195	15185.3625
232.64527	17002.0625
236.91549	18837.9625
241.18261	20647.8625
245.44663	22365.7625
249.70755	23790.3625
253.96539	25107.6625
258.22014	26221.7625
262.4718	27243.3625
266.72039	27925.5625
270.96589	28329.1625
275.20832	28355.1625
279.44768	28212.6625
283.68397	27941.4625
287.91719	27700.7625
292.14735	27581.6625
296.37445	27744.5625
300.59849	27939.2625
304.81948	28266.8625
309.03742	28371.8625
313.25231	28188.9625
317.46415	27537.3625
321.67296	26682.3625
325.87872	25879.0625
330.08145	25459.3625
334.28114	25351.4625
338.47781	25599.2625
342.67145	25921.9625
346.86207	26356.8625
351.04966	27004.3625
355.23424	27706.2625
359.4158	28297.6625
363.59435	28631.2625
367.76989	28872.2625
371.94243	29006.9625
376.11196	29102.9625
380.27849	29247.3625
384.44203	29330.0625
388.60257	29400.8625
392.76012	29694.2625
396.91468	30067.5625
401.06626	30565.5625
405.21485	30941.3625
409.36047	30792.2625
413.50311	30280.8625
417.64277	29748.5625
421.77947	29595.1625
425.9132	29620.9625
430.04396	29805.4625
434.17176	29991.8625
438.2966	30392.5625
442.41849	31138.0625
446.53742	32246.2625
450.6534	33577.0625
454.76644	34452.0625
458.87653	34716.7625
462.98368	34344.3625
467.08789	33689.7625
471.18916	33053.9625
475.2875	32635.2625
479.38291	32470.3625
483.4754	32266.5625
487.56496	31914.2625
491.6516	31294.0625
495.73531	30604.7625
499.81612	30169.3625
503.89401	30094.5625
507.96899	30139.4625
512.04106	30007.1625
516.11023	29790.7625
520.1765	29593.3625
524.23987	29374.2625
528.30034	29167.4625
532.35792	29014.6625
536.41261	28646.3625
540.46441	28171.6625
544.51333	28075.5625
548.55936	28397.6625
552.60252	29061.5625
556.64279	29882.8625
560.6802	30606.6625
564.71473	31099.1625
568.7464	31901.6625
572.7752	32966.2625
576.80114	33474.2625
580.82422	33740.5625
584.84444	34456.5625
588.86181	35465.8625
592.87633	36633.9625
596.888	37036.5625
600.89682	36379.8625
604.9028	36696.6625
608.90594	39648.6625
612.90624	43326.1625
616.90371	40761.6625
620.89834	33377.7625
624.89015	30071.5625
628.87913	29696.5625
632.86528	29744.8625
636.84862	29607.1625
640.82913	28997.5625
644.80683	28072.8625
648.78172	27487.1625
652.75379	27387.1625
656.72306	27790.3625
660.68952	28387.1625
664.65319	28261.3625
668.61405	27611.5625
672.57211	27382.3625
676.52738	27431.7625
680.47986	27362.2625
684.42955	27179.9625
688.37646	27028.0625
692.32058	27260.7625
696.26192	27654.7625
700.20048	28043.8625
704.13626	28324.9625
708.06928	28179.0625
711.99952	28034.1625
715.927	28024.3625
719.85171	28266.9625
723.77365	28164.4625
727.69284	27771.4625
731.60928	27465.1625
735.52295	27344.7625
739.43388	27379.2625
743.34206	27436.7625
747.24749	27606.4625
751.15017	27922.4625
755.05012	28454.7625
758.94733	29362.1625
762.8418	31059.4625
766.73354	33652.1625
770.62254	36125.4625
774.50882	36739.4625
778.39237	35066.5625
782.27321	32255.4625
786.15132	29833.7625
790.02671	28449.0625
793.89938	27760.9625
797.76935	27476.8625
801.6366	27441.1625
805.50115	27349.9625
809.36299	27218.2625
813.22213	27048.4625
817.07857	27063.6625
820.93231	27000.2625
824.78336	26885.6625
828.63172	26837.4625
832.47738	26823.0625
836.32036	26893.4625
840.16066	27049.5625
843.99827	27177.5625
847.8332	27038.1625
851.66546	26855.8625
855.49504	26839.9625
859.32195	26765.0625
863.1462	26647.4625
866.96777	26503.1625
870.78668	26437.3625
874.60293	26387.7625
878.41652	26394.0625
882.22745	26504.8625
886.03573	26628.0625
889.84136	26621.9625
893.64433	26478.6625
897.44466	26293.5625
901.24235	26230.1625
905.0374	26162.6625
908.8298	26155.7625
912.61957	26231.2625
916.40671	26515.1625
920.19121	26991.0625
923.97308	27362.9625
927.75233	27497.1625
931.52895	27373.7625
935.30295	27006.6625
939.07433	26452.4625
942.84309	26060.8625
946.60924	25838.2625
950.37278	25760.0625
954.13371	25674.6625
957.89203	25577.2625
961.64774	25518.5625
965.40086	25447.6625
969.15137	25400.8625
972.89929	25305.8625
976.64461	25239.3625
980.38733	25296.2625
984.12747	25435.1625
987.86502	25746.4625
991.59999	26126.8625
995.33237	26656.0625
999.06217	27534.7625
1002.78939	28443.0625
1006.51404	29066.7625
1010.23611	29323.8625
1013.95561	29485.4625
1017.67255	29427.3625
1021.38692	29012.7625
1025.09872	28610.1625
1028.80796	28862.4625
1032.51465	29793.9625
1036.21877	30744.6625
1039.92035	30984.7625
1043.61937	30594.1625
1047.31584	29790.8625
1051.00976	28927.9625
1054.70114	28441.2625
1058.38998	28321.4625
1062.07627	28352.7625
1065.76003	28485.2625
1069.44126	28681.3625
1073.11995	28996.3625
1076.79611	29325.0625
1080.46974	29597.5625
1084.14085	29949.2625
1087.80943	30383.6625
1091.47549	30677.7625
1095.13903	30682.5625
1098.80005	30205.1625
1102.45857	29569.0625
1106.11456	29182.6625
1109.76805	29003.6625
1113.41903	29114.4625
1117.06751	29393.3625
1120.71348	29740.1625
1124.35696	30137.3625
1127.99793	30528.9625
1131.63641	30747.0625
1135.2724	30426.2625
1138.90589	30150.4625
1142.5369	30100.2625
1146.16542	30216.5625
1149.79145	30488.9625
1153.415	30875.5625
1157.03607	31460.3625
1160.65467	32449.7625
1164.27079	33995.9625
1167.88443	35961.2625
1171.49561	38329.2625
1175.10432	41413.0625
1178.71056	45321.7625
1182.31434	48776.1625
1185.91565	50163.3625
1189.51451	49341.6625
1193.11091	47398.2625
1196.70485	45226.5625
1200.29634	43389.9625
1203.88538	42321.1625
1207.47197	41562.6625
1211.05612	40782.7625
1214.63782	39954.0625
1218.21708	39146.9625
1221.79391	38697.5625
1225.36829	38294.3625
1228.94024	37652.9625
1232.50976	36671.8625
1236.07685	35862.1625
1239.6415	35474.9625
1243.20374	35451.0625
1246.76355	35838.3625
1250.32093	36527.5625
1253.8759	37430.1625
1257.42845	38506.4625
1260.97859	39547.5625
1264.52631	40652.4625
1268.07163	41842.2625
1271.61453	43218.4625
1275.15503	44631.2625
1278.69312	46095.8625
1282.22882	47500.7625
1285.76211	49165.0625
1289.29301	51207.1625
1292.82151	53756.7625
1296.34761	56915.4625
1299.87133	60946.6625
1303.39266	65226.7625
1306.9116	69623.4625
1310.42815	73323.6625
1313.94233	75178.6625
1317.45412	74742.1625
1320.96354	72696.2625
1324.47058	70524.0625
1327.97525	68547.1625
1331.47754	66947.0625
1334.97747	65967.1625
1338.47502	64995.6625
1341.97022	63607.6625
1345.46305	62050.4625
1348.95352	61112.6625
1352.44163	61385.1625
1355.92738	63549.9625
1359.41078	67459.9625
1362.89183	70947.1625
1366.37053	70165.8625
1369.84688	63874.5625
1373.32088	56081.7625
1376.79254	50933.7625
1380.26186	49264.4625
1383.72883	49494.1625
1387.19347	49744.7625
1390.65578	49416.3625
1394.11575	49367.1625
1397.57339	50225.2625
1401.0287	51632.6625
1404.48168	52727.9625
1407.93234	52873.0625
1411.38068	51684.8625
1414.82669	49606.0625
1418.27039	47087.0625
1421.71177	44551.2625
1425.15083	42506.8625
1428.58758	41427.4625
1432.02203	41723.8625
1435.45416	42975.8625
1438.88399	44545.8625
1442.31151	45816.0625
1445.73673	46783.1625
1449.15965	47549.8625
1452.58027	47937.0625
1455.9986	47830.3625
1459.41463	47791.2625
1462.82837	48285.2625
1466.23982	49237.7625
1469.64898	50128.8625
1473.05586	50669.1625
1476.46045	50899.9625
1479.86276	50692.7625
1483.26279	50179.0625
1486.66054	49773.7625
1490.05602	49724.0625
1493.44922	49947.4625
1496.84016	50192.5625
1500.22882	50832.9625
1503.61521	52060.4625
1506.99934	53868.0625
1510.38121	55663.7625
1513.76081	56540.7625
1517.13816	55634.7625
1520.51324	53344.9625
1523.88607	51147.9625
1527.25665	50096.7625
1530.62498	49799.9625
1533.99105	49719.1625
1537.35488	49305.2625
1540.71647	48425.1625
1544.07581	47239.2625
1547.4329	45866.7625
1550.78776	44735.7625
1554.14038	43919.2625
1557.49077	43491.5625
1560.83892	43254.4625
1564.18484	43263.0625
1567.52853	43580.0625
1570.86999	44109.3625
1574.20922	45034.1625
1577.54624	45834.6625
1580.88103	46187.1625
1584.2136	46730.3625
1587.54395	48542.1625
1590.87208	51564.0625
1594.19801	55169.5625
1597.52172	58271.1625
1600.84321	58959.8625
1604.16251	55771.5625
1607.47959	50408.4625
1610.79447	44913.3625
1614.10715	40304.9625
1617.41763	37075.5625
1620.7259	35132.8625
1624.03199	34357.0625
1627.33587	34694.3625
1630.63757	36014.0625
1633.93707	38612.3625
1637.23439	42726.6625
1640.52951	48538.3625
1643.82246	55552.5625
1647.11321	61221.9625
1650.40179	62376.3625
1653.68819	57650.3625
1656.97241	49145.1625
1660.25446	41043.3625
1663.53433	35196.5625
1666.81203	31574.0625
1670.08756	29403.3625
1673.36092	28043.9625
1676.63211	27200.3625
1679.90115	26562.9625
1683.16801	26156.8625
1686.43272	25814.9625
1689.69527	25560.7625
1692.95567	25390.3625
1696.2139	25287.3625
1699.46999	25161.8625
1702.72392	25089.6625
1705.97571	24980.9625
1709.22535	24956.7625
1712.47284	24929.5625
1715.71819	24898.7625
1718.96139	24776.7625
1722.20246	24710.1625
1725.44139	24628.8625
1728.67818	24498.2625
1731.91284	24336.0625
1735.14537	24211.7625
1738.37576	24063.2625
1741.60403	23989.1625
1744.83017	23875.4625
1748.05418	23877.6625
1751.27607	23841.2625
1754.49584	23784.5625
1757.71349	23765.6625
1760.92903	23783.6625
1764.14244	23785.8625
1767.35375	23737.9625
1770.56294	23734.8625
1773.77002	23651.9625
1776.97499	23606.6625
1780.17785	23547.2625
1783.37861	23521.5625
1786.57727	23481.5625
1789.77382	23439.8625
1792.96828	23421.5625
1796.16064	23409.5625
1799.3509	23346.5625
1802.53907	23315.6625
1805.72514	23222.7625
1808.90913	23187.3625
1812.09102	23131.6625
1815.27083	23070.1625
1818.44856	23023.2625
1821.6242	23022.3625
1824.79776	22959.2625
1827.96924	22950.4625
1831.13864	22930.8625
1834.30597	22941.3625
1837.47122	22872.5625
1840.6344	22867.6625
1843.7955	22870.7625
1846.95454	22826.0625
1850.11151	22838.8625
1853.26642	22837.3625
1856.41926	22850.6625
1859.57004	22856.9625
1862.71876	22882.7625
1865.86542	22791.8625
1869.01003	22821.0625
1872.15258	22784.3625
1875.29308	22757.2625
1878.43152	22753.1625
1881.56792	22768.9625
1884.70227	22752.5625
1887.83457	22729.8625
1890.96482	22726.2625
1894.09304	22679.0625
1897.21921	22692.0625
1900.34335	22730.5625
1903.46544	22746.5625
1906.58551	22709.0625
1909.70353	22681.3625
1912.81953	22659.8625
1915.93349	22620.2625
1919.04543	22555.7625
1922.15534	22546.6625
1925.26322	22496.4625
1928.36908	22420.7625
1931.47292	22379.2625
1934.57473	22365.6625
1937.67453	22240.1625
1940.77232	22234.9625
1943.86808	22163.4625
1946.96184	22068.4625
1950.05358	22015.9625
1953.14331	21988.4625
1956.23103	21903.6625
1959.31675	21856.9625
1962.40046	21781.7625
1965.48217	21719.7625
1968.56188	21672.4625
1971.63959	21611.1625
1974.7153	21557.2625
1977.78901	21518.7625
1980.86073	21420.4625
1983.93046	21346.0625
1986.99819	21273.3625
1990.06394	21219.4625
1993.1277	21185.5625
1996.18947	21116.9625
1999.24925	21066.3625
2002.30706	21036.0625
2005.36288	20988.1625
2008.41672	20938.3625
2011.46859	20875.7625
2014.51848	20781.5625
2017.56639	20772.2625
2020.61233	20709.4625
2023.6563	20660.0625
2026.6983	20620.5625
2029.73833	20577.1625
2032.7764	20587.6625
2035.8125	20527.1625
2038.84664	20501.8625
2041.87881	20488.6625
2044.90903	20449.5625
2047.93729	20448.2625
2050.96359	20419.4625
2053.98794	20375.5625
2057.01034	20378.1625
2060.03078	20322.7625
2063.04927	20342.3625
2066.06582	20365.6625
2069.08042	20336.1625
2072.09307	20322.0625
2075.10378	20259.0625
2078.11255	20258.3625
2081.11938	20265.7625
2084.12426	20203.3625
2087.12722	20279.7625
2090.12824	20225.8625
2093.12732	20180.3625
2096.12447	20183.2625
2099.11969	20202.4625
2102.11299	20235.7625
2105.10435	20233.8625
2108.09379	20199.4625
2111.08131	20256.2625
2114.0669	20266.1625
2117.05057	20301.7625
2120.03233	20295.6625
2123.01216	20313.7625
2125.99008	20351.5625
2128.96609	20355.7625
2131.94018	20377.7625
2134.91236	20414.1625
2137.88263	20420.9625
2140.851	20445.5625
2143.81746	20447.5625
2146.78201	20455.5625
2149.74466	20452.3625
2152.7054	20431.1625
2155.66425	20428.4625
2158.6212	20436.7625
2161.57625	20407.1625
2164.52941	20416.4625
2167.48067	20414.2625
2170.43004	20399.8625
2173.37752	20402.0625
2176.32311	20379.3625
2179.26681	20402.9625
2182.20863	20436.7625
2185.14856	20395.4625
2188.08661	20459.5625
2191.02278	20470.4625
2193.95707	20489.2625
2196.88948	20438.5625
2199.82001	20402.9625
2202.74867	20414.9625
2205.67545	20418.9625
2208.60037	20382.0625
2211.52341	20356.1625
2214.44458	20385.9625
2217.36388	20378.3625
2220.28132	20312.1625
2223.1969	20276.0625
2226.11061	20278.4625
2229.02246	20205.7625
2231.93245	20165.5625
2234.84058	20090.2625
2237.74686	20087.8625
2240.65128	20052.1625
2243.55385	20084.6625
2246.45456	20040.1625
2249.35343	19977.1625
2252.25044	19979.7625
2255.14561	19973.2625
2258.03893	19929.6625
2260.93041	19890.3625
2263.82004	19809.8625
2266.70783	19822.7625
2269.59378	19741.7625
2272.4779	19688.8625
2275.36017	19654.3625
2278.24061	19657.5625
2281.11922	19600.6625
2283.996	19567.8625
2286.87094	19565.3625
2289.74405	19512.9625
2292.61534	19525.6625
2295.4848	19543.9625
2298.35243	19554.0625
2301.21824	19561.5625
2304.08223	19579.0625
2306.94439	19596.6625
2309.80474	19621.2625
2312.66327	19629.0625
2315.51999	19613.5625
2318.37489	19584.2625
2321.22797	19571.8625
2324.07925	19557.4625
2326.92871	19516.9625
2329.77637	19490.6625
2332.62222	19467.3625
2335.46626	19477.7625
2338.3085	19473.6625
2341.14893	19479.5625
2343.98756	19522.8625
2346.8244	19497.0625
2349.65943	19521.0625
2352.49267	19473.6625
2355.32411	19497.0625
2358.15376	19493.1625
2360.98161	19492.9625
2363.80768	19419.4625
2366.63195	19449.8625
2369.45444	19430.4625
2372.27514	19389.7625
2375.09405	19339.5625
2377.91118	19312.7625
2380.72652	19252.8625
2383.54009	19250.4625
2386.35187	19254.9625
2389.16188	19187.6625
2391.97011	19147.9625
2394.77657	19139.9625
2397.58125	19102.1625
2400.38416	19077.6625
2403.18529	19048.9625
2405.98466	19038.3625
2408.78226	18978.8625
2411.57809	19005.7625
2414.37216	18964.5625
2417.16446	18939.6625
2419.955	18903.2625
2422.74378	18907.8625
2425.5308	18865.3625
2428.31606	18877.9625
2431.09956	18870.1625
2433.88131	18860.4625
2436.6613	18900.7625
2439.43954	18864.2625
2442.21603	18898.6625
2444.99077	18856.3625
2447.76377	18891.9625
2450.53501	18858.3625
2453.30451	18863.7625
2456.07226	18838.5625
2458.83827	18867.8625
2461.60254	18852.7625
2464.36507	18878.1625
2467.12586	18843.6625
2469.88492	18873.8625
2472.64224	18905.2625
2475.39782	18929.2625
2478.15167	18978.3625
2480.90379	18904.1625
2483.65417	18927.1625
2486.40283	18982.0625
2489.14976	19005.5625
2491.89497	19014.5625
2494.63845	19040.7625
2497.3802	19004.6625
2500.12024	19019.0625
2502.85855	19001.4625
2505.59514	18984.7625
2508.33002	18934.6625
2511.06318	18942.9625
2513.79462	18906.1625
2516.52435	18894.5625
2519.25237	18910.4625
2521.97867	18901.1625
2524.70327	18830.1625
2527.42616	18858.9625
2530.14734	18882.6625
2532.86681	18883.0625
2535.58458	18889.7625
2538.30065	18861.9625
2541.01501	18828.1625
2543.72768	18836.3625
2546.43864	18842.9625
2549.14791	18816.3625
2551.85548	18823.0625
2554.56136	18831.6625
2557.26554	18752.2625
2559.96803	18764.2625
2562.66883	18799.2625
2565.36794	18715.4625
2568.06536	18703.2625
2570.7611	18723.5625
2573.45514	18738.2625
2576.14751	18699.7625
2578.83819	18691.4625
2581.52719	18692.9625
2584.21451	18700.8625
2586.90015	18718.2625
2589.58411	18741.5625
2592.2664	18711.4625
2594.94701	18717.1625
2597.62594	18699.1625
2600.30321	18631.4625
2602.9788	18649.3625
2605.65273	18684.2625
2608.32498	18694.0625
2610.99557	18661.6625
2613.66449	18690.8625
2616.33175	18670.0625
2618.99734	18687.2625
2621.66128	18652.0625
2624.32355	18639.8625
2626.98416	18664.0625
2629.64311	18663.5625
2632.30041	18692.6625
2634.95605	18663.9625
2637.61004	18621.6625
2640.26238	18607.2625
2642.91306	18628.1625
2645.56209	18572.7625
2648.20948	18605.2625
2650.85521	18638.0625
2653.4993	18622.5625
2656.14175	18596.6625
2658.78255	18637.9625
2661.42171	18661.1625
2664.05923	18680.7625
2666.6951	18707.7625
2669.32934	18713.2625
2671.96194	18739.3625
2674.59291	18735.9625
2677.22224	18712.8625
2679.84993	18714.7625
2682.476	18688.0625
2685.10043	18701.7625
2687.72324	18681.6625
2690.34441	18639.3625
2692.96396	18618.8625
2695.58188	18647.6625
2698.19818	18637.2625
2700.81285	18695.0625
2703.4259	18663.2625
2706.03733	18787.5625
2708.64714	18711.9625
2711.25533	18716.1625
2713.86191	18746.1625
2716.46687	18769.6625
2719.07021	18783.3625
2721.67194	18849.6625
2724.27206	18816.5625
2726.87057	18856.5625
2729.46747	18865.2625
2732.06276	18902.0625
2734.65644	18852.6625
2737.24852	18846.1625
2739.83899	18846.2625
2742.42786	18858.9625
2745.01513	18814.5625
2747.60079	18817.4625
2750.18486	18791.4625
2752.76733	18785.1625
2755.3482	18772.7625
2757.92747	18798.1625
2760.50515	18792.2625
2763.08123	18820.4625
2765.65573	18819.2625
2768.22863	18824.9625
2770.79994	18789.4625
2773.36967	18815.9625
2775.9378	18785.5625
2778.50435	18799.5625
2781.06932	18797.3625
2783.6327	18846.0625
2786.1945	18814.2625
2788.75471	18825.9625
2791.31335	18790.6625
2793.87041	18763.0625
2796.42589	18723.1625
2798.97979	18700.8625
2801.53212	18709.7625
2804.08288	18649.1625
2806.63206	18590.4625
2809.17967	18606.4625
2811.72571	18554.0625
2814.27018	18546.7625
2816.81308	18502.4625
2819.35442	18501.6625
2821.89419	18457.1625
2824.43239	18474.5625
2826.96904	18480.1625
2829.50412	18481.1625
2832.03763	18437.0625
2834.56959	18432.1625
2837.1	18417.1625
2839.62884	18414.9625
2842.15613	18430.9625
2844.68186	18508.0625
2847.20604	18487.9625
2849.72867	18502.5625
2852.24974	18512.8625
2854.76927	18532.6625
2857.28724	18544.7625
2859.80367	18511.8625
2862.31855	18477.5625
2864.83189	18462.3625
2867.34368	18441.7625
2869.85393	18452.3625
2872.36264	18423.8625
2874.8698	18428.4625
2877.37543	18360.0625
2879.87952	18421.4625
2882.38207	18390.3625
2884.88308	18406.1625
2887.38256	18400.5625
2889.88051	18422.0625
2892.37692	18451.3625
2894.8718	18395.7625
2897.36515	18448.1625
2899.85698	18467.1625
2902.34727	18566.7625
2904.83604	18546.3625
2907.32328	18580.0625
2909.809	18575.4625
2912.29319	18584.3625
2914.77587	18587.4625
2917.25702	18597.1625
2919.73665	18600.1625
2922.21476	18579.9625
2924.69136	18552.8625
2927.16644	18532.9625
2929.64	18537.1625
2932.11205	18523.9625
2934.58258	18449.7625
2937.05161	18474.4625
2939.51912	18454.9625
2941.98513	18448.5625
2944.44962	18402.8625
2946.91261	18345.2625
2949.37409	18355.8625
2951.83407	18333.9625
2954.29254	18340.3625
2956.74951	18321.3625
2959.20498	18340.9625
2961.65895	18295.9625
2964.11142	18284.6625
2966.56239	18254.7625
2969.01186	18262.5625
2971.45984	18249.5625
2973.90632	18247.8625
2976.35131	18224.5625
2978.7948	18162.2625
2981.23681	18096.1625
2983.67732	18115.7625
2986.11635	18078.9625
2988.55388	18017.2625
2990.98993	17973.5625
2993.4245	17997.3625
2995.85758	17864.0625
2998.28917	17802.0625
3000.71928	17815.6625
3003.14791	17825.8625
3005.57506	17767.8625
3008.00073	17717.4625
3010.42493	17619.9625
3012.84764	17665.9625
3015.26888	17671.7625
3017.68865	17623.6625
3020.10694	17631.4625
3022.52376	17600.7625
3024.9391	17577.0625
3027.35298	17553.4625
3029.76539	17572.9625
3032.17632	17508.2625
3034.5858	17473.1625
3036.9938	17506.2625
3039.40034	17527.7625
3041.80542	17514.6625
3044.20903	17473.1625
3046.61118	17467.2625
3049.01187	17441.5625
3051.4111	17465.1625
3053.80888	17411.8625
3056.20519	17376.9625
3058.60005	17362.3625
3060.99345	17311.9625
3063.3854	17296.0625
3065.7759	17253.1625
3068.16494	17189.2625
3070.55254	17105.9625
3072.93868	17124.1625
3075.32338	17063.8625
3077.70662	17015.9625
3080.08842	16995.7625
3082.46878	16983.5625
3084.84769	16898.7625
3087.22515	16942.0625
3089.60118	16946.3625
3091.97576	16933.9625
3094.3489	16896.3625
3096.72061	16939.1625
3099.09087	16946.3625
3101.4597	16924.2625
3103.82709	16921.6625
3106.19305	16880.6625
3108.55757	16863.1625
3110.92066	16828.8625
3113.28232	16815.6625
3115.64255	16793.3625
3118.00134	16759.7625
3120.35871	16763.1625
3122.71466	16725.3625
3125.06917	16690.1625
3127.42226	16622.3625
3129.77393	16617.3625
3132.12417	16619.9625
3134.47299	16606.8625
3136.82039	16571.7625
3139.16636	16577.5625
3141.51092	16554.0625
3143.85406	16517.3625
3146.19579	16546.8625
3148.53609	16600.7625
3150.87499	16562.3625
3153.21246	16597.6625
3155.54853	16608.3625
3157.88318	16581.7625
3160.21642	16649.0625
3162.54826	16591.1625
3164.87868	16601.1625
3167.2077	16620.3625
3169.5353	16610.2625
3171.86151	16607.4625
3174.18631	16579.1625
3176.5097	16591.7625
3178.83169	16564.6625
3181.15228	16547.9625
3183.47147	16505.5625
3185.78926	16516.7625
3188.10565	16463.1625
3190.42065	16457.6625
3192.73424	16490.3625
3195.04645	16431.8625
3197.35725	16426.8625
3199.66667	16413.6625
3201.97469	16446.7625
3204.28132	16430.0625
3206.58656	16488.2625
3208.8904	16441.6625
3211.19287	16470.6625
3213.49394	16478.7625
3215.79363	16504.5625
3218.09193	16473.5625
3220.38884	16477.7625
3222.68438	16497.3625
3224.97853	16485.0625
3227.2713	16448.2625
3229.56269	16422.7625
3231.8527	16414.7625
3234.14133	16382.7625
3236.42858	16364.6625
3238.71446	16355.6625
3240.99896	16358.8625
3243.28209	16344.8625
3245.56384	16308.4625
3247.84423	16315.5625
3250.12324	16288.5625
3252.40088	16268.4625
3254.67715	16248.2625
3256.95205	16238.9625
3259.22558	16267.6625
3261.49775	16225.0625
3263.76855	16230.9625
3266.03799	16166.0625
3268.30606	16118.5625
3270.57277	16135.3625
3272.83812	16099.7625
3275.10211	16037.3625
3277.36474	16059.1625
3279.62601	16050.5625
3281.88593	16024.8625
3284.14448	16043.3625
3286.40168	16058.8625
3288.65753	16046.8625
3290.91202	16066.8625
3293.16516	15987.0625
3295.41695	15964.0625
3297.66738	15906.3625
3299.91647	15815.3625
3302.16421	15740.0625
3304.4106	15643.5625
3306.65564	15535.3625
3308.89933	15456.9625
3311.14169	15351.6625
3313.38269	15265.4625
3315.62236	15169.3625
3317.86068	15027.1625
3320.09766	14932.4625
3322.3333	14864.3625
3324.5676	14758.4625
3326.80056	14516.7625
3329.03219	14437.0625
3331.26248	4.2625
3333.49143	-2.4375
3335.71905	-0.4375
