Data from AgNPs_FTO_APTES_UA_5uM_CRN_50uM_R6G_10uM_NaF_0.1M_Addition_RamanShift__29__14-16-26-841.txt Node

Date: Mon Feb 07 14:16:26 GMT 2022
User: TCL
Spectrometer: QEP01345
Trigger mode: 4
Integration Time (sec): 7.000000E0
Scans to average: 10
Electric dark correction enabled: true
Nonlinearity correction enabled: false
Boxcar width: 0
XAxis mode: Raman Shifts
Number of Pixels in Spectrum: 1044
>>>>>Begin Spectral Data<<<<<
46.04893	-0.0125
50.45542	-0.9125
54.85868	0.9875
59.25871	0.8875
63.6555	45.1875
68.04907	50.0875
72.43941	53.3875
76.82654	55.3875
81.21044	57.2875
85.59113	61.0875
89.96862	63.2875
94.34289	61.9875
98.71396	66.6875
103.08183	69.0875
107.4465	71.0875
111.80798	70.7875
116.16626	72.9875
120.52136	75.5875
124.87327	81.2875
129.222	81.3875
133.56755	84.9875
137.90993	96.6875
142.24913	101.9875
146.58517	120.0875
150.91804	132.5875
155.24774	159.0875
159.57429	196.3875
163.89768	250.9875
168.21792	338.8875
172.53501	459.8875
176.84895	627.0875
181.15975	885.1875
185.46741	1243.4875
189.77193	1717.2875
194.07331	2300.8875
198.37157	2950.5875
202.6667	3643.1875
206.9587	4346.4875
211.24758	5029.7875
215.53334	5748.9875
219.81599	6546.8875
224.09553	7454.9875
228.37195	8470.4875
232.64527	9568.4875
236.91549	10672.3875
241.18261	11684.3875
245.44663	12521.4875
249.70755	13229.9875
253.96539	13821.0875
258.22014	14330.4875
262.4718	14794.9875
266.72039	15201.3875
270.96589	15456.2875
275.20832	15553.4875
279.44768	15525.4875
283.68397	15434.1875
287.91719	15440.4875
292.14735	15536.3875
296.37445	15857.1875
300.59849	16291.2875
304.81948	16852.9875
309.03742	17193.4875
313.25231	17075.8875
317.46415	16197.4875
321.67296	14946.0875
325.87872	13896.7875
330.08145	13371.7875
334.28114	13325.1875
338.47781	13546.5875
342.67145	13902.2875
346.86207	14467.3875
351.04966	15288.5875
355.23424	16273.8875
359.4158	16938.7875
363.59435	17229.2875
367.76989	17257.6875
371.94243	17181.7875
376.11196	17040.4875
380.27849	16904.5875
384.44203	16753.0875
388.60257	16493.9875
392.76012	16447.2875
396.91468	16632.3875
401.06626	17116.9875
405.21485	17523.4875
409.36047	17225.9875
413.50311	16363.9875
417.64277	15487.1875
421.77947	15014.6875
425.9132	14832.2875
430.04396	14829.4875
434.17176	14872.8875
438.2966	15051.7875
442.41849	15333.8875
446.53742	15714.1875
450.6534	16157.4875
454.76644	16433.9875
458.87653	16465.9875
462.98368	16394.7875
467.08789	16204.7875
471.18916	15915.9875
475.2875	15641.2875
479.38291	15321.6875
483.4754	15064.7875
487.56496	14859.8875
491.6516	14704.9875
495.73531	14655.3875
499.81612	14728.9875
503.89401	14877.5875
507.96899	15059.7875
512.04106	15248.8875
516.11023	15382.1875
520.1765	15486.5875
524.23987	15391.6875
528.30034	15066.6875
532.35792	14752.3875
536.41261	14459.8875
540.46441	14178.2875
544.51333	14080.7875
548.55936	14266.0875
552.60252	14698.4875
556.64279	15176.0875
560.6802	15370.8875
564.71473	15584.0875
568.7464	16159.2875
572.7752	16646.8875
576.80114	16282.0875
580.82422	15797.1875
584.84444	15604.0875
588.86181	15462.7875
592.87633	15385.7875
596.888	15465.1875
600.89682	15956.6875
604.9028	17756.0875
608.90594	22442.1875
612.90624	28914.2875
616.90371	27938.9875
620.89834	19531.7875
624.89015	15492.0875
628.87913	14757.0875
632.86528	14849.8875
636.84862	15087.0875
640.82913	14884.5875
644.80683	14234.9875
648.78172	13780.8875
652.75379	13791.4875
656.72306	14377.6875
660.68952	15134.2875
664.65319	15058.4875
668.61405	14335.4875
672.57211	13939.6875
676.52738	13915.1875
680.47986	13894.0875
684.42955	13810.7875
688.37646	13756.1875
692.32058	13787.4875
696.26192	13951.6875
700.20048	14137.0875
704.13626	14303.8875
708.06928	14317.9875
711.99952	14184.1875
715.927	14132.5875
719.85171	14142.5875
723.77365	14079.0875
727.69284	13906.8875
731.60928	13749.4875
735.52295	13648.0875
739.43388	13708.6875
743.34206	13774.2875
747.24749	13845.1875
751.15017	14006.8875
755.05012	14337.1875
758.94733	15061.2875
762.8418	16765.6875
766.73354	19691.2875
770.62254	22708.7875
774.50882	24072.3875
778.39237	22847.8875
782.27321	19737.9875
786.15132	16708.6875
790.02671	14982.2875
793.89938	14199.0875
797.76935	13857.6875
801.6366	13701.8875
805.50115	13574.6875
809.36299	13504.3875
813.22213	13475.0875
817.07857	13457.7875
820.93231	13423.4875
824.78336	13478.8875
828.63172	13537.7875
832.47738	13563.2875
836.32036	13507.5875
840.16066	13428.8875
843.99827	13374.8875
847.8332	13322.1875
851.66546	13311.7875
855.49504	13294.3875
859.32195	13240.8875
863.1462	13185.1875
866.96777	13123.1875
870.78668	13070.5875
874.60293	13142.8875
878.41652	13121.5875
882.22745	13188.7875
886.03573	13299.6875
889.84136	13288.3875
893.64433	13211.7875
897.44466	13121.3875
901.24235	13155.0875
905.0374	13112.4875
908.8298	13078.2875
912.61957	13114.3875
916.40671	13232.5875
920.19121	13426.9875
923.97308	13515.6875
927.75233	13569.9875
931.52895	13626.9875
935.30295	13452.2875
939.07433	13054.1875
942.84309	12724.1875
946.60924	12520.8875
950.37278	12393.0875
954.13371	12334.6875
957.89203	12280.4875
961.64774	12257.9875
965.40086	12234.5875
969.15137	12187.1875
972.89929	12149.0875
976.64461	12133.9875
980.38733	12092.7875
984.12747	12120.2875
987.86502	12202.1875
991.59999	12270.5875
995.33237	12366.9875
999.06217	12620.0875
1002.78939	12927.0875
1006.51404	13221.6875
1010.23611	13527.6875
1013.95561	13726.6875
1017.67255	13709.8875
1021.38692	13498.6875
1025.09872	13301.0875
1028.80796	13178.2875
1032.51465	13217.7875
1036.21877	13399.6875
1039.92035	13544.3875
1043.61937	13604.6875
1047.31584	13595.2875
1051.00976	13551.0875
1054.70114	13573.0875
1058.38998	13620.4875
1062.07627	13781.0875
1065.76003	13954.7875
1069.44126	14076.9875
1073.11995	14165.7875
1076.79611	14319.1875
1080.46974	14464.2875
1084.14085	14773.6875
1087.80943	15177.8875
1091.47549	15395.1875
1095.13903	15186.7875
1098.80005	14737.3875
1102.45857	14235.0875
1106.11456	13966.4875
1109.76805	13878.0875
1113.41903	14136.3875
1117.06751	14552.5875
1120.71348	15146.7875
1124.35696	15776.1875
1127.99793	16358.4875
1131.63641	16327.0875
1135.2724	15610.4875
1138.90589	14882.1875
1142.5369	14491.6875
1146.16542	14223.4875
1149.79145	14099.4875
1153.415	14163.6875
1157.03607	14316.7875
1160.65467	14675.7875
1164.27079	15220.9875
1167.88443	16059.4875
1171.49561	17384.2875
1175.10432	19534.0875
1178.71056	22348.8875
1182.31434	24281.2875
1185.91565	24625.2875
1189.51451	24014.9875
1193.11091	22575.1875
1196.70485	20932.0875
1200.29634	19645.4875
1203.88538	18686.6875
1207.47197	17590.1875
1211.05612	16627.6875
1214.63782	16021.4875
1218.21708	15787.0875
1221.79391	15777.3875
1225.36829	15873.1875
1228.94024	16009.8875
1232.50976	16097.2875
1236.07685	16175.8875
1239.6415	16204.0875
1243.20374	16238.3875
1246.76355	16329.5875
1250.32093	16509.4875
1253.8759	16924.0875
1257.42845	17411.9875
1260.97859	17969.4875
1264.52631	18467.4875
1268.07163	18925.5875
1271.61453	19446.8875
1275.15503	19798.3875
1278.69312	20004.7875
1282.22882	20142.2875
1285.76211	20533.4875
1289.29301	21151.6875
1292.82151	21849.5875
1296.34761	22559.9875
1299.87133	23635.0875
1303.39266	25455.0875
1306.9116	28192.6875
1310.42815	31434.0875
1313.94233	33426.2875
1317.45412	33047.8875
1320.96354	31164.1875
1324.47058	28940.8875
1327.97525	27129.5875
1331.47754	25980.6875
1334.97747	25519.2875
1338.47502	25690.1875
1341.97022	26175.8875
1345.46305	26905.5875
1348.95352	27904.1875
1352.44163	29301.3875
1355.92738	31695.1875
1359.41078	35814.7875
1362.89183	39995.4875
1366.37053	39177.2875
1369.84688	33456.9875
1373.32088	27738.8875
1376.79254	24154.6875
1380.26186	22345.1875
1383.72883	21524.3875
1387.19347	20935.3875
1390.65578	20289.0875
1394.11575	19710.5875
1397.57339	19420.7875
1401.0287	19469.3875
1404.48168	19707.3875
1407.93234	19931.0875
1411.38068	20037.3875
1414.82669	19865.8875
1418.27039	19404.1875
1421.71177	18862.4875
1425.15083	18315.9875
1428.58758	17972.8875
1432.02203	17928.0875
1435.45416	18067.0875
1438.88399	18178.0875
1442.31151	18223.3875
1445.73673	18375.1875
1449.15965	18561.2875
1452.58027	18563.7875
1455.9986	18502.9875
1459.41463	18570.8875
1462.82837	18804.4875
1466.23982	19195.7875
1469.64898	19585.7875
1473.05586	19858.0875
1476.46045	20065.5875
1479.86276	20347.6875
1483.26279	20812.0875
1486.66054	21396.0875
1490.05602	22045.1875
1493.44922	22992.3875
1496.84016	24443.6875
1500.22882	26739.7875
1503.61521	29808.1875
1506.99934	33317.1875
1510.38121	36677.0875
1513.76081	38432.5875
1517.13816	37012.5875
1520.51324	32980.9875
1523.88607	28708.5875
1527.25665	25685.6875
1530.62498	23891.9875
1533.99105	22764.6875
1537.35488	22095.1875
1540.71647	21597.1875
1544.07581	21283.0875
1547.4329	21056.3875
1550.78776	20847.2875
1554.14038	20825.9875
1557.49077	20955.8875
1560.83892	21381.0875
1564.18484	21998.1875
1567.52853	22657.2875
1570.86999	23093.2875
1574.20922	23336.8875
1577.54624	23131.5875
1580.88103	22106.4875
1584.2136	20720.6875
1587.54395	20023.4875
1590.87208	20261.2875
1594.19801	21302.3875
1597.52172	22563.8875
1600.84321	23157.9875
1604.16251	22292.2875
1607.47959	20839.1875
1610.79447	19329.0875
1614.10715	17901.7875
1617.41763	16711.3875
1620.7259	15930.4875
1624.03199	15557.1875
1627.33587	15487.2875
1630.63757	15814.2875
1633.93707	16551.7875
1637.23439	17708.2875
1640.52951	19415.2875
1643.82246	21690.0875
1647.11321	24376.9875
1650.40179	26488.4875
1653.68819	26093.9875
1656.97241	22969.1875
1660.25446	19194.6875
1663.53433	16392.8875
1666.81203	14685.4875
1670.08756	13658.2875
1673.36092	13018.3875
1676.63211	12616.2875
1679.90115	12350.4875
1683.16801	12131.7875
1686.43272	11983.7875
1689.69527	11880.7875
1692.95567	11787.9875
1696.2139	11755.7875
1699.46999	11727.3875
1702.72392	11667.1875
1705.97571	11646.0875
1709.22535	11610.7875
1712.47284	11602.4875
1715.71819	11599.6875
1718.96139	11598.8875
1722.20246	11548.5875
1725.44139	11532.4875
1728.67818	11455.3875
1731.91284	11352.9875
1735.14537	11279.0875
1738.37576	11169.6875
1741.60403	11169.3875
1744.83017	11118.3875
1748.05418	11069.3875
1751.27607	11043.1875
1754.49584	11053.8875
1757.71349	11051.7875
1760.92903	11030.7875
1764.14244	11021.0875
1767.35375	11003.4875
1770.56294	10950.9875
1773.77002	10918.5875
1776.97499	10858.7875
1780.17785	10827.6875
1783.37861	10819.2875
1786.57727	10774.6875
1789.77382	10753.4875
1792.96828	10749.1875
1796.16064	10710.8875
1799.3509	10707.2875
1802.53907	10687.6875
1805.72514	10646.6875
1808.90913	10593.7875
1812.09102	10576.9875
1815.27083	10524.7875
1818.44856	10534.2875
1821.6242	10507.1875
1824.79776	10500.8875
1827.96924	10498.1875
1831.13864	10444.4875
1834.30597	10461.6875
1837.47122	10433.2875
1840.6344	10439.5875
1843.7955	10437.6875
1846.95454	10425.2875
1850.11151	10415.7875
1853.26642	10422.2875
1856.41926	10422.5875
1859.57004	10419.6875
1862.71876	10438.1875
1865.86542	10442.4875
1869.01003	10418.0875
1872.15258	10399.0875
1875.29308	10405.4875
1878.43152	10436.2875
1881.56792	10421.9875
1884.70227	10428.5875
1887.83457	10427.3875
1890.96482	10409.9875
1894.09304	10430.0875
1897.21921	10421.7875
1900.34335	10396.8875
1903.46544	10436.5875
1906.58551	10437.3875
1909.70353	10462.3875
1912.81953	10428.6875
1915.93349	10426.4875
1919.04543	10438.5875
1922.15534	10399.4875
1925.26322	10374.7875
1928.36908	10346.9875
1931.47292	10297.0875
1934.57473	10253.8875
1937.67453	10170.7875
1940.77232	10146.5875
1943.86808	10113.3875
1946.96184	10052.3875
1950.05358	10014.6875
1953.14331	9975.4875
1956.23103	9941.7875
1959.31675	9900.5875
1962.40046	9859.8875
1965.48217	9836.1875
1968.56188	9818.0875
1971.63959	9770.0875
1974.7153	9750.9875
1977.78901	9735.3875
1980.86073	9683.5875
1983.93046	9645.3875
1986.99819	9595.8875
1990.06394	9576.5875
1993.1277	9545.0875
1996.18947	9531.8875
1999.24925	9502.4875
2002.30706	9446.8875
2005.36288	9428.0875
2008.41672	9411.8875
2011.46859	9358.7875
2014.51848	9367.8875
2017.56639	9305.9875
2020.61233	9263.8875
2023.6563	9260.9875
2026.6983	9218.4875
2029.73833	9196.1875
2032.7764	9186.1875
2035.8125	9154.0875
2038.84664	9111.4875
2041.87881	9117.4875
2044.90903	9105.8875
2047.93729	9098.8875
2050.96359	9062.5875
2053.98794	9061.4875
2057.01034	9058.3875
2060.03078	9036.8875
2063.04927	9001.4875
2066.06582	9023.6875
2069.08042	9007.7875
2072.09307	9006.6875
2075.10378	8984.4875
2078.11255	8955.5875
2081.11938	8972.4875
2084.12426	8965.6875
2087.12722	8955.7875
2090.12824	8939.1875
2093.12732	8942.8875
2096.12447	8939.5875
2099.11969	8950.3875
2102.11299	8957.4875
2105.10435	8953.4875
2108.09379	8920.6875
2111.08131	8937.3875
2114.0669	8959.6875
2117.05057	8986.7875
2120.03233	8975.7875
2123.01216	8983.8875
2125.99008	8974.0875
2128.96609	8970.2875
2131.94018	8980.9875
2134.91236	8985.5875
2137.88263	8993.8875
2140.851	9004.3875
2143.81746	9001.7875
2146.78201	8958.7875
2149.74466	8943.5875
2152.7054	8950.3875
2155.66425	8958.1875
2158.6212	8946.7875
2161.57625	8938.1875
2164.52941	8934.7875
2167.48067	8927.3875
2170.43004	8921.7875
2173.37752	8925.5875
2176.32311	8908.5875
2179.26681	8929.7875
2182.20863	8925.0875
2185.14856	8910.5875
2188.08661	8923.4875
2191.02278	8941.0875
2193.95707	8893.4875
2196.88948	8900.8875
2199.82001	8880.3875
2202.74867	8865.1875
2205.67545	8867.1875
2208.60037	8817.0875
2211.52341	8835.5875
2214.44458	8817.4875
2217.36388	8784.6875
2220.28132	8784.5875
2223.1969	8761.8875
2226.11061	8716.5875
2229.02246	8720.1875
2231.93245	8708.9875
2234.84058	8691.3875
2237.74686	8639.3875
2240.65128	8649.3875
2243.55385	8628.8875
2246.45456	8626.8875
2249.35343	8618.5875
2252.25044	8609.9875
2255.14561	8606.8875
2258.03893	8611.3875
2260.93041	8618.1875
2263.82004	8588.5875
2266.70783	8567.5875
2269.59378	8536.5875
2272.4779	8508.1875
2275.36017	8490.2875
2278.24061	8484.9875
2281.11922	8453.9875
2283.996	8416.8875
2286.87094	8434.7875
2289.74405	8386.6875
2292.61534	8385.6875
2295.4848	8348.3875
2298.35243	8356.2875
2301.21824	8369.3875
2304.08223	8328.6875
2306.94439	8339.6875
2309.80474	8351.1875
2312.66327	8355.7875
2315.51999	8339.4875
2318.37489	8322.1875
2321.22797	8289.0875
2324.07925	8289.7875
2326.92871	8294.1875
2329.77637	8272.7875
2332.62222	8239.5875
2335.46626	8230.6875
2338.3085	8249.7875
2341.14893	8248.3875
2343.98756	8227.2875
2346.8244	8246.9875
2349.65943	8251.5875
2352.49267	8263.3875
2355.32411	8282.2875
2358.15376	8272.0875
2360.98161	8292.3875
2363.80768	8282.2875
2366.63195	8310.8875
2369.45444	8296.4875
2372.27514	8280.0875
2375.09405	8274.2875
2377.91118	8257.1875
2380.72652	8218.2875
2383.54009	8162.1875
2386.35187	8144.6875
2389.16188	8109.3875
2391.97011	8081.8875
2394.77657	8077.6875
2397.58125	8030.4875
2400.38416	8014.5875
2403.18529	7993.1875
2405.98466	7967.0875
2408.78226	7966.1875
2411.57809	7964.4875
2414.37216	7927.0875
2417.16446	7916.2875
2419.955	7917.7875
2422.74378	7926.4875
2425.5308	7898.9875
2428.31606	7902.2875
2431.09956	7912.4875
2433.88131	7893.1875
2436.6613	7923.9875
2439.43954	7901.8875
2442.21603	7902.8875
2444.99077	7873.7875
2447.76377	7906.7875
2450.53501	7891.0875
2453.30451	7898.6875
2456.07226	7887.0875
2458.83827	7875.7875
2461.60254	7871.3875
2464.36507	7873.8875
2467.12586	7851.1875
2469.88492	7857.1875
2472.64224	7869.8875
2475.39782	7899.4875
2478.15167	7891.4875
2480.90379	7882.6875
2483.65417	7890.1875
2486.40283	7914.7875
2489.14976	7942.8875
2491.89497	7922.5875
2494.63845	7954.0875
2497.3802	7941.8875
2500.12024	7914.8875
2502.85855	7895.7875
2505.59514	7879.8875
2508.33002	7848.8875
2511.06318	7834.9875
2513.79462	7808.2875
2516.52435	7765.1875
2519.25237	7772.7875
2521.97867	7731.3875
2524.70327	7729.9875
2527.42616	7714.6875
2530.14734	7734.8875
2532.86681	7697.2875
2535.58458	7695.0875
2538.30065	7666.5875
2541.01501	7679.0875
2543.72768	7685.4875
2546.43864	7668.5875
2549.14791	7661.2875
2551.85548	7646.8875
2554.56136	7632.0875
2557.26554	7623.2875
2559.96803	7615.4875
2562.66883	7622.7875
2565.36794	7594.1875
2568.06536	7575.2875
2570.7611	7574.5875
2573.45514	7545.3875
2576.14751	7558.5875
2578.83819	7511.4875
2581.52719	7516.2875
2584.21451	7517.1875
2586.90015	7501.9875
2589.58411	7511.8875
2592.2664	7480.1875
2594.94701	7486.1875
2597.62594	7459.2875
2600.30321	7473.4875
2602.9788	7459.8875
2605.65273	7449.3875
2608.32498	7458.4875
2610.99557	7465.9875
2613.66449	7464.9875
2616.33175	7452.3875
2618.99734	7444.1875
2621.66128	7445.0875
2624.32355	7439.5875
2626.98416	7413.6875
2629.64311	7402.2875
2632.30041	7388.3875
2634.95605	7384.8875
2637.61004	7378.4875
2640.26238	7352.8875
2642.91306	7354.5875
2645.56209	7350.2875
2648.20948	7354.4875
2650.85521	7349.2875
2653.4993	7361.5875
2656.14175	7346.5875
2658.78255	7350.2875
2661.42171	7358.6875
2664.05923	7361.5875
2666.6951	7368.6875
2669.32934	7391.0875
2671.96194	7377.9875
2674.59291	7384.2875
2677.22224	7404.5875
2679.84993	7396.9875
2682.476	7385.9875
2685.10043	7380.3875
2687.72324	7379.2875
2690.34441	7365.8875
2692.96396	7340.5875
2695.58188	7367.0875
2698.19818	7368.3875
2700.81285	7364.5875
2703.4259	7390.9875
2706.03733	7445.4875
2708.64714	7394.1875
2711.25533	7393.4875
2713.86191	7402.6875
2716.46687	7400.6875
2719.07021	7404.0875
2721.67194	7398.9875
2724.27206	7386.0875
2726.87057	7407.0875
2729.46747	7391.2875
2732.06276	7414.5875
2734.65644	7393.1875
2737.24852	7384.4875
2739.83899	7377.8875
2742.42786	7351.2875
2745.01513	7359.5875
2747.60079	7337.6875
2750.18486	7344.6875
2752.76733	7323.1875
2755.3482	7312.0875
2757.92747	7309.7875
2760.50515	7303.4875
2763.08123	7292.8875
2765.65573	7282.1875
2768.22863	7281.0875
2770.79994	7258.0875
2773.36967	7260.1875
2775.9378	7257.0875
2778.50435	7252.1875
2781.06932	7227.4875
2783.6327	7233.1875
2786.1945	7249.9875
2788.75471	7229.4875
2791.31335	7242.7875
2793.87041	7219.2875
2796.42589	7185.1875
2798.97979	7219.7875
2801.53212	7193.0875
2804.08288	7176.5875
2806.63206	7158.0875
2809.17967	7155.7875
2811.72571	7147.3875
2814.27018	7152.9875
2816.81308	7154.8875
2819.35442	7150.2875
2821.89419	7145.1875
2824.43239	7170.8875
2826.96904	7157.3875
2829.50412	7172.2875
2832.03763	7154.8875
2834.56959	7176.6875
2837.1	7192.5875
2839.62884	7188.3875
2842.15613	7204.3875
2844.68186	7282.5875
2847.20604	7341.4875
2849.72867	7385.4875
2852.24974	7399.5875
2854.76927	7405.1875
2857.28724	7415.5875
2859.80367	7395.1875
2862.31855	7344.5875
2864.83189	7330.5875
2867.34368	7308.2875
2869.85393	7308.5875
2872.36264	7285.2875
2874.8698	7293.7875
2877.37543	7274.1875
2879.87952	7294.0875
2882.38207	7257.2875
2884.88308	7269.9875
2887.38256	7222.2875
2889.88051	7246.1875
2892.37692	7249.3875
2894.8718	7250.9875
2897.36515	7261.6875
2899.85698	7252.7875
2902.34727	7262.8875
2904.83604	7274.8875
2907.32328	7283.3875
2909.809	7264.0875
2912.29319	7263.9875
2914.77587	7271.3875
2917.25702	7245.4875
2919.73665	7279.9875
2922.21476	7261.6875
2924.69136	7238.7875
2927.16644	7241.2875
2929.64	7224.2875
2932.11205	7184.0875
2934.58258	7175.8875
2937.05161	7149.3875
2939.51912	7155.2875
2941.98513	7113.4875
2944.44962	7065.0875
2946.91261	7025.5875
2949.37409	7008.9875
2951.83407	6994.5875
2954.29254	6947.7875
2956.74951	6945.0875
2959.20498	6932.6875
2961.65895	6911.9875
2964.11142	6901.5875
2966.56239	6878.0875
2969.01186	6872.2875
2971.45984	6863.4875
2973.90632	6853.3875
2976.35131	6838.2875
2978.7948	6807.7875
2981.23681	6798.2875
2983.67732	6769.2875
2986.11635	6754.3875
2988.55388	6739.3875
2990.98993	6724.2875
2993.4245	6704.9875
2995.85758	6673.1875
2998.28917	6681.2875
3000.71928	6679.4875
3003.14791	6645.3875
3005.57506	6643.6875
3008.00073	6604.2875
3010.42493	6535.4875
3012.84764	6600.6875
3015.26888	6615.1875
3017.68865	6570.3875
3020.10694	6555.8875
3022.52376	6525.0875
3024.9391	6536.4875
3027.35298	6520.1875
3029.76539	6526.0875
3032.17632	6501.7875
3034.5858	6489.4875
3036.9938	6476.2875
3039.40034	6477.4875
3041.80542	6494.9875
3044.20903	6471.7875
3046.61118	6458.0875
3049.01187	6426.3875
3051.4111	6430.3875
3053.80888	6413.1875
3056.20519	6418.4875
3058.60005	6399.9875
3060.99345	6385.4875
3063.3854	6379.3875
3065.7759	6334.2875
3068.16494	6308.5875
3070.55254	6313.4875
3072.93868	6299.2875
3075.32338	6251.3875
3077.70662	6247.2875
3080.08842	6217.5875
3082.46878	6210.0875
3084.84769	6191.9875
3087.22515	6189.6875
3089.60118	6193.4875
3091.97576	6181.1875
3094.3489	6182.2875
3096.72061	6148.9875
3099.09087	6179.2875
3101.4597	6163.1875
3103.82709	6165.0875
3106.19305	6165.5875
3108.55757	6148.5875
3110.92066	6121.4875
3113.28232	6130.4875
3115.64255	6119.5875
3118.00134	6105.8875
3120.35871	6096.3875
3122.71466	6078.8875
3125.06917	6065.5875
3127.42226	6057.6875
3129.77393	6052.0875
3132.12417	6033.2875
3134.47299	6036.6875
3136.82039	6034.2875
3139.16636	6017.3875
3141.51092	6012.9875
3143.85406	6036.0875
3146.19579	6023.0875
3148.53609	6049.1875
3150.87499	6054.4875
3153.21246	6054.2875
3155.54853	6069.2875
3157.88318	6055.0875
3160.21642	6081.1875
3162.54826	6055.0875
3164.87868	6090.0875
3167.2077	6064.7875
3169.5353	6071.2875
3171.86151	6071.8875
3174.18631	6052.0875
3176.5097	6051.7875
3178.83169	6053.2875
3181.15228	6049.2875
3183.47147	6041.2875
3185.78926	6028.1875
3188.10565	6024.5875
3190.42065	6022.0875
3192.73424	6015.8875
3195.04645	5994.0875
3197.35725	6015.5875
3199.66667	6007.7875
3201.97469	6021.6875
3204.28132	5999.9875
3206.58656	6029.0875
3208.8904	6020.1875
3211.19287	6044.8875
3213.49394	6036.0875
3215.79363	6045.2875
3218.09193	6055.1875
3220.38884	6058.1875
3222.68438	6064.4875
3224.97853	6035.6875
3227.2713	6045.5875
3229.56269	6031.0875
3231.8527	6024.7875
3234.14133	6016.6875
3236.42858	5988.4875
3238.71446	5996.7875
3240.99896	5986.7875
3243.28209	5969.5875
3245.56384	5945.6875
3247.84423	5935.0875
3250.12324	5967.1875
3252.40088	5927.9875
3254.67715	5930.2875
3256.95205	5918.6875
3259.22558	5908.3875
3261.49775	5903.8875
3263.76855	5926.0875
3266.03799	5883.6875
3268.30606	5873.8875
3270.57277	5862.2875
3272.83812	5878.6875
3275.10211	5841.8875
3277.36474	5827.1875
3279.62601	5829.4875
3281.88593	5814.5875
3284.14448	5828.8875
3286.40168	5826.7875
3288.65753	5807.6875
3290.91202	5811.2875
3293.16516	5803.1875
3295.41695	5792.1875
3297.66738	5747.3875
3299.91647	5729.5875
3302.16421	5682.0875
3304.4106	5673.8875
3306.65564	5614.4875
3308.89933	5580.3875
3311.14169	5548.2875
3313.38269	5492.7875
3315.62236	5458.8875
3317.86068	5408.3875
3320.09766	5351.3875
3322.3333	5320.6875
3324.5676	5307.2875
3326.80056	5219.7875
3329.03219	5167.4875
3331.26248	1.1875
3333.49143	-2.0125
3335.71905	-0.5125
