Data from AgNPs_FTO_APTES_UA_5uM_CRN_50uM_R6G_10uM_NaF_0.1M_Addition_RamanShift__24__14-10-36-834.txt Node

Date: Mon Feb 07 14:10:36 GMT 2022
User: TCL
Spectrometer: QEP01345
Trigger mode: 4
Integration Time (sec): 7.000000E0
Scans to average: 10
Electric dark correction enabled: true
Nonlinearity correction enabled: false
Boxcar width: 0
XAxis mode: Raman Shifts
Number of Pixels in Spectrum: 1044
>>>>>Begin Spectral Data<<<<<
46.04893	0.8375
50.45542	-1.9625
54.85868	-0.1625
59.25871	-0.9625
63.6555	80.7375
68.04907	82.9375
72.43941	86.7375
76.82654	90.1375
81.21044	93.8375
85.59113	100.0375
89.96862	103.9375
94.34289	102.5375
98.71396	109.2375
103.08183	110.1375
107.4465	116.5375
111.80798	116.6375
116.16626	119.6375
120.52136	129.0375
124.87327	132.6375
129.222	148.6375
133.56755	153.5375
137.90993	166.2375
142.24913	187.5375
146.58517	215.2375
150.91804	248.9375
155.24774	299.6375
159.57429	382.3375
163.89768	489.1375
168.21792	667.0375
172.53501	908.1375
176.84895	1269.4375
181.15975	1781.4375
185.46741	2503.5375
189.77193	3473.1375
194.07331	4648.7375
198.37157	5951.0375
202.6667	7386.3375
206.9587	8793.9375
211.24758	10183.5375
215.53334	11558.7375
219.81599	13054.7375
224.09553	14742.3375
228.37195	16582.0375
232.64527	18609.7375
236.91549	20743.1375
241.18261	22812.0375
245.44663	24736.8375
249.70755	26346.6375
253.96539	27806.3375
258.22014	29084.7375
262.4718	30193.6375
266.72039	31054.0375
270.96589	31661.4375
275.20832	31901.8375
279.44768	31880.6375
283.68397	31762.4375
287.91719	31652.0375
292.14735	31781.0375
296.37445	32062.8375
300.59849	32400.7375
304.81948	32661.7375
309.03742	32624.2375
313.25231	32098.7375
317.46415	30865.8375
321.67296	29407.1375
325.87872	28186.6375
330.08145	27597.9375
334.28114	27560.0375
338.47781	27804.3375
342.67145	28222.8375
346.86207	28937.4375
351.04966	29903.6375
355.23424	30896.1375
359.4158	31658.5375
363.59435	32101.6375
367.76989	32351.3375
371.94243	32455.0375
376.11196	32529.1375
380.27849	32616.8375
384.44203	32548.1375
388.60257	32543.5375
392.76012	32671.2375
396.91468	33088.3375
401.06626	33748.9375
405.21485	34220.4375
409.36047	33958.8375
413.50311	33031.6375
417.64277	32236.7375
421.77947	31794.2375
425.9132	31761.1375
430.04396	31935.6375
434.17176	32211.2375
438.2966	32566.7375
442.41849	33253.2375
446.53742	34074.3375
450.6534	35018.7375
454.76644	35841.5375
458.87653	36133.1375
462.98368	36082.3375
467.08789	35819.5375
471.18916	35386.9375
475.2875	35052.2375
479.38291	34937.8375
483.4754	34594.5375
487.56496	34109.3375
491.6516	33452.0375
495.73531	32870.2375
499.81612	32607.1375
503.89401	32599.9375
507.96899	32739.6375
512.04106	32785.8375
516.11023	32726.9375
520.1765	32565.4375
524.23987	32349.4375
528.30034	31921.7375
532.35792	31551.2375
536.41261	31176.9375
540.46441	30843.6375
544.51333	30919.8375
548.55936	31352.9375
552.60252	32146.0375
556.64279	33033.2375
560.6802	33573.7375
564.71473	33901.1375
568.7464	34690.2375
572.7752	35550.3375
576.80114	35570.4375
580.82422	35406.2375
584.84444	35393.8375
588.86181	35462.6375
592.87633	35786.7375
596.888	36194.1375
600.89682	36651.6375
604.9028	38394.1375
608.90594	43339.1375
612.90624	49554.3375
616.90371	47122.1375
620.89834	37369.8375
624.89015	32977.1375
628.87913	32427.2375
632.86528	32556.1375
636.84862	32520.4375
640.82913	31886.8375
644.80683	30865.5375
648.78172	30084.4375
652.75379	29924.2375
656.72306	30377.4375
660.68952	31280.2375
664.65319	31202.1375
668.61405	30426.1375
672.57211	30124.7375
676.52738	30068.6375
680.47986	30087.4375
684.42955	29988.2375
688.37646	29929.2375
692.32058	29984.0375
696.26192	30274.7375
700.20048	30572.3375
704.13626	30853.2375
708.06928	30825.8375
711.99952	30601.4375
715.927	30496.6375
719.85171	30514.0375
723.77365	30439.6375
727.69284	30154.2375
731.60928	29905.0375
735.52295	29798.6375
739.43388	29865.7375
743.34206	29965.6375
747.24749	30105.8375
751.15017	30406.0375
755.05012	30999.7375
758.94733	32098.8375
762.8418	34262.4375
766.73354	37806.6375
770.62254	41354.6375
774.50882	42566.1375
778.39237	40425.4375
782.27321	36398.3375
786.15132	32982.1375
790.02671	31025.2375
793.89938	30163.6375
797.76935	29730.1375
801.6366	29617.1375
805.50115	29527.0375
809.36299	29430.8375
813.22213	29329.6375
817.07857	29268.5375
820.93231	29280.7375
824.78336	29237.1375
828.63172	29196.4375
832.47738	29176.1375
836.32036	29112.4375
840.16066	29197.5375
843.99827	29260.4375
847.8332	29099.5375
851.66546	28997.6375
855.49504	28919.3375
859.32195	28895.1375
863.1462	28772.4375
866.96777	28632.7375
870.78668	28556.6375
874.60293	28541.5375
878.41652	28540.3375
882.22745	28674.8375
886.03573	28746.4375
889.84136	28723.5375
893.64433	28604.7375
897.44466	28511.6375
901.24235	28462.0375
905.0374	28393.9375
908.8298	28341.1375
912.61957	28397.0375
916.40671	28711.7375
920.19121	29084.1375
923.97308	29380.4375
927.75233	29423.1375
931.52895	29358.9375
935.30295	29117.1375
939.07433	28458.7375
942.84309	27959.2375
946.60924	27688.0375
950.37278	27512.6375
954.13371	27358.2375
957.89203	27265.9375
961.64774	27273.1375
965.40086	27193.0375
969.15137	27100.1375
972.89929	26925.2375
976.64461	26822.0375
980.38733	26827.9375
984.12747	26940.1375
987.86502	27129.9375
991.59999	27433.6375
995.33237	27906.7375
999.06217	28662.0375
1002.78939	29479.9375
1006.51404	30073.0375
1010.23611	30438.9375
1013.95561	30717.1375
1017.67255	30772.4375
1021.38692	30473.0375
1025.09872	30180.0375
1028.80796	30283.5375
1032.51465	30899.8375
1036.21877	31519.4375
1039.92035	31677.9375
1043.61937	31363.3375
1047.31584	30794.3375
1051.00976	30193.0375
1054.70114	29913.4375
1058.38998	29988.7375
1062.07627	30245.4375
1065.76003	30468.4375
1069.44126	30613.1375
1073.11995	30809.7375
1076.79611	31042.1375
1080.46974	31226.2375
1084.14085	31521.8375
1087.80943	32003.4375
1091.47549	32351.7375
1095.13903	32191.5375
1098.80005	31723.1375
1102.45857	31098.2375
1106.11456	30617.8375
1109.76805	30531.6375
1113.41903	30814.7375
1117.06751	31307.0375
1120.71348	31943.2375
1124.35696	32515.9375
1127.99793	33046.3375
1131.63641	33143.4375
1135.2724	32599.4375
1138.90589	31903.0375
1142.5369	31575.4375
1146.16542	31417.8375
1149.79145	31522.3375
1153.415	31789.2375
1157.03607	32271.8375
1160.65467	33084.5375
1164.27079	34332.9375
1167.88443	36085.9375
1171.49561	38537.2375
1175.10432	41980.6375
1178.71056	46354.3375
1182.31434	50046.6375
1185.91565	51828.4375
1189.51451	51670.6375
1193.11091	50080.1375
1196.70485	47548.0375
1200.29634	45175.3375
1203.88538	43335.0375
1207.47197	41764.6375
1211.05612	40415.8375
1214.63782	39390.3375
1218.21708	38786.6375
1221.79391	38409.3375
1225.36829	38195.8375
1228.94024	37920.3375
1232.50976	37508.9375
1236.07685	37151.1375
1239.6415	37075.1375
1243.20374	37093.2375
1246.76355	37368.2375
1250.32093	37910.6375
1253.8759	38827.2375
1257.42845	39943.3375
1260.97859	40942.6375
1264.52631	41864.9375
1268.07163	42825.5375
1271.61453	43921.4375
1275.15503	45058.2375
1278.69312	46237.0375
1282.22882	47230.0375
1285.76211	48273.1375
1289.29301	49554.7375
1292.82151	51363.6375
1296.34761	53629.0375
1299.87133	56546.5375
1303.39266	60250.7375
1306.9116	64876.5375
1310.42815	69735.3375
1313.94233	72932.5375
1317.45412	73147.4375
1320.96354	71390.9375
1324.47058	69326.5375
1327.97525	67284.0375
1331.47754	65878.7375
1334.97747	65454.5375
1338.47502	65735.3375
1341.97022	66233.4375
1345.46305	66224.1375
1348.95352	65554.7375
1352.44163	64991.1375
1355.92738	66045.2375
1359.41078	69576.4375
1362.89183	73573.0375
1366.37053	72109.5375
1369.84688	64765.4375
1373.32088	56964.3375
1376.79254	51955.7375
1380.26186	49851.0375
1383.72883	49367.7375
1387.19347	49335.0375
1390.65578	49212.1375
1394.11575	49282.3375
1397.57339	50017.2375
1401.0287	51232.8375
1404.48168	52406.2375
1407.93234	52994.5375
1411.38068	52722.6375
1414.82669	51362.9375
1418.27039	49157.9375
1421.71177	46742.2375
1425.15083	44674.9375
1428.58758	43413.6375
1432.02203	43137.3375
1435.45416	43674.5375
1438.88399	44477.5375
1442.31151	45369.3375
1445.73673	46201.8375
1449.15965	47067.9375
1452.58027	47863.1375
1455.9986	48332.3375
1459.41463	48838.5375
1462.82837	49585.4375
1466.23982	50425.4375
1469.64898	51106.1375
1473.05586	51335.9375
1476.46045	51217.3375
1479.86276	50996.4375
1483.26279	50785.6375
1486.66054	50767.5375
1490.05602	51050.5375
1493.44922	51543.1375
1496.84016	52322.2375
1500.22882	53951.5375
1503.61521	56319.7375
1506.99934	59681.4375
1510.38121	63064.5375
1513.76081	64983.6375
1517.13816	63788.9375
1520.51324	60047.8375
1523.88607	56119.0375
1527.25665	53394.8375
1530.62498	51893.6375
1533.99105	51091.6375
1537.35488	50556.9375
1540.71647	50016.9375
1544.07581	49450.0375
1547.4329	48652.5375
1550.78776	47950.7375
1554.14038	47481.3375
1557.49077	47433.9375
1560.83892	47620.8375
1564.18484	47962.1375
1567.52853	48276.5375
1570.86999	48466.4375
1574.20922	48807.7375
1577.54624	49206.4375
1580.88103	48838.4375
1584.2136	48404.9375
1587.54395	49059.3375
1590.87208	51014.8375
1594.19801	53910.3375
1597.52172	56937.3375
1600.84321	57945.2375
1604.16251	55737.2375
1607.47959	51716.8375
1610.79447	47435.1375
1614.10715	43484.7375
1617.41763	40188.9375
1620.7259	37845.4375
1624.03199	36620.0375
1627.33587	36435.6375
1630.63757	37297.0375
1633.93707	39407.2375
1637.23439	42625.4375
1640.52951	46984.7375
1643.82246	51968.0375
1647.11321	56474.7375
1650.40179	58427.9375
1653.68819	55913.2375
1656.97241	49493.8375
1660.25446	42390.3375
1663.53433	36894.3375
1666.81203	33330.1375
1670.08756	31125.2375
1673.36092	29661.0375
1676.63211	28718.6375
1679.90115	28135.4375
1683.16801	27646.6375
1686.43272	27277.0375
1689.69527	27019.0375
1692.95567	26793.4375
1696.2139	26681.5375
1699.46999	26580.7375
1702.72392	26464.0375
1705.97571	26418.3375
1709.22535	26338.4375
1712.47284	26348.4375
1715.71819	26279.5375
1718.96139	26190.7375
1722.20246	26134.8375
1725.44139	26064.7375
1728.67818	25921.6375
1731.91284	25728.4375
1735.14537	25589.1375
1738.37576	25459.4375
1741.60403	25379.1375
1744.83017	25341.0375
1748.05418	25296.0375
1751.27607	25276.4375
1754.49584	25221.4375
1757.71349	25190.7375
1760.92903	25161.6375
1764.14244	25130.3375
1767.35375	25123.9375
1770.56294	25084.1375
1773.77002	25030.5375
1776.97499	24953.3375
1780.17785	24907.2375
1783.37861	24882.6375
1786.57727	24862.0375
1789.77382	24794.5375
1792.96828	24772.2375
1796.16064	24752.4375
1799.3509	24716.6375
1802.53907	24677.7375
1805.72514	24578.0375
1808.90913	24545.7375
1812.09102	24419.9375
1815.27083	24398.2375
1818.44856	24390.7375
1821.6242	24361.7375
1824.79776	24317.7375
1827.96924	24311.8375
1831.13864	24294.7375
1834.30597	24302.0375
1837.47122	24239.0375
1840.6344	24230.9375
1843.7955	24249.4375
1846.95454	24238.9375
1850.11151	24257.7375
1853.26642	24231.7375
1856.41926	24273.3375
1859.57004	24255.3375
1862.71876	24293.0375
1865.86542	24247.9375
1869.01003	24252.1375
1872.15258	24190.1375
1875.29308	24211.6375
1878.43152	24226.2375
1881.56792	24194.0375
1884.70227	24243.1375
1887.83457	24222.5375
1890.96482	24171.5375
1894.09304	24184.0375
1897.21921	24162.7375
1900.34335	24183.8375
1903.46544	24184.6375
1906.58551	24187.7375
1909.70353	24179.1375
1912.81953	24138.5375
1915.93349	24124.8375
1919.04543	24109.7375
1922.15534	24056.9375
1925.26322	24001.1375
1928.36908	23910.4375
1931.47292	23867.9375
1934.57473	23755.4375
1937.67453	23728.0375
1940.77232	23656.5375
1943.86808	23557.3375
1946.96184	23434.0375
1950.05358	23401.7375
1953.14331	23340.4375
1956.23103	23213.7375
1959.31675	23158.0375
1962.40046	23084.7375
1965.48217	23035.7375
1968.56188	22956.7375
1971.63959	22853.0375
1974.7153	22830.9375
1977.78901	22749.0375
1980.86073	22627.2375
1983.93046	22586.7375
1986.99819	22493.8375
1990.06394	22493.3375
1993.1277	22400.8375
1996.18947	22369.7375
1999.24925	22286.2375
2002.30706	22219.8375
2005.36288	22124.7375
2008.41672	22101.5375
2011.46859	22063.0375
2014.51848	21966.4375
2017.56639	21916.0375
2020.61233	21873.0375
2023.6563	21802.5375
2026.6983	21766.1375
2029.73833	21693.9375
2032.7764	21668.4375
2035.8125	21646.3375
2038.84664	21569.6375
2041.87881	21583.3375
2044.90903	21553.5375
2047.93729	21502.0375
2050.96359	21451.5375
2053.98794	21439.9375
2057.01034	21462.8375
2060.03078	21414.0375
2063.04927	21358.1375
2066.06582	21372.0375
2069.08042	21357.3375
2072.09307	21308.3375
2075.10378	21297.4375
2078.11255	21260.6375
2081.11938	21278.3375
2084.12426	21231.1375
2087.12722	21289.2375
2090.12824	21212.9375
2093.12732	21216.3375
2096.12447	21200.7375
2099.11969	21198.9375
2102.11299	21218.5375
2105.10435	21196.7375
2108.09379	21185.5375
2111.08131	21249.5375
2114.0669	21251.9375
2117.05057	21251.9375
2120.03233	21264.7375
2123.01216	21311.3375
2125.99008	21323.5375
2128.96609	21329.0375
2131.94018	21366.8375
2134.91236	21366.6375
2137.88263	21390.1375
2140.851	21393.2375
2143.81746	21446.2375
2146.78201	21424.3375
2149.74466	21377.6375
2152.7054	21371.9375
2155.66425	21355.3375
2158.6212	21350.6375
2161.57625	21347.5375
2164.52941	21363.2375
2167.48067	21380.1375
2170.43004	21334.3375
2173.37752	21305.0375
2176.32311	21321.9375
2179.26681	21323.3375
2182.20863	21354.8375
2185.14856	21326.9375
2188.08661	21363.7375
2191.02278	21379.9375
2193.95707	21374.3375
2196.88948	21289.7375
2199.82001	21294.0375
2202.74867	21255.2375
2205.67545	21268.9375
2208.60037	21229.0375
2211.52341	21227.8375
2214.44458	21253.5375
2217.36388	21208.1375
2220.28132	21155.7375
2223.1969	21102.4375
2226.11061	21114.5375
2229.02246	21023.9375
2231.93245	20974.6375
2234.84058	20915.4375
2237.74686	20899.5375
2240.65128	20867.6375
2243.55385	20839.6375
2246.45456	20847.9375
2249.35343	20818.8375
2252.25044	20781.3375
2255.14561	20771.2375
2258.03893	20732.6375
2260.93041	20689.1375
2263.82004	20661.1375
2266.70783	20605.7375
2269.59378	20535.2375
2272.4779	20506.1375
2275.36017	20454.4375
2278.24061	20411.8375
2281.11922	20404.1375
2283.996	20351.2375
2286.87094	20313.1375
2289.74405	20299.6375
2292.61534	20263.7375
2295.4848	20266.1375
2298.35243	20229.0375
2301.21824	20257.5375
2304.08223	20265.7375
2306.94439	20267.1375
2309.80474	20310.7375
2312.66327	20284.1375
2315.51999	20283.2375
2318.37489	20275.6375
2321.22797	20263.1375
2324.07925	20227.5375
2326.92871	20208.2375
2329.77637	20152.6375
2332.62222	20168.3375
2335.46626	20125.6375
2338.3085	20142.1375
2341.14893	20126.6375
2343.98756	20197.0375
2346.8244	20198.5375
2349.65943	20177.8375
2352.49267	20172.5375
2355.32411	20210.5375
2358.15376	20178.7375
2360.98161	20140.1375
2363.80768	20156.4375
2366.63195	20143.4375
2369.45444	20144.9375
2372.27514	20083.7375
2375.09405	20054.2375
2377.91118	19973.3375
2380.72652	19938.1375
2383.54009	19869.8375
2386.35187	19869.4375
2389.16188	19794.5375
2391.97011	19760.9375
2394.77657	19735.7375
2397.58125	19690.8375
2400.38416	19682.6375
2403.18529	19628.4375
2405.98466	19598.8375
2408.78226	19536.6375
2411.57809	19495.9375
2414.37216	19504.4375
2417.16446	19502.8375
2419.955	19443.7375
2422.74378	19441.8375
2425.5308	19387.6375
2428.31606	19416.1375
2431.09956	19411.5375
2433.88131	19358.4375
2436.6613	19396.3375
2439.43954	19388.2375
2442.21603	19373.5375
2444.99077	19342.6375
2447.76377	19400.4375
2450.53501	19337.0375
2453.30451	19332.5375
2456.07226	19310.4375
2458.83827	19297.4375
2461.60254	19306.1375
2464.36507	19308.2375
2467.12586	19286.1375
2469.88492	19296.8375
2472.64224	19304.0375
2475.39782	19345.1375
2478.15167	19358.0375
2480.90379	19333.6375
2483.65417	19339.1375
2486.40283	19380.2375
2489.14976	19407.7375
2491.89497	19445.6375
2494.63845	19467.7375
2497.3802	19488.3375
2500.12024	19439.5375
2502.85855	19370.8375
2505.59514	19408.9375
2508.33002	19359.2375
2511.06318	19347.4375
2513.79462	19330.2375
2516.52435	19258.1375
2519.25237	19286.4375
2521.97867	19242.6375
2524.70327	19249.1375
2527.42616	19231.8375
2530.14734	19222.4375
2532.86681	19201.4375
2535.58458	19220.4375
2538.30065	19217.2375
2541.01501	19199.9375
2543.72768	19149.2375
2546.43864	19166.5375
2549.14791	19142.4375
2551.85548	19121.1375
2554.56136	19112.6375
2557.26554	19062.5375
2559.96803	19045.9375
2562.66883	19015.9375
2565.36794	18989.6375
2568.06536	18965.9375
2570.7611	18934.7375
2573.45514	18946.2375
2576.14751	18910.3375
2578.83819	18899.0375
2581.52719	18925.2375
2584.21451	18933.4375
2586.90015	18921.4375
2589.58411	18896.5375
2592.2664	18940.0375
2594.94701	18902.2375
2597.62594	18874.7375
2600.30321	18844.1375
2602.9788	18878.5375
2605.65273	18875.1375
2608.32498	18869.6375
2610.99557	18839.8375
2613.66449	18893.5375
2616.33175	18890.5375
2618.99734	18921.7375
2621.66128	18848.9375
2624.32355	18858.8375
2626.98416	18859.7375
2629.64311	18841.9375
2632.30041	18885.3375
2634.95605	18857.5375
2637.61004	18835.4375
2640.26238	18798.7375
2642.91306	18808.0375
2645.56209	18756.8375
2648.20948	18748.2375
2650.85521	18767.6375
2653.4993	18752.0375
2656.14175	18749.0375
2658.78255	18754.8375
2661.42171	18775.4375
2664.05923	18793.4375
2666.6951	18826.6375
2669.32934	18864.8375
2671.96194	18888.8375
2674.59291	18866.2375
2677.22224	18866.7375
2679.84993	18839.9375
2682.476	18843.0375
2685.10043	18862.0375
2687.72324	18794.3375
2690.34441	18809.5375
2692.96396	18750.7375
2695.58188	18770.0375
2698.19818	18770.2375
2700.81285	18805.8375
2703.4259	18831.2375
2706.03733	18838.5375
2708.64714	18815.5375
2711.25533	18802.9375
2713.86191	18781.3375
2716.46687	18812.5375
2719.07021	18861.3375
2721.67194	18920.8375
2724.27206	18854.7375
2726.87057	18876.4375
2729.46747	18930.0375
2732.06276	18938.8375
2734.65644	18920.4375
2737.24852	18884.9375
2739.83899	18866.0375
2742.42786	18899.4375
2745.01513	18848.5375
2747.60079	18864.7375
2750.18486	18834.6375
2752.76733	18818.5375
2755.3482	18816.4375
2757.92747	18795.5375
2760.50515	18804.1375
2763.08123	18831.9375
2765.65573	18800.1375
2768.22863	18817.4375
2770.79994	18779.4375
2773.36967	18803.4375
2775.9378	18783.9375
2778.50435	18772.4375
2781.06932	18778.6375
2783.6327	18780.5375
2786.1945	18786.3375
2788.75471	18803.5375
2791.31335	18726.5375
2793.87041	18713.2375
2796.42589	18660.7375
2798.97979	18633.9375
2801.53212	18602.6375
2804.08288	18576.9375
2806.63206	18551.8375
2809.17967	18493.5375
2811.72571	18478.0375
2814.27018	18479.3375
2816.81308	18443.4375
2819.35442	18438.7375
2821.89419	18413.9375
2824.43239	18418.3375
2826.96904	18399.2375
2829.50412	18398.7375
2832.03763	18342.6375
2834.56959	18350.8375
2837.1	18330.6375
2839.62884	18328.2375
2842.15613	18351.5375
2844.68186	18401.8375
2847.20604	18385.2375
2849.72867	18388.1375
2852.24974	18418.2375
2854.76927	18426.3375
2857.28724	18408.2375
2859.80367	18394.5375
2862.31855	18335.8375
2864.83189	18292.8375
2867.34368	18306.5375
2869.85393	18266.4375
2872.36264	18246.5375
2874.8698	18232.0375
2877.37543	18216.1375
2879.87952	18239.9375
2882.38207	18252.8375
2884.88308	18222.6375
2887.38256	18267.1375
2889.88051	18222.0375
2892.37692	18227.0375
2894.8718	18270.1375
2897.36515	18259.9375
2899.85698	18266.0375
2902.34727	18292.6375
2904.83604	18327.6375
2907.32328	18354.0375
2909.809	18344.3375
2912.29319	18364.4375
2914.77587	18367.8375
2917.25702	18401.1375
2919.73665	18350.0375
2922.21476	18382.8375
2924.69136	18336.7375
2927.16644	18315.4375
2929.64	18255.6375
2932.11205	18256.8375
2934.58258	18179.3375
2937.05161	18194.8375
2939.51912	18249.6375
2941.98513	18195.7375
2944.44962	18153.3375
2946.91261	18055.6375
2949.37409	18094.3375
2951.83407	18061.4375
2954.29254	18036.7375
2956.74951	17999.2375
2959.20498	18026.0375
2961.65895	17937.9375
2964.11142	17973.0375
2966.56239	17905.6375
2969.01186	17906.2375
2971.45984	17909.9375
2973.90632	17893.4375
2976.35131	17871.5375
2978.7948	17844.2375
2981.23681	17785.4375
2983.67732	17768.8375
2986.11635	17693.3375
2988.55388	17687.0375
2990.98993	17632.1375
2993.4245	17580.0375
2995.85758	17532.8375
2998.28917	17482.4375
3000.71928	17454.6375
3003.14791	17438.4375
3005.57506	17400.3375
3008.00073	17357.2375
3010.42493	17268.9375
3012.84764	17329.4375
3015.26888	17294.8375
3017.68865	17244.0375
3020.10694	17249.0375
3022.52376	17203.5375
3024.9391	17193.2375
3027.35298	17156.9375
3029.76539	17137.3375
3032.17632	17107.2375
3034.5858	17076.8375
3036.9938	17073.3375
3039.40034	17058.9375
3041.80542	17077.1375
3044.20903	17018.4375
3046.61118	16998.2375
3049.01187	16946.5375
3051.4111	16960.0375
3053.80888	16917.1375
3056.20519	16918.7375
3058.60005	16866.4375
3060.99345	16818.6375
3063.3854	16788.3375
3065.7759	16678.7375
3068.16494	16620.7375
3070.55254	16560.7375
3072.93868	16587.1375
3075.32338	16508.3375
3077.70662	16474.9375
3080.08842	16415.8375
3082.46878	16406.1375
3084.84769	16355.3375
3087.22515	16359.2375
3089.60118	16355.0375
3091.97576	16342.0375
3094.3489	16334.1375
3096.72061	16319.7375
3099.09087	16325.4375
3101.4597	16297.1375
3103.82709	16312.9375
3106.19305	16287.4375
3108.55757	16274.5375
3110.92066	16208.4375
3113.28232	16206.5375
3115.64255	16166.3375
3118.00134	16159.2375
3120.35871	16107.8375
3122.71466	16063.6375
3125.06917	16062.1375
3127.42226	15988.6375
3129.77393	15946.9375
3132.12417	15937.8375
3134.47299	15950.2375
3136.82039	15946.3375
3139.16636	15884.8375
3141.51092	15899.2375
3143.85406	15887.1375
3146.19579	15895.0375
3148.53609	15871.6375
3150.87499	15900.1375
3153.21246	15910.6375
3155.54853	15937.4375
3157.88318	15871.2375
3160.21642	15929.5375
3162.54826	15910.3375
3164.87868	15901.2375
3167.2077	15906.7375
3169.5353	15912.5375
3171.86151	15885.0375
3174.18631	15876.3375
3176.5097	15835.4375
3178.83169	15836.2375
3181.15228	15844.2375
3183.47147	15824.0375
3185.78926	15786.5375
3188.10565	15762.5375
3190.42065	15743.3375
3192.73424	15744.7375
3195.04645	15733.9375
3197.35725	15694.3375
3199.66667	15693.4375
3201.97469	15704.6375
3204.28132	15691.8375
3206.58656	15725.8375
3208.8904	15698.9375
3211.19287	15751.1375
3213.49394	15728.9375
3215.79363	15745.8375
3218.09193	15752.5375
3220.38884	15741.6375
3222.68438	15743.5375
3224.97853	15679.7375
3227.2713	15691.1375
3229.56269	15670.9375
3231.8527	15663.0375
3234.14133	15629.4375
3236.42858	15586.0375
3238.71446	15575.3375
3240.99896	15552.3375
3243.28209	15542.4375
3245.56384	15503.3375
3247.84423	15506.8375
3250.12324	15472.3375
3252.40088	15464.3375
3254.67715	15479.1375
3256.95205	15453.2375
3259.22558	15472.5375
3261.49775	15404.9375
3263.76855	15406.3375
3266.03799	15382.1375
3268.30606	15349.5375
3270.57277	15325.5375
3272.83812	15289.0375
3275.10211	15248.4375
3277.36474	15235.3375
3279.62601	15232.4375
3281.88593	15182.9375
3284.14448	15200.9375
3286.40168	15188.3375
3288.65753	15210.6375
3290.91202	15188.6375
3293.16516	15144.7375
3295.41695	15132.5375
3297.66738	15051.4375
3299.91647	14981.7375
3302.16421	14884.5375
3304.4106	14824.9375
3306.65564	14691.1375
3308.89933	14626.6375
3311.14169	14532.0375
3313.38269	14394.9375
3315.62236	14314.0375
3317.86068	14187.8375
3320.09766	14086.8375
3322.3333	14005.7375
3324.5676	13923.7375
3326.80056	13724.8375
3329.03219	13610.4375
3331.26248	3.8375
3333.49143	-1.2625
3335.71905	-0.6625
