Data from AgNPs_FTO_APTES_UA_5uM_CRN_5uM_R6G_10uM_NaF_0.1M_Addition_RamanShift__10__11-56-26-679.txt Node

Date: Mon Feb 07 11:56:26 GMT 2022
User: TCL
Spectrometer: QEP01345
Trigger mode: 4
Integration Time (sec): 7.000000E0
Scans to average: 10
Electric dark correction enabled: true
Nonlinearity correction enabled: false
Boxcar width: 0
XAxis mode: Raman Shifts
Number of Pixels in Spectrum: 1044
>>>>>Begin Spectral Data<<<<<
46.04893	-0.9125
50.45542	-1.7125
54.85868	-1.4125
59.25871	1.6875
63.6555	103.6875
68.04907	108.5875
72.43941	114.6875
76.82654	115.5875
81.21044	119.5875
85.59113	123.0875
89.96862	130.5875
94.34289	131.8875
98.71396	139.5875
103.08183	141.8875
107.4465	147.2875
111.80798	149.8875
116.16626	155.2875
120.52136	166.6875
124.87327	173.8875
129.222	186.8875
133.56755	201.9875
137.90993	218.3875
142.24913	238.2875
146.58517	275.5875
150.91804	322.2875
155.24774	390.1875
159.57429	497.6875
163.89768	640.8875
168.21792	855.6875
172.53501	1176.9875
176.84895	1644.9875
181.15975	2309.6875
185.46741	3246.1875
189.77193	4482.2875
194.07331	5988.6875
198.37157	7680.3875
202.6667	9486.1875
206.9587	11300.8875
211.24758	13026.3875
215.53334	14744.5875
219.81599	16605.2875
224.09553	18602.4875
228.37195	20870.7875
232.64527	23267.9875
236.91549	25819.9875
241.18261	28393.9875
245.44663	30809.6875
249.70755	33038.8875
253.96539	34917.4875
258.22014	36581.8875
262.4718	37807.7875
266.72039	38688.0875
270.96589	39098.1875
275.20832	39236.1875
279.44768	39070.3875
283.68397	38877.2875
287.91719	38700.9875
292.14735	38578.6875
296.37445	38591.3875
300.59849	38619.5875
304.81948	38740.6875
309.03742	38764.0875
313.25231	38539.6875
317.46415	37903.5875
321.67296	37052.3875
325.87872	36223.8875
330.08145	35814.0875
334.28114	35714.2875
338.47781	35871.6875
342.67145	36245.6875
346.86207	36687.2875
351.04966	37190.5875
355.23424	37660.3875
359.4158	38123.9875
363.59435	38514.1875
367.76989	38695.8875
371.94243	38760.5875
376.11196	38850.4875
380.27849	38797.0875
384.44203	38776.6875
388.60257	39020.4875
392.76012	39549.1875
396.91468	40294.8875
401.06626	41065.5875
405.21485	41489.6875
409.36047	41340.7875
413.50311	40916.5875
417.64277	40870.2875
421.77947	41241.8875
425.9132	41627.2875
430.04396	41856.7875
434.17176	41935.3875
438.2966	41990.4875
442.41849	42385.8875
446.53742	43254.7875
450.6534	44337.9875
454.76644	45141.3875
458.87653	45460.2875
462.98368	45441.8875
467.08789	45041.6875
471.18916	44413.7875
475.2875	43922.8875
479.38291	43766.5875
483.4754	43648.1875
487.56496	43368.1875
491.6516	42619.2875
495.73531	41803.7875
499.81612	41237.2875
503.89401	41225.9875
507.96899	41508.7875
512.04106	41563.5875
516.11023	41282.2875
520.1765	40599.4875
524.23987	39879.4875
528.30034	39259.2875
532.35792	38720.8875
536.41261	38207.9875
540.46441	37878.9875
544.51333	37945.8875
548.55936	38455.4875
552.60252	39316.2875
556.64279	40360.5875
560.6802	41238.1875
564.71473	42085.6875
568.7464	43342.9875
572.7752	45484.6875
576.80114	48203.3875
580.82422	50792.8875
584.84444	53038.3875
588.86181	55747.0875
592.87633	58248.2875
596.888	57604.8875
600.89682	53791.4875
604.9028	51038.8875
608.90594	51427.0875
612.90624	52162.9875
616.90371	48292.2875
620.89834	42086.2875
624.89015	39616.4875
628.87913	39768.7875
632.86528	40381.5875
636.84862	40218.1875
640.82913	39182.3875
644.80683	37997.9875
648.78172	37239.9875
652.75379	37162.3875
656.72306	37504.2875
660.68952	37902.6875
664.65319	37726.4875
668.61405	37241.3875
672.57211	37101.0875
676.52738	37196.9875
680.47986	37144.8875
684.42955	36839.0875
688.37646	36653.7875
692.32058	36904.1875
696.26192	37534.2875
700.20048	38092.2875
704.13626	38512.6875
708.06928	38817.8875
711.99952	38937.1875
715.927	38798.2875
719.85171	38672.3875
723.77365	38240.0875
727.69284	37419.8875
731.60928	36771.8875
735.52295	36395.9875
739.43388	36302.1875
743.34206	36393.5875
747.24749	36700.3875
751.15017	37320.8875
755.05012	38160.5875
758.94733	39507.5875
762.8418	41442.5875
766.73354	44059.5875
770.62254	46237.4875
774.50882	45936.0875
778.39237	43493.4875
782.27321	40753.5875
786.15132	38684.7875
790.02671	37330.9875
793.89938	36550.8875
797.76935	36148.8875
801.6366	35983.5875
805.50115	35880.1875
809.36299	35782.8875
813.22213	35524.3875
817.07857	35406.3875
820.93231	35314.7875
824.78336	35049.9875
828.63172	34760.9875
832.47738	34546.0875
836.32036	34533.0875
840.16066	34468.5875
843.99827	34471.2875
847.8332	34512.2875
851.66546	34558.7875
855.49504	34724.2875
859.32195	34672.5875
863.1462	34548.9875
866.96777	34477.8875
870.78668	34405.6875
874.60293	34366.7875
878.41652	34345.1875
882.22745	34432.9875
886.03573	34466.7875
889.84136	34518.3875
893.64433	34400.5875
897.44466	34315.5875
901.24235	34240.6875
905.0374	34181.3875
908.8298	34194.5875
912.61957	34330.7875
916.40671	34844.2875
920.19121	35708.0875
923.97308	36320.6875
927.75233	36130.7875
931.52895	35438.5875
935.30295	34529.9875
939.07433	33650.7875
942.84309	33096.4875
946.60924	32783.6875
950.37278	32656.7875
954.13371	32614.0875
957.89203	32676.9875
961.64774	32710.5875
965.40086	32768.1875
969.15137	32712.1875
972.89929	32451.2875
976.64461	32237.9875
980.38733	32113.6875
984.12747	32063.3875
987.86502	32139.0875
991.59999	32320.7875
995.33237	32552.6875
999.06217	33001.0875
1002.78939	33680.5875
1006.51404	34421.5875
1010.23611	35195.9875
1013.95561	35705.0875
1017.67255	35723.4875
1021.38692	35273.6875
1025.09872	34572.9875
1028.80796	34052.9875
1032.51465	33801.1875
1036.21877	33885.2875
1039.92035	34044.1875
1043.61937	34282.1875
1047.31584	34367.2875
1051.00976	34555.4875
1054.70114	34853.4875
1058.38998	35163.8875
1062.07627	35744.3875
1065.76003	36469.3875
1069.44126	37222.7875
1073.11995	38009.1875
1076.79611	38611.1875
1080.46974	38773.5875
1084.14085	39009.7875
1087.80943	39487.2875
1091.47549	40054.9875
1095.13903	40421.1875
1098.80005	39851.7875
1102.45857	38565.9875
1106.11456	37339.3875
1109.76805	36630.3875
1113.41903	36442.0875
1117.06751	36469.2875
1120.71348	36828.9875
1124.35696	37159.5875
1127.99793	37618.0875
1131.63641	38016.4875
1135.2724	38164.6875
1138.90589	38340.8875
1142.5369	38686.0875
1146.16542	39190.6875
1149.79145	39931.3875
1153.415	40733.9875
1157.03607	41628.3875
1160.65467	43190.9875
1164.27079	45509.3875
1167.88443	48242.9875
1171.49561	50877.0875
1175.10432	53672.5875
1178.71056	57101.6875
1182.31434	60270.9875
1185.91565	62022.9875
1189.51451	62116.5875
1193.11091	61225.2875
1196.70485	59587.1875
1200.29634	57546.0875
1203.88538	56383.7875
1207.47197	56423.9875
1211.05612	56828.9875
1214.63782	56221.0875
1218.21708	54263.4875
1221.79391	51657.4875
1225.36829	49567.4875
1228.94024	48242.5875
1232.50976	47327.3875
1236.07685	46767.2875
1239.6415	46321.1875
1243.20374	46165.2875
1246.76355	46569.2875
1250.32093	47421.8875
1253.8759	48534.8875
1257.42845	49993.1875
1260.97859	51845.2875
1264.52631	53556.9875
1268.07163	55374.2875
1271.61453	57179.4875
1275.15503	59165.8875
1278.69312	61491.9875
1282.22882	64205.0875
1285.76211	67267.4875
1289.29301	70721.5875
1292.82151	74620.6875
1296.34761	79311.0875
1299.87133	84395.1875
1303.39266	88994.0875
1306.9116	92391.0875
1310.42815	94107.0875
1313.94233	94097.0875
1317.45412	93239.1875
1320.96354	92333.0875
1324.47058	92321.2875
1327.97525	92907.6875
1331.47754	93265.2875
1334.97747	93015.9875
1338.47502	92139.8875
1341.97022	91138.2875
1345.46305	89767.0875
1348.95352	87821.0875
1352.44163	85906.4875
1355.92738	84974.2875
1359.41078	85821.9875
1362.89183	86946.6875
1366.37053	85844.3875
1369.84688	81044.9875
1373.32088	73700.6875
1376.79254	68118.4875
1380.26186	66300.7875
1383.72883	67068.2875
1387.19347	67921.9875
1390.65578	67672.2875
1394.11575	67493.1875
1397.57339	68252.6875
1401.0287	69618.7875
1404.48168	70550.5875
1407.93234	70062.4875
1411.38068	67784.8875
1414.82669	64327.3875
1418.27039	60637.0875
1421.71177	57351.4875
1425.15083	54904.8875
1428.58758	54040.0875
1432.02203	54766.6875
1435.45416	56786.1875
1438.88399	58999.7875
1442.31151	60785.1875
1445.73673	61804.8875
1449.15965	62608.7875
1452.58027	62971.0875
1455.9986	63205.4875
1459.41463	63698.9875
1462.82837	64851.8875
1466.23982	65935.6875
1469.64898	66840.7875
1473.05586	67126.0875
1476.46045	66761.2875
1479.86276	65999.7875
1483.26279	65205.4875
1486.66054	64787.3875
1490.05602	64928.7875
1493.44922	65560.8875
1496.84016	66414.2875
1500.22882	67329.7875
1503.61521	68366.5875
1506.99934	69405.6875
1510.38121	70114.0875
1513.76081	70457.1875
1517.13816	70355.6875
1520.51324	70709.5875
1523.88607	71531.2875
1527.25665	72592.4875
1530.62498	73121.0875
1533.99105	72545.7875
1537.35488	70938.8875
1540.71647	68432.8875
1544.07581	65437.9875
1547.4329	62675.2875
1550.78776	60552.3875
1554.14038	59070.8875
1557.49077	58246.5875
1560.83892	57560.0875
1564.18484	57178.8875
1567.52853	57049.2875
1570.86999	57539.9875
1574.20922	59077.1875
1577.54624	60738.6875
1580.88103	62097.4875
1584.2136	63732.3875
1587.54395	66661.6875
1590.87208	70488.3875
1594.19801	74599.8875
1597.52172	77588.3875
1600.84321	76986.6875
1604.16251	72063.0875
1607.47959	65431.9875
1610.79447	59027.7875
1614.10715	53430.1875
1617.41763	48863.4875
1620.7259	45815.7875
1624.03199	44362.7875
1627.33587	44451.7875
1630.63757	46264.3875
1633.93707	50293.1875
1637.23439	57109.6875
1640.52951	66927.8875
1643.82246	78364.7875
1647.11321	87151.3875
1650.40179	88097.3875
1653.68819	80190.9875
1656.97241	67719.1875
1660.25446	55865.2875
1663.53433	46931.6875
1666.81203	41157.1875
1670.08756	37478.5875
1673.36092	35223.5875
1676.63211	33756.9875
1679.90115	32793.0875
1683.16801	32069.6875
1686.43272	31474.7875
1689.69527	31023.1875
1692.95567	30682.1875
1696.2139	30377.1875
1699.46999	30199.7875
1702.72392	30051.0875
1705.97571	29895.5875
1709.22535	29843.2875
1712.47284	29664.2875
1715.71819	29636.1875
1718.96139	29456.8875
1722.20246	29320.8875
1725.44139	29186.7875
1728.67818	28968.9875
1731.91284	28698.8875
1735.14537	28521.1875
1738.37576	28319.7875
1741.60403	28216.0875
1744.83017	28020.9875
1748.05418	27920.7875
1751.27607	27870.3875
1754.49584	27750.5875
1757.71349	27728.0875
1760.92903	27659.8875
1764.14244	27595.3875
1767.35375	27542.1875
1770.56294	27526.4875
1773.77002	27396.8875
1776.97499	27327.1875
1780.17785	27231.7875
1783.37861	27193.8875
1786.57727	27138.4875
1789.77382	27104.0875
1792.96828	26979.2875
1796.16064	26948.8875
1799.3509	26857.3875
1802.53907	26787.2875
1805.72514	26693.5875
1808.90913	26557.0875
1812.09102	26513.1875
1815.27083	26469.2875
1818.44856	26416.3875
1821.6242	26350.9875
1824.79776	26368.9875
1827.96924	26328.7875
1831.13864	26239.0875
1834.30597	26233.0875
1837.47122	26243.1875
1840.6344	26243.1875
1843.7955	26255.6875
1846.95454	26279.5875
1850.11151	26265.0875
1853.26642	26211.3875
1856.41926	26199.1875
1859.57004	26165.5875
1862.71876	26123.5875
1865.86542	26075.9875
1869.01003	25967.8875
1872.15258	25886.4875
1875.29308	25834.0875
1878.43152	25811.7875
1881.56792	25759.3875
1884.70227	25694.5875
1887.83457	25658.9875
1890.96482	25629.8875
1894.09304	25580.5875
1897.21921	25524.2875
1900.34335	25487.8875
1903.46544	25464.5875
1906.58551	25451.2875
1909.70353	25331.6875
1912.81953	25265.2875
1915.93349	25229.0875
1919.04543	25148.0875
1922.15534	25068.2875
1925.26322	25018.7875
1928.36908	24898.6875
1931.47292	24892.7875
1934.57473	24766.0875
1937.67453	24622.2875
1940.77232	24578.4875
1943.86808	24485.0875
1946.96184	24448.2875
1950.05358	24424.3875
1953.14331	24347.0875
1956.23103	24241.1875
1959.31675	24149.5875
1962.40046	24052.9875
1965.48217	23987.8875
1968.56188	23926.8875
1971.63959	23804.9875
1974.7153	23675.1875
1977.78901	23571.8875
1980.86073	23512.1875
1983.93046	23449.9875
1986.99819	23346.5875
1990.06394	23276.2875
1993.1277	23233.1875
1996.18947	23167.9875
1999.24925	23051.9875
2002.30706	22991.2875
2005.36288	22890.5875
2008.41672	22834.2875
2011.46859	22741.6875
2014.51848	22699.7875
2017.56639	22628.6875
2020.61233	22543.0875
2023.6563	22497.6875
2026.6983	22384.2875
2029.73833	22351.4875
2032.7764	22329.9875
2035.8125	22269.6875
2038.84664	22189.8875
2041.87881	22171.4875
2044.90903	22112.0875
2047.93729	22045.4875
2050.96359	21982.5875
2053.98794	21989.6875
2057.01034	21948.2875
2060.03078	21910.4875
2063.04927	21954.3875
2066.06582	21922.3875
2069.08042	21907.2875
2072.09307	21850.9875
2075.10378	21813.0875
2078.11255	21800.3875
2081.11938	21787.5875
2084.12426	21784.8875
2087.12722	21765.5875
2090.12824	21720.7875
2093.12732	21714.3875
2096.12447	21730.6875
2099.11969	21746.8875
2102.11299	21719.0875
2105.10435	21730.5875
2108.09379	21705.6875
2111.08131	21709.1875
2114.0669	21707.3875
2117.05057	21707.8875
2120.03233	21721.0875
2123.01216	21716.5875
2125.99008	21734.6875
2128.96609	21714.8875
2131.94018	21669.5875
2134.91236	21686.2875
2137.88263	21703.4875
2140.851	21646.9875
2143.81746	21690.9875
2146.78201	21636.0875
2149.74466	21623.2875
2152.7054	21569.7875
2155.66425	21561.6875
2158.6212	21549.0875
2161.57625	21529.2875
2164.52941	21530.6875
2167.48067	21495.8875
2170.43004	21528.1875
2173.37752	21497.7875
2176.32311	21461.2875
2179.26681	21458.2875
2182.20863	21446.8875
2185.14856	21483.7875
2188.08661	21491.0875
2191.02278	21487.0875
2193.95707	21460.2875
2196.88948	21384.5875
2199.82001	21335.5875
2202.74867	21325.3875
2205.67545	21242.9875
2208.60037	21186.1875
2211.52341	21147.3875
2214.44458	21147.4875
2217.36388	21119.2875
2220.28132	21038.8875
2223.1969	20981.8875
2226.11061	20988.1875
2229.02246	20934.0875
2231.93245	20964.3875
2234.84058	20932.6875
2237.74686	20852.9875
2240.65128	20865.5875
2243.55385	20787.3875
2246.45456	20760.6875
2249.35343	20678.6875
2252.25044	20602.1875
2255.14561	20572.9875
2258.03893	20502.1875
2260.93041	20406.7875
2263.82004	20374.9875
2266.70783	20330.5875
2269.59378	20239.2875
2272.4779	20174.8875
2275.36017	20102.7875
2278.24061	20058.4875
2281.11922	19998.9875
2283.996	19969.1875
2286.87094	19936.1875
2289.74405	19898.3875
2292.61534	19873.7875
2295.4848	19821.1875
2298.35243	19855.5875
2301.21824	19824.5875
2304.08223	19816.4875
2306.94439	19800.3875
2309.80474	19788.7875
2312.66327	19782.0875
2315.51999	19750.3875
2318.37489	19684.4875
2321.22797	19640.5875
2324.07925	19646.9875
2326.92871	19561.9875
2329.77637	19580.5875
2332.62222	19514.6875
2335.46626	19509.1875
2338.3085	19485.3875
2341.14893	19502.6875
2343.98756	19508.3875
2346.8244	19497.9875
2349.65943	19486.1875
2352.49267	19471.7875
2355.32411	19495.5875
2358.15376	19497.1875
2360.98161	19461.1875
2363.80768	19416.2875
2366.63195	19424.0875
2369.45444	19409.8875
2372.27514	19392.4875
2375.09405	19347.7875
2377.91118	19283.0875
2380.72652	19234.1875
2383.54009	19204.3875
2386.35187	19180.6875
2389.16188	19117.5875
2391.97011	19052.7875
2394.77657	19023.1875
2397.58125	18992.2875
2400.38416	18974.8875
2403.18529	18942.1875
2405.98466	18945.4875
2408.78226	18910.9875
2411.57809	18868.7875
2414.37216	18848.3875
2417.16446	18868.1875
2419.955	18835.2875
2422.74378	18796.6875
2425.5308	18766.8875
2428.31606	18748.7875
2431.09956	18736.7875
2433.88131	18745.8875
2436.6613	18760.9875
2439.43954	18710.9875
2442.21603	18709.0875
2444.99077	18653.1875
2447.76377	18698.2875
2450.53501	18653.6875
2453.30451	18607.1875
2456.07226	18590.7875
2458.83827	18620.3875
2461.60254	18624.7875
2464.36507	18620.5875
2467.12586	18588.6875
2469.88492	18567.4875
2472.64224	18559.2875
2475.39782	18600.2875
2478.15167	18569.5875
2480.90379	18603.8875
2483.65417	18590.1875
2486.40283	18582.5875
2489.14976	18585.5875
2491.89497	18556.4875
2494.63845	18571.6875
2497.3802	18532.1875
2500.12024	18571.5875
2502.85855	18521.4875
2505.59514	18523.5875
2508.33002	18488.5875
2511.06318	18499.2875
2513.79462	18464.3875
2516.52435	18436.8875
2519.25237	18488.6875
2521.97867	18456.5875
2524.70327	18452.6875
2527.42616	18411.8875
2530.14734	18438.3875
2532.86681	18457.9875
2535.58458	18427.1875
2538.30065	18391.8875
2541.01501	18375.2875
2543.72768	18353.7875
2546.43864	18352.1875
2549.14791	18306.8875
2551.85548	18304.6875
2554.56136	18266.2875
2557.26554	18261.6875
2559.96803	18228.3875
2562.66883	18201.9875
2565.36794	18189.6875
2568.06536	18142.8875
2570.7611	18153.0875
2573.45514	18117.2875
2576.14751	18108.5875
2578.83819	18079.8875
2581.52719	18083.5875
2584.21451	18057.3875
2586.90015	18075.2875
2589.58411	18057.4875
2592.2664	18057.9875
2594.94701	18020.1875
2597.62594	18008.7875
2600.30321	17974.2875
2602.9788	18005.7875
2605.65273	18007.1875
2608.32498	18014.8875
2610.99557	18016.4875
2613.66449	18009.8875
2616.33175	17985.7875
2618.99734	18000.6875
2621.66128	17957.6875
2624.32355	17943.4875
2626.98416	17900.3875
2629.64311	17916.2875
2632.30041	17906.7875
2634.95605	17881.9875
2637.61004	17841.6875
2640.26238	17876.0875
2642.91306	17865.1875
2645.56209	17848.5875
2648.20948	17889.6875
2650.85521	17885.2875
2653.4993	17939.4875
2656.14175	17914.3875
2658.78255	17940.3875
2661.42171	17964.7875
2664.05923	17936.6875
2666.6951	17923.7875
2669.32934	17991.2875
2671.96194	17972.3875
2674.59291	18001.1875
2677.22224	17969.1875
2679.84993	17975.9875
2682.476	17930.1875
2685.10043	17957.7875
2687.72324	17939.2875
2690.34441	17911.6875
2692.96396	17926.1875
2695.58188	17947.1875
2698.19818	17897.0875
2700.81285	17929.6875
2703.4259	17926.2875
2706.03733	17945.6875
2708.64714	17914.9875
2711.25533	17931.3875
2713.86191	17905.5875
2716.46687	17932.2875
2719.07021	17936.6875
2721.67194	18002.7875
2724.27206	17993.3875
2726.87057	18039.7875
2729.46747	18027.2875
2732.06276	18055.1875
2734.65644	18059.8875
2737.24852	18056.0875
2739.83899	18028.1875
2742.42786	18041.3875
2745.01513	18002.4875
2747.60079	17994.0875
2750.18486	17982.1875
2752.76733	17965.8875
2755.3482	17928.6875
2757.92747	17944.6875
2760.50515	17928.7875
2763.08123	17912.7875
2765.65573	17920.9875
2768.22863	17921.7875
2770.79994	17908.9875
2773.36967	17886.4875
2775.9378	17878.2875
2778.50435	17851.0875
2781.06932	17816.6875
2783.6327	17856.8875
2786.1945	17842.2875
2788.75471	17879.5875
2791.31335	17851.4875
2793.87041	17784.3875
2796.42589	17747.3875
2798.97979	17777.1875
2801.53212	17754.7875
2804.08288	17692.7875
2806.63206	17685.6875
2809.17967	17616.1875
2811.72571	17578.0875
2814.27018	17541.7875
2816.81308	17533.0875
2819.35442	17480.0875
2821.89419	17439.9875
2824.43239	17433.2875
2826.96904	17439.5875
2829.50412	17439.2875
2832.03763	17366.1875
2834.56959	17332.4875
2837.1	17286.8875
2839.62884	17295.0875
2842.15613	17279.4875
2844.68186	17312.0875
2847.20604	17342.3875
2849.72867	17349.2875
2852.24974	17317.8875
2854.76927	17334.6875
2857.28724	17336.2875
2859.80367	17275.2875
2862.31855	17250.1875
2864.83189	17203.9875
2867.34368	17156.4875
2869.85393	17135.1875
2872.36264	17100.2875
2874.8698	17074.8875
2877.37543	17043.7875
2879.87952	17068.9875
2882.38207	17035.1875
2884.88308	17012.2875
2887.38256	17019.5875
2889.88051	17042.6875
2892.37692	17053.9875
2894.8718	17014.7875
2897.36515	17044.4875
2899.85698	17034.6875
2902.34727	17065.7875
2904.83604	17075.8875
2907.32328	17117.7875
2909.809	17114.2875
2912.29319	17118.2875
2914.77587	17093.4875
2917.25702	17115.7875
2919.73665	17078.7875
2922.21476	17111.3875
2924.69136	17091.1875
2927.16644	17089.6875
2929.64	17019.3875
2932.11205	17010.7875
2934.58258	16958.5875
2937.05161	16974.8875
2939.51912	16961.5875
2941.98513	16953.2875
2944.44962	16938.6875
2946.91261	16865.0875
2949.37409	16843.0875
2951.83407	16772.3875
2954.29254	16783.5875
2956.74951	16761.9875
2959.20498	16749.5875
2961.65895	16721.7875
2964.11142	16690.6875
2966.56239	16667.6875
2969.01186	16637.4875
2971.45984	16600.0875
2973.90632	16616.6875
2976.35131	16526.9875
2978.7948	16489.4875
2981.23681	16469.3875
2983.67732	16402.1875
2986.11635	16371.9875
2988.55388	16313.6875
2990.98993	16285.7875
2993.4245	16191.9875
2995.85758	16121.7875
2998.28917	16055.5875
3000.71928	16054.2875
3003.14791	16018.4875
3005.57506	15974.3875
3008.00073	15912.0875
3010.42493	15896.4875
3012.84764	15860.1875
3015.26888	15822.0875
3017.68865	15785.8875
3020.10694	15732.4875
3022.52376	15682.4875
3024.9391	15655.5875
3027.35298	15655.4875
3029.76539	15658.8875
3032.17632	15631.5875
3034.5858	15592.8875
3036.9938	15584.6875
3039.40034	15593.5875
3041.80542	15568.1875
3044.20903	15518.3875
3046.61118	15505.8875
3049.01187	15466.2875
3051.4111	15476.7875
3053.80888	15458.1875
3056.20519	15357.9875
3058.60005	15344.7875
3060.99345	15273.6875
3063.3854	15192.2875
3065.7759	15112.4875
3068.16494	15066.3875
3070.55254	15011.7875
3072.93868	14961.0875
3075.32338	14920.0875
3077.70662	14863.2875
3080.08842	14795.2875
3082.46878	14778.5875
3084.84769	14757.7875
3087.22515	14707.4875
3089.60118	14694.5875
3091.97576	14706.8875
3094.3489	14674.5875
3096.72061	14654.4875
3099.09087	14661.5875
3101.4597	14610.7875
3103.82709	14612.9875
3106.19305	14573.9875
3108.55757	14558.0875
3110.92066	14477.6875
3113.28232	14471.0875
3115.64255	14417.2875
3118.00134	14417.2875
3120.35871	14377.9875
3122.71466	14330.7875
3125.06917	14265.3875
3127.42226	14210.6875
3129.77393	14194.0875
3132.12417	14118.0875
3134.47299	14131.4875
3136.82039	14135.1875
3139.16636	14130.6875
3141.51092	14086.0875
3143.85406	14083.1875
3146.19579	14063.5875
3148.53609	14073.1875
3150.87499	14046.3875
3153.21246	14040.2875
3155.54853	14031.5875
3157.88318	14013.1875
3160.21642	14031.0875
3162.54826	14020.8875
3164.87868	13997.5875
3167.2077	13982.5875
3169.5353	13972.7875
3171.86151	14000.4875
3174.18631	13954.4875
3176.5097	13943.7875
3178.83169	13913.7875
3181.15228	13928.8875
3183.47147	13888.1875
3185.78926	13834.8875
3188.10565	13780.6875
3190.42065	13791.9875
3192.73424	13750.9875
3195.04645	13693.2875
3197.35725	13698.6875
3199.66667	13665.6875
3201.97469	13660.5875
3204.28132	13652.8875
3206.58656	13615.2875
3208.8904	13599.2875
3211.19287	13604.1875
3213.49394	13592.6875
3215.79363	13600.5875
3218.09193	13589.3875
3220.38884	13578.5875
3222.68438	13590.4875
3224.97853	13574.0875
3227.2713	13536.6875
3229.56269	13522.8875
3231.8527	13536.0875
3234.14133	13455.6875
3236.42858	13426.6875
3238.71446	13405.0875
3240.99896	13398.6875
3243.28209	13385.7875
3245.56384	13329.5875
3247.84423	13326.5875
3250.12324	13267.5875
3252.40088	13232.3875
3254.67715	13232.0875
3256.95205	13210.9875
3259.22558	13175.0875
3261.49775	13149.4875
3263.76855	13130.5875
3266.03799	13069.9875
3268.30606	13037.4875
3270.57277	13006.6875
3272.83812	12978.6875
3275.10211	12953.0875
3277.36474	12947.0875
3279.62601	12902.7875
3281.88593	12901.8875
3284.14448	12907.1875
3286.40168	12907.1875
3288.65753	12903.0875
3290.91202	12906.8875
3293.16516	12894.0875
3295.41695	12832.6875
3297.66738	12756.3875
3299.91647	12657.9875
3302.16421	12597.4875
3304.4106	12505.3875
3306.65564	12405.2875
3308.89933	12318.9875
3311.14169	12210.5875
3313.38269	12052.5875
3315.62236	11983.8875
3317.86068	11861.7875
3320.09766	11747.5875
3322.3333	11672.6875
3324.5676	11572.0875
3326.80056	11406.4875
3329.03219	11331.7875
3331.26248	3.3875
3333.49143	-1.2125
3335.71905	-0.2125
