Data from AgNPs_FTO_APTES_UA_5uM_CRN_2uM_R6G_10uM_NaF_0.1M_Addition_RamanShift__9__11-07-26-622.txt Node

Date: Mon Feb 07 11:07:26 GMT 2022
User: TCL
Spectrometer: QEP01345
Trigger mode: 4
Integration Time (sec): 7.000000E0
Scans to average: 10
Electric dark correction enabled: true
Nonlinearity correction enabled: false
Boxcar width: 0
XAxis mode: Raman Shifts
Number of Pixels in Spectrum: 1044
>>>>>Begin Spectral Data<<<<<
46.04893	-1.7625
50.45542	-1.2625
54.85868	-1.2625
59.25871	1.7375
63.6555	106.2375
68.04907	109.7375
72.43941	114.3375
76.82654	117.7375
81.21044	126.3375
85.59113	125.5375
89.96862	132.3375
94.34289	137.2375
98.71396	137.9375
103.08183	144.0375
107.4465	147.0375
111.80798	150.3375
116.16626	157.1375
120.52136	164.8375
124.87327	174.6375
129.222	184.6375
133.56755	195.7375
137.90993	216.0375
142.24913	234.1375
146.58517	277.3375
150.91804	321.7375
155.24774	383.7375
159.57429	489.5375
163.89768	637.9375
168.21792	845.2375
172.53501	1159.2375
176.84895	1623.1375
181.15975	2285.0375
185.46741	3183.1375
189.77193	4402.5375
194.07331	5868.7375
198.37157	7565.9375
202.6667	9341.0375
206.9587	11109.0375
211.24758	12809.3375
215.53334	14592.9375
219.81599	16455.3375
224.09553	18518.1375
228.37195	20727.0375
232.64527	23198.7375
236.91549	25773.5375
241.18261	28323.7375
245.44663	30652.4375
249.70755	32747.1375
253.96539	34536.8375
258.22014	36123.1375
262.4718	37353.4375
266.72039	38157.6375
270.96589	38591.9375
275.20832	38541.2375
279.44768	38382.7375
283.68397	38026.2375
287.91719	37710.2375
292.14735	37526.1375
296.37445	37448.3375
300.59849	37556.5375
304.81948	37809.2375
309.03742	37915.2375
313.25231	37724.8375
317.46415	37213.6375
321.67296	36420.0375
325.87872	35702.0375
330.08145	35276.5375
334.28114	35169.0375
338.47781	35226.0375
342.67145	35638.4375
346.86207	36184.1375
351.04966	36772.6375
355.23424	37462.9375
359.4158	38165.8375
363.59435	38643.6375
367.76989	38966.8375
371.94243	39122.8375
376.11196	39092.8375
380.27849	39019.1375
384.44203	39108.3375
388.60257	39411.0375
392.76012	39914.5375
396.91468	40578.5375
401.06626	41359.7375
405.21485	41862.7375
409.36047	41717.3375
413.50311	41264.1375
417.64277	41270.5375
421.77947	41745.8375
425.9132	42071.8375
430.04396	42383.0375
434.17176	42460.0375
438.2966	42422.3375
442.41849	42761.3375
446.53742	43729.3375
450.6534	44928.7375
454.76644	45733.9375
458.87653	45875.5375
462.98368	45521.9375
467.08789	44834.2375
471.18916	44106.1375
475.2875	43222.2375
479.38291	42789.7375
483.4754	42584.3375
487.56496	42289.2375
491.6516	41734.1375
495.73531	41118.8375
499.81612	40743.7375
503.89401	40942.0375
507.96899	41214.8375
512.04106	41233.4375
516.11023	40813.6375
520.1765	40124.1375
524.23987	39386.5375
528.30034	38776.1375
532.35792	38278.2375
536.41261	37699.9375
540.46441	37193.0375
544.51333	37137.7375
548.55936	37561.7375
552.60252	38554.7375
556.64279	39620.5375
560.6802	40595.9375
564.71473	41204.1375
568.7464	42276.8375
572.7752	44172.9375
576.80114	46633.1375
580.82422	49328.4375
584.84444	52636.7375
588.86181	56912.1375
592.87633	60496.4375
596.888	59498.4375
600.89682	54259.9375
604.9028	50811.0375
608.90594	51881.4375
612.90624	53832.0375
616.90371	50051.6375
620.89834	42420.8375
624.89015	39116.3375
628.87913	38972.1375
632.86528	39458.9375
636.84862	39262.1375
640.82913	38231.7375
644.80683	36989.8375
648.78172	36389.8375
652.75379	36511.8375
656.72306	36994.7375
660.68952	37382.0375
664.65319	37012.2375
668.61405	36268.0375
672.57211	36161.5375
676.52738	36407.4375
680.47986	36377.4375
684.42955	35920.2375
688.37646	35761.8375
692.32058	36020.7375
696.26192	36844.3375
700.20048	37613.1375
704.13626	38028.6375
708.06928	38274.5375
711.99952	38219.8375
715.927	38216.1375
719.85171	38314.1375
723.77365	37975.2375
727.69284	37073.1375
731.60928	36209.3375
735.52295	35823.3375
739.43388	35793.9375
743.34206	35968.6375
747.24749	36321.7375
751.15017	36927.6375
755.05012	37787.0375
758.94733	39087.9375
762.8418	41111.6375
766.73354	43940.0375
770.62254	46282.5375
774.50882	46091.9375
778.39237	43707.3375
782.27321	40706.4375
786.15132	38418.1375
790.02671	36857.3375
793.89938	36099.4375
797.76935	35848.1375
801.6366	35740.0375
805.50115	35656.4375
809.36299	35505.5375
813.22213	35187.5375
817.07857	34952.7375
820.93231	34709.2375
824.78336	34333.4375
828.63172	34061.3375
832.47738	33919.4375
836.32036	33911.6375
840.16066	33913.2375
843.99827	33959.8375
847.8332	33968.6375
851.66546	33994.1375
855.49504	34078.7375
859.32195	34096.2375
863.1462	33959.3375
866.96777	33824.5375
870.78668	33764.2375
874.60293	33737.5375
878.41652	33729.4375
882.22745	33801.1375
886.03573	33981.9375
889.84136	33916.5375
893.64433	33795.2375
897.44466	33685.5375
901.24235	33664.1375
905.0374	33495.9375
908.8298	33468.6375
912.61957	33551.7375
916.40671	34074.1375
920.19121	34747.2375
923.97308	35434.9375
927.75233	35588.5375
931.52895	35034.7375
935.30295	34040.5375
939.07433	33092.4375
942.84309	32449.4375
946.60924	32168.2375
950.37278	32077.7375
954.13371	32131.8375
957.89203	32227.2375
961.64774	32208.4375
965.40086	32275.1375
969.15137	32243.2375
972.89929	32003.4375
976.64461	31830.8375
980.38733	31705.9375
984.12747	31717.6375
987.86502	31861.7375
991.59999	32027.4375
995.33237	32374.1375
999.06217	32968.3375
1002.78939	33753.2375
1006.51404	34717.4375
1010.23611	35633.0375
1013.95561	36230.4375
1017.67255	36247.7375
1021.38692	35644.2375
1025.09872	34810.4375
1028.80796	34199.1375
1032.51465	34192.4375
1036.21877	34508.7375
1039.92035	34686.4375
1043.61937	34844.2375
1047.31584	34704.4375
1051.00976	34605.9375
1054.70114	34660.5375
1058.38998	34921.6375
1062.07627	35324.0375
1065.76003	35926.8375
1069.44126	36705.4375
1073.11995	37566.0375
1076.79611	38272.7375
1080.46974	38618.2375
1084.14085	38898.9375
1087.80943	39542.7375
1091.47549	40102.0375
1095.13903	40318.3375
1098.80005	39613.9375
1102.45857	38211.9375
1106.11456	37022.4375
1109.76805	36393.7375
1113.41903	36203.8375
1117.06751	36301.6375
1120.71348	36684.1375
1124.35696	37073.5375
1127.99793	37573.7375
1131.63641	37992.3375
1135.2724	38086.5375
1138.90589	38205.1375
1142.5369	38519.8375
1146.16542	39070.5375
1149.79145	39649.0375
1153.415	40309.9375
1157.03607	41216.1375
1160.65467	43053.5375
1164.27079	45877.3375
1167.88443	49112.8375
1171.49561	51900.8375
1175.10432	54866.3375
1178.71056	58852.6375
1182.31434	62627.1375
1185.91565	64412.2375
1189.51451	63797.4375
1193.11091	61991.1375
1196.70485	59700.9375
1200.29634	57615.9375
1203.88538	56526.0375
1207.47197	56713.7375
1211.05612	57106.1375
1214.63782	56247.3375
1218.21708	54096.9375
1221.79391	51598.8375
1225.36829	49642.8375
1228.94024	48472.5375
1232.50976	47585.2375
1236.07685	46707.1375
1239.6415	46092.8375
1243.20374	45979.8375
1246.76355	46373.9375
1250.32093	47250.3375
1253.8759	48534.3375
1257.42845	50125.8375
1260.97859	51988.1375
1264.52631	53911.6375
1268.07163	55857.3375
1271.61453	57856.2375
1275.15503	59950.8375
1278.69312	62437.0375
1282.22882	65321.5375
1285.76211	68738.9375
1289.29301	72564.7375
1292.82151	76992.7375
1296.34761	82081.2375
1299.87133	88042.3375
1303.39266	93848.3375
1306.9116	98348.3375
1310.42815	100746.8375
1313.94233	101031.4375
1317.45412	99363.6375
1320.96354	97260.8375
1324.47058	96278.3375
1327.97525	96169.9375
1331.47754	96297.0375
1334.97747	95488.6375
1338.47502	93694.2375
1341.97022	91296.8375
1345.46305	88717.0375
1348.95352	86620.4375
1352.44163	85860.0375
1355.92738	87465.7375
1359.41078	91429.6375
1362.89183	94848.7375
1366.37053	94521.9375
1369.84688	88078.3375
1373.32088	77832.2375
1376.79254	70109.4375
1380.26186	67634.9375
1383.72883	68250.0375
1387.19347	68694.6375
1390.65578	67835.3375
1394.11575	67470.8375
1397.57339	68547.5375
1401.0287	70737.1375
1404.48168	72540.4375
1407.93234	72681.2375
1411.38068	70459.7375
1414.82669	66865.5375
1418.27039	62939.1375
1421.71177	59325.4375
1425.15083	56793.3375
1428.58758	55803.5375
1432.02203	56960.8375
1435.45416	59430.9375
1438.88399	61967.2375
1442.31151	63678.4375
1445.73673	64461.4375
1449.15965	64789.6375
1452.58027	64620.9375
1455.9986	64196.8375
1459.41463	64354.5375
1462.82837	65424.1375
1466.23982	66889.4375
1469.64898	68346.1375
1473.05586	69091.6375
1476.46045	69064.1375
1479.86276	68420.8375
1483.26279	67584.4375
1486.66054	67217.2375
1490.05602	67480.8375
1493.44922	68102.9375
1496.84016	68912.7375
1500.22882	69708.4375
1503.61521	70584.6375
1506.99934	71757.0375
1510.38121	72618.7375
1513.76081	72714.2375
1517.13816	72070.7375
1520.51324	71549.5375
1523.88607	71767.6375
1527.25665	72744.0375
1530.62498	73413.4375
1533.99105	72972.8375
1537.35488	71319.1375
1540.71647	68734.2375
1544.07581	65751.4375
1547.4329	62904.4375
1550.78776	60500.7375
1554.14038	58787.0375
1557.49077	57826.2375
1560.83892	57146.2375
1564.18484	56754.1375
1567.52853	56690.8375
1570.86999	57293.0375
1574.20922	58702.8375
1577.54624	60382.6375
1580.88103	61549.2375
1584.2136	63419.1375
1587.54395	67116.2375
1590.87208	72415.7375
1594.19801	78379.4375
1597.52172	82888.2375
1600.84321	82715.6375
1604.16251	76688.1375
1607.47959	68086.7375
1610.79447	59963.3375
1614.10715	53255.4375
1617.41763	48314.1375
1620.7259	45228.3375
1624.03199	43815.6375
1627.33587	44147.4375
1630.63757	46189.8375
1633.93707	50550.3375
1637.23439	58065.5375
1640.52951	69144.5375
1643.82246	82516.7375
1647.11321	93131.7375
1650.40179	94324.3375
1653.68819	84449.2375
1656.97241	69657.9375
1660.25446	56202.8375
1663.53433	46720.8375
1666.81203	40846.5375
1670.08756	37245.7375
1673.36092	35026.9375
1676.63211	33609.6375
1679.90115	32616.6375
1683.16801	31898.5375
1686.43272	31332.9375
1689.69527	30871.2375
1692.95567	30639.7375
1696.2139	30365.9375
1699.46999	30242.9375
1702.72392	30023.2375
1705.97571	29907.3375
1709.22535	29810.4375
1712.47284	29643.1375
1715.71819	29649.6375
1718.96139	29519.6375
1722.20246	29367.6375
1725.44139	29238.6375
1728.67818	29005.7375
1731.91284	28743.5375
1735.14537	28528.8375
1738.37576	28331.0375
1741.60403	28199.3375
1744.83017	28074.5375
1748.05418	27930.8375
1751.27607	27818.8375
1754.49584	27785.5375
1757.71349	27752.3375
1760.92903	27686.4375
1764.14244	27643.6375
1767.35375	27606.9375
1770.56294	27570.4375
1773.77002	27470.3375
1776.97499	27390.0375
1780.17785	27292.5375
1783.37861	27247.6375
1786.57727	27179.8375
1789.77382	27106.5375
1792.96828	27078.2375
1796.16064	26982.7375
1799.3509	26911.1375
1802.53907	26877.8375
1805.72514	26773.3375
1808.90913	26707.4375
1812.09102	26662.8375
1815.27083	26585.0375
1818.44856	26520.3375
1821.6242	26451.6375
1824.79776	26453.4375
1827.96924	26476.3375
1831.13864	26451.2375
1834.30597	26424.9375
1837.47122	26446.5375
1840.6344	26444.7375
1843.7955	26491.3375
1846.95454	26497.5375
1850.11151	26517.5375
1853.26642	26362.2375
1856.41926	26382.5375
1859.57004	26388.5375
1862.71876	26324.2375
1865.86542	26256.3375
1869.01003	26208.7375
1872.15258	26133.2375
1875.29308	26111.2375
1878.43152	26095.9375
1881.56792	26049.1375
1884.70227	26030.1375
1887.83457	25953.9375
1890.96482	25934.0375
1894.09304	25911.8375
1897.21921	25852.2375
1900.34335	25818.4375
1903.46544	25755.6375
1906.58551	25695.8375
1909.70353	25677.7375
1912.81953	25593.7375
1915.93349	25546.8375
1919.04543	25416.8375
1922.15534	25390.2375
1925.26322	25310.3375
1928.36908	25233.8375
1931.47292	25176.6375
1934.57473	25074.1375
1937.67453	25005.2375
1940.77232	24917.9375
1943.86808	24808.4375
1946.96184	24770.3375
1950.05358	24715.0375
1953.14331	24623.7375
1956.23103	24558.6375
1959.31675	24483.4375
1962.40046	24369.0375
1965.48217	24310.1375
1968.56188	24265.8375
1971.63959	24146.4375
1974.7153	24054.3375
1977.78901	23920.7375
1980.86073	23870.8375
1983.93046	23760.9375
1986.99819	23708.9375
1990.06394	23625.2375
1993.1277	23604.0375
1996.18947	23539.1375
1999.24925	23467.4375
2002.30706	23368.4375
2005.36288	23258.4375
2008.41672	23170.6375
2011.46859	23130.3375
2014.51848	23049.6375
2017.56639	23015.3375
2020.61233	22985.5375
2023.6563	22894.3375
2026.6983	22845.4375
2029.73833	22852.7375
2032.7764	22773.4375
2035.8125	22697.3375
2038.84664	22629.5375
2041.87881	22603.0375
2044.90903	22553.2375
2047.93729	22515.4375
2050.96359	22503.1375
2053.98794	22450.3375
2057.01034	22436.1375
2060.03078	22429.5375
2063.04927	22437.9375
2066.06582	22402.2375
2069.08042	22359.0375
2072.09307	22367.6375
2075.10378	22300.0375
2078.11255	22270.7375
2081.11938	22290.5375
2084.12426	22247.9375
2087.12722	22237.3375
2090.12824	22212.9375
2093.12732	22188.5375
2096.12447	22196.4375
2099.11969	22235.7375
2102.11299	22244.4375
2105.10435	22197.3375
2108.09379	22190.4375
2111.08131	22201.4375
2114.0669	22194.8375
2117.05057	22200.5375
2120.03233	22195.0375
2123.01216	22243.6375
2125.99008	22241.6375
2128.96609	22281.6375
2131.94018	22251.1375
2134.91236	22262.8375
2137.88263	22240.1375
2140.851	22236.5375
2143.81746	22211.2375
2146.78201	22187.0375
2149.74466	22209.7375
2152.7054	22166.3375
2155.66425	22130.2375
2158.6212	22093.7375
2161.57625	22096.8375
2164.52941	22110.8375
2167.48067	22042.4375
2170.43004	22087.7375
2173.37752	22095.4375
2176.32311	22058.3375
2179.26681	22070.1375
2182.20863	22008.5375
2185.14856	22073.9375
2188.08661	22083.1375
2191.02278	22020.9375
2193.95707	22048.0375
2196.88948	21967.6375
2199.82001	21946.2375
2202.74867	21849.1375
2205.67545	21875.1375
2208.60037	21847.6375
2211.52341	21802.3375
2214.44458	21782.8375
2217.36388	21744.5375
2220.28132	21662.2375
2223.1969	21613.2375
2226.11061	21635.8375
2229.02246	21649.5375
2231.93245	21583.4375
2234.84058	21615.0375
2237.74686	21582.6375
2240.65128	21573.6375
2243.55385	21496.7375
2246.45456	21420.5375
2249.35343	21377.2375
2252.25044	21291.6375
2255.14561	21225.6375
2258.03893	21189.8375
2260.93041	21118.3375
2263.82004	21053.2375
2266.70783	21003.7375
2269.59378	20902.6375
2272.4779	20871.4375
2275.36017	20759.5375
2278.24061	20757.4375
2281.11922	20669.2375
2283.996	20661.9375
2286.87094	20665.5375
2289.74405	20629.6375
2292.61534	20588.1375
2295.4848	20574.2375
2298.35243	20618.4375
2301.21824	20559.7375
2304.08223	20562.6375
2306.94439	20589.2375
2309.80474	20599.9375
2312.66327	20587.7375
2315.51999	20528.9375
2318.37489	20465.3375
2321.22797	20464.0375
2324.07925	20487.3375
2326.92871	20426.0375
2329.77637	20383.4375
2332.62222	20367.1375
2335.46626	20311.7375
2338.3085	20291.8375
2341.14893	20352.6375
2343.98756	20341.4375
2346.8244	20315.4375
2349.65943	20304.4375
2352.49267	20291.6375
2355.32411	20334.1375
2358.15376	20279.4375
2360.98161	20288.1375
2363.80768	20294.0375
2366.63195	20297.3375
2369.45444	20280.1375
2372.27514	20254.7375
2375.09405	20184.4375
2377.91118	20126.3375
2380.72652	20074.9375
2383.54009	20022.0375
2386.35187	20003.6375
2389.16188	19917.4375
2391.97011	19918.1375
2394.77657	19893.3375
2397.58125	19812.2375
2400.38416	19787.9375
2403.18529	19804.3375
2405.98466	19762.7375
2408.78226	19760.4375
2411.57809	19750.9375
2414.37216	19712.1375
2417.16446	19771.0375
2419.955	19680.5375
2422.74378	19644.0375
2425.5308	19640.0375
2428.31606	19624.4375
2431.09956	19598.9375
2433.88131	19597.2375
2436.6613	19634.9375
2439.43954	19643.7375
2442.21603	19609.5375
2444.99077	19557.9375
2447.76377	19598.0375
2450.53501	19545.7375
2453.30451	19532.6375
2456.07226	19507.6375
2458.83827	19518.6375
2461.60254	19537.3375
2464.36507	19546.8375
2467.12586	19493.3375
2469.88492	19513.6375
2472.64224	19527.5375
2475.39782	19578.8375
2478.15167	19551.1375
2480.90379	19554.4375
2483.65417	19542.9375
2486.40283	19543.2375
2489.14976	19591.7375
2491.89497	19580.2375
2494.63845	19561.9375
2497.3802	19518.2375
2500.12024	19532.1375
2502.85855	19499.1375
2505.59514	19511.9375
2508.33002	19520.0375
2511.06318	19470.9375
2513.79462	19467.4375
2516.52435	19421.5375
2519.25237	19446.7375
2521.97867	19441.3375
2524.70327	19427.6375
2527.42616	19390.5375
2530.14734	19439.0375
2532.86681	19417.8375
2535.58458	19437.0375
2538.30065	19396.5375
2541.01501	19389.7375
2543.72768	19364.0375
2546.43864	19362.0375
2549.14791	19328.9375
2551.85548	19301.4375
2554.56136	19310.0375
2557.26554	19237.7375
2559.96803	19240.1375
2562.66883	19229.4375
2565.36794	19219.5375
2568.06536	19205.9375
2570.7611	19194.1375
2573.45514	19221.7375
2576.14751	19164.1375
2578.83819	19178.4375
2581.52719	19189.6375
2584.21451	19172.2375
2586.90015	19161.7375
2589.58411	19153.0375
2592.2664	19128.4375
2594.94701	19097.9375
2597.62594	19086.8375
2600.30321	19093.6375
2602.9788	19063.3375
2605.65273	19067.6375
2608.32498	19159.8375
2610.99557	19130.1375
2613.66449	19153.7375
2616.33175	19109.2375
2618.99734	19147.9375
2621.66128	19100.9375
2624.32355	19053.2375
2626.98416	19048.6375
2629.64311	19026.0375
2632.30041	19021.5375
2634.95605	19033.6375
2637.61004	19006.4375
2640.26238	18973.7375
2642.91306	18991.7375
2645.56209	18969.3375
2648.20948	19024.2375
2650.85521	19027.4375
2653.4993	19060.9375
2656.14175	19040.7375
2658.78255	19044.3375
2661.42171	19086.9375
2664.05923	19127.9375
2666.6951	19135.3375
2669.32934	19137.9375
2671.96194	19146.6375
2674.59291	19180.4375
2677.22224	19138.8375
2679.84993	19143.5375
2682.476	19144.5375
2685.10043	19124.6375
2687.72324	19089.0375
2690.34441	19079.4375
2692.96396	19060.8375
2695.58188	19106.4375
2698.19818	19072.7375
2700.81285	19085.7375
2703.4259	19114.2375
2706.03733	19140.5375
2708.64714	19134.3375
2711.25533	19135.9375
2713.86191	19118.7375
2716.46687	19145.1375
2719.07021	19141.1375
2721.67194	19197.6375
2724.27206	19231.0375
2726.87057	19219.8375
2729.46747	19257.3375
2732.06276	19248.2375
2734.65644	19289.9375
2737.24852	19273.8375
2739.83899	19249.1375
2742.42786	19277.6375
2745.01513	19176.5375
2747.60079	19225.8375
2750.18486	19194.9375
2752.76733	19210.1375
2755.3482	19184.5375
2757.92747	19215.3375
2760.50515	19166.9375
2763.08123	19184.1375
2765.65573	19162.5375
2768.22863	19150.9375
2770.79994	19105.6375
2773.36967	19147.0375
2775.9378	19158.3375
2778.50435	19188.9375
2781.06932	19147.5375
2783.6327	19150.0375
2786.1945	19139.1375
2788.75471	19175.8375
2791.31335	19122.1375
2793.87041	19108.7375
2796.42589	19067.5375
2798.97979	19061.4375
2801.53212	19075.1375
2804.08288	19001.8375
2806.63206	18946.2375
2809.17967	18960.4375
2811.72571	18897.9375
2814.27018	18864.6375
2816.81308	18810.1375
2819.35442	18788.0375
2821.89419	18740.7375
2824.43239	18758.2375
2826.96904	18728.1375
2829.50412	18709.8375
2832.03763	18631.7375
2834.56959	18671.1375
2837.1	18594.8375
2839.62884	18631.3375
2842.15613	18625.6375
2844.68186	18676.6375
2847.20604	18645.8375
2849.72867	18656.4375
2852.24974	18657.8375
2854.76927	18675.5375
2857.28724	18646.4375
2859.80367	18648.2375
2862.31855	18579.9375
2864.83189	18577.3375
2867.34368	18505.9375
2869.85393	18464.8375
2872.36264	18439.2375
2874.8698	18406.4375
2877.37543	18432.3375
2879.87952	18402.3375
2882.38207	18423.1375
2884.88308	18423.7375
2887.38256	18440.1375
2889.88051	18411.5375
2892.37692	18433.8375
2894.8718	18445.5375
2897.36515	18458.2375
2899.85698	18449.8375
2902.34727	18501.6375
2904.83604	18491.7375
2907.32328	18564.8375
2909.809	18544.0375
2912.29319	18548.7375
2914.77587	18558.2375
2917.25702	18548.1375
2919.73665	18513.7375
2922.21476	18529.7375
2924.69136	18494.9375
2927.16644	18496.8375
2929.64	18475.5375
2932.11205	18451.1375
2934.58258	18408.2375
2937.05161	18428.0375
2939.51912	18382.8375
2941.98513	18383.6375
2944.44962	18352.2375
2946.91261	18261.8375
2949.37409	18279.6375
2951.83407	18240.1375
2954.29254	18226.9375
2956.74951	18256.1375
2959.20498	18227.1375
2961.65895	18189.3375
2964.11142	18143.9375
2966.56239	18110.5375
2969.01186	18110.9375
2971.45984	18050.8375
2973.90632	18027.1375
2976.35131	17974.0375
2978.7948	17910.2375
2981.23681	17853.0375
2983.67732	17836.6375
2986.11635	17815.4375
2988.55388	17716.8375
2990.98993	17676.3375
2993.4245	17602.9375
2995.85758	17535.0375
2998.28917	17473.5375
3000.71928	17451.3375
3003.14791	17442.7375
3005.57506	17424.8375
3008.00073	17331.8375
3010.42493	17349.6375
3012.84764	17305.7375
3015.26888	17281.8375
3017.68865	17225.7375
3020.10694	17158.8375
3022.52376	17147.5375
3024.9391	17119.1375
3027.35298	17101.3375
3029.76539	17082.6375
3032.17632	17045.0375
3034.5858	17027.9375
3036.9938	17001.4375
3039.40034	16984.0375
3041.80542	16968.9375
3044.20903	16982.0375
3046.61118	16983.5375
3049.01187	16922.2375
3051.4111	16905.2375
3053.80888	16868.3375
3056.20519	16826.2375
3058.60005	16745.4375
3060.99345	16712.0375
3063.3854	16642.9375
3065.7759	16616.8375
3068.16494	16533.4375
3070.55254	16459.1375
3072.93868	16402.1375
3075.32338	16361.5375
3077.70662	16293.4375
3080.08842	16228.0375
3082.46878	16218.6375
3084.84769	16176.6375
3087.22515	16155.3375
3089.60118	16122.0375
3091.97576	16138.7375
3094.3489	16089.2375
3096.72061	16094.9375
3099.09087	16100.3375
3101.4597	16051.3375
3103.82709	16081.5375
3106.19305	16013.1375
3108.55757	15964.0375
3110.92066	15925.2375
3113.28232	15929.7375
3115.64255	15887.4375
3118.00134	15834.4375
3120.35871	15791.0375
3122.71466	15747.2375
3125.06917	15671.1375
3127.42226	15637.7375
3129.77393	15639.5375
3132.12417	15607.2375
3134.47299	15601.3375
3136.82039	15589.2375
3139.16636	15540.7375
3141.51092	15544.1375
3143.85406	15527.2375
3146.19579	15522.3375
3148.53609	15508.5375
3150.87499	15496.2375
3153.21246	15491.8375
3155.54853	15483.4375
3157.88318	15459.3375
3160.21642	15450.0375
3162.54826	15424.2375
3164.87868	15437.8375
3167.2077	15426.1375
3169.5353	15451.3375
3171.86151	15433.5375
3174.18631	15394.5375
3176.5097	15383.0375
3178.83169	15374.5375
3181.15228	15372.7375
3183.47147	15280.3375
3185.78926	15274.1375
3188.10565	15251.6375
3190.42065	15190.3375
3192.73424	15200.6375
3195.04645	15159.9375
3197.35725	15152.3375
3199.66667	15130.5375
3201.97469	15138.2375
3204.28132	15087.8375
3206.58656	15077.2375
3208.8904	15047.5375
3211.19287	15101.6375
3213.49394	15045.0375
3215.79363	15054.3375
3218.09193	15021.7375
3220.38884	15066.8375
3222.68438	15050.1375
3224.97853	15037.0375
3227.2713	15000.7375
3229.56269	14988.0375
3231.8527	14989.6375
3234.14133	14958.2375
3236.42858	14940.1375
3238.71446	14910.8375
3240.99896	14888.9375
3243.28209	14887.1375
3245.56384	14856.0375
3247.84423	14811.6375
3250.12324	14813.0375
3252.40088	14752.5375
3254.67715	14716.0375
3256.95205	14673.2375
3259.22558	14672.5375
3261.49775	14614.6375
3263.76855	14616.6375
3266.03799	14558.6375
3268.30606	14499.4375
3270.57277	14478.7375
3272.83812	14439.6375
3275.10211	14410.7375
3277.36474	14420.4375
3279.62601	14401.4375
3281.88593	14391.6375
3284.14448	14418.2375
3286.40168	14426.5375
3288.65753	14415.5375
3290.91202	14380.2375
3293.16516	14337.6375
3295.41695	14342.1375
3297.66738	14238.9375
3299.91647	14149.1375
3302.16421	14064.5375
3304.4106	13924.8375
3306.65564	13847.5375
3308.89933	13705.8375
3311.14169	13613.0375
3313.38269	13499.4375
3315.62236	13408.3375
3317.86068	13284.8375
3320.09766	13154.6375
3322.3333	13060.1375
3324.5676	13013.6375
3326.80056	12776.0375
3329.03219	12721.0375
3331.26248	3.1375
3333.49143	-1.0625
3335.71905	0.0375
