Data from AgNPs_FTO_APTES_UA_5uM_CRN_5uM_R6G_10uM_NaF_0.1M_Addition_RamanShift__2__11-47-06-669.txt Node

Date: Mon Feb 07 11:47:06 GMT 2022
User: TCL
Spectrometer: QEP01345
Trigger mode: 4
Integration Time (sec): 7.000000E0
Scans to average: 10
Electric dark correction enabled: true
Nonlinearity correction enabled: false
Boxcar width: 0
XAxis mode: Raman Shifts
Number of Pixels in Spectrum: 1044
>>>>>Begin Spectral Data<<<<<
46.04893	-0.575
50.45542	-1.275
54.85868	-1.775
59.25871	-0.675
63.6555	108.525
68.04907	112.825
72.43941	119.325
76.82654	122.025
81.21044	124.725
85.59113	125.025
89.96862	133.125
94.34289	137.125
98.71396	144.125
103.08183	145.325
107.4465	152.925
111.80798	152.825
116.16626	160.525
120.52136	166.525
124.87327	176.325
129.222	185.925
133.56755	198.725
137.90993	217.825
142.24913	240.225
146.58517	274.025
150.91804	319.125
155.24774	388.025
159.57429	483.725
163.89768	629.625
168.21792	838.425
172.53501	1150.425
176.84895	1598.425
181.15975	2256.225
185.46741	3175.425
189.77193	4381.925
194.07331	5836.325
198.37157	7509.425
202.6667	9258.525
206.9587	10995.525
211.24758	12698.325
215.53334	14431.525
219.81599	16277.625
224.09553	18378.825
228.37195	20601.625
232.64527	23066.525
236.91549	25595.825
241.18261	28140.425
245.44663	30466.825
249.70755	32552.425
253.96539	34408.625
258.22014	35879.925
262.4718	37144.425
266.72039	38060.325
270.96589	38569.625
275.20832	38603.425
279.44768	38421.925
283.68397	38147.525
287.91719	37951.625
292.14735	37843.225
296.37445	37887.625
300.59849	37950.525
304.81948	38133.625
309.03742	38181.325
313.25231	37884.725
317.46415	37237.125
321.67296	36345.925
325.87872	35532.125
330.08145	35127.425
334.28114	34961.525
338.47781	35100.625
342.67145	35452.625
346.86207	36052.125
351.04966	36718.825
355.23424	37413.725
359.4158	38047.925
363.59435	38546.725
367.76989	38919.225
371.94243	39048.425
376.11196	39210.325
380.27849	39283.225
384.44203	39453.425
388.60257	39845.125
392.76012	40336.325
396.91468	40929.625
401.06626	41589.725
405.21485	42013.125
409.36047	41878.825
413.50311	41495.025
417.64277	41531.925
421.77947	41882.425
425.9132	42163.325
430.04396	42422.225
434.17176	42494.125
438.2966	42605.125
442.41849	43172.725
446.53742	44394.725
450.6534	45861.025
454.76644	46818.125
458.87653	47189.125
462.98368	46765.725
467.08789	45916.825
471.18916	44952.125
475.2875	44094.225
479.38291	43651.025
483.4754	43439.825
487.56496	43074.925
491.6516	42405.825
495.73531	41669.125
499.81612	41298.425
503.89401	41486.825
507.96899	41778.125
512.04106	41731.425
516.11023	41178.725
520.1765	40491.025
524.23987	39644.425
528.30034	39061.925
532.35792	38633.825
536.41261	38075.025
540.46441	37587.525
544.51333	37557.625
548.55936	38093.825
552.60252	39107.925
556.64279	40401.725
560.6802	41426.625
564.71473	42105.725
568.7464	43145.525
572.7752	44927.825
576.80114	47044.425
580.82422	49240.725
584.84444	51930.725
588.86181	54969.025
592.87633	57060.525
596.888	55843.325
600.89682	52114.825
604.9028	50430.225
608.90594	52480.525
612.90624	55060.825
616.90371	51125.125
620.89834	43067.825
624.89015	39581.125
628.87913	39254.725
632.86528	39395.525
636.84862	39091.525
640.82913	38210.225
644.80683	37093.625
648.78172	36506.625
652.75379	36510.525
656.72306	37023.425
660.68952	37481.625
664.65319	37192.525
668.61405	36445.825
672.57211	36342.525
676.52738	36542.225
680.47986	36455.125
684.42955	36040.525
688.37646	35907.625
692.32058	36212.525
696.26192	36998.525
700.20048	37789.125
704.13626	38175.525
708.06928	38193.725
711.99952	38006.925
715.927	38060.025
719.85171	38316.825
723.77365	38142.925
727.69284	37355.125
731.60928	36624.025
735.52295	36275.925
739.43388	36271.825
743.34206	36433.925
747.24749	36744.725
751.15017	37261.325
755.05012	38047.825
758.94733	39371.125
762.8418	41443.125
766.73354	44327.925
770.62254	46844.725
774.50882	46799.925
778.39237	44281.225
782.27321	41167.725
786.15132	38773.925
790.02671	37229.225
793.89938	36489.725
797.76935	36241.825
801.6366	36216.325
805.50115	36219.425
809.36299	35984.225
813.22213	35697.625
817.07857	35375.325
820.93231	35130.925
824.78336	34818.525
828.63172	34543.525
832.47738	34453.025
836.32036	34505.825
840.16066	34622.425
843.99827	34733.625
847.8332	34680.325
851.66546	34580.525
855.49504	34562.325
859.32195	34556.925
863.1462	34424.125
866.96777	34363.425
870.78668	34264.525
874.60293	34248.725
878.41652	34214.225
882.22745	34323.425
886.03573	34450.125
889.84136	34464.225
893.64433	34310.525
897.44466	34152.825
901.24235	34013.225
905.0374	33842.925
908.8298	33840.925
912.61957	33938.925
916.40671	34372.025
920.19121	35069.825
923.97308	35750.125
927.75233	35826.325
931.52895	35334.725
935.30295	34511.425
939.07433	33747.825
942.84309	33236.725
946.60924	32988.425
950.37278	32934.425
954.13371	32947.825
957.89203	32919.225
961.64774	32890.025
965.40086	32926.125
969.15137	32890.425
972.89929	32672.625
976.64461	32509.525
980.38733	32502.125
984.12747	32578.525
987.86502	32853.225
991.59999	33219.125
995.33237	33803.325
999.06217	34748.025
1002.78939	35920.225
1006.51404	36986.525
1010.23611	37830.525
1013.95561	38313.725
1017.67255	38269.125
1021.38692	37559.725
1025.09872	36706.725
1028.80796	36445.525
1032.51465	37111.325
1036.21877	37922.025
1039.92035	38280.025
1043.61937	38097.325
1047.31584	37414.425
1051.00976	36726.625
1054.70114	36349.125
1058.38998	36406.525
1062.07627	36707.025
1065.76003	37136.325
1069.44126	37743.725
1073.11995	38455.725
1076.79611	39118.325
1080.46974	39475.925
1084.14085	39854.725
1087.80943	40475.725
1091.47549	40957.925
1095.13903	41135.825
1098.80005	40511.225
1102.45857	39327.425
1106.11456	38297.325
1109.76805	37790.525
1113.41903	37657.525
1117.06751	37757.825
1120.71348	38080.525
1124.35696	38418.925
1127.99793	38880.525
1131.63641	39233.525
1135.2724	39352.725
1138.90589	39429.125
1142.5369	39701.425
1146.16542	40279.225
1149.79145	40832.825
1153.415	41454.925
1157.03607	42406.925
1160.65467	44257.825
1164.27079	47213.625
1167.88443	50565.725
1171.49561	53682.525
1175.10432	57278.225
1178.71056	61961.325
1182.31434	66379.525
1185.91565	68472.825
1189.51451	67816.525
1193.11091	65672.825
1196.70485	63007.925
1200.29634	60759.925
1203.88538	59528.025
1207.47197	59329.125
1211.05612	59223.325
1214.63782	58143.625
1218.21708	56105.225
1221.79391	53936.425
1225.36829	52417.325
1228.94024	51206.225
1232.50976	50025.525
1236.07685	48883.525
1239.6415	48267.125
1243.20374	48145.425
1246.76355	48697.625
1250.32093	49758.025
1253.8759	51215.725
1257.42845	52891.325
1260.97859	54866.825
1264.52631	56845.425
1268.07163	58992.925
1271.61453	61188.425
1275.15503	63638.525
1278.69312	65962.225
1282.22882	68612.625
1285.76211	71573.825
1289.29301	75080.825
1292.82151	79284.925
1296.34761	84670.925
1299.87133	91201.525
1303.39266	97752.725
1306.9116	103369.825
1310.42815	106870.025
1313.94233	107723.225
1317.45412	106177.825
1320.96354	103768.525
1324.47058	102114.125
1327.97525	101391.325
1331.47754	101118.525
1334.97747	100497.325
1338.47502	98961.225
1341.97022	96521.325
1345.46305	93426.125
1348.95352	90828.725
1352.44163	89873.125
1355.92738	91528.125
1359.41078	95396.425
1362.89183	98560.225
1366.37053	97380.725
1369.84688	90194.025
1373.32088	79957.425
1376.79254	72487.225
1380.26186	70181.025
1383.72883	71000.625
1387.19347	71690.125
1390.65578	71081.225
1394.11575	70975.425
1397.57339	72287.625
1401.0287	74426.925
1404.48168	76361.725
1407.93234	76713.625
1411.38068	74854.525
1414.82669	71591.225
1418.27039	67519.125
1421.71177	63611.225
1425.15083	60590.825
1428.58758	59366.925
1432.02203	60300.525
1435.45416	62835.625
1438.88399	65768.525
1442.31151	67846.425
1445.73673	68853.625
1449.15965	69363.725
1452.58027	69283.825
1455.9986	68822.825
1459.41463	69021.925
1462.82837	70059.825
1466.23982	71648.425
1469.64898	73196.925
1473.05586	74020.225
1476.46045	73890.825
1479.86276	72976.025
1483.26279	71692.025
1486.66054	70984.925
1490.05602	70873.625
1493.44922	71199.925
1496.84016	71379.825
1500.22882	71668.725
1503.61521	72388.025
1506.99934	73605.425
1510.38121	74571.625
1513.76081	74592.925
1517.13816	73695.525
1520.51324	72501.825
1523.88607	72157.625
1527.25665	72787.825
1530.62498	73528.425
1533.99105	73720.525
1537.35488	72799.225
1540.71647	70945.625
1544.07581	68471.325
1547.4329	65833.825
1550.78776	63604.125
1554.14038	61918.625
1557.49077	60867.025
1560.83892	60020.325
1564.18484	59632.625
1567.52853	59554.425
1570.86999	60041.525
1574.20922	61455.225
1577.54624	63159.725
1580.88103	64316.525
1584.2136	66181.825
1587.54395	70161.325
1590.87208	75846.925
1594.19801	82243.625
1597.52172	87478.925
1600.84321	87979.825
1604.16251	82136.925
1607.47959	73034.825
1610.79447	64132.925
1614.10715	56709.025
1617.41763	51308.425
1620.7259	47862.525
1624.03199	46316.925
1627.33587	46715.725
1630.63757	48910.225
1633.93707	53456.925
1637.23439	61035.525
1640.52951	71875.625
1643.82246	84336.825
1647.11321	93520.025
1650.40179	93672.325
1653.68819	83895.725
1656.97241	69590.625
1660.25446	56770.825
1663.53433	47646.225
1666.81203	41952.525
1670.08756	38381.825
1673.36092	36228.525
1676.63211	34828.625
1679.90115	33886.425
1683.16801	33137.725
1686.43272	32535.625
1689.69527	32170.325
1692.95567	31811.725
1696.2139	31582.425
1699.46999	31422.425
1702.72392	31211.325
1705.97571	31188.825
1709.22535	31072.825
1712.47284	30955.325
1715.71819	30887.825
1718.96139	30782.225
1722.20246	30682.825
1725.44139	30484.725
1728.67818	30256.725
1731.91284	29989.625
1735.14537	29813.425
1738.37576	29637.125
1741.60403	29489.625
1744.83017	29281.825
1748.05418	29274.425
1751.27607	29101.525
1754.49584	29084.025
1757.71349	29055.925
1760.92903	29034.425
1764.14244	28962.025
1767.35375	28949.425
1770.56294	28886.725
1773.77002	28831.525
1776.97499	28704.025
1780.17785	28670.825
1783.37861	28601.925
1786.57727	28567.425
1789.77382	28506.825
1792.96828	28428.725
1796.16064	28374.225
1799.3509	28310.925
1802.53907	28303.725
1805.72514	28147.525
1808.90913	28060.025
1812.09102	28032.025
1815.27083	27971.025
1818.44856	27950.925
1821.6242	27881.725
1824.79776	27904.425
1827.96924	27852.825
1831.13864	27891.625
1834.30597	27852.625
1837.47122	27841.325
1840.6344	27847.725
1843.7955	27907.225
1846.95454	27899.725
1850.11151	27848.825
1853.26642	27825.425
1856.41926	27835.325
1859.57004	27828.125
1862.71876	27821.525
1865.86542	27752.525
1869.01003	27681.525
1872.15258	27619.425
1875.29308	27602.525
1878.43152	27596.425
1881.56792	27557.125
1884.70227	27559.025
1887.83457	27498.725
1890.96482	27487.225
1894.09304	27437.525
1897.21921	27422.125
1900.34335	27348.425
1903.46544	27277.425
1906.58551	27304.425
1909.70353	27221.225
1912.81953	27160.125
1915.93349	27073.125
1919.04543	27017.225
1922.15534	26937.925
1925.26322	26824.425
1928.36908	26787.425
1931.47292	26783.025
1934.57473	26647.825
1937.67453	26553.425
1940.77232	26480.625
1943.86808	26362.325
1946.96184	26305.825
1950.05358	26249.925
1953.14331	26223.825
1956.23103	26118.125
1959.31675	26024.225
1962.40046	25950.525
1965.48217	25870.325
1968.56188	25816.225
1971.63959	25708.925
1974.7153	25571.025
1977.78901	25525.225
1980.86073	25441.525
1983.93046	25350.925
1986.99819	25267.325
1990.06394	25233.425
1993.1277	25166.825
1996.18947	25136.125
1999.24925	25012.925
2002.30706	24918.125
2005.36288	24832.025
2008.41672	24750.925
2011.46859	24735.225
2014.51848	24673.325
2017.56639	24609.825
2020.61233	24537.125
2023.6563	24472.225
2026.6983	24463.325
2029.73833	24416.025
2032.7764	24362.725
2035.8125	24270.925
2038.84664	24285.725
2041.87881	24266.125
2044.90903	24172.525
2047.93729	24109.325
2050.96359	24113.625
2053.98794	24108.325
2057.01034	24097.025
2060.03078	24060.025
2063.04927	24059.625
2066.06582	24040.625
2069.08042	24027.025
2072.09307	24004.825
2075.10378	23965.525
2078.11255	23908.425
2081.11938	23911.825
2084.12426	23918.525
2087.12722	23900.725
2090.12824	23878.325
2093.12732	23876.925
2096.12447	23892.425
2099.11969	23900.125
2102.11299	23859.525
2105.10435	23886.625
2108.09379	23886.325
2111.08131	23898.225
2114.0669	23892.325
2117.05057	23914.325
2120.03233	23884.725
2123.01216	23883.825
2125.99008	23914.525
2128.96609	23950.725
2131.94018	23946.725
2134.91236	23952.325
2137.88263	23927.025
2140.851	23966.925
2143.81746	23979.325
2146.78201	23911.925
2149.74466	23953.925
2152.7054	23915.425
2155.66425	23905.925
2158.6212	23888.425
2161.57625	23872.825
2164.52941	23889.125
2167.48067	23865.325
2170.43004	23896.525
2173.37752	23887.525
2176.32311	23882.325
2179.26681	23883.925
2182.20863	23869.825
2185.14856	23906.425
2188.08661	23908.625
2191.02278	23928.925
2193.95707	23916.325
2196.88948	23905.125
2199.82001	23863.025
2202.74867	23833.825
2205.67545	23762.925
2208.60037	23753.025
2211.52341	23739.225
2214.44458	23713.025
2217.36388	23675.625
2220.28132	23654.025
2223.1969	23596.225
2226.11061	23535.325
2229.02246	23495.425
2231.93245	23517.825
2234.84058	23475.525
2237.74686	23436.325
2240.65128	23404.125
2243.55385	23360.525
2246.45456	23304.125
2249.35343	23201.125
2252.25044	23211.525
2255.14561	23161.525
2258.03893	23118.725
2260.93041	23054.125
2263.82004	22974.025
2266.70783	22931.225
2269.59378	22819.725
2272.4779	22769.925
2275.36017	22736.625
2278.24061	22682.625
2281.11922	22630.625
2283.996	22643.725
2286.87094	22628.725
2289.74405	22610.225
2292.61534	22597.925
2295.4848	22558.725
2298.35243	22557.325
2301.21824	22631.125
2304.08223	22608.125
2306.94439	22613.025
2309.80474	22653.725
2312.66327	22629.725
2315.51999	22618.925
2318.37489	22597.925
2321.22797	22597.425
2324.07925	22575.925
2326.92871	22533.225
2329.77637	22479.725
2332.62222	22460.025
2335.46626	22472.825
2338.3085	22458.925
2341.14893	22488.625
2343.98756	22530.125
2346.8244	22530.225
2349.65943	22545.125
2352.49267	22496.825
2355.32411	22497.425
2358.15376	22490.825
2360.98161	22456.525
2363.80768	22428.025
2366.63195	22432.625
2369.45444	22415.525
2372.27514	22373.025
2375.09405	22358.125
2377.91118	22283.325
2380.72652	22206.425
2383.54009	22212.025
2386.35187	22147.325
2389.16188	22075.525
2391.97011	22052.225
2394.77657	22053.225
2397.58125	22012.425
2400.38416	21975.625
2403.18529	21938.725
2405.98466	21965.225
2408.78226	21915.425
2411.57809	21898.625
2414.37216	21862.325
2417.16446	21857.925
2419.955	21825.225
2422.74378	21830.025
2425.5308	21811.125
2428.31606	21783.625
2431.09956	21756.325
2433.88131	21758.725
2436.6613	21766.425
2439.43954	21802.625
2442.21603	21748.825
2444.99077	21776.425
2447.76377	21745.225
2450.53501	21719.325
2453.30451	21700.525
2456.07226	21693.225
2458.83827	21741.725
2461.60254	21755.525
2464.36507	21719.425
2467.12586	21749.525
2469.88492	21734.625
2472.64224	21738.625
2475.39782	21819.825
2478.15167	21835.225
2480.90379	21813.025
2483.65417	21878.925
2486.40283	21866.625
2489.14976	21862.225
2491.89497	21819.525
2494.63845	21885.725
2497.3802	21848.825
2500.12024	21899.825
2502.85855	21850.425
2505.59514	21872.725
2508.33002	21843.225
2511.06318	21839.425
2513.79462	21817.925
2516.52435	21836.125
2519.25237	21876.225
2521.97867	21836.225
2524.70327	21799.625
2527.42616	21789.325
2530.14734	21831.525
2532.86681	21817.525
2535.58458	21856.525
2538.30065	21817.625
2541.01501	21800.225
2543.72768	21790.525
2546.43864	21754.525
2549.14791	21737.625
2551.85548	21731.625
2554.56136	21752.825
2557.26554	21692.225
2559.96803	21714.125
2562.66883	21688.225
2565.36794	21651.025
2568.06536	21701.225
2570.7611	21632.225
2573.45514	21668.825
2576.14751	21652.125
2578.83819	21646.025
2581.52719	21642.425
2584.21451	21664.225
2586.90015	21664.225
2589.58411	21668.025
2592.2664	21669.425
2594.94701	21637.525
2597.62594	21649.725
2600.30321	21629.525
2602.9788	21634.425
2605.65273	21627.425
2608.32498	21673.625
2610.99557	21688.425
2613.66449	21686.125
2616.33175	21698.425
2618.99734	21695.925
2621.66128	21652.325
2624.32355	21633.725
2626.98416	21623.925
2629.64311	21632.025
2632.30041	21639.325
2634.95605	21623.525
2637.61004	21591.925
2640.26238	21611.025
2642.91306	21602.525
2645.56209	21584.125
2648.20948	21611.625
2650.85521	21642.525
2653.4993	21691.625
2656.14175	21607.225
2658.78255	21664.125
2661.42171	21703.125
2664.05923	21749.625
2666.6951	21718.925
2669.32934	21791.125
2671.96194	21795.725
2674.59291	21793.125
2677.22224	21778.925
2679.84993	21817.325
2682.476	21797.425
2685.10043	21744.325
2687.72324	21726.925
2690.34441	21706.825
2692.96396	21718.225
2695.58188	21717.925
2698.19818	21678.925
2700.81285	21733.125
2703.4259	21715.625
2706.03733	21808.825
2708.64714	21773.825
2711.25533	21805.025
2713.86191	21811.225
2716.46687	21815.125
2719.07021	21815.625
2721.67194	21883.825
2724.27206	21905.625
2726.87057	21950.225
2729.46747	21979.525
2732.06276	22023.625
2734.65644	21972.125
2737.24852	22001.925
2739.83899	21958.325
2742.42786	21958.125
2745.01513	21946.125
2747.60079	21963.125
2750.18486	21948.925
2752.76733	21930.625
2755.3482	21909.925
2757.92747	21907.025
2760.50515	21918.925
2763.08123	21932.025
2765.65573	21928.725
2768.22863	21924.925
2770.79994	21907.425
2773.36967	21946.625
2775.9378	21896.325
2778.50435	21912.125
2781.06932	21964.525
2783.6327	21944.025
2786.1945	21914.525
2788.75471	21992.225
2791.31335	21944.525
2793.87041	21890.725
2796.42589	21829.325
2798.97979	21859.725
2801.53212	21831.725
2804.08288	21754.925
2806.63206	21696.025
2809.17967	21651.625
2811.72571	21582.625
2814.27018	21598.825
2816.81308	21551.925
2819.35442	21526.725
2821.89419	21483.225
2824.43239	21467.225
2826.96904	21500.025
2829.50412	21477.625
2832.03763	21406.425
2834.56959	21391.325
2837.1	21376.025
2839.62884	21362.725
2842.15613	21379.325
2844.68186	21411.425
2847.20604	21452.525
2849.72867	21458.625
2852.24974	21433.925
2854.76927	21458.625
2857.28724	21436.625
2859.80367	21395.725
2862.31855	21330.125
2864.83189	21356.825
2867.34368	21274.925
2869.85393	21264.225
2872.36264	21255.625
2874.8698	21226.725
2877.37543	21215.525
2879.87952	21232.525
2882.38207	21260.025
2884.88308	21228.025
2887.38256	21268.225
2889.88051	21288.025
2892.37692	21265.525
2894.8718	21310.125
2897.36515	21357.125
2899.85698	21369.525
2902.34727	21396.725
2904.83604	21454.625
2907.32328	21478.125
2909.809	21413.425
2912.29319	21468.725
2914.77587	21451.825
2917.25702	21466.625
2919.73665	21464.525
2922.21476	21460.025
2924.69136	21454.025
2927.16644	21415.125
2929.64	21362.625
2932.11205	21357.225
2934.58258	21300.225
2937.05161	21309.725
2939.51912	21283.625
2941.98513	21289.225
2944.44962	21238.525
2946.91261	21140.725
2949.37409	21155.525
2951.83407	21156.225
2954.29254	21127.925
2956.74951	21086.825
2959.20498	21063.325
2961.65895	21051.725
2964.11142	21055.225
2966.56239	21011.025
2969.01186	20966.025
2971.45984	20926.725
2973.90632	20923.025
2976.35131	20880.525
2978.7948	20814.525
2981.23681	20771.325
2983.67732	20737.325
2986.11635	20669.825
2988.55388	20630.925
2990.98993	20557.625
2993.4245	20479.325
2995.85758	20445.625
2998.28917	20391.125
3000.71928	20349.525
3003.14791	20298.625
3005.57506	20291.925
3008.00073	20225.125
3010.42493	20194.825
3012.84764	20185.025
3015.26888	20132.425
3017.68865	20076.025
3020.10694	20059.125
3022.52376	20023.825
3024.9391	20005.525
3027.35298	19979.725
3029.76539	19949.525
3032.17632	19973.625
3034.5858	19928.325
3036.9938	19889.025
3039.40034	19877.225
3041.80542	19866.725
3044.20903	19828.725
3046.61118	19822.425
3049.01187	19789.425
3051.4111	19831.325
3053.80888	19746.925
3056.20519	19715.425
3058.60005	19667.925
3060.99345	19637.625
3063.3854	19503.925
3065.7759	19477.225
3068.16494	19442.425
3070.55254	19355.325
3072.93868	19268.625
3075.32338	19211.025
3077.70662	19187.325
3080.08842	19122.625
3082.46878	19105.825
3084.84769	19054.225
3087.22515	19029.725
3089.60118	19059.425
3091.97576	19012.725
3094.3489	19006.925
3096.72061	18981.825
3099.09087	18974.425
3101.4597	18977.525
3103.82709	18982.725
3106.19305	18914.725
3108.55757	18886.125
3110.92066	18829.325
3113.28232	18824.225
3115.64255	18752.025
3118.00134	18697.825
3120.35871	18718.425
3122.71466	18668.725
3125.06917	18574.725
3127.42226	18535.425
3129.77393	18549.025
3132.12417	18471.625
3134.47299	18476.625
3136.82039	18436.825
3139.16636	18453.225
3141.51092	18429.625
3143.85406	18406.925
3146.19579	18437.925
3148.53609	18419.325
3150.87499	18424.925
3153.21246	18366.325
3155.54853	18354.025
3157.88318	18369.525
3160.21642	18385.225
3162.54826	18347.625
3164.87868	18352.325
3167.2077	18353.225
3169.5353	18319.025
3171.86151	18318.225
3174.18631	18316.925
3176.5097	18332.825
3178.83169	18293.925
3181.15228	18296.225
3183.47147	18217.125
3185.78926	18214.925
3188.10565	18154.725
3190.42065	18182.625
3192.73424	18146.725
3195.04645	18131.325
3197.35725	18065.125
3199.66667	18040.625
3201.97469	18032.725
3204.28132	18017.625
3206.58656	18016.225
3208.8904	18015.025
3211.19287	18007.425
3213.49394	18035.025
3215.79363	18027.225
3218.09193	18020.425
3220.38884	18014.625
3222.68438	18020.125
3224.97853	18016.925
3227.2713	17977.225
3229.56269	17954.825
3231.8527	17958.725
3234.14133	17932.425
3236.42858	17893.025
3238.71446	17890.825
3240.99896	17859.225
3243.28209	17829.025
3245.56384	17798.825
3247.84423	17756.325
3250.12324	17739.825
3252.40088	17713.925
3254.67715	17709.525
3256.95205	17686.325
3259.22558	17627.525
3261.49775	17580.925
3263.76855	17570.325
3266.03799	17523.725
3268.30606	17486.825
3270.57277	17457.625
3272.83812	17446.225
3275.10211	17380.025
3277.36474	17384.325
3279.62601	17392.625
3281.88593	17367.225
3284.14448	17386.225
3286.40168	17359.525
3288.65753	17365.625
3290.91202	17361.025
3293.16516	17337.125
3295.41695	17275.925
3297.66738	17185.425
3299.91647	17107.225
3302.16421	16979.225
3304.4106	16887.225
3306.65564	16760.125
3308.89933	16634.925
3311.14169	16486.125
3313.38269	16377.525
3315.62236	16265.225
3317.86068	16137.725
3320.09766	15998.225
3322.3333	15901.525
3324.5676	15788.825
3326.80056	15569.025
3329.03219	15454.525
3331.26248	4.425
3333.49143	-0.775
3335.71905	-0.375
