Data from AgNPs_FTO_APTES_UA_5uM_CRN_2uM_R6G_10uM_NaF_0.1M_Addition_RamanShift__25__11-26-06-644.txt Node

Date: Mon Feb 07 11:26:06 GMT 2022
User: TCL
Spectrometer: QEP01345
Trigger mode: 4
Integration Time (sec): 7.000000E0
Scans to average: 10
Electric dark correction enabled: true
Nonlinearity correction enabled: false
Boxcar width: 0
XAxis mode: Raman Shifts
Number of Pixels in Spectrum: 1044
>>>>>Begin Spectral Data<<<<<
46.04893	0.2375
50.45542	-1.4625
54.85868	-1.4625
59.25871	-0.6625
63.6555	98.3375
68.04907	99.1375
72.43941	108.7375
76.82654	109.3375
81.21044	112.2375
85.59113	114.9375
89.96862	125.3375
94.34289	122.6375
98.71396	129.6375
103.08183	130.7375
107.4465	138.7375
111.80798	138.9375
116.16626	145.2375
120.52136	153.5375
124.87327	162.0375
129.222	168.5375
133.56755	182.3375
137.90993	195.4375
142.24913	211.7375
146.58517	246.4375
150.91804	283.5375
155.24774	341.1375
159.57429	428.7375
163.89768	558.3375
168.21792	749.9375
172.53501	1012.7375
176.84895	1410.6375
181.15975	1985.0375
185.46741	2781.4375
189.77193	3845.6375
194.07331	5151.8375
198.37157	6640.8375
202.6667	8172.0375
206.9587	9752.9375
211.24758	11288.9375
215.53334	12897.6375
219.81599	14628.1375
224.09553	16636.2375
228.37195	18853.9375
232.64527	21218.1375
236.91549	23629.6375
241.18261	25902.2375
245.44663	27915.0375
249.70755	29639.0375
253.96539	31083.4375
258.22014	32402.5375
262.4718	33536.4375
266.72039	34404.6375
270.96589	34902.4375
275.20832	35072.9375
279.44768	34928.3375
283.68397	34747.6375
287.91719	34693.8375
292.14735	34759.8375
296.37445	35099.9375
300.59849	35683.3375
304.81948	36519.2375
309.03742	36998.5375
313.25231	36659.3375
317.46415	35240.8375
321.67296	33092.9375
325.87872	31262.7375
330.08145	30316.3375
334.28114	30200.1375
338.47781	30546.0375
342.67145	31220.1375
346.86207	32226.3375
351.04966	33599.4375
355.23424	35231.8375
359.4158	36392.9375
363.59435	37051.7375
367.76989	37186.9375
371.94243	37102.4375
376.11196	36963.9375
380.27849	36809.4375
384.44203	36622.8375
388.60257	36388.1375
392.76012	36469.9375
396.91468	36958.9375
401.06626	37916.4375
405.21485	38651.2375
409.36047	38269.1375
413.50311	36914.1375
417.64277	35670.4375
421.77947	35129.2375
425.9132	35008.0375
430.04396	35092.5375
434.17176	35229.8375
438.2966	35659.9375
442.41849	36338.4375
446.53742	37367.6375
450.6534	38576.5375
454.76644	39468.9375
458.87653	39755.1375
462.98368	39576.4375
467.08789	38961.9375
471.18916	38171.4375
475.2875	37365.8375
479.38291	36745.0375
483.4754	36327.9375
487.56496	35882.2375
491.6516	35400.5375
495.73531	35090.5375
499.81612	35001.5375
503.89401	35272.0375
507.96899	35446.0375
512.04106	35518.8375
516.11023	35512.2375
520.1765	35400.9375
524.23987	35096.8375
528.30034	34536.8375
532.35792	33924.0375
536.41261	33293.7375
540.46441	32636.9375
544.51333	32519.5375
548.55936	33000.0375
552.60252	34009.1375
556.64279	35013.5375
560.6802	35655.1375
564.71473	36173.1375
568.7464	37453.0375
572.7752	38748.3375
576.80114	38771.2375
580.82422	38499.6375
584.84444	38469.6375
588.86181	38492.3375
592.87633	38756.9375
596.888	39220.6375
600.89682	40078.5375
604.9028	43077.3375
608.90594	51095.7375
612.90624	61100.2375
616.90371	58045.5375
620.89834	43157.6375
624.89015	36362.0375
628.87913	35341.0375
632.86528	35443.1375
636.84862	35389.9375
640.82913	34512.9375
644.80683	32982.2375
648.78172	31868.4375
652.75379	31811.5375
656.72306	32791.1375
660.68952	34148.2375
664.65319	34121.4375
668.61405	32984.5375
672.57211	32285.3375
676.52738	32199.3375
680.47986	32131.7375
684.42955	31880.9375
688.37646	31734.2375
692.32058	31951.7375
696.26192	32343.1375
700.20048	32811.4375
704.13626	33250.1375
708.06928	33262.2375
711.99952	32957.3375
715.927	32719.3375
719.85171	32653.7375
723.77365	32535.6375
727.69284	32037.4375
731.60928	31606.2375
735.52295	31483.7375
739.43388	31609.0375
743.34206	31873.0375
747.24749	32103.3375
751.15017	32523.3375
755.05012	33324.6375
758.94733	34908.4375
762.8418	38092.5375
766.73354	43466.5375
770.62254	48839.4375
774.50882	50606.5375
778.39237	47579.2375
782.27321	41994.8375
786.15132	37001.1375
790.02671	33928.1375
793.89938	32615.7375
797.76935	32036.6375
801.6366	31801.1375
805.50115	31502.4375
809.36299	31343.7375
813.22213	31127.6375
817.07857	30998.5375
820.93231	31013.1375
824.78336	31040.7375
828.63172	31118.6375
832.47738	31149.3375
836.32036	31217.8375
840.16066	31200.7375
843.99827	31265.5375
847.8332	31094.5375
851.66546	30946.3375
855.49504	30845.9375
859.32195	30814.4375
863.1462	30590.8375
866.96777	30374.0375
870.78668	30336.0375
874.60293	30319.9375
878.41652	30366.8375
882.22745	30508.2375
886.03573	30634.7375
889.84136	30631.9375
893.64433	30399.8375
897.44466	30315.1375
901.24235	30262.5375
905.0374	30137.3375
908.8298	30131.6375
912.61957	30143.6375
916.40671	30494.1375
920.19121	31046.1375
923.97308	31596.7375
927.75233	31926.1375
931.52895	31964.5375
935.30295	31436.1375
939.07433	30505.4375
942.84309	29777.6375
946.60924	29405.9375
950.37278	29163.9375
954.13371	29011.6375
957.89203	28754.4375
961.64774	28648.3375
965.40086	28604.9375
969.15137	28510.7375
972.89929	28414.2375
976.64461	28353.6375
980.38733	28401.6375
984.12747	28553.3375
987.86502	28903.9375
991.59999	29303.2375
995.33237	29965.9375
999.06217	31136.6375
1002.78939	32531.3375
1006.51404	33668.2375
1010.23611	34285.9375
1013.95561	34731.5375
1017.67255	34678.0375
1021.38692	34157.7375
1025.09872	33693.8375
1028.80796	33906.2375
1032.51465	34967.1375
1036.21877	36057.4375
1039.92035	36199.0375
1043.61937	35623.6375
1047.31584	34458.9375
1051.00976	33399.3375
1054.70114	32779.7375
1058.38998	32680.3375
1062.07627	32850.0375
1065.76003	33151.0375
1069.44126	33419.2375
1073.11995	33865.8375
1076.79611	34276.4375
1080.46974	34595.2375
1084.14085	35172.8375
1087.80943	35918.2375
1091.47549	36358.4375
1095.13903	36022.5375
1098.80005	35049.5375
1102.45857	33886.7375
1106.11456	33166.6375
1109.76805	33012.7375
1113.41903	33404.5375
1117.06751	34078.9375
1120.71348	35010.2375
1124.35696	36025.1375
1127.99793	36982.4375
1131.63641	37110.2375
1135.2724	36178.0375
1138.90589	35120.8375
1142.5369	34478.8375
1146.16542	34049.7375
1149.79145	33954.2375
1153.415	34158.8375
1157.03607	34754.2375
1160.65467	35626.0375
1164.27079	37118.3375
1167.88443	39397.3375
1171.49561	42762.0375
1175.10432	47699.0375
1178.71056	53982.3375
1182.31434	59230.5375
1185.91565	61760.4375
1189.51451	61546.8375
1193.11091	58791.5375
1196.70485	54795.6375
1200.29634	51166.6375
1203.88538	48312.4375
1207.47197	45640.6375
1211.05612	43444.1375
1214.63782	42296.7375
1218.21708	41932.6375
1221.79391	42124.0375
1225.36829	42483.0375
1228.94024	42530.9375
1232.50976	42263.4375
1236.07685	41873.9375
1239.6415	41560.7375
1243.20374	41159.0375
1246.76355	41117.8375
1250.32093	41700.5375
1253.8759	42860.6375
1257.42845	44443.1375
1260.97859	46044.5375
1264.52631	47462.2375
1268.07163	48933.0375
1271.61453	50523.0375
1275.15503	52280.8375
1278.69312	53851.6375
1282.22882	55160.6375
1285.76211	56653.4375
1289.29301	58357.3375
1292.82151	60197.5375
1296.34761	62518.3375
1299.87133	65775.5375
1303.39266	70568.4375
1306.9116	77285.5375
1310.42815	84787.6375
1313.94233	89926.4375
1317.45412	90233.2375
1320.96354	87140.4375
1324.47058	83003.4375
1327.97525	79174.5375
1331.47754	76505.9375
1334.97747	75241.7375
1338.47502	74970.0375
1341.97022	75261.4375
1345.46305	75412.7375
1348.95352	75337.6375
1352.44163	76035.4375
1355.92738	78892.8375
1359.41078	85536.5375
1362.89183	92677.3375
1366.37053	91120.0375
1369.84688	80711.6375
1373.32088	69489.0375
1376.79254	62008.6375
1380.26186	58503.8375
1383.72883	57003.4375
1387.19347	55895.8375
1390.65578	54850.8375
1394.11575	54325.1375
1397.57339	54852.3375
1401.0287	55987.6375
1404.48168	57294.7375
1407.93234	58326.2375
1411.38068	58465.4375
1414.82669	57453.7375
1418.27039	55211.6375
1421.71177	52623.2375
1425.15083	50558.4375
1428.58758	49260.7375
1432.02203	49142.8375
1435.45416	49607.0375
1438.88399	50199.4375
1442.31151	50744.6375
1445.73673	51403.1375
1449.15965	52100.8375
1452.58027	52523.6375
1455.9986	52616.7375
1459.41463	52747.8375
1462.82837	53452.8375
1466.23982	54458.5375
1469.64898	55498.3375
1473.05586	56171.5375
1476.46045	56373.5375
1479.86276	56530.2375
1483.26279	57052.3375
1486.66054	57775.1375
1490.05602	58722.0375
1493.44922	60156.9375
1496.84016	62058.8375
1500.22882	64804.6375
1503.61521	68844.4375
1506.99934	73885.0375
1510.38121	79257.4375
1513.76081	82104.9375
1517.13816	80357.4375
1520.51324	74591.5375
1523.88607	68125.0375
1527.25665	63405.6375
1530.62498	60518.5375
1533.99105	58682.9375
1537.35488	57483.0375
1540.71647	56583.4375
1544.07581	55727.3375
1547.4329	54857.2375
1550.78776	53989.5375
1554.14038	53496.4375
1557.49077	53526.9375
1560.83892	53989.2375
1564.18484	54600.9375
1567.52853	55108.0375
1570.86999	55296.0375
1574.20922	55566.5375
1577.54624	55566.4375
1580.88103	54496.1375
1584.2136	53145.5375
1587.54395	53633.3375
1590.87208	56208.6375
1594.19801	60411.6375
1597.52172	64925.1375
1600.84321	66618.1375
1604.16251	63774.9375
1607.47959	58481.5375
1610.79447	52885.5375
1614.10715	47766.4375
1617.41763	43846.8375
1620.7259	41181.6375
1624.03199	39898.4375
1627.33587	39887.1375
1630.63757	41250.6375
1633.93707	44056.0375
1637.23439	48304.0375
1640.52951	53830.8375
1643.82246	60065.3375
1647.11321	65612.8375
1650.40179	68261.7375
1653.68819	65101.0375
1656.97241	56854.0375
1660.25446	47597.8375
1663.53433	40577.9375
1666.81203	36137.7375
1670.08756	33488.0375
1673.36092	31892.9375
1676.63211	30799.6375
1679.90115	30098.8375
1683.16801	29551.5375
1686.43272	29133.1375
1689.69527	28791.2375
1692.95567	28624.7375
1696.2139	28487.7375
1699.46999	28356.8375
1702.72392	28296.2375
1705.97571	28225.9375
1709.22535	28160.5375
1712.47284	28136.5375
1715.71819	28135.2375
1718.96139	28092.1375
1722.20246	27997.5375
1725.44139	27908.5375
1728.67818	27743.6375
1731.91284	27532.7375
1735.14537	27396.1375
1738.37576	27207.7375
1741.60403	27105.5375
1744.83017	26982.6375
1748.05418	26878.0375
1751.27607	26839.2375
1754.49584	26810.4375
1757.71349	26770.6375
1760.92903	26787.6375
1764.14244	26707.4375
1767.35375	26730.2375
1770.56294	26691.2375
1773.77002	26583.1375
1776.97499	26543.7375
1780.17785	26454.7375
1783.37861	26435.3375
1786.57727	26387.2375
1789.77382	26351.4375
1792.96828	26369.9375
1796.16064	26334.4375
1799.3509	26279.4375
1802.53907	26253.1375
1805.72514	26163.3375
1808.90913	26072.9375
1812.09102	26025.1375
1815.27083	25985.3375
1818.44856	25953.7375
1821.6242	25860.5375
1824.79776	25885.5375
1827.96924	25862.7375
1831.13864	25839.2375
1834.30597	25811.7375
1837.47122	25843.4375
1840.6344	25800.1375
1843.7955	25862.7375
1846.95454	25891.5375
1850.11151	25896.0375
1853.26642	25900.0375
1856.41926	25906.4375
1859.57004	25940.0375
1862.71876	25971.0375
1865.86542	25988.8375
1869.01003	26042.0375
1872.15258	26022.0375
1875.29308	26040.4375
1878.43152	26077.0375
1881.56792	26143.7375
1884.70227	26157.9375
1887.83457	26197.2375
1890.96482	26168.0375
1894.09304	26212.8375
1897.21921	26218.3375
1900.34335	26242.9375
1903.46544	26265.1375
1906.58551	26287.2375
1909.70353	26310.0375
1912.81953	26240.0375
1915.93349	26284.4375
1919.04543	26249.7375
1922.15534	26226.7375
1925.26322	26103.4375
1928.36908	26030.2375
1931.47292	25881.5375
1934.57473	25723.1375
1937.67453	25616.2375
1940.77232	25434.7375
1943.86808	25278.1375
1946.96184	25116.1375
1950.05358	25046.4375
1953.14331	24924.1375
1956.23103	24796.1375
1959.31675	24701.4375
1962.40046	24624.0375
1965.48217	24554.8375
1968.56188	24517.8375
1971.63959	24378.6375
1974.7153	24296.9375
1977.78901	24209.4375
1980.86073	24161.2375
1983.93046	24061.6375
1986.99819	23981.4375
1990.06394	23897.0375
1993.1277	23865.2375
1996.18947	23768.5375
1999.24925	23655.4375
2002.30706	23606.7375
2005.36288	23519.1375
2008.41672	23466.9375
2011.46859	23415.0375
2014.51848	23394.6375
2017.56639	23305.2375
2020.61233	23234.9375
2023.6563	23173.4375
2026.6983	23139.3375
2029.73833	23095.2375
2032.7764	23026.1375
2035.8125	22963.8375
2038.84664	22958.4375
2041.87881	22938.7375
2044.90903	22913.5375
2047.93729	22843.1375
2050.96359	22810.5375
2053.98794	22808.3375
2057.01034	22783.3375
2060.03078	22758.4375
2063.04927	22783.8375
2066.06582	22742.7375
2069.08042	22724.0375
2072.09307	22665.4375
2075.10378	22649.6375
2078.11255	22626.0375
2081.11938	22651.3375
2084.12426	22591.7375
2087.12722	22577.2375
2090.12824	22575.1375
2093.12732	22558.7375
2096.12447	22566.0375
2099.11969	22576.0375
2102.11299	22563.2375
2105.10435	22511.7375
2108.09379	22565.7375
2111.08131	22571.6375
2114.0669	22558.9375
2117.05057	22584.2375
2120.03233	22580.6375
2123.01216	22629.3375
2125.99008	22599.9375
2128.96609	22638.9375
2131.94018	22667.9375
2134.91236	22698.6375
2137.88263	22714.7375
2140.851	22699.2375
2143.81746	22742.9375
2146.78201	22681.6375
2149.74466	22709.1375
2152.7054	22700.1375
2155.66425	22666.4375
2158.6212	22626.7375
2161.57625	22599.4375
2164.52941	22658.3375
2167.48067	22654.3375
2170.43004	22604.0375
2173.37752	22602.8375
2176.32311	22594.5375
2179.26681	22630.1375
2182.20863	22588.8375
2185.14856	22609.6375
2188.08661	22630.0375
2191.02278	22655.9375
2193.95707	22654.2375
2196.88948	22619.7375
2199.82001	22603.2375
2202.74867	22575.2375
2205.67545	22579.7375
2208.60037	22540.3375
2211.52341	22560.1375
2214.44458	22539.1375
2217.36388	22501.0375
2220.28132	22501.1375
2223.1969	22409.1375
2226.11061	22384.5375
2229.02246	22357.5375
2231.93245	22305.6375
2234.84058	22230.7375
2237.74686	22181.3375
2240.65128	22195.3375
2243.55385	22149.7375
2246.45456	22139.1375
2249.35343	22094.1375
2252.25044	22094.2375
2255.14561	22033.8375
2258.03893	22008.9375
2260.93041	21999.8375
2263.82004	21966.8375
2266.70783	21877.0375
2269.59378	21803.6375
2272.4779	21759.2375
2275.36017	21670.0375
2278.24061	21668.3375
2281.11922	21610.7375
2283.996	21590.2375
2286.87094	21560.6375
2289.74405	21574.1375
2292.61534	21523.0375
2295.4848	21513.8375
2298.35243	21512.2375
2301.21824	21485.5375
2304.08223	21514.2375
2306.94439	21544.2375
2309.80474	21593.8375
2312.66327	21637.0375
2315.51999	21636.7375
2318.37489	21558.2375
2321.22797	21557.9375
2324.07925	21540.3375
2326.92871	21529.4375
2329.77637	21520.0375
2332.62222	21485.7375
2335.46626	21514.5375
2338.3085	21529.3375
2341.14893	21557.9375
2343.98756	21537.8375
2346.8244	21620.9375
2349.65943	21637.3375
2352.49267	21631.3375
2355.32411	21654.5375
2358.15376	21637.0375
2360.98161	21622.9375
2363.80768	21581.5375
2366.63195	21578.0375
2369.45444	21534.3375
2372.27514	21507.4375
2375.09405	21484.5375
2377.91118	21407.1375
2380.72652	21346.9375
2383.54009	21239.2375
2386.35187	21214.9375
2389.16188	21162.5375
2391.97011	21095.3375
2394.77657	21096.2375
2397.58125	21025.8375
2400.38416	20990.8375
2403.18529	20926.9375
2405.98466	20932.5375
2408.78226	20874.6375
2411.57809	20810.1375
2414.37216	20771.2375
2417.16446	20783.4375
2419.955	20746.7375
2422.74378	20718.3375
2425.5308	20684.6375
2428.31606	20666.5375
2431.09956	20650.1375
2433.88131	20647.8375
2436.6613	20686.3375
2439.43954	20720.2375
2442.21603	20684.5375
2444.99077	20679.3375
2447.76377	20662.1375
2450.53501	20659.7375
2453.30451	20629.2375
2456.07226	20617.8375
2458.83827	20632.3375
2461.60254	20659.6375
2464.36507	20636.3375
2467.12586	20611.9375
2469.88492	20580.6375
2472.64224	20627.4375
2475.39782	20667.0375
2478.15167	20697.0375
2480.90379	20706.2375
2483.65417	20738.8375
2486.40283	20759.5375
2489.14976	20820.0375
2491.89497	20837.0375
2494.63845	20872.0375
2497.3802	20878.1375
2500.12024	20891.7375
2502.85855	20868.4375
2505.59514	20844.6375
2508.33002	20799.5375
2511.06318	20769.6375
2513.79462	20684.1375
2516.52435	20666.1375
2519.25237	20658.0375
2521.97867	20568.7375
2524.70327	20576.8375
2527.42616	20509.7375
2530.14734	20569.2375
2532.86681	20559.9375
2535.58458	20591.4375
2538.30065	20529.3375
2541.01501	20536.2375
2543.72768	20548.1375
2546.43864	20494.0375
2549.14791	20478.6375
2551.85548	20472.3375
2554.56136	20438.8375
2557.26554	20406.7375
2559.96803	20418.8375
2562.66883	20441.4375
2565.36794	20371.9375
2568.06536	20350.8375
2570.7611	20305.4375
2573.45514	20331.2375
2576.14751	20332.5375
2578.83819	20272.5375
2581.52719	20301.4375
2584.21451	20320.5375
2586.90015	20392.1375
2589.58411	20315.6375
2592.2664	20314.6375
2594.94701	20313.6375
2597.62594	20289.9375
2600.30321	20260.0375
2602.9788	20287.1375
2605.65273	20271.6375
2608.32498	20316.0375
2610.99557	20348.8375
2613.66449	20329.5375
2616.33175	20301.2375
2618.99734	20373.9375
2621.66128	20337.3375
2624.32355	20351.2375
2626.98416	20362.3375
2629.64311	20340.8375
2632.30041	20365.5375
2634.95605	20328.0375
2637.61004	20316.0375
2640.26238	20233.9375
2642.91306	20260.5375
2645.56209	20232.2375
2648.20948	20195.7375
2650.85521	20193.3375
2653.4993	20196.1375
2656.14175	20174.3375
2658.78255	20170.5375
2661.42171	20207.2375
2664.05923	20230.8375
2666.6951	20249.0375
2669.32934	20294.8375
2671.96194	20308.3375
2674.59291	20313.3375
2677.22224	20306.7375
2679.84993	20351.2375
2682.476	20328.5375
2685.10043	20330.7375
2687.72324	20247.9375
2690.34441	20209.3375
2692.96396	20245.5375
2695.58188	20220.1375
2698.19818	20189.4375
2700.81285	20189.1375
2703.4259	20197.1375
2706.03733	20260.1375
2708.64714	20199.1375
2711.25533	20191.3375
2713.86191	20185.9375
2716.46687	20209.6375
2719.07021	20260.4375
2721.67194	20276.1375
2724.27206	20272.1375
2726.87057	20275.3375
2729.46747	20296.9375
2732.06276	20279.4375
2734.65644	20269.2375
2737.24852	20282.2375
2739.83899	20223.1375
2742.42786	20213.6375
2745.01513	20198.7375
2747.60079	20218.2375
2750.18486	20219.1375
2752.76733	20218.7375
2755.3482	20184.7375
2757.92747	20176.5375
2760.50515	20123.4375
2763.08123	20114.2375
2765.65573	20093.1375
2768.22863	20087.6375
2770.79994	20121.8375
2773.36967	20108.2375
2775.9378	20147.4375
2778.50435	20130.2375
2781.06932	20119.0375
2783.6327	20124.3375
2786.1945	20144.8375
2788.75471	20135.6375
2791.31335	20069.0375
2793.87041	20043.7375
2796.42589	19990.9375
2798.97979	19972.2375
2801.53212	19964.8375
2804.08288	19936.4375
2806.63206	19904.7375
2809.17967	19858.9375
2811.72571	19847.0375
2814.27018	19804.3375
2816.81308	19784.1375
2819.35442	19774.3375
2821.89419	19783.2375
2824.43239	19811.2375
2826.96904	19824.1375
2829.50412	19802.1375
2832.03763	19759.8375
2834.56959	19724.2375
2837.1	19728.3375
2839.62884	19733.6375
2842.15613	19745.7375
2844.68186	19816.4375
2847.20604	19799.4375
2849.72867	19840.3375
2852.24974	19831.1375
2854.76927	19822.4375
2857.28724	19835.8375
2859.80367	19801.8375
2862.31855	19784.7375
2864.83189	19730.7375
2867.34368	19706.7375
2869.85393	19713.3375
2872.36264	19626.1375
2874.8698	19650.6375
2877.37543	19678.2375
2879.87952	19700.0375
2882.38207	19659.3375
2884.88308	19662.7375
2887.38256	19647.6375
2889.88051	19643.4375
2892.37692	19658.9375
2894.8718	19647.2375
2897.36515	19673.9375
2899.85698	19696.8375
2902.34727	19731.9375
2904.83604	19723.7375
2907.32328	19766.0375
2909.809	19778.2375
2912.29319	19772.4375
2914.77587	19780.6375
2917.25702	19798.1375
2919.73665	19782.1375
2922.21476	19764.6375
2924.69136	19713.7375
2927.16644	19719.8375
2929.64	19639.3375
2932.11205	19606.0375
2934.58258	19545.3375
2937.05161	19553.5375
2939.51912	19559.8375
2941.98513	19517.3375
2944.44962	19451.5375
2946.91261	19372.9375
2949.37409	19362.2375
2951.83407	19377.0375
2954.29254	19318.9375
2956.74951	19271.5375
2959.20498	19298.5375
2961.65895	19243.3375
2964.11142	19205.1375
2966.56239	19158.7375
2969.01186	19159.7375
2971.45984	19117.8375
2973.90632	19100.8375
2976.35131	19022.2375
2978.7948	18985.8375
2981.23681	18927.6375
2983.67732	18931.7375
2986.11635	18854.7375
2988.55388	18835.7375
2990.98993	18769.0375
2993.4245	18730.3375
2995.85758	18652.5375
2998.28917	18619.0375
3000.71928	18608.1375
3003.14791	18583.2375
3005.57506	18562.9375
3008.00073	18512.7375
3010.42493	18530.8375
3012.84764	18505.2375
3015.26888	18449.5375
3017.68865	18404.3375
3020.10694	18383.1375
3022.52376	18321.0375
3024.9391	18317.7375
3027.35298	18253.8375
3029.76539	18258.4375
3032.17632	18233.4375
3034.5858	18190.7375
3036.9938	18179.9375
3039.40034	18138.6375
3041.80542	18158.9375
3044.20903	18115.2375
3046.61118	18124.6375
3049.01187	18064.5375
3051.4111	18029.6375
3053.80888	17991.9375
3056.20519	17955.5375
3058.60005	17896.6375
3060.99345	17858.3375
3063.3854	17796.0375
3065.7759	17709.6375
3068.16494	17657.3375
3070.55254	17620.2375
3072.93868	17583.6375
3075.32338	17506.8375
3077.70662	17443.6375
3080.08842	17419.3375
3082.46878	17389.8375
3084.84769	17342.5375
3087.22515	17350.2375
3089.60118	17310.1375
3091.97576	17315.3375
3094.3489	17312.9375
3096.72061	17300.6375
3099.09087	17293.1375
3101.4597	17254.9375
3103.82709	17261.2375
3106.19305	17183.0375
3108.55757	17179.7375
3110.92066	17130.8375
3113.28232	17117.6375
3115.64255	17077.0375
3118.00134	17044.9375
3120.35871	17056.4375
3122.71466	16988.0375
3125.06917	16925.9375
3127.42226	16887.5375
3129.77393	16879.5375
3132.12417	16833.1375
3134.47299	16832.3375
3136.82039	16817.9375
3139.16636	16819.9375
3141.51092	16817.2375
3143.85406	16786.2375
3146.19579	16772.8375
3148.53609	16805.0375
3150.87499	16824.1375
3153.21246	16798.2375
3155.54853	16847.3375
3157.88318	16800.3375
3160.21642	16805.1375
3162.54826	16807.8375
3164.87868	16780.0375
3167.2077	16787.3375
3169.5353	16792.8375
3171.86151	16767.5375
3174.18631	16743.8375
3176.5097	16752.6375
3178.83169	16715.4375
3181.15228	16728.4375
3183.47147	16674.7375
3185.78926	16671.0375
3188.10565	16639.5375
3190.42065	16628.8375
3192.73424	16586.7375
3195.04645	16613.3375
3197.35725	16597.4375
3199.66667	16561.5375
3201.97469	16572.0375
3204.28132	16600.8375
3206.58656	16606.2375
3208.8904	16595.7375
3211.19287	16611.9375
3213.49394	16634.6375
3215.79363	16641.7375
3218.09193	16619.6375
3220.38884	16596.7375
3222.68438	16641.5375
3224.97853	16620.7375
3227.2713	16602.3375
3229.56269	16591.4375
3231.8527	16597.9375
3234.14133	16518.2375
3236.42858	16494.7375
3238.71446	16491.5375
3240.99896	16451.1375
3243.28209	16420.7375
3245.56384	16401.9375
3247.84423	16404.1375
3250.12324	16332.7375
3252.40088	16340.6375
3254.67715	16331.3375
3256.95205	16327.3375
3259.22558	16293.6375
3261.49775	16289.9375
3263.76855	16297.8375
3266.03799	16267.5375
3268.30606	16210.8375
3270.57277	16202.1375
3272.83812	16139.7375
3275.10211	16101.6375
3277.36474	16058.3375
3279.62601	16064.9375
3281.88593	16042.9375
3284.14448	16050.2375
3286.40168	16043.4375
3288.65753	16046.9375
3290.91202	16004.9375
3293.16516	15976.7375
3295.41695	15942.5375
3297.66738	15871.2375
3299.91647	15808.7375
3302.16421	15688.7375
3304.4106	15596.0375
3306.65564	15496.7375
3308.89933	15382.5375
3311.14169	15284.0375
3313.38269	15155.0375
3315.62236	15063.6375
3317.86068	14947.1375
3320.09766	14828.3375
3322.3333	14708.1375
3324.5676	14644.2375
3326.80056	14416.2375
3329.03219	14333.3375
3331.26248	4.4375
3333.49143	-1.2625
3335.71905	-0.4625
