Data from AgNPs_FTO_APTES_UA_5uM_CRN_1000uM_R6G_10uM_NaF_0.1M_Addition_RamanShift__14__17-40-11-880.txt Node

Date: Mon Feb 07 17:40:11 GMT 2022
User: TCL
Spectrometer: QEP01345
Trigger mode: 4
Integration Time (sec): 7.000000E0
Scans to average: 10
Electric dark correction enabled: true
Nonlinearity correction enabled: false
Boxcar width: 0
XAxis mode: Raman Shifts
Number of Pixels in Spectrum: 1044
>>>>>Begin Spectral Data<<<<<
46.04893	-1.2375
50.45542	-0.3375
54.85868	0.8625
59.25871	-0.0375
63.6555	39.0625
68.04907	43.4625
72.43941	45.3625
76.82654	46.0625
81.21044	47.0625
85.59113	45.9625
89.96862	49.2625
94.34289	54.3625
98.71396	54.7625
103.08183	54.3625
107.4465	60.3625
111.80798	58.5625
116.16626	63.6625
120.52136	62.5625
124.87327	69.2625
129.222	70.8625
133.56755	72.4625
137.90993	77.7625
142.24913	90.5625
146.58517	98.6625
150.91804	112.4625
155.24774	137.4625
159.57429	169.7625
163.89768	218.4625
168.21792	285.0625
172.53501	386.1625
176.84895	546.3625
181.15975	768.7625
185.46741	1077.5625
189.77193	1494.9625
194.07331	2008.3625
198.37157	2609.5625
202.6667	3247.1625
206.9587	3868.9625
211.24758	4464.9625
215.53334	5093.0625
219.81599	5736.2625
224.09553	6447.4625
228.37195	7213.3625
232.64527	8029.8625
236.91549	8917.6625
241.18261	9813.0625
245.44663	10656.3625
249.70755	11436.8625
253.96539	12113.8625
258.22014	12642.3625
262.4718	13081.7625
266.72039	13389.9625
270.96589	13527.7625
275.20832	13564.5625
279.44768	13518.1625
283.68397	13408.6625
287.91719	13319.8625
292.14735	13267.4625
296.37445	13303.6625
300.59849	13313.1625
304.81948	13391.1625
309.03742	13325.8625
313.25231	13221.8625
317.46415	12947.8625
321.67296	12625.1625
325.87872	12312.9625
330.08145	12160.7625
334.28114	12115.6625
338.47781	12168.4625
342.67145	12262.3625
346.86207	12415.3625
351.04966	12601.8625
355.23424	12762.5625
359.4158	12932.9625
363.59435	13050.1625
367.76989	13101.3625
371.94243	13136.9625
376.11196	13204.4625
380.27849	13177.4625
384.44203	13212.0625
388.60257	13295.1625
392.76012	13430.2625
396.91468	13597.0625
401.06626	13846.0625
405.21485	13986.0625
409.36047	13962.9625
413.50311	13785.6625
417.64277	13605.2625
421.77947	13560.5625
425.9132	13596.6625
430.04396	13685.9625
434.17176	13737.3625
438.2966	13838.2625
442.41849	13988.5625
446.53742	14185.8625
450.6534	14482.2625
454.76644	14688.4625
458.87653	14780.3625
462.98368	14814.2625
467.08789	14754.0625
471.18916	14669.7625
475.2875	14569.2625
479.38291	14530.0625
483.4754	14493.7625
487.56496	14416.3625
491.6516	14276.2625
495.73531	14092.9625
499.81612	13965.4625
503.89401	13967.3625
507.96899	13986.0625
512.04106	13947.8625
516.11023	13966.0625
520.1765	13838.1625
524.23987	13767.0625
528.30034	13652.9625
532.35792	13554.2625
536.41261	13443.2625
540.46441	13346.3625
544.51333	13393.2625
548.55936	13532.6625
552.60252	13745.3625
556.64279	14029.1625
560.6802	14205.9625
564.71473	14356.2625
568.7464	14605.9625
572.7752	15035.9625
576.80114	15469.6625
580.82422	15796.6625
584.84444	16039.6625
588.86181	16136.8625
592.87633	16181.9625
596.888	16096.0625
600.89682	15874.8625
604.9028	15976.6625
608.90594	16760.8625
612.90624	17728.6625
616.90371	16871.0625
620.89834	14690.9625
624.89015	13703.3625
628.87913	13610.6625
632.86528	13766.7625
636.84862	13858.9625
640.82913	13730.5625
644.80683	13465.7625
648.78172	13261.4625
652.75379	13188.7625
656.72306	13248.2625
660.68952	13430.4625
664.65319	13437.5625
668.61405	13294.9625
672.57211	13219.7625
676.52738	13274.9625
680.47986	13304.6625
684.42955	13291.9625
688.37646	13237.3625
692.32058	13243.7625
696.26192	13293.0625
700.20048	13363.5625
704.13626	13467.0625
708.06928	13548.5625
711.99952	13521.3625
715.927	13488.8625
719.85171	13457.6625
723.77365	13369.6625
727.69284	13228.0625
731.60928	13134.7625
735.52295	13050.0625
739.43388	13017.1625
743.34206	13012.9625
747.24749	13046.5625
751.15017	13193.4625
755.05012	13374.4625
758.94733	13688.5625
762.8418	14263.5625
766.73354	15182.4625
770.62254	16087.4625
774.50882	16289.4625
778.39237	15718.8625
782.27321	14730.0625
786.15132	13911.7625
790.02671	13371.3625
793.89938	13072.8625
797.76935	12948.8625
801.6366	12881.5625
805.50115	12794.0625
809.36299	12739.1625
813.22213	12661.2625
817.07857	12694.6625
820.93231	12670.4625
824.78336	12658.4625
828.63172	12618.1625
832.47738	12568.5625
836.32036	12551.5625
840.16066	12513.3625
843.99827	12528.2625
847.8332	12468.9625
851.66546	12496.2625
855.49504	12512.1625
859.32195	12535.8625
863.1462	12513.7625
866.96777	12466.2625
870.78668	12460.4625
874.60293	12469.3625
878.41652	12483.7625
882.22745	12505.6625
886.03573	12520.6625
889.84136	12540.6625
893.64433	12527.4625
897.44466	12538.1625
901.24235	12494.5625
905.0374	12452.1625
908.8298	12441.9625
912.61957	12442.4625
916.40671	12587.7625
920.19121	12742.8625
923.97308	12840.5625
927.75233	12827.1625
931.52895	12717.8625
935.30295	12524.7625
939.07433	12332.5625
942.84309	12158.2625
946.60924	12035.0625
950.37278	11956.8625
954.13371	11909.2625
957.89203	11892.9625
961.64774	11896.9625
965.40086	11859.5625
969.15137	11835.1625
972.89929	11801.8625
976.64461	11740.1625
980.38733	11702.8625
984.12747	11691.0625
987.86502	11712.2625
991.59999	11719.6625
995.33237	11765.1625
999.06217	11834.2625
1002.78939	11925.3625
1006.51404	12033.5625
1010.23611	12168.2625
1013.95561	12251.5625
1017.67255	12289.0625
1021.38692	12271.2625
1025.09872	12172.7625
1028.80796	12076.5625
1032.51465	12035.2625
1036.21877	12050.7625
1039.92035	12110.9625
1043.61937	12151.9625
1047.31584	12230.6625
1051.00976	12281.9625
1054.70114	12351.6625
1058.38998	12427.1625
1062.07627	12562.8625
1065.76003	12734.3625
1069.44126	12831.9625
1073.11995	12965.6625
1076.79611	13095.3625
1080.46974	13150.2625
1084.14085	13150.1625
1087.80943	13233.1625
1091.47549	13317.3625
1095.13903	13379.9625
1098.80005	13318.1625
1102.45857	13090.9625
1106.11456	12771.5625
1109.76805	12609.4625
1113.41903	12573.5625
1117.06751	12637.0625
1120.71348	12737.3625
1124.35696	12940.7625
1127.99793	13166.3625
1131.63641	13303.9625
1135.2724	13180.1625
1138.90589	13031.1625
1142.5369	12978.3625
1146.16542	12991.0625
1149.79145	13070.9625
1153.415	13191.7625
1157.03607	13343.1625
1160.65467	13598.1625
1164.27079	13986.8625
1167.88443	14468.0625
1171.49561	15056.4625
1175.10432	15789.5625
1178.71056	16739.3625
1182.31434	17615.2625
1185.91565	18163.7625
1189.51451	18354.4625
1193.11091	18212.4625
1196.70485	17774.3625
1200.29634	17230.2625
1203.88538	16729.9625
1207.47197	16377.1625
1211.05612	16039.0625
1214.63782	15767.9625
1218.21708	15410.6625
1221.79391	15013.7625
1225.36829	14706.6625
1228.94024	14519.7625
1232.50976	14387.2625
1236.07685	14317.8625
1239.6415	14254.9625
1243.20374	14274.0625
1246.76355	14338.7625
1250.32093	14460.3625
1253.8759	14631.7625
1257.42845	14901.7625
1260.97859	15230.8625
1264.52631	15534.3625
1268.07163	15859.1625
1271.61453	16183.8625
1275.15503	16493.2625
1278.69312	16862.4625
1282.22882	17182.5625
1285.76211	17667.4625
1289.29301	18167.7625
1292.82151	18758.0625
1296.34761	19479.4625
1299.87133	20295.7625
1303.39266	21094.3625
1306.9116	21939.5625
1310.42815	22526.4625
1313.94233	22801.3625
1317.45412	22704.7625
1320.96354	22396.6625
1324.47058	22165.1625
1327.97525	21966.1625
1331.47754	21914.0625
1334.97747	21944.4625
1338.47502	22067.6625
1341.97022	22281.3625
1345.46305	22515.5625
1348.95352	22636.8625
1352.44163	22739.7625
1355.92738	22808.6625
1359.41078	23135.7625
1362.89183	23487.1625
1366.37053	23111.2625
1369.84688	21670.7625
1373.32088	19792.0625
1376.79254	18410.6625
1380.26186	17776.7625
1383.72883	17577.2625
1387.19347	17475.3625
1390.65578	17360.2625
1394.11575	17226.4625
1397.57339	17168.1625
1401.0287	17168.9625
1404.48168	17154.7625
1407.93234	16973.4625
1411.38068	16683.8625
1414.82669	16237.0625
1418.27039	15655.7625
1421.71177	15145.5625
1425.15083	14710.9625
1428.58758	14439.5625
1432.02203	14432.7625
1435.45416	14558.4625
1438.88399	14757.8625
1442.31151	14978.8625
1445.73673	15113.5625
1449.15965	15310.3625
1452.58027	15535.6625
1455.9986	15708.0625
1459.41463	15861.5625
1462.82837	16072.8625
1466.23982	16293.9625
1469.64898	16512.3625
1473.05586	16664.2625
1476.46045	16731.5625
1479.86276	16758.9625
1483.26279	16771.9625
1486.66054	16882.9625
1490.05602	17034.5625
1493.44922	17420.0625
1496.84016	17925.2625
1500.22882	18641.2625
1503.61521	19602.0625
1506.99934	20524.1625
1510.38121	21185.4625
1513.76081	21273.3625
1517.13816	20824.6625
1520.51324	20060.0625
1523.88607	19412.9625
1527.25665	18999.3625
1530.62498	18783.3625
1533.99105	18549.6625
1537.35488	18207.0625
1540.71647	17801.3625
1544.07581	17328.6625
1547.4329	16848.2625
1550.78776	16489.2625
1554.14038	16222.3625
1557.49077	16073.2625
1560.83892	16061.8625
1564.18484	16097.4625
1567.52853	16251.8625
1570.86999	16449.4625
1574.20922	16643.1625
1577.54624	16810.4625
1580.88103	16706.8625
1584.2136	16480.0625
1587.54395	16447.3625
1590.87208	16737.6625
1594.19801	17200.2625
1597.52172	17759.4625
1600.84321	17944.8625
1604.16251	17437.4625
1607.47959	16619.0625
1610.79447	15756.9625
1614.10715	14835.0625
1617.41763	13964.6625
1620.7259	13362.2625
1624.03199	12945.9625
1627.33587	12788.0625
1630.63757	12909.1625
1633.93707	13312.9625
1637.23439	14086.5625
1640.52951	15312.4625
1643.82246	16964.1625
1647.11321	18581.9625
1650.40179	19575.4625
1653.68819	19276.3625
1656.97241	17766.6625
1660.25446	15827.0625
1663.53433	14023.5625
1666.81203	12727.9625
1670.08756	11852.0625
1673.36092	11301.1625
1676.63211	10929.3625
1679.90115	10712.2625
1683.16801	10538.8625
1686.43272	10383.2625
1689.69527	10256.1625
1692.95567	10169.3625
1696.2139	10077.6625
1699.46999	10055.4625
1702.72392	9970.2625
1705.97571	9958.2625
1709.22535	9954.8625
1712.47284	9904.5625
1715.71819	9888.2625
1718.96139	9865.1625
1722.20246	9807.5625
1725.44139	9762.4625
1728.67818	9713.8625
1731.91284	9672.5625
1735.14537	9622.9625
1738.37576	9565.7625
1741.60403	9528.1625
1744.83017	9496.2625
1748.05418	9473.3625
1751.27607	9448.7625
1754.49584	9447.9625
1757.71349	9439.5625
1760.92903	9423.1625
1764.14244	9436.8625
1767.35375	9427.1625
1770.56294	9403.0625
1773.77002	9349.5625
1776.97499	9316.1625
1780.17785	9291.5625
1783.37861	9272.2625
1786.57727	9257.9625
1789.77382	9217.8625
1792.96828	9168.2625
1796.16064	9157.2625
1799.3509	9135.9625
1802.53907	9108.9625
1805.72514	9073.8625
1808.90913	9028.6625
1812.09102	9035.8625
1815.27083	8979.8625
1818.44856	8987.5625
1821.6242	8952.2625
1824.79776	8945.7625
1827.96924	8899.6625
1831.13864	8893.4625
1834.30597	8884.2625
1837.47122	8857.1625
1840.6344	8861.5625
1843.7955	8848.7625
1846.95454	8830.3625
1850.11151	8823.4625
1853.26642	8820.7625
1856.41926	8783.3625
1859.57004	8780.8625
1862.71876	8793.7625
1865.86542	8779.6625
1869.01003	8750.9625
1872.15258	8738.6625
1875.29308	8713.3625
1878.43152	8698.9625
1881.56792	8667.4625
1884.70227	8674.2625
1887.83457	8655.4625
1890.96482	8652.5625
1894.09304	8615.9625
1897.21921	8601.6625
1900.34335	8601.3625
1903.46544	8581.2625
1906.58551	8572.7625
1909.70353	8539.5625
1912.81953	8516.5625
1915.93349	8495.9625
1919.04543	8458.4625
1922.15534	8464.7625
1925.26322	8426.6625
1928.36908	8432.4625
1931.47292	8411.0625
1934.57473	8391.1625
1937.67453	8379.3625
1940.77232	8343.9625
1943.86808	8285.1625
1946.96184	8268.9625
1950.05358	8242.1625
1953.14331	8223.1625
1956.23103	8172.2625
1959.31675	8137.6625
1962.40046	8139.1625
1965.48217	8098.8625
1968.56188	8077.3625
1971.63959	8025.3625
1974.7153	8032.1625
1977.78901	7994.5625
1980.86073	7967.3625
1983.93046	7907.7625
1986.99819	7892.8625
1990.06394	7883.1625
1993.1277	7867.3625
1996.18947	7807.6625
1999.24925	7812.8625
2002.30706	7773.4625
2005.36288	7741.6625
2008.41672	7724.5625
2011.46859	7698.9625
2014.51848	7651.4625
2017.56639	7649.2625
2020.61233	7627.6625
2023.6563	7586.6625
2026.6983	7555.8625
2029.73833	7532.8625
2032.7764	7512.1625
2035.8125	7499.4625
2038.84664	7476.0625
2041.87881	7475.2625
2044.90903	7433.6625
2047.93729	7414.2625
2050.96359	7410.3625
2053.98794	7397.1625
2057.01034	7365.2625
2060.03078	7394.1625
2063.04927	7371.0625
2066.06582	7368.5625
2069.08042	7359.4625
2072.09307	7349.8625
2075.10378	7334.7625
2078.11255	7323.9625
2081.11938	7324.6625
2084.12426	7326.6625
2087.12722	7283.3625
2090.12824	7311.6625
2093.12732	7287.1625
2096.12447	7298.3625
2099.11969	7285.7625
2102.11299	7268.3625
2105.10435	7271.1625
2108.09379	7271.0625
2111.08131	7274.2625
2114.0669	7277.5625
2117.05057	7270.8625
2120.03233	7285.0625
2123.01216	7294.9625
2125.99008	7293.5625
2128.96609	7262.9625
2131.94018	7272.3625
2134.91236	7279.0625
2137.88263	7307.7625
2140.851	7305.6625
2143.81746	7303.9625
2146.78201	7283.9625
2149.74466	7292.0625
2152.7054	7277.5625
2155.66425	7248.5625
2158.6212	7235.9625
2161.57625	7218.5625
2164.52941	7223.5625
2167.48067	7210.3625
2170.43004	7206.5625
2173.37752	7204.6625
2176.32311	7232.5625
2179.26681	7219.1625
2182.20863	7194.8625
2185.14856	7205.2625
2188.08661	7188.1625
2191.02278	7198.8625
2193.95707	7186.1625
2196.88948	7148.3625
2199.82001	7138.8625
2202.74867	7132.9625
2205.67545	7114.9625
2208.60037	7102.0625
2211.52341	7102.8625
2214.44458	7068.7625
2217.36388	7058.3625
2220.28132	7043.0625
2223.1969	6998.6625
2226.11061	6994.7625
2229.02246	6973.2625
2231.93245	6983.8625
2234.84058	6962.0625
2237.74686	6930.1625
2240.65128	6919.3625
2243.55385	6921.1625
2246.45456	6924.7625
2249.35343	6902.5625
2252.25044	6904.3625
2255.14561	6868.4625
2258.03893	6854.7625
2260.93041	6804.5625
2263.82004	6803.0625
2266.70783	6781.9625
2269.59378	6774.0625
2272.4779	6751.0625
2275.36017	6709.4625
2278.24061	6722.8625
2281.11922	6695.9625
2283.996	6684.3625
2286.87094	6670.8625
2289.74405	6656.7625
2292.61534	6629.8625
2295.4848	6625.4625
2298.35243	6622.7625
2301.21824	6613.0625
2304.08223	6623.1625
2306.94439	6611.0625
2309.80474	6585.8625
2312.66327	6573.1625
2315.51999	6564.2625
2318.37489	6579.3625
2321.22797	6551.0625
2324.07925	6524.6625
2326.92871	6501.3625
2329.77637	6494.4625
2332.62222	6506.9625
2335.46626	6477.2625
2338.3085	6476.5625
2341.14893	6450.6625
2343.98756	6449.8625
2346.8244	6464.1625
2349.65943	6417.7625
2352.49267	6429.0625
2355.32411	6423.1625
2358.15376	6424.5625
2360.98161	6417.0625
2363.80768	6430.0625
2366.63195	6438.6625
2369.45444	6400.2625
2372.27514	6406.1625
2375.09405	6376.0625
2377.91118	6377.4625
2380.72652	6350.4625
2383.54009	6332.1625
2386.35187	6317.3625
2389.16188	6285.4625
2391.97011	6281.7625
2394.77657	6262.1625
2397.58125	6264.7625
2400.38416	6241.0625
2403.18529	6206.0625
2405.98466	6215.7625
2408.78226	6207.0625
2411.57809	6192.6625
2414.37216	6179.5625
2417.16446	6170.7625
2419.955	6168.1625
2422.74378	6147.9625
2425.5308	6153.5625
2428.31606	6136.5625
2431.09956	6123.6625
2433.88131	6100.1625
2436.6613	6110.1625
2439.43954	6121.9625
2442.21603	6095.0625
2444.99077	6097.4625
2447.76377	6088.6625
2450.53501	6081.7625
2453.30451	6069.9625
2456.07226	6072.3625
2458.83827	6054.6625
2461.60254	6042.8625
2464.36507	6031.6625
2467.12586	6032.1625
2469.88492	6036.5625
2472.64224	6028.7625
2475.39782	6015.0625
2478.15167	6032.2625
2480.90379	6003.3625
2483.65417	6005.1625
2486.40283	6005.4625
2489.14976	5985.4625
2491.89497	5977.4625
2494.63845	5980.8625
2497.3802	5955.3625
2500.12024	5970.9625
2502.85855	5965.8625
2505.59514	5957.9625
2508.33002	5941.8625
2511.06318	5934.2625
2513.79462	5934.1625
2516.52435	5912.7625
2519.25237	5904.6625
2521.97867	5896.9625
2524.70327	5864.5625
2527.42616	5847.7625
2530.14734	5878.6625
2532.86681	5862.1625
2535.58458	5853.1625
2538.30065	5833.9625
2541.01501	5839.7625
2543.72768	5807.4625
2546.43864	5804.7625
2549.14791	5794.1625
2551.85548	5788.5625
2554.56136	5786.2625
2557.26554	5753.8625
2559.96803	5753.5625
2562.66883	5731.3625
2565.36794	5734.6625
2568.06536	5714.9625
2570.7611	5709.4625
2573.45514	5682.4625
2576.14751	5685.4625
2578.83819	5675.4625
2581.52719	5676.3625
2584.21451	5647.4625
2586.90015	5647.8625
2589.58411	5627.7625
2592.2664	5629.3625
2594.94701	5625.9625
2597.62594	5595.0625
2600.30321	5596.4625
2602.9788	5577.3625
2605.65273	5567.2625
2608.32498	5585.9625
2610.99557	5571.7625
2613.66449	5564.8625
2616.33175	5563.8625
2618.99734	5546.4625
2621.66128	5529.6625
2624.32355	5517.1625
2626.98416	5510.6625
2629.64311	5486.4625
2632.30041	5492.1625
2634.95605	5487.0625
2637.61004	5476.4625
2640.26238	5463.1625
2642.91306	5450.7625
2645.56209	5433.6625
2648.20948	5443.7625
2650.85521	5460.2625
2653.4993	5446.1625
2656.14175	5445.7625
2658.78255	5465.6625
2661.42171	5443.2625
2664.05923	5438.6625
2666.6951	5433.3625
2669.32934	5438.7625
2671.96194	5426.6625
2674.59291	5421.8625
2677.22224	5411.4625
2679.84993	5414.1625
2682.476	5390.4625
2685.10043	5421.6625
2687.72324	5402.9625
2690.34441	5385.7625
2692.96396	5400.4625
2695.58188	5408.0625
2698.19818	5405.4625
2700.81285	5406.5625
2703.4259	5388.3625
2706.03733	5397.4625
2708.64714	5396.7625
2711.25533	5400.9625
2713.86191	5402.6625
2716.46687	5417.0625
2719.07021	5406.5625
2721.67194	5403.9625
2724.27206	5413.0625
2726.87057	5380.1625
2729.46747	5402.4625
2732.06276	5388.9625
2734.65644	5371.3625
2737.24852	5384.1625
2739.83899	5365.4625
2742.42786	5363.8625
2745.01513	5338.3625
2747.60079	5319.9625
2750.18486	5321.0625
2752.76733	5317.7625
2755.3482	5312.0625
2757.92747	5305.4625
2760.50515	5294.0625
2763.08123	5278.0625
2765.65573	5276.9625
2768.22863	5275.4625
2770.79994	5253.3625
2773.36967	5271.0625
2775.9378	5253.7625
2778.50435	5240.2625
2781.06932	5248.7625
2783.6327	5228.5625
2786.1945	5221.3625
2788.75471	5219.8625
2791.31335	5223.9625
2793.87041	5201.0625
2796.42589	5194.7625
2798.97979	5189.3625
2801.53212	5169.2625
2804.08288	5168.6625
2806.63206	5139.1625
2809.17967	5145.5625
2811.72571	5111.6625
2814.27018	5122.4625
2816.81308	5112.1625
2819.35442	5104.7625
2821.89419	5111.1625
2824.43239	5100.3625
2826.96904	5079.8625
2829.50412	5097.5625
2832.03763	5080.0625
2834.56959	5070.8625
2837.1	5066.6625
2839.62884	5067.8625
2842.15613	5086.3625
2844.68186	5137.0625
2847.20604	5151.8625
2849.72867	5152.9625
2852.24974	5146.2625
2854.76927	5136.9625
2857.28724	5143.3625
2859.80367	5121.9625
2862.31855	5120.8625
2864.83189	5097.6625
2867.34368	5093.4625
2869.85393	5081.0625
2872.36264	5087.6625
2874.8698	5104.3625
2877.37543	5082.2625
2879.87952	5070.7625
2882.38207	5060.4625
2884.88308	5044.4625
2887.38256	5055.9625
2889.88051	5055.6625
2892.37692	5047.8625
2894.8718	5043.8625
2897.36515	5049.6625
2899.85698	5043.3625
2902.34727	5063.7625
2904.83604	5058.2625
2907.32328	5078.5625
2909.809	5067.3625
2912.29319	5062.9625
2914.77587	5055.1625
2917.25702	5054.3625
2919.73665	5044.6625
2922.21476	5029.3625
2924.69136	5048.6625
2927.16644	5032.3625
2929.64	5055.1625
2932.11205	5029.4625
2934.58258	5004.7625
2937.05161	5027.7625
2939.51912	5011.0625
2941.98513	5010.2625
2944.44962	4989.7625
2946.91261	4959.6625
2949.37409	4961.9625
2951.83407	4932.3625
2954.29254	4924.7625
2956.74951	4925.0625
2959.20498	4901.9625
2961.65895	4891.3625
2964.11142	4901.9625
2966.56239	4881.2625
2969.01186	4868.6625
2971.45984	4848.6625
2973.90632	4847.8625
2976.35131	4823.6625
2978.7948	4817.7625
2981.23681	4815.6625
2983.67732	4789.6625
2986.11635	4776.4625
2988.55388	4763.2625
2990.98993	4744.8625
2993.4245	4738.0625
2995.85758	4721.7625
2998.28917	4714.9625
3000.71928	4702.8625
3003.14791	4691.5625
3005.57506	4682.0625
3008.00073	4670.4625
3010.42493	4650.7625
3012.84764	4660.0625
3015.26888	4666.4625
3017.68865	4640.5625
3020.10694	4629.7625
3022.52376	4623.5625
3024.9391	4616.7625
3027.35298	4601.8625
3029.76539	4596.9625
3032.17632	4581.0625
3034.5858	4576.1625
3036.9938	4585.7625
3039.40034	4577.1625
3041.80542	4584.3625
3044.20903	4548.2625
3046.61118	4548.2625
3049.01187	4543.1625
3051.4111	4534.0625
3053.80888	4534.0625
3056.20519	4509.9625
3058.60005	4513.0625
3060.99345	4510.3625
3063.3854	4489.2625
3065.7759	4473.0625
3068.16494	4478.0625
3070.55254	4449.8625
3072.93868	4444.2625
3075.32338	4437.7625
3077.70662	4439.9625
3080.08842	4404.9625
3082.46878	4421.5625
3084.84769	4401.5625
3087.22515	4377.6625
3089.60118	4392.0625
3091.97576	4385.3625
3094.3489	4391.0625
3096.72061	4396.7625
3099.09087	4394.1625
3101.4597	4400.1625
3103.82709	4384.0625
3106.19305	4387.0625
3108.55757	4382.1625
3110.92066	4357.4625
3113.28232	4370.3625
3115.64255	4364.5625
3118.00134	4341.1625
3120.35871	4349.0625
3122.71466	4341.5625
3125.06917	4334.0625
3127.42226	4314.5625
3129.77393	4307.3625
3132.12417	4310.1625
3134.47299	4307.5625
3136.82039	4311.6625
3139.16636	4315.5625
3141.51092	4314.0625
3143.85406	4310.3625
3146.19579	4308.2625
3148.53609	4312.1625
3150.87499	4312.5625
3153.21246	4322.6625
3155.54853	4332.8625
3157.88318	4339.9625
3160.21642	4351.8625
3162.54826	4337.8625
3164.87868	4348.1625
3167.2077	4342.6625
3169.5353	4343.6625
3171.86151	4330.4625
3174.18631	4339.2625
3176.5097	4329.7625
3178.83169	4330.6625
3181.15228	4326.3625
3183.47147	4298.1625
3185.78926	4289.8625
3188.10565	4299.2625
3190.42065	4304.5625
3192.73424	4307.2625
3195.04645	4296.8625
3197.35725	4289.1625
3199.66667	4280.3625
3201.97469	4278.9625
3204.28132	4274.5625
3206.58656	4295.4625
3208.8904	4291.8625
3211.19287	4289.8625
3213.49394	4308.6625
3215.79363	4292.4625
3218.09193	4310.3625
3220.38884	4296.5625
3222.68438	4303.1625
3224.97853	4298.2625
3227.2713	4287.3625
3229.56269	4287.6625
3231.8527	4273.0625
3234.14133	4265.3625
3236.42858	4243.4625
3238.71446	4250.5625
3240.99896	4261.2625
3243.28209	4231.5625
3245.56384	4232.9625
3247.84423	4227.6625
3250.12324	4222.3625
3252.40088	4213.9625
3254.67715	4212.5625
3256.95205	4206.8625
3259.22558	4196.1625
3261.49775	4189.5625
3263.76855	4181.8625
3266.03799	4168.0625
3268.30606	4176.8625
3270.57277	4164.4625
3272.83812	4159.1625
3275.10211	4149.9625
3277.36474	4134.9625
3279.62601	4149.1625
3281.88593	4141.3625
3284.14448	4138.6625
3286.40168	4132.7625
3288.65753	4120.2625
3290.91202	4122.5625
3293.16516	4117.8625
3295.41695	4107.3625
3297.66738	4082.3625
3299.91647	4041.5625
3302.16421	4027.6625
3304.4106	4000.9625
3306.65564	3975.4625
3308.89933	3960.0625
3311.14169	3920.1625
3313.38269	3891.8625
3315.62236	3881.3625
3317.86068	3838.4625
3320.09766	3806.2625
3322.3333	3780.6625
3324.5676	3770.2625
3326.80056	3689.6625
3329.03219	3687.5625
3331.26248	0.8625
3333.49143	0.3625
3335.71905	-0.9375
