Data from AgNPs_FTO_APTES_UA_5uM_CRN_2uM_R6G_10uM_NaF_0.1M_Addition_RamanShift__35__11-37-46-658.txt Node

Date: Mon Feb 07 11:37:46 GMT 2022
User: TCL
Spectrometer: QEP01345
Trigger mode: 4
Integration Time (sec): 7.000000E0
Scans to average: 10
Electric dark correction enabled: true
Nonlinearity correction enabled: false
Boxcar width: 0
XAxis mode: Raman Shifts
Number of Pixels in Spectrum: 1044
>>>>>Begin Spectral Data<<<<<
46.04893	0.1875
50.45542	-1.4125
54.85868	-1.6125
59.25871	-0.1125
63.6555	88.2875
68.04907	92.9875
72.43941	99.8875
76.82654	102.3875
81.21044	105.1875
85.59113	111.9875
89.96862	114.6875
94.34289	111.5875
98.71396	119.4875
103.08183	119.9875
107.4465	126.9875
111.80798	127.3875
116.16626	134.2875
120.52136	140.0875
124.87327	143.0875
129.222	158.4875
133.56755	165.6875
137.90993	176.9875
142.24913	191.2875
146.58517	219.2875
150.91804	258.7875
155.24774	302.7875
159.57429	377.6875
163.89768	491.0875
168.21792	652.8875
172.53501	889.6875
176.84895	1227.1875
181.15975	1725.7875
185.46741	2429.1875
189.77193	3356.1875
194.07331	4485.4875
198.37157	5756.7875
202.6667	7110.0875
206.9587	8470.6875
211.24758	9810.2875
215.53334	11186.3875
219.81599	12638.3875
224.09553	14285.0875
228.37195	16074.8875
232.64527	18025.0875
236.91549	20030.1875
241.18261	21993.5875
245.44663	23776.2875
249.70755	25300.7875
253.96539	26625.6875
258.22014	27816.1875
262.4718	28828.0875
266.72039	29494.2875
270.96589	29865.8875
275.20832	29889.5875
279.44768	29615.1875
283.68397	29294.6875
287.91719	29023.5875
292.14735	28858.6875
296.37445	28873.3875
300.59849	29080.9875
304.81948	29459.6875
309.03742	29687.7875
313.25231	29619.5875
317.46415	29119.9875
321.67296	28393.5875
325.87872	27678.2875
330.08145	27323.1875
334.28114	27354.3875
338.47781	27586.5875
342.67145	27876.6875
346.86207	28345.2875
351.04966	29001.4875
355.23424	29670.2875
359.4158	30225.4875
363.59435	30643.2875
367.76989	30934.6875
371.94243	31111.4875
376.11196	31220.4875
380.27849	31365.7875
384.44203	31477.0875
388.60257	31623.8875
392.76012	31852.1875
396.91468	32169.2875
401.06626	32719.2875
405.21485	33177.3875
409.36047	33102.4875
413.50311	32609.3875
417.64277	32277.3875
421.77947	32236.8875
425.9132	32390.7875
430.04396	32618.2875
434.17176	32908.6875
438.2966	33391.4875
442.41849	34297.5875
446.53742	35766.1875
450.6534	37433.7875
454.76644	38496.0875
458.87653	38613.3875
462.98368	37926.3875
467.08789	36850.9875
471.18916	35822.9875
475.2875	34818.7875
479.38291	34183.8875
483.4754	33762.9875
487.56496	33346.9875
491.6516	32885.7875
495.73531	32426.8875
499.81612	32210.8875
503.89401	32332.0875
507.96899	32342.1875
512.04106	32222.6875
516.11023	32090.5875
520.1765	31928.8875
524.23987	31869.6875
528.30034	31895.1875
532.35792	31677.2875
536.41261	31133.6875
540.46441	30460.1875
544.51333	30168.7875
548.55936	30420.3875
552.60252	31158.0875
556.64279	32088.9875
560.6802	32832.5875
564.71473	33238.1875
568.7464	33797.2875
572.7752	34703.8875
576.80114	35378.8875
580.82422	36030.6875
584.84444	37240.8875
588.86181	39126.9875
592.87633	41433.0875
596.888	42686.9875
600.89682	41567.0875
604.9028	41171.8875
608.90594	44214.3875
612.90624	48016.5875
616.90371	45145.4875
620.89834	37043.1875
624.89015	33461.7875
628.87913	33015.1875
632.86528	32821.2875
636.84862	32284.1875
640.82913	31434.0875
644.80683	30300.8875
648.78172	29662.1875
652.75379	29636.6875
656.72306	30241.8875
660.68952	30981.2875
664.65319	30843.5875
668.61405	30194.5875
672.57211	29935.8875
676.52738	29956.3875
680.47986	29847.3875
684.42955	29514.4875
688.37646	29432.8875
692.32058	29699.4875
696.26192	30275.2875
700.20048	30836.7875
704.13626	31087.0875
708.06928	30861.1875
711.99952	30522.8875
715.927	30549.4875
719.85171	30814.0875
723.77365	30655.3875
727.69284	30150.8875
731.60928	29712.8875
735.52295	29658.3875
739.43388	29781.9875
743.34206	29931.8875
747.24749	30096.3875
751.15017	30460.9875
755.05012	30996.1875
758.94733	31946.8875
762.8418	33645.3875
766.73354	36392.4875
770.62254	39065.9875
774.50882	39814.2875
778.39237	38081.5875
782.27321	35215.5875
786.15132	32637.2875
790.02671	31079.1875
793.89938	30403.0875
797.76935	30234.1875
801.6366	30220.4875
805.50115	30118.2875
809.36299	29909.9875
813.22213	29691.8875
817.07857	29529.4875
820.93231	29424.6875
824.78336	29343.4875
828.63172	29381.0875
832.47738	29492.8875
836.32036	29661.6875
840.16066	29925.1875
843.99827	30089.2875
847.8332	29969.2875
851.66546	29683.6875
855.49504	29539.2875
859.32195	29522.5875
863.1462	29375.7875
866.96777	29146.5875
870.78668	29067.3875
874.60293	29057.5875
878.41652	29007.1875
882.22745	29207.5875
886.03573	29377.1875
889.84136	29318.1875
893.64433	29094.3875
897.44466	28901.4875
901.24235	28804.5875
905.0374	28666.7875
908.8298	28659.9875
912.61957	28771.1875
916.40671	29105.3875
920.19121	29569.3875
923.97308	30162.0875
927.75233	30578.6875
931.52895	30550.7875
935.30295	30100.9875
939.07433	29401.7875
942.84309	28949.0875
946.60924	28790.1875
950.37278	28712.2875
954.13371	28512.8875
957.89203	28274.6875
961.64774	28126.9875
965.40086	28123.6875
969.15137	28046.2875
972.89929	28006.1875
976.64461	28018.5875
980.38733	28196.1875
984.12747	28399.9875
987.86502	28841.0875
991.59999	29424.8875
995.33237	30315.1875
999.06217	31748.5875
1002.78939	33290.6875
1006.51404	34215.0875
1010.23611	34557.0875
1013.95561	34884.5875
1017.67255	34744.1875
1021.38692	34084.9875
1025.09872	33495.4875
1028.80796	34104.9875
1032.51465	36028.7875
1036.21877	37822.9875
1039.92035	37996.4875
1043.61937	37048.0875
1047.31584	35379.7875
1051.00976	33738.4875
1054.70114	32755.1875
1058.38998	32360.4875
1062.07627	32146.3875
1065.76003	32087.9875
1069.44126	32232.4875
1073.11995	32564.3875
1076.79611	33090.0875
1080.46974	33492.6875
1084.14085	33969.4875
1087.80943	34420.6875
1091.47549	34719.0875
1095.13903	34504.4875
1098.80005	33873.7875
1102.45857	33060.6875
1106.11456	32596.6875
1109.76805	32566.6875
1113.41903	32746.6875
1117.06751	32955.1875
1120.71348	33333.1875
1124.35696	33732.1875
1127.99793	34116.1875
1131.63641	34296.2875
1135.2724	34079.8875
1138.90589	33751.7875
1142.5369	33704.7875
1146.16542	33767.8875
1149.79145	34021.2875
1153.415	34270.4875
1157.03607	34736.9875
1160.65467	35712.2875
1164.27079	37434.8875
1167.88443	39646.6875
1171.49561	42400.8875
1175.10432	46098.8875
1178.71056	51010.0875
1182.31434	55488.6875
1185.91565	57570.5875
1189.51451	56723.5875
1193.11091	53852.8875
1196.70485	50797.7875
1200.29634	48396.8875
1203.88538	46856.3875
1207.47197	45807.7875
1211.05612	44819.1875
1214.63782	44096.8875
1218.21708	43682.8875
1221.79391	43762.9875
1225.36829	43923.8875
1228.94024	43203.8875
1232.50976	41785.0875
1236.07685	40327.6875
1239.6415	39567.6875
1243.20374	39428.0875
1246.76355	39764.1875
1250.32093	40710.0875
1253.8759	41977.5875
1257.42845	43376.1875
1260.97859	44924.5875
1264.52631	46385.9875
1268.07163	47972.3875
1271.61453	49728.2875
1275.15503	51732.5875
1278.69312	53722.3875
1282.22882	55486.5875
1285.76211	57238.7875
1289.29301	59226.4875
1292.82151	61619.8875
1296.34761	64905.4875
1299.87133	69379.1875
1303.39266	74824.1875
1306.9116	80795.5875
1310.42815	86060.5875
1313.94233	88799.2875
1317.45412	88008.2875
1320.96354	84524.5875
1324.47058	80340.1875
1327.97525	76657.6875
1331.47754	74047.1875
1334.97747	72531.9875
1338.47502	71305.5875
1341.97022	69657.8875
1345.46305	67756.2875
1348.95352	66781.1875
1352.44163	67911.0875
1355.92738	71689.0875
1359.41078	77614.2875
1362.89183	82481.1875
1366.37053	81735.7875
1369.84688	74208.7875
1373.32088	64553.0875
1376.79254	58010.6875
1380.26186	55675.9875
1383.72883	55390.3875
1387.19347	55114.4875
1390.65578	54248.5875
1394.11575	53830.2875
1397.57339	54655.8875
1401.0287	56153.9875
1404.48168	57411.9875
1407.93234	57880.8875
1411.38068	57166.1875
1414.82669	55512.9875
1418.27039	53040.7875
1421.71177	50621.1875
1425.15083	48510.8875
1428.58758	47562.4875
1432.02203	48137.5875
1435.45416	49658.2875
1438.88399	51342.1875
1442.31151	52483.6875
1445.73673	53302.5875
1449.15965	53789.9875
1452.58027	53736.7875
1455.9986	53188.5875
1459.41463	52954.6875
1462.82837	53728.7875
1466.23982	55230.6875
1469.64898	56853.1875
1473.05586	57787.7875
1476.46045	58243.8875
1479.86276	58213.1875
1483.26279	57797.7875
1486.66054	57410.6875
1490.05602	57305.1875
1493.44922	57494.0875
1496.84016	57401.3875
1500.22882	57606.8875
1503.61521	58555.7875
1506.99934	60029.3875
1510.38121	61712.6875
1513.76081	62323.3875
1517.13816	61194.2875
1520.51324	58713.7875
1523.88607	56494.4875
1527.25665	55392.7875
1530.62498	55077.6875
1533.99105	55030.3875
1537.35488	54622.3875
1540.71647	53813.7875
1544.07581	52678.8875
1547.4329	51461.3875
1550.78776	50227.8875
1554.14038	49232.8875
1557.49077	48413.6875
1560.83892	47915.7875
1564.18484	47671.1875
1567.52853	47846.0875
1570.86999	48326.8875
1574.20922	49046.6875
1577.54624	49683.3875
1580.88103	49881.1875
1584.2136	50417.4875
1587.54395	52724.7875
1590.87208	56915.7875
1594.19801	62269.0875
1597.52172	67418.7875
1600.84321	69209.2875
1604.16251	65705.0875
1607.47959	58754.1875
1610.79447	51383.2875
1614.10715	45288.1875
1617.41763	41199.5875
1620.7259	38930.2875
1624.03199	38077.2875
1627.33587	38539.9875
1630.63757	40270.1875
1633.93707	43332.6875
1637.23439	48166.5875
1640.52951	55052.9875
1643.82246	63356.4875
1647.11321	69810.3875
1650.40179	70486.3875
1653.68819	63868.5875
1656.97241	53771.1875
1660.25446	44627.5875
1663.53433	38418.0875
1666.81203	34700.7875
1670.08756	32451.5875
1673.36092	31046.0875
1676.63211	30145.1875
1679.90115	29564.1875
1683.16801	29087.1875
1686.43272	28775.8875
1689.69527	28518.5875
1692.95567	28327.8875
1696.2139	28201.8875
1699.46999	28105.3875
1702.72392	28033.5875
1705.97571	27998.3875
1709.22535	27921.9875
1712.47284	27877.7875
1715.71819	27811.7875
1718.96139	27795.4875
1722.20246	27754.2875
1725.44139	27637.7875
1728.67818	27467.6875
1731.91284	27267.8875
1735.14537	27157.3875
1738.37576	26994.7875
1741.60403	26943.6875
1744.83017	26831.7875
1748.05418	26771.4875
1751.27607	26705.7875
1754.49584	26684.6875
1757.71349	26647.4875
1760.92903	26644.4875
1764.14244	26652.0875
1767.35375	26657.4875
1770.56294	26580.7875
1773.77002	26538.4875
1776.97499	26442.5875
1780.17785	26421.9875
1783.37861	26399.9875
1786.57727	26356.9875
1789.77382	26304.7875
1792.96828	26323.7875
1796.16064	26255.9875
1799.3509	26244.0875
1802.53907	26210.2875
1805.72514	26165.3875
1808.90913	26062.1875
1812.09102	25991.3875
1815.27083	25935.7875
1818.44856	25908.7875
1821.6242	25831.3875
1824.79776	25836.7875
1827.96924	25837.7875
1831.13864	25744.4875
1834.30597	25787.5875
1837.47122	25736.1875
1840.6344	25696.8875
1843.7955	25706.6875
1846.95454	25712.4875
1850.11151	25689.5875
1853.26642	25661.7875
1856.41926	25689.0875
1859.57004	25731.9875
1862.71876	25704.9875
1865.86542	25676.9875
1869.01003	25684.8875
1872.15258	25679.6875
1875.29308	25684.3875
1878.43152	25684.5875
1881.56792	25719.8875
1884.70227	25724.4875
1887.83457	25724.2875
1890.96482	25694.1875
1894.09304	25710.5875
1897.21921	25664.5875
1900.34335	25660.8875
1903.46544	25674.5875
1906.58551	25694.2875
1909.70353	25687.3875
1912.81953	25635.6875
1915.93349	25604.0875
1919.04543	25575.9875
1922.15534	25518.3875
1925.26322	25506.8875
1928.36908	25422.6875
1931.47292	25344.7875
1934.57473	25238.2875
1937.67453	25230.1875
1940.77232	25126.3875
1943.86808	25034.1875
1946.96184	24978.3875
1950.05358	24926.9875
1953.14331	24852.6875
1956.23103	24769.5875
1959.31675	24694.4875
1962.40046	24634.4875
1965.48217	24559.8875
1968.56188	24512.8875
1971.63959	24460.0875
1974.7153	24356.9875
1977.78901	24277.7875
1980.86073	24206.1875
1983.93046	24131.5875
1986.99819	24092.7875
1990.06394	24056.4875
1993.1277	23996.0875
1996.18947	23878.6875
1999.24925	23842.3875
2002.30706	23735.5875
2005.36288	23696.4875
2008.41672	23666.0875
2011.46859	23627.6875
2014.51848	23539.5875
2017.56639	23508.8875
2020.61233	23493.2875
2023.6563	23421.9875
2026.6983	23388.9875
2029.73833	23375.4875
2032.7764	23347.3875
2035.8125	23336.1875
2038.84664	23320.0875
2041.87881	23321.6875
2044.90903	23228.1875
2047.93729	23254.0875
2050.96359	23226.8875
2053.98794	23221.6875
2057.01034	23211.7875
2060.03078	23219.4875
2063.04927	23169.4875
2066.06582	23180.9875
2069.08042	23134.7875
2072.09307	23131.5875
2075.10378	23125.8875
2078.11255	23067.3875
2081.11938	23073.7875
2084.12426	23023.5875
2087.12722	23040.2875
2090.12824	23004.6875
2093.12732	23004.5875
2096.12447	22990.7875
2099.11969	23083.8875
2102.11299	23067.3875
2105.10435	23035.2875
2108.09379	23038.0875
2111.08131	23053.1875
2114.0669	23054.1875
2117.05057	23126.6875
2120.03233	23115.0875
2123.01216	23143.0875
2125.99008	23189.6875
2128.96609	23142.6875
2131.94018	23173.4875
2134.91236	23202.7875
2137.88263	23244.6875
2140.851	23244.3875
2143.81746	23303.4875
2146.78201	23294.5875
2149.74466	23280.6875
2152.7054	23239.2875
2155.66425	23293.1875
2158.6212	23263.4875
2161.57625	23262.2875
2164.52941	23250.8875
2167.48067	23244.7875
2170.43004	23236.0875
2173.37752	23239.8875
2176.32311	23254.0875
2179.26681	23259.8875
2182.20863	23269.5875
2185.14856	23299.9875
2188.08661	23365.7875
2191.02278	23361.3875
2193.95707	23355.7875
2196.88948	23360.1875
2199.82001	23375.3875
2202.74867	23307.9875
2205.67545	23380.4875
2208.60037	23307.0875
2211.52341	23334.5875
2214.44458	23310.1875
2217.36388	23289.7875
2220.28132	23258.7875
2223.1969	23249.6875
2226.11061	23220.7875
2229.02246	23129.3875
2231.93245	23131.6875
2234.84058	23131.5875
2237.74686	23063.5875
2240.65128	23056.5875
2243.55385	23018.6875
2246.45456	22978.5875
2249.35343	22951.2875
2252.25044	22907.0875
2255.14561	22865.1875
2258.03893	22873.1875
2260.93041	22781.6875
2263.82004	22733.6875
2266.70783	22642.5875
2269.59378	22628.0875
2272.4779	22554.7875
2275.36017	22503.6875
2278.24061	22492.4875
2281.11922	22430.9875
2283.996	22439.0875
2286.87094	22441.5875
2289.74405	22441.4875
2292.61534	22418.9875
2295.4848	22425.7875
2298.35243	22482.7875
2301.21824	22461.0875
2304.08223	22506.6875
2306.94439	22569.6875
2309.80474	22585.4875
2312.66327	22647.8875
2315.51999	22616.2875
2318.37489	22619.4875
2321.22797	22571.1875
2324.07925	22572.9875
2326.92871	22584.2875
2329.77637	22547.7875
2332.62222	22505.4875
2335.46626	22540.3875
2338.3085	22575.4875
2341.14893	22608.8875
2343.98756	22652.7875
2346.8244	22644.6875
2349.65943	22643.0875
2352.49267	22630.2875
2355.32411	22604.4875
2358.15376	22591.0875
2360.98161	22511.2875
2363.80768	22488.3875
2366.63195	22534.1875
2369.45444	22473.7875
2372.27514	22394.1875
2375.09405	22407.0875
2377.91118	22331.2875
2380.72652	22282.3875
2383.54009	22249.9875
2386.35187	22222.6875
2389.16188	22163.3875
2391.97011	22173.2875
2394.77657	22150.9875
2397.58125	22125.5875
2400.38416	22086.4875
2403.18529	22049.8875
2405.98466	22023.6875
2408.78226	21987.9875
2411.57809	21949.7875
2414.37216	21935.3875
2417.16446	21905.4875
2419.955	21846.0875
2422.74378	21824.3875
2425.5308	21746.2875
2428.31606	21809.3875
2431.09956	21831.1875
2433.88131	21822.3875
2436.6613	21832.0875
2439.43954	21839.9875
2442.21603	21801.5875
2444.99077	21785.6875
2447.76377	21790.3875
2450.53501	21787.5875
2453.30451	21778.2875
2456.07226	21760.6875
2458.83827	21788.4875
2461.60254	21792.7875
2464.36507	21775.2875
2467.12586	21765.5875
2469.88492	21764.9875
2472.64224	21881.4875
2475.39782	21920.3875
2478.15167	21947.2875
2480.90379	21916.4875
2483.65417	21928.5875
2486.40283	21971.8875
2489.14976	22019.8875
2491.89497	22010.5875
2494.63845	22048.2875
2497.3802	22048.5875
2500.12024	22076.4875
2502.85855	22010.1875
2505.59514	22025.0875
2508.33002	21991.1875
2511.06318	21963.5875
2513.79462	21932.0875
2516.52435	21872.7875
2519.25237	21911.9875
2521.97867	21883.2875
2524.70327	21875.4875
2527.42616	21892.7875
2530.14734	21887.0875
2532.86681	21911.9875
2535.58458	21930.7875
2538.30065	21912.1875
2541.01501	21937.9875
2543.72768	21886.9875
2546.43864	21883.9875
2549.14791	21817.1875
2551.85548	21870.2875
2554.56136	21855.7875
2557.26554	21818.5875
2559.96803	21845.0875
2562.66883	21816.9875
2565.36794	21751.8875
2568.06536	21765.0875
2570.7611	21755.0875
2573.45514	21771.4875
2576.14751	21774.8875
2578.83819	21796.1875
2581.52719	21836.7875
2584.21451	21853.4875
2586.90015	21863.8875
2589.58411	21855.0875
2592.2664	21865.2875
2594.94701	21793.6875
2597.62594	21779.2875
2600.30321	21749.4875
2602.9788	21784.6875
2605.65273	21750.2875
2608.32498	21812.6875
2610.99557	21779.4875
2613.66449	21856.2875
2616.33175	21798.2875
2618.99734	21825.8875
2621.66128	21803.9875
2624.32355	21789.8875
2626.98416	21829.5875
2629.64311	21798.7875
2632.30041	21869.2875
2634.95605	21821.4875
2637.61004	21785.4875
2640.26238	21708.9875
2642.91306	21731.2875
2645.56209	21696.4875
2648.20948	21721.7875
2650.85521	21725.3875
2653.4993	21698.2875
2656.14175	21669.5875
2658.78255	21694.3875
2661.42171	21737.2875
2664.05923	21807.5875
2666.6951	21800.5875
2669.32934	21840.1875
2671.96194	21860.3875
2674.59291	21860.0875
2677.22224	21866.6875
2679.84993	21855.3875
2682.476	21782.5875
2685.10043	21790.7875
2687.72324	21764.5875
2690.34441	21759.7875
2692.96396	21732.5875
2695.58188	21720.7875
2698.19818	21717.4875
2700.81285	21727.5875
2703.4259	21747.2875
2706.03733	21772.3875
2708.64714	21738.2875
2711.25533	21765.9875
2713.86191	21768.4875
2716.46687	21816.8875
2719.07021	21823.5875
2721.67194	21888.3875
2724.27206	21849.9875
2726.87057	21906.3875
2729.46747	21897.1875
2732.06276	21906.4875
2734.65644	21927.1875
2737.24852	21930.8875
2739.83899	21876.7875
2742.42786	21867.1875
2745.01513	21855.3875
2747.60079	21869.0875
2750.18486	21860.9875
2752.76733	21854.7875
2755.3482	21839.8875
2757.92747	21882.3875
2760.50515	21811.2875
2763.08123	21865.3875
2765.65573	21849.5875
2768.22863	21862.8875
2770.79994	21841.9875
2773.36967	21841.5875
2775.9378	21864.7875
2778.50435	21896.4875
2781.06932	21874.3875
2783.6327	21881.4875
2786.1945	21901.9875
2788.75471	21909.1875
2791.31335	21844.9875
2793.87041	21847.0875
2796.42589	21785.0875
2798.97979	21803.0875
2801.53212	21760.7875
2804.08288	21689.4875
2806.63206	21603.7875
2809.17967	21632.8875
2811.72571	21582.7875
2814.27018	21542.6875
2816.81308	21580.8875
2819.35442	21507.5875
2821.89419	21484.4875
2824.43239	21501.9875
2826.96904	21510.0875
2829.50412	21522.7875
2832.03763	21440.2875
2834.56959	21448.4875
2837.1	21403.1875
2839.62884	21438.7875
2842.15613	21448.1875
2844.68186	21476.5875
2847.20604	21501.5875
2849.72867	21515.8875
2852.24974	21496.3875
2854.76927	21537.3875
2857.28724	21515.1875
2859.80367	21494.8875
2862.31855	21474.2875
2864.83189	21468.8875
2867.34368	21412.8875
2869.85393	21424.8875
2872.36264	21386.4875
2874.8698	21352.5875
2877.37543	21379.8875
2879.87952	21467.0875
2882.38207	21450.2875
2884.88308	21435.3875
2887.38256	21423.1875
2889.88051	21415.5875
2892.37692	21477.0875
2894.8718	21500.5875
2897.36515	21500.1875
2899.85698	21540.9875
2902.34727	21581.0875
2904.83604	21586.7875
2907.32328	21689.6875
2909.809	21656.0875
2912.29319	21679.5875
2914.77587	21652.8875
2917.25702	21655.8875
2919.73665	21656.2875
2922.21476	21657.4875
2924.69136	21644.4875
2927.16644	21622.9875
2929.64	21582.5875
2932.11205	21566.1875
2934.58258	21499.3875
2937.05161	21549.9875
2939.51912	21488.0875
2941.98513	21497.6875
2944.44962	21462.5875
2946.91261	21377.7875
2949.37409	21361.5875
2951.83407	21347.1875
2954.29254	21355.7875
2956.74951	21332.8875
2959.20498	21333.9875
2961.65895	21308.6875
2964.11142	21290.8875
2966.56239	21236.3875
2969.01186	21269.1875
2971.45984	21204.4875
2973.90632	21216.7875
2976.35131	21144.9875
2978.7948	21074.1875
2981.23681	21061.8875
2983.67732	21017.6875
2986.11635	20976.0875
2988.55388	20929.9875
2990.98993	20886.5875
2993.4245	20812.9875
2995.85758	20768.4875
2998.28917	20741.3875
3000.71928	20730.5875
3003.14791	20714.1875
3005.57506	20681.3875
3008.00073	20586.3875
3010.42493	20644.7875
3012.84764	20638.5875
3015.26888	20626.5875
3017.68865	20535.3875
3020.10694	20545.1875
3022.52376	20447.2875
3024.9391	20449.6875
3027.35298	20430.4875
3029.76539	20439.0875
3032.17632	20394.2875
3034.5858	20365.3875
3036.9938	20355.6875
3039.40034	20398.7875
3041.80542	20380.2875
3044.20903	20344.1875
3046.61118	20361.6875
3049.01187	20313.5875
3051.4111	20354.1875
3053.80888	20299.5875
3056.20519	20278.7875
3058.60005	20225.2875
3060.99345	20176.5875
3063.3854	20149.2875
3065.7759	20095.7875
3068.16494	20059.0875
3070.55254	19981.9875
3072.93868	19935.4875
3075.32338	19933.3875
3077.70662	19882.1875
3080.08842	19836.7875
3082.46878	19796.2875
3084.84769	19759.6875
3087.22515	19756.9875
3089.60118	19736.8875
3091.97576	19738.0875
3094.3489	19729.6875
3096.72061	19733.5875
3099.09087	19737.7875
3101.4597	19711.2875
3103.82709	19731.8875
3106.19305	19669.9875
3108.55757	19713.6875
3110.92066	19644.7875
3113.28232	19639.7875
3115.64255	19577.6875
3118.00134	19559.3875
3120.35871	19560.8875
3122.71466	19494.9875
3125.06917	19449.2875
3127.42226	19413.8875
3129.77393	19407.6875
3132.12417	19376.4875
3134.47299	19407.3875
3136.82039	19411.4875
3139.16636	19404.4875
3141.51092	19367.2875
3143.85406	19408.8875
3146.19579	19394.9875
3148.53609	19384.1875
3150.87499	19374.8875
3153.21246	19367.7875
3155.54853	19403.7875
3157.88318	19398.1875
3160.21642	19398.0875
3162.54826	19365.9875
3164.87868	19406.8875
3167.2077	19399.8875
3169.5353	19384.5875
3171.86151	19370.8875
3174.18631	19401.6875
3176.5097	19346.1875
3178.83169	19350.7875
3181.15228	19339.3875
3183.47147	19304.6875
3185.78926	19304.2875
3188.10565	19269.1875
3190.42065	19229.4875
3192.73424	19235.9875
3195.04645	19258.6875
3197.35725	19219.8875
3199.66667	19238.0875
3201.97469	19234.5875
3204.28132	19243.1875
3206.58656	19241.2875
3208.8904	19242.2875
3211.19287	19293.4875
3213.49394	19290.5875
3215.79363	19289.2875
3218.09193	19299.4875
3220.38884	19293.9875
3222.68438	19302.9875
3224.97853	19282.6875
3227.2713	19266.0875
3229.56269	19263.6875
3231.8527	19281.9875
3234.14133	19230.9875
3236.42858	19164.7875
3238.71446	19143.7875
3240.99896	19177.3875
3243.28209	19122.7875
3245.56384	19132.0875
3247.84423	19143.0875
3250.12324	19089.0875
3252.40088	19075.3875
3254.67715	19069.8875
3256.95205	19056.1875
3259.22558	19043.7875
3261.49775	19027.6875
3263.76855	18976.9875
3266.03799	18982.4875
3268.30606	18944.2875
3270.57277	18918.7875
3272.83812	18907.4875
3275.10211	18859.2875
3277.36474	18851.3875
3279.62601	18835.5875
3281.88593	18829.4875
3284.14448	18831.9875
3286.40168	18879.1875
3288.65753	18854.7875
3290.91202	18839.0875
3293.16516	18757.0875
3295.41695	18711.3875
3297.66738	18641.9875
3299.91647	18591.1875
3302.16421	18444.5875
3304.4106	18375.2875
3306.65564	18247.2875
3308.89933	18139.8875
3311.14169	17982.0875
3313.38269	17878.9875
3315.62236	17756.3875
3317.86068	17621.2875
3320.09766	17487.3875
3322.3333	17396.5875
3324.5676	17335.9875
3326.80056	17033.1875
3329.03219	16966.9875
3331.26248	5.3875
3333.49143	-2.0125
3335.71905	-0.4125
