Data from AgNPs_FTO_APTES_UA_5uM_CRN_20uM_R6G_10uM_NaF_0.1M_Addition_RamanShift__20__13-26-16-783.txt Node

Date: Mon Feb 07 13:26:16 GMT 2022
User: TCL
Spectrometer: QEP01345
Trigger mode: 4
Integration Time (sec): 7.000000E0
Scans to average: 10
Electric dark correction enabled: true
Nonlinearity correction enabled: false
Boxcar width: 0
XAxis mode: Raman Shifts
Number of Pixels in Spectrum: 1044
>>>>>Begin Spectral Data<<<<<
46.04893	-0.675
50.45542	-0.575
54.85868	0.025
59.25871	-0.475
63.6555	83.825
68.04907	87.525
72.43941	96.625
76.82654	94.725
81.21044	94.025
85.59113	99.925
89.96862	104.625
94.34289	105.625
98.71396	111.025
103.08183	114.025
107.4465	117.025
111.80798	122.825
116.16626	125.225
120.52136	132.925
124.87327	139.525
129.222	148.925
133.56755	162.025
137.90993	178.425
142.24913	189.525
146.58517	224.425
150.91804	262.425
155.24774	313.325
159.57429	401.825
163.89768	524.025
168.21792	700.625
172.53501	961.325
176.84895	1339.425
181.15975	1893.225
185.46741	2656.025
189.77193	3664.025
194.07331	4876.025
198.37157	6276.925
202.6667	7748.325
206.9587	9194.625
211.24758	10629.925
215.53334	12058.625
219.81599	13581.225
224.09553	15281.725
228.37195	17193.125
232.64527	19238.725
236.91549	21409.825
241.18261	23528.825
245.44663	25521.625
249.70755	27320.525
253.96539	28907.925
258.22014	30241.425
262.4718	31411.925
266.72039	32261.825
270.96589	32838.225
275.20832	33077.725
279.44768	33132.225
283.68397	33140.025
287.91719	33112.225
292.14735	33181.725
296.37445	33387.325
300.59849	33542.625
304.81948	33545.225
309.03742	33194.125
313.25231	32539.125
317.46415	31522.325
321.67296	30448.125
325.87872	29465.925
330.08145	28957.125
334.28114	28825.325
338.47781	29031.525
342.67145	29343.725
346.86207	29766.725
351.04966	30384.625
355.23424	31057.825
359.4158	31522.825
363.59435	31867.425
367.76989	32029.125
371.94243	32140.425
376.11196	32268.225
380.27849	32437.325
384.44203	32628.325
388.60257	32875.325
392.76012	33296.725
396.91468	33779.525
401.06626	34249.725
405.21485	34632.725
409.36047	34497.925
413.50311	33871.225
417.64277	33486.625
421.77947	33466.325
425.9132	33680.425
430.04396	33969.325
434.17176	34174.925
438.2966	34525.825
442.41849	35188.125
446.53742	36179.425
450.6534	37371.625
454.76644	38316.325
458.87653	38691.925
462.98368	38576.425
467.08789	38248.825
471.18916	37854.625
475.2875	37636.925
479.38291	37636.425
483.4754	37572.325
487.56496	36978.225
491.6516	36037.625
495.73531	35193.325
499.81612	34666.425
503.89401	34630.125
507.96899	34700.325
512.04106	34477.225
516.11023	34080.025
520.1765	33667.725
524.23987	33165.325
528.30034	32747.025
532.35792	32451.525
536.41261	32073.825
540.46441	31806.625
544.51333	31915.625
548.55936	32556.425
552.60252	33472.325
556.64279	34541.225
560.6802	35312.625
564.71473	35833.325
568.7464	36582.525
572.7752	37617.225
576.80114	38388.425
580.82422	38852.225
584.84444	39349.325
588.86181	39709.425
592.87633	40217.125
596.888	40599.825
600.89682	40546.825
604.9028	41468.425
608.90594	44312.025
612.90624	47142.425
616.90371	43840.425
620.89834	36646.925
624.89015	33609.625
628.87913	33485.325
632.86528	33669.825
636.84862	33467.125
640.82913	32772.125
644.80683	31672.625
648.78172	30881.525
652.75379	30515.325
656.72306	30808.025
660.68952	31293.225
664.65319	31205.525
668.61405	30680.625
672.57211	30483.925
676.52738	30545.825
680.47986	30513.925
684.42955	30367.025
688.37646	30278.325
692.32058	30435.225
696.26192	30791.725
700.20048	31158.125
704.13626	31453.325
708.06928	31437.225
711.99952	31243.025
715.927	31123.625
719.85171	31130.425
723.77365	31003.325
727.69284	30628.325
731.60928	30325.625
735.52295	30177.325
739.43388	30214.825
743.34206	30298.325
747.24749	30500.025
751.15017	30846.825
755.05012	31598.425
758.94733	32750.225
762.8418	34787.625
766.73354	37742.625
770.62254	40365.125
774.50882	40600.725
778.39237	38237.625
782.27321	34992.825
786.15132	32530.125
790.02671	31037.425
793.89938	30289.325
797.76935	30045.025
801.6366	30034.225
805.50115	29991.925
809.36299	29824.625
813.22213	29600.025
817.07857	29533.025
820.93231	29469.925
824.78336	29334.125
828.63172	29103.425
832.47738	29009.325
836.32036	29031.025
840.16066	29153.625
843.99827	29288.925
847.8332	29200.425
851.66546	29002.025
855.49504	28893.225
859.32195	28865.325
863.1462	28779.925
866.96777	28602.625
870.78668	28503.525
874.60293	28446.225
878.41652	28423.625
882.22745	28533.625
886.03573	28603.125
889.84136	28620.925
893.64433	28512.125
897.44466	28364.425
901.24235	28287.825
905.0374	28157.825
908.8298	28165.125
912.61957	28251.425
916.40671	28595.525
920.19121	29172.225
923.97308	29561.925
927.75233	29544.125
931.52895	29272.825
935.30295	28788.025
939.07433	28156.225
942.84309	27672.625
946.60924	27423.525
950.37278	27295.025
954.13371	27221.025
957.89203	27105.625
961.64774	27121.725
965.40086	27121.125
969.15137	26975.325
972.89929	26771.725
976.64461	26567.325
980.38733	26538.425
984.12747	26662.825
987.86502	26921.825
991.59999	27311.225
995.33237	27930.825
999.06217	28884.025
1002.78939	30034.225
1006.51404	30662.325
1010.23611	30956.825
1013.95561	31256.325
1017.67255	31330.625
1021.38692	31005.225
1025.09872	30556.625
1028.80796	30753.825
1032.51465	31656.825
1036.21877	32546.325
1039.92035	32713.025
1043.61937	32285.025
1047.31584	31395.525
1051.00976	30538.925
1054.70114	30170.925
1058.38998	30243.425
1062.07627	30584.425
1065.76003	30870.525
1069.44126	31135.825
1073.11995	31468.725
1076.79611	31722.225
1080.46974	31895.325
1084.14085	32101.125
1087.80943	32483.425
1091.47549	32831.425
1095.13903	32887.925
1098.80005	32540.725
1102.45857	31760.425
1106.11456	31110.025
1109.76805	30856.725
1113.41903	30948.225
1117.06751	31169.225
1120.71348	31594.725
1124.35696	31959.125
1127.99793	32420.825
1131.63641	32603.525
1135.2724	32500.425
1138.90589	32324.325
1142.5369	32245.625
1146.16542	32394.925
1149.79145	32768.025
1153.415	33278.425
1157.03607	34063.625
1160.65467	35240.925
1164.27079	36987.025
1167.88443	39347.525
1171.49561	42279.425
1175.10432	45986.625
1178.71056	50544.725
1182.31434	54709.025
1185.91565	57115.625
1189.51451	57378.125
1193.11091	55991.625
1196.70485	53677.425
1200.29634	50958.925
1203.88538	48887.625
1207.47197	47522.225
1211.05612	46486.525
1214.63782	45503.025
1218.21708	44546.425
1221.79391	43763.125
1225.36829	43152.925
1228.94024	42449.225
1232.50976	41422.125
1236.07685	40735.925
1239.6415	40367.525
1243.20374	40263.225
1246.76355	40448.025
1250.32093	41150.825
1253.8759	42220.125
1257.42845	43620.925
1260.97859	44963.225
1264.52631	46282.825
1268.07163	47604.325
1271.61453	49164.725
1275.15503	51001.725
1278.69312	53050.725
1282.22882	54829.525
1285.76211	56640.125
1289.29301	58666.425
1292.82151	61402.125
1296.34761	64990.525
1299.87133	69230.625
1303.39266	73845.125
1306.9116	78493.225
1310.42815	82800.525
1313.94233	85546.525
1317.45412	86097.025
1320.96354	85219.725
1324.47058	83961.525
1327.97525	82865.025
1331.47754	81953.125
1334.97747	81534.225
1338.47502	81461.125
1341.97022	81227.825
1345.46305	79948.125
1348.95352	77768.525
1352.44163	75406.725
1355.92738	74463.225
1359.41078	75756.825
1362.89183	77269.125
1366.37053	75635.925
1369.84688	69939.025
1373.32088	63270.425
1376.79254	58639.625
1380.26186	57033.925
1383.72883	57325.625
1387.19347	57919.325
1390.65578	58235.525
1394.11575	58798.525
1397.57339	60048.425
1401.0287	61723.125
1404.48168	63076.325
1407.93234	63429.825
1411.38068	62216.625
1414.82669	59674.125
1418.27039	56303.725
1421.71177	52814.425
1425.15083	50050.325
1428.58758	48573.725
1432.02203	48493.525
1435.45416	49626.325
1438.88399	51282.325
1442.31151	52844.825
1445.73673	54261.625
1449.15965	55567.425
1452.58027	56662.625
1455.9986	57331.425
1459.41463	57962.325
1462.82837	58777.725
1466.23982	59784.225
1469.64898	60503.025
1473.05586	60662.025
1476.46045	60183.425
1479.86276	59400.825
1483.26279	58374.625
1486.66054	57666.725
1490.05602	57494.725
1493.44922	57454.825
1496.84016	57500.525
1500.22882	58132.225
1503.61521	59225.525
1506.99934	60964.225
1510.38121	62550.725
1513.76081	63461.825
1517.13816	62824.025
1520.51324	61128.025
1523.88607	59648.425
1527.25665	58934.625
1530.62498	58578.125
1533.99105	58538.025
1537.35488	58482.525
1540.71647	57835.025
1544.07581	56616.825
1547.4329	55031.125
1550.78776	53683.125
1554.14038	52723.125
1557.49077	52197.025
1560.83892	52053.825
1564.18484	51962.025
1567.52853	51758.125
1570.86999	51932.825
1574.20922	52691.925
1577.54624	53602.025
1580.88103	54340.725
1584.2136	55323.325
1587.54395	57335.425
1590.87208	60524.225
1594.19801	64436.325
1597.52172	68011.025
1600.84321	68926.725
1604.16251	65618.825
1607.47959	59925.325
1610.79447	53976.925
1614.10715	48565.525
1617.41763	44153.625
1620.7259	41027.925
1624.03199	39370.825
1627.33587	39236.925
1630.63757	40511.725
1633.93707	43685.425
1637.23439	48572.125
1640.52951	55115.425
1643.82246	62105.025
1647.11321	67351.925
1650.40179	67918.425
1653.68819	63045.225
1656.97241	54596.625
1660.25446	45970.925
1663.53433	39300.125
1666.81203	34795.425
1670.08756	31918.025
1673.36092	30133.625
1676.63211	28951.425
1679.90115	28117.425
1683.16801	27548.325
1686.43272	27085.425
1689.69527	26700.325
1692.95567	26509.925
1696.2139	26306.825
1699.46999	26117.725
1702.72392	25997.825
1705.97571	25915.325
1709.22535	25810.625
1712.47284	25722.825
1715.71819	25635.325
1718.96139	25563.925
1722.20246	25465.525
1725.44139	25330.925
1728.67818	25164.625
1731.91284	24985.925
1735.14537	24807.925
1738.37576	24686.225
1741.60403	24576.025
1744.83017	24518.825
1748.05418	24405.725
1751.27607	24366.725
1754.49584	24322.125
1757.71349	24291.925
1760.92903	24259.725
1764.14244	24228.225
1767.35375	24216.225
1770.56294	24164.825
1773.77002	24127.525
1776.97499	24006.025
1780.17785	24017.725
1783.37861	23944.425
1786.57727	23915.125
1789.77382	23850.425
1792.96828	23845.925
1796.16064	23827.725
1799.3509	23741.925
1802.53907	23712.725
1805.72514	23608.925
1808.90913	23554.425
1812.09102	23491.225
1815.27083	23394.325
1818.44856	23401.225
1821.6242	23332.325
1824.79776	23368.825
1827.96924	23293.725
1831.13864	23298.125
1834.30597	23295.525
1837.47122	23315.125
1840.6344	23309.925
1843.7955	23322.425
1846.95454	23347.925
1850.11151	23343.425
1853.26642	23333.125
1856.41926	23334.525
1859.57004	23367.525
1862.71876	23374.025
1865.86542	23345.925
1869.01003	23298.525
1872.15258	23303.425
1875.29308	23288.825
1878.43152	23235.825
1881.56792	23305.125
1884.70227	23304.125
1887.83457	23249.125
1890.96482	23209.725
1894.09304	23249.425
1897.21921	23220.625
1900.34335	23244.125
1903.46544	23242.725
1906.58551	23225.325
1909.70353	23233.825
1912.81953	23170.625
1915.93349	23094.825
1919.04543	23047.225
1922.15534	22984.725
1925.26322	22916.625
1928.36908	22822.725
1931.47292	22781.225
1934.57473	22656.225
1937.67453	22636.125
1940.77232	22558.025
1943.86808	22436.425
1946.96184	22369.225
1950.05358	22283.825
1953.14331	22211.425
1956.23103	22121.625
1959.31675	22014.825
1962.40046	21966.125
1965.48217	21892.925
1968.56188	21854.925
1971.63959	21755.625
1974.7153	21715.225
1977.78901	21653.025
1980.86073	21537.325
1983.93046	21493.425
1986.99819	21418.625
1990.06394	21337.925
1993.1277	21298.825
1996.18947	21213.025
1999.24925	21163.425
2002.30706	21103.825
2005.36288	21031.725
2008.41672	20997.625
2011.46859	20896.625
2014.51848	20900.525
2017.56639	20832.525
2020.61233	20782.825
2023.6563	20736.825
2026.6983	20679.925
2029.73833	20621.825
2032.7764	20564.925
2035.8125	20573.925
2038.84664	20541.225
2041.87881	20525.425
2044.90903	20480.625
2047.93729	20476.225
2050.96359	20442.825
2053.98794	20418.625
2057.01034	20394.725
2060.03078	20394.725
2063.04927	20369.025
2066.06582	20339.425
2069.08042	20339.725
2072.09307	20311.925
2075.10378	20255.125
2078.11255	20231.225
2081.11938	20228.425
2084.12426	20216.125
2087.12722	20185.725
2090.12824	20188.325
2093.12732	20145.225
2096.12447	20198.825
2099.11969	20181.425
2102.11299	20167.525
2105.10435	20156.125
2108.09379	20165.625
2111.08131	20135.825
2114.0669	20188.725
2117.05057	20223.225
2120.03233	20215.525
2123.01216	20248.825
2125.99008	20259.125
2128.96609	20253.925
2131.94018	20270.925
2134.91236	20298.025
2137.88263	20291.925
2140.851	20316.425
2143.81746	20322.625
2146.78201	20301.925
2149.74466	20318.825
2152.7054	20274.225
2155.66425	20270.925
2158.6212	20314.125
2161.57625	20261.325
2164.52941	20282.625
2167.48067	20216.425
2170.43004	20234.525
2173.37752	20248.125
2176.32311	20234.525
2179.26681	20252.425
2182.20863	20262.925
2185.14856	20263.425
2188.08661	20258.825
2191.02278	20281.725
2193.95707	20291.625
2196.88948	20226.125
2199.82001	20210.525
2202.74867	20190.225
2205.67545	20183.825
2208.60037	20188.225
2211.52341	20159.825
2214.44458	20179.825
2217.36388	20157.925
2220.28132	20087.525
2223.1969	20049.025
2226.11061	20017.325
2229.02246	19987.825
2231.93245	19912.225
2234.84058	19866.025
2237.74686	19864.725
2240.65128	19797.625
2243.55385	19781.525
2246.45456	19754.825
2249.35343	19717.325
2252.25044	19707.825
2255.14561	19683.425
2258.03893	19659.425
2260.93041	19619.425
2263.82004	19544.025
2266.70783	19514.325
2269.59378	19439.125
2272.4779	19435.825
2275.36017	19343.325
2278.24061	19326.125
2281.11922	19275.025
2283.996	19237.525
2286.87094	19242.225
2289.74405	19225.925
2292.61534	19185.425
2295.4848	19196.425
2298.35243	19186.425
2301.21824	19193.725
2304.08223	19230.625
2306.94439	19270.125
2309.80474	19249.025
2312.66327	19290.125
2315.51999	19293.325
2318.37489	19237.225
2321.22797	19228.125
2324.07925	19224.725
2326.92871	19181.125
2329.77637	19136.225
2332.62222	19149.025
2335.46626	19136.625
2338.3085	19153.025
2341.14893	19172.925
2343.98756	19203.525
2346.8244	19210.025
2349.65943	19187.125
2352.49267	19180.725
2355.32411	19222.325
2358.15376	19220.225
2360.98161	19191.525
2363.80768	19191.425
2366.63195	19169.825
2369.45444	19130.325
2372.27514	19077.625
2375.09405	19077.025
2377.91118	18991.925
2380.72652	18924.825
2383.54009	18906.425
2386.35187	18864.625
2389.16188	18837.425
2391.97011	18806.025
2394.77657	18778.725
2397.58125	18753.225
2400.38416	18716.325
2403.18529	18692.825
2405.98466	18657.725
2408.78226	18642.325
2411.57809	18572.825
2414.37216	18572.825
2417.16446	18566.225
2419.955	18550.425
2422.74378	18539.225
2425.5308	18451.525
2428.31606	18436.425
2431.09956	18475.025
2433.88131	18448.425
2436.6613	18468.425
2439.43954	18467.825
2442.21603	18477.525
2444.99077	18436.525
2447.76377	18432.325
2450.53501	18426.525
2453.30451	18431.425
2456.07226	18414.925
2458.83827	18455.325
2461.60254	18440.225
2464.36507	18402.625
2467.12586	18410.025
2469.88492	18458.925
2472.64224	18470.125
2475.39782	18516.025
2478.15167	18521.625
2480.90379	18486.025
2483.65417	18507.525
2486.40283	18511.125
2489.14976	18609.225
2491.89497	18584.925
2494.63845	18604.725
2497.3802	18615.125
2500.12024	18632.025
2502.85855	18591.225
2505.59514	18614.625
2508.33002	18562.925
2511.06318	18564.025
2513.79462	18539.325
2516.52435	18530.025
2519.25237	18561.625
2521.97867	18509.725
2524.70327	18506.925
2527.42616	18483.525
2530.14734	18546.425
2532.86681	18502.825
2535.58458	18512.025
2538.30065	18497.325
2541.01501	18497.225
2543.72768	18475.425
2546.43864	18474.425
2549.14791	18452.025
2551.85548	18471.425
2554.56136	18423.325
2557.26554	18388.125
2559.96803	18374.325
2562.66883	18365.125
2565.36794	18358.325
2568.06536	18349.225
2570.7611	18349.625
2573.45514	18340.625
2576.14751	18375.825
2578.83819	18331.425
2581.52719	18315.125
2584.21451	18328.025
2586.90015	18375.925
2589.58411	18354.025
2592.2664	18367.625
2594.94701	18368.325
2597.62594	18350.625
2600.30321	18330.825
2602.9788	18348.225
2605.65273	18343.925
2608.32498	18352.925
2610.99557	18367.525
2613.66449	18394.225
2616.33175	18375.125
2618.99734	18400.525
2621.66128	18412.625
2624.32355	18412.725
2626.98416	18418.725
2629.64311	18440.525
2632.30041	18456.525
2634.95605	18406.225
2637.61004	18410.225
2640.26238	18416.125
2642.91306	18377.425
2645.56209	18336.925
2648.20948	18384.625
2650.85521	18389.525
2653.4993	18384.925
2656.14175	18395.025
2658.78255	18388.525
2661.42171	18409.425
2664.05923	18425.225
2666.6951	18400.525
2669.32934	18468.825
2671.96194	18461.825
2674.59291	18444.125
2677.22224	18487.125
2679.84993	18480.025
2682.476	18415.425
2685.10043	18392.725
2687.72324	18386.225
2690.34441	18345.025
2692.96396	18361.525
2695.58188	18385.025
2698.19818	18346.225
2700.81285	18404.725
2703.4259	18363.025
2706.03733	18408.725
2708.64714	18440.925
2711.25533	18428.525
2713.86191	18438.625
2716.46687	18423.225
2719.07021	18460.925
2721.67194	18487.525
2724.27206	18474.825
2726.87057	18501.525
2729.46747	18525.025
2732.06276	18539.825
2734.65644	18532.825
2737.24852	18504.125
2739.83899	18495.825
2742.42786	18529.325
2745.01513	18516.425
2747.60079	18523.725
2750.18486	18471.625
2752.76733	18469.225
2755.3482	18496.625
2757.92747	18512.825
2760.50515	18520.325
2763.08123	18491.725
2765.65573	18520.125
2768.22863	18533.825
2770.79994	18459.025
2773.36967	18533.725
2775.9378	18536.825
2778.50435	18510.725
2781.06932	18534.025
2783.6327	18526.725
2786.1945	18537.925
2788.75471	18548.425
2791.31335	18511.925
2793.87041	18478.325
2796.42589	18396.225
2798.97979	18432.125
2801.53212	18399.225
2804.08288	18352.525
2806.63206	18324.625
2809.17967	18276.025
2811.72571	18259.625
2814.27018	18259.325
2816.81308	18225.725
2819.35442	18170.225
2821.89419	18138.725
2824.43239	18175.625
2826.96904	18183.225
2829.50412	18180.125
2832.03763	18106.225
2834.56959	18106.425
2837.1	18089.625
2839.62884	18075.625
2842.15613	18089.425
2844.68186	18134.225
2847.20604	18131.125
2849.72867	18146.525
2852.24974	18136.225
2854.76927	18160.125
2857.28724	18142.325
2859.80367	18134.825
2862.31855	18078.725
2864.83189	18051.225
2867.34368	18028.525
2869.85393	18043.525
2872.36264	18015.225
2874.8698	17994.025
2877.37543	17978.025
2879.87952	17976.425
2882.38207	17990.125
2884.88308	18021.225
2887.38256	18015.625
2889.88051	18002.825
2892.37692	18010.625
2894.8718	18028.225
2897.36515	18072.125
2899.85698	18067.825
2902.34727	18164.325
2904.83604	18185.425
2907.32328	18197.125
2909.809	18190.125
2912.29319	18214.725
2914.77587	18209.025
2917.25702	18236.325
2919.73665	18213.425
2922.21476	18185.225
2924.69136	18151.425
2927.16644	18177.725
2929.64	18106.125
2932.11205	18091.725
2934.58258	18009.425
2937.05161	18040.725
2939.51912	18050.825
2941.98513	18057.025
2944.44962	17997.925
2946.91261	17913.725
2949.37409	17937.825
2951.83407	17902.125
2954.29254	17878.925
2956.74951	17863.225
2959.20498	17845.925
2961.65895	17818.825
2964.11142	17816.925
2966.56239	17793.325
2969.01186	17797.425
2971.45984	17745.025
2973.90632	17724.425
2976.35131	17709.125
2978.7948	17656.025
2981.23681	17614.525
2983.67732	17580.225
2986.11635	17504.025
2988.55388	17491.725
2990.98993	17466.625
2993.4245	17363.925
2995.85758	17360.425
2998.28917	17278.425
3000.71928	17257.825
3003.14791	17249.025
3005.57506	17196.025
3008.00073	17165.625
3010.42493	17041.925
3012.84764	17080.425
3015.26888	17063.025
3017.68865	17015.525
3020.10694	17008.125
3022.52376	16970.525
3024.9391	16981.025
3027.35298	16939.125
3029.76539	16918.925
3032.17632	16902.325
3034.5858	16897.325
3036.9938	16893.525
3039.40034	16886.925
3041.80542	16870.525
3044.20903	16858.425
3046.61118	16846.225
3049.01187	16812.825
3051.4111	16817.325
3053.80888	16793.825
3056.20519	16732.825
3058.60005	16692.725
3060.99345	16666.025
3063.3854	16627.825
3065.7759	16540.625
3068.16494	16505.825
3070.55254	16421.425
3072.93868	16377.925
3075.32338	16336.725
3077.70662	16284.125
3080.08842	16232.125
3082.46878	16238.125
3084.84769	16188.425
3087.22515	16199.125
3089.60118	16192.525
3091.97576	16158.725
3094.3489	16154.125
3096.72061	16121.625
3099.09087	16142.325
3101.4597	16126.925
3103.82709	16133.925
3106.19305	16109.925
3108.55757	16107.925
3110.92066	16032.625
3113.28232	15980.625
3115.64255	15979.925
3118.00134	15990.925
3120.35871	15941.225
3122.71466	15909.225
3125.06917	15858.625
3127.42226	15811.925
3129.77393	15811.725
3132.12417	15754.025
3134.47299	15721.025
3136.82039	15736.925
3139.16636	15742.025
3141.51092	15693.225
3143.85406	15705.225
3146.19579	15673.925
3148.53609	15682.625
3150.87499	15716.025
3153.21246	15705.225
3155.54853	15740.725
3157.88318	15672.525
3160.21642	15731.625
3162.54826	15741.625
3164.87868	15732.225
3167.2077	15748.325
3169.5353	15739.525
3171.86151	15754.025
3174.18631	15741.425
3176.5097	15735.925
3178.83169	15692.225
3181.15228	15679.925
3183.47147	15638.225
3185.78926	15647.925
3188.10565	15614.525
3190.42065	15600.925
3192.73424	15603.925
3195.04645	15586.025
3197.35725	15582.925
3199.66667	15580.725
3201.97469	15558.425
3204.28132	15581.825
3206.58656	15568.725
3208.8904	15596.925
3211.19287	15554.525
3213.49394	15590.425
3215.79363	15608.525
3218.09193	15572.925
3220.38884	15583.025
3222.68438	15602.925
3224.97853	15544.825
3227.2713	15549.725
3229.56269	15501.325
3231.8527	15514.825
3234.14133	15491.525
3236.42858	15476.625
3238.71446	15465.225
3240.99896	15418.525
3243.28209	15413.025
3245.56384	15386.825
3247.84423	15369.925
3250.12324	15344.825
3252.40088	15338.525
3254.67715	15332.125
3256.95205	15312.125
3259.22558	15335.025
3261.49775	15293.525
3263.76855	15269.525
3266.03799	15192.225
3268.30606	15190.125
3270.57277	15185.825
3272.83812	15130.925
3275.10211	15104.525
3277.36474	15074.525
3279.62601	15101.525
3281.88593	15069.525
3284.14448	15070.625
3286.40168	15102.625
3288.65753	15067.125
3290.91202	15077.625
3293.16516	15030.025
3295.41695	15019.125
3297.66738	14931.025
3299.91647	14851.825
3302.16421	14749.025
3304.4106	14672.725
3306.65564	14597.025
3308.89933	14469.425
3311.14169	14378.325
3313.38269	14224.725
3315.62236	14165.825
3317.86068	14061.025
3320.09766	13933.325
3322.3333	13864.325
3324.5676	13808.725
3326.80056	13570.225
3329.03219	13504.025
3331.26248	3.625
3333.49143	-1.275
3335.71905	-0.975
