Data from AgNPs_FTO_APTES_UA_5uM_CRN_50uM_R6G_10uM_NaF_0.1M_Addition_RamanShift__41__14-30-26-857.txt Node

Date: Mon Feb 07 14:30:26 GMT 2022
User: TCL
Spectrometer: QEP01345
Trigger mode: 4
Integration Time (sec): 7.000000E0
Scans to average: 10
Electric dark correction enabled: true
Nonlinearity correction enabled: false
Boxcar width: 0
XAxis mode: Raman Shifts
Number of Pixels in Spectrum: 1044
>>>>>Begin Spectral Data<<<<<
46.04893	-0.9625
50.45542	-2.1625
54.85868	-1.4625
59.25871	1.0375
63.6555	78.3375
68.04907	76.5375
72.43941	80.4375
76.82654	82.5375
81.21044	85.3375
85.59113	90.7375
89.96862	92.8375
94.34289	93.1375
98.71396	97.7375
103.08183	101.3375
107.4465	104.3375
111.80798	107.3375
116.16626	110.0375
120.52136	117.8375
124.87327	125.0375
129.222	130.6375
133.56755	144.2375
137.90993	151.8375
142.24913	173.8375
146.58517	196.7375
150.91804	231.5375
155.24774	278.3375
159.57429	351.2375
163.89768	454.0375
168.21792	607.8375
172.53501	840.0375
176.84895	1159.1375
181.15975	1646.0375
185.46741	2309.7375
189.77193	3193.6375
194.07331	4281.0375
198.37157	5513.3375
202.6667	6811.0375
206.9587	8097.1375
211.24758	9353.0375
215.53334	10640.9375
219.81599	11930.8375
224.09553	13403.7375
228.37195	14978.1375
232.64527	16666.6375
236.91549	18473.3375
241.18261	20320.2375
245.44663	22079.6375
249.70755	23658.9375
253.96539	25070.4375
258.22014	26268.7375
262.4718	27259.4375
266.72039	27977.5375
270.96589	28327.2375
275.20832	28466.3375
279.44768	28373.4375
283.68397	28162.5375
287.91719	28021.8375
292.14735	27902.7375
296.37445	27891.4375
300.59849	28023.1375
304.81948	28069.2375
309.03742	27987.7375
313.25231	27742.4375
317.46415	27164.1375
321.67296	26539.3375
325.87872	25985.6375
330.08145	25724.6375
334.28114	25648.6375
338.47781	25731.8375
342.67145	25927.8375
346.86207	26246.3375
351.04966	26626.3375
355.23424	27053.4375
359.4158	27397.7375
363.59435	27733.1375
367.76989	27936.3375
371.94243	28096.6375
376.11196	28217.8375
380.27849	28252.2375
384.44203	28325.4375
388.60257	28532.8375
392.76012	28921.7375
396.91468	29367.8375
401.06626	29809.0375
405.21485	30042.3375
409.36047	29988.3375
413.50311	29689.0375
417.64277	29628.1375
421.77947	29798.5375
425.9132	29960.2375
430.04396	30175.1375
434.17176	30292.2375
438.2966	30474.0375
442.41849	30917.3375
446.53742	31662.8375
450.6534	32494.2375
454.76644	33098.7375
458.87653	33323.8375
462.98368	33239.6375
467.08789	32929.7375
471.18916	32539.2375
475.2875	32300.8375
479.38291	32267.4375
483.4754	32215.5375
487.56496	31859.5375
491.6516	31266.1375
495.73531	30601.3375
499.81612	30147.5375
503.89401	30131.6375
507.96899	30276.6375
512.04106	30244.2375
516.11023	29956.8375
520.1765	29502.1375
524.23987	29082.0375
528.30034	28658.9375
532.35792	28424.4375
536.41261	28140.1375
540.46441	27954.8375
544.51333	27964.8375
548.55936	28320.2375
552.60252	28977.6375
556.64279	29721.1375
560.6802	30375.2375
564.71473	30841.7375
568.7464	31619.1375
572.7752	32868.5375
576.80114	34211.5375
580.82422	35376.7375
584.84444	36674.4375
588.86181	38221.2375
592.87633	39399.7375
596.888	38793.4375
600.89682	36818.2375
604.9028	35663.2375
608.90594	36305.0375
612.90624	37271.8375
616.90371	35010.3375
620.89834	30573.3375
624.89015	28672.6375
628.87913	28528.1375
632.86528	28752.0375
636.84862	28690.5375
640.82913	28161.2375
644.80683	27614.9375
648.78172	27263.6375
652.75379	27210.7375
656.72306	27375.0375
660.68952	27643.2375
664.65319	27450.1375
668.61405	27091.0375
672.57211	27026.6375
676.52738	27150.0375
680.47986	27143.8375
684.42955	26965.5375
688.37646	26841.8375
692.32058	26997.8375
696.26192	27347.9375
700.20048	27708.2375
704.13626	27982.1375
708.06928	28113.6375
711.99952	28094.8375
715.927	28103.8375
719.85171	28131.0375
723.77365	27946.0375
727.69284	27515.9375
731.60928	27095.5375
735.52295	26921.6375
739.43388	26897.3375
743.34206	26988.7375
747.24749	27163.3375
751.15017	27451.0375
755.05012	28040.4375
758.94733	28832.4375
762.8418	30085.6375
766.73354	31794.7375
770.62254	33208.1375
774.50882	33161.8375
778.39237	31651.6375
782.27321	29750.5375
786.15132	28271.5375
790.02671	27291.7375
793.89938	26865.9375
797.76935	26648.7375
801.6366	26613.7375
805.50115	26568.6375
809.36299	26467.0375
813.22213	26358.9375
817.07857	26270.7375
820.93231	26142.6375
824.78336	25943.9375
828.63172	25759.2375
832.47738	25626.3375
836.32036	25572.7375
840.16066	25605.7375
843.99827	25652.6375
847.8332	25593.1375
851.66546	25642.5375
855.49504	25634.9375
859.32195	25633.4375
863.1462	25538.5375
866.96777	25442.2375
870.78668	25356.1375
874.60293	25344.3375
878.41652	25365.3375
882.22745	25377.0375
886.03573	25473.7375
889.84136	25467.1375
893.64433	25379.1375
897.44466	25291.5375
901.24235	25230.7375
905.0374	25157.6375
908.8298	25164.0375
912.61957	25269.5375
916.40671	25594.5375
920.19121	26054.1375
923.97308	26363.2375
927.75233	26201.7375
931.52895	25792.2375
935.30295	25284.1375
939.07433	24793.5375
942.84309	24499.9375
946.60924	24313.1375
950.37278	24243.0375
954.13371	24239.3375
957.89203	24205.4375
961.64774	24229.1375
965.40086	24242.1375
969.15137	24133.3375
972.89929	23976.8375
976.64461	23821.5375
980.38733	23749.0375
984.12747	23748.3375
987.86502	23817.9375
991.59999	23983.8375
995.33237	24158.5375
999.06217	24458.3375
1002.78939	24872.6375
1006.51404	25290.1375
1010.23611	25643.6375
1013.95561	25920.9375
1017.67255	25972.7375
1021.38692	25808.0375
1025.09872	25444.1375
1028.80796	25130.1375
1032.51465	25158.5375
1036.21877	25322.2375
1039.92035	25454.1375
1043.61937	25549.3375
1047.31584	25485.1375
1051.00976	25476.2375
1054.70114	25540.9375
1058.38998	25716.1375
1062.07627	26063.3375
1065.76003	26408.7375
1069.44126	26782.6375
1073.11995	27145.7375
1076.79611	27454.8375
1080.46974	27551.2375
1084.14085	27620.8375
1087.80943	27888.2375
1091.47549	28250.6375
1095.13903	28396.7375
1098.80005	28145.1375
1102.45857	27456.6375
1106.11456	26799.3375
1109.76805	26442.9375
1113.41903	26412.0375
1117.06751	26567.2375
1120.71348	26795.9375
1124.35696	27079.4375
1127.99793	27399.6375
1131.63641	27683.8375
1135.2724	27632.4375
1138.90589	27654.9375
1142.5369	27884.4375
1146.16542	28227.9375
1149.79145	28666.7375
1153.415	29116.6375
1157.03607	29810.3375
1160.65467	30927.5375
1164.27079	32704.7375
1167.88443	34664.2375
1171.49561	36425.2375
1175.10432	38370.8375
1178.71056	40736.2375
1182.31434	42987.1375
1185.91565	44023.7375
1189.51451	43723.8375
1193.11091	42840.9375
1196.70485	41697.4375
1200.29634	40538.7375
1203.88538	39883.1375
1207.47197	39899.0375
1211.05612	39963.5375
1214.63782	39287.0375
1218.21708	37845.5375
1221.79391	36141.9375
1225.36829	34891.7375
1228.94024	34071.2375
1232.50976	33453.5375
1236.07685	32984.8375
1239.6415	32811.6375
1243.20374	32893.6375
1246.76355	33169.0375
1250.32093	33719.2375
1253.8759	34371.2375
1257.42845	35266.0375
1260.97859	36190.9375
1264.52631	37148.1375
1268.07163	38200.6375
1271.61453	39287.1375
1275.15503	40487.1375
1278.69312	41930.3375
1282.22882	43577.0375
1285.76211	45596.0375
1289.29301	47925.9375
1292.82151	50845.6375
1296.34761	54360.8375
1299.87133	58156.0375
1303.39266	61593.9375
1306.9116	64057.1375
1310.42815	65375.2375
1313.94233	65605.6375
1317.45412	65076.5375
1320.96354	64313.5375
1324.47058	63886.3375
1327.97525	63946.3375
1331.47754	63833.9375
1334.97747	63572.1375
1338.47502	62881.2375
1341.97022	61748.4375
1345.46305	60315.0375
1348.95352	58928.2375
1352.44163	58132.3375
1355.92738	58505.6375
1359.41078	59761.9375
1362.89183	60721.3375
1366.37053	59753.3375
1369.84688	55746.9375
1373.32088	50421.7375
1376.79254	46651.5375
1380.26186	45688.0375
1383.72883	46443.6375
1387.19347	47119.3375
1390.65578	47090.0375
1394.11575	47111.9375
1397.57339	47839.6375
1401.0287	48970.8375
1404.48168	49687.6375
1407.93234	49450.3375
1411.38068	47928.8375
1414.82669	45616.9375
1418.27039	42987.9375
1421.71177	40497.0375
1425.15083	38593.3375
1428.58758	37721.2375
1432.02203	38007.8375
1435.45416	39317.0375
1438.88399	40834.1375
1442.31151	42139.0375
1445.73673	42971.4375
1449.15965	43624.7375
1452.58027	43962.5375
1455.9986	43986.3375
1459.41463	44216.9375
1462.82837	44638.2375
1466.23982	45336.7375
1469.64898	45971.2375
1473.05586	46294.7375
1476.46045	46278.7375
1479.86276	45779.7375
1483.26279	45123.2375
1486.66054	44714.2375
1490.05602	44707.0375
1493.44922	44896.5375
1496.84016	45144.0375
1500.22882	45528.5375
1503.61521	46107.4375
1506.99934	46900.9375
1510.38121	47590.2375
1513.76081	47827.6375
1517.13816	47594.3375
1520.51324	47287.8375
1523.88607	47326.4375
1527.25665	47859.4375
1530.62498	48417.5375
1533.99105	48359.5375
1537.35488	47719.1375
1540.71647	46340.2375
1544.07581	44669.8375
1547.4329	42953.8375
1550.78776	41416.3375
1554.14038	40424.8375
1557.49077	39826.9375
1560.83892	39402.5375
1564.18484	39200.0375
1567.52853	39287.0375
1570.86999	39781.7375
1574.20922	40858.4375
1577.54624	42124.8375
1580.88103	43060.2375
1584.2136	44174.0375
1587.54395	45953.8375
1590.87208	48603.7375
1594.19801	51449.3375
1597.52172	53572.9375
1600.84321	53466.3375
1604.16251	50380.4375
1607.47959	45652.5375
1610.79447	41169.9375
1614.10715	37350.6375
1617.41763	34360.1375
1620.7259	32416.9375
1624.03199	31497.9375
1627.33587	31534.2375
1630.63757	32713.9375
1633.93707	35242.1375
1637.23439	39372.9375
1640.52951	45313.2375
1643.82246	52413.3375
1647.11321	57963.7375
1650.40179	58691.7375
1653.68819	53874.2375
1656.97241	46004.7375
1660.25446	38431.8375
1663.53433	32757.2375
1666.81203	29030.9375
1670.08756	26672.4375
1673.36092	25266.7375
1676.63211	24313.2375
1679.90115	23632.4375
1683.16801	23166.6375
1686.43272	22835.6375
1689.69527	22576.1375
1692.95567	22311.7375
1696.2139	22164.5375
1699.46999	22060.1375
1702.72392	21956.9375
1705.97571	21834.9375
1709.22535	21749.4375
1712.47284	21683.7375
1715.71819	21639.4375
1718.96139	21553.6375
1722.20246	21441.1375
1725.44139	21327.9375
1728.67818	21158.6375
1731.91284	21049.4375
1735.14537	20906.6375
1738.37576	20774.1375
1741.60403	20709.9375
1744.83017	20625.7375
1748.05418	20556.9375
1751.27607	20537.5375
1754.49584	20479.5375
1757.71349	20478.5375
1760.92903	20460.9375
1764.14244	20434.3375
1767.35375	20411.0375
1770.56294	20287.4375
1773.77002	20279.1375
1776.97499	20213.0375
1780.17785	20140.2375
1783.37861	20105.0375
1786.57727	20061.9375
1789.77382	20006.9375
1792.96828	20004.7375
1796.16064	19923.9375
1799.3509	19883.0375
1802.53907	19811.6375
1805.72514	19737.7375
1808.90913	19728.2375
1812.09102	19625.1375
1815.27083	19542.7375
1818.44856	19522.2375
1821.6242	19533.4375
1824.79776	19454.3375
1827.96924	19469.9375
1831.13864	19461.3375
1834.30597	19419.9375
1837.47122	19384.6375
1840.6344	19408.0375
1843.7955	19388.5375
1846.95454	19359.9375
1850.11151	19387.4375
1853.26642	19329.3375
1856.41926	19312.5375
1859.57004	19325.4375
1862.71876	19294.6375
1865.86542	19243.3375
1869.01003	19198.0375
1872.15258	19182.6375
1875.29308	19121.9375
1878.43152	19076.0375
1881.56792	19106.6375
1884.70227	19111.9375
1887.83457	19029.4375
1890.96482	18991.8375
1894.09304	18947.5375
1897.21921	18965.8375
1900.34335	18939.7375
1903.46544	18914.3375
1906.58551	18890.8375
1909.70353	18872.1375
1912.81953	18806.2375
1915.93349	18767.2375
1919.04543	18713.3375
1922.15534	18689.4375
1925.26322	18633.6375
1928.36908	18577.7375
1931.47292	18529.6375
1934.57473	18493.8375
1937.67453	18417.0375
1940.77232	18368.6375
1943.86808	18325.3375
1946.96184	18274.0375
1950.05358	18235.6375
1953.14331	18202.7375
1956.23103	18134.1375
1959.31675	18064.7375
1962.40046	18019.3375
1965.48217	17988.6375
1968.56188	17883.0375
1971.63959	17826.2375
1974.7153	17733.2375
1977.78901	17701.2375
1980.86073	17618.6375
1983.93046	17590.6375
1986.99819	17552.4375
1990.06394	17465.1375
1993.1277	17435.6375
1996.18947	17391.1375
1999.24925	17355.8375
2002.30706	17274.9375
2005.36288	17198.8375
2008.41672	17137.1375
2011.46859	17116.5375
2014.51848	17053.9375
2017.56639	17004.4375
2020.61233	16968.8375
2023.6563	16920.1375
2026.6983	16872.2375
2029.73833	16793.7375
2032.7764	16787.8375
2035.8125	16758.8375
2038.84664	16706.5375
2041.87881	16667.1375
2044.90903	16689.0375
2047.93729	16584.1375
2050.96359	16626.4375
2053.98794	16582.5375
2057.01034	16579.3375
2060.03078	16550.7375
2063.04927	16530.5375
2066.06582	16561.8375
2069.08042	16492.0375
2072.09307	16467.0375
2075.10378	16442.3375
2078.11255	16426.1375
2081.11938	16441.0375
2084.12426	16388.6375
2087.12722	16436.8375
2090.12824	16393.3375
2093.12732	16380.3375
2096.12447	16380.8375
2099.11969	16351.0375
2102.11299	16379.5375
2105.10435	16364.7375
2108.09379	16374.6375
2111.08131	16352.5375
2114.0669	16396.4375
2117.05057	16403.5375
2120.03233	16410.7375
2123.01216	16404.7375
2125.99008	16415.9375
2128.96609	16414.1375
2131.94018	16411.7375
2134.91236	16413.8375
2137.88263	16420.5375
2140.851	16414.2375
2143.81746	16424.2375
2146.78201	16403.1375
2149.74466	16367.7375
2152.7054	16367.3375
2155.66425	16337.1375
2158.6212	16336.3375
2161.57625	16342.7375
2164.52941	16338.1375
2167.48067	16310.4375
2170.43004	16290.9375
2173.37752	16302.2375
2176.32311	16291.3375
2179.26681	16318.1375
2182.20863	16302.2375
2185.14856	16317.4375
2188.08661	16300.4375
2191.02278	16299.1375
2193.95707	16284.0375
2196.88948	16235.6375
2199.82001	16192.8375
2202.74867	16172.0375
2205.67545	16143.3375
2208.60037	16119.6375
2211.52341	16106.4375
2214.44458	16107.4375
2217.36388	16064.7375
2220.28132	16008.6375
2223.1969	16011.7375
2226.11061	15962.5375
2229.02246	15944.9375
2231.93245	15919.6375
2234.84058	15903.7375
2237.74686	15824.7375
2240.65128	15840.1375
2243.55385	15807.1375
2246.45456	15775.7375
2249.35343	15742.8375
2252.25044	15723.7375
2255.14561	15660.6375
2258.03893	15611.4375
2260.93041	15586.7375
2263.82004	15548.1375
2266.70783	15520.6375
2269.59378	15426.5375
2272.4779	15390.3375
2275.36017	15315.5375
2278.24061	15336.5375
2281.11922	15327.4375
2283.996	15274.9375
2286.87094	15245.5375
2289.74405	15226.3375
2292.61534	15223.7375
2295.4848	15165.1375
2298.35243	15178.7375
2301.21824	15174.5375
2304.08223	15173.1375
2306.94439	15185.7375
2309.80474	15159.6375
2312.66327	15192.8375
2315.51999	15149.1375
2318.37489	15125.4375
2321.22797	15070.7375
2324.07925	15063.7375
2326.92871	15011.3375
2329.77637	14999.2375
2332.62222	14974.6375
2335.46626	14925.1375
2338.3085	14921.6375
2341.14893	14938.5375
2343.98756	14970.2375
2346.8244	14914.4375
2349.65943	14907.4375
2352.49267	14918.8375
2355.32411	14919.7375
2358.15376	14907.7375
2360.98161	14885.5375
2363.80768	14883.6375
2366.63195	14880.2375
2369.45444	14844.4375
2372.27514	14815.3375
2375.09405	14806.3375
2377.91118	14762.7375
2380.72652	14720.1375
2383.54009	14724.8375
2386.35187	14713.8375
2389.16188	14626.8375
2391.97011	14608.5375
2394.77657	14588.1375
2397.58125	14550.4375
2400.38416	14556.0375
2403.18529	14514.4375
2405.98466	14517.8375
2408.78226	14466.9375
2411.57809	14476.2375
2414.37216	14439.4375
2417.16446	14453.9375
2419.955	14412.1375
2422.74378	14411.3375
2425.5308	14374.4375
2428.31606	14379.6375
2431.09956	14372.9375
2433.88131	14347.1375
2436.6613	14390.2375
2439.43954	14343.4375
2442.21603	14327.2375
2444.99077	14310.1375
2447.76377	14318.6375
2450.53501	14284.4375
2453.30451	14298.6375
2456.07226	14276.4375
2458.83827	14259.7375
2461.60254	14266.0375
2464.36507	14262.7375
2467.12586	14261.0375
2469.88492	14260.7375
2472.64224	14272.5375
2475.39782	14280.6375
2478.15167	14284.6375
2480.90379	14225.6375
2483.65417	14260.1375
2486.40283	14228.2375
2489.14976	14280.9375
2491.89497	14256.2375
2494.63845	14260.5375
2497.3802	14249.5375
2500.12024	14260.1375
2502.85855	14222.3375
2505.59514	14209.2375
2508.33002	14200.6375
2511.06318	14206.8375
2513.79462	14156.6375
2516.52435	14140.0375
2519.25237	14147.8375
2521.97867	14149.9375
2524.70327	14133.5375
2527.42616	14111.3375
2530.14734	14118.6375
2532.86681	14125.8375
2535.58458	14122.8375
2538.30065	14085.0375
2541.01501	14097.6375
2543.72768	14071.9375
2546.43864	14060.7375
2549.14791	14050.5375
2551.85548	14031.6375
2554.56136	14037.5375
2557.26554	13984.6375
2559.96803	13978.1375
2562.66883	13964.4375
2565.36794	13939.2375
2568.06536	13935.3375
2570.7611	13908.8375
2573.45514	13900.0375
2576.14751	13895.8375
2578.83819	13857.0375
2581.52719	13879.9375
2584.21451	13863.4375
2586.90015	13857.8375
2589.58411	13830.0375
2592.2664	13824.9375
2594.94701	13847.1375
2597.62594	13797.3375
2600.30321	13807.2375
2602.9788	13788.0375
2605.65273	13792.2375
2608.32498	13794.8375
2610.99557	13796.3375
2613.66449	13805.9375
2616.33175	13790.1375
2618.99734	13793.9375
2621.66128	13760.6375
2624.32355	13781.1375
2626.98416	13763.6375
2629.64311	13731.3375
2632.30041	13737.1375
2634.95605	13716.1375
2637.61004	13726.5375
2640.26238	13700.9375
2642.91306	13719.4375
2645.56209	13691.2375
2648.20948	13703.7375
2650.85521	13729.0375
2653.4993	13720.5375
2656.14175	13703.7375
2658.78255	13718.7375
2661.42171	13750.5375
2664.05923	13738.0375
2666.6951	13728.0375
2669.32934	13799.3375
2671.96194	13776.1375
2674.59291	13758.0375
2677.22224	13762.4375
2679.84993	13781.4375
2682.476	13734.2375
2685.10043	13753.3375
2687.72324	13725.6375
2690.34441	13739.3375
2692.96396	13697.3375
2695.58188	13712.4375
2698.19818	13722.7375
2700.81285	13745.4375
2703.4259	13773.9375
2706.03733	13811.4375
2708.64714	13760.6375
2711.25533	13750.8375
2713.86191	13759.4375
2716.46687	13789.0375
2719.07021	13785.1375
2721.67194	13827.1375
2724.27206	13795.9375
2726.87057	13830.6375
2729.46747	13859.5375
2732.06276	13862.3375
2734.65644	13872.9375
2737.24852	13808.0375
2739.83899	13808.7375
2742.42786	13825.4375
2745.01513	13794.7375
2747.60079	13784.6375
2750.18486	13784.6375
2752.76733	13757.1375
2755.3482	13760.0375
2757.92747	13759.4375
2760.50515	13731.8375
2763.08123	13761.0375
2765.65573	13745.4375
2768.22863	13795.6375
2770.79994	13740.0375
2773.36967	13784.1375
2775.9378	13742.0375
2778.50435	13744.2375
2781.06932	13755.4375
2783.6327	13731.1375
2786.1945	13754.8375
2788.75471	13721.4375
2791.31335	13734.2375
2793.87041	13714.1375
2796.42589	13649.8375
2798.97979	13685.1375
2801.53212	13637.1375
2804.08288	13622.9375
2806.63206	13581.4375
2809.17967	13558.1375
2811.72571	13531.6375
2814.27018	13502.1375
2816.81308	13473.8375
2819.35442	13459.0375
2821.89419	13415.7375
2824.43239	13425.9375
2826.96904	13416.1375
2829.50412	13401.5375
2832.03763	13373.6375
2834.56959	13359.6375
2837.1	13382.4375
2839.62884	13355.0375
2842.15613	13370.6375
2844.68186	13405.7375
2847.20604	13413.3375
2849.72867	13454.7375
2852.24974	13409.7375
2854.76927	13434.3375
2857.28724	13418.0375
2859.80367	13401.1375
2862.31855	13354.3375
2864.83189	13354.5375
2867.34368	13298.9375
2869.85393	13331.9375
2872.36264	13256.4375
2874.8698	13268.0375
2877.37543	13251.2375
2879.87952	13250.9375
2882.38207	13259.1375
2884.88308	13250.5375
2887.38256	13241.1375
2889.88051	13260.7375
2892.37692	13252.5375
2894.8718	13252.1375
2897.36515	13263.7375
2899.85698	13281.5375
2902.34727	13291.4375
2904.83604	13302.6375
2907.32328	13289.3375
2909.809	13334.7375
2912.29319	13311.6375
2914.77587	13295.8375
2917.25702	13329.8375
2919.73665	13328.9375
2922.21476	13306.4375
2924.69136	13317.3375
2927.16644	13309.6375
2929.64	13292.9375
2932.11205	13254.8375
2934.58258	13255.9375
2937.05161	13233.5375
2939.51912	13225.7375
2941.98513	13245.0375
2944.44962	13191.2375
2946.91261	13154.2375
2949.37409	13131.8375
2951.83407	13126.8375
2954.29254	13123.9375
2956.74951	13087.7375
2959.20498	13078.0375
2961.65895	13040.2375
2964.11142	13048.9375
2966.56239	13016.8375
2969.01186	13028.4375
2971.45984	12969.6375
2973.90632	12978.3375
2976.35131	12972.0375
2978.7948	12936.0375
2981.23681	12910.4375
2983.67732	12868.9375
2986.11635	12824.7375
2988.55388	12770.2375
2990.98993	12753.6375
2993.4245	12725.1375
2995.85758	12651.0375
2998.28917	12657.0375
3000.71928	12618.6375
3003.14791	12587.3375
3005.57506	12548.6375
3008.00073	12522.6375
3010.42493	12418.0375
3012.84764	12495.8375
3015.26888	12467.1375
3017.68865	12405.9375
3020.10694	12380.1375
3022.52376	12362.4375
3024.9391	12353.7375
3027.35298	12332.1375
3029.76539	12319.8375
3032.17632	12311.7375
3034.5858	12270.0375
3036.9938	12286.9375
3039.40034	12311.4375
3041.80542	12291.7375
3044.20903	12276.2375
3046.61118	12227.8375
3049.01187	12207.6375
3051.4111	12208.5375
3053.80888	12162.2375
3056.20519	12159.3375
3058.60005	12130.7375
3060.99345	12105.3375
3063.3854	12067.2375
3065.7759	12009.6375
3068.16494	11951.2375
3070.55254	11931.8375
3072.93868	11876.3375
3075.32338	11849.7375
3077.70662	11814.3375
3080.08842	11804.0375
3082.46878	11766.9375
3084.84769	11736.5375
3087.22515	11724.5375
3089.60118	11724.8375
3091.97576	11726.7375
3094.3489	11716.1375
3096.72061	11698.9375
3099.09087	11705.0375
3101.4597	11673.2375
3103.82709	11681.5375
3106.19305	11693.7375
3108.55757	11650.8375
3110.92066	11602.6375
3113.28232	11631.7375
3115.64255	11555.7375
3118.00134	11565.4375
3120.35871	11538.8375
3122.71466	11528.6375
3125.06917	11461.7375
3127.42226	11431.0375
3129.77393	11420.0375
3132.12417	11377.1375
3134.47299	11399.0375
3136.82039	11399.7375
3139.16636	11374.7375
3141.51092	11345.1375
3143.85406	11335.6375
3146.19579	11361.8375
3148.53609	11338.5375
3150.87499	11359.3375
3153.21246	11341.0375
3155.54853	11342.3375
3157.88318	11350.7375
3160.21642	11360.7375
3162.54826	11337.1375
3164.87868	11357.5375
3167.2077	11323.8375
3169.5353	11327.6375
3171.86151	11339.3375
3174.18631	11303.6375
3176.5097	11301.1375
3178.83169	11286.8375
3181.15228	11260.6375
3183.47147	11230.1375
3185.78926	11252.9375
3188.10565	11203.4375
3190.42065	11184.2375
3192.73424	11194.3375
3195.04645	11151.0375
3197.35725	11144.8375
3199.66667	11113.5375
3201.97469	11116.6375
3204.28132	11117.8375
3206.58656	11146.8375
3208.8904	11128.8375
3211.19287	11101.1375
3213.49394	11118.5375
3215.79363	11108.5375
3218.09193	11085.7375
3220.38884	11085.4375
3222.68438	11085.3375
3224.97853	11089.3375
3227.2713	11067.6375
3229.56269	11061.9375
3231.8527	11049.8375
3234.14133	11028.8375
3236.42858	11021.0375
3238.71446	10991.2375
3240.99896	10976.7375
3243.28209	10985.3375
3245.56384	10957.9375
3247.84423	10953.0375
3250.12324	10896.7375
3252.40088	10885.3375
3254.67715	10902.0375
3256.95205	10890.8375
3259.22558	10852.4375
3261.49775	10825.8375
3263.76855	10817.5375
3266.03799	10774.3375
3268.30606	10756.1375
3270.57277	10751.1375
3272.83812	10730.8375
3275.10211	10674.3375
3277.36474	10652.4375
3279.62601	10655.5375
3281.88593	10657.1375
3284.14448	10682.8375
3286.40168	10659.5375
3288.65753	10662.1375
3290.91202	10655.1375
3293.16516	10626.5375
3295.41695	10606.6375
3297.66738	10546.3375
3299.91647	10483.8375
3302.16421	10429.9375
3304.4106	10365.3375
3306.65564	10275.0375
3308.89933	10215.1375
3311.14169	10134.2375
3313.38269	10052.1375
3315.62236	9985.6375
3317.86068	9863.1375
3320.09766	9778.7375
3322.3333	9716.0375
3324.5676	9676.6375
3326.80056	9517.2375
3329.03219	9447.0375
3331.26248	3.2375
3333.49143	-0.1625
3335.71905	-0.2625
