Data from AgNPs_FTO_APTES_UA_5uM_CRN_50uM_R6G_10uM_NaF_0.1M_Addition_RamanShift__39__14-28-06-854.txt Node

Date: Mon Feb 07 14:28:06 GMT 2022
User: TCL
Spectrometer: QEP01345
Trigger mode: 4
Integration Time (sec): 7.000000E0
Scans to average: 10
Electric dark correction enabled: true
Nonlinearity correction enabled: false
Boxcar width: 0
XAxis mode: Raman Shifts
Number of Pixels in Spectrum: 1044
>>>>>Begin Spectral Data<<<<<
46.04893	-1.0625
50.45542	-1.6625
54.85868	-1.0625
59.25871	-0.2625
63.6555	76.3375
68.04907	77.4375
72.43941	85.4375
76.82654	85.5375
81.21044	89.6375
85.59113	90.3375
89.96862	98.0375
94.34289	96.1375
98.71396	98.1375
103.08183	105.5375
107.4465	107.2375
111.80798	111.0375
116.16626	116.6375
120.52136	121.6375
124.87327	128.1375
129.222	137.6375
133.56755	143.5375
137.90993	157.0375
142.24913	175.5375
146.58517	198.8375
150.91804	228.0375
155.24774	289.7375
159.57429	360.1375
163.89768	469.2375
168.21792	632.0375
172.53501	857.1375
176.84895	1195.5375
181.15975	1688.8375
185.46741	2383.2375
189.77193	3286.6375
194.07331	4385.6375
198.37157	5666.3375
202.6667	7013.3375
206.9587	8337.9375
211.24758	9635.2375
215.53334	10904.0375
219.81599	12279.6375
224.09553	13766.6375
228.37195	15418.4375
232.64527	17181.3375
236.91549	19032.3375
241.18261	20948.2375
245.44663	22746.3375
249.70755	24368.6375
253.96539	25831.9375
258.22014	27009.4375
262.4718	28020.2375
266.72039	28775.3375
270.96589	29174.8375
275.20832	29242.8375
279.44768	29138.7375
283.68397	28955.1375
287.91719	28748.1375
292.14735	28621.4375
296.37445	28612.0375
300.59849	28710.8375
304.81948	28782.3375
309.03742	28742.9375
313.25231	28454.9375
317.46415	27914.7375
321.67296	27290.4375
325.87872	26796.2375
330.08145	26473.7375
334.28114	26449.8375
338.47781	26529.9375
342.67145	26716.0375
346.86207	27077.4375
351.04966	27496.8375
355.23424	27921.0375
359.4158	28335.0375
363.59435	28629.8375
367.76989	28846.9375
371.94243	29005.6375
376.11196	29136.3375
380.27849	29221.4375
384.44203	29311.3375
388.60257	29542.3375
392.76012	29921.6375
396.91468	30329.8375
401.06626	30821.0375
405.21485	31131.0375
409.36047	31006.5375
413.50311	30737.6375
417.64277	30680.6375
421.77947	30787.9375
425.9132	30944.6375
430.04396	31168.0375
434.17176	31417.3375
438.2966	31568.2375
442.41849	32039.3375
446.53742	32869.5375
450.6534	33774.1375
454.76644	34411.8375
458.87653	34600.7375
462.98368	34483.9375
467.08789	34107.5375
471.18916	33670.3375
475.2875	33392.3375
479.38291	33318.4375
483.4754	33241.9375
487.56496	32914.4375
491.6516	32255.7375
495.73531	31580.0375
499.81612	31168.4375
503.89401	31131.5375
507.96899	31247.5375
512.04106	31220.7375
516.11023	30905.3375
520.1765	30472.3375
524.23987	30068.8375
528.30034	29688.5375
532.35792	29386.7375
536.41261	29171.2375
540.46441	28875.4375
544.51333	28911.3375
548.55936	29259.3375
552.60252	29900.7375
556.64279	30664.2375
560.6802	31353.6375
564.71473	31900.1375
568.7464	32615.7375
572.7752	33877.6375
576.80114	35211.3375
580.82422	36381.9375
584.84444	37797.1375
588.86181	39572.8375
592.87633	40862.3375
596.888	40292.1375
600.89682	38167.4375
604.9028	36915.6375
608.90594	37665.6375
612.90624	38810.7375
616.90371	36357.3375
620.89834	31740.5375
624.89015	29707.6375
628.87913	29539.9375
632.86528	29804.4375
636.84862	29709.8375
640.82913	29154.2375
644.80683	28588.8375
648.78172	28195.7375
652.75379	28190.7375
656.72306	28391.4375
660.68952	28588.6375
664.65319	28452.3375
668.61405	28028.7375
672.57211	27977.7375
676.52738	28055.8375
680.47986	28101.8375
684.42955	27987.6375
688.37646	27805.0375
692.32058	27954.1375
696.26192	28346.2375
700.20048	28747.5375
704.13626	29014.1375
708.06928	29158.7375
711.99952	29114.3375
715.927	29117.0375
719.85171	29176.2375
723.77365	28996.1375
727.69284	28575.3375
731.60928	28175.8375
735.52295	27947.4375
739.43388	27947.2375
743.34206	28020.2375
747.24749	28211.6375
751.15017	28529.9375
755.05012	29072.5375
758.94733	29935.4375
762.8418	31265.8375
766.73354	33012.1375
770.62254	34417.3375
774.50882	34369.9375
778.39237	32815.7375
782.27321	30869.8375
786.15132	29305.7375
790.02671	28403.1375
793.89938	27890.1375
797.76935	27656.4375
801.6366	27624.8375
805.50115	27600.9375
809.36299	27484.3375
813.22213	27348.6375
817.07857	27258.6375
820.93231	27136.2375
824.78336	26897.9375
828.63172	26730.9375
832.47738	26583.8375
836.32036	26599.9375
840.16066	26621.7375
843.99827	26706.8375
847.8332	26680.5375
851.66546	26649.0375
855.49504	26624.2375
859.32195	26621.5375
863.1462	26562.7375
866.96777	26454.8375
870.78668	26380.4375
874.60293	26382.0375
878.41652	26340.3375
882.22745	26387.8375
886.03573	26437.5375
889.84136	26466.8375
893.64433	26361.1375
897.44466	26286.0375
901.24235	26208.4375
905.0374	26176.5375
908.8298	26144.9375
912.61957	26270.0375
916.40671	26557.6375
920.19121	27053.5375
923.97308	27327.6375
927.75233	27215.4375
931.52895	26854.4375
935.30295	26317.2375
939.07433	25847.9375
942.84309	25522.3375
946.60924	25335.3375
950.37278	25241.4375
954.13371	25211.1375
957.89203	25233.5375
961.64774	25220.5375
965.40086	25237.7375
969.15137	25159.9375
972.89929	24986.1375
976.64461	24857.2375
980.38733	24791.0375
984.12747	24771.4375
987.86502	24895.2375
991.59999	25005.0375
995.33237	25220.8375
999.06217	25558.6375
1002.78939	26060.4375
1006.51404	26477.1375
1010.23611	26909.4375
1013.95561	27177.9375
1017.67255	27267.9375
1021.38692	27021.9375
1025.09872	26600.5375
1028.80796	26325.7375
1032.51465	26382.9375
1036.21877	26545.5375
1039.92035	26754.5375
1043.61937	26806.0375
1047.31584	26695.9375
1051.00976	26639.6375
1054.70114	26672.7375
1058.38998	26835.0375
1062.07627	27139.6375
1065.76003	27498.0375
1069.44126	27818.4375
1073.11995	28260.4375
1076.79611	28531.9375
1080.46974	28602.8375
1084.14085	28766.7375
1087.80943	28999.6375
1091.47549	29342.8375
1095.13903	29524.0375
1098.80005	29195.8375
1102.45857	28516.6375
1106.11456	27921.9375
1109.76805	27574.6375
1113.41903	27545.8375
1117.06751	27743.3375
1120.71348	27988.0375
1124.35696	28251.0375
1127.99793	28568.7375
1131.63641	28811.9375
1135.2724	28821.6375
1138.90589	28825.8375
1142.5369	29034.5375
1146.16542	29416.6375
1149.79145	29840.7375
1153.415	30344.7375
1157.03607	30982.5375
1160.65467	32174.0375
1164.27079	34002.1375
1167.88443	36011.3375
1171.49561	37852.6375
1175.10432	39848.9375
1178.71056	42347.8375
1182.31434	44745.3375
1185.91565	45747.8375
1189.51451	45385.1375
1193.11091	44369.2375
1196.70485	43128.2375
1200.29634	41902.9375
1203.88538	41339.1375
1207.47197	41334.4375
1211.05612	41350.7375
1214.63782	40626.0375
1218.21708	39138.1375
1221.79391	37549.4375
1225.36829	36326.1375
1228.94024	35510.9375
1232.50976	34901.7375
1236.07685	34384.7375
1239.6415	34164.2375
1243.20374	34204.9375
1246.76355	34502.7375
1250.32093	35049.4375
1253.8759	35769.8375
1257.42845	36689.4375
1260.97859	37680.4375
1264.52631	38643.0375
1268.07163	39716.8375
1271.61453	40820.8375
1275.15503	42046.4375
1278.69312	43595.9375
1282.22882	45299.2375
1285.76211	47375.1375
1289.29301	49823.3375
1292.82151	52816.2375
1296.34761	56378.8375
1299.87133	60307.7375
1303.39266	63824.2375
1306.9116	66431.9375
1310.42815	67954.0375
1313.94233	68332.5375
1317.45412	67677.0375
1320.96354	66862.0375
1324.47058	66339.1375
1327.97525	66227.1375
1331.47754	65964.5375
1334.97747	65602.2375
1338.47502	64761.6375
1341.97022	63474.9375
1345.46305	61881.3375
1348.95352	60522.7375
1352.44163	59944.4375
1355.92738	60532.6375
1359.41078	62173.7375
1362.89183	63399.5375
1366.37053	62479.9375
1369.84688	58210.4375
1373.32088	52466.0375
1376.79254	48359.7375
1380.26186	47335.3375
1383.72883	48128.6375
1387.19347	48795.9375
1390.65578	48724.7375
1394.11575	48784.9375
1397.57339	49600.4375
1401.0287	50807.7375
1404.48168	51636.0375
1407.93234	51362.8375
1411.38068	49949.7375
1414.82669	47500.2375
1418.27039	44886.1375
1421.71177	42316.1375
1425.15083	40383.1375
1428.58758	39408.0375
1432.02203	39682.6375
1435.45416	41056.7375
1438.88399	42689.2375
1442.31151	43987.2375
1445.73673	44905.5375
1449.15965	45449.5375
1452.58027	45791.5375
1455.9986	45798.6375
1459.41463	45886.9375
1462.82837	46361.4375
1466.23982	47115.9375
1469.64898	47859.7375
1473.05586	48311.2375
1476.46045	48291.2375
1479.86276	47898.4375
1483.26279	47206.9375
1486.66054	46773.7375
1490.05602	46704.7375
1493.44922	46936.9375
1496.84016	47097.6375
1500.22882	47479.8375
1503.61521	48024.3375
1506.99934	48718.0375
1510.38121	49450.8375
1513.76081	49581.6375
1517.13816	49323.9375
1520.51324	48877.1375
1523.88607	48879.2375
1527.25665	49373.4375
1530.62498	49905.3375
1533.99105	49884.8375
1537.35488	49245.8375
1540.71647	47895.9375
1544.07581	46187.9375
1547.4329	44434.2375
1550.78776	42936.7375
1554.14038	41820.0375
1557.49077	41205.5375
1560.83892	40787.5375
1564.18484	40608.0375
1567.52853	40705.7375
1570.86999	41166.0375
1574.20922	42251.9375
1577.54624	43535.6375
1580.88103	44459.6375
1584.2136	45564.0375
1587.54395	47576.2375
1590.87208	50411.7375
1594.19801	53455.6375
1597.52172	55765.0375
1600.84321	55806.9375
1604.16251	52532.7375
1607.47959	47555.1375
1610.79447	42795.4375
1614.10715	38693.6375
1617.41763	35687.2375
1620.7259	33699.7375
1624.03199	32725.5375
1627.33587	32873.0375
1630.63757	34115.2375
1633.93707	36760.6375
1637.23439	41066.1375
1640.52951	47306.6375
1643.82246	54640.9375
1647.11321	60439.6375
1650.40179	61276.6375
1653.68819	56078.7375
1656.97241	47840.4375
1660.25446	39924.2375
1663.53433	34089.2375
1666.81203	30255.6375
1670.08756	27892.9375
1673.36092	26419.3375
1676.63211	25470.0375
1679.90115	24803.7375
1683.16801	24326.9375
1686.43272	23945.7375
1689.69527	23636.0375
1692.95567	23507.5375
1696.2139	23303.4375
1699.46999	23150.6375
1702.72392	23062.5375
1705.97571	22989.0375
1709.22535	22894.2375
1712.47284	22806.8375
1715.71819	22772.9375
1718.96139	22689.2375
1722.20246	22565.4375
1725.44139	22448.2375
1728.67818	22319.7375
1731.91284	22178.6375
1735.14537	22026.5375
1738.37576	21885.9375
1741.60403	21793.7375
1744.83017	21727.2375
1748.05418	21671.7375
1751.27607	21623.9375
1754.49584	21622.9375
1757.71349	21567.0375
1760.92903	21565.6375
1764.14244	21544.2375
1767.35375	21516.3375
1770.56294	21450.3375
1773.77002	21387.9375
1776.97499	21327.9375
1780.17785	21261.4375
1783.37861	21246.8375
1786.57727	21159.0375
1789.77382	21125.9375
1792.96828	21115.4375
1796.16064	21052.9375
1799.3509	20978.0375
1802.53907	20957.2375
1805.72514	20851.0375
1808.90913	20784.7375
1812.09102	20730.8375
1815.27083	20669.0375
1818.44856	20657.5375
1821.6242	20611.3375
1824.79776	20582.4375
1827.96924	20564.7375
1831.13864	20547.0375
1834.30597	20540.6375
1837.47122	20497.3375
1840.6344	20500.6375
1843.7955	20503.6375
1846.95454	20487.7375
1850.11151	20473.9375
1853.26642	20424.8375
1856.41926	20436.5375
1859.57004	20402.9375
1862.71876	20383.6375
1865.86542	20345.7375
1869.01003	20317.7375
1872.15258	20313.4375
1875.29308	20263.1375
1878.43152	20205.7375
1881.56792	20238.8375
1884.70227	20169.9375
1887.83457	20147.2375
1890.96482	20113.7375
1894.09304	20085.1375
1897.21921	20045.1375
1900.34335	20033.7375
1903.46544	20027.6375
1906.58551	20004.8375
1909.70353	19993.2375
1912.81953	19952.8375
1915.93349	19911.6375
1919.04543	19879.7375
1922.15534	19789.5375
1925.26322	19744.7375
1928.36908	19661.7375
1931.47292	19663.1375
1934.57473	19571.6375
1937.67453	19537.1375
1940.77232	19483.7375
1943.86808	19466.7375
1946.96184	19406.0375
1950.05358	19351.5375
1953.14331	19264.6375
1956.23103	19240.6375
1959.31675	19127.0375
1962.40046	19114.5375
1965.48217	19031.0375
1968.56188	18979.0375
1971.63959	18916.8375
1974.7153	18857.4375
1977.78901	18790.7375
1980.86073	18743.3375
1983.93046	18666.0375
1986.99819	18619.1375
1990.06394	18546.3375
1993.1277	18504.5375
1996.18947	18460.3375
1999.24925	18409.1375
2002.30706	18340.4375
2005.36288	18267.9375
2008.41672	18226.4375
2011.46859	18168.4375
2014.51848	18128.7375
2017.56639	18094.8375
2020.61233	17991.4375
2023.6563	17965.7375
2026.6983	17933.4375
2029.73833	17882.9375
2032.7764	17832.8375
2035.8125	17802.0375
2038.84664	17755.5375
2041.87881	17752.5375
2044.90903	17731.2375
2047.93729	17641.0375
2050.96359	17655.7375
2053.98794	17622.3375
2057.01034	17648.6375
2060.03078	17622.1375
2063.04927	17596.1375
2066.06582	17546.7375
2069.08042	17529.2375
2072.09307	17522.6375
2075.10378	17495.0375
2078.11255	17479.0375
2081.11938	17468.5375
2084.12426	17459.7375
2087.12722	17458.9375
2090.12824	17430.8375
2093.12732	17418.4375
2096.12447	17440.3375
2099.11969	17422.3375
2102.11299	17423.9375
2105.10435	17433.3375
2108.09379	17417.9375
2111.08131	17417.5375
2114.0669	17420.5375
2117.05057	17443.0375
2120.03233	17492.8375
2123.01216	17463.0375
2125.99008	17472.3375
2128.96609	17479.6375
2131.94018	17482.8375
2134.91236	17488.1375
2137.88263	17481.3375
2140.851	17492.2375
2143.81746	17481.9375
2146.78201	17450.7375
2149.74466	17435.8375
2152.7054	17431.8375
2155.66425	17414.5375
2158.6212	17410.1375
2161.57625	17399.5375
2164.52941	17407.3375
2167.48067	17401.8375
2170.43004	17379.4375
2173.37752	17388.6375
2176.32311	17362.8375
2179.26681	17387.9375
2182.20863	17370.3375
2185.14856	17377.7375
2188.08661	17365.2375
2191.02278	17363.7375
2193.95707	17396.7375
2196.88948	17339.3375
2199.82001	17290.3375
2202.74867	17243.5375
2205.67545	17268.6375
2208.60037	17208.1375
2211.52341	17198.5375
2214.44458	17184.9375
2217.36388	17142.5375
2220.28132	17130.3375
2223.1969	17075.0375
2226.11061	17039.9375
2229.02246	17011.4375
2231.93245	16976.0375
2234.84058	16956.1375
2237.74686	16924.7375
2240.65128	16915.7375
2243.55385	16899.7375
2246.45456	16860.2375
2249.35343	16797.6375
2252.25044	16759.0375
2255.14561	16739.4375
2258.03893	16711.0375
2260.93041	16685.9375
2263.82004	16637.0375
2266.70783	16596.1375
2269.59378	16485.8375
2272.4779	16453.6375
2275.36017	16417.7375
2278.24061	16393.1375
2281.11922	16359.4375
2283.996	16346.3375
2286.87094	16304.8375
2289.74405	16292.5375
2292.61534	16226.2375
2295.4848	16233.2375
2298.35243	16237.6375
2301.21824	16219.0375
2304.08223	16237.0375
2306.94439	16223.3375
2309.80474	16244.8375
2312.66327	16215.4375
2315.51999	16228.8375
2318.37489	16175.3375
2321.22797	16136.0375
2324.07925	16152.7375
2326.92871	16091.8375
2329.77637	16057.0375
2332.62222	16011.2375
2335.46626	16017.6375
2338.3085	15990.0375
2341.14893	15995.8375
2343.98756	15979.3375
2346.8244	15975.3375
2349.65943	15969.8375
2352.49267	15966.1375
2355.32411	15971.4375
2358.15376	15951.4375
2360.98161	15945.8375
2363.80768	15952.1375
2366.63195	15950.6375
2369.45444	15918.4375
2372.27514	15898.0375
2375.09405	15883.7375
2377.91118	15840.1375
2380.72652	15771.2375
2383.54009	15764.0375
2386.35187	15780.4375
2389.16188	15717.2375
2391.97011	15675.8375
2394.77657	15625.4375
2397.58125	15628.2375
2400.38416	15613.6375
2403.18529	15547.1375
2405.98466	15534.4375
2408.78226	15557.1375
2411.57809	15506.3375
2414.37216	15523.2375
2417.16446	15505.7375
2419.955	15469.4375
2422.74378	15507.7375
2425.5308	15422.0375
2428.31606	15407.0375
2431.09956	15423.5375
2433.88131	15413.8375
2436.6613	15428.4375
2439.43954	15401.5375
2442.21603	15394.9375
2444.99077	15359.4375
2447.76377	15377.6375
2450.53501	15344.4375
2453.30451	15359.2375
2456.07226	15337.3375
2458.83827	15334.7375
2461.60254	15336.2375
2464.36507	15330.6375
2467.12586	15290.4375
2469.88492	15289.9375
2472.64224	15319.3375
2475.39782	15340.3375
2478.15167	15347.1375
2480.90379	15295.1375
2483.65417	15310.2375
2486.40283	15335.9375
2489.14976	15310.5375
2491.89497	15304.8375
2494.63845	15331.2375
2497.3802	15296.6375
2500.12024	15320.1375
2502.85855	15276.5375
2505.59514	15261.1375
2508.33002	15248.0375
2511.06318	15229.6375
2513.79462	15237.6375
2516.52435	15196.7375
2519.25237	15237.3375
2521.97867	15178.3375
2524.70327	15206.1375
2527.42616	15193.8375
2530.14734	15183.0375
2532.86681	15188.8375
2535.58458	15181.0375
2538.30065	15131.3375
2541.01501	15151.9375
2543.72768	15151.6375
2546.43864	15146.7375
2549.14791	15121.5375
2551.85548	15104.8375
2554.56136	15050.0375
2557.26554	15027.3375
2559.96803	15020.7375
2562.66883	15033.7375
2565.36794	14982.1375
2568.06536	15000.4375
2570.7611	14972.1375
2573.45514	14976.2375
2576.14751	14976.3375
2578.83819	14918.9375
2581.52719	14915.0375
2584.21451	14926.0375
2586.90015	14924.1375
2589.58411	14931.6375
2592.2664	14907.1375
2594.94701	14869.7375
2597.62594	14865.6375
2600.30321	14826.4375
2602.9788	14830.0375
2605.65273	14836.7375
2608.32498	14872.2375
2610.99557	14828.7375
2613.66449	14871.8375
2616.33175	14855.2375
2618.99734	14861.7375
2621.66128	14805.9375
2624.32355	14813.4375
2626.98416	14796.8375
2629.64311	14771.3375
2632.30041	14799.1375
2634.95605	14755.7375
2637.61004	14748.8375
2640.26238	14738.0375
2642.91306	14754.5375
2645.56209	14738.0375
2648.20948	14741.3375
2650.85521	14739.1375
2653.4993	14780.0375
2656.14175	14791.5375
2658.78255	14745.8375
2661.42171	14772.6375
2664.05923	14811.4375
2666.6951	14809.4375
2669.32934	14840.5375
2671.96194	14831.1375
2674.59291	14827.1375
2677.22224	14794.0375
2679.84993	14833.1375
2682.476	14792.1375
2685.10043	14823.8375
2687.72324	14787.3375
2690.34441	14781.6375
2692.96396	14774.0375
2695.58188	14776.1375
2698.19818	14783.7375
2700.81285	14839.9375
2703.4259	14808.5375
2706.03733	14865.7375
2708.64714	14833.5375
2711.25533	14811.4375
2713.86191	14818.8375
2716.46687	14850.0375
2719.07021	14860.6375
2721.67194	14898.4375
2724.27206	14872.4375
2726.87057	14897.0375
2729.46747	14912.7375
2732.06276	14932.8375
2734.65644	14921.5375
2737.24852	14925.2375
2739.83899	14875.4375
2742.42786	14877.9375
2745.01513	14841.9375
2747.60079	14873.1375
2750.18486	14854.1375
2752.76733	14832.1375
2755.3482	14836.8375
2757.92747	14836.5375
2760.50515	14823.7375
2763.08123	14856.3375
2765.65573	14862.6375
2768.22863	14847.5375
2770.79994	14844.6375
2773.36967	14845.4375
2775.9378	14823.3375
2778.50435	14819.5375
2781.06932	14812.0375
2783.6327	14822.2375
2786.1945	14804.0375
2788.75471	14830.5375
2791.31335	14776.8375
2793.87041	14767.1375
2796.42589	14716.4375
2798.97979	14732.4375
2801.53212	14720.7375
2804.08288	14687.8375
2806.63206	14660.7375
2809.17967	14622.6375
2811.72571	14600.6375
2814.27018	14594.0375
2816.81308	14549.8375
2819.35442	14502.1375
2821.89419	14460.0375
2824.43239	14492.5375
2826.96904	14469.6375
2829.50412	14459.6375
2832.03763	14413.2375
2834.56959	14422.1375
2837.1	14399.9375
2839.62884	14449.2375
2842.15613	14437.0375
2844.68186	14480.8375
2847.20604	14493.6375
2849.72867	14493.0375
2852.24974	14502.2375
2854.76927	14479.0375
2857.28724	14464.8375
2859.80367	14451.2375
2862.31855	14414.8375
2864.83189	14389.8375
2867.34368	14375.2375
2869.85393	14383.6375
2872.36264	14329.8375
2874.8698	14307.1375
2877.37543	14294.1375
2879.87952	14287.3375
2882.38207	14276.1375
2884.88308	14311.0375
2887.38256	14300.0375
2889.88051	14287.1375
2892.37692	14311.9375
2894.8718	14300.8375
2897.36515	14334.0375
2899.85698	14316.2375
2902.34727	14320.5375
2904.83604	14369.5375
2907.32328	14395.3375
2909.809	14364.4375
2912.29319	14382.2375
2914.77587	14401.6375
2917.25702	14392.8375
2919.73665	14391.5375
2922.21476	14383.8375
2924.69136	14397.8375
2927.16644	14375.1375
2929.64	14337.2375
2932.11205	14320.7375
2934.58258	14285.8375
2937.05161	14300.7375
2939.51912	14309.6375
2941.98513	14272.4375
2944.44962	14254.7375
2946.91261	14193.6375
2949.37409	14225.6375
2951.83407	14202.0375
2954.29254	14168.7375
2956.74951	14157.4375
2959.20498	14142.8375
2961.65895	14107.1375
2964.11142	14102.4375
2966.56239	14095.1375
2969.01186	14055.8375
2971.45984	14015.7375
2973.90632	14068.0375
2976.35131	14035.8375
2978.7948	13996.6375
2981.23681	13954.5375
2983.67732	13917.7375
2986.11635	13866.8375
2988.55388	13850.7375
2990.98993	13801.6375
2993.4245	13759.2375
2995.85758	13729.7375
2998.28917	13682.0375
3000.71928	13667.4375
3003.14791	13659.8375
3005.57506	13619.0375
3008.00073	13550.3375
3010.42493	13459.4375
3012.84764	13544.9375
3015.26888	13513.6375
3017.68865	13460.6375
3020.10694	13436.5375
3022.52376	13418.2375
3024.9391	13391.0375
3027.35298	13380.5375
3029.76539	13371.2375
3032.17632	13347.3375
3034.5858	13318.5375
3036.9938	13340.4375
3039.40034	13323.5375
3041.80542	13337.7375
3044.20903	13293.5375
3046.61118	13283.6375
3049.01187	13244.2375
3051.4111	13245.1375
3053.80888	13207.9375
3056.20519	13176.8375
3058.60005	13159.5375
3060.99345	13134.0375
3063.3854	13106.3375
3065.7759	13012.3375
3068.16494	12976.1375
3070.55254	12944.2375
3072.93868	12895.4375
3075.32338	12877.8375
3077.70662	12821.1375
3080.08842	12805.8375
3082.46878	12786.6375
3084.84769	12736.2375
3087.22515	12770.2375
3089.60118	12753.9375
3091.97576	12742.1375
3094.3489	12712.8375
3096.72061	12719.7375
3099.09087	12675.9375
3101.4597	12696.0375
3103.82709	12690.8375
3106.19305	12660.2375
3108.55757	12677.2375
3110.92066	12596.3375
3113.28232	12609.9375
3115.64255	12575.5375
3118.00134	12573.3375
3120.35871	12563.6375
3122.71466	12524.6375
3125.06917	12458.8375
3127.42226	12450.4375
3129.77393	12446.2375
3132.12417	12404.2375
3134.47299	12412.8375
3136.82039	12389.7375
3139.16636	12365.4375
3141.51092	12349.4375
3143.85406	12328.0375
3146.19579	12372.6375
3148.53609	12340.0375
3150.87499	12330.8375
3153.21246	12347.8375
3155.54853	12351.8375
3157.88318	12332.7375
3160.21642	12343.8375
3162.54826	12321.0375
3164.87868	12321.1375
3167.2077	12334.3375
3169.5353	12321.4375
3171.86151	12328.5375
3174.18631	12328.5375
3176.5097	12280.7375
3178.83169	12279.9375
3181.15228	12272.5375
3183.47147	12236.7375
3185.78926	12216.7375
3188.10565	12164.7375
3190.42065	12178.4375
3192.73424	12157.6375
3195.04645	12153.6375
3197.35725	12129.5375
3199.66667	12106.4375
3201.97469	12102.5375
3204.28132	12106.5375
3206.58656	12126.4375
3208.8904	12090.3375
3211.19287	12069.4375
3213.49394	12124.4375
3215.79363	12100.5375
3218.09193	12084.6375
3220.38884	12097.6375
3222.68438	12102.7375
3224.97853	12075.6375
3227.2713	12094.3375
3229.56269	12053.7375
3231.8527	12053.9375
3234.14133	12031.7375
3236.42858	12004.6375
3238.71446	11987.8375
3240.99896	11955.2375
3243.28209	11964.3375
3245.56384	11945.3375
3247.84423	11934.4375
3250.12324	11902.4375
3252.40088	11884.1375
3254.67715	11859.7375
3256.95205	11837.8375
3259.22558	11838.5375
3261.49775	11822.2375
3263.76855	11809.2375
3266.03799	11772.2375
3268.30606	11740.6375
3270.57277	11708.0375
3272.83812	11677.9375
3275.10211	11660.3375
3277.36474	11618.5375
3279.62601	11630.4375
3281.88593	11605.7375
3284.14448	11629.6375
3286.40168	11652.9375
3288.65753	11605.0375
3290.91202	11636.5375
3293.16516	11587.1375
3295.41695	11573.4375
3297.66738	11501.7375
3299.91647	11450.4375
3302.16421	11402.4375
3304.4106	11301.4375
3306.65564	11239.2375
3308.89933	11138.4375
3311.14169	11075.6375
3313.38269	10952.3375
3315.62236	10873.3375
3317.86068	10793.2375
3320.09766	10689.7375
3322.3333	10640.1375
3324.5676	10576.3375
3326.80056	10432.6375
3329.03219	10351.7375
3331.26248	3.6375
3333.49143	-0.1625
3335.71905	-0.4625
