Data from AgNPs_FTO_APTES_UA_5uM_CRN_20uM_R6G_10uM_NaF_0.1M_Addition_RamanShift__14__13-19-16-775.txt Node

Date: Mon Feb 07 13:19:16 GMT 2022
User: TCL
Spectrometer: QEP01345
Trigger mode: 4
Integration Time (sec): 7.000000E0
Scans to average: 10
Electric dark correction enabled: true
Nonlinearity correction enabled: false
Boxcar width: 0
XAxis mode: Raman Shifts
Number of Pixels in Spectrum: 1044
>>>>>Begin Spectral Data<<<<<
46.04893	-0.4125
50.45542	-1.1125
54.85868	-0.1125
59.25871	-0.2125
63.6555	80.0875
68.04907	81.9875
72.43941	87.3875
76.82654	89.1875
81.21044	92.4875
85.59113	98.7875
89.96862	101.7875
94.34289	101.5875
98.71396	105.0875
103.08183	109.5875
107.4465	113.8875
111.80798	114.8875
116.16626	121.4875
120.52136	128.4875
124.87327	132.4875
129.222	145.1875
133.56755	148.5875
137.90993	166.8875
142.24913	181.9875
146.58517	220.7875
150.91804	248.6875
155.24774	306.1875
159.57429	384.3875
163.89768	494.2875
168.21792	675.0875
172.53501	920.6875
176.84895	1288.6875
181.15975	1819.8875
185.46741	2561.7875
189.77193	3551.9875
194.07331	4741.6875
198.37157	6134.3875
202.6667	7586.3875
206.9587	9030.5875
211.24758	10450.1875
215.53334	11839.0875
219.81599	13304.5875
224.09553	14876.3875
228.37195	16697.0875
232.64527	18633.7875
236.91549	20658.9875
241.18261	22749.8875
245.44663	24717.7875
249.70755	26501.1875
253.96539	28098.4875
258.22014	29429.4875
262.4718	30488.7875
266.72039	31259.1875
270.96589	31672.9875
275.20832	31820.1875
279.44768	31789.9875
283.68397	31657.4875
287.91719	31528.3875
292.14735	31394.3875
296.37445	31441.2875
300.59849	31525.6875
304.81948	31595.0875
309.03742	31444.8875
313.25231	31105.4875
317.46415	30510.3875
321.67296	29697.6875
325.87872	29035.6875
330.08145	28704.8875
334.28114	28678.3875
338.47781	28840.8875
342.67145	29038.2875
346.86207	29396.3875
351.04966	29720.8875
355.23424	30107.8875
359.4158	30423.7875
363.59435	30713.9875
367.76989	30881.5875
371.94243	31026.7875
376.11196	31092.8875
380.27849	31192.1875
384.44203	31203.2875
388.60257	31366.5875
392.76012	31737.2875
396.91468	32213.9875
401.06626	32748.2875
405.21485	33102.6875
409.36047	32991.0875
413.50311	32642.8875
417.64277	32328.3875
421.77947	32274.8875
425.9132	32430.8875
430.04396	32537.2875
434.17176	32710.9875
438.2966	32883.6875
442.41849	33229.0875
446.53742	33789.5875
450.6534	34445.8875
454.76644	34917.2875
458.87653	35133.4875
462.98368	35187.6875
467.08789	35167.7875
471.18916	34986.3875
475.2875	34833.9875
479.38291	34811.0875
483.4754	34720.2875
487.56496	34533.7875
491.6516	34068.6875
495.73531	33555.5875
499.81612	33143.7875
503.89401	33101.3875
507.96899	33247.4875
512.04106	33282.2875
516.11023	33195.0875
520.1765	32897.8875
524.23987	32526.2875
528.30034	32118.9875
532.35792	31860.9875
536.41261	31574.5875
540.46441	31337.4875
544.51333	31408.4875
548.55936	31845.4875
552.60252	32492.9875
556.64279	33167.2875
560.6802	33750.0875
564.71473	34192.1875
568.7464	34867.1875
572.7752	35974.7875
576.80114	37339.8875
580.82422	38540.5875
584.84444	39193.6875
588.86181	39510.2875
592.87633	39664.4875
596.888	39302.9875
600.89682	38432.2875
604.9028	38370.1875
608.90594	39659.1875
612.90624	41094.9875
616.90371	38766.6875
620.89834	34235.5875
624.89015	32223.2875
628.87913	32163.7875
632.86528	32493.8875
636.84862	32661.3875
640.82913	32221.6875
644.80683	31544.5875
648.78172	31034.5875
652.75379	30845.4875
656.72306	30990.3875
660.68952	31315.7875
664.65319	31306.9875
668.61405	31057.1875
672.57211	31017.6875
676.52738	31031.0875
680.47986	31007.1875
684.42955	30886.2875
688.37646	30767.1875
692.32058	30860.4875
696.26192	31146.2875
700.20048	31432.8875
704.13626	31748.4875
708.06928	31910.3875
711.99952	31926.5875
715.927	31786.0875
719.85171	31683.5875
723.77365	31456.1875
727.69284	31037.4875
731.60928	30723.0875
735.52295	30450.2875
739.43388	30349.8875
743.34206	30373.5875
747.24749	30547.0875
751.15017	30835.7875
755.05012	31378.5875
758.94733	32168.7875
762.8418	33501.3875
766.73354	35467.2875
770.62254	37251.5875
774.50882	37341.2875
778.39237	35852.8875
782.27321	33828.4875
786.15132	32268.0875
790.02671	31172.1875
793.89938	30569.8875
797.76935	30194.8875
801.6366	30055.6875
805.50115	29974.2875
809.36299	29856.6875
813.22213	29735.0875
817.07857	29781.7875
820.93231	29781.6875
824.78336	29695.7875
828.63172	29514.5875
832.47738	29428.6875
836.32036	29378.6875
840.16066	29322.5875
843.99827	29317.5875
847.8332	29289.6875
851.66546	29332.0875
855.49504	29356.2875
859.32195	29345.4875
863.1462	29276.1875
866.96777	29202.2875
870.78668	29210.0875
874.60293	29164.3875
878.41652	29133.5875
882.22745	29169.0875
886.03573	29283.1875
889.84136	29273.8875
893.64433	29248.4875
897.44466	29159.0875
901.24235	29155.1875
905.0374	29104.3875
908.8298	29065.3875
912.61957	29194.2875
916.40671	29509.7875
920.19121	29996.7875
923.97308	30222.8875
927.75233	30064.7875
931.52895	29657.2875
935.30295	29193.9875
939.07433	28727.5875
942.84309	28376.6875
946.60924	28123.5875
950.37278	27995.3875
954.13371	27938.3875
957.89203	27893.6875
961.64774	27934.3875
965.40086	27914.6875
969.15137	27873.8875
972.89929	27764.8875
976.64461	27634.7875
980.38733	27545.4875
984.12747	27547.7875
987.86502	27598.1875
991.59999	27673.6875
995.33237	27824.1875
999.06217	28042.2875
1002.78939	28327.5875
1006.51404	28701.4875
1010.23611	29025.0875
1013.95561	29272.8875
1017.67255	29296.8875
1021.38692	29206.6875
1025.09872	28854.1875
1028.80796	28627.5875
1032.51465	28497.6875
1036.21877	28590.7875
1039.92035	28651.3875
1043.61937	28852.8875
1047.31584	28994.1875
1051.00976	29109.2875
1054.70114	29317.0875
1058.38998	29603.7875
1062.07627	30086.2875
1065.76003	30537.8875
1069.44126	30977.0875
1073.11995	31319.0875
1076.79611	31600.3875
1080.46974	31703.8875
1084.14085	31755.1875
1087.80943	31928.1875
1091.47549	32259.2875
1095.13903	32494.8875
1098.80005	32316.6875
1102.45857	31618.7875
1106.11456	30901.6875
1109.76805	30408.9875
1113.41903	30230.4875
1117.06751	30255.8875
1120.71348	30546.1875
1124.35696	30747.9875
1127.99793	31101.2875
1131.63641	31314.0875
1135.2724	31328.8875
1138.90589	31252.7875
1142.5369	31302.6875
1146.16542	31516.1875
1149.79145	31795.2875
1153.415	32223.7875
1157.03607	32697.2875
1160.65467	33461.2875
1164.27079	34615.0875
1167.88443	36093.3875
1171.49561	37716.1875
1175.10432	39521.4875
1178.71056	41767.6875
1182.31434	44025.3875
1185.91565	45398.4875
1189.51451	45926.3875
1193.11091	45633.3875
1196.70485	44586.9875
1200.29634	43000.7875
1203.88538	41815.4875
1207.47197	41251.8875
1211.05612	40902.3875
1214.63782	40408.6875
1218.21708	39356.9875
1221.79391	38017.1875
1225.36829	36892.3875
1228.94024	36250.3875
1232.50976	35815.0875
1236.07685	35615.3875
1239.6415	35559.8875
1243.20374	35709.3875
1246.76355	35933.4875
1250.32093	36319.5875
1253.8759	36964.0875
1257.42845	37828.6875
1260.97859	38777.7875
1264.52631	39716.0875
1268.07163	40674.7875
1271.61453	41532.7875
1275.15503	42489.8875
1278.69312	43569.6875
1282.22882	44636.3875
1285.76211	45973.5875
1289.29301	47532.3875
1292.82151	49365.9875
1296.34761	51501.8875
1299.87133	53856.5875
1303.39266	56074.8875
1306.9116	57897.2875
1310.42815	59101.0875
1313.94233	59468.5875
1317.45412	59361.4875
1320.96354	59256.3875
1324.47058	59436.6875
1327.97525	59761.3875
1331.47754	60157.1875
1334.97747	60659.5875
1338.47502	60968.5875
1341.97022	61294.7875
1345.46305	61411.7875
1348.95352	61013.7875
1352.44163	59957.2875
1355.92738	59012.8875
1359.41078	58673.9875
1362.89183	58636.3875
1366.37053	57485.6875
1369.84688	54270.7875
1373.32088	50348.5875
1376.79254	47331.6875
1380.26186	46079.6875
1383.72883	46125.5875
1387.19347	46294.5875
1390.65578	46084.5875
1394.11575	45830.0875
1397.57339	45843.1875
1401.0287	46055.9875
1404.48168	46105.5875
1407.93234	45691.6875
1411.38068	44663.8875
1414.82669	43098.3875
1418.27039	41235.1875
1421.71177	39626.1875
1425.15083	38399.0875
1428.58758	37738.9875
1432.02203	37852.2875
1435.45416	38558.4875
1438.88399	39476.0875
1442.31151	40296.0875
1445.73673	40990.6875
1449.15965	41657.7875
1452.58027	42307.3875
1455.9986	42757.1875
1459.41463	43222.7875
1462.82837	43755.2875
1466.23982	44383.9875
1469.64898	44944.5875
1473.05586	45162.6875
1476.46045	45096.9875
1479.86276	44940.1875
1483.26279	44747.7875
1486.66054	44749.6875
1490.05602	44990.2875
1493.44922	45545.6875
1496.84016	46488.9875
1500.22882	47800.6875
1503.61521	49315.3875
1506.99934	50899.4875
1510.38121	51970.6875
1513.76081	52246.5875
1517.13816	51668.4875
1520.51324	50816.7875
1523.88607	50259.5875
1527.25665	49987.6875
1530.62498	49740.6875
1533.99105	49222.9875
1537.35488	48393.6875
1540.71647	47108.6875
1544.07581	45575.3875
1547.4329	44143.1875
1550.78776	43083.2875
1554.14038	42328.9875
1557.49077	42020.7875
1560.83892	41876.2875
1564.18484	41987.3875
1567.52853	42143.2875
1570.86999	42439.3875
1574.20922	43170.3875
1577.54624	43841.4875
1580.88103	44146.5875
1584.2136	44315.3875
1587.54395	44949.6875
1590.87208	46116.5875
1594.19801	47567.7875
1597.52172	48969.4875
1600.84321	48959.1875
1604.16251	46958.4875
1607.47959	44172.4875
1610.79447	41366.5875
1614.10715	38675.8875
1617.41763	36361.4875
1620.7259	34521.4875
1624.03199	33462.6875
1627.33587	33204.3875
1630.63757	33828.7875
1633.93707	35476.4875
1637.23439	38405.9875
1640.52951	42656.4875
1643.82246	47696.5875
1647.11321	52091.6875
1650.40179	53746.4875
1653.68819	51555.4875
1656.97241	46390.3875
1660.25446	40582.4875
1663.53433	35635.6875
1666.81203	32094.5875
1670.08756	29773.1875
1673.36092	28215.3875
1676.63211	27258.1875
1679.90115	26677.4875
1683.16801	26129.9875
1686.43272	25771.0875
1689.69527	25476.2875
1692.95567	25268.7875
1696.2139	25098.2875
1699.46999	24965.2875
1702.72392	24847.7875
1705.97571	24788.8875
1709.22535	24695.7875
1712.47284	24616.7875
1715.71819	24542.4875
1718.96139	24482.7875
1722.20246	24383.0875
1725.44139	24269.5875
1728.67818	24173.5875
1731.91284	24020.5875
1735.14537	23827.8875
1738.37576	23742.7875
1741.60403	23654.4875
1744.83017	23560.9875
1748.05418	23500.6875
1751.27607	23474.1875
1754.49584	23399.6875
1757.71349	23377.4875
1760.92903	23341.6875
1764.14244	23322.4875
1767.35375	23277.0875
1770.56294	23196.1875
1773.77002	23161.9875
1776.97499	23084.2875
1780.17785	23018.3875
1783.37861	22998.4875
1786.57727	22957.1875
1789.77382	22865.2875
1792.96828	22839.1875
1796.16064	22802.2875
1799.3509	22694.3875
1802.53907	22694.4875
1805.72514	22597.6875
1808.90913	22503.8875
1812.09102	22448.7875
1815.27083	22399.2875
1818.44856	22347.4875
1821.6242	22297.8875
1824.79776	22318.1875
1827.96924	22243.2875
1831.13864	22247.2875
1834.30597	22254.5875
1837.47122	22204.6875
1840.6344	22224.4875
1843.7955	22214.9875
1846.95454	22210.5875
1850.11151	22175.4875
1853.26642	22180.6875
1856.41926	22168.8875
1859.57004	22141.8875
1862.71876	22115.8875
1865.86542	22073.0875
1869.01003	22008.2875
1872.15258	21936.0875
1875.29308	21937.8875
1878.43152	21840.3875
1881.56792	21814.8875
1884.70227	21789.0875
1887.83457	21744.9875
1890.96482	21684.6875
1894.09304	21620.6875
1897.21921	21612.5875
1900.34335	21596.2875
1903.46544	21588.7875
1906.58551	21530.2875
1909.70353	21492.4875
1912.81953	21410.9875
1915.93349	21399.5875
1919.04543	21327.4875
1922.15534	21327.7875
1925.26322	21235.8875
1928.36908	21195.9875
1931.47292	21153.6875
1934.57473	21057.4875
1937.67453	20992.1875
1940.77232	20928.9875
1943.86808	20905.0875
1946.96184	20792.2875
1950.05358	20767.0875
1953.14331	20691.7875
1956.23103	20606.4875
1959.31675	20532.9875
1962.40046	20523.6875
1965.48217	20439.6875
1968.56188	20375.7875
1971.63959	20309.8875
1974.7153	20216.8875
1977.78901	20152.8875
1980.86073	20034.3875
1983.93046	19974.9875
1986.99819	19903.1875
1990.06394	19881.8875
1993.1277	19836.8875
1996.18947	19759.1875
1999.24925	19710.9875
2002.30706	19638.0875
2005.36288	19550.9875
2008.41672	19500.9875
2011.46859	19447.0875
2014.51848	19395.7875
2017.56639	19293.5875
2020.61233	19263.2875
2023.6563	19200.4875
2026.6983	19101.2875
2029.73833	19063.8875
2032.7764	19036.9875
2035.8125	18965.2875
2038.84664	18901.0875
2041.87881	18883.7875
2044.90903	18814.6875
2047.93729	18819.0875
2050.96359	18761.5875
2053.98794	18752.0875
2057.01034	18720.8875
2060.03078	18686.1875
2063.04927	18642.3875
2066.06582	18652.5875
2069.08042	18644.2875
2072.09307	18636.7875
2075.10378	18592.8875
2078.11255	18607.4875
2081.11938	18563.6875
2084.12426	18567.9875
2087.12722	18563.8875
2090.12824	18530.1875
2093.12732	18484.4875
2096.12447	18524.3875
2099.11969	18532.3875
2102.11299	18504.1875
2105.10435	18513.4875
2108.09379	18468.9875
2111.08131	18510.8875
2114.0669	18503.3875
2117.05057	18516.8875
2120.03233	18538.1875
2123.01216	18552.9875
2125.99008	18522.7875
2128.96609	18570.8875
2131.94018	18581.7875
2134.91236	18573.5875
2137.88263	18589.2875
2140.851	18596.4875
2143.81746	18595.8875
2146.78201	18532.9875
2149.74466	18505.7875
2152.7054	18511.1875
2155.66425	18507.3875
2158.6212	18459.4875
2161.57625	18457.9875
2164.52941	18473.4875
2167.48067	18434.8875
2170.43004	18463.2875
2173.37752	18413.3875
2176.32311	18421.6875
2179.26681	18407.1875
2182.20863	18402.6875
2185.14856	18425.2875
2188.08661	18411.3875
2191.02278	18412.8875
2193.95707	18368.2875
2196.88948	18365.9875
2199.82001	18288.5875
2202.74867	18290.5875
2205.67545	18248.0875
2208.60037	18233.7875
2211.52341	18190.7875
2214.44458	18188.4875
2217.36388	18127.9875
2220.28132	18077.6875
2223.1969	18040.4875
2226.11061	17986.3875
2229.02246	17940.7875
2231.93245	17872.1875
2234.84058	17847.8875
2237.74686	17852.9875
2240.65128	17804.8875
2243.55385	17773.7875
2246.45456	17748.3875
2249.35343	17719.8875
2252.25044	17673.9875
2255.14561	17620.5875
2258.03893	17664.6875
2260.93041	17566.0875
2263.82004	17536.8875
2266.70783	17477.3875
2269.59378	17422.0875
2272.4779	17346.5875
2275.36017	17323.3875
2278.24061	17296.2875
2281.11922	17213.2875
2283.996	17197.5875
2286.87094	17171.4875
2289.74405	17144.2875
2292.61534	17111.1875
2295.4848	17069.7875
2298.35243	17062.2875
2301.21824	17075.5875
2304.08223	17056.1875
2306.94439	17037.9875
2309.80474	17037.0875
2312.66327	17019.5875
2315.51999	16971.6875
2318.37489	16928.9875
2321.22797	16900.9875
2324.07925	16876.3875
2326.92871	16855.3875
2329.77637	16815.0875
2332.62222	16774.3875
2335.46626	16773.3875
2338.3085	16720.3875
2341.14893	16721.5875
2343.98756	16711.6875
2346.8244	16695.7875
2349.65943	16686.5875
2352.49267	16687.5875
2355.32411	16680.2875
2358.15376	16693.5875
2360.98161	16648.8875
2363.80768	16652.0875
2366.63195	16645.8875
2369.45444	16621.1875
2372.27514	16608.6875
2375.09405	16573.6875
2377.91118	16516.4875
2380.72652	16470.8875
2383.54009	16449.1875
2386.35187	16414.6875
2389.16188	16348.3875
2391.97011	16351.8875
2394.77657	16313.9875
2397.58125	16272.1875
2400.38416	16257.3875
2403.18529	16216.6875
2405.98466	16194.8875
2408.78226	16166.8875
2411.57809	16160.9875
2414.37216	16155.2875
2417.16446	16104.3875
2419.955	16104.9875
2422.74378	16111.7875
2425.5308	16042.0875
2428.31606	16019.8875
2431.09956	16046.1875
2433.88131	16011.8875
2436.6613	16009.2875
2439.43954	15993.5875
2442.21603	15959.2875
2444.99077	15931.5875
2447.76377	15980.8875
2450.53501	15922.7875
2453.30451	15881.0875
2456.07226	15859.3875
2458.83827	15839.9875
2461.60254	15832.2875
2464.36507	15784.0875
2467.12586	15776.0875
2469.88492	15791.4875
2472.64224	15810.5875
2475.39782	15797.1875
2478.15167	15836.1875
2480.90379	15779.0875
2483.65417	15784.8875
2486.40283	15769.0875
2489.14976	15770.4875
2491.89497	15726.7875
2494.63845	15764.6875
2497.3802	15716.9875
2500.12024	15709.0875
2502.85855	15677.6875
2505.59514	15692.2875
2508.33002	15664.6875
2511.06318	15660.4875
2513.79462	15632.7875
2516.52435	15581.0875
2519.25237	15623.4875
2521.97867	15580.0875
2524.70327	15573.2875
2527.42616	15548.5875
2530.14734	15558.5875
2532.86681	15519.7875
2535.58458	15546.5875
2538.30065	15491.1875
2541.01501	15448.4875
2543.72768	15453.0875
2546.43864	15442.4875
2549.14791	15399.1875
2551.85548	15401.6875
2554.56136	15356.0875
2557.26554	15315.6875
2559.96803	15283.9875
2562.66883	15267.6875
2565.36794	15232.7875
2568.06536	15231.9875
2570.7611	15176.6875
2573.45514	15178.6875
2576.14751	15140.3875
2578.83819	15127.3875
2581.52719	15113.9875
2584.21451	15096.4875
2586.90015	15101.7875
2589.58411	15056.4875
2592.2664	15036.3875
2594.94701	15008.2875
2597.62594	14997.1875
2600.30321	14965.6875
2602.9788	14964.0875
2605.65273	14958.9875
2608.32498	14904.2875
2610.99557	14930.1875
2613.66449	14911.9875
2616.33175	14873.4875
2618.99734	14872.3875
2621.66128	14874.9875
2624.32355	14833.1875
2626.98416	14832.0875
2629.64311	14816.8875
2632.30041	14802.8875
2634.95605	14764.9875
2637.61004	14773.7875
2640.26238	14758.2875
2642.91306	14743.8875
2645.56209	14745.6875
2648.20948	14772.5875
2650.85521	14796.1875
2653.4993	14790.6875
2656.14175	14775.4875
2658.78255	14785.3875
2661.42171	14735.3875
2664.05923	14728.0875
2666.6951	14726.1875
2669.32934	14730.8875
2671.96194	14752.8875
2674.59291	14767.8875
2677.22224	14764.6875
2679.84993	14750.2875
2682.476	14728.7875
2685.10043	14723.0875
2687.72324	14714.1875
2690.34441	14709.3875
2692.96396	14673.5875
2695.58188	14704.4875
2698.19818	14659.5875
2700.81285	14698.5875
2703.4259	14715.4875
2706.03733	14766.8875
2708.64714	14695.4875
2711.25533	14715.3875
2713.86191	14695.9875
2716.46687	14724.4875
2719.07021	14710.1875
2721.67194	14763.5875
2724.27206	14726.3875
2726.87057	14726.3875
2729.46747	14733.2875
2732.06276	14749.7875
2734.65644	14719.9875
2737.24852	14698.2875
2739.83899	14664.6875
2742.42786	14658.7875
2745.01513	14658.8875
2747.60079	14657.0875
2750.18486	14608.4875
2752.76733	14590.5875
2755.3482	14583.0875
2757.92747	14579.5875
2760.50515	14560.1875
2763.08123	14562.8875
2765.65573	14562.7875
2768.22863	14535.8875
2770.79994	14503.3875
2773.36967	14505.5875
2775.9378	14509.7875
2778.50435	14497.4875
2781.06932	14476.0875
2783.6327	14479.0875
2786.1945	14450.5875
2788.75471	14474.1875
2791.31335	14417.5875
2793.87041	14386.8875
2796.42589	14342.9875
2798.97979	14330.7875
2801.53212	14306.5875
2804.08288	14298.6875
2806.63206	14217.7875
2809.17967	14219.0875
2811.72571	14166.7875
2814.27018	14151.4875
2816.81308	14132.7875
2819.35442	14088.9875
2821.89419	14050.9875
2824.43239	14083.4875
2826.96904	14047.2875
2829.50412	14051.9875
2832.03763	14012.1875
2834.56959	14004.5875
2837.1	13983.7875
2839.62884	14009.1875
2842.15613	13964.1875
2844.68186	13993.7875
2847.20604	13995.1875
2849.72867	14003.2875
2852.24974	13994.4875
2854.76927	14019.2875
2857.28724	13987.1875
2859.80367	13954.6875
2862.31855	13917.7875
2864.83189	13894.7875
2867.34368	13868.3875
2869.85393	13842.0875
2872.36264	13804.4875
2874.8698	13796.5875
2877.37543	13781.1875
2879.87952	13762.0875
2882.38207	13775.6875
2884.88308	13732.2875
2887.38256	13765.3875
2889.88051	13706.8875
2892.37692	13733.1875
2894.8718	13732.6875
2897.36515	13729.0875
2899.85698	13710.1875
2902.34727	13745.8875
2904.83604	13755.3875
2907.32328	13802.0875
2909.809	13762.1875
2912.29319	13762.3875
2914.77587	13763.8875
2917.25702	13784.9875
2919.73665	13777.5875
2922.21476	13763.1875
2924.69136	13745.7875
2927.16644	13738.4875
2929.64	13709.6875
2932.11205	13679.5875
2934.58258	13645.7875
2937.05161	13650.4875
2939.51912	13671.2875
2941.98513	13642.4875
2944.44962	13573.4875
2946.91261	13531.0875
2949.37409	13541.4875
2951.83407	13501.1875
2954.29254	13495.4875
2956.74951	13473.1875
2959.20498	13487.2875
2961.65895	13445.4875
2964.11142	13457.3875
2966.56239	13429.0875
2969.01186	13430.2875
2971.45984	13407.2875
2973.90632	13435.5875
2976.35131	13378.8875
2978.7948	13329.7875
2981.23681	13295.8875
2983.67732	13289.4875
2986.11635	13252.1875
2988.55388	13234.0875
2990.98993	13194.7875
2993.4245	13118.7875
2995.85758	13093.5875
2998.28917	13057.5875
3000.71928	13029.4875
3003.14791	13006.3875
3005.57506	12984.0875
3008.00073	12955.2875
3010.42493	12823.7875
3012.84764	12880.1875
3015.26888	12856.3875
3017.68865	12818.1875
3020.10694	12803.2875
3022.52376	12789.3875
3024.9391	12784.5875
3027.35298	12750.7875
3029.76539	12709.2875
3032.17632	12715.3875
3034.5858	12677.5875
3036.9938	12645.0875
3039.40034	12641.0875
3041.80542	12638.0875
3044.20903	12621.3875
3046.61118	12610.6875
3049.01187	12594.7875
3051.4111	12594.8875
3053.80888	12559.5875
3056.20519	12507.1875
3058.60005	12487.3875
3060.99345	12463.3875
3063.3854	12416.2875
3065.7759	12353.5875
3068.16494	12340.6875
3070.55254	12270.6875
3072.93868	12234.7875
3075.32338	12200.1875
3077.70662	12181.7875
3080.08842	12126.4875
3082.46878	12125.0875
3084.84769	12081.7875
3087.22515	12101.9875
3089.60118	12083.0875
3091.97576	12078.9875
3094.3489	12052.3875
3096.72061	12041.2875
3099.09087	12016.3875
3101.4597	12011.5875
3103.82709	12026.9875
3106.19305	12024.9875
3108.55757	11997.7875
3110.92066	11936.4875
3113.28232	11944.9875
3115.64255	11909.1875
3118.00134	11897.7875
3120.35871	11888.6875
3122.71466	11840.0875
3125.06917	11784.5875
3127.42226	11767.3875
3129.77393	11733.6875
3132.12417	11740.6875
3134.47299	11736.0875
3136.82039	11692.5875
3139.16636	11700.5875
3141.51092	11697.5875
3143.85406	11694.1875
3146.19579	11680.9875
3148.53609	11658.3875
3150.87499	11673.4875
3153.21246	11667.2875
3155.54853	11715.6875
3157.88318	11644.8875
3160.21642	11698.4875
3162.54826	11663.1875
3164.87868	11670.6875
3167.2077	11647.4875
3169.5353	11675.0875
3171.86151	11657.5875
3174.18631	11651.4875
3176.5097	11618.3875
3178.83169	11597.5875
3181.15228	11611.9875
3183.47147	11544.3875
3185.78926	11559.2875
3188.10565	11527.2875
3190.42065	11499.7875
3192.73424	11480.0875
3195.04645	11466.0875
3197.35725	11458.3875
3199.66667	11438.2875
3201.97469	11441.1875
3204.28132	11415.7875
3206.58656	11442.2875
3208.8904	11420.5875
3211.19287	11438.5875
3213.49394	11411.0875
3215.79363	11417.8875
3218.09193	11445.5875
3220.38884	11417.8875
3222.68438	11423.9875
3224.97853	11376.7875
3227.2713	11346.0875
3229.56269	11334.0875
3231.8527	11335.8875
3234.14133	11319.8875
3236.42858	11277.7875
3238.71446	11269.2875
3240.99896	11248.0875
3243.28209	11206.4875
3245.56384	11189.0875
3247.84423	11183.3875
3250.12324	11160.1875
3252.40088	11132.5875
3254.67715	11149.0875
3256.95205	11136.2875
3259.22558	11127.8875
3261.49775	11098.7875
3263.76855	11081.6875
3266.03799	11021.9875
3268.30606	11006.1875
3270.57277	11015.0875
3272.83812	10972.8875
3275.10211	10941.6875
3277.36474	10929.1875
3279.62601	10912.7875
3281.88593	10911.2875
3284.14448	10900.9875
3286.40168	10896.5875
3288.65753	10920.2875
3290.91202	10901.9875
3293.16516	10866.9875
3295.41695	10820.8875
3297.66738	10777.4875
3299.91647	10730.1875
3302.16421	10635.1875
3304.4106	10583.6875
3306.65564	10503.6875
3308.89933	10417.0875
3311.14169	10354.4875
3313.38269	10249.0875
3315.62236	10198.6875
3317.86068	10075.9875
3320.09766	10000.9875
3322.3333	9922.8875
3324.5676	9888.1875
3326.80056	9729.9875
3329.03219	9669.1875
3331.26248	4.7875
3333.49143	-2.5125
3335.71905	-1.0125
