Data from AgNPs_FTO_APTES_UA_5uM_CRN_1000uM_R6G_10uM_NaF_0.1M_Addition_RamanShift__19__17-46-01-886.txt Node

Date: Mon Feb 07 17:46:01 GMT 2022
User: TCL
Spectrometer: QEP01345
Trigger mode: 4
Integration Time (sec): 7.000000E0
Scans to average: 10
Electric dark correction enabled: true
Nonlinearity correction enabled: false
Boxcar width: 0
XAxis mode: Raman Shifts
Number of Pixels in Spectrum: 1044
>>>>>Begin Spectral Data<<<<<
46.04893	-0.2
50.45542	0.4
54.85868	0
59.25871	-1.9
63.6555	45.6
68.04907	49.5
72.43941	55.1
76.82654	53
81.21044	53.9
85.59113	54.9
89.96862	60.2
94.34289	61.2
98.71396	62.9
103.08183	66.2
107.4465	68.7
111.80798	70.7
116.16626	68.5
120.52136	74.1
124.87327	77.8
129.222	84.7
133.56755	84.1
137.90993	89.6
142.24913	104.4
146.58517	118.2
150.91804	136.5
155.24774	168.6
159.57429	209
163.89768	264.8
168.21792	355
172.53501	485.4
176.84895	674.3
181.15975	953.6
185.46741	1343
189.77193	1843.5
194.07331	2485.4
198.37157	3193
202.6667	3943.1
206.9587	4681.7
211.24758	5422.7
215.53334	6182.2
219.81599	6960.4
224.09553	7848
228.37195	8767.7
232.64527	9790.9
236.91549	10869
241.18261	11965.4
245.44663	12960.6
249.70755	13871.2
253.96539	14659.8
258.22014	15296.3
262.4718	15818.9
266.72039	16226
270.96589	16440.7
275.20832	16504.5
279.44768	16466.9
283.68397	16368.9
287.91719	16245.7
292.14735	16255.6
296.37445	16318.1
300.59849	16367.9
304.81948	16403
309.03742	16299.7
313.25231	16095.9
317.46415	15744.4
321.67296	15282.8
325.87872	14897.1
330.08145	14701.8
334.28114	14648.7
338.47781	14677.6
342.67145	14839
346.86207	15028.8
351.04966	15251.8
355.23424	15534.9
359.4158	15713.2
363.59435	15879.3
367.76989	15965.4
371.94243	16050.9
376.11196	16138.1
380.27849	16177.4
384.44203	16309.4
388.60257	16513.6
392.76012	16692.9
396.91468	16827.6
401.06626	17064.5
405.21485	17214.8
409.36047	17130.7
413.50311	16959.3
417.64277	16778.1
421.77947	16796.9
425.9132	16892.5
430.04396	17072.6
434.17176	17217.7
438.2966	17402.4
442.41849	17740.2
446.53742	18324.9
450.6534	18977.8
454.76644	19460
458.87653	19590
462.98368	19437.7
467.08789	19151.5
471.18916	18933.5
475.2875	18819.6
479.38291	18907.2
483.4754	18824.2
487.56496	18611
491.6516	18119
495.73531	17655.3
499.81612	17329.6
503.89401	17267.8
507.96899	17297.6
512.04106	17177
516.11023	16988.5
520.1765	16786.5
524.23987	16594.1
528.30034	16494.8
532.35792	16434
536.41261	16285.3
540.46441	16108
544.51333	16103.2
548.55936	16301.6
552.60252	16712.5
556.64279	17290.3
560.6802	17769.4
564.71473	18063.9
568.7464	18509.2
572.7752	19144.7
576.80114	19590.2
580.82422	19806.9
584.84444	20118.1
588.86181	20615.2
592.87633	21087.9
596.888	21071.5
600.89682	20430.5
604.9028	20247.3
608.90594	21192.3
612.90624	22202.2
616.90371	20767.6
620.89834	17575.1
624.89015	16226.3
628.87913	16102.6
632.86528	16236.9
636.84862	16303.3
640.82913	16126.3
644.80683	15751.6
648.78172	15443.1
652.75379	15318.4
656.72306	15393.1
660.68952	15554.6
664.65319	15491.3
668.61405	15249.8
672.57211	15251.7
676.52738	15362.8
680.47986	15414
684.42955	15333.6
688.37646	15220.3
692.32058	15201
696.26192	15339.4
700.20048	15461.8
704.13626	15590.6
708.06928	15610.6
711.99952	15575.5
715.927	15538
719.85171	15559.9
723.77365	15545.9
727.69284	15379.3
731.60928	15288.4
735.52295	15236.9
739.43388	15227.6
743.34206	15240.8
747.24749	15269
751.15017	15397.8
755.05012	15653.6
758.94733	16143.6
762.8418	16932.6
766.73354	18189.1
770.62254	19330.9
774.50882	19556
778.39237	18601.9
782.27321	17215.2
786.15132	16090
790.02671	15414.7
793.89938	15073.1
797.76935	14935.1
801.6366	14868
805.50115	14848.4
809.36299	14766.4
813.22213	14671.1
817.07857	14623.1
820.93231	14564.8
824.78336	14482.1
828.63172	14364
832.47738	14296.9
836.32036	14264.1
840.16066	14284.9
843.99827	14268.3
847.8332	14208.7
851.66546	14190.1
855.49504	14197.2
859.32195	14210.4
863.1462	14211.1
866.96777	14179.9
870.78668	14151.5
874.60293	14166.5
878.41652	14150.5
882.22745	14183
886.03573	14196.7
889.84136	14214.4
893.64433	14156.4
897.44466	14154.4
901.24235	14038.8
905.0374	13944
908.8298	13864.2
912.61957	13883
916.40671	14058.3
920.19121	14229.3
923.97308	14376.5
927.75233	14304.4
931.52895	14179
935.30295	13953.1
939.07433	13698.3
942.84309	13469.3
946.60924	13375.7
950.37278	13311
954.13371	13297.8
957.89203	13289.4
961.64774	13275
965.40086	13255
969.15137	13221.4
972.89929	13082.2
976.64461	13002.9
980.38733	12935.7
984.12747	12921.8
987.86502	12992.8
991.59999	13097.8
995.33237	13219.1
999.06217	13503.7
1002.78939	13825.6
1006.51404	14081.2
1010.23611	14282.1
1013.95561	14457.3
1017.67255	14514.3
1021.38692	14330.6
1025.09872	14035.8
1028.80796	13875.5
1032.51465	13881.1
1036.21877	13957.4
1039.92035	14018.8
1043.61937	14010
1047.31584	13958.7
1051.00976	13902.3
1054.70114	13964
1058.38998	14015.5
1062.07627	14169.6
1065.76003	14310.4
1069.44126	14448
1073.11995	14597.2
1076.79611	14749.3
1080.46974	14800.1
1084.14085	14871.7
1087.80943	14976.7
1091.47549	15136
1095.13903	15249.3
1098.80005	15107.7
1102.45857	14793.7
1106.11456	14477.2
1109.76805	14369.2
1113.41903	14400.7
1117.06751	14532.3
1120.71348	14725.4
1124.35696	14945
1127.99793	15203.6
1131.63641	15412.7
1135.2724	15332.6
1138.90589	15211.4
1142.5369	15215.2
1146.16542	15336.5
1149.79145	15541.7
1153.415	15763.3
1157.03607	16088.9
1160.65467	16663.2
1164.27079	17491.9
1167.88443	18483
1171.49561	19705.3
1175.10432	21232.3
1178.71056	23104.1
1182.31434	24804
1185.91565	25610.9
1189.51451	25451.4
1193.11091	24794.5
1196.70485	23954.4
1200.29634	23002.1
1203.88538	22258.1
1207.47197	21769.2
1211.05612	21336.3
1214.63782	20894.5
1218.21708	20469.8
1221.79391	20096.7
1225.36829	19762.9
1228.94024	19327.3
1232.50976	18765.7
1236.07685	18290.6
1239.6415	18059.8
1243.20374	18039.5
1246.76355	18130.9
1250.32093	18374
1253.8759	18783.6
1257.42845	19277.6
1260.97859	19823
1264.52631	20355.2
1268.07163	20947.1
1271.61453	21572.4
1275.15503	22177.7
1278.69312	22929.7
1282.22882	23718.2
1285.76211	24677.4
1289.29301	25896.1
1292.82151	27435.8
1296.34761	29264.3
1299.87133	31282.9
1303.39266	33158.8
1306.9116	34917.6
1310.42815	36429
1313.94233	37372.9
1317.45412	37528.5
1320.96354	37133.9
1324.47058	36630.5
1327.97525	36031.1
1331.47754	35671.1
1334.97747	35420
1338.47502	35149.9
1341.97022	34707.3
1345.46305	34099.3
1348.95352	33316.3
1352.44163	32867.4
1355.92738	32942.7
1359.41078	33667
1362.89183	34380
1366.37053	33866.8
1369.84688	31417.1
1373.32088	28216.1
1376.79254	25986
1380.26186	25297.8
1383.72883	25474.9
1387.19347	25765.3
1390.65578	25943.2
1394.11575	26242.4
1397.57339	26813.2
1401.0287	27649.1
1404.48168	28230.5
1407.93234	28166
1411.38068	27463
1414.82669	26176.4
1418.27039	24594.7
1421.71177	23132
1425.15083	21865.1
1428.58758	21241.1
1432.02203	21291
1435.45416	21888.1
1438.88399	22733.2
1442.31151	23480.1
1445.73673	24078.1
1449.15965	24578.7
1452.58027	25042.1
1455.9986	25223.4
1459.41463	25401.4
1462.82837	25690.1
1466.23982	26109.6
1469.64898	26370.4
1473.05586	26430.6
1476.46045	26285.1
1479.86276	25934.4
1483.26279	25472.3
1486.66054	25104.5
1490.05602	24954.4
1493.44922	24938.1
1496.84016	24884.7
1500.22882	25003.9
1503.61521	25481.2
1506.99934	26097.7
1510.38121	26790.6
1513.76081	27055.8
1517.13816	26646.1
1520.51324	25881.8
1523.88607	25358
1527.25665	25172.9
1530.62498	25256.4
1533.99105	25377
1537.35488	25306.8
1540.71647	24910.4
1544.07581	24219.9
1547.4329	23485
1550.78776	22777
1554.14038	22300.3
1557.49077	21975.6
1560.83892	21833.9
1564.18484	21781.3
1567.52853	21856.3
1570.86999	22095.3
1574.20922	22654
1577.54624	23175.3
1580.88103	23512.6
1584.2136	23888
1587.54395	24731.2
1590.87208	25977.3
1594.19801	27533.7
1597.52172	29039
1600.84321	29512.4
1604.16251	28243.2
1607.47959	25806.2
1610.79447	23112
1614.10715	20679.3
1617.41763	18763.4
1620.7259	17452.2
1624.03199	16789.8
1627.33587	16706.9
1630.63757	17303.9
1633.93707	18604
1637.23439	20811.8
1640.52951	24028.4
1643.82246	27791.9
1647.11321	30701.5
1650.40179	31271.2
1653.68819	28797.1
1656.97241	24647.5
1660.25446	20529
1663.53433	17452.4
1666.81203	15394.3
1670.08756	14143
1673.36092	13346.5
1676.63211	12858.2
1679.90115	12504.8
1683.16801	12244.8
1686.43272	12040.5
1689.69527	11855.1
1692.95567	11711.8
1696.2139	11645.7
1699.46999	11573.4
1702.72392	11466
1705.97571	11433.9
1709.22535	11396
1712.47284	11334.6
1715.71819	11316.4
1718.96139	11262.3
1722.20246	11216.3
1725.44139	11138.8
1728.67818	11076.2
1731.91284	11025.2
1735.14537	10945.5
1738.37576	10876.1
1741.60403	10835.9
1744.83017	10786.8
1748.05418	10782.4
1751.27607	10761.6
1754.49584	10751.7
1757.71349	10757.5
1760.92903	10714.5
1764.14244	10678.6
1767.35375	10662.5
1770.56294	10588.5
1773.77002	10583.4
1776.97499	10523
1780.17785	10502.8
1783.37861	10504
1786.57727	10468.5
1789.77382	10461.5
1792.96828	10390.4
1796.16064	10348.2
1799.3509	10356.4
1802.53907	10307.3
1805.72514	10292.5
1808.90913	10224.4
1812.09102	10210.9
1815.27083	10189.5
1818.44856	10162
1821.6242	10141.4
1824.79776	10123.5
1827.96924	10101.3
1831.13864	10082
1834.30597	10060.6
1837.47122	10050.7
1840.6344	10031
1843.7955	10030.4
1846.95454	10053.9
1850.11151	10027.5
1853.26642	10026.4
1856.41926	10005.2
1859.57004	9994.3
1862.71876	10004.7
1865.86542	9993.5
1869.01003	9957.6
1872.15258	9959.5
1875.29308	9933
1878.43152	9916.4
1881.56792	9915.7
1884.70227	9911.9
1887.83457	9904
1890.96482	9890.9
1894.09304	9878.4
1897.21921	9843
1900.34335	9840.6
1903.46544	9822.4
1906.58551	9818
1909.70353	9802.1
1912.81953	9776.1
1915.93349	9744.5
1919.04543	9704.8
1922.15534	9711.5
1925.26322	9698.1
1928.36908	9662.6
1931.47292	9644.7
1934.57473	9609.8
1937.67453	9588.6
1940.77232	9555.8
1943.86808	9516.4
1946.96184	9472.4
1950.05358	9443.4
1953.14331	9420.4
1956.23103	9373.7
1959.31675	9348.7
1962.40046	9323.3
1965.48217	9290
1968.56188	9288.1
1971.63959	9209.3
1974.7153	9202.5
1977.78901	9178.6
1980.86073	9145.3
1983.93046	9103.8
1986.99819	9075.9
1990.06394	9033.8
1993.1277	9023.9
1996.18947	8954.5
1999.24925	8977.2
2002.30706	8921.8
2005.36288	8877.3
2008.41672	8869.1
2011.46859	8852.6
2014.51848	8818
2017.56639	8789.6
2020.61233	8792.8
2023.6563	8748.2
2026.6983	8709.3
2029.73833	8682.4
2032.7764	8664.3
2035.8125	8663.1
2038.84664	8641.2
2041.87881	8630
2044.90903	8607.5
2047.93729	8608.8
2050.96359	8594.3
2053.98794	8570.6
2057.01034	8549.1
2060.03078	8558.1
2063.04927	8549.8
2066.06582	8552.5
2069.08042	8525.5
2072.09307	8538.7
2075.10378	8492.7
2078.11255	8495.5
2081.11938	8482.4
2084.12426	8495.2
2087.12722	8470.7
2090.12824	8472.7
2093.12732	8446.9
2096.12447	8464.8
2099.11969	8446.9
2102.11299	8432.7
2105.10435	8434.7
2108.09379	8445.8
2111.08131	8461.6
2114.0669	8434.9
2117.05057	8451.5
2120.03233	8435.5
2123.01216	8455.1
2125.99008	8441.2
2128.96609	8443.8
2131.94018	8445
2134.91236	8453.6
2137.88263	8461.2
2140.851	8460.2
2143.81746	8482.1
2146.78201	8453.1
2149.74466	8451.2
2152.7054	8438.5
2155.66425	8418.5
2158.6212	8418.6
2161.57625	8393
2164.52941	8402.7
2167.48067	8395.7
2170.43004	8383.4
2173.37752	8376.4
2176.32311	8389.6
2179.26681	8371.9
2182.20863	8364.6
2185.14856	8377.2
2188.08661	8376.4
2191.02278	8376
2193.95707	8355.2
2196.88948	8350.5
2199.82001	8328.5
2202.74867	8317.2
2205.67545	8291.1
2208.60037	8298
2211.52341	8277.3
2214.44458	8250.4
2217.36388	8234.3
2220.28132	8216.9
2223.1969	8184.7
2226.11061	8182.7
2229.02246	8161.3
2231.93245	8164.3
2234.84058	8116.6
2237.74686	8110.4
2240.65128	8091.8
2243.55385	8092.8
2246.45456	8098.9
2249.35343	8088.8
2252.25044	8058.2
2255.14561	8035
2258.03893	8000.9
2260.93041	7978.8
2263.82004	7969.6
2266.70783	7950.2
2269.59378	7910.6
2272.4779	7878.4
2275.36017	7849
2278.24061	7832.6
2281.11922	7842.1
2283.996	7832.1
2286.87094	7806.3
2289.74405	7791.2
2292.61534	7787.3
2295.4848	7777.1
2298.35243	7798.6
2301.21824	7759.5
2304.08223	7762.7
2306.94439	7768.1
2309.80474	7751.8
2312.66327	7758.3
2315.51999	7754.6
2318.37489	7750.9
2321.22797	7735.7
2324.07925	7702.3
2326.92871	7698.9
2329.77637	7694.9
2332.62222	7663.9
2335.46626	7679.3
2338.3085	7678.3
2341.14893	7628.5
2343.98756	7660.9
2346.8244	7670.2
2349.65943	7648.4
2352.49267	7624.6
2355.32411	7635.3
2358.15376	7633.1
2360.98161	7637.8
2363.80768	7634.2
2366.63195	7641.2
2369.45444	7624.4
2372.27514	7612.3
2375.09405	7585.1
2377.91118	7570.6
2380.72652	7546.3
2383.54009	7538.3
2386.35187	7504.4
2389.16188	7494
2391.97011	7467.2
2394.77657	7464.9
2397.58125	7452.4
2400.38416	7416
2403.18529	7385.9
2405.98466	7415.9
2408.78226	7393
2411.57809	7386.7
2414.37216	7373.9
2417.16446	7366.8
2419.955	7349.5
2422.74378	7346.6
2425.5308	7322.5
2428.31606	7342.9
2431.09956	7300.9
2433.88131	7292
2436.6613	7319.4
2439.43954	7301.9
2442.21603	7296.5
2444.99077	7275.4
2447.76377	7303.9
2450.53501	7292.5
2453.30451	7290.6
2456.07226	7278
2458.83827	7273.5
2461.60254	7266.2
2464.36507	7282
2467.12586	7262.6
2469.88492	7271.7
2472.64224	7274.6
2475.39782	7268.3
2478.15167	7265.8
2480.90379	7241.7
2483.65417	7264.6
2486.40283	7280
2489.14976	7276.6
2491.89497	7256.5
2494.63845	7267.3
2497.3802	7262.1
2500.12024	7254.8
2502.85855	7239
2505.59514	7263.5
2508.33002	7238.5
2511.06318	7231.6
2513.79462	7231
2516.52435	7230.4
2519.25237	7206.5
2521.97867	7204.3
2524.70327	7191.7
2527.42616	7175.2
2530.14734	7175.6
2532.86681	7187.8
2535.58458	7190.8
2538.30065	7166.5
2541.01501	7171.9
2543.72768	7138.1
2546.43864	7140.9
2549.14791	7130.8
2551.85548	7148.3
2554.56136	7111.7
2557.26554	7092.2
2559.96803	7094
2562.66883	7100
2565.36794	7066.7
2568.06536	7087.8
2570.7611	7080.4
2573.45514	7069.7
2576.14751	7046.5
2578.83819	7045.1
2581.52719	7041.4
2584.21451	7031.3
2586.90015	7041
2589.58411	7026.6
2592.2664	7030.2
2594.94701	7017.2
2597.62594	7019.6
2600.30321	7002.1
2602.9788	7026.8
2605.65273	7024
2608.32498	7039.9
2610.99557	7019.4
2613.66449	6999.6
2616.33175	7008.6
2618.99734	7006.7
2621.66128	6991.6
2624.32355	6983.2
2626.98416	6987.4
2629.64311	6965.1
2632.30041	6968.2
2634.95605	6972.1
2637.61004	6972.4
2640.26238	6966.9
2642.91306	6955
2645.56209	6938.9
2648.20948	6939.1
2650.85521	6955.9
2653.4993	6952.8
2656.14175	6941.9
2658.78255	6970.8
2661.42171	6964.9
2664.05923	6953.5
2666.6951	6958.4
2669.32934	6990.1
2671.96194	6978.3
2674.59291	6972
2677.22224	6961.9
2679.84993	6947
2682.476	6950
2685.10043	6941.4
2687.72324	6936.9
2690.34441	6950.8
2692.96396	6918.2
2695.58188	6923.5
2698.19818	6939.5
2700.81285	6951.3
2703.4259	6931.4
2706.03733	6953.6
2708.64714	6962.2
2711.25533	6951.8
2713.86191	6945.7
2716.46687	6952.9
2719.07021	6968.5
2721.67194	6965.4
2724.27206	6972.8
2726.87057	6956.5
2729.46747	6963.3
2732.06276	6967.6
2734.65644	6956.6
2737.24852	6989.6
2739.83899	6956.8
2742.42786	6940
2745.01513	6955.5
2747.60079	6953
2750.18486	6947.3
2752.76733	6917.9
2755.3482	6942.6
2757.92747	6934
2760.50515	6930.4
2763.08123	6930.7
2765.65573	6933.6
2768.22863	6926.2
2770.79994	6920.1
2773.36967	6914.8
2775.9378	6932.4
2778.50435	6928.3
2781.06932	6922
2783.6327	6933.2
2786.1945	6922.2
2788.75471	6931.3
2791.31335	6921.7
2793.87041	6895.8
2796.42589	6891.8
2798.97979	6891.6
2801.53212	6876.5
2804.08288	6882.3
2806.63206	6865.7
2809.17967	6829.9
2811.72571	6818.3
2814.27018	6829.1
2816.81308	6812.2
2819.35442	6796.9
2821.89419	6765.5
2824.43239	6783.4
2826.96904	6784.2
2829.50412	6781.1
2832.03763	6752.6
2834.56959	6742.6
2837.1	6755.3
2839.62884	6776.5
2842.15613	6759.2
2844.68186	6821.8
2847.20604	6821.7
2849.72867	6842.6
2852.24974	6842.9
2854.76927	6807.7
2857.28724	6811.2
2859.80367	6794.3
2862.31855	6776.1
2864.83189	6775.3
2867.34368	6761.4
2869.85393	6758.5
2872.36264	6762.6
2874.8698	6758.4
2877.37543	6768
2879.87952	6754.1
2882.38207	6752.9
2884.88308	6744.6
2887.38256	6758.5
2889.88051	6750
2892.37692	6763.9
2894.8718	6767.5
2897.36515	6778.4
2899.85698	6786.6
2902.34727	6785.3
2904.83604	6790.7
2907.32328	6820.3
2909.809	6816.7
2912.29319	6820.6
2914.77587	6816.8
2917.25702	6804
2919.73665	6801
2922.21476	6787
2924.69136	6793.3
2927.16644	6794.8
2929.64	6806.4
2932.11205	6810.8
2934.58258	6774.2
2937.05161	6778.9
2939.51912	6781.5
2941.98513	6745.6
2944.44962	6725.8
2946.91261	6719.4
2949.37409	6709.5
2951.83407	6686.8
2954.29254	6683.2
2956.74951	6649.1
2959.20498	6646.1
2961.65895	6634.4
2964.11142	6631.8
2966.56239	6613.7
2969.01186	6600.4
2971.45984	6589.3
2973.90632	6560.3
2976.35131	6551.8
2978.7948	6518.4
2981.23681	6496.5
2983.67732	6489.3
2986.11635	6462.9
2988.55388	6442.4
2990.98993	6453.4
2993.4245	6423.3
2995.85758	6401.9
2998.28917	6384.6
3000.71928	6366.5
3003.14791	6350.5
3005.57506	6350.3
3008.00073	6341.5
3010.42493	6323.7
3012.84764	6299.5
3015.26888	6314.6
3017.68865	6288.7
3020.10694	6259.7
3022.52376	6235.7
3024.9391	6231.4
3027.35298	6217.1
3029.76539	6224.8
3032.17632	6197.7
3034.5858	6211.4
3036.9938	6202.8
3039.40034	6199.5
3041.80542	6202.6
3044.20903	6201.5
3046.61118	6198.7
3049.01187	6163.5
3051.4111	6162
3053.80888	6152.4
3056.20519	6144.2
3058.60005	6125.3
3060.99345	6116.3
3063.3854	6082.4
3065.7759	6063.2
3068.16494	6049.8
3070.55254	6010.3
3072.93868	6011.2
3075.32338	5979.2
3077.70662	5990.2
3080.08842	5954.7
3082.46878	5967.5
3084.84769	5940
3087.22515	5933.6
3089.60118	5942.2
3091.97576	5936.2
3094.3489	5941.2
3096.72061	5924.4
3099.09087	5935.5
3101.4597	5928.1
3103.82709	5924.9
3106.19305	5904.3
3108.55757	5913.9
3110.92066	5892.8
3113.28232	5865.9
3115.64255	5860
3118.00134	5846.3
3120.35871	5845.8
3122.71466	5839.2
3125.06917	5811.4
3127.42226	5800.3
3129.77393	5784.9
3132.12417	5810.5
3134.47299	5789.4
3136.82039	5779.6
3139.16636	5802.8
3141.51092	5779.4
3143.85406	5769.1
3146.19579	5769.2
3148.53609	5786.1
3150.87499	5787.8
3153.21246	5777.2
3155.54853	5783.7
3157.88318	5792.8
3160.21642	5800.4
3162.54826	5794.7
3164.87868	5794.7
3167.2077	5805.3
3169.5353	5805
3171.86151	5821.8
3174.18631	5804.8
3176.5097	5787.7
3178.83169	5773.6
3181.15228	5794
3183.47147	5784.3
3185.78926	5768.6
3188.10565	5753.8
3190.42065	5764.1
3192.73424	5747.1
3195.04645	5756.8
3197.35725	5756.9
3199.66667	5752
3201.97469	5760.8
3204.28132	5737.5
3206.58656	5745.7
3208.8904	5754.8
3211.19287	5744.1
3213.49394	5763.9
3215.79363	5752.9
3218.09193	5758
3220.38884	5725.1
3222.68438	5738.9
3224.97853	5727.2
3227.2713	5734.8
3229.56269	5741.1
3231.8527	5736
3234.14133	5724.4
3236.42858	5712.8
3238.71446	5691.2
3240.99896	5711.8
3243.28209	5698.5
3245.56384	5682.6
3247.84423	5682.1
3250.12324	5657.6
3252.40088	5656.4
3254.67715	5652.2
3256.95205	5633.5
3259.22558	5620.3
3261.49775	5616.9
3263.76855	5603.4
3266.03799	5572.2
3268.30606	5593.2
3270.57277	5571.7
3272.83812	5556.4
3275.10211	5561.1
3277.36474	5543.2
3279.62601	5542.4
3281.88593	5545.7
3284.14448	5557.1
3286.40168	5567.7
3288.65753	5536.2
3290.91202	5548.5
3293.16516	5535.4
3295.41695	5522.7
3297.66738	5486.1
3299.91647	5445.9
3302.16421	5403.1
3304.4106	5367.4
3306.65564	5333.6
3308.89933	5296.7
3311.14169	5257.5
3313.38269	5204.4
3315.62236	5182.6
3317.86068	5138.5
3320.09766	5093.7
3322.3333	5068.8
3324.5676	5048.5
3326.80056	4964
3329.03219	4913.3
3331.26248	1.6
3333.49143	0.6
3335.71905	-1.8
