Data from AgNPs_FTO_APTES_UA_5uM_CRN_1000uM_R6G_10uM_NaF_0.1M_Addition_RamanShift__26__17-54-11-895.txt Node

Date: Mon Feb 07 17:54:11 GMT 2022
User: TCL
Spectrometer: QEP01345
Trigger mode: 4
Integration Time (sec): 7.000000E0
Scans to average: 10
Electric dark correction enabled: true
Nonlinearity correction enabled: false
Boxcar width: 0
XAxis mode: Raman Shifts
Number of Pixels in Spectrum: 1044
>>>>>Begin Spectral Data<<<<<
46.04893	-1.2625
50.45542	-1.1625
54.85868	-0.4625
59.25871	0.3375
63.6555	55.6375
68.04907	56.2375
72.43941	62.5375
76.82654	63.1375
81.21044	65.1375
85.59113	63.9375
89.96862	71.4375
94.34289	75.2375
98.71396	75.5375
103.08183	73.6375
107.4465	78.7375
111.80798	82.8375
116.16626	84.3375
120.52136	84.2375
124.87327	88.3375
129.222	96.0375
133.56755	98.0375
137.90993	111.3375
142.24913	124.8375
146.58517	137.9375
150.91804	164.3375
155.24774	201.3375
159.57429	252.6375
163.89768	328.9375
168.21792	438.3375
172.53501	594.0375
176.84895	830.6375
181.15975	1170.3375
185.46741	1656.1375
189.77193	2280.8375
194.07331	3050.0375
198.37157	3950.2375
202.6667	4891.5375
206.9587	5834.1375
211.24758	6785.8375
215.53334	7757.4375
219.81599	8822.3375
224.09553	9995.6375
228.37195	11312.2375
232.64527	12757.8375
236.91549	14182.2375
241.18261	15526.2375
245.44663	16714.3375
249.70755	17733.5375
253.96539	18599.5375
258.22014	19390.2375
262.4718	19996.7375
266.72039	20460.2375
270.96589	20697.0375
275.20832	20685.3375
279.44768	20565.6375
283.68397	20316.4375
287.91719	20160.7375
292.14735	20202.6375
296.37445	20538.0375
300.59849	21028.8375
304.81948	21565.7375
309.03742	21871.3375
313.25231	21672.7375
317.46415	20827.8375
321.67296	19539.8375
325.87872	18433.5375
330.08145	17902.7375
334.28114	17847.9375
338.47781	18107.2375
342.67145	18504.6375
346.86207	19035.8375
351.04966	19948.5375
355.23424	20972.0375
359.4158	21688.3375
363.59435	22003.3375
367.76989	22144.5375
371.94243	22140.8375
376.11196	22083.3375
380.27849	22024.9375
384.44203	21925.9375
388.60257	21795.4375
392.76012	21743.3375
396.91468	21881.4375
401.06626	22356.7375
405.21485	22763.8375
409.36047	22444.7375
413.50311	21558.4375
417.64277	20712.0375
421.77947	20273.6375
425.9132	20221.2375
430.04396	20276.0375
434.17176	20463.1375
438.2966	20796.0375
442.41849	21428.7375
446.53742	22163.8375
450.6534	23012.4375
454.76644	23540.7375
458.87653	23576.2375
462.98368	23253.5375
467.08789	22860.0375
471.18916	22457.6375
475.2875	22203.0375
479.38291	21994.1375
483.4754	21778.3375
487.56496	21395.7375
491.6516	20893.9375
495.73531	20458.7375
499.81612	20261.0375
503.89401	20360.3375
507.96899	20468.7375
512.04106	20566.9375
516.11023	20630.6375
520.1765	20669.9375
524.23987	20580.4375
528.30034	20387.2375
532.35792	20149.5375
536.41261	19841.2375
540.46441	19473.2375
544.51333	19352.7375
548.55936	19485.7375
552.60252	19986.1375
556.64279	20640.4375
560.6802	21177.8375
564.71473	21668.9375
568.7464	22547.1375
572.7752	23304.7375
576.80114	22911.9375
580.82422	22097.6375
584.84444	21838.3375
588.86181	21989.9375
592.87633	22571.5375
596.888	22875.6375
600.89682	22934.0375
604.9028	24147.3375
608.90594	28614.7375
612.90624	34919.0375
616.90371	33395.8375
620.89834	24515.8375
624.89015	20333.3375
628.87913	19586.1375
632.86528	19746.8375
636.84862	19929.4375
640.82913	19585.5375
644.80683	18810.2375
648.78172	18238.6375
652.75379	18171.2375
656.72306	18616.4375
660.68952	19344.1375
664.65319	19286.9375
668.61405	18580.6375
672.57211	18240.1375
676.52738	18269.7375
680.47986	18283.3375
684.42955	18147.1375
688.37646	18036.2375
692.32058	18039.1375
696.26192	18153.9375
700.20048	18433.3375
704.13626	18582.8375
708.06928	18523.4375
711.99952	18343.8375
715.927	18268.2375
719.85171	18304.1375
723.77365	18325.9375
727.69284	18244.0375
731.60928	18088.0375
735.52295	18082.9375
739.43388	18105.5375
743.34206	18138.4375
747.24749	18178.9375
751.15017	18327.3375
755.05012	18621.6375
758.94733	19390.4375
762.8418	21136.1375
766.73354	24083.8375
770.62254	27139.8375
774.50882	28611.5375
778.39237	27307.7375
782.27321	23966.7375
786.15132	20888.8375
790.02671	19084.5375
793.89938	18223.7375
797.76935	17840.5375
801.6366	17701.4375
805.50115	17630.3375
809.36299	17527.9375
813.22213	17443.9375
817.07857	17453.7375
820.93231	17400.7375
824.78336	17415.6375
828.63172	17444.7375
832.47738	17432.3375
836.32036	17401.0375
840.16066	17315.2375
843.99827	17222.4375
847.8332	17152.2375
851.66546	17116.3375
855.49504	17093.5375
859.32195	17086.1375
863.1462	17051.6375
866.96777	17026.9375
870.78668	16964.5375
874.60293	16988.4375
878.41652	17002.9375
882.22745	17098.1375
886.03573	17152.4375
889.84136	17111.2375
893.64433	17024.4375
897.44466	16981.0375
901.24235	16947.6375
905.0374	16816.9375
908.8298	16728.7375
912.61957	16697.3375
916.40671	16838.9375
920.19121	16998.7375
923.97308	17161.0375
927.75233	17255.0375
931.52895	17347.8375
935.30295	17181.9375
939.07433	16745.2375
942.84309	16345.7375
946.60924	16090.7375
950.37278	15961.9375
954.13371	15924.8375
957.89203	15886.9375
961.64774	15836.2375
965.40086	15760.4375
969.15137	15717.9375
972.89929	15623.1375
976.64461	15564.7375
980.38733	15529.3375
984.12747	15555.8375
987.86502	15665.5375
991.59999	15807.1375
995.33237	16031.4375
999.06217	16427.1375
1002.78939	16963.8375
1006.51404	17379.3375
1010.23611	17699.5375
1013.95561	17863.2375
1017.67255	17759.5375
1021.38692	17483.0375
1025.09872	17066.2375
1028.80796	16934.6375
1032.51465	16997.0375
1036.21877	17189.5375
1039.92035	17269.6375
1043.61937	17239.2375
1047.31584	17172.2375
1051.00976	17044.8375
1054.70114	16939.1375
1058.38998	16968.0375
1062.07627	17052.9375
1065.76003	17186.6375
1069.44126	17284.3375
1073.11995	17409.0375
1076.79611	17597.3375
1080.46974	17829.4375
1084.14085	18145.5375
1087.80943	18563.3375
1091.47549	18782.9375
1095.13903	18670.1375
1098.80005	18223.4375
1102.45857	17786.2375
1106.11456	17506.5375
1109.76805	17542.9375
1113.41903	17860.1375
1117.06751	18340.4375
1120.71348	18996.4375
1124.35696	19685.4375
1127.99793	20287.8375
1131.63641	20278.7375
1135.2724	19533.9375
1138.90589	18845.8375
1142.5369	18449.2375
1146.16542	18251.4375
1149.79145	18233.4375
1153.415	18277.8375
1157.03607	18500.8375
1160.65467	18943.9375
1164.27079	19717.0375
1167.88443	20879.1375
1171.49561	22595.8375
1175.10432	25186.8375
1178.71056	28484.0375
1182.31434	31202.4375
1185.91565	32021.8375
1189.51451	31417.8375
1193.11091	29867.5375
1196.70485	28124.5375
1200.29634	26599.6375
1203.88538	25406.0375
1207.47197	24186.2375
1211.05612	23150.6375
1214.63782	22555.5375
1218.21708	22376.3375
1221.79391	22286.2375
1225.36829	22050.4375
1228.94024	21635.3375
1232.50976	21164.0375
1236.07685	20867.2375
1239.6415	20784.1375
1243.20374	20823.8375
1246.76355	21027.6375
1250.32093	21347.1375
1253.8759	21811.0375
1257.42845	22496.3375
1260.97859	23181.0375
1264.52631	23831.0375
1268.07163	24491.7375
1271.61453	25174.8375
1275.15503	25737.7375
1278.69312	26162.1375
1282.22882	26539.6375
1285.76211	27266.4375
1289.29301	28299.8375
1292.82151	29593.4375
1296.34761	31200.9375
1299.87133	33253.4375
1303.39266	35998.0375
1306.9116	39623.1375
1310.42815	43504.2375
1313.94233	45791.3375
1317.45412	45384.0375
1320.96354	43279.9375
1324.47058	40836.9375
1327.97525	38738.0375
1331.47754	37267.4375
1334.97747	36736.1375
1338.47502	36956.7375
1341.97022	37463.2375
1345.46305	37752.6375
1348.95352	38118.5375
1352.44163	39058.9375
1355.92738	41186.8375
1359.41078	45225.7375
1362.89183	49030.4375
1366.37053	47674.9375
1369.84688	41229.0375
1373.32088	34753.5375
1376.79254	30792.2375
1380.26186	29024.3375
1383.72883	28402.9375
1387.19347	28162.8375
1390.65578	27944.6375
1394.11575	27889.7375
1397.57339	28380.5375
1401.0287	29251.9375
1404.48168	30028.8375
1407.93234	30586.2375
1411.38068	30523.4375
1414.82669	29822.6375
1418.27039	28448.7375
1421.71177	26936.9375
1425.15083	25516.8375
1428.58758	24749.5375
1432.02203	24722.6375
1435.45416	25063.7375
1438.88399	25546.2375
1442.31151	25963.1375
1445.73673	26405.6375
1449.15965	26959.8375
1452.58027	27399.3375
1455.9986	27575.6375
1459.41463	27767.3375
1462.82837	28243.8375
1466.23982	28905.5375
1469.64898	29520.3375
1473.05586	29769.1375
1476.46045	29727.7375
1479.86276	29573.8375
1483.26279	29477.2375
1486.66054	29550.1375
1490.05602	29788.3375
1493.44922	30250.9375
1496.84016	30796.9375
1500.22882	32115.0375
1503.61521	34486.7375
1506.99934	37679.4375
1510.38121	40867.0375
1513.76081	42274.2375
1517.13816	40509.7375
1520.51324	36514.2375
1523.88607	32714.2375
1527.25665	30185.8375
1530.62498	28988.9375
1533.99105	28438.2375
1537.35488	28161.8375
1540.71647	27908.5375
1544.07581	27632.8375
1547.4329	27260.3375
1550.78776	26862.4375
1554.14038	26599.9375
1557.49077	26586.5375
1560.83892	26740.9375
1564.18484	27117.2375
1567.52853	27621.1375
1570.86999	27988.0375
1574.20922	28365.6375
1577.54624	28441.7375
1580.88103	27743.2375
1584.2136	26903.2375
1587.54395	26908.1375
1590.87208	27956.4375
1594.19801	29903.2375
1597.52172	32227.5375
1600.84321	33326.1375
1604.16251	32203.6375
1607.47959	29614.4375
1610.79447	26546.0375
1614.10715	23714.5375
1617.41763	21536.0375
1620.7259	20109.8375
1624.03199	19428.6375
1627.33587	19341.5375
1630.63757	19873.9375
1633.93707	21094.7375
1637.23439	23148.9375
1640.52951	26202.9375
1643.82246	30246.3375
1647.11321	34206.0375
1650.40179	36225.4375
1653.68819	34439.3375
1656.97241	29499.6375
1660.25446	24246.9375
1663.53433	20422.8375
1666.81203	18108.6375
1670.08756	16727.2375
1673.36092	15862.1375
1676.63211	15361.3375
1679.90115	14989.2375
1683.16801	14714.1375
1686.43272	14489.0375
1689.69527	14320.2375
1692.95567	14205.7375
1696.2139	14125.6375
1699.46999	14051.7375
1702.72392	13980.7375
1705.97571	13944.3375
1709.22535	13892.3375
1712.47284	13888.3375
1715.71819	13856.6375
1718.96139	13879.8375
1722.20246	13806.1375
1725.44139	13719.6375
1728.67818	13643.7375
1731.91284	13526.8375
1735.14537	13441.2375
1738.37576	13406.5375
1741.60403	13352.9375
1744.83017	13285.4375
1748.05418	13242.4375
1751.27607	13216.5375
1754.49584	13209.5375
1757.71349	13145.0375
1760.92903	13135.0375
1764.14244	13106.3375
1767.35375	13092.9375
1770.56294	13061.4375
1773.77002	13016.4375
1776.97499	12967.7375
1780.17785	12942.6375
1783.37861	12936.2375
1786.57727	12909.1375
1789.77382	12879.9375
1792.96828	12853.0375
1796.16064	12806.3375
1799.3509	12809.2375
1802.53907	12750.3375
1805.72514	12714.2375
1808.90913	12676.6375
1812.09102	12644.4375
1815.27083	12613.2375
1818.44856	12578.0375
1821.6242	12554.4375
1824.79776	12536.7375
1827.96924	12502.2375
1831.13864	12475.3375
1834.30597	12457.0375
1837.47122	12424.4375
1840.6344	12390.8375
1843.7955	12428.3375
1846.95454	12411.9375
1850.11151	12405.7375
1853.26642	12391.9375
1856.41926	12384.0375
1859.57004	12365.7375
1862.71876	12419.0375
1865.86542	12366.7375
1869.01003	12359.8375
1872.15258	12370.2375
1875.29308	12351.1375
1878.43152	12338.3375
1881.56792	12336.0375
1884.70227	12337.4375
1887.83457	12316.3375
1890.96482	12310.4375
1894.09304	12305.0375
1897.21921	12317.9375
1900.34335	12291.2375
1903.46544	12283.8375
1906.58551	12276.5375
1909.70353	12292.4375
1912.81953	12230.4375
1915.93349	12226.6375
1919.04543	12199.9375
1922.15534	12182.2375
1925.26322	12148.2375
1928.36908	12107.2375
1931.47292	12084.2375
1934.57473	12066.1375
1937.67453	12028.5375
1940.77232	11960.8375
1943.86808	11902.0375
1946.96184	11873.4375
1950.05358	11829.9375
1953.14331	11774.1375
1956.23103	11735.6375
1959.31675	11677.6375
1962.40046	11670.6375
1965.48217	11633.5375
1968.56188	11612.1375
1971.63959	11558.9375
1974.7153	11530.0375
1977.78901	11481.2375
1980.86073	11432.9375
1983.93046	11391.9375
1986.99819	11345.9375
1990.06394	11334.2375
1993.1277	11284.6375
1996.18947	11258.1375
1999.24925	11196.7375
2002.30706	11211.1375
2005.36288	11102.8375
2008.41672	11086.0375
2011.46859	11056.4375
2014.51848	11035.3375
2017.56639	10991.4375
2020.61233	10980.1375
2023.6563	10915.4375
2026.6983	10899.4375
2029.73833	10889.3375
2032.7764	10865.7375
2035.8125	10852.9375
2038.84664	10820.4375
2041.87881	10809.8375
2044.90903	10795.4375
2047.93729	10757.5375
2050.96359	10768.3375
2053.98794	10732.8375
2057.01034	10730.4375
2060.03078	10723.7375
2063.04927	10681.4375
2066.06582	10699.3375
2069.08042	10665.2375
2072.09307	10677.9375
2075.10378	10619.8375
2078.11255	10624.2375
2081.11938	10617.0375
2084.12426	10613.0375
2087.12722	10594.6375
2090.12824	10585.2375
2093.12732	10596.6375
2096.12447	10617.7375
2099.11969	10603.6375
2102.11299	10565.5375
2105.10435	10572.1375
2108.09379	10572.3375
2111.08131	10583.6375
2114.0669	10587.9375
2117.05057	10564.0375
2120.03233	10573.3375
2123.01216	10591.4375
2125.99008	10614.1375
2128.96609	10583.3375
2131.94018	10586.4375
2134.91236	10602.9375
2137.88263	10621.1375
2140.851	10636.0375
2143.81746	10593.5375
2146.78201	10591.4375
2149.74466	10592.1375
2152.7054	10573.3375
2155.66425	10577.3375
2158.6212	10520.9375
2161.57625	10508.5375
2164.52941	10518.7375
2167.48067	10509.8375
2170.43004	10538.2375
2173.37752	10516.8375
2176.32311	10526.8375
2179.26681	10516.6375
2182.20863	10497.0375
2185.14856	10510.0375
2188.08661	10513.9375
2191.02278	10513.4375
2193.95707	10501.2375
2196.88948	10481.3375
2199.82001	10444.2375
2202.74867	10438.8375
2205.67545	10429.1375
2208.60037	10360.3375
2211.52341	10403.1375
2214.44458	10374.8375
2217.36388	10370.6375
2220.28132	10330.6375
2223.1969	10278.0375
2226.11061	10269.9375
2229.02246	10249.4375
2231.93245	10230.0375
2234.84058	10179.9375
2237.74686	10177.1375
2240.65128	10156.7375
2243.55385	10164.9375
2246.45456	10170.1375
2249.35343	10154.2375
2252.25044	10127.9375
2255.14561	10096.3375
2258.03893	10098.3375
2260.93041	10045.9375
2263.82004	10043.8375
2266.70783	10010.7375
2269.59378	9991.2375
2272.4779	9982.0375
2275.36017	9932.4375
2278.24061	9910.4375
2281.11922	9914.3375
2283.996	9890.9375
2286.87094	9864.8375
2289.74405	9822.7375
2292.61534	9811.3375
2295.4848	9797.3375
2298.35243	9822.6375
2301.21824	9796.2375
2304.08223	9813.3375
2306.94439	9820.5375
2309.80474	9799.3375
2312.66327	9798.2375
2315.51999	9775.7375
2318.37489	9787.9375
2321.22797	9775.5375
2324.07925	9742.1375
2326.92871	9730.5375
2329.77637	9741.7375
2332.62222	9712.9375
2335.46626	9677.5375
2338.3085	9698.6375
2341.14893	9676.0375
2343.98756	9671.6375
2346.8244	9697.6375
2349.65943	9663.3375
2352.49267	9704.8375
2355.32411	9693.4375
2358.15376	9684.0375
2360.98161	9702.2375
2363.80768	9692.3375
2366.63195	9697.8375
2369.45444	9700.9375
2372.27514	9671.0375
2375.09405	9650.4375
2377.91118	9639.9375
2380.72652	9592.7375
2383.54009	9552.5375
2386.35187	9530.2375
2389.16188	9474.9375
2391.97011	9467.6375
2394.77657	9453.1375
2397.58125	9427.0375
2400.38416	9400.2375
2403.18529	9365.4375
2405.98466	9378.3375
2408.78226	9364.8375
2411.57809	9331.8375
2414.37216	9303.6375
2417.16446	9287.1375
2419.955	9272.4375
2422.74378	9279.0375
2425.5308	9267.8375
2428.31606	9266.3375
2431.09956	9256.7375
2433.88131	9232.1375
2436.6613	9239.3375
2439.43954	9230.9375
2442.21603	9231.9375
2444.99077	9230.6375
2447.76377	9233.7375
2450.53501	9249.2375
2453.30451	9235.1375
2456.07226	9240.6375
2458.83827	9214.6375
2461.60254	9193.2375
2464.36507	9206.1375
2467.12586	9200.4375
2469.88492	9199.0375
2472.64224	9206.4375
2475.39782	9197.2375
2478.15167	9199.6375
2480.90379	9221.6375
2483.65417	9216.8375
2486.40283	9234.9375
2489.14976	9243.8375
2491.89497	9255.9375
2494.63845	9272.6375
2497.3802	9239.3375
2500.12024	9228.5375
2502.85855	9216.7375
2505.59514	9229.6375
2508.33002	9197.7375
2511.06318	9181.5375
2513.79462	9153.5375
2516.52435	9137.9375
2519.25237	9095.3375
2521.97867	9085.9375
2524.70327	9058.5375
2527.42616	9042.9375
2530.14734	9052.7375
2532.86681	9053.3375
2535.58458	9040.4375
2538.30065	9041.3375
2541.01501	9037.0375
2543.72768	9042.6375
2546.43864	9002.6375
2549.14791	8973.9375
2551.85548	8961.0375
2554.56136	8983.9375
2557.26554	8952.6375
2559.96803	8950.1375
2562.66883	8929.9375
2565.36794	8916.2375
2568.06536	8904.8375
2570.7611	8911.4375
2573.45514	8905.1375
2576.14751	8886.7375
2578.83819	8859.1375
2581.52719	8862.1375
2584.21451	8854.7375
2586.90015	8864.9375
2589.58411	8847.4375
2592.2664	8847.2375
2594.94701	8798.9375
2597.62594	8834.5375
2600.30321	8811.1375
2602.9788	8822.2375
2605.65273	8836.8375
2608.32498	8829.4375
2610.99557	8831.1375
2613.66449	8827.4375
2616.33175	8806.8375
2618.99734	8815.9375
2621.66128	8781.9375
2624.32355	8797.8375
2626.98416	8795.9375
2629.64311	8781.9375
2632.30041	8747.9375
2634.95605	8754.7375
2637.61004	8736.5375
2640.26238	8738.5375
2642.91306	8710.1375
2645.56209	8675.5375
2648.20948	8696.6375
2650.85521	8704.1375
2653.4993	8696.7375
2656.14175	8707.8375
2658.78255	8748.1375
2661.42171	8737.9375
2664.05923	8723.3375
2666.6951	8760.2375
2669.32934	8750.8375
2671.96194	8760.7375
2674.59291	8734.8375
2677.22224	8734.1375
2679.84993	8740.4375
2682.476	8720.9375
2685.10043	8720.4375
2687.72324	8736.1375
2690.34441	8701.8375
2692.96396	8697.2375
2695.58188	8726.4375
2698.19818	8714.2375
2700.81285	8692.8375
2703.4259	8711.4375
2706.03733	8714.3375
2708.64714	8724.8375
2711.25533	8714.5375
2713.86191	8706.5375
2716.46687	8722.6375
2719.07021	8707.9375
2721.67194	8743.6375
2724.27206	8728.3375
2726.87057	8732.2375
2729.46747	8750.4375
2732.06276	8755.5375
2734.65644	8710.3375
2737.24852	8713.6375
2739.83899	8700.3375
2742.42786	8681.5375
2745.01513	8685.1375
2747.60079	8679.2375
2750.18486	8662.1375
2752.76733	8679.4375
2755.3482	8659.2375
2757.92747	8643.2375
2760.50515	8632.6375
2763.08123	8624.9375
2765.65573	8617.2375
2768.22863	8624.3375
2770.79994	8605.7375
2773.36967	8619.8375
2775.9378	8612.7375
2778.50435	8605.2375
2781.06932	8620.5375
2783.6327	8611.1375
2786.1945	8594.0375
2788.75471	8619.6375
2791.31335	8610.7375
2793.87041	8601.3375
2796.42589	8573.0375
2798.97979	8570.7375
2801.53212	8529.9375
2804.08288	8529.0375
2806.63206	8514.9375
2809.17967	8497.5375
2811.72571	8478.0375
2814.27018	8506.0375
2816.81308	8493.1375
2819.35442	8476.7375
2821.89419	8456.6375
2824.43239	8485.4375
2826.96904	8483.7375
2829.50412	8509.1375
2832.03763	8473.4375
2834.56959	8439.9375
2837.1	8461.2375
2839.62884	8462.3375
2842.15613	8458.0375
2844.68186	8508.8375
2847.20604	8544.9375
2849.72867	8545.2375
2852.24974	8569.2375
2854.76927	8525.8375
2857.28724	8531.9375
2859.80367	8546.5375
2862.31855	8499.2375
2864.83189	8499.2375
2867.34368	8479.3375
2869.85393	8461.5375
2872.36264	8472.0375
2874.8698	8492.2375
2877.37543	8482.6375
2879.87952	8497.1375
2882.38207	8471.7375
2884.88308	8449.7375
2887.38256	8482.1375
2889.88051	8457.1375
2892.37692	8461.0375
2894.8718	8468.8375
2897.36515	8463.8375
2899.85698	8449.8375
2902.34727	8486.2375
2904.83604	8481.2375
2907.32328	8484.2375
2909.809	8501.0375
2912.29319	8494.4375
2914.77587	8488.7375
2917.25702	8494.5375
2919.73665	8474.7375
2922.21476	8474.2375
2924.69136	8452.1375
2927.16644	8470.1375
2929.64	8418.3375
2932.11205	8425.9375
2934.58258	8400.8375
2937.05161	8410.8375
2939.51912	8357.8375
2941.98513	8356.4375
2944.44962	8304.6375
2946.91261	8295.9375
2949.37409	8281.5375
2951.83407	8266.5375
2954.29254	8229.6375
2956.74951	8232.9375
2959.20498	8197.5375
2961.65895	8212.7375
2964.11142	8183.9375
2966.56239	8144.7375
2969.01186	8143.1375
2971.45984	8122.9375
2973.90632	8112.6375
2976.35131	8092.6375
2978.7948	8063.1375
2981.23681	8029.0375
2983.67732	8019.6375
2986.11635	7997.7375
2988.55388	7986.7375
2990.98993	7952.6375
2993.4245	7933.0375
2995.85758	7919.7375
2998.28917	7887.5375
3000.71928	7902.2375
3003.14791	7867.0375
3005.57506	7861.9375
3008.00073	7848.5375
3010.42493	7840.5375
3012.84764	7816.5375
3015.26888	7811.5375
3017.68865	7788.2375
3020.10694	7756.5375
3022.52376	7760.6375
3024.9391	7736.7375
3027.35298	7722.3375
3029.76539	7703.3375
3032.17632	7698.5375
3034.5858	7678.7375
3036.9938	7658.2375
3039.40034	7678.5375
3041.80542	7676.3375
3044.20903	7631.7375
3046.61118	7620.1375
3049.01187	7608.2375
3051.4111	7605.9375
3053.80888	7592.8375
3056.20519	7573.1375
3058.60005	7575.3375
3060.99345	7527.2375
3063.3854	7506.2375
3065.7759	7486.4375
3068.16494	7458.0375
3070.55254	7424.1375
3072.93868	7393.0375
3075.32338	7380.9375
3077.70662	7370.9375
3080.08842	7357.4375
3082.46878	7325.7375
3084.84769	7303.6375
3087.22515	7300.5375
3089.60118	7316.0375
3091.97576	7303.5375
3094.3489	7318.0375
3096.72061	7320.2375
3099.09087	7286.3375
3101.4597	7283.0375
3103.82709	7280.1375
3106.19305	7276.3375
3108.55757	7257.9375
3110.92066	7232.5375
3113.28232	7204.0375
3115.64255	7171.9375
3118.00134	7177.9375
3120.35871	7164.7375
3122.71466	7157.7375
3125.06917	7136.5375
3127.42226	7117.5375
3129.77393	7121.9375
3132.12417	7107.6375
3134.47299	7107.3375
3136.82039	7114.6375
3139.16636	7107.2375
3141.51092	7094.6375
3143.85406	7073.6375
3146.19579	7074.7375
3148.53609	7064.6375
3150.87499	7088.2375
3153.21246	7115.1375
3155.54853	7100.2375
3157.88318	7101.8375
3160.21642	7087.0375
3162.54826	7087.2375
3164.87868	7094.9375
3167.2077	7105.8375
3169.5353	7098.2375
3171.86151	7104.1375
3174.18631	7079.5375
3176.5097	7082.1375
3178.83169	7051.4375
3181.15228	7051.3375
3183.47147	7042.8375
3185.78926	7034.2375
3188.10565	7018.0375
3190.42065	7022.8375
3192.73424	7021.7375
3195.04645	7012.2375
3197.35725	7027.4375
3199.66667	7005.7375
3201.97469	7007.1375
3204.28132	7009.0375
3206.58656	7008.0375
3208.8904	7014.3375
3211.19287	7021.6375
3213.49394	7024.7375
3215.79363	7027.1375
3218.09193	7039.7375
3220.38884	7004.3375
3222.68438	7006.1375
3224.97853	6998.5375
3227.2713	7006.7375
3229.56269	6984.9375
3231.8527	7000.0375
3234.14133	6979.6375
3236.42858	6958.6375
3238.71446	6950.9375
3240.99896	6948.3375
3243.28209	6944.8375
3245.56384	6916.1375
3247.84423	6927.5375
3250.12324	6893.2375
3252.40088	6892.5375
3254.67715	6881.8375
3256.95205	6870.7375
3259.22558	6872.8375
3261.49775	6855.1375
3263.76855	6832.4375
3266.03799	6822.4375
3268.30606	6834.6375
3270.57277	6799.5375
3272.83812	6782.8375
3275.10211	6781.7375
3277.36474	6774.9375
3279.62601	6767.9375
3281.88593	6768.5375
3284.14448	6767.8375
3286.40168	6756.3375
3288.65753	6774.5375
3290.91202	6765.8375
3293.16516	6756.9375
3295.41695	6720.4375
3297.66738	6678.8375
3299.91647	6635.5375
3302.16421	6585.5375
3304.4106	6555.0375
3306.65564	6503.0375
3308.89933	6470.6375
3311.14169	6419.1375
3313.38269	6366.5375
3315.62236	6311.3375
3317.86068	6257.8375
3320.09766	6208.1375
3322.3333	6182.5375
3324.5676	6148.6375
3326.80056	6042.5375
3329.03219	6003.5375
3331.26248	2.8375
3333.49143	1.1375
3335.71905	-1.3625
