Data from AgNPs_FTO_APTES_UA_5uM_CRN_500uM_R6G_10uM_NaF_0.1M_Addition_RamanShift__27__17-12-11-846.txt Node

Date: Mon Feb 07 17:12:11 GMT 2022
User: TCL
Spectrometer: QEP01345
Trigger mode: 4
Integration Time (sec): 7.000000E0
Scans to average: 10
Electric dark correction enabled: true
Nonlinearity correction enabled: false
Boxcar width: 0
XAxis mode: Raman Shifts
Number of Pixels in Spectrum: 1044
>>>>>Begin Spectral Data<<<<<
46.04893	-2.7625
50.45542	-0.0625
54.85868	-0.0625
59.25871	-0.4625
63.6555	72.1375
68.04907	77.3375
72.43941	79.5375
76.82654	79.6375
81.21044	82.9375
85.59113	83.8375
89.96862	87.7375
94.34289	90.4375
98.71396	95.7375
103.08183	95.0375
107.4465	100.3375
111.80798	105.0375
116.16626	105.2375
120.52136	111.4375
124.87327	117.1375
129.222	125.9375
133.56755	134.1375
137.90993	144.3375
142.24913	165.1375
146.58517	186.9375
150.91804	213.7375
155.24774	265.0375
159.57429	338.6375
163.89768	438.8375
168.21792	587.9375
172.53501	803.3375
176.84895	1125.9375
181.15975	1595.5375
185.46741	2234.6375
189.77193	3090.7375
194.07331	4136.5375
198.37157	5338.3375
202.6667	6618.6375
206.9587	7908.8375
211.24758	9177.4375
215.53334	10509.7375
219.81599	11946.4375
224.09553	13575.5375
228.37195	15369.6375
232.64527	17285.3375
236.91549	19248.2375
241.18261	21090.9375
245.44663	22620.5375
249.70755	23979.0375
253.96539	25130.5375
258.22014	26173.2375
262.4718	27028.1375
266.72039	27671.5375
270.96589	28040.4375
275.20832	28078.7375
279.44768	27854.1375
283.68397	27582.7375
287.91719	27372.8375
292.14735	27510.2375
296.37445	27976.9375
300.59849	28764.0375
304.81948	29558.2375
309.03742	30037.1375
313.25231	29736.0375
317.46415	28474.1375
321.67296	26589.4375
325.87872	24985.8375
330.08145	24247.6375
334.28114	24183.1375
338.47781	24475.7375
342.67145	25034.9375
346.86207	25920.3375
351.04966	27159.1375
355.23424	28568.4375
359.4158	29575.0375
363.59435	30071.8375
367.76989	30222.8375
371.94243	30189.9375
376.11196	30044.7375
380.27849	29946.7375
384.44203	29816.1375
388.60257	29553.7375
392.76012	29516.1375
396.91468	29720.0375
401.06626	30344.4375
405.21485	30820.6375
409.36047	30420.7375
413.50311	29091.0375
417.64277	27919.8375
421.77947	27227.8375
425.9132	27038.8375
430.04396	27156.6375
434.17176	27421.4375
438.2966	27906.8375
442.41849	28659.2375
446.53742	29688.3375
450.6534	30761.7375
454.76644	31464.1375
458.87653	31533.4375
462.98368	31163.2375
467.08789	30710.8375
471.18916	30281.4375
475.2875	29949.0375
479.38291	29671.1375
483.4754	29365.3375
487.56496	28795.6375
491.6516	28066.6375
495.73531	27500.1375
499.81612	27207.3375
503.89401	27315.2375
507.96899	27513.2375
512.04106	27661.9375
516.11023	27840.5375
520.1765	27916.9375
524.23987	27783.5375
528.30034	27449.6375
532.35792	27046.8375
536.41261	26612.2375
540.46441	26190.4375
544.51333	26076.8375
548.55936	26340.4375
552.60252	27018.0375
556.64279	27956.4375
560.6802	28643.6375
564.71473	29362.2375
568.7464	30634.4375
572.7752	31589.8375
576.80114	30968.5375
580.82422	29887.4375
584.84444	29373.5375
588.86181	29529.7375
592.87633	30103.5375
596.888	30489.2375
600.89682	30759.4375
604.9028	32762.5375
608.90594	39307.4375
612.90624	48309.5375
616.90371	46170.5375
620.89834	33504.2375
624.89015	27556.3375
628.87913	26509.2375
632.86528	26751.7375
636.84862	26991.7375
640.82913	26494.1375
644.80683	25366.1375
648.78172	24574.2375
652.75379	24479.6375
656.72306	25233.6375
660.68952	26253.5375
664.65319	26063.7375
668.61405	25029.9375
672.57211	24528.9375
676.52738	24514.4375
680.47986	24517.8375
684.42955	24369.4375
688.37646	24237.4375
692.32058	24317.7375
696.26192	24536.3375
700.20048	24811.6375
704.13626	24991.6375
708.06928	24966.0375
711.99952	24749.2375
715.927	24681.0375
719.85171	24736.8375
723.77365	24809.1375
727.69284	24562.0375
731.60928	24358.3375
735.52295	24288.3375
739.43388	24365.5375
743.34206	24408.3375
747.24749	24526.6375
751.15017	24708.8375
755.05012	25212.0375
758.94733	26339.3375
762.8418	28912.0375
766.73354	33175.1375
770.62254	37481.1375
774.50882	39459.0375
778.39237	37573.2375
782.27321	32817.8375
786.15132	28393.1375
790.02671	25831.3375
793.89938	24648.4375
797.76935	24110.7375
801.6366	23934.4375
805.50115	23880.3375
809.36299	23740.9375
813.22213	23644.4375
817.07857	23679.6375
820.93231	23664.4375
824.78336	23648.4375
828.63172	23685.8375
832.47738	23670.6375
836.32036	23603.9375
840.16066	23453.5375
843.99827	23378.0375
847.8332	23315.6375
851.66546	23229.0375
855.49504	23223.5375
859.32195	23145.9375
863.1462	23138.5375
866.96777	23022.4375
870.78668	22928.6375
874.60293	22972.4375
878.41652	23037.1375
882.22745	23165.2375
886.03573	23240.2375
889.84136	23183.0375
893.64433	23045.9375
897.44466	22995.6375
901.24235	22933.3375
905.0374	22821.3375
908.8298	22703.5375
912.61957	22684.9375
916.40671	22875.7375
920.19121	23115.6375
923.97308	23383.3375
927.75233	23539.0375
931.52895	23642.9375
935.30295	23391.4375
939.07433	22727.1375
942.84309	22201.6375
946.60924	21867.5375
950.37278	21682.1375
954.13371	21595.9375
957.89203	21540.0375
961.64774	21507.3375
965.40086	21472.1375
969.15137	21395.2375
972.89929	21236.8375
976.64461	21165.8375
980.38733	21152.0375
984.12747	21177.7375
987.86502	21302.3375
991.59999	21513.1375
995.33237	21812.7375
999.06217	22379.3375
1002.78939	23108.7375
1006.51404	23743.7375
1010.23611	24162.4375
1013.95561	24369.8375
1017.67255	24301.2375
1021.38692	23874.3375
1025.09872	23394.8375
1028.80796	23182.4375
1032.51465	23348.4375
1036.21877	23613.3375
1039.92035	23786.8375
1043.61937	23701.4375
1047.31584	23537.3375
1051.00976	23356.5375
1054.70114	23243.1375
1058.38998	23245.4375
1062.07627	23440.0375
1065.76003	23633.0375
1069.44126	23703.7375
1073.11995	23879.8375
1076.79611	24167.9375
1080.46974	24537.3375
1084.14085	25051.3375
1087.80943	25665.0375
1091.47549	25975.2375
1095.13903	25698.6375
1098.80005	25070.1375
1102.45857	24384.0375
1106.11456	24037.6375
1109.76805	24173.0375
1113.41903	24570.8375
1117.06751	25392.2375
1120.71348	26346.7375
1124.35696	27348.0375
1127.99793	28236.2375
1131.63641	28056.8375
1135.2724	26917.8375
1138.90589	25917.6375
1142.5369	25364.6375
1146.16542	25152.7375
1149.79145	25055.4375
1153.415	25220.7375
1157.03607	25539.8375
1160.65467	26201.8375
1164.27079	27356.2375
1167.88443	28987.0375
1171.49561	31435.4375
1175.10432	35111.9375
1178.71056	39903.1375
1182.31434	43700.7375
1185.91565	44921.7375
1189.51451	44113.4375
1193.11091	41948.0375
1196.70485	39385.9375
1200.29634	37233.5375
1203.88538	35567.2375
1207.47197	33761.1375
1211.05612	32232.8375
1214.63782	31302.4375
1218.21708	30883.8375
1221.79391	30674.9375
1225.36829	30429.0375
1228.94024	29988.1375
1232.50976	29414.8375
1236.07685	29081.5375
1239.6415	28969.7375
1243.20374	29067.8375
1246.76355	29298.5375
1250.32093	29758.0375
1253.8759	30452.9375
1257.42845	31393.6375
1260.97859	32432.2375
1264.52631	33328.8375
1268.07163	34318.7375
1271.61453	35188.7375
1275.15503	36010.0375
1278.69312	36683.0375
1282.22882	37245.0375
1285.76211	38205.7375
1289.29301	39764.2375
1292.82151	41534.4375
1296.34761	43700.2375
1299.87133	46617.5375
1303.39266	50474.2375
1306.9116	55694.4375
1310.42815	61420.9375
1313.94233	64698.8375
1317.45412	64195.3375
1320.96354	61238.2375
1324.47058	57869.8375
1327.97525	54797.5375
1331.47754	52842.9375
1334.97747	52138.2375
1338.47502	52344.4375
1341.97022	52908.9375
1345.46305	53486.9375
1348.95352	54005.6375
1352.44163	55238.8375
1355.92738	58254.8375
1359.41078	64123.1375
1362.89183	70061.7375
1366.37053	67833.3375
1369.84688	58304.6375
1373.32088	49042.1375
1376.79254	43459.5375
1380.26186	41079.7375
1383.72883	40278.6375
1387.19347	39938.7375
1390.65578	39617.7375
1394.11575	39609.0375
1397.57339	40314.2375
1401.0287	41417.1375
1404.48168	42538.2375
1407.93234	43114.6375
1411.38068	42996.6375
1414.82669	41833.5375
1418.27039	39821.5375
1421.71177	37662.3375
1425.15083	35793.9375
1428.58758	34733.0375
1432.02203	34660.9375
1435.45416	35156.0375
1438.88399	35814.2375
1442.31151	36416.0375
1445.73673	37095.4375
1449.15965	37846.6375
1452.58027	38470.5375
1455.9986	38816.8375
1459.41463	39228.4375
1462.82837	39893.3375
1466.23982	40700.7375
1469.64898	41449.1375
1473.05586	41645.5375
1476.46045	41471.4375
1479.86276	41276.6375
1483.26279	41164.1375
1486.66054	41203.8375
1490.05602	41647.1375
1493.44922	42370.4375
1496.84016	43462.9375
1500.22882	45705.9375
1503.61521	49432.9375
1506.99934	54337.7375
1510.38121	59245.6375
1513.76081	61347.3375
1517.13816	58762.1375
1520.51324	52856.4375
1523.88607	47073.6375
1527.25665	43330.6375
1530.62498	41428.7375
1533.99105	40520.9375
1537.35488	40032.8375
1540.71647	39673.4375
1544.07581	39218.2375
1547.4329	38751.3375
1550.78776	38231.6375
1554.14038	37907.6375
1557.49077	37822.2375
1560.83892	38150.6375
1564.18484	38791.1375
1567.52853	39423.7375
1570.86999	40054.8375
1574.20922	40567.6375
1577.54624	40706.6375
1580.88103	39771.4375
1584.2136	38553.9375
1587.54395	38583.4375
1590.87208	40099.7375
1594.19801	42843.4375
1597.52172	45893.9375
1600.84321	47197.9375
1604.16251	45427.3375
1607.47959	41769.7375
1610.79447	37584.7375
1614.10715	33644.3375
1617.41763	30587.1375
1620.7259	28585.5375
1624.03199	27618.4375
1627.33587	27556.6375
1630.63757	28364.1375
1633.93707	30149.7375
1637.23439	33142.0375
1640.52951	37551.5375
1643.82246	43174.4375
1647.11321	48783.0375
1650.40179	51726.5375
1653.68819	49238.3375
1656.97241	42177.8375
1660.25446	34567.2375
1663.53433	29035.9375
1666.81203	25607.0375
1670.08756	23598.9375
1673.36092	22343.5375
1676.63211	21588.9375
1679.90115	21029.6375
1683.16801	20596.8375
1686.43272	20306.0375
1689.69527	20071.8375
1692.95567	19956.6375
1696.2139	19782.1375
1699.46999	19680.7375
1702.72392	19650.7375
1705.97571	19547.6375
1709.22535	19517.1375
1712.47284	19509.4375
1715.71819	19481.7375
1718.96139	19461.1375
1722.20246	19406.2375
1725.44139	19303.6375
1728.67818	19187.7375
1731.91284	19044.0375
1735.14537	18906.8375
1738.37576	18824.4375
1741.60403	18748.1375
1744.83017	18645.6375
1748.05418	18581.5375
1751.27607	18578.1375
1754.49584	18531.9375
1757.71349	18474.9375
1760.92903	18462.3375
1764.14244	18428.2375
1767.35375	18408.9375
1770.56294	18341.5375
1773.77002	18308.6375
1776.97499	18214.5375
1780.17785	18178.4375
1783.37861	18143.8375
1786.57727	18148.4375
1789.77382	18096.7375
1792.96828	18063.2375
1796.16064	18021.9375
1799.3509	18042.0375
1802.53907	17943.5375
1805.72514	17930.7375
1808.90913	17821.5375
1812.09102	17780.7375
1815.27083	17771.4375
1818.44856	17717.7375
1821.6242	17656.1375
1824.79776	17643.8375
1827.96924	17618.3375
1831.13864	17557.0375
1834.30597	17562.6375
1837.47122	17531.1375
1840.6344	17487.0375
1843.7955	17480.6375
1846.95454	17509.8375
1850.11151	17489.9375
1853.26642	17448.5375
1856.41926	17436.4375
1859.57004	17457.4375
1862.71876	17475.6375
1865.86542	17464.1375
1869.01003	17475.2375
1872.15258	17451.6375
1875.29308	17465.5375
1878.43152	17442.2375
1881.56792	17442.5375
1884.70227	17437.1375
1887.83457	17447.1375
1890.96482	17406.3375
1894.09304	17402.1375
1897.21921	17381.1375
1900.34335	17399.0375
1903.46544	17370.5375
1906.58551	17372.4375
1909.70353	17365.5375
1912.81953	17343.1375
1915.93349	17316.7375
1919.04543	17307.4375
1922.15534	17287.8375
1925.26322	17224.3375
1928.36908	17141.3375
1931.47292	17146.6375
1934.57473	17097.9375
1937.67453	17040.3375
1940.77232	16954.0375
1943.86808	16843.3375
1946.96184	16804.4375
1950.05358	16702.2375
1953.14331	16669.5375
1956.23103	16565.2375
1959.31675	16503.1375
1962.40046	16516.4375
1965.48217	16471.4375
1968.56188	16401.9375
1971.63959	16352.8375
1974.7153	16294.0375
1977.78901	16273.4375
1980.86073	16223.0375
1983.93046	16155.1375
1986.99819	16084.9375
1990.06394	16017.8375
1993.1277	15962.9375
1996.18947	15902.1375
1999.24925	15871.7375
2002.30706	15861.0375
2005.36288	15756.3375
2008.41672	15716.6375
2011.46859	15673.5375
2014.51848	15636.4375
2017.56639	15623.7375
2020.61233	15558.0375
2023.6563	15475.3375
2026.6983	15421.3375
2029.73833	15411.8375
2032.7764	15371.0375
2035.8125	15366.8375
2038.84664	15330.5375
2041.87881	15304.5375
2044.90903	15267.1375
2047.93729	15214.4375
2050.96359	15222.9375
2053.98794	15185.9375
2057.01034	15172.1375
2060.03078	15156.3375
2063.04927	15174.5375
2066.06582	15146.5375
2069.08042	15171.9375
2072.09307	15106.8375
2075.10378	15066.8375
2078.11255	15086.1375
2081.11938	15063.3375
2084.12426	15055.6375
2087.12722	15034.0375
2090.12824	14995.9375
2093.12732	15026.6375
2096.12447	14998.5375
2099.11969	15008.6375
2102.11299	14990.1375
2105.10435	14995.8375
2108.09379	14991.4375
2111.08131	14989.6375
2114.0669	15021.5375
2117.05057	15016.2375
2120.03233	15046.2375
2123.01216	15011.1375
2125.99008	15059.3375
2128.96609	15047.4375
2131.94018	15084.9375
2134.91236	15067.1375
2137.88263	15092.9375
2140.851	15080.6375
2143.81746	15105.1375
2146.78201	15056.2375
2149.74466	15071.8375
2152.7054	15041.5375
2155.66425	15001.7375
2158.6212	14991.1375
2161.57625	14983.0375
2164.52941	14963.9375
2167.48067	14974.5375
2170.43004	14942.6375
2173.37752	14965.2375
2176.32311	14957.9375
2179.26681	14937.9375
2182.20863	14958.0375
2185.14856	14979.7375
2188.08661	15003.5375
2191.02278	14987.8375
2193.95707	14935.2375
2196.88948	14874.7375
2199.82001	14902.5375
2202.74867	14865.1375
2205.67545	14850.3375
2208.60037	14838.2375
2211.52341	14809.6375
2214.44458	14782.1375
2217.36388	14755.0375
2220.28132	14761.7375
2223.1969	14681.2375
2226.11061	14682.5375
2229.02246	14643.4375
2231.93245	14617.5375
2234.84058	14558.3375
2237.74686	14529.0375
2240.65128	14522.8375
2243.55385	14505.6375
2246.45456	14506.1375
2249.35343	14498.7375
2252.25044	14464.8375
2255.14561	14431.0375
2258.03893	14417.6375
2260.93041	14393.1375
2263.82004	14361.7375
2266.70783	14343.7375
2269.59378	14297.2375
2272.4779	14258.0375
2275.36017	14184.3375
2278.24061	14170.7375
2281.11922	14161.6375
2283.996	14130.9375
2286.87094	14090.5375
2289.74405	14053.8375
2292.61534	14020.5375
2295.4848	14042.4375
2298.35243	14021.3375
2301.21824	14014.4375
2304.08223	14048.4375
2306.94439	14063.9375
2309.80474	14026.3375
2312.66327	14030.7375
2315.51999	14012.6375
2318.37489	14006.7375
2321.22797	13974.4375
2324.07925	13947.6375
2326.92871	13930.9375
2329.77637	13930.7375
2332.62222	13903.2375
2335.46626	13909.4375
2338.3085	13900.0375
2341.14893	13896.0375
2343.98756	13910.2375
2346.8244	13926.1375
2349.65943	13894.7375
2352.49267	13877.4375
2355.32411	13892.3375
2358.15376	13888.1375
2360.98161	13915.2375
2363.80768	13929.4375
2366.63195	13951.4375
2369.45444	13931.3375
2372.27514	13900.3375
2375.09405	13853.6375
2377.91118	13816.6375
2380.72652	13770.6375
2383.54009	13733.6375
2386.35187	13716.3375
2389.16188	13647.4375
2391.97011	13582.9375
2394.77657	13531.8375
2397.58125	13535.7375
2400.38416	13509.5375
2403.18529	13475.6375
2405.98466	13430.6375
2408.78226	13408.3375
2411.57809	13402.2375
2414.37216	13421.3375
2417.16446	13394.4375
2419.955	13341.4375
2422.74378	13356.6375
2425.5308	13338.1375
2428.31606	13317.5375
2431.09956	13288.4375
2433.88131	13300.8375
2436.6613	13321.3375
2439.43954	13302.3375
2442.21603	13312.1375
2444.99077	13269.8375
2447.76377	13299.1375
2450.53501	13259.2375
2453.30451	13270.6375
2456.07226	13278.5375
2458.83827	13273.2375
2461.60254	13263.2375
2464.36507	13238.5375
2467.12586	13246.6375
2469.88492	13221.0375
2472.64224	13272.6375
2475.39782	13242.5375
2478.15167	13289.0375
2480.90379	13285.2375
2483.65417	13281.8375
2486.40283	13312.0375
2489.14976	13334.7375
2491.89497	13359.8375
2494.63845	13360.4375
2497.3802	13344.2375
2500.12024	13322.1375
2502.85855	13342.3375
2505.59514	13296.9375
2508.33002	13251.4375
2511.06318	13225.8375
2513.79462	13222.8375
2516.52435	13180.9375
2519.25237	13135.9375
2521.97867	13093.5375
2524.70327	13056.5375
2527.42616	13067.7375
2530.14734	13077.7375
2532.86681	13090.2375
2535.58458	13061.6375
2538.30065	13058.5375
2541.01501	13042.9375
2543.72768	13037.1375
2546.43864	13011.9375
2549.14791	13026.2375
2551.85548	12998.1375
2554.56136	12953.5375
2557.26554	12966.9375
2559.96803	12936.6375
2562.66883	12910.8375
2565.36794	12924.8375
2568.06536	12936.1375
2570.7611	12884.5375
2573.45514	12882.0375
2576.14751	12844.4375
2578.83819	12826.3375
2581.52719	12850.9375
2584.21451	12833.1375
2586.90015	12814.8375
2589.58411	12808.7375
2592.2664	12794.6375
2594.94701	12803.8375
2597.62594	12776.8375
2600.30321	12748.8375
2602.9788	12774.9375
2605.65273	12768.7375
2608.32498	12806.5375
2610.99557	12778.2375
2613.66449	12796.3375
2616.33175	12767.5375
2618.99734	12763.0375
2621.66128	12769.7375
2624.32355	12765.6375
2626.98416	12751.7375
2629.64311	12741.6375
2632.30041	12732.1375
2634.95605	12711.2375
2637.61004	12684.3375
2640.26238	12664.6375
2642.91306	12656.4375
2645.56209	12634.3375
2648.20948	12671.4375
2650.85521	12672.5375
2653.4993	12670.4375
2656.14175	12628.7375
2658.78255	12696.9375
2661.42171	12659.6375
2664.05923	12676.5375
2666.6951	12703.2375
2669.32934	12701.9375
2671.96194	12698.5375
2674.59291	12730.4375
2677.22224	12712.0375
2679.84993	12703.4375
2682.476	12656.3375
2685.10043	12655.9375
2687.72324	12644.2375
2690.34441	12650.3375
2692.96396	12614.9375
2695.58188	12645.0375
2698.19818	12628.9375
2700.81285	12649.3375
2703.4259	12639.9375
2706.03733	12683.7375
2708.64714	12659.2375
2711.25533	12695.0375
2713.86191	12676.8375
2716.46687	12702.0375
2719.07021	12700.7375
2721.67194	12739.2375
2724.27206	12722.0375
2726.87057	12727.2375
2729.46747	12730.7375
2732.06276	12736.4375
2734.65644	12709.4375
2737.24852	12702.8375
2739.83899	12654.6375
2742.42786	12670.0375
2745.01513	12645.7375
2747.60079	12618.9375
2750.18486	12614.9375
2752.76733	12620.4375
2755.3482	12606.0375
2757.92747	12596.3375
2760.50515	12569.7375
2763.08123	12579.2375
2765.65573	12577.6375
2768.22863	12537.9375
2770.79994	12534.8375
2773.36967	12573.8375
2775.9378	12569.0375
2778.50435	12578.8375
2781.06932	12569.6375
2783.6327	12586.9375
2786.1945	12574.8375
2788.75471	12528.2375
2791.31335	12553.7375
2793.87041	12540.7375
2796.42589	12528.8375
2798.97979	12526.5375
2801.53212	12463.2375
2804.08288	12461.8375
2806.63206	12411.1375
2809.17967	12440.9375
2811.72571	12403.4375
2814.27018	12413.5375
2816.81308	12379.2375
2819.35442	12398.1375
2821.89419	12364.6375
2824.43239	12380.1375
2826.96904	12369.5375
2829.50412	12382.4375
2832.03763	12337.3375
2834.56959	12313.2375
2837.1	12324.3375
2839.62884	12288.5375
2842.15613	12326.9375
2844.68186	12391.1375
2847.20604	12452.1375
2849.72867	12469.7375
2852.24974	12466.8375
2854.76927	12461.9375
2857.28724	12420.5375
2859.80367	12399.7375
2862.31855	12395.7375
2864.83189	12360.0375
2867.34368	12356.1375
2869.85393	12349.4375
2872.36264	12377.3375
2874.8698	12394.0375
2877.37543	12354.7375
2879.87952	12348.4375
2882.38207	12314.4375
2884.88308	12320.5375
2887.38256	12347.5375
2889.88051	12328.6375
2892.37692	12326.2375
2894.8718	12341.4375
2897.36515	12343.0375
2899.85698	12305.7375
2902.34727	12352.7375
2904.83604	12370.2375
2907.32328	12415.0375
2909.809	12386.7375
2912.29319	12374.4375
2914.77587	12393.5375
2917.25702	12353.7375
2919.73665	12327.4375
2922.21476	12343.5375
2924.69136	12308.6375
2927.16644	12332.1375
2929.64	12289.3375
2932.11205	12272.9375
2934.58258	12211.7375
2937.05161	12209.8375
2939.51912	12174.6375
2941.98513	12186.7375
2944.44962	12141.4375
2946.91261	12043.1375
2949.37409	12049.6375
2951.83407	12051.8375
2954.29254	12024.4375
2956.74951	12014.4375
2959.20498	12010.8375
2961.65895	11951.5375
2964.11142	11954.7375
2966.56239	11917.0375
2969.01186	11902.6375
2971.45984	11885.7375
2973.90632	11849.7375
2976.35131	11843.9375
2978.7948	11788.8375
2981.23681	11773.7375
2983.67732	11747.8375
2986.11635	11696.7375
2988.55388	11688.5375
2990.98993	11633.9375
2993.4245	11594.9375
2995.85758	11582.6375
2998.28917	11549.0375
3000.71928	11549.8375
3003.14791	11521.7375
3005.57506	11523.8375
3008.00073	11490.3375
3010.42493	11480.6375
3012.84764	11442.4375
3015.26888	11408.2375
3017.68865	11377.0375
3020.10694	11370.1375
3022.52376	11340.4375
3024.9391	11308.2375
3027.35298	11298.4375
3029.76539	11287.3375
3032.17632	11264.0375
3034.5858	11235.8375
3036.9938	11261.1375
3039.40034	11231.3375
3041.80542	11220.1375
3044.20903	11192.5375
3046.61118	11181.2375
3049.01187	11127.0375
3051.4111	11139.2375
3053.80888	11108.8375
3056.20519	11062.3375
3058.60005	11023.6375
3060.99345	11023.4375
3063.3854	10999.5375
3065.7759	10931.3375
3068.16494	10911.1375
3070.55254	10845.3375
3072.93868	10827.6375
3075.32338	10822.8375
3077.70662	10741.4375
3080.08842	10735.5375
3082.46878	10711.1375
3084.84769	10701.0375
3087.22515	10679.4375
3089.60118	10686.4375
3091.97576	10661.3375
3094.3489	10694.1375
3096.72061	10668.9375
3099.09087	10638.6375
3101.4597	10654.0375
3103.82709	10640.2375
3106.19305	10597.9375
3108.55757	10597.5375
3110.92066	10547.6375
3113.28232	10519.6375
3115.64255	10521.8375
3118.00134	10473.0375
3120.35871	10483.5375
3122.71466	10441.6375
3125.06917	10428.6375
3127.42226	10364.0375
3129.77393	10395.2375
3132.12417	10360.3375
3134.47299	10345.5375
3136.82039	10349.7375
3139.16636	10336.0375
3141.51092	10341.9375
3143.85406	10332.1375
3146.19579	10312.8375
3148.53609	10314.8375
3150.87499	10333.2375
3153.21246	10313.6375
3155.54853	10332.4375
3157.88318	10347.3375
3160.21642	10350.0375
3162.54826	10321.8375
3164.87868	10321.5375
3167.2077	10345.2375
3169.5353	10334.7375
3171.86151	10314.9375
3174.18631	10325.5375
3176.5097	10309.7375
3178.83169	10287.2375
3181.15228	10306.5375
3183.47147	10259.1375
3185.78926	10247.8375
3188.10565	10210.0375
3190.42065	10225.6375
3192.73424	10204.6375
3195.04645	10199.3375
3197.35725	10227.2375
3199.66667	10189.5375
3201.97469	10205.4375
3204.28132	10187.6375
3206.58656	10226.3375
3208.8904	10223.5375
3211.19287	10213.6375
3213.49394	10223.5375
3215.79363	10229.2375
3218.09193	10241.9375
3220.38884	10238.1375
3222.68438	10221.1375
3224.97853	10203.1375
3227.2713	10195.2375
3229.56269	10163.4375
3231.8527	10172.6375
3234.14133	10178.7375
3236.42858	10145.1375
3238.71446	10145.5375
3240.99896	10110.4375
3243.28209	10096.8375
3245.56384	10070.8375
3247.84423	10082.0375
3250.12324	10057.9375
3252.40088	10032.2375
3254.67715	10024.9375
3256.95205	10013.8375
3259.22558	9975.7375
3261.49775	9968.4375
3263.76855	9979.0375
3266.03799	9923.0375
3268.30606	9909.3375
3270.57277	9907.5375
3272.83812	9887.4375
3275.10211	9857.6375
3277.36474	9868.8375
3279.62601	9850.2375
3281.88593	9846.6375
3284.14448	9856.3375
3286.40168	9849.7375
3288.65753	9849.2375
3290.91202	9822.7375
3293.16516	9801.9375
3295.41695	9783.0375
3297.66738	9712.7375
3299.91647	9674.8375
3302.16421	9586.3375
3304.4106	9532.1375
3306.65564	9473.6375
3308.89933	9418.6375
3311.14169	9342.0375
3313.38269	9268.7375
3315.62236	9195.5375
3317.86068	9120.0375
3320.09766	9039.3375
3322.3333	8990.6375
3324.5676	8929.8375
3326.80056	8787.6375
3329.03219	8728.1375
3331.26248	3.4375
3333.49143	-0.0625
3335.71905	-0.1625
