Data from AgNPs_FTO_APTES_UA_5uM_CRN_5uM_R6G_10uM_NaF_0.1M_Addition_RamanShift__1__11-45-56-667.txt Node

Date: Mon Feb 07 11:45:56 GMT 2022
User: TCL
Spectrometer: QEP01345
Trigger mode: 4
Integration Time (sec): 7.000000E0
Scans to average: 10
Electric dark correction enabled: true
Nonlinearity correction enabled: false
Boxcar width: 0
XAxis mode: Raman Shifts
Number of Pixels in Spectrum: 1044
>>>>>Begin Spectral Data<<<<<
46.04893	0.9875
50.45542	-1.0125
54.85868	-0.9125
59.25871	-0.2125
63.6555	109.9875
68.04907	115.2875
72.43941	118.2875
76.82654	119.1875
81.21044	127.4875
85.59113	132.6875
89.96862	139.2875
94.34289	136.9875
98.71396	142.8875
103.08183	147.1875
107.4465	153.9875
111.80798	157.9875
116.16626	164.8875
120.52136	172.1875
124.87327	179.3875
129.222	189.4875
133.56755	208.5875
137.90993	227.5875
142.24913	247.2875
146.58517	282.3875
150.91804	333.6875
155.24774	406.0875
159.57429	500.8875
163.89768	654.0875
168.21792	878.5875
172.53501	1199.5875
176.84895	1671.3875
181.15975	2360.5875
185.46741	3312.5875
189.77193	4548.6875
194.07331	6089.1875
198.37157	7843.2875
202.6667	9672.8875
206.9587	11513.3875
211.24758	13298.3875
215.53334	15111.3875
219.81599	17023.7875
224.09553	19174.5875
228.37195	21522.5875
232.64527	24070.2875
236.91549	26696.8875
241.18261	29378.0875
245.44663	31825.5875
249.70755	33977.2875
253.96539	35918.3875
258.22014	37530.7875
262.4718	38819.1875
266.72039	39795.2875
270.96589	40262.3875
275.20832	40350.4875
279.44768	40131.8875
283.68397	39798.1875
287.91719	39484.1875
292.14735	39326.3875
296.37445	39330.1875
300.59849	39413.8875
304.81948	39625.7875
309.03742	39616.2875
313.25231	39381.9875
317.46415	38788.2875
321.67296	37950.4875
325.87872	37134.6875
330.08145	36732.3875
334.28114	36581.4875
338.47781	36737.4875
342.67145	37181.1875
346.86207	37752.3875
351.04966	38380.6875
355.23424	39192.0875
359.4158	39841.0875
363.59435	40313.0875
367.76989	40689.8875
371.94243	40865.9875
376.11196	40969.7875
380.27849	41033.3875
384.44203	41181.7875
388.60257	41599.7875
392.76012	42075.7875
396.91468	42685.1875
401.06626	43395.8875
405.21485	43830.2875
409.36047	43656.7875
413.50311	43290.8875
417.64277	43230.7875
421.77947	43631.7875
425.9132	43872.8875
430.04396	44130.9875
434.17176	44329.4875
438.2966	44441.6875
442.41849	45008.7875
446.53742	46172.6875
450.6534	47606.4875
454.76644	48521.3875
458.87653	48777.8875
462.98368	48353.4875
467.08789	47549.1875
471.18916	46611.7875
475.2875	45732.7875
479.38291	45268.1875
483.4754	44996.7875
487.56496	44529.7875
491.6516	43961.6875
495.73531	43279.9875
499.81612	42936.0875
503.89401	43167.5875
507.96899	43396.9875
512.04106	43372.0875
516.11023	42892.2875
520.1765	42145.0875
524.23987	41435.1875
528.30034	40895.0875
532.35792	40404.4875
536.41261	39819.7875
540.46441	39333.3875
544.51333	39270.4875
548.55936	39771.2875
552.60252	40796.9875
556.64279	42008.7875
560.6802	43036.5875
564.71473	43776.1875
568.7464	44801.4875
572.7752	46571.3875
576.80114	48736.0875
580.82422	51076.0875
584.84444	53946.8875
588.86181	57388.0875
592.87633	59892.9875
596.888	58944.3875
600.89682	54864.7875
604.9028	52673.1875
608.90594	54412.7875
612.90624	56941.0875
616.90371	52985.3875
620.89834	44866.9875
624.89015	41271.1875
628.87913	41004.0875
632.86528	41240.4875
636.84862	41024.9875
640.82913	40049.3875
644.80683	38907.9875
648.78172	38335.1875
652.75379	38400.7875
656.72306	38881.0875
660.68952	39375.1875
664.65319	39073.1875
668.61405	38301.3875
672.57211	38200.3875
676.52738	38392.4875
680.47986	38362.2875
684.42955	37909.4875
688.37646	37731.1875
692.32058	38075.3875
696.26192	38838.3875
700.20048	39577.3875
704.13626	40028.1875
708.06928	40116.2875
711.99952	39969.7875
715.927	40026.2875
719.85171	40239.5875
723.77365	39973.4875
727.69284	39203.0875
731.60928	38402.7875
735.52295	38041.6875
739.43388	38013.9875
743.34206	38201.2875
747.24749	38491.3875
751.15017	39055.9875
755.05012	39939.0875
758.94733	41185.2875
762.8418	43268.0875
766.73354	46211.0875
770.62254	48757.4875
774.50882	48714.1875
778.39237	46227.4875
782.27321	43130.0875
786.15132	40632.7875
790.02671	39073.9875
793.89938	38297.5875
797.76935	38022.6875
801.6366	37951.1875
805.50115	37894.2875
809.36299	37744.1875
813.22213	37401.8875
817.07857	37161.9875
820.93231	36896.8875
824.78336	36562.0875
828.63172	36283.6875
832.47738	36199.5875
836.32036	36210.7875
840.16066	36319.5875
843.99827	36397.3875
847.8332	36355.5875
851.66546	36290.9875
855.49504	36307.7875
859.32195	36324.8875
863.1462	36219.0875
866.96777	36095.4875
870.78668	36048.6875
874.60293	35997.9875
878.41652	36057.0875
882.22745	36122.7875
886.03573	36244.8875
889.84136	36236.5875
893.64433	36072.2875
897.44466	35945.6875
901.24235	35850.9875
905.0374	35646.7875
908.8298	35643.0875
912.61957	35735.8875
916.40671	36154.0875
920.19121	36892.8875
923.97308	37528.5875
927.75233	37607.6875
931.52895	37057.6875
935.30295	36272.0875
939.07433	35460.4875
942.84309	34889.3875
946.60924	34663.2875
950.37278	34580.3875
954.13371	34604.2875
957.89203	34585.5875
961.64774	34562.2875
965.40086	34612.9875
969.15137	34567.3875
972.89929	34404.6875
976.64461	34203.8875
980.38733	34165.7875
984.12747	34245.1875
987.86502	34504.6875
991.59999	34809.8875
995.33237	35289.2875
999.06217	36094.6875
1002.78939	37148.4875
1006.51404	38266.8875
1010.23611	39089.6875
1013.95561	39611.8875
1017.67255	39620.1875
1021.38692	38907.0875
1025.09872	37993.7875
1028.80796	37617.0875
1032.51465	37918.7875
1036.21877	38525.3875
1039.92035	38823.4875
1043.61937	38687.9875
1047.31584	38338.5875
1051.00976	37890.8875
1054.70114	37722.2875
1058.38998	37864.0875
1062.07627	38190.0875
1065.76003	38701.6875
1069.44126	39337.8875
1073.11995	40200.4875
1076.79611	40808.7875
1080.46974	41161.9875
1084.14085	41509.2875
1087.80943	42123.4875
1091.47549	42666.2875
1095.13903	42883.2875
1098.80005	42262.6875
1102.45857	41008.0875
1106.11456	40002.9875
1109.76805	39418.8875
1113.41903	39300.0875
1117.06751	39364.6875
1120.71348	39644.1875
1124.35696	40036.6875
1127.99793	40537.1875
1131.63641	40919.8875
1135.2724	41026.1875
1138.90589	41067.4875
1142.5369	41370.2875
1146.16542	41898.0875
1149.79145	42478.5875
1153.415	43112.4875
1157.03607	44026.5875
1160.65467	45818.6875
1164.27079	48706.3875
1167.88443	51978.0875
1171.49561	55017.1875
1175.10432	58485.4875
1178.71056	62970.1875
1182.31434	67314.6875
1185.91565	69269.1875
1189.51451	68487.0875
1193.11091	66356.1875
1196.70485	63921.3875
1200.29634	61657.4875
1203.88538	60486.4875
1207.47197	60381.2875
1211.05612	60304.6875
1214.63782	59322.8875
1218.21708	57229.8875
1221.79391	55034.0875
1225.36829	53441.3875
1228.94024	52314.9875
1232.50976	51241.3875
1236.07685	50231.7875
1239.6415	49574.7875
1243.20374	49473.4875
1246.76355	49993.2875
1250.32093	50983.7875
1253.8759	52369.6875
1257.42845	54018.0875
1260.97859	55956.5875
1264.52631	57954.7875
1268.07163	59982.8875
1271.61453	62130.9875
1275.15503	64361.1875
1278.69312	66771.1875
1282.22882	69224.0875
1285.76211	72442.7875
1289.29301	76079.2875
1292.82151	80279.1875
1296.34761	85546.1875
1299.87133	91715.8875
1303.39266	97959.6875
1306.9116	103182.8875
1310.42815	106432.7875
1313.94233	107292.7875
1317.45412	105818.9875
1320.96354	103476.5875
1324.47058	101815.1875
1327.97525	101104.1875
1331.47754	100891.1875
1334.97747	100250.9875
1338.47502	98806.8875
1341.97022	96451.8875
1345.46305	93598.2875
1348.95352	91197.4875
1352.44163	90367.2875
1355.92738	92130.0875
1359.41078	96034.4875
1362.89183	99408.9875
1366.37053	98417.2875
1369.84688	91341.7875
1373.32088	81038.9875
1376.79254	73443.9875
1380.26186	71061.2875
1383.72883	71790.0875
1387.19347	72456.1875
1390.65578	71776.5875
1394.11575	71473.8875
1397.57339	72645.9875
1401.0287	74777.5875
1404.48168	76495.0875
1407.93234	76772.6875
1411.38068	74913.4875
1414.82669	71715.7875
1418.27039	67824.9875
1421.71177	64048.5875
1425.15083	61166.4875
1428.58758	60127.9875
1432.02203	61050.4875
1435.45416	63572.9875
1438.88399	66359.1875
1442.31151	68256.3875
1445.73673	69249.7875
1449.15965	69703.4875
1452.58027	69484.6875
1455.9986	69095.0875
1459.41463	69261.8875
1462.82837	70407.8875
1466.23982	71880.0875
1469.64898	73466.6875
1473.05586	74229.0875
1476.46045	74139.2875
1479.86276	73390.6875
1483.26279	72235.7875
1486.66054	71680.6875
1490.05602	71705.0875
1493.44922	72138.9875
1496.84016	72491.9875
1500.22882	73032.4875
1503.61521	73934.0875
1506.99934	75090.5875
1510.38121	76097.6875
1513.76081	76155.9875
1517.13816	75211.5875
1520.51324	74030.0875
1523.88607	73677.0875
1527.25665	74166.1875
1530.62498	74856.7875
1533.99105	74695.9875
1537.35488	73633.7875
1540.71647	71521.5875
1544.07581	69032.6875
1547.4329	66378.8875
1550.78776	64150.4875
1554.14038	62542.6875
1557.49077	61532.1875
1560.83892	60859.3875
1564.18484	60481.8875
1567.52853	60460.8875
1570.86999	61018.1875
1574.20922	62444.6875
1577.54624	64100.8875
1580.88103	65236.0875
1584.2136	66953.8875
1587.54395	70603.3875
1590.87208	76064.3875
1594.19801	82298.7875
1597.52172	87345.3875
1600.84321	87804.2875
1604.16251	82064.6875
1607.47959	73171.1875
1610.79447	64530.1875
1614.10715	57310.4875
1617.41763	52094.7875
1620.7259	48798.0875
1624.03199	47268.4875
1627.33587	47610.4875
1630.63757	49788.6875
1633.93707	54289.1875
1637.23439	61802.4875
1640.52951	72703.7875
1643.82246	85318.8875
1647.11321	94819.9875
1650.40179	95282.4875
1653.68819	85632.5875
1656.97241	71311.5875
1660.25446	58364.7875
1663.53433	49113.1875
1666.81203	43341.0875
1670.08756	39737.0875
1673.36092	37561.8875
1676.63211	36143.4875
1679.90115	35196.0875
1683.16801	34423.5875
1686.43272	33883.2875
1689.69527	33439.0875
1692.95567	33098.2875
1696.2139	32882.3875
1699.46999	32679.1875
1702.72392	32518.7875
1705.97571	32439.4875
1709.22535	32348.8875
1712.47284	32243.0875
1715.71819	32206.8875
1718.96139	32076.7875
1722.20246	31952.9875
1725.44139	31771.9875
1728.67818	31546.6875
1731.91284	31258.6875
1735.14537	31075.5875
1738.37576	30907.4875
1741.60403	30778.9875
1744.83017	30652.8875
1748.05418	30531.1875
1751.27607	30427.0875
1754.49584	30370.1875
1757.71349	30309.1875
1760.92903	30271.3875
1764.14244	30227.6875
1767.35375	30223.0875
1770.56294	30157.7875
1773.77002	30033.1875
1776.97499	29984.2875
1780.17785	29873.9875
1783.37861	29838.7875
1786.57727	29795.5875
1789.77382	29737.5875
1792.96828	29648.3875
1796.16064	29637.4875
1799.3509	29515.9875
1802.53907	29432.2875
1805.72514	29367.7875
1808.90913	29253.2875
1812.09102	29194.2875
1815.27083	29174.9875
1818.44856	29108.6875
1821.6242	29068.1875
1824.79776	29055.2875
1827.96924	29011.6875
1831.13864	29011.6875
1834.30597	29040.1875
1837.47122	29024.2875
1840.6344	28999.2875
1843.7955	29028.0875
1846.95454	29032.6875
1850.11151	29039.2875
1853.26642	28968.4875
1856.41926	28953.6875
1859.57004	28981.6875
1862.71876	28939.3875
1865.86542	28877.8875
1869.01003	28814.9875
1872.15258	28702.7875
1875.29308	28705.2875
1878.43152	28673.6875
1881.56792	28681.5875
1884.70227	28638.1875
1887.83457	28600.8875
1890.96482	28532.5875
1894.09304	28531.7875
1897.21921	28496.4875
1900.34335	28451.3875
1903.46544	28375.3875
1906.58551	28397.6875
1909.70353	28277.1875
1912.81953	28193.4875
1915.93349	28185.0875
1919.04543	28068.1875
1922.15534	28021.0875
1925.26322	27915.7875
1928.36908	27891.0875
1931.47292	27810.6875
1934.57473	27705.9875
1937.67453	27592.3875
1940.77232	27484.5875
1943.86808	27426.5875
1946.96184	27339.4875
1950.05358	27284.4875
1953.14331	27163.4875
1956.23103	27155.4875
1959.31675	27031.8875
1962.40046	26960.8875
1965.48217	26910.6875
1968.56188	26822.7875
1971.63959	26717.7875
1974.7153	26588.2875
1977.78901	26509.3875
1980.86073	26389.7875
1983.93046	26318.5875
1986.99819	26264.9875
1990.06394	26165.5875
1993.1277	26147.7875
1996.18947	26035.0875
1999.24925	26017.0875
2002.30706	25920.6875
2005.36288	25793.9875
2008.41672	25714.8875
2011.46859	25672.9875
2014.51848	25599.3875
2017.56639	25504.9875
2020.61233	25455.9875
2023.6563	25430.5875
2026.6983	25332.5875
2029.73833	25317.8875
2032.7764	25255.9875
2035.8125	25247.8875
2038.84664	25153.8875
2041.87881	25148.9875
2044.90903	25101.7875
2047.93729	25045.3875
2050.96359	25017.1875
2053.98794	24978.9875
2057.01034	24989.4875
2060.03078	24972.8875
2063.04927	24942.8875
2066.06582	24914.8875
2069.08042	24904.5875
2072.09307	24894.9875
2075.10378	24828.0875
2078.11255	24812.0875
2081.11938	24808.1875
2084.12426	24746.4875
2087.12722	24775.4875
2090.12824	24755.9875
2093.12732	24734.0875
2096.12447	24750.6875
2099.11969	24750.3875
2102.11299	24753.6875
2105.10435	24701.7875
2108.09379	24748.2875
2111.08131	24752.3875
2114.0669	24765.8875
2117.05057	24749.0875
2120.03233	24757.7875
2123.01216	24750.7875
2125.99008	24793.1875
2128.96609	24774.6875
2131.94018	24739.0875
2134.91236	24809.1875
2137.88263	24794.1875
2140.851	24797.7875
2143.81746	24800.0875
2146.78201	24767.1875
2149.74466	24762.9875
2152.7054	24752.4875
2155.66425	24704.9875
2158.6212	24722.2875
2161.57625	24693.1875
2164.52941	24698.2875
2167.48067	24691.7875
2170.43004	24710.6875
2173.37752	24715.8875
2176.32311	24707.0875
2179.26681	24729.6875
2182.20863	24688.3875
2185.14856	24733.0875
2188.08661	24711.7875
2191.02278	24756.3875
2193.95707	24740.4875
2196.88948	24665.1875
2199.82001	24644.2875
2202.74867	24604.2875
2205.67545	24559.6875
2208.60037	24524.5875
2211.52341	24490.7875
2214.44458	24486.1875
2217.36388	24391.9875
2220.28132	24353.5875
2223.1969	24317.7875
2226.11061	24311.7875
2229.02246	24267.8875
2231.93245	24231.2875
2234.84058	24167.6875
2237.74686	24156.4875
2240.65128	24127.1875
2243.55385	24075.8875
2246.45456	24043.6875
2249.35343	23963.2875
2252.25044	23932.8875
2255.14561	23875.3875
2258.03893	23850.1875
2260.93041	23743.3875
2263.82004	23703.7875
2266.70783	23614.8875
2269.59378	23539.6875
2272.4779	23435.2875
2275.36017	23388.4875
2278.24061	23404.1875
2281.11922	23325.8875
2283.996	23294.6875
2286.87094	23294.2875
2289.74405	23256.6875
2292.61534	23250.3875
2295.4848	23268.6875
2298.35243	23234.2875
2301.21824	23251.6875
2304.08223	23292.0875
2306.94439	23253.5875
2309.80474	23258.1875
2312.66327	23273.4875
2315.51999	23253.9875
2318.37489	23206.8875
2321.22797	23133.1875
2324.07925	23171.7875
2326.92871	23109.6875
2329.77637	23094.3875
2332.62222	23070.6875
2335.46626	23062.9875
2338.3085	23035.5875
2341.14893	23072.6875
2343.98756	23061.3875
2346.8244	23054.9875
2349.65943	23043.2875
2352.49267	23040.2875
2355.32411	23101.2875
2358.15376	23074.5875
2360.98161	23025.6875
2363.80768	22998.8875
2366.63195	22999.8875
2369.45444	22953.6875
2372.27514	22913.9875
2375.09405	22878.5875
2377.91118	22852.6875
2380.72652	22766.8875
2383.54009	22731.1875
2386.35187	22703.9875
2389.16188	22626.9875
2391.97011	22618.3875
2394.77657	22584.3875
2397.58125	22572.6875
2400.38416	22504.7875
2403.18529	22519.7875
2405.98466	22455.2875
2408.78226	22451.8875
2411.57809	22388.9875
2414.37216	22392.8875
2417.16446	22382.8875
2419.955	22376.0875
2422.74378	22337.5875
2425.5308	22301.5875
2428.31606	22328.1875
2431.09956	22312.9875
2433.88131	22295.3875
2436.6613	22299.8875
2439.43954	22313.3875
2442.21603	22329.8875
2444.99077	22246.3875
2447.76377	22248.8875
2450.53501	22240.0875
2453.30451	22202.4875
2456.07226	22171.8875
2458.83827	22193.2875
2461.60254	22224.9875
2464.36507	22211.8875
2467.12586	22200.7875
2469.88492	22177.2875
2472.64224	22221.4875
2475.39782	22210.4875
2478.15167	22258.9875
2480.90379	22260.8875
2483.65417	22296.5875
2486.40283	22311.7875
2489.14976	22307.4875
2491.89497	22240.9875
2494.63845	22300.6875
2497.3802	22285.2875
2500.12024	22309.1875
2502.85855	22264.7875
2505.59514	22284.3875
2508.33002	22297.9875
2511.06318	22238.4875
2513.79462	22204.9875
2516.52435	22230.8875
2519.25237	22233.4875
2521.97867	22208.2875
2524.70327	22225.2875
2527.42616	22188.6875
2530.14734	22194.5875
2532.86681	22167.1875
2535.58458	22219.4875
2538.30065	22171.9875
2541.01501	22126.1875
2543.72768	22129.1875
2546.43864	22134.7875
2549.14791	22117.1875
2551.85548	22078.5875
2554.56136	22092.7875
2557.26554	22063.6875
2559.96803	22036.5875
2562.66883	22039.7875
2565.36794	22004.6875
2568.06536	21988.2875
2570.7611	21965.1875
2573.45514	21972.6875
2576.14751	21951.8875
2578.83819	21932.1875
2581.52719	21956.9875
2584.21451	21925.5875
2586.90015	21937.0875
2589.58411	21962.5875
2592.2664	21922.1875
2594.94701	21910.8875
2597.62594	21907.3875
2600.30321	21891.7875
2602.9788	21898.5875
2605.65273	21849.3875
2608.32498	21916.7875
2610.99557	21935.6875
2613.66449	21955.2875
2616.33175	21906.9875
2618.99734	21890.5875
2621.66128	21858.4875
2624.32355	21856.1875
2626.98416	21867.5875
2629.64311	21842.5875
2632.30041	21851.4875
2634.95605	21783.8875
2637.61004	21792.0875
2640.26238	21770.9875
2642.91306	21814.9875
2645.56209	21763.6875
2648.20948	21806.5875
2650.85521	21822.8875
2653.4993	21875.2875
2656.14175	21843.2875
2658.78255	21869.4875
2661.42171	21882.5875
2664.05923	21922.5875
2666.6951	21920.0875
2669.32934	21982.7875
2671.96194	21982.0875
2674.59291	21972.0875
2677.22224	21961.9875
2679.84993	22019.8875
2682.476	21980.3875
2685.10043	21954.3875
2687.72324	21930.4875
2690.34441	21916.9875
2692.96396	21896.7875
2695.58188	21950.4875
2698.19818	21884.1875
2700.81285	21910.2875
2703.4259	21918.3875
2706.03733	21950.1875
2708.64714	21928.4875
2711.25533	21967.1875
2713.86191	21940.4875
2716.46687	21984.7875
2719.07021	22012.5875
2721.67194	22092.3875
2724.27206	22057.1875
2726.87057	22102.0875
2729.46747	22149.8875
2732.06276	22168.6875
2734.65644	22122.0875
2737.24852	22070.6875
2739.83899	22071.7875
2742.42786	22132.4875
2745.01513	22124.4875
2747.60079	22094.1875
2750.18486	22061.2875
2752.76733	22041.5875
2755.3482	22013.5875
2757.92747	22035.2875
2760.50515	22025.9875
2763.08123	22009.1875
2765.65573	22032.6875
2768.22863	22051.6875
2770.79994	21995.1875
2773.36967	22017.4875
2775.9378	22012.0875
2778.50435	21988.9875
2781.06932	22008.3875
2783.6327	22020.7875
2786.1945	22042.9875
2788.75471	21998.2875
2791.31335	22003.5875
2793.87041	21969.6875
2796.42589	21889.9875
2798.97979	21920.6875
2801.53212	21902.9875
2804.08288	21809.7875
2806.63206	21788.5875
2809.17967	21711.9875
2811.72571	21689.5875
2814.27018	21677.8875
2816.81308	21609.4875
2819.35442	21574.4875
2821.89419	21517.9875
2824.43239	21534.7875
2826.96904	21527.1875
2829.50412	21522.1875
2832.03763	21458.6875
2834.56959	21448.2875
2837.1	21410.7875
2839.62884	21385.4875
2842.15613	21408.7875
2844.68186	21494.3875
2847.20604	21455.3875
2849.72867	21504.9875
2852.24974	21473.0875
2854.76927	21472.4875
2857.28724	21462.3875
2859.80367	21429.4875
2862.31855	21350.3875
2864.83189	21323.2875
2867.34368	21291.3875
2869.85393	21284.3875
2872.36264	21241.9875
2874.8698	21242.1875
2877.37543	21206.3875
2879.87952	21211.5875
2882.38207	21192.1875
2884.88308	21206.3875
2887.38256	21257.5875
2889.88051	21219.5875
2892.37692	21250.4875
2894.8718	21250.0875
2897.36515	21274.5875
2899.85698	21323.8875
2902.34727	21328.9875
2904.83604	21393.9875
2907.32328	21425.4875
2909.809	21380.1875
2912.29319	21392.3875
2914.77587	21389.8875
2917.25702	21399.9875
2919.73665	21385.0875
2922.21476	21381.3875
2924.69136	21368.2875
2927.16644	21383.7875
2929.64	21305.5875
2932.11205	21277.5875
2934.58258	21205.7875
2937.05161	21199.7875
2939.51912	21228.3875
2941.98513	21183.2875
2944.44962	21152.2875
2946.91261	21089.2875
2949.37409	21072.2875
2951.83407	21076.0875
2954.29254	21039.3875
2956.74951	21009.3875
2959.20498	21005.4875
2961.65895	20964.1875
2964.11142	20979.1875
2966.56239	20904.7875
2969.01186	20887.1875
2971.45984	20862.7875
2973.90632	20850.1875
2976.35131	20804.6875
2978.7948	20742.5875
2981.23681	20662.3875
2983.67732	20630.9875
2986.11635	20578.3875
2988.55388	20503.7875
2990.98993	20485.9875
2993.4245	20400.1875
2995.85758	20314.7875
2998.28917	20281.1875
3000.71928	20302.1875
3003.14791	20241.3875
3005.57506	20186.9875
3008.00073	20130.2875
3010.42493	20114.9875
3012.84764	20075.1875
3015.26888	20024.6875
3017.68865	19956.4875
3020.10694	19915.5875
3022.52376	19886.8875
3024.9391	19877.1875
3027.35298	19874.1875
3029.76539	19855.4875
3032.17632	19841.8875
3034.5858	19750.0875
3036.9938	19781.5875
3039.40034	19756.3875
3041.80542	19751.8875
3044.20903	19706.4875
3046.61118	19697.2875
3049.01187	19663.8875
3051.4111	19667.5875
3053.80888	19608.6875
3056.20519	19585.5875
3058.60005	19524.9875
3060.99345	19472.0875
3063.3854	19415.0875
3065.7759	19312.5875
3068.16494	19230.9875
3070.55254	19183.5875
3072.93868	19122.5875
3075.32338	19076.2875
3077.70662	19039.6875
3080.08842	18966.6875
3082.46878	18923.7875
3084.84769	18898.6875
3087.22515	18843.7875
3089.60118	18869.5875
3091.97576	18842.3875
3094.3489	18809.6875
3096.72061	18805.5875
3099.09087	18816.6875
3101.4597	18819.1875
3103.82709	18786.9875
3106.19305	18757.9875
3108.55757	18732.3875
3110.92066	18678.1875
3113.28232	18662.3875
3115.64255	18567.3875
3118.00134	18543.7875
3120.35871	18495.7875
3122.71466	18443.3875
3125.06917	18385.5875
3127.42226	18328.1875
3129.77393	18333.9875
3132.12417	18267.0875
3134.47299	18261.7875
3136.82039	18231.2875
3139.16636	18208.5875
3141.51092	18225.8875
3143.85406	18221.7875
3146.19579	18191.5875
3148.53609	18216.7875
3150.87499	18169.5875
3153.21246	18175.0875
3155.54853	18185.5875
3157.88318	18161.1875
3160.21642	18154.6875
3162.54826	18140.1875
3164.87868	18129.2875
3167.2077	18123.8875
3169.5353	18114.7875
3171.86151	18093.6875
3174.18631	18091.9875
3176.5097	18072.4875
3178.83169	18059.5875
3181.15228	18017.0875
3183.47147	17987.0875
3185.78926	17959.7875
3188.10565	17915.5875
3190.42065	17896.7875
3192.73424	17874.6875
3195.04645	17833.8875
3197.35725	17848.4875
3199.66667	17774.7875
3201.97469	17776.9875
3204.28132	17752.6875
3206.58656	17746.9875
3208.8904	17755.9875
3211.19287	17771.6875
3213.49394	17729.8875
3215.79363	17765.9875
3218.09193	17756.2875
3220.38884	17727.3875
3222.68438	17765.2875
3224.97853	17714.9875
3227.2713	17724.0875
3229.56269	17690.2875
3231.8527	17705.5875
3234.14133	17645.8875
3236.42858	17612.4875
3238.71446	17583.6875
3240.99896	17558.0875
3243.28209	17537.3875
3245.56384	17519.5875
3247.84423	17498.7875
3250.12324	17452.9875
3252.40088	17411.8875
3254.67715	17404.4875
3256.95205	17371.3875
3259.22558	17345.4875
3261.49775	17299.0875
3263.76855	17285.7875
3266.03799	17226.9875
3268.30606	17170.8875
3270.57277	17159.6875
3272.83812	17123.2875
3275.10211	17102.3875
3277.36474	17081.8875
3279.62601	17097.0875
3281.88593	17045.9875
3284.14448	17059.5875
3286.40168	17045.8875
3288.65753	17045.8875
3290.91202	17039.1875
3293.16516	17016.5875
3295.41695	16958.3875
3297.66738	16851.2875
3299.91647	16787.6875
3302.16421	16661.6875
3304.4106	16542.9875
3306.65564	16449.0875
3308.89933	16336.2875
3311.14169	16202.9875
3313.38269	16060.4875
3315.62236	15980.8875
3317.86068	15811.7875
3320.09766	15677.9875
3322.3333	15577.6875
3324.5676	15497.0875
3326.80056	15209.6875
3329.03219	15114.4875
3331.26248	4.1875
3333.49143	-0.8125
3335.71905	-1.5125
