Data from AgNPs_FTO_APTES_UA_5uM_CRN_1uM_R6G_10uM_NaF_0.1M_Addition_RamanShift__16__10-35-56-579.txt Node

Date: Mon Feb 07 10:35:56 GMT 2022
User: TCL
Spectrometer: QEP01345
Trigger mode: 4
Integration Time (sec): 7.000000E0
Scans to average: 10
Electric dark correction enabled: true
Nonlinearity correction enabled: false
Boxcar width: 0
XAxis mode: Raman Shifts
Number of Pixels in Spectrum: 1044
>>>>>Begin Spectral Data<<<<<
46.04893	-0.4625
50.45542	-1.5625
54.85868	-1.2625
59.25871	0.3375
63.6555	94.6375
68.04907	97.5375
72.43941	105.1375
76.82654	108.3375
81.21044	110.2375
85.59113	116.8375
89.96862	119.8375
94.34289	121.0375
98.71396	127.8375
103.08183	129.9375
107.4465	133.2375
111.80798	141.0375
116.16626	139.1375
120.52136	150.9375
124.87327	160.3375
129.222	167.6375
133.56755	185.2375
137.90993	196.4375
142.24913	217.1375
146.58517	246.7375
150.91804	295.2375
155.24774	350.0375
159.57429	440.3375
163.89768	574.4375
168.21792	774.7375
172.53501	1046.2375
176.84895	1468.4375
181.15975	2069.9375
185.46741	2903.1375
189.77193	4012.6375
194.07331	5358.2375
198.37157	6917.0375
202.6667	8512.5375
206.9587	10119.8375
211.24758	11722.5375
215.53334	13323.3375
219.81599	15069.8375
224.09553	17018.7375
228.37195	19101.1375
232.64527	21429.8375
236.91549	23837.5375
241.18261	26216.3375
245.44663	28422.7375
249.70755	30331.9375
253.96539	32002.0375
258.22014	33467.6375
262.4718	34656.8375
266.72039	35535.6375
270.96589	36057.8375
275.20832	36206.4375
279.44768	36040.7375
283.68397	35781.7375
287.91719	35571.0375
292.14735	35543.7375
296.37445	35557.8375
300.59849	35698.8375
304.81948	35872.2375
309.03742	35848.4375
313.25231	35463.0375
317.46415	34551.4375
321.67296	33242.9375
325.87872	32184.4375
330.08145	31543.1375
334.28114	31425.6375
338.47781	31636.7375
342.67145	31937.7375
346.86207	32497.4375
351.04966	33247.0375
355.23424	34058.3375
359.4158	34759.7375
363.59435	35314.6375
367.76989	35620.1375
371.94243	35859.4375
376.11196	35942.0375
380.27849	35943.9375
384.44203	36122.4375
388.60257	36361.6375
392.76012	36702.1375
396.91468	37234.8375
401.06626	37871.7375
405.21485	38327.7375
409.36047	38161.7375
413.50311	37529.8375
417.64277	37104.6375
421.77947	37131.5375
425.9132	37260.5375
430.04396	37371.4375
434.17176	37474.8375
438.2966	37447.9375
442.41849	37813.3375
446.53742	38625.9375
450.6534	39664.6375
454.76644	40534.8375
458.87653	40871.8375
462.98368	40764.1375
467.08789	40380.9375
471.18916	39818.4375
475.2875	39394.4375
479.38291	39350.9375
483.4754	39404.8375
487.56496	39236.5375
491.6516	38772.7375
495.73531	38206.3375
499.81612	37931.3375
503.89401	37964.2375
507.96899	38070.5375
512.04106	37882.7375
516.11023	37360.5375
520.1765	36716.7375
524.23987	36088.0375
528.30034	35520.5375
532.35792	34976.7375
536.41261	34507.6375
540.46441	34088.4375
544.51333	34067.5375
548.55936	34678.4375
552.60252	35676.3375
556.64279	36748.6375
560.6802	37503.2375
564.71473	38035.7375
568.7464	38982.7375
572.7752	40427.1375
576.80114	41699.2375
580.82422	42948.4375
584.84444	44130.3375
588.86181	44936.3375
592.87633	45120.9375
596.888	44379.4375
600.89682	43311.4375
604.9028	44251.0375
608.90594	48434.5375
612.90624	52932.3375
616.90371	49545.7375
620.89834	40562.8375
624.89015	36338.2375
628.87913	35822.4375
632.86528	36059.2375
636.84862	36004.2375
640.82913	35316.6375
644.80683	34256.3375
648.78172	33387.7375
652.75379	33230.3375
656.72306	33710.6375
660.68952	34361.1375
664.65319	34208.4375
668.61405	33521.1375
672.57211	33323.4375
676.52738	33463.7375
680.47986	33371.3375
684.42955	33058.9375
688.37646	32824.1375
692.32058	33094.4375
696.26192	33710.4375
700.20048	34306.1375
704.13626	34657.1375
708.06928	34705.4375
711.99952	34435.3375
715.927	34392.1375
719.85171	34548.0375
723.77365	34440.5375
727.69284	33815.9375
731.60928	33177.4375
735.52295	32933.9375
739.43388	32943.4375
743.34206	33089.1375
747.24749	33297.8375
751.15017	33683.3375
755.05012	34417.4375
758.94733	35645.9375
762.8418	37800.2375
766.73354	41038.1375
770.62254	44152.5375
774.50882	44669.0375
778.39237	42338.8375
782.27321	39006.9375
786.15132	36103.5375
790.02671	34340.5375
793.89938	33498.1375
797.76935	33199.7375
801.6366	33136.1375
805.50115	33024.7375
809.36299	32849.4375
813.22213	32527.6375
817.07857	32299.0375
820.93231	32145.8375
824.78336	31940.9375
828.63172	31741.5375
832.47738	31651.1375
836.32036	31654.3375
840.16066	31756.4375
843.99827	31882.8375
847.8332	31850.2375
851.66546	31725.7375
855.49504	31640.3375
859.32195	31695.5375
863.1462	31586.9375
866.96777	31496.4375
870.78668	31388.3375
874.60293	31339.4375
878.41652	31326.6375
882.22745	31434.5375
886.03573	31539.5375
889.84136	31589.2375
893.64433	31488.3375
897.44466	31400.3375
901.24235	31251.8375
905.0374	31122.2375
908.8298	31026.1375
912.61957	31019.5375
916.40671	31363.2375
920.19121	31907.7375
923.97308	32467.7375
927.75233	32681.8375
931.52895	32484.0375
935.30295	31887.1375
939.07433	31079.7375
942.84309	30434.8375
946.60924	30169.5375
950.37278	30098.7375
954.13371	30056.9375
957.89203	29950.7375
961.64774	29974.3375
965.40086	29917.2375
969.15137	29903.1375
972.89929	29793.2375
976.64461	29683.2375
980.38733	29629.0375
984.12747	29726.5375
987.86502	29959.9375
991.59999	30358.9375
995.33237	30855.3375
999.06217	31741.6375
1002.78939	32673.5375
1006.51404	33461.9375
1010.23611	33954.9375
1013.95561	34312.9375
1017.67255	34326.9375
1021.38692	33892.3375
1025.09872	33394.0375
1028.80796	33464.4375
1032.51465	34264.7375
1036.21877	35215.4375
1039.92035	35404.5375
1043.61937	35011.8375
1047.31584	34211.4375
1051.00976	33460.1375
1054.70114	33108.7375
1058.38998	33165.9375
1062.07627	33421.6375
1065.76003	33871.8375
1069.44126	34326.0375
1073.11995	34963.6375
1076.79611	35639.2375
1080.46974	36014.7375
1084.14085	36445.1375
1087.80943	36881.6375
1091.47549	37441.7375
1095.13903	37567.7375
1098.80005	37041.0375
1102.45857	35939.8375
1106.11456	34913.5375
1109.76805	34361.4375
1113.41903	34155.5375
1117.06751	34284.6375
1120.71348	34626.6375
1124.35696	34985.7375
1127.99793	35496.9375
1131.63641	35879.3375
1135.2724	35810.0375
1138.90589	35628.1375
1142.5369	35544.3375
1146.16542	35675.3375
1149.79145	35862.1375
1153.415	36289.4375
1157.03607	36959.9375
1160.65467	38281.5375
1164.27079	40384.4375
1167.88443	43121.7375
1171.49561	46057.5375
1175.10432	49759.2375
1178.71056	54487.1375
1182.31434	58875.6375
1185.91565	61408.3375
1189.51451	61491.3375
1193.11091	59608.5375
1196.70485	56746.0375
1200.29634	53986.1375
1203.88538	52029.1375
1207.47197	50858.1375
1211.05612	50028.5375
1214.63782	49005.5375
1218.21708	47635.3375
1221.79391	46424.7375
1225.36829	45434.7375
1228.94024	44580.4375
1232.50976	43674.5375
1236.07685	42933.9375
1239.6415	42557.7375
1243.20374	42474.7375
1246.76355	42755.0375
1250.32093	43531.8375
1253.8759	44716.2375
1257.42845	46248.9375
1260.97859	47921.2375
1264.52631	49614.1375
1268.07163	51335.1375
1271.61453	53278.8375
1275.15503	55190.8375
1278.69312	57273.7375
1282.22882	59072.1375
1285.76211	61018.5375
1289.29301	63183.8375
1292.82151	66094.8375
1296.34761	69789.8375
1299.87133	74456.7375
1303.39266	79661.5375
1306.9116	84899.2375
1310.42815	88965.9375
1313.94233	90902.9375
1317.45412	90270.4375
1320.96354	88564.2375
1324.47058	87215.6375
1327.97525	86552.1375
1331.47754	86262.9375
1334.97747	85794.3375
1338.47502	84977.8375
1341.97022	83600.1375
1345.46305	81734.5375
1348.95352	79762.3375
1352.44163	78426.7375
1355.92738	78932.8375
1359.41078	81646.1375
1362.89183	84616.9375
1366.37053	83715.1375
1369.84688	77413.7375
1373.32088	69177.1375
1376.79254	62993.5375
1380.26186	60377.4375
1383.72883	60123.3375
1387.19347	60103.1375
1390.65578	59604.6375
1394.11575	59304.6375
1397.57339	59972.0375
1401.0287	61354.5375
1404.48168	62691.7375
1407.93234	63013.5375
1411.38068	61743.3375
1414.82669	59190.2375
1418.27039	56102.0375
1421.71177	53112.5375
1425.15083	50735.2375
1428.58758	49669.7375
1432.02203	49962.0375
1435.45416	51486.3375
1438.88399	53376.2375
1442.31151	54917.2375
1445.73673	56009.8375
1449.15965	56858.6375
1452.58027	57384.8375
1455.9986	57453.3375
1459.41463	57831.2375
1462.82837	58688.0375
1466.23982	59868.1375
1469.64898	61004.1375
1473.05586	61517.3375
1476.46045	61426.3375
1479.86276	60940.2375
1483.26279	60206.6375
1486.66054	59820.1375
1490.05602	59917.8375
1493.44922	60454.1375
1496.84016	61176.1375
1500.22882	62620.1375
1503.61521	64620.6375
1506.99934	67288.7375
1510.38121	69594.5375
1513.76081	70323.2375
1517.13816	68997.1375
1520.51324	66470.6375
1523.88607	64082.6375
1527.25665	62740.1375
1530.62498	62266.0375
1533.99105	61818.8375
1537.35488	61172.3375
1540.71647	59913.5375
1544.07581	58282.5375
1547.4329	56523.3375
1550.78776	54914.2375
1554.14038	53802.7375
1557.49077	53274.7375
1560.83892	53019.2375
1564.18484	53012.0375
1567.52853	53235.5375
1570.86999	53617.5375
1574.20922	54521.4375
1577.54624	55460.2375
1580.88103	55782.0375
1584.2136	56434.5375
1587.54395	58477.9375
1590.87208	62117.8375
1594.19801	66549.6375
1597.52172	70570.1375
1600.84321	71389.1375
1604.16251	67384.0375
1607.47959	61059.8375
1610.79447	54694.8375
1614.10715	49078.4375
1617.41763	44571.4375
1620.7259	41554.1375
1624.03199	40092.3375
1627.33587	40047.8375
1630.63757	41502.6375
1633.93707	44684.8375
1637.23439	49870.8375
1640.52951	57370.8375
1643.82246	66160.8375
1647.11321	73249.4375
1650.40179	74731.1375
1653.68819	69128.4375
1656.97241	59167.7375
1660.25446	49212.5375
1663.53433	41733.6375
1666.81203	36876.3375
1670.08756	33874.3375
1673.36092	31974.9375
1676.63211	30794.0375
1679.90115	30011.3375
1683.16801	29369.5375
1686.43272	28900.3375
1689.69527	28555.5375
1692.95567	28288.6375
1696.2139	28146.0375
1699.46999	28022.0375
1702.72392	27822.7375
1705.97571	27748.5375
1709.22535	27643.9375
1712.47284	27588.0375
1715.71819	27538.4375
1718.96139	27443.8375
1722.20246	27306.7375
1725.44139	27181.5375
1728.67818	26998.5375
1731.91284	26809.7375
1735.14537	26611.8375
1738.37576	26470.6375
1741.60403	26290.3375
1744.83017	26270.2375
1748.05418	26128.6375
1751.27607	26080.9375
1754.49584	26003.7375
1757.71349	25966.6375
1760.92903	25902.0375
1764.14244	25917.9375
1767.35375	25889.4375
1770.56294	25795.3375
1773.77002	25770.6375
1776.97499	25745.3375
1780.17785	25644.5375
1783.37861	25619.3375
1786.57727	25550.0375
1789.77382	25494.6375
1792.96828	25478.5375
1796.16064	25436.3375
1799.3509	25384.0375
1802.53907	25284.8375
1805.72514	25209.0375
1808.90913	25140.6375
1812.09102	25092.8375
1815.27083	25050.4375
1818.44856	25012.6375
1821.6242	24940.2375
1824.79776	24941.2375
1827.96924	24889.0375
1831.13864	24943.3375
1834.30597	24956.2375
1837.47122	24948.1375
1840.6344	24947.1375
1843.7955	24970.7375
1846.95454	25017.3375
1850.11151	24985.1375
1853.26642	24953.5375
1856.41926	24947.9375
1859.57004	24973.3375
1862.71876	24944.9375
1865.86542	24877.1375
1869.01003	24829.3375
1872.15258	24798.2375
1875.29308	24821.6375
1878.43152	24775.7375
1881.56792	24782.3375
1884.70227	24742.3375
1887.83457	24753.4375
1890.96482	24676.6375
1894.09304	24663.3375
1897.21921	24657.7375
1900.34335	24577.7375
1903.46544	24517.7375
1906.58551	24465.3375
1909.70353	24435.3375
1912.81953	24355.2375
1915.93349	24351.3375
1919.04543	24337.6375
1922.15534	24244.4375
1925.26322	24166.1375
1928.36908	24082.5375
1931.47292	23983.1375
1934.57473	23888.6375
1937.67453	23808.8375
1940.77232	23793.1375
1943.86808	23695.4375
1946.96184	23602.3375
1950.05358	23495.1375
1953.14331	23467.2375
1956.23103	23391.8375
1959.31675	23268.1375
1962.40046	23253.4375
1965.48217	23212.3375
1968.56188	23127.7375
1971.63959	23058.5375
1974.7153	22984.7375
1977.78901	22887.9375
1980.86073	22797.7375
1983.93046	22742.3375
1986.99819	22642.6375
1990.06394	22596.6375
1993.1277	22548.2375
1996.18947	22480.4375
1999.24925	22428.7375
2002.30706	22302.9375
2005.36288	22246.7375
2008.41672	22194.4375
2011.46859	22126.3375
2014.51848	22087.6375
2017.56639	22050.5375
2020.61233	21963.2375
2023.6563	21890.8375
2026.6983	21861.3375
2029.73833	21820.5375
2032.7764	21808.1375
2035.8125	21754.9375
2038.84664	21692.4375
2041.87881	21669.2375
2044.90903	21626.5375
2047.93729	21531.8375
2050.96359	21572.3375
2053.98794	21551.9375
2057.01034	21530.7375
2060.03078	21519.7375
2063.04927	21526.1375
2066.06582	21523.2375
2069.08042	21453.6375
2072.09307	21431.8375
2075.10378	21404.1375
2078.11255	21385.1375
2081.11938	21413.9375
2084.12426	21332.8375
2087.12722	21366.1375
2090.12824	21365.1375
2093.12732	21353.5375
2096.12447	21328.4375
2099.11969	21345.4375
2102.11299	21362.5375
2105.10435	21352.5375
2108.09379	21319.0375
2111.08131	21353.6375
2114.0669	21341.3375
2117.05057	21336.2375
2120.03233	21372.4375
2123.01216	21387.3375
2125.99008	21400.5375
2128.96609	21434.8375
2131.94018	21448.5375
2134.91236	21454.9375
2137.88263	21489.8375
2140.851	21463.8375
2143.81746	21477.8375
2146.78201	21470.2375
2149.74466	21487.7375
2152.7054	21463.7375
2155.66425	21440.9375
2158.6212	21452.8375
2161.57625	21420.2375
2164.52941	21392.3375
2167.48067	21387.9375
2170.43004	21418.6375
2173.37752	21377.9375
2176.32311	21358.1375
2179.26681	21368.0375
2182.20863	21353.5375
2185.14856	21372.5375
2188.08661	21359.9375
2191.02278	21397.1375
2193.95707	21369.3375
2196.88948	21335.9375
2199.82001	21312.6375
2202.74867	21302.0375
2205.67545	21267.0375
2208.60037	21274.3375
2211.52341	21213.0375
2214.44458	21260.2375
2217.36388	21204.9375
2220.28132	21158.0375
2223.1969	21118.5375
2226.11061	21106.6375
2229.02246	21029.4375
2231.93245	21006.4375
2234.84058	20956.2375
2237.74686	20915.8375
2240.65128	20932.1375
2243.55385	20896.3375
2246.45456	20872.0375
2249.35343	20814.0375
2252.25044	20726.9375
2255.14561	20686.1375
2258.03893	20650.1375
2260.93041	20610.2375
2263.82004	20605.9375
2266.70783	20538.2375
2269.59378	20469.2375
2272.4779	20417.9375
2275.36017	20363.8375
2278.24061	20362.7375
2281.11922	20316.3375
2283.996	20254.7375
2286.87094	20226.4375
2289.74405	20207.0375
2292.61534	20213.9375
2295.4848	20205.4375
2298.35243	20184.8375
2301.21824	20199.8375
2304.08223	20199.7375
2306.94439	20218.2375
2309.80474	20241.4375
2312.66327	20249.7375
2315.51999	20254.0375
2318.37489	20177.9375
2321.22797	20173.4375
2324.07925	20192.7375
2326.92871	20151.4375
2329.77637	20136.9375
2332.62222	20150.0375
2335.46626	20083.9375
2338.3085	20097.6375
2341.14893	20111.9375
2343.98756	20136.4375
2346.8244	20148.1375
2349.65943	20146.5375
2352.49267	20132.4375
2355.32411	20148.5375
2358.15376	20131.8375
2360.98161	20091.0375
2363.80768	20048.4375
2366.63195	20079.0375
2369.45444	20085.3375
2372.27514	20005.0375
2375.09405	20007.5375
2377.91118	19933.3375
2380.72652	19845.9375
2383.54009	19795.4375
2386.35187	19767.2375
2389.16188	19723.7375
2391.97011	19714.4375
2394.77657	19669.1375
2397.58125	19684.8375
2400.38416	19624.5375
2403.18529	19581.4375
2405.98466	19547.6375
2408.78226	19497.5375
2411.57809	19502.8375
2414.37216	19459.2375
2417.16446	19485.6375
2419.955	19428.4375
2422.74378	19423.6375
2425.5308	19376.8375
2428.31606	19386.9375
2431.09956	19390.5375
2433.88131	19396.5375
2436.6613	19404.0375
2439.43954	19404.5375
2442.21603	19394.6375
2444.99077	19390.2375
2447.76377	19400.0375
2450.53501	19378.0375
2453.30451	19346.5375
2456.07226	19310.7375
2458.83827	19318.5375
2461.60254	19335.0375
2464.36507	19303.3375
2467.12586	19325.9375
2469.88492	19300.6375
2472.64224	19346.3375
2475.39782	19386.1375
2478.15167	19398.1375
2480.90379	19418.3375
2483.65417	19392.9375
2486.40283	19439.7375
2489.14976	19408.5375
2491.89497	19465.9375
2494.63845	19477.8375
2497.3802	19441.0375
2500.12024	19460.2375
2502.85855	19419.2375
2505.59514	19373.0375
2508.33002	19353.7375
2511.06318	19321.4375
2513.79462	19315.2375
2516.52435	19315.0375
2519.25237	19309.8375
2521.97867	19301.7375
2524.70327	19289.4375
2527.42616	19208.4375
2530.14734	19252.5375
2532.86681	19242.4375
2535.58458	19266.1375
2538.30065	19230.1375
2541.01501	19219.6375
2543.72768	19231.6375
2546.43864	19185.8375
2549.14791	19143.5375
2551.85548	19209.3375
2554.56136	19123.2375
2557.26554	19105.7375
2559.96803	19110.6375
2562.66883	19113.1375
2565.36794	19070.3375
2568.06536	19039.9375
2570.7611	19073.5375
2573.45514	19048.2375
2576.14751	19065.1375
2578.83819	18977.9375
2581.52719	18988.8375
2584.21451	19010.6375
2586.90015	19010.2375
2589.58411	18994.5375
2592.2664	18999.9375
2594.94701	18919.2375
2597.62594	18950.9375
2600.30321	18928.1375
2602.9788	18931.3375
2605.65273	18925.8375
2608.32498	18967.7375
2610.99557	18974.0375
2613.66449	18970.4375
2616.33175	18977.2375
2618.99734	18993.2375
2621.66128	18934.5375
2624.32355	18957.0375
2626.98416	18901.5375
2629.64311	18933.0375
2632.30041	18922.0375
2634.95605	18952.9375
2637.61004	18927.0375
2640.26238	18887.8375
2642.91306	18858.1375
2645.56209	18831.7375
2648.20948	18835.6375
2650.85521	18847.6375
2653.4993	18865.2375
2656.14175	18855.7375
2658.78255	18853.4375
2661.42171	18885.9375
2664.05923	18949.0375
2666.6951	18932.4375
2669.32934	18928.4375
2671.96194	18952.5375
2674.59291	18951.5375
2677.22224	18955.4375
2679.84993	18972.5375
2682.476	18937.3375
2685.10043	18930.7375
2687.72324	18861.7375
2690.34441	18846.0375
2692.96396	18842.2375
2695.58188	18834.5375
2698.19818	18824.9375
2700.81285	18818.8375
2703.4259	18839.3375
2706.03733	18895.5375
2708.64714	18865.8375
2711.25533	18863.1375
2713.86191	18890.7375
2716.46687	18915.6375
2719.07021	18896.7375
2721.67194	18919.4375
2724.27206	18937.6375
2726.87057	18967.0375
2729.46747	18977.1375
2732.06276	18958.0375
2734.65644	18961.4375
2737.24852	18973.9375
2739.83899	18946.8375
2742.42786	18935.0375
2745.01513	18928.9375
2747.60079	18902.3375
2750.18486	18867.6375
2752.76733	18848.5375
2755.3482	18848.7375
2757.92747	18863.6375
2760.50515	18828.0375
2763.08123	18833.7375
2765.65573	18838.3375
2768.22863	18832.6375
2770.79994	18820.6375
2773.36967	18860.3375
2775.9378	18843.2375
2778.50435	18891.0375
2781.06932	18869.5375
2783.6327	18904.9375
2786.1945	18901.9375
2788.75471	18884.6375
2791.31335	18846.2375
2793.87041	18796.3375
2796.42589	18744.1375
2798.97979	18739.3375
2801.53212	18695.7375
2804.08288	18689.1375
2806.63206	18603.4375
2809.17967	18624.8375
2811.72571	18582.2375
2814.27018	18536.8375
2816.81308	18514.0375
2819.35442	18460.8375
2821.89419	18468.6375
2824.43239	18474.3375
2826.96904	18477.1375
2829.50412	18480.1375
2832.03763	18430.1375
2834.56959	18432.8375
2837.1	18377.9375
2839.62884	18371.8375
2842.15613	18379.7375
2844.68186	18430.3375
2847.20604	18433.1375
2849.72867	18431.0375
2852.24974	18449.9375
2854.76927	18431.4375
2857.28724	18382.1375
2859.80367	18396.0375
2862.31855	18396.9375
2864.83189	18353.7375
2867.34368	18335.1375
2869.85393	18302.1375
2872.36264	18289.1375
2874.8698	18290.9375
2877.37543	18253.3375
2879.87952	18293.8375
2882.38207	18279.2375
2884.88308	18254.7375
2887.38256	18278.2375
2889.88051	18255.1375
2892.37692	18300.2375
2894.8718	18299.8375
2897.36515	18296.5375
2899.85698	18362.2375
2902.34727	18387.1375
2904.83604	18412.4375
2907.32328	18438.0375
2909.809	18424.7375
2912.29319	18437.8375
2914.77587	18438.2375
2917.25702	18440.8375
2919.73665	18382.4375
2922.21476	18401.8375
2924.69136	18389.2375
2927.16644	18397.3375
2929.64	18349.3375
2932.11205	18313.6375
2934.58258	18256.5375
2937.05161	18285.9375
2939.51912	18262.9375
2941.98513	18227.5375
2944.44962	18223.7375
2946.91261	18135.0375
2949.37409	18128.9375
2951.83407	18091.0375
2954.29254	18082.1375
2956.74951	18064.4375
2959.20498	18035.7375
2961.65895	18031.7375
2964.11142	18026.4375
2966.56239	17990.9375
2969.01186	17991.8375
2971.45984	17951.5375
2973.90632	17953.5375
2976.35131	17896.0375
2978.7948	17855.8375
2981.23681	17803.7375
2983.67732	17787.3375
2986.11635	17763.6375
2988.55388	17739.8375
2990.98993	17664.7375
2993.4245	17598.9375
2995.85758	17551.9375
2998.28917	17488.0375
3000.71928	17473.2375
3003.14791	17383.7375
3005.57506	17403.2375
3008.00073	17355.5375
3010.42493	17357.2375
3012.84764	17283.2375
3015.26888	17288.8375
3017.68865	17232.6375
3020.10694	17206.9375
3022.52376	17135.8375
3024.9391	17144.0375
3027.35298	17156.1375
3029.76539	17153.3375
3032.17632	17108.5375
3034.5858	17091.9375
3036.9938	17074.7375
3039.40034	17062.2375
3041.80542	17070.0375
3044.20903	17030.5375
3046.61118	17017.8375
3049.01187	17004.0375
3051.4111	17001.4375
3053.80888	16960.5375
3056.20519	16912.9375
3058.60005	16861.3375
3060.99345	16816.2375
3063.3854	16767.0375
3065.7759	16722.8375
3068.16494	16683.9375
3070.55254	16616.4375
3072.93868	16605.5375
3075.32338	16496.7375
3077.70662	16484.4375
3080.08842	16411.1375
3082.46878	16387.0375
3084.84769	16404.4375
3087.22515	16376.5375
3089.60118	16372.6375
3091.97576	16393.9375
3094.3489	16375.6375
3096.72061	16404.1375
3099.09087	16343.6375
3101.4597	16350.0375
3103.82709	16362.0375
3106.19305	16308.3375
3108.55757	16307.5375
3110.92066	16267.3375
3113.28232	16258.3375
3115.64255	16198.2375
3118.00134	16126.7375
3120.35871	16156.9375
3122.71466	16089.6375
3125.06917	16026.0375
3127.42226	15996.2375
3129.77393	15990.9375
3132.12417	15935.4375
3134.47299	15941.5375
3136.82039	15933.2375
3139.16636	15940.5375
3141.51092	15929.5375
3143.85406	15912.7375
3146.19579	15922.5375
3148.53609	15906.4375
3150.87499	15905.4375
3153.21246	15879.8375
3155.54853	15878.9375
3157.88318	15858.1375
3160.21642	15929.4375
3162.54826	15898.6375
3164.87868	15894.3375
3167.2077	15890.4375
3169.5353	15875.8375
3171.86151	15915.4375
3174.18631	15861.6375
3176.5097	15869.3375
3178.83169	15874.4375
3181.15228	15829.9375
3183.47147	15792.6375
3185.78926	15785.5375
3188.10565	15745.0375
3190.42065	15716.4375
3192.73424	15727.7375
3195.04645	15698.5375
3197.35725	15744.2375
3199.66667	15676.0375
3201.97469	15700.1375
3204.28132	15648.2375
3206.58656	15695.6375
3208.8904	15677.4375
3211.19287	15679.2375
3213.49394	15695.4375
3215.79363	15681.0375
3218.09193	15702.8375
3220.38884	15680.5375
3222.68438	15657.2375
3224.97853	15668.1375
3227.2713	15645.5375
3229.56269	15637.8375
3231.8527	15660.1375
3234.14133	15617.8375
3236.42858	15596.6375
3238.71446	15590.5375
3240.99896	15543.4375
3243.28209	15544.6375
3245.56384	15525.7375
3247.84423	15518.4375
3250.12324	15471.3375
3252.40088	15440.1375
3254.67715	15441.8375
3256.95205	15430.1375
3259.22558	15411.4375
3261.49775	15407.3375
3263.76855	15371.1375
3266.03799	15331.7375
3268.30606	15284.5375
3270.57277	15277.0375
3272.83812	15268.1375
3275.10211	15215.7375
3277.36474	15197.2375
3279.62601	15184.0375
3281.88593	15170.1375
3284.14448	15158.3375
3286.40168	15180.9375
3288.65753	15171.2375
3290.91202	15164.6375
3293.16516	15117.0375
3295.41695	15101.4375
3297.66738	15008.1375
3299.91647	14936.7375
3302.16421	14810.5375
3304.4106	14771.2375
3306.65564	14657.8375
3308.89933	14543.0375
3311.14169	14446.4375
3313.38269	14316.4375
3315.62236	14252.8375
3317.86068	14105.4375
3320.09766	13999.1375
3322.3333	13911.3375
3324.5676	13833.3375
3326.80056	13602.6375
3329.03219	13541.8375
3331.26248	4.5375
3333.49143	-1.3625
3335.71905	-0.6625
