Data from AgNPs_FTO_APTES_UA_5uM_CRN_20uM_R6G_10uM_NaF_0.1M_Addition_RamanShift__15__13-20-26-776.txt Node

Date: Mon Feb 07 13:20:26 GMT 2022
User: TCL
Spectrometer: QEP01345
Trigger mode: 4
Integration Time (sec): 7.000000E0
Scans to average: 10
Electric dark correction enabled: true
Nonlinearity correction enabled: false
Boxcar width: 0
XAxis mode: Raman Shifts
Number of Pixels in Spectrum: 1044
>>>>>Begin Spectral Data<<<<<
46.04893	-0.9125
50.45542	-0.8125
54.85868	-1.7125
59.25871	1.2875
63.6555	84.0875
68.04907	87.5875
72.43941	95.3875
76.82654	97.4875
81.21044	97.1875
85.59113	106.4875
89.96862	105.8875
94.34289	104.0875
98.71396	113.6875
103.08183	115.2875
107.4465	120.9875
111.80798	124.3875
116.16626	127.6875
120.52136	135.7875
124.87327	144.5875
129.222	153.6875
133.56755	169.3875
137.90993	177.2875
142.24913	198.2875
146.58517	231.2875
150.91804	267.9875
155.24774	320.9875
159.57429	413.4875
163.89768	534.9875
168.21792	715.2875
172.53501	985.9875
176.84895	1370.2875
181.15975	1950.8875
185.46741	2733.8875
189.77193	3795.0875
194.07331	5072.8875
198.37157	6510.2875
202.6667	8074.4875
206.9587	9588.7875
211.24758	11118.2875
215.53334	12587.7875
219.81599	14177.3875
224.09553	15916.3875
228.37195	17798.1875
232.64527	19881.8875
236.91549	22032.7875
241.18261	24258.9875
245.44663	26340.0875
249.70755	28227.5875
253.96539	29880.9875
258.22014	31259.0875
262.4718	32439.2875
266.72039	33264.7875
270.96589	33821.0875
275.20832	33987.6875
279.44768	33985.4875
283.68397	33856.3875
287.91719	33725.8875
292.14735	33700.6875
296.37445	33763.0875
300.59849	33950.7875
304.81948	33985.9875
309.03742	33833.0875
313.25231	33326.8875
317.46415	32420.2875
321.67296	31476.1875
325.87872	30671.5875
330.08145	30219.0875
334.28114	30096.6875
338.47781	30264.3875
342.67145	30598.3875
346.86207	30964.8875
351.04966	31449.3875
355.23424	31935.3875
359.4158	32367.7875
363.59435	32721.0875
367.76989	32925.7875
371.94243	33077.8875
376.11196	33172.5875
380.27849	33278.8875
384.44203	33425.3875
388.60257	33672.3875
392.76012	34069.5875
396.91468	34555.2875
401.06626	35096.4875
405.21485	35420.6875
409.36047	35294.2875
413.50311	34762.6875
417.64277	34411.5875
421.77947	34361.2875
425.9132	34468.9875
430.04396	34625.6875
434.17176	34759.5875
438.2966	34944.5875
442.41849	35382.0875
446.53742	36205.2875
450.6534	37083.2875
454.76644	37779.2875
458.87653	38136.8875
462.98368	38165.7875
467.08789	38022.1875
471.18916	37804.4875
475.2875	37637.5875
479.38291	37728.0875
483.4754	37658.1875
487.56496	37304.9875
491.6516	36506.8875
495.73531	35798.4875
499.81612	35290.3875
503.89401	35255.1875
507.96899	35352.7875
512.04106	35342.0875
516.11023	35107.0875
520.1765	34699.8875
524.23987	34204.4875
528.30034	33751.8875
532.35792	33436.9875
536.41261	33063.3875
540.46441	32813.5875
544.51333	32938.6875
548.55936	33499.9875
552.60252	34341.4875
556.64279	35244.8875
560.6802	35959.1875
564.71473	36468.7875
568.7464	37308.8875
572.7752	38457.7875
576.80114	39618.6875
580.82422	40577.7875
584.84444	41227.8875
588.86181	41648.2875
592.87633	41618.4875
596.888	41065.0875
600.89682	40252.9875
604.9028	40661.3875
608.90594	42849.1875
612.90624	45029.9875
616.90371	42235.8875
620.89834	36307.3875
624.89015	33685.3875
628.87913	33474.2875
632.86528	33761.1875
636.84862	33849.0875
640.82913	33410.7875
644.80683	32630.4875
648.78172	32053.3875
652.75379	31864.7875
656.72306	32078.6875
660.68952	32476.1875
664.65319	32386.6875
668.61405	31954.3875
672.57211	31827.6875
676.52738	31958.5875
680.47986	31936.0875
684.42955	31740.3875
688.37646	31634.6875
692.32058	31728.6875
696.26192	32107.1875
700.20048	32484.5875
704.13626	32793.5875
708.06928	32899.8875
711.99952	32784.1875
715.927	32687.3875
719.85171	32695.2875
723.77365	32509.2875
727.69284	32157.9875
731.60928	31767.7875
735.52295	31506.0875
739.43388	31443.9875
743.34206	31514.7875
747.24749	31679.6875
751.15017	32032.9875
755.05012	32660.1875
758.94733	33585.6875
762.8418	35245.0875
766.73354	37678.4875
770.62254	39872.7875
774.50882	39987.1875
778.39237	38119.6875
782.27321	35583.0875
786.15132	33638.2875
790.02671	32293.3875
793.89938	31634.2875
797.76935	31288.6875
801.6366	31153.7875
805.50115	31152.1875
809.36299	30988.4875
813.22213	30843.4875
817.07857	30777.8875
820.93231	30738.6875
824.78336	30593.1875
828.63172	30312.4875
832.47738	30230.3875
836.32036	30156.3875
840.16066	30224.4875
843.99827	30238.2875
847.8332	30197.7875
851.66546	30167.6875
855.49504	30144.2875
859.32195	30113.4875
863.1462	30050.8875
866.96777	29939.2875
870.78668	29886.1875
874.60293	29851.3875
878.41652	29809.1875
882.22745	29880.4875
886.03573	29954.0875
889.84136	29982.7875
893.64433	29953.2875
897.44466	29844.9875
901.24235	29731.3875
905.0374	29645.7875
908.8298	29616.9875
912.61957	29741.2875
916.40671	30059.7875
920.19121	30562.4875
923.97308	30834.8875
927.75233	30650.6875
931.52895	30263.6875
935.30295	29820.9875
939.07433	29295.6875
942.84309	28944.6875
946.60924	28660.3875
950.37278	28557.9875
954.13371	28516.6875
957.89203	28488.1875
961.64774	28512.8875
965.40086	28516.4875
969.15137	28484.9875
972.89929	28306.4875
976.64461	28167.2875
980.38733	28117.3875
984.12747	28128.8875
987.86502	28235.1875
991.59999	28435.5875
995.33237	28725.8875
999.06217	29106.1875
1002.78939	29636.5875
1006.51404	30060.4875
1010.23611	30398.3875
1013.95561	30674.8875
1017.67255	30767.0875
1021.38692	30527.5875
1025.09872	30173.6875
1028.80796	29966.1875
1032.51465	30092.1875
1036.21877	30413.6875
1039.92035	30570.6875
1043.61937	30582.1875
1047.31584	30411.6875
1051.00976	30301.5875
1054.70114	30382.1875
1058.38998	30613.1875
1062.07627	31043.8875
1065.76003	31492.8875
1069.44126	31934.1875
1073.11995	32275.4875
1076.79611	32633.1875
1080.46974	32782.2875
1084.14085	32892.0875
1087.80943	33219.2875
1091.47549	33570.6875
1095.13903	33761.6875
1098.80005	33604.2875
1102.45857	32879.0875
1106.11456	32095.3875
1109.76805	31651.9875
1113.41903	31501.5875
1117.06751	31662.4875
1120.71348	31948.7875
1124.35696	32198.9875
1127.99793	32549.3875
1131.63641	32807.3875
1135.2724	32799.7875
1138.90589	32731.3875
1142.5369	32766.1875
1146.16542	33002.3875
1149.79145	33348.5875
1153.415	33860.0875
1157.03607	34494.2875
1160.65467	35531.8875
1164.27079	37113.6875
1167.88443	39047.3875
1171.49561	41301.6875
1175.10432	43921.9875
1178.71056	47124.8875
1182.31434	50219.3875
1185.91565	52047.1875
1189.51451	52382.3875
1193.11091	51719.8875
1196.70485	50139.1875
1200.29634	48174.2875
1203.88538	46721.6875
1207.47197	45905.0875
1211.05612	45440.3875
1214.63782	44618.7875
1218.21708	43370.0875
1221.79391	41939.9875
1225.36829	40783.7875
1228.94024	39892.8875
1232.50976	39205.1875
1236.07685	38752.3875
1239.6415	38573.6875
1243.20374	38607.1875
1246.76355	38916.9875
1250.32093	39440.9875
1253.8759	40203.4875
1257.42845	41272.9875
1260.97859	42440.3875
1264.52631	43531.9875
1268.07163	44736.5875
1271.61453	45919.5875
1275.15503	47197.6875
1278.69312	48668.6875
1282.22882	50114.2875
1285.76211	51793.1875
1289.29301	53827.2875
1292.82151	56414.5875
1296.34761	59551.1875
1299.87133	63103.9875
1303.39266	66558.8875
1306.9116	69449.3875
1310.42815	71520.6875
1313.94233	72631.1875
1317.45412	72471.3875
1320.96354	72200.0875
1324.47058	72124.1875
1327.97525	72174.2875
1331.47754	72304.9875
1334.97747	72246.0875
1338.47502	72107.7875
1341.97022	71947.7875
1345.46305	71278.5875
1348.95352	70127.3875
1352.44163	68599.1875
1355.92738	67626.6875
1359.41078	67881.0875
1362.89183	68354.0875
1366.37053	66901.5875
1369.84688	62641.1875
1373.32088	57344.9875
1376.79254	53608.8875
1380.26186	52273.6875
1383.72883	52558.0875
1387.19347	53109.5875
1390.65578	53151.2875
1394.11575	53227.8875
1397.57339	53697.9875
1401.0287	54345.5875
1404.48168	54799.7875
1407.93234	54448.5875
1411.38068	53063.7875
1414.82669	50844.8875
1418.27039	48248.4875
1421.71177	45768.8875
1425.15083	43911.8875
1428.58758	42940.5875
1432.02203	43096.2875
1435.45416	44165.6875
1438.88399	45594.6875
1442.31151	46863.6875
1445.73673	47832.2875
1449.15965	48711.7875
1452.58027	49435.1875
1455.9986	49864.0875
1459.41463	50337.6875
1462.82837	50949.0875
1466.23982	51538.1875
1469.64898	52069.8875
1473.05586	52229.3875
1476.46045	51929.2875
1479.86276	51381.4875
1483.26279	50797.6875
1486.66054	50444.3875
1490.05602	50569.7875
1493.44922	51002.3875
1496.84016	51764.5875
1500.22882	53031.5875
1503.61521	54713.5875
1506.99934	56571.6875
1510.38121	58056.7875
1513.76081	58505.9875
1517.13816	57768.1875
1520.51324	56438.2875
1523.88607	55404.7875
1527.25665	55068.2875
1530.62498	55010.3875
1533.99105	54790.5875
1537.35488	54249.6875
1540.71647	53083.4875
1544.07581	51399.1875
1547.4329	49743.3875
1550.78776	48362.0875
1554.14038	47581.8875
1557.49077	47069.7875
1560.83892	46896.7875
1564.18484	46899.7875
1567.52853	47019.4875
1570.86999	47476.6875
1574.20922	48409.4875
1577.54624	49479.1875
1580.88103	50004.3875
1584.2136	50589.2875
1587.54395	51776.5875
1590.87208	53751.6875
1594.19801	56142.6875
1597.52172	58215.0875
1600.84321	58379.3875
1604.16251	55687.8875
1607.47959	51669.6875
1610.79447	47591.9875
1614.10715	43763.3875
1617.41763	40417.7875
1620.7259	37928.6875
1624.03199	36533.6875
1627.33587	36388.7875
1630.63757	37253.7875
1633.93707	39568.2875
1637.23439	43460.1875
1640.52951	49032.7875
1643.82246	55399.6875
1647.11321	60599.3875
1650.40179	61976.0875
1653.68819	58472.9875
1656.97241	51612.8875
1660.25446	44260.4875
1663.53433	38314.3875
1666.81203	34127.2875
1670.08756	31391.4875
1673.36092	29694.8875
1676.63211	28520.7875
1679.90115	27771.1875
1683.16801	27194.3875
1686.43272	26779.2875
1689.69527	26426.6875
1692.95567	26173.2875
1696.2139	26012.6875
1699.46999	25844.4875
1702.72392	25686.0875
1705.97571	25616.0875
1709.22535	25499.9875
1712.47284	25418.4875
1715.71819	25376.3875
1718.96139	25279.5875
1722.20246	25206.9875
1725.44139	25088.6875
1728.67818	24913.8875
1731.91284	24749.0875
1735.14537	24579.5875
1738.37576	24437.2875
1741.60403	24353.0875
1744.83017	24237.9875
1748.05418	24178.1875
1751.27607	24161.6875
1754.49584	24094.9875
1757.71349	24069.4875
1760.92903	24037.8875
1764.14244	24019.9875
1767.35375	23975.1875
1770.56294	23855.7875
1773.77002	23822.9875
1776.97499	23749.4875
1780.17785	23670.0875
1783.37861	23626.9875
1786.57727	23593.3875
1789.77382	23505.3875
1792.96828	23532.4875
1796.16064	23468.2875
1799.3509	23373.2875
1802.53907	23291.1875
1805.72514	23194.1875
1808.90913	23167.3875
1812.09102	23086.5875
1815.27083	23039.4875
1818.44856	23028.2875
1821.6242	22953.1875
1824.79776	22959.9875
1827.96924	22893.9875
1831.13864	22917.8875
1834.30597	22890.2875
1837.47122	22869.7875
1840.6344	22854.0875
1843.7955	22872.3875
1846.95454	22866.7875
1850.11151	22867.4875
1853.26642	22796.3875
1856.41926	22791.5875
1859.57004	22810.0875
1862.71876	22751.5875
1865.86542	22727.1875
1869.01003	22658.9875
1872.15258	22597.1875
1875.29308	22620.3875
1878.43152	22556.0875
1881.56792	22508.8875
1884.70227	22493.4875
1887.83457	22442.3875
1890.96482	22438.4875
1894.09304	22334.9875
1897.21921	22328.4875
1900.34335	22334.6875
1903.46544	22299.1875
1906.58551	22256.1875
1909.70353	22226.0875
1912.81953	22143.1875
1915.93349	22081.7875
1919.04543	22033.9875
1922.15534	21983.0875
1925.26322	21939.0875
1928.36908	21876.0875
1931.47292	21846.2875
1934.57473	21740.9875
1937.67453	21694.4875
1940.77232	21600.9875
1943.86808	21583.1875
1946.96184	21531.9875
1950.05358	21424.5875
1953.14331	21366.9875
1956.23103	21329.2875
1959.31675	21215.5875
1962.40046	21170.2875
1965.48217	21101.3875
1968.56188	21077.8875
1971.63959	20964.9875
1974.7153	20916.5875
1977.78901	20845.6875
1980.86073	20751.1875
1983.93046	20660.4875
1986.99819	20605.5875
1990.06394	20575.3875
1993.1277	20517.0875
1996.18947	20443.3875
1999.24925	20411.7875
2002.30706	20331.2875
2005.36288	20258.6875
2008.41672	20199.4875
2011.46859	20141.5875
2014.51848	20051.3875
2017.56639	19999.4875
2020.61233	19974.5875
2023.6563	19904.9875
2026.6983	19825.2875
2029.73833	19730.9875
2032.7764	19713.9875
2035.8125	19684.2875
2038.84664	19604.5875
2041.87881	19606.5875
2044.90903	19565.4875
2047.93729	19529.1875
2050.96359	19488.0875
2053.98794	19455.5875
2057.01034	19468.4875
2060.03078	19421.5875
2063.04927	19376.2875
2066.06582	19435.6875
2069.08042	19394.5875
2072.09307	19361.9875
2075.10378	19340.2875
2078.11255	19339.0875
2081.11938	19306.9875
2084.12426	19272.0875
2087.12722	19289.1875
2090.12824	19232.0875
2093.12732	19251.0875
2096.12447	19244.3875
2099.11969	19311.0875
2102.11299	19301.7875
2105.10435	19245.5875
2108.09379	19217.8875
2111.08131	19264.3875
2114.0669	19266.9875
2117.05057	19313.4875
2120.03233	19309.0875
2123.01216	19322.4875
2125.99008	19323.9875
2128.96609	19295.8875
2131.94018	19330.4875
2134.91236	19315.6875
2137.88263	19336.7875
2140.851	19367.3875
2143.81746	19378.5875
2146.78201	19324.3875
2149.74466	19324.3875
2152.7054	19280.4875
2155.66425	19264.6875
2158.6212	19301.1875
2161.57625	19261.9875
2164.52941	19242.8875
2167.48067	19224.9875
2170.43004	19215.4875
2173.37752	19189.3875
2176.32311	19204.3875
2179.26681	19182.3875
2182.20863	19188.7875
2185.14856	19214.3875
2188.08661	19208.4875
2191.02278	19214.0875
2193.95707	19186.2875
2196.88948	19138.7875
2199.82001	19112.8875
2202.74867	19106.6875
2205.67545	19063.0875
2208.60037	19027.4875
2211.52341	19004.3875
2214.44458	19006.6875
2217.36388	18926.2875
2220.28132	18920.4875
2223.1969	18845.4875
2226.11061	18817.4875
2229.02246	18773.7875
2231.93245	18701.0875
2234.84058	18682.0875
2237.74686	18664.8875
2240.65128	18645.3875
2243.55385	18609.2875
2246.45456	18584.7875
2249.35343	18547.3875
2252.25044	18523.9875
2255.14561	18458.6875
2258.03893	18468.0875
2260.93041	18374.7875
2263.82004	18336.5875
2266.70783	18274.6875
2269.59378	18252.0875
2272.4779	18160.3875
2275.36017	18141.8875
2278.24061	18112.4875
2281.11922	18045.2875
2283.996	18048.8875
2286.87094	18034.6875
2289.74405	18000.6875
2292.61534	17980.2875
2295.4848	17923.9875
2298.35243	17932.7875
2301.21824	17919.6875
2304.08223	17897.8875
2306.94439	17923.2875
2309.80474	17902.1875
2312.66327	17920.5875
2315.51999	17856.4875
2318.37489	17855.5875
2321.22797	17813.9875
2324.07925	17763.2875
2326.92871	17763.3875
2329.77637	17722.4875
2332.62222	17712.8875
2335.46626	17694.0875
2338.3085	17678.5875
2341.14893	17648.3875
2343.98756	17672.5875
2346.8244	17653.6875
2349.65943	17644.0875
2352.49267	17663.3875
2355.32411	17662.6875
2358.15376	17647.1875
2360.98161	17615.7875
2363.80768	17601.5875
2366.63195	17599.3875
2369.45444	17579.3875
2372.27514	17556.7875
2375.09405	17499.8875
2377.91118	17486.0875
2380.72652	17421.8875
2383.54009	17376.9875
2386.35187	17348.8875
2389.16188	17317.5875
2391.97011	17291.6875
2394.77657	17251.9875
2397.58125	17210.3875
2400.38416	17218.4875
2403.18529	17164.6875
2405.98466	17147.8875
2408.78226	17095.9875
2411.57809	17098.2875
2414.37216	17089.3875
2417.16446	17067.6875
2419.955	17046.3875
2422.74378	17033.5875
2425.5308	16995.2875
2428.31606	16989.3875
2431.09956	16977.7875
2433.88131	16974.7875
2436.6613	16986.9875
2439.43954	16954.5875
2442.21603	16958.2875
2444.99077	16931.1875
2447.76377	16931.0875
2450.53501	16893.4875
2453.30451	16901.5875
2456.07226	16844.5875
2458.83827	16882.9875
2461.60254	16847.0875
2464.36507	16830.9875
2467.12586	16801.6875
2469.88492	16849.8875
2472.64224	16833.9875
2475.39782	16840.0875
2478.15167	16879.8875
2480.90379	16784.3875
2483.65417	16832.8875
2486.40283	16821.4875
2489.14976	16833.6875
2491.89497	16836.2875
2494.63845	16839.0875
2497.3802	16846.4875
2500.12024	16821.7875
2502.85855	16799.5875
2505.59514	16779.7875
2508.33002	16753.3875
2511.06318	16791.1875
2513.79462	16716.4875
2516.52435	16753.1875
2519.25237	16736.6875
2521.97867	16723.2875
2524.70327	16686.2875
2527.42616	16664.4875
2530.14734	16677.0875
2532.86681	16652.4875
2535.58458	16655.4875
2538.30065	16613.8875
2541.01501	16622.7875
2543.72768	16601.0875
2546.43864	16594.0875
2549.14791	16562.8875
2551.85548	16570.7875
2554.56136	16482.2875
2557.26554	16473.3875
2559.96803	16434.7875
2562.66883	16429.8875
2565.36794	16434.0875
2568.06536	16383.8875
2570.7611	16373.5875
2573.45514	16381.0875
2576.14751	16342.6875
2578.83819	16317.3875
2581.52719	16319.2875
2584.21451	16300.4875
2586.90015	16293.4875
2589.58411	16286.2875
2592.2664	16289.7875
2594.94701	16239.9875
2597.62594	16264.1875
2600.30321	16191.3875
2602.9788	16223.4875
2605.65273	16224.8875
2608.32498	16225.8875
2610.99557	16166.4875
2613.66449	16180.8875
2616.33175	16142.0875
2618.99734	16178.5875
2621.66128	16152.9875
2624.32355	16152.3875
2626.98416	16136.6875
2629.64311	16131.1875
2632.30041	16111.4875
2634.95605	16084.4875
2637.61004	16113.3875
2640.26238	16054.8875
2642.91306	16047.4875
2645.56209	16055.7875
2648.20948	16050.3875
2650.85521	16074.9875
2653.4993	16091.9875
2656.14175	16067.7875
2658.78255	16117.7875
2661.42171	16085.4875
2664.05923	16103.2875
2666.6951	16064.7875
2669.32934	16133.9875
2671.96194	16145.6875
2674.59291	16124.1875
2677.22224	16119.7875
2679.84993	16106.8875
2682.476	16098.4875
2685.10043	16093.7875
2687.72324	16056.7875
2690.34441	16074.2875
2692.96396	16038.6875
2695.58188	16030.4875
2698.19818	16036.4875
2700.81285	16060.8875
2703.4259	16051.4875
2706.03733	16094.3875
2708.64714	16056.1875
2711.25533	16074.3875
2713.86191	16097.5875
2716.46687	16085.4875
2719.07021	16079.5875
2721.67194	16125.4875
2724.27206	16130.3875
2726.87057	16150.1875
2729.46747	16176.5875
2732.06276	16160.0875
2734.65644	16132.6875
2737.24852	16116.6875
2739.83899	16112.0875
2742.42786	16119.5875
2745.01513	16074.1875
2747.60079	16096.6875
2750.18486	16064.3875
2752.76733	16053.9875
2755.3482	16017.5875
2757.92747	16027.5875
2760.50515	16036.5875
2763.08123	16035.4875
2765.65573	16026.0875
2768.22863	16032.8875
2770.79994	15994.9875
2773.36967	16013.7875
2775.9378	15991.3875
2778.50435	15953.5875
2781.06932	15999.6875
2783.6327	15963.3875
2786.1945	15974.7875
2788.75471	15997.5875
2791.31335	15917.8875
2793.87041	15911.3875
2796.42589	15871.0875
2798.97979	15869.8875
2801.53212	15805.0875
2804.08288	15813.8875
2806.63206	15748.8875
2809.17967	15748.8875
2811.72571	15702.2875
2814.27018	15685.0875
2816.81308	15652.5875
2819.35442	15646.1875
2821.89419	15606.2875
2824.43239	15614.0875
2826.96904	15572.7875
2829.50412	15567.0875
2832.03763	15540.2875
2834.56959	15499.4875
2837.1	15504.5875
2839.62884	15494.8875
2842.15613	15496.8875
2844.68186	15548.6875
2847.20604	15528.8875
2849.72867	15536.8875
2852.24974	15552.2875
2854.76927	15559.0875
2857.28724	15522.8875
2859.80367	15501.4875
2862.31855	15486.3875
2864.83189	15431.7875
2867.34368	15419.5875
2869.85393	15441.0875
2872.36264	15375.9875
2874.8698	15350.7875
2877.37543	15318.5875
2879.87952	15325.3875
2882.38207	15347.7875
2884.88308	15322.3875
2887.38256	15361.9875
2889.88051	15314.5875
2892.37692	15334.2875
2894.8718	15324.0875
2897.36515	15356.3875
2899.85698	15340.8875
2902.34727	15377.3875
2904.83604	15382.9875
2907.32328	15416.6875
2909.809	15395.2875
2912.29319	15432.2875
2914.77587	15414.9875
2917.25702	15406.9875
2919.73665	15400.9875
2922.21476	15408.8875
2924.69136	15362.9875
2927.16644	15372.3875
2929.64	15369.6875
2932.11205	15299.0875
2934.58258	15293.5875
2937.05161	15287.1875
2939.51912	15303.1875
2941.98513	15281.9875
2944.44962	15242.9875
2946.91261	15162.1875
2949.37409	15171.8875
2951.83407	15138.0875
2954.29254	15144.3875
2956.74951	15118.4875
2959.20498	15058.9875
2961.65895	15054.3875
2964.11142	15074.5875
2966.56239	15035.3875
2969.01186	15026.0875
2971.45984	15003.4875
2973.90632	15025.4875
2976.35131	14962.3875
2978.7948	14977.8875
2981.23681	14884.7875
2983.67732	14881.4875
2986.11635	14836.7875
2988.55388	14809.7875
2990.98993	14773.9875
2993.4245	14720.8875
2995.85758	14654.1875
2998.28917	14628.2875
3000.71928	14592.2875
3003.14791	14584.9875
3005.57506	14582.0875
3008.00073	14503.2875
3010.42493	14398.3875
3012.84764	14430.4875
3015.26888	14425.4875
3017.68865	14401.4875
3020.10694	14388.9875
3022.52376	14325.4875
3024.9391	14328.5875
3027.35298	14266.9875
3029.76539	14271.1875
3032.17632	14271.8875
3034.5858	14230.3875
3036.9938	14240.7875
3039.40034	14242.8875
3041.80542	14219.0875
3044.20903	14207.3875
3046.61118	14179.1875
3049.01187	14150.3875
3051.4111	14159.5875
3053.80888	14117.0875
3056.20519	14086.3875
3058.60005	14050.3875
3060.99345	14021.0875
3063.3854	13988.8875
3065.7759	13900.3875
3068.16494	13860.7875
3070.55254	13796.1875
3072.93868	13792.0875
3075.32338	13739.4875
3077.70662	13678.3875
3080.08842	13668.2875
3082.46878	13634.7875
3084.84769	13632.3875
3087.22515	13605.7875
3089.60118	13605.4875
3091.97576	13605.3875
3094.3489	13595.9875
3096.72061	13551.7875
3099.09087	13549.7875
3101.4597	13537.2875
3103.82709	13560.4875
3106.19305	13527.7875
3108.55757	13508.4875
3110.92066	13479.6875
3113.28232	13453.0875
3115.64255	13446.9875
3118.00134	13419.7875
3120.35871	13373.5875
3122.71466	13340.3875
3125.06917	13263.3875
3127.42226	13271.0875
3129.77393	13243.2875
3132.12417	13216.6875
3134.47299	13241.3875
3136.82039	13190.3875
3139.16636	13194.7875
3141.51092	13134.0875
3143.85406	13183.4875
3146.19579	13140.8875
3148.53609	13138.1875
3150.87499	13172.5875
3153.21246	13178.4875
3155.54853	13177.3875
3157.88318	13152.7875
3160.21642	13157.9875
3162.54826	13177.5875
3164.87868	13170.3875
3167.2077	13176.4875
3169.5353	13174.2875
3171.86151	13165.1875
3174.18631	13156.2875
3176.5097	13114.6875
3178.83169	13099.5875
3181.15228	13084.5875
3183.47147	13072.4875
3185.78926	13063.3875
3188.10565	13020.2875
3190.42065	13017.7875
3192.73424	12999.1875
3195.04645	12985.6875
3197.35725	12949.8875
3199.66667	12921.3875
3201.97469	12961.2875
3204.28132	12944.0875
3206.58656	12943.1875
3208.8904	12960.5875
3211.19287	12944.5875
3213.49394	12929.2875
3215.79363	12938.1875
3218.09193	12921.7875
3220.38884	12935.7875
3222.68438	12973.5875
3224.97853	12899.9875
3227.2713	12897.4875
3229.56269	12843.5875
3231.8527	12871.1875
3234.14133	12826.2875
3236.42858	12833.8875
3238.71446	12783.3875
3240.99896	12757.3875
3243.28209	12742.6875
3245.56384	12760.4875
3247.84423	12710.6875
3250.12324	12675.8875
3252.40088	12677.3875
3254.67715	12667.2875
3256.95205	12667.8875
3259.22558	12632.8875
3261.49775	12639.6875
3263.76855	12605.8875
3266.03799	12566.6875
3268.30606	12534.3875
3270.57277	12493.1875
3272.83812	12465.9875
3275.10211	12446.4875
3277.36474	12426.8875
3279.62601	12443.8875
3281.88593	12389.3875
3284.14448	12385.0875
3286.40168	12410.7875
3288.65753	12394.8875
3290.91202	12405.1875
3293.16516	12381.6875
3295.41695	12326.7875
3297.66738	12259.9875
3299.91647	12198.3875
3302.16421	12132.5875
3304.4106	12082.8875
3306.65564	11987.1875
3308.89933	11912.7875
3311.14169	11819.8875
3313.38269	11692.8875
3315.62236	11643.5875
3317.86068	11526.5875
3320.09766	11441.3875
3322.3333	11362.6875
3324.5676	11316.7875
3326.80056	11112.2875
3329.03219	11046.5875
3331.26248	2.8875
3333.49143	-0.6125
3335.71905	-0.8125
