Data from AgNPs_FTO_APTES_UA_5uM_CRN_20uM_R6G_10uM_NaF_0.1M_Addition_RamanShift__25__13-32-06-789.txt Node

Date: Mon Feb 07 13:32:06 GMT 2022
User: TCL
Spectrometer: QEP01345
Trigger mode: 4
Integration Time (sec): 7.000000E0
Scans to average: 10
Electric dark correction enabled: true
Nonlinearity correction enabled: false
Boxcar width: 0
XAxis mode: Raman Shifts
Number of Pixels in Spectrum: 1044
>>>>>Begin Spectral Data<<<<<
46.04893	-0.5625
50.45542	-0.5625
54.85868	-1.2625
59.25871	0.3375
63.6555	81.2375
68.04907	85.6375
72.43941	91.9375
76.82654	93.1375
81.21044	97.8375
85.59113	99.2375
89.96862	99.2375
94.34289	107.5375
98.71396	111.9375
103.08183	116.8375
107.4465	117.7375
111.80798	119.6375
116.16626	123.9375
120.52136	130.5375
124.87327	140.5375
129.222	147.7375
133.56755	159.0375
137.90993	175.4375
142.24913	192.5375
146.58517	221.3375
150.91804	256.9375
155.24774	315.3375
159.57429	401.8375
163.89768	523.9375
168.21792	700.6375
172.53501	951.9375
176.84895	1343.1375
181.15975	1894.6375
185.46741	2651.2375
189.77193	3663.3375
194.07331	4893.2375
198.37157	6303.5375
202.6667	7763.1375
206.9587	9249.6375
211.24758	10698.6375
215.53334	12175.5375
219.81599	13815.4375
224.09553	15628.8375
228.37195	17683.9375
232.64527	19884.1375
236.91549	22112.1375
241.18261	24303.7375
245.44663	26213.0375
249.70755	27822.7375
253.96539	29265.0375
258.22014	30528.2375
262.4718	31682.4375
266.72039	32547.8375
270.96589	33160.6375
275.20832	33405.0375
279.44768	33451.7375
283.68397	33369.4375
287.91719	33372.7375
292.14735	33594.7375
296.37445	34004.6375
300.59849	34573.7375
304.81948	35006.1375
309.03742	35110.1375
313.25231	34493.9375
317.46415	33075.9375
321.67296	31199.8375
325.87872	29567.6375
330.08145	28773.0375
334.28114	28714.7375
338.47781	28985.7375
342.67145	29565.6375
346.86207	30374.4375
351.04966	31550.7375
355.23424	32822.6375
359.4158	33787.9375
363.59435	34252.9375
367.76989	34378.2375
371.94243	34379.2375
376.11196	34325.3375
380.27849	34309.5375
384.44203	34220.0375
388.60257	34130.9375
392.76012	34246.4375
396.91468	34618.8375
401.06626	35313.7375
405.21485	35925.4375
409.36047	35532.4375
413.50311	34276.6375
417.64277	33178.5375
421.77947	32707.4375
425.9132	32638.8375
430.04396	32841.1375
434.17176	33079.8375
438.2966	33470.8375
442.41849	34160.9375
446.53742	35194.5375
450.6534	36330.3375
454.76644	37136.9375
458.87653	37405.3375
462.98368	37275.2375
467.08789	36787.8375
471.18916	36352.2375
475.2875	35933.4375
479.38291	35649.3375
483.4754	35274.2375
487.56496	34662.3375
491.6516	33950.7375
495.73531	33325.0375
499.81612	33100.3375
503.89401	33196.1375
507.96899	33331.4375
512.04106	33404.1375
516.11023	33330.8375
520.1765	33231.5375
524.23987	32889.7375
528.30034	32401.2375
532.35792	31915.1375
536.41261	31397.3375
540.46441	31008.9375
544.51333	30998.9375
548.55936	31519.5375
552.60252	32512.6375
556.64279	33613.5375
560.6802	34228.3375
564.71473	34719.3375
568.7464	35760.9375
572.7752	36826.2375
576.80114	36813.2375
580.82422	36338.5375
584.84444	36206.9375
588.86181	36270.8375
592.87633	36512.0375
596.888	36928.7375
600.89682	37521.1375
604.9028	39901.4375
608.90594	46417.6375
612.90624	54537.3375
616.90371	51684.4375
620.89834	39146.0375
624.89015	33489.7375
628.87913	32694.5375
632.86528	32831.2375
636.84862	32774.5375
640.82913	32024.1375
644.80683	30699.3375
648.78172	29796.8375
652.75379	29615.1375
656.72306	30378.9375
660.68952	31452.2375
664.65319	31376.8375
668.61405	30392.6375
672.57211	29892.1375
676.52738	29847.5375
680.47986	29841.7375
684.42955	29682.7375
688.37646	29551.7375
692.32058	29731.0375
696.26192	30065.9375
700.20048	30460.6375
704.13626	30787.0375
708.06928	30807.6375
711.99952	30500.1375
715.927	30319.4375
719.85171	30368.1375
723.77365	30225.2375
727.69284	29842.2375
731.60928	29560.9375
735.52295	29434.3375
739.43388	29445.4375
743.34206	29584.6375
747.24749	29757.1375
751.15017	30154.3375
755.05012	30891.8375
758.94733	32263.7375
762.8418	35077.8375
766.73354	39641.0375
770.62254	44208.4375
774.50882	45658.3375
778.39237	42978.6375
782.27321	37910.7375
786.15132	33637.3375
790.02671	31123.2375
793.89938	29985.8375
797.76935	29474.2375
801.6366	29271.8375
805.50115	29139.3375
809.36299	28968.8375
813.22213	28825.3375
817.07857	28744.5375
820.93231	28745.3375
824.78336	28732.0375
828.63172	28721.8375
832.47738	28717.5375
836.32036	28705.4375
840.16066	28725.4375
843.99827	28709.6375
847.8332	28631.3375
851.66546	28456.9375
855.49504	28341.3375
859.32195	28292.2375
863.1462	28098.5375
866.96777	28003.2375
870.78668	27885.5375
874.60293	27910.0375
878.41652	27946.3375
882.22745	28032.6375
886.03573	28167.6375
889.84136	28142.0375
893.64433	27963.4375
897.44466	27818.3375
901.24235	27799.6375
905.0374	27728.3375
908.8298	27704.8375
912.61957	27809.9375
916.40671	28113.8375
920.19121	28565.3375
923.97308	28939.7375
927.75233	29001.1375
931.52895	28951.7375
935.30295	28544.5375
939.07433	27812.5375
942.84309	27160.8375
946.60924	26834.5375
950.37278	26653.9375
954.13371	26472.4375
957.89203	26355.8375
961.64774	26311.4375
965.40086	26273.5375
969.15137	26154.8375
972.89929	26045.5375
976.64461	25924.2375
980.38733	25892.1375
984.12747	26036.6375
987.86502	26259.1375
991.59999	26562.9375
995.33237	27096.8375
999.06217	28003.3375
1002.78939	29087.1375
1006.51404	29847.5375
1010.23611	30321.8375
1013.95561	30714.6375
1017.67255	30642.8375
1021.38692	30269.6375
1025.09872	29822.7375
1028.80796	29928.7375
1032.51465	30626.8375
1036.21877	31354.3375
1039.92035	31534.2375
1043.61937	31150.1375
1047.31584	30492.4375
1051.00976	29766.6375
1054.70114	29477.1375
1058.38998	29523.7375
1062.07627	29852.3375
1065.76003	30151.0375
1069.44126	30361.9375
1073.11995	30628.4375
1076.79611	30846.7375
1080.46974	31079.8375
1084.14085	31526.9375
1087.80943	32116.9375
1091.47549	32521.3375
1095.13903	32308.1375
1098.80005	31617.3375
1102.45857	30776.2375
1106.11456	30189.4375
1109.76805	30019.3375
1113.41903	30360.3375
1117.06751	30962.4375
1120.71348	31800.2375
1124.35696	32567.9375
1127.99793	33351.9375
1131.63641	33430.5375
1135.2724	32667.0375
1138.90589	31834.6375
1142.5369	31347.9375
1146.16542	31183.7375
1149.79145	31167.4375
1153.415	31529.3375
1157.03607	32091.0375
1160.65467	32998.4375
1164.27079	34441.7375
1167.88443	36545.8375
1171.49561	39564.6375
1175.10432	43870.8375
1178.71056	49374.6375
1182.31434	53835.1375
1185.91565	55881.6375
1189.51451	55709.1375
1193.11091	53516.1375
1196.70485	50396.5375
1200.29634	47393.3375
1203.88538	45018.1375
1207.47197	42805.7375
1211.05612	41059.1375
1214.63782	39952.9375
1218.21708	39332.6375
1221.79391	39132.6375
1225.36829	39106.4375
1228.94024	38839.0375
1232.50976	38348.8375
1236.07685	38047.2375
1239.6415	37841.6375
1243.20374	37763.3375
1246.76355	37958.0375
1250.32093	38479.1375
1253.8759	39565.8375
1257.42845	40889.9375
1260.97859	42207.3375
1264.52631	43370.7375
1268.07163	44607.5375
1271.61453	45901.8375
1275.15503	47336.5375
1278.69312	48666.8375
1282.22882	49728.2375
1285.76211	50949.1375
1289.29301	52531.9375
1292.82151	54466.1375
1296.34761	56973.3375
1299.87133	60207.0375
1303.39266	64491.5375
1306.9116	70111.2375
1310.42815	76283.3375
1313.94233	80692.4375
1317.45412	81137.1375
1320.96354	79007.1375
1324.47058	76158.5375
1327.97525	73440.7375
1331.47754	71361.2375
1334.97747	70511.8375
1338.47502	70500.4375
1341.97022	70916.0375
1345.46305	70912.0375
1348.95352	70398.6375
1352.44163	70299.5375
1355.92738	72025.8375
1359.41078	77024.4375
1362.89183	82348.1375
1366.37053	80582.5375
1369.84688	71557.6375
1373.32088	61962.2375
1376.79254	55794.9375
1380.26186	53164.6375
1383.72883	52392.4375
1387.19347	52107.0375
1390.65578	51728.2375
1394.11575	51719.9375
1397.57339	52395.0375
1401.0287	53640.4375
1404.48168	54874.2375
1407.93234	55541.0375
1411.38068	55249.4375
1414.82669	53781.4375
1418.27039	51258.9375
1421.71177	48535.9375
1425.15083	46329.8375
1428.58758	44943.3375
1432.02203	44758.1375
1435.45416	45319.4375
1438.88399	46158.8375
1442.31151	46927.3375
1445.73673	47822.9375
1449.15965	48764.0375
1452.58027	49540.7375
1455.9986	49963.8375
1459.41463	50485.7375
1462.82837	51283.3375
1466.23982	52224.4375
1469.64898	53062.2375
1473.05586	53405.1375
1476.46045	53293.9375
1479.86276	53033.7375
1483.26279	52981.5375
1486.66054	53112.3375
1490.05602	53686.2375
1493.44922	54526.1375
1496.84016	55625.7375
1500.22882	57818.8375
1503.61521	61020.8375
1506.99934	65330.7375
1510.38121	69707.7375
1513.76081	72520.7375
1517.13816	71283.0375
1520.51324	66554.6375
1523.88607	61346.2375
1527.25665	57652.6375
1530.62498	55464.7375
1533.99105	54222.3375
1537.35488	53424.6375
1540.71647	52723.6375
1544.07581	51929.9375
1547.4329	50904.3375
1550.78776	50077.0375
1554.14038	49520.0375
1557.49077	49593.1375
1560.83892	49974.6375
1564.18484	50477.0375
1567.52853	50880.0375
1570.86999	51072.6375
1574.20922	51458.6375
1577.54624	51680.4375
1580.88103	51064.2375
1584.2136	50266.7375
1587.54395	50836.3375
1590.87208	53053.6375
1594.19801	56488.2375
1597.52172	60058.1375
1600.84321	61302.2375
1604.16251	58706.3375
1607.47959	53987.7375
1610.79447	49056.9375
1614.10715	44405.5375
1617.41763	40664.9375
1620.7259	38033.1375
1624.03199	36662.8375
1627.33587	36545.4375
1630.63757	37618.8375
1633.93707	40200.2375
1637.23439	44036.1375
1640.52951	49106.1375
1643.82246	55072.4375
1647.11321	60321.1375
1650.40179	62852.4375
1653.68819	59953.9375
1656.97241	52278.8375
1660.25446	43810.0375
1663.53433	37345.0375
1666.81203	33169.4375
1670.08756	30644.4375
1673.36092	29057.3375
1676.63211	28024.9375
1679.90115	27297.8375
1683.16801	26791.2375
1686.43272	26379.4375
1689.69527	26098.0375
1692.95567	25894.3375
1696.2139	25726.2375
1699.46999	25634.9375
1702.72392	25473.3375
1705.97571	25423.8375
1709.22535	25405.3375
1712.47284	25337.0375
1715.71819	25292.7375
1718.96139	25221.5375
1722.20246	25196.4375
1725.44139	25015.9375
1728.67818	24931.2375
1731.91284	24740.1375
1735.14537	24550.0375
1738.37576	24445.1375
1741.60403	24318.1375
1744.83017	24223.5375
1748.05418	24150.9375
1751.27607	24139.0375
1754.49584	24064.8375
1757.71349	24087.8375
1760.92903	24031.4375
1764.14244	23985.2375
1767.35375	23995.9375
1770.56294	23921.2375
1773.77002	23852.3375
1776.97499	23813.7375
1780.17785	23750.6375
1783.37861	23701.7375
1786.57727	23697.1375
1789.77382	23634.2375
1792.96828	23638.6375
1796.16064	23611.5375
1799.3509	23530.9375
1802.53907	23561.8375
1805.72514	23450.1375
1808.90913	23400.1375
1812.09102	23290.4375
1815.27083	23248.3375
1818.44856	23206.4375
1821.6242	23159.9375
1824.79776	23170.7375
1827.96924	23108.5375
1831.13864	23088.1375
1834.30597	23097.2375
1837.47122	23069.4375
1840.6344	23054.6375
1843.7955	23066.4375
1846.95454	23069.6375
1850.11151	23096.3375
1853.26642	23099.3375
1856.41926	23116.0375
1859.57004	23155.9375
1862.71876	23151.3375
1865.86542	23134.9375
1869.01003	23138.4375
1872.15258	23093.0375
1875.29308	23137.9375
1878.43152	23148.1375
1881.56792	23179.6375
1884.70227	23173.4375
1887.83457	23181.6375
1890.96482	23177.6375
1894.09304	23216.2375
1897.21921	23198.6375
1900.34335	23223.6375
1903.46544	23234.2375
1906.58551	23270.4375
1909.70353	23289.2375
1912.81953	23263.8375
1915.93349	23212.6375
1919.04543	23206.4375
1922.15534	23111.8375
1925.26322	23077.1375
1928.36908	22995.7375
1931.47292	22925.1375
1934.57473	22782.0375
1937.67453	22697.0375
1940.77232	22554.4375
1943.86808	22443.0375
1946.96184	22385.1375
1950.05358	22278.4375
1953.14331	22165.5375
1956.23103	22052.7375
1959.31675	21956.6375
1962.40046	21924.4375
1965.48217	21852.6375
1968.56188	21769.7375
1971.63959	21694.8375
1974.7153	21620.5375
1977.78901	21568.1375
1980.86073	21512.7375
1983.93046	21436.8375
1986.99819	21336.1375
1990.06394	21290.9375
1993.1277	21239.2375
1996.18947	21152.3375
1999.24925	21151.4375
2002.30706	21021.4375
2005.36288	20989.8375
2008.41672	20951.4375
2011.46859	20889.4375
2014.51848	20833.4375
2017.56639	20747.4375
2020.61233	20711.7375
2023.6563	20624.1375
2026.6983	20609.0375
2029.73833	20552.7375
2032.7764	20524.4375
2035.8125	20489.3375
2038.84664	20418.1375
2041.87881	20412.5375
2044.90903	20385.0375
2047.93729	20337.8375
2050.96359	20321.4375
2053.98794	20290.5375
2057.01034	20250.5375
2060.03078	20255.7375
2063.04927	20240.2375
2066.06582	20231.3375
2069.08042	20201.4375
2072.09307	20170.8375
2075.10378	20130.7375
2078.11255	20134.3375
2081.11938	20143.2375
2084.12426	20100.6375
2087.12722	20098.0375
2090.12824	20056.9375
2093.12732	20079.2375
2096.12447	20078.2375
2099.11969	20065.0375
2102.11299	20074.4375
2105.10435	20030.1375
2108.09379	20028.7375
2111.08131	20072.4375
2114.0669	20065.3375
2117.05057	20098.9375
2120.03233	20121.3375
2123.01216	20127.4375
2125.99008	20132.2375
2128.96609	20128.5375
2131.94018	20174.5375
2134.91236	20188.6375
2137.88263	20208.6375
2140.851	20196.1375
2143.81746	20236.7375
2146.78201	20186.3375
2149.74466	20206.1375
2152.7054	20180.3375
2155.66425	20151.6375
2158.6212	20177.8375
2161.57625	20143.4375
2164.52941	20089.3375
2167.48067	20115.3375
2170.43004	20125.6375
2173.37752	20128.1375
2176.32311	20112.4375
2179.26681	20153.2375
2182.20863	20113.5375
2185.14856	20126.1375
2188.08661	20157.5375
2191.02278	20140.2375
2193.95707	20153.4375
2196.88948	20111.4375
2199.82001	20082.7375
2202.74867	20086.6375
2205.67545	20064.5375
2208.60037	20074.4375
2211.52341	20040.5375
2214.44458	20026.7375
2217.36388	20014.9375
2220.28132	19997.8375
2223.1969	19924.7375
2226.11061	19902.3375
2229.02246	19866.5375
2231.93245	19797.1375
2234.84058	19730.0375
2237.74686	19686.4375
2240.65128	19661.9375
2243.55385	19669.2375
2246.45456	19626.7375
2249.35343	19616.4375
2252.25044	19608.5375
2255.14561	19568.9375
2258.03893	19523.4375
2260.93041	19505.5375
2263.82004	19500.5375
2266.70783	19443.2375
2269.59378	19404.8375
2272.4779	19321.1375
2275.36017	19263.5375
2278.24061	19237.6375
2281.11922	19218.0375
2283.996	19161.2375
2286.87094	19145.7375
2289.74405	19124.8375
2292.61534	19098.7375
2295.4848	19087.7375
2298.35243	19111.9375
2301.21824	19098.8375
2304.08223	19123.2375
2306.94439	19119.6375
2309.80474	19150.5375
2312.66327	19178.4375
2315.51999	19140.6375
2318.37489	19126.9375
2321.22797	19079.8375
2324.07925	19101.2375
2326.92871	19059.9375
2329.77637	19033.2375
2332.62222	19014.2375
2335.46626	19024.8375
2338.3085	19054.1375
2341.14893	19045.7375
2343.98756	19072.3375
2346.8244	19062.1375
2349.65943	19126.7375
2352.49267	19093.4375
2355.32411	19132.4375
2358.15376	19107.0375
2360.98161	19100.6375
2363.80768	19102.9375
2366.63195	19045.9375
2369.45444	19069.0375
2372.27514	19006.9375
2375.09405	19010.1375
2377.91118	18957.9375
2380.72652	18871.9375
2383.54009	18815.5375
2386.35187	18785.5375
2389.16188	18681.3375
2391.97011	18691.8375
2394.77657	18649.2375
2397.58125	18634.3375
2400.38416	18621.3375
2403.18529	18553.6375
2405.98466	18533.8375
2408.78226	18483.5375
2411.57809	18434.2375
2414.37216	18420.9375
2417.16446	18443.4375
2419.955	18403.6375
2422.74378	18379.9375
2425.5308	18326.0375
2428.31606	18295.3375
2431.09956	18309.2375
2433.88131	18282.0375
2436.6613	18327.6375
2439.43954	18330.0375
2442.21603	18319.8375
2444.99077	18313.1375
2447.76377	18310.1375
2450.53501	18290.7375
2453.30451	18278.9375
2456.07226	18281.2375
2458.83827	18271.0375
2461.60254	18274.2375
2464.36507	18283.5375
2467.12586	18226.4375
2469.88492	18298.7375
2472.64224	18327.8375
2475.39782	18340.4375
2478.15167	18324.2375
2480.90379	18320.4375
2483.65417	18351.0375
2486.40283	18408.0375
2489.14976	18420.5375
2491.89497	18433.4375
2494.63845	18491.2375
2497.3802	18486.6375
2500.12024	18478.2375
2502.85855	18456.1375
2505.59514	18437.2375
2508.33002	18389.8375
2511.06318	18379.2375
2513.79462	18324.4375
2516.52435	18263.7375
2519.25237	18305.5375
2521.97867	18267.8375
2524.70327	18264.4375
2527.42616	18204.5375
2530.14734	18235.9375
2532.86681	18211.8375
2535.58458	18214.6375
2538.30065	18215.5375
2541.01501	18208.3375
2543.72768	18180.1375
2546.43864	18174.3375
2549.14791	18171.5375
2551.85548	18139.8375
2554.56136	18146.6375
2557.26554	18081.8375
2559.96803	18072.4375
2562.66883	18082.1375
2565.36794	18044.2375
2568.06536	18007.4375
2570.7611	18004.2375
2573.45514	18003.7375
2576.14751	17994.3375
2578.83819	17988.0375
2581.52719	17986.1375
2584.21451	18005.7375
2586.90015	18019.5375
2589.58411	17997.0375
2592.2664	17979.2375
2594.94701	17970.9375
2597.62594	17986.1375
2600.30321	17973.6375
2602.9788	17976.0375
2605.65273	17951.0375
2608.32498	17985.3375
2610.99557	17977.1375
2613.66449	17978.6375
2616.33175	17975.3375
2618.99734	18021.6375
2621.66128	18002.0375
2624.32355	18032.3375
2626.98416	17980.0375
2629.64311	17999.2375
2632.30041	18009.0375
2634.95605	18012.4375
2637.61004	17961.3375
2640.26238	17955.2375
2642.91306	17929.4375
2645.56209	17892.7375
2648.20948	17874.5375
2650.85521	17894.9375
2653.4993	17898.1375
2656.14175	17858.2375
2658.78255	17906.8375
2661.42171	17879.5375
2664.05923	17938.7375
2666.6951	17956.3375
2669.32934	17989.0375
2671.96194	18017.7375
2674.59291	18002.6375
2677.22224	17966.2375
2679.84993	17998.1375
2682.476	17986.7375
2685.10043	18002.2375
2687.72324	17925.5375
2690.34441	17922.1375
2692.96396	17892.2375
2695.58188	17924.2375
2698.19818	17871.0375
2700.81285	17899.4375
2703.4259	17919.2375
2706.03733	17970.1375
2708.64714	17930.9375
2711.25533	17932.7375
2713.86191	17926.9375
2716.46687	17973.9375
2719.07021	17968.1375
2721.67194	17989.7375
2724.27206	17950.2375
2726.87057	18018.9375
2729.46747	18022.9375
2732.06276	18027.3375
2734.65644	18016.9375
2737.24852	17976.1375
2739.83899	17959.3375
2742.42786	17972.6375
2745.01513	18002.8375
2747.60079	17925.2375
2750.18486	17944.7375
2752.76733	17920.5375
2755.3482	17917.1375
2757.92747	17919.1375
2760.50515	17910.6375
2763.08123	17921.1375
2765.65573	17916.0375
2768.22863	17894.4375
2770.79994	17886.4375
2773.36967	17906.4375
2775.9378	17925.7375
2778.50435	17869.8375
2781.06932	17865.4375
2783.6327	17895.7375
2786.1945	17907.5375
2788.75471	17910.9375
2791.31335	17873.1375
2793.87041	17854.1375
2796.42589	17818.5375
2798.97979	17838.2375
2801.53212	17753.1375
2804.08288	17717.5375
2806.63206	17672.1375
2809.17967	17655.0375
2811.72571	17661.8375
2814.27018	17633.0375
2816.81308	17626.2375
2819.35442	17571.1375
2821.89419	17554.4375
2824.43239	17601.8375
2826.96904	17580.7375
2829.50412	17592.9375
2832.03763	17548.4375
2834.56959	17576.9375
2837.1	17547.7375
2839.62884	17517.7375
2842.15613	17529.7375
2844.68186	17569.4375
2847.20604	17595.5375
2849.72867	17639.0375
2852.24974	17616.0375
2854.76927	17627.8375
2857.28724	17627.4375
2859.80367	17585.0375
2862.31855	17538.3375
2864.83189	17536.5375
2867.34368	17511.4375
2869.85393	17527.1375
2872.36264	17507.0375
2874.8698	17484.5375
2877.37543	17460.3375
2879.87952	17456.0375
2882.38207	17458.3375
2884.88308	17431.0375
2887.38256	17452.9375
2889.88051	17443.1375
2892.37692	17469.9375
2894.8718	17439.1375
2897.36515	17508.3375
2899.85698	17482.5375
2902.34727	17540.3375
2904.83604	17550.9375
2907.32328	17581.8375
2909.809	17611.2375
2912.29319	17627.6375
2914.77587	17610.8375
2917.25702	17614.7375
2919.73665	17566.4375
2922.21476	17581.5375
2924.69136	17553.7375
2927.16644	17536.0375
2929.64	17487.9375
2932.11205	17440.9375
2934.58258	17380.2375
2937.05161	17424.7375
2939.51912	17396.5375
2941.98513	17356.6375
2944.44962	17303.0375
2946.91261	17249.1375
2949.37409	17263.4375
2951.83407	17199.8375
2954.29254	17185.8375
2956.74951	17175.0375
2959.20498	17154.6375
2961.65895	17122.1375
2964.11142	17127.9375
2966.56239	17094.9375
2969.01186	17065.4375
2971.45984	17054.1375
2973.90632	17079.9375
2976.35131	17018.8375
2978.7948	16998.6375
2981.23681	16945.9375
2983.67732	16904.7375
2986.11635	16865.4375
2988.55388	16814.3375
2990.98993	16801.0375
2993.4245	16724.9375
2995.85758	16665.9375
2998.28917	16628.7375
3000.71928	16620.5375
3003.14791	16579.6375
3005.57506	16568.5375
3008.00073	16530.9375
3010.42493	16420.7375
3012.84764	16435.7375
3015.26888	16461.5375
3017.68865	16390.1375
3020.10694	16401.0375
3022.52376	16314.5375
3024.9391	16341.2375
3027.35298	16282.8375
3029.76539	16269.0375
3032.17632	16257.6375
3034.5858	16228.4375
3036.9938	16212.5375
3039.40034	16195.6375
3041.80542	16228.8375
3044.20903	16166.4375
3046.61118	16188.6375
3049.01187	16117.0375
3051.4111	16142.0375
3053.80888	16084.0375
3056.20519	16045.3375
3058.60005	15982.2375
3060.99345	15960.1375
3063.3854	15899.8375
3065.7759	15847.8375
3068.16494	15812.4375
3070.55254	15739.3375
3072.93868	15681.5375
3075.32338	15657.6375
3077.70662	15615.7375
3080.08842	15512.8375
3082.46878	15533.1375
3084.84769	15500.6375
3087.22515	15480.0375
3089.60118	15491.3375
3091.97576	15444.8375
3094.3489	15447.9375
3096.72061	15410.5375
3099.09087	15434.5375
3101.4597	15411.9375
3103.82709	15418.6375
3106.19305	15384.5375
3108.55757	15413.6375
3110.92066	15348.4375
3113.28232	15324.7375
3115.64255	15304.4375
3118.00134	15264.0375
3120.35871	15232.8375
3122.71466	15192.5375
3125.06917	15149.1375
3127.42226	15098.4375
3129.77393	15106.1375
3132.12417	15079.9375
3134.47299	15049.8375
3136.82039	15076.1375
3139.16636	15036.0375
3141.51092	15033.0375
3143.85406	15030.7375
3146.19579	15015.6375
3148.53609	15012.7375
3150.87499	15017.0375
3153.21246	15011.2375
3155.54853	15032.4375
3157.88318	15003.5375
3160.21642	15036.6375
3162.54826	15003.8375
3164.87868	15019.7375
3167.2077	15014.8375
3169.5353	15019.1375
3171.86151	15019.3375
3174.18631	15022.2375
3176.5097	14987.1375
3178.83169	14976.2375
3181.15228	14960.0375
3183.47147	14915.4375
3185.78926	14916.9375
3188.10565	14887.0375
3190.42065	14887.2375
3192.73424	14877.5375
3195.04645	14845.9375
3197.35725	14867.9375
3199.66667	14831.8375
3201.97469	14842.1375
3204.28132	14853.0375
3206.58656	14859.8375
3208.8904	14861.5375
3211.19287	14874.1375
3213.49394	14864.2375
3215.79363	14858.9375
3218.09193	14888.4375
3220.38884	14880.0375
3222.68438	14905.4375
3224.97853	14837.0375
3227.2713	14839.4375
3229.56269	14809.8375
3231.8527	14798.0375
3234.14133	14780.9375
3236.42858	14749.0375
3238.71446	14730.0375
3240.99896	14730.1375
3243.28209	14710.4375
3245.56384	14660.8375
3247.84423	14638.1375
3250.12324	14637.2375
3252.40088	14588.0375
3254.67715	14632.9375
3256.95205	14589.6375
3259.22558	14599.9375
3261.49775	14586.3375
3263.76855	14547.3375
3266.03799	14495.6375
3268.30606	14521.9375
3270.57277	14483.2375
3272.83812	14449.0375
3275.10211	14406.8375
3277.36474	14390.4375
3279.62601	14396.3375
3281.88593	14353.0375
3284.14448	14383.1375
3286.40168	14365.9375
3288.65753	14365.9375
3290.91202	14371.0375
3293.16516	14333.8375
3295.41695	14266.3375
3297.66738	14185.7375
3299.91647	14151.9375
3302.16421	14013.2375
3304.4106	13972.3375
3306.65564	13865.5375
3308.89933	13777.6375
3311.14169	13676.3375
3313.38269	13561.0375
3315.62236	13486.3375
3317.86068	13382.2375
3320.09766	13255.2375
3322.3333	13156.5375
3324.5676	13125.4375
3326.80056	12925.7375
3329.03219	12807.9375
3331.26248	2.6375
3333.49143	-0.6625
3335.71905	-1.3625
