Data from AgNPs_FTO_APTES_UA_5uM_CRN_1uM_R6G_10uM_NaF_0.1M_Addition_RamanShift__20__10-40-36-591.txt Node

Date: Mon Feb 07 10:40:36 GMT 2022
User: TCL
Spectrometer: QEP01345
Trigger mode: 4
Integration Time (sec): 7.000000E0
Scans to average: 10
Electric dark correction enabled: true
Nonlinearity correction enabled: false
Boxcar width: 0
XAxis mode: Raman Shifts
Number of Pixels in Spectrum: 1044
>>>>>Begin Spectral Data<<<<<
46.04893	-0.1375
50.45542	-2.1375
54.85868	-1.5375
59.25871	0.2625
63.6555	97.2625
68.04907	96.3625
72.43941	102.2625
76.82654	103.0625
81.21044	110.1625
85.59113	115.8625
89.96862	124.4625
94.34289	120.0625
98.71396	126.8625
103.08183	128.6625
107.4465	137.4625
111.80798	135.3625
116.16626	140.0625
120.52136	148.3625
124.87327	153.5625
129.222	159.5625
133.56755	174.8625
137.90993	189.5625
142.24913	211.0625
146.58517	241.9625
150.91804	281.4625
155.24774	337.0625
159.57429	428.0625
163.89768	552.8625
168.21792	736.9625
172.53501	1010.8625
176.84895	1410.9625
181.15975	1989.2625
185.46741	2780.2625
189.77193	3837.4625
194.07331	5135.4625
198.37157	6597.5625
202.6667	8124.7625
206.9587	9634.4625
211.24758	11181.9625
215.53334	12736.2625
219.81599	14378.5625
224.09553	16270.3625
228.37195	18306.1625
232.64527	20565.4625
236.91549	22945.6625
241.18261	25230.9625
245.44663	27319.7625
249.70755	29099.9625
253.96539	30648.9625
258.22014	32025.7625
262.4718	33170.8625
266.72039	34054.7625
270.96589	34579.7625
275.20832	34688.7625
279.44768	34609.7625
283.68397	34425.6625
287.91719	34339.0625
292.14735	34354.2625
296.37445	34439.7625
300.59849	34675.7625
304.81948	34894.7625
309.03742	34926.5625
313.25231	34457.7625
317.46415	33387.3625
321.67296	31945.4625
325.87872	30677.6625
330.08145	30051.3625
334.28114	29849.2625
338.47781	30079.4625
342.67145	30447.5625
346.86207	31016.0625
351.04966	31829.9625
355.23424	32682.0625
359.4158	33402.6625
363.59435	33935.5625
367.76989	34189.0625
371.94243	34301.1625
376.11196	34399.6625
380.27849	34399.0625
384.44203	34516.6625
388.60257	34639.0625
392.76012	34989.6625
396.91468	35525.7625
401.06626	36251.5625
405.21485	36744.9625
409.36047	36565.4625
413.50311	35861.6625
417.64277	35270.6625
421.77947	35238.3625
425.9132	35417.9625
430.04396	35660.5625
434.17176	35795.3625
438.2966	35882.1625
442.41849	36323.1625
446.53742	37177.4625
450.6534	38344.1625
454.76644	39302.0625
458.87653	39702.7625
462.98368	39487.0625
467.08789	39012.3625
471.18916	38307.7625
475.2875	37753.1625
479.38291	37641.9625
483.4754	37642.3625
487.56496	37386.6625
491.6516	36852.5625
495.73531	36277.3625
499.81612	35941.0625
503.89401	36021.8625
507.96899	36121.1625
512.04106	35895.2625
516.11023	35411.0625
520.1765	34873.1625
524.23987	34279.4625
528.30034	33726.3625
532.35792	33212.5625
536.41261	32629.5625
540.46441	32105.7625
544.51333	32078.7625
548.55936	32684.4625
552.60252	33826.5625
556.64279	34899.8625
560.6802	35643.8625
564.71473	36102.9625
568.7464	37006.5625
572.7752	38399.3625
576.80114	39478.8625
580.82422	40441.3625
584.84444	41312.6625
588.86181	41718.0625
592.87633	42093.8625
596.888	42117.6625
600.89682	41880.5625
604.9028	43346.3625
608.90594	48231.4625
612.90624	53510.0625
616.90371	49862.6625
620.89834	39641.3625
624.89015	35042.0625
628.87913	34578.9625
632.86528	34675.7625
636.84862	34361.3625
640.82913	33497.3625
644.80683	32188.5625
648.78172	31193.2625
652.75379	30951.0625
656.72306	31445.1625
660.68952	32318.6625
664.65319	32170.6625
668.61405	31457.2625
672.57211	31134.9625
676.52738	31135.8625
680.47986	31066.8625
684.42955	30812.2625
688.37646	30654.6625
692.32058	30916.1625
696.26192	31359.7625
700.20048	31917.5625
704.13626	32317.7625
708.06928	32278.4625
711.99952	31994.3625
715.927	31830.7625
719.85171	31936.3625
723.77365	31793.5625
727.69284	31212.5625
731.60928	30633.7625
735.52295	30507.8625
739.43388	30548.9625
743.34206	30718.3625
747.24749	30997.2625
751.15017	31437.6625
755.05012	32211.5625
758.94733	33575.7625
762.8418	35972.5625
766.73354	39815.3625
770.62254	43525.6625
774.50882	44132.4625
778.39237	41415.6625
782.27321	37433.1625
786.15132	34103.3625
790.02671	32164.2625
793.89938	31209.2625
797.76935	30956.7625
801.6366	30900.9625
805.50115	30802.6625
809.36299	30510.9625
813.22213	30146.1625
817.07857	29950.8625
820.93231	29832.8625
824.78336	29659.7625
828.63172	29524.1625
832.47738	29512.6625
836.32036	29546.4625
840.16066	29686.6625
843.99827	29937.9625
847.8332	29879.2625
851.66546	29600.2625
855.49504	29480.7625
859.32195	29439.1625
863.1462	29264.5625
866.96777	29061.7625
870.78668	28964.6625
874.60293	28869.8625
878.41652	28829.6625
882.22745	28971.9625
886.03573	29122.1625
889.84136	29117.1625
893.64433	28994.6625
897.44466	28829.3625
901.24235	28726.2625
905.0374	28576.5625
908.8298	28464.9625
912.61957	28527.7625
916.40671	28910.3625
920.19121	29607.0625
923.97308	30316.3625
927.75233	30666.5625
931.52895	30484.7625
935.30295	29832.9625
939.07433	28930.7625
942.84309	28182.2625
946.60924	27906.5625
950.37278	27847.2625
954.13371	27722.8625
957.89203	27489.3625
961.64774	27416.2625
965.40086	27359.1625
969.15137	27302.1625
972.89929	27110.6625
976.64461	27038.9625
980.38733	27047.7625
984.12747	27149.5625
987.86502	27510.7625
991.59999	27984.9625
995.33237	28804.0625
999.06217	30135.1625
1002.78939	31721.0625
1006.51404	32702.3625
1010.23611	33137.6625
1013.95561	33479.5625
1017.67255	33443.2625
1021.38692	32900.5625
1025.09872	32514.4625
1028.80796	33108.0625
1032.51465	34789.9625
1036.21877	36353.0625
1039.92035	36476.6625
1043.61937	35554.5625
1047.31584	34026.5625
1051.00976	32522.7625
1054.70114	31700.3625
1058.38998	31629.0625
1062.07627	31770.6625
1065.76003	32000.4625
1069.44126	32319.2625
1073.11995	32917.3625
1076.79611	33542.9625
1080.46974	33853.5625
1084.14085	34241.2625
1087.80943	34790.1625
1091.47549	35254.4625
1095.13903	35214.3625
1098.80005	34544.1625
1102.45857	33405.3625
1106.11456	32404.9625
1109.76805	31967.4625
1113.41903	31873.0625
1117.06751	32200.7625
1120.71348	32620.7625
1124.35696	33124.7625
1127.99793	33690.5625
1131.63641	34079.6625
1135.2724	33962.2625
1138.90589	33634.4625
1142.5369	33408.4625
1146.16542	33405.5625
1149.79145	33615.3625
1153.415	33951.4625
1157.03607	34695.6625
1160.65467	35956.8625
1164.27079	37998.9625
1167.88443	40763.1625
1171.49561	44191.1625
1175.10432	48699.6625
1178.71056	54430.0625
1182.31434	59789.7625
1185.91565	62721.5625
1189.51451	62691.9625
1193.11091	60228.3625
1196.70485	56548.7625
1200.29634	53150.2625
1203.88538	50655.8625
1207.47197	48926.2625
1211.05612	47624.0625
1214.63782	46470.3625
1218.21708	45529.0625
1221.79391	44993.7625
1225.36829	44659.1625
1228.94024	44063.3625
1232.50976	42890.4625
1236.07685	41931.4625
1239.6415	41395.7625
1243.20374	41169.4625
1246.76355	41421.5625
1250.32093	42233.6625
1253.8759	43550.2625
1257.42845	45353.9625
1260.97859	47231.5625
1264.52631	48938.3625
1268.07163	50819.5625
1271.61453	52907.3625
1275.15503	55207.7625
1278.69312	57658.4625
1282.22882	59738.4625
1285.76211	61582.0625
1289.29301	63610.2625
1292.82151	66157.2625
1296.34761	69874.0625
1299.87133	74671.8625
1303.39266	80526.7625
1306.9116	86973.8625
1310.42815	92856.3625
1313.94233	96245.7625
1317.45412	96034.8625
1320.96354	93622.1625
1324.47058	91064.1625
1327.97525	89038.8625
1331.47754	87709.6625
1334.97747	86801.2625
1338.47502	85981.7625
1341.97022	84833.2625
1345.46305	83032.5625
1348.95352	80867.0625
1352.44163	79340.2625
1355.92738	80103.1625
1359.41078	84006.9625
1362.89183	88167.2625
1366.37053	87244.3625
1369.84688	79945.1625
1373.32088	70621.4625
1376.79254	63698.9625
1380.26186	60691.0625
1383.72883	60137.4625
1387.19347	59992.2625
1390.65578	59350.2625
1394.11575	59163.1625
1397.57339	60130.3625
1401.0287	61784.4625
1404.48168	63343.2625
1407.93234	63916.7625
1411.38068	62931.4625
1414.82669	60571.1625
1418.27039	57310.6625
1421.71177	54034.1625
1425.15083	51300.3625
1428.58758	49902.4625
1432.02203	50098.2625
1435.45416	51388.3625
1438.88399	53056.5625
1442.31151	54579.3625
1445.73673	55827.5625
1449.15965	56839.8625
1452.58027	57546.9625
1455.9986	57751.0625
1459.41463	58128.2625
1462.82837	59080.2625
1466.23982	60420.2625
1469.64898	61746.7625
1473.05586	62374.9625
1476.46045	62520.5625
1479.86276	62030.5625
1483.26279	61343.4625
1486.66054	61042.2625
1490.05602	61062.4625
1493.44922	61593.2625
1496.84016	62243.9625
1500.22882	63434.0625
1503.61521	65599.1625
1506.99934	68524.6625
1510.38121	71245.9625
1513.76081	72412.4625
1517.13816	70983.3625
1520.51324	68050.8625
1523.88607	64956.4625
1527.25665	62978.1625
1530.62498	62003.4625
1533.99105	61334.3625
1537.35488	60821.0625
1540.71647	59819.6625
1544.07581	58568.9625
1547.4329	56866.9625
1550.78776	55406.5625
1554.14038	54351.7625
1557.49077	53780.6625
1560.83892	53528.8625
1564.18484	53497.9625
1567.52853	53585.8625
1570.86999	53862.6625
1574.20922	54584.4625
1577.54624	55408.9625
1580.88103	55545.1625
1584.2136	55973.2625
1587.54395	58025.6625
1590.87208	62051.2625
1594.19801	67242.8625
1597.52172	72235.3625
1600.84321	73668.3625
1604.16251	69731.5625
1607.47959	62527.4625
1610.79447	55362.1625
1614.10715	49116.9625
1617.41763	44199.0625
1620.7259	40951.8625
1624.03199	39413.4625
1627.33587	39441.1625
1630.63757	41108.7625
1633.93707	44535.5625
1637.23439	50026.1625
1640.52951	57509.9625
1643.82246	65947.3625
1647.11321	72726.7625
1650.40179	73969.5625
1653.68819	68429.2625
1656.97241	58359.0625
1660.25446	48130.8625
1663.53433	40436.4625
1666.81203	35428.1625
1670.08756	32309.9625
1673.36092	30350.6625
1676.63211	29108.2625
1679.90115	28303.9625
1683.16801	27670.8625
1686.43272	27201.2625
1689.69527	26857.1625
1692.95567	26641.1625
1696.2139	26397.6625
1699.46999	26320.5625
1702.72392	26182.5625
1705.97571	26078.0625
1709.22535	25972.2625
1712.47284	25922.1625
1715.71819	25856.3625
1718.96139	25729.5625
1722.20246	25643.7625
1725.44139	25534.9625
1728.67818	25327.8625
1731.91284	25105.8625
1735.14537	24917.3625
1738.37576	24795.5625
1741.60403	24688.4625
1744.83017	24593.2625
1748.05418	24519.6625
1751.27607	24421.5625
1754.49584	24372.3625
1757.71349	24333.9625
1760.92903	24310.0625
1764.14244	24296.6625
1767.35375	24296.3625
1770.56294	24236.9625
1773.77002	24127.5625
1776.97499	24109.0625
1780.17785	24061.3625
1783.37861	24013.7625
1786.57727	23957.8625
1789.77382	23935.6625
1792.96828	23921.6625
1796.16064	23849.7625
1799.3509	23830.1625
1802.53907	23729.6625
1805.72514	23669.2625
1808.90913	23569.3625
1812.09102	23525.6625
1815.27083	23497.7625
1818.44856	23483.3625
1821.6242	23424.6625
1824.79776	23414.5625
1827.96924	23361.9625
1831.13864	23370.0625
1834.30597	23401.1625
1837.47122	23421.2625
1840.6344	23414.7625
1843.7955	23473.3625
1846.95454	23472.4625
1850.11151	23468.6625
1853.26642	23453.5625
1856.41926	23533.3625
1859.57004	23517.5625
1862.71876	23520.8625
1865.86542	23470.7625
1869.01003	23445.6625
1872.15258	23421.8625
1875.29308	23454.2625
1878.43152	23492.3625
1881.56792	23480.6625
1884.70227	23507.4625
1887.83457	23494.5625
1890.96482	23510.7625
1894.09304	23453.7625
1897.21921	23470.0625
1900.34335	23462.1625
1903.46544	23412.3625
1906.58551	23392.1625
1909.70353	23363.9625
1912.81953	23320.6625
1915.93349	23293.3625
1919.04543	23260.6625
1922.15534	23158.2625
1925.26322	23070.0625
1928.36908	22957.5625
1931.47292	22894.2625
1934.57473	22785.3625
1937.67453	22728.0625
1940.77232	22609.1625
1943.86808	22516.1625
1946.96184	22395.0625
1950.05358	22297.6625
1953.14331	22278.6625
1956.23103	22178.7625
1959.31675	22097.2625
1962.40046	22015.4625
1965.48217	21983.0625
1968.56188	21956.3625
1971.63959	21860.5625
1974.7153	21795.6625
1977.78901	21727.0625
1980.86073	21615.0625
1983.93046	21553.7625
1986.99819	21505.0625
1990.06394	21455.3625
1993.1277	21389.5625
1996.18947	21307.0625
1999.24925	21242.4625
2002.30706	21163.4625
2005.36288	21057.7625
2008.41672	21018.2625
2011.46859	20993.4625
2014.51848	20945.4625
2017.56639	20891.6625
2020.61233	20821.4625
2023.6563	20788.0625
2026.6983	20793.3625
2029.73833	20725.9625
2032.7764	20739.5625
2035.8125	20662.9625
2038.84664	20647.8625
2041.87881	20614.4625
2044.90903	20556.1625
2047.93729	20563.6625
2050.96359	20557.6625
2053.98794	20519.3625
2057.01034	20499.5625
2060.03078	20496.9625
2063.04927	20507.3625
2066.06582	20502.0625
2069.08042	20450.2625
2072.09307	20428.4625
2075.10378	20388.0625
2078.11255	20359.2625
2081.11938	20348.0625
2084.12426	20347.2625
2087.12722	20290.3625
2090.12824	20257.0625
2093.12732	20273.1625
2096.12447	20297.9625
2099.11969	20307.4625
2102.11299	20312.0625
2105.10435	20285.0625
2108.09379	20288.3625
2111.08131	20265.7625
2114.0669	20302.4625
2117.05057	20315.1625
2120.03233	20335.3625
2123.01216	20351.0625
2125.99008	20391.7625
2128.96609	20376.3625
2131.94018	20407.1625
2134.91236	20436.7625
2137.88263	20436.5625
2140.851	20418.1625
2143.81746	20457.8625
2146.78201	20436.8625
2149.74466	20455.8625
2152.7054	20403.6625
2155.66425	20453.1625
2158.6212	20377.9625
2161.57625	20396.3625
2164.52941	20368.5625
2167.48067	20360.2625
2170.43004	20379.8625
2173.37752	20381.1625
2176.32311	20345.3625
2179.26681	20391.3625
2182.20863	20374.5625
2185.14856	20387.3625
2188.08661	20390.7625
2191.02278	20411.3625
2193.95707	20426.7625
2196.88948	20377.6625
2199.82001	20381.1625
2202.74867	20359.8625
2205.67545	20388.9625
2208.60037	20357.1625
2211.52341	20341.2625
2214.44458	20407.2625
2217.36388	20302.5625
2220.28132	20327.6625
2223.1969	20245.0625
2226.11061	20279.1625
2229.02246	20178.8625
2231.93245	20205.5625
2234.84058	20100.8625
2237.74686	20094.9625
2240.65128	20066.3625
2243.55385	20034.4625
2246.45456	19960.2625
2249.35343	19947.1625
2252.25044	19897.7625
2255.14561	19857.5625
2258.03893	19869.3625
2260.93041	19819.6625
2263.82004	19783.8625
2266.70783	19748.0625
2269.59378	19661.7625
2272.4779	19585.0625
2275.36017	19568.2625
2278.24061	19531.5625
2281.11922	19478.8625
2283.996	19497.5625
2286.87094	19463.1625
2289.74405	19496.8625
2292.61534	19443.4625
2295.4848	19473.3625
2298.35243	19423.1625
2301.21824	19463.4625
2304.08223	19452.5625
2306.94439	19519.8625
2309.80474	19541.1625
2312.66327	19609.9625
2315.51999	19605.1625
2318.37489	19572.0625
2321.22797	19556.9625
2324.07925	19566.7625
2326.92871	19584.9625
2329.77637	19533.7625
2332.62222	19548.9625
2335.46626	19537.1625
2338.3085	19585.5625
2341.14893	19617.7625
2343.98756	19671.7625
2346.8244	19690.7625
2349.65943	19688.2625
2352.49267	19692.1625
2355.32411	19697.5625
2358.15376	19697.4625
2360.98161	19612.6625
2363.80768	19603.5625
2366.63195	19618.0625
2369.45444	19563.7625
2372.27514	19479.9625
2375.09405	19469.3625
2377.91118	19411.9625
2380.72652	19332.5625
2383.54009	19278.3625
2386.35187	19253.8625
2389.16188	19188.3625
2391.97011	19190.6625
2394.77657	19152.8625
2397.58125	19142.3625
2400.38416	19098.8625
2403.18529	19086.1625
2405.98466	19063.7625
2408.78226	18978.9625
2411.57809	18941.6625
2414.37216	18920.9625
2417.16446	18949.5625
2419.955	18854.5625
2422.74378	18845.6625
2425.5308	18809.1625
2428.31606	18843.4625
2431.09956	18859.3625
2433.88131	18828.8625
2436.6613	18858.9625
2439.43954	18857.6625
2442.21603	18857.4625
2444.99077	18831.9625
2447.76377	18841.1625
2450.53501	18808.6625
2453.30451	18808.9625
2456.07226	18810.5625
2458.83827	18833.1625
2461.60254	18815.0625
2464.36507	18832.1625
2467.12586	18842.4625
2469.88492	18850.9625
2472.64224	18867.2625
2475.39782	18924.4625
2478.15167	18981.1625
2480.90379	18969.8625
2483.65417	19025.3625
2486.40283	18985.2625
2489.14976	19040.1625
2491.89497	19077.2625
2494.63845	19116.4625
2497.3802	19099.0625
2500.12024	19098.9625
2502.85855	19106.0625
2505.59514	19028.8625
2508.33002	19025.9625
2511.06318	18999.1625
2513.79462	18974.5625
2516.52435	18942.9625
2519.25237	18962.2625
2521.97867	18934.2625
2524.70327	18918.1625
2527.42616	18876.5625
2530.14734	18932.0625
2532.86681	18918.4625
2535.58458	18935.1625
2538.30065	18927.3625
2541.01501	18903.9625
2543.72768	18939.8625
2546.43864	18930.7625
2549.14791	18904.8625
2551.85548	18885.0625
2554.56136	18868.0625
2557.26554	18869.9625
2559.96803	18825.9625
2562.66883	18816.1625
2565.36794	18839.2625
2568.06536	18828.4625
2570.7611	18804.6625
2573.45514	18794.6625
2576.14751	18804.9625
2578.83819	18785.6625
2581.52719	18821.0625
2584.21451	18819.8625
2586.90015	18872.9625
2589.58411	18858.2625
2592.2664	18857.9625
2594.94701	18805.7625
2597.62594	18846.7625
2600.30321	18846.4625
2602.9788	18829.5625
2605.65273	18859.1625
2608.32498	18891.7625
2610.99557	18892.7625
2613.66449	18936.5625
2616.33175	18915.3625
2618.99734	18946.6625
2621.66128	18924.0625
2624.32355	18926.2625
2626.98416	18929.2625
2629.64311	18984.9625
2632.30041	18988.0625
2634.95605	18985.1625
2637.61004	18955.0625
2640.26238	18924.3625
2642.91306	18874.7625
2645.56209	18836.7625
2648.20948	18879.2625
2650.85521	18830.8625
2653.4993	18850.1625
2656.14175	18829.0625
2658.78255	18839.3625
2661.42171	18878.9625
2664.05923	18943.8625
2666.6951	18915.6625
2669.32934	18979.5625
2671.96194	18938.6625
2674.59291	18996.1625
2677.22224	18946.5625
2679.84993	18967.2625
2682.476	18946.2625
2685.10043	18900.2625
2687.72324	18842.0625
2690.34441	18800.8625
2692.96396	18817.5625
2695.58188	18807.2625
2698.19818	18795.9625
2700.81285	18803.7625
2703.4259	18798.2625
2706.03733	18854.2625
2708.64714	18812.9625
2711.25533	18830.7625
2713.86191	18813.4625
2716.46687	18847.0625
2719.07021	18873.8625
2721.67194	18910.7625
2724.27206	18903.5625
2726.87057	18923.8625
2729.46747	18946.3625
2732.06276	18911.4625
2734.65644	18927.3625
2737.24852	18943.7625
2739.83899	18904.9625
2742.42786	18903.9625
2745.01513	18873.9625
2747.60079	18887.5625
2750.18486	18851.7625
2752.76733	18865.2625
2755.3482	18830.6625
2757.92747	18854.4625
2760.50515	18816.4625
2763.08123	18845.2625
2765.65573	18815.0625
2768.22863	18817.8625
2770.79994	18824.7625
2773.36967	18884.0625
2775.9378	18902.9625
2778.50435	18876.9625
2781.06932	18911.5625
2783.6327	18921.6625
2786.1945	18922.5625
2788.75471	18950.6625
2791.31335	18888.6625
2793.87041	18858.6625
2796.42589	18798.5625
2798.97979	18786.5625
2801.53212	18765.9625
2804.08288	18722.1625
2806.63206	18681.5625
2809.17967	18683.4625
2811.72571	18663.7625
2814.27018	18648.1625
2816.81308	18553.6625
2819.35442	18556.0625
2821.89419	18554.9625
2824.43239	18584.3625
2826.96904	18610.9625
2829.50412	18613.5625
2832.03763	18546.5625
2834.56959	18522.6625
2837.1	18516.6625
2839.62884	18533.8625
2842.15613	18491.5625
2844.68186	18567.5625
2847.20604	18539.2625
2849.72867	18574.6625
2852.24974	18560.9625
2854.76927	18555.0625
2857.28724	18553.3625
2859.80367	18555.1625
2862.31855	18538.8625
2864.83189	18501.4625
2867.34368	18498.7625
2869.85393	18472.5625
2872.36264	18448.8625
2874.8698	18455.6625
2877.37543	18458.3625
2879.87952	18475.9625
2882.38207	18490.5625
2884.88308	18450.5625
2887.38256	18479.8625
2889.88051	18459.7625
2892.37692	18512.8625
2894.8718	18529.0625
2897.36515	18559.2625
2899.85698	18549.6625
2902.34727	18648.9625
2904.83604	18647.6625
2907.32328	18690.5625
2909.809	18696.3625
2912.29319	18698.3625
2914.77587	18700.6625
2917.25702	18716.5625
2919.73665	18669.2625
2922.21476	18639.6625
2924.69136	18632.6625
2927.16644	18620.2625
2929.64	18561.2625
2932.11205	18547.5625
2934.58258	18481.2625
2937.05161	18505.1625
2939.51912	18466.1625
2941.98513	18459.9625
2944.44962	18403.1625
2946.91261	18342.2625
2949.37409	18373.9625
2951.83407	18334.8625
2954.29254	18296.6625
2956.74951	18263.7625
2959.20498	18272.0625
2961.65895	18229.7625
2964.11142	18180.7625
2966.56239	18191.4625
2969.01186	18133.9625
2971.45984	18128.7625
2973.90632	18122.1625
2976.35131	18060.2625
2978.7948	17995.5625
2981.23681	17978.9625
2983.67732	17946.2625
2986.11635	17906.6625
2988.55388	17872.1625
2990.98993	17810.2625
2993.4245	17743.4625
2995.85758	17686.8625
2998.28917	17678.1625
3000.71928	17610.5625
3003.14791	17574.2625
3005.57506	17568.0625
3008.00073	17478.4625
3010.42493	17506.1625
3012.84764	17463.2625
3015.26888	17445.2625
3017.68865	17396.1625
3020.10694	17375.9625
3022.52376	17336.9625
3024.9391	17309.8625
3027.35298	17313.1625
3029.76539	17301.1625
3032.17632	17271.1625
3034.5858	17216.2625
3036.9938	17226.3625
3039.40034	17202.5625
3041.80542	17209.1625
3044.20903	17211.7625
3046.61118	17200.3625
3049.01187	17144.0625
3051.4111	17128.0625
3053.80888	17100.5625
3056.20519	17100.3625
3058.60005	17027.5625
3060.99345	17004.4625
3063.3854	16921.2625
3065.7759	16844.7625
3068.16494	16813.3625
3070.55254	16760.0625
3072.93868	16740.7625
3075.32338	16674.1625
3077.70662	16648.1625
3080.08842	16596.9625
3082.46878	16590.0625
3084.84769	16540.3625
3087.22515	16529.0625
3089.60118	16560.0625
3091.97576	16542.4625
3094.3489	16512.8625
3096.72061	16533.6625
3099.09087	16525.5625
3101.4597	16485.7625
3103.82709	16510.9625
3106.19305	16479.4625
3108.55757	16445.5625
3110.92066	16391.4625
3113.28232	16422.2625
3115.64255	16349.9625
3118.00134	16324.5625
3120.35871	16264.4625
3122.71466	16252.6625
3125.06917	16218.3625
3127.42226	16157.8625
3129.77393	16139.4625
3132.12417	16117.6625
3134.47299	16109.3625
3136.82039	16128.7625
3139.16636	16109.7625
3141.51092	16107.5625
3143.85406	16096.8625
3146.19579	16078.1625
3148.53609	16083.4625
3150.87499	16045.9625
3153.21246	16075.7625
3155.54853	16097.4625
3157.88318	16091.0625
3160.21642	16098.2625
3162.54826	16101.4625
3164.87868	16067.3625
3167.2077	16086.4625
3169.5353	16079.1625
3171.86151	16081.9625
3174.18631	16080.1625
3176.5097	16038.9625
3178.83169	16032.7625
3181.15228	16030.5625
3183.47147	15981.4625
3185.78926	15977.6625
3188.10565	15980.4625
3190.42065	15975.2625
3192.73424	15938.2625
3195.04645	15954.2625
3197.35725	15967.3625
3199.66667	15932.1625
3201.97469	15947.8625
3204.28132	15895.5625
3206.58656	15925.4625
3208.8904	15918.0625
3211.19287	15919.9625
3213.49394	15943.5625
3215.79363	15931.0625
3218.09193	15951.2625
3220.38884	15932.9625
3222.68438	15967.5625
3224.97853	15932.3625
3227.2713	15921.9625
3229.56269	15935.5625
3231.8527	15916.0625
3234.14133	15899.4625
3236.42858	15837.6625
3238.71446	15885.5625
3240.99896	15822.8625
3243.28209	15824.3625
3245.56384	15805.0625
3247.84423	15810.8625
3250.12324	15793.9625
3252.40088	15748.1625
3254.67715	15710.5625
3256.95205	15698.6625
3259.22558	15730.3625
3261.49775	15675.3625
3263.76855	15672.7625
3266.03799	15630.2625
3268.30606	15598.6625
3270.57277	15586.9625
3272.83812	15543.8625
3275.10211	15506.2625
3277.36474	15481.5625
3279.62601	15478.1625
3281.88593	15462.3625
3284.14448	15498.8625
3286.40168	15523.8625
3288.65753	15506.5625
3290.91202	15477.9625
3293.16516	15437.2625
3295.41695	15415.0625
3297.66738	15324.8625
3299.91647	15265.9625
3302.16421	15165.7625
3304.4106	15080.2625
3306.65564	14962.0625
3308.89933	14897.6625
3311.14169	14796.7625
3313.38269	14648.9625
3315.62236	14606.6625
3317.86068	14429.9625
3320.09766	14313.4625
3322.3333	14245.5625
3324.5676	14181.6625
3326.80056	13933.6625
3329.03219	13884.9625
3331.26248	4.3625
3333.49143	0.1625
3335.71905	-0.8375
