Data from AgNPs_FTO_APTES_UA_5uM_CRN_100uM_R6G_10uM_NaF_0.1M_Addition_RamanShift__29__15-10-06-903.txt Node

Date: Mon Feb 07 15:10:06 GMT 2022
User: TCL
Spectrometer: QEP01345
Trigger mode: 4
Integration Time (sec): 7.000000E0
Scans to average: 10
Electric dark correction enabled: true
Nonlinearity correction enabled: false
Boxcar width: 0
XAxis mode: Raman Shifts
Number of Pixels in Spectrum: 1044
>>>>>Begin Spectral Data<<<<<
46.04893	0.3875
50.45542	-0.6125
54.85868	-0.0125
59.25871	0.0875
63.6555	47.2875
68.04907	49.0875
72.43941	51.6875
76.82654	55.1875
81.21044	56.8875
85.59113	59.7875
89.96862	57.2875
94.34289	61.7875
98.71396	63.5875
103.08183	66.7875
107.4465	66.2875
111.80798	69.1875
116.16626	72.1875
120.52136	76.0875
124.87327	77.9875
129.222	80.0875
133.56755	87.7875
137.90993	96.5875
142.24913	100.4875
146.58517	117.3875
150.91804	132.1875
155.24774	161.6875
159.57429	205.1875
163.89768	258.8875
168.21792	352.6875
172.53501	477.8875
176.84895	655.8875
181.15975	936.4875
185.46741	1296.7875
189.77193	1803.3875
194.07331	2386.8875
198.37157	3103.3875
202.6667	3830.8875
206.9587	4556.8875
211.24758	5304.6875
215.53334	6060.5875
219.81599	6907.3875
224.09553	7840.4875
228.37195	8875.7875
232.64527	10041.1875
236.91549	11165.1875
241.18261	12256.5875
245.44663	13149.0875
249.70755	13887.1875
253.96539	14541.8875
258.22014	15081.4875
262.4718	15587.7875
266.72039	15988.4875
270.96589	16268.6875
275.20832	16322.3875
279.44768	16290.4875
283.68397	16190.9875
287.91719	16210.0875
292.14735	16313.1875
296.37445	16603.7875
300.59849	17072.4875
304.81948	17614.4875
309.03742	17976.6875
313.25231	17837.3875
317.46415	16966.9875
321.67296	15730.0875
325.87872	14654.8875
330.08145	14154.8875
334.28114	14146.8875
338.47781	14347.6875
342.67145	14726.5875
346.86207	15335.2875
351.04966	16193.8875
355.23424	17158.6875
359.4158	17854.9875
363.59435	18154.5875
367.76989	18189.5875
371.94243	18081.0875
376.11196	17947.5875
380.27849	17834.3875
384.44203	17658.3875
388.60257	17437.7875
392.76012	17404.5875
396.91468	17572.3875
401.06626	18034.1875
405.21485	18470.1875
409.36047	18220.9875
413.50311	17332.8875
417.64277	16519.0875
421.77947	16040.8875
425.9132	15888.3875
430.04396	15895.5875
434.17176	15970.3875
438.2966	16114.3875
442.41849	16441.6875
446.53742	16908.9875
450.6534	17374.0875
454.76644	17671.8875
458.87653	17751.7875
462.98368	17651.9875
467.08789	17440.9875
471.18916	17159.8875
475.2875	16864.0875
479.38291	16608.6875
483.4754	16328.9875
487.56496	16152.7875
491.6516	15907.4875
495.73531	15826.6875
499.81612	15857.1875
503.89401	15990.7875
507.96899	16206.2875
512.04106	16370.3875
516.11023	16538.9875
520.1765	16632.5875
524.23987	16561.0875
528.30034	16214.7875
532.35792	15918.0875
536.41261	15661.7875
540.46441	15383.7875
544.51333	15304.0875
548.55936	15465.9875
552.60252	15899.5875
556.64279	16342.9875
560.6802	16573.3875
564.71473	16829.2875
568.7464	17542.2875
572.7752	18031.7875
576.80114	17655.8875
580.82422	17062.1875
584.84444	16831.0875
588.86181	16761.1875
592.87633	16700.3875
596.888	16855.9875
600.89682	17328.8875
604.9028	19044.5875
608.90594	23705.8875
612.90624	30093.1875
616.90371	29080.8875
620.89834	20729.3875
624.89015	16755.1875
628.87913	16038.5875
632.86528	16163.5875
636.84862	16395.5875
640.82913	16135.9875
644.80683	15459.8875
648.78172	15006.1875
652.75379	15005.8875
656.72306	15605.6875
660.68952	16344.4875
664.65319	16257.2875
668.61405	15544.2875
672.57211	15181.4875
676.52738	15170.4875
680.47986	15150.3875
684.42955	15075.1875
688.37646	15042.3875
692.32058	15061.2875
696.26192	15205.2875
700.20048	15411.8875
704.13626	15586.7875
708.06928	15585.1875
711.99952	15450.0875
715.927	15384.8875
719.85171	15394.2875
723.77365	15369.3875
727.69284	15174.6875
731.60928	15020.3875
735.52295	14961.3875
739.43388	14965.7875
743.34206	15064.5875
747.24749	15119.9875
751.15017	15291.9875
755.05012	15659.0875
758.94733	16430.2875
762.8418	18134.2875
766.73354	21032.9875
770.62254	24025.1875
774.50882	25376.4875
778.39237	24194.2875
782.27321	21033.5875
786.15132	18014.2875
790.02671	16301.1875
793.89938	15486.6875
797.76935	15145.2875
801.6366	15007.9875
805.50115	14882.2875
809.36299	14846.8875
813.22213	14780.0875
817.07857	14794.7875
820.93231	14762.3875
824.78336	14810.2875
828.63172	14902.2875
832.47738	14919.9875
836.32036	14857.2875
840.16066	14778.8875
843.99827	14736.3875
847.8332	14653.4875
851.66546	14633.9875
855.49504	14627.1875
859.32195	14553.8875
863.1462	14520.5875
866.96777	14468.2875
870.78668	14444.6875
874.60293	14441.1875
878.41652	14495.5875
882.22745	14546.7875
886.03573	14608.8875
889.84136	14617.1875
893.64433	14537.7875
897.44466	14506.3875
901.24235	14514.0875
905.0374	14491.7875
908.8298	14437.2875
912.61957	14464.6875
916.40671	14567.5875
920.19121	14722.7875
923.97308	14833.1875
927.75233	14904.4875
931.52895	14971.3875
935.30295	14812.2875
939.07433	14413.3875
942.84309	14096.0875
946.60924	13872.4875
950.37278	13737.7875
954.13371	13670.0875
957.89203	13608.0875
961.64774	13604.8875
965.40086	13564.6875
969.15137	13511.1875
972.89929	13480.3875
976.64461	13458.1875
980.38733	13431.8875
984.12747	13476.9875
987.86502	13538.3875
991.59999	13627.7875
995.33237	13731.0875
999.06217	13988.9875
1002.78939	14346.1875
1006.51404	14630.2875
1010.23611	14976.7875
1013.95561	15127.9875
1017.67255	15091.6875
1021.38692	14900.8875
1025.09872	14688.4875
1028.80796	14565.4875
1032.51465	14626.6875
1036.21877	14789.4875
1039.92035	14918.0875
1043.61937	14984.7875
1047.31584	14939.7875
1051.00976	14920.2875
1054.70114	14927.4875
1058.38998	15008.0875
1062.07627	15145.1875
1065.76003	15318.7875
1069.44126	15414.4875
1073.11995	15532.9875
1076.79611	15692.6875
1080.46974	15848.6875
1084.14085	16167.8875
1087.80943	16528.1875
1091.47549	16742.4875
1095.13903	16529.4875
1098.80005	16050.4875
1102.45857	15581.7875
1106.11456	15309.1875
1109.76805	15319.0875
1113.41903	15556.2875
1117.06751	15997.4875
1120.71348	16619.5875
1124.35696	17286.6875
1127.99793	17884.9875
1131.63641	17755.9875
1135.2724	17025.6875
1138.90589	16311.6875
1142.5369	15858.8875
1146.16542	15658.2875
1149.79145	15518.9875
1153.415	15569.9875
1157.03607	15728.7875
1160.65467	16099.3875
1164.27079	16648.3875
1167.88443	17541.6875
1171.49561	18848.1875
1175.10432	21083.0875
1178.71056	23849.4875
1182.31434	25776.9875
1185.91565	26171.1875
1189.51451	25562.0875
1193.11091	24232.5875
1196.70485	22628.8875
1200.29634	21404.7875
1203.88538	20428.7875
1207.47197	19250.1875
1211.05612	18254.1875
1214.63782	17658.8875
1218.21708	17439.1875
1221.79391	17452.4875
1225.36829	17475.7875
1228.94024	17554.5875
1232.50976	17631.6875
1236.07685	17653.9875
1239.6415	17677.6875
1243.20374	17723.7875
1246.76355	17820.2875
1250.32093	18065.8875
1253.8759	18437.1875
1257.42845	18967.2875
1260.97859	19518.3875
1264.52631	20008.2875
1268.07163	20487.0875
1271.61453	20989.4875
1275.15503	21333.4875
1278.69312	21546.0875
1282.22882	21726.7875
1285.76211	22167.8875
1289.29301	22843.7875
1292.82151	23611.4875
1296.34761	24393.7875
1299.87133	25603.9875
1303.39266	27522.0875
1306.9116	30440.6875
1310.42815	33708.6875
1313.94233	35630.4875
1317.45412	35096.0875
1320.96354	33143.5875
1324.47058	30928.5875
1327.97525	29147.7875
1331.47754	28041.4875
1334.97747	27633.7875
1338.47502	27800.8875
1341.97022	28356.0875
1345.46305	29091.1875
1348.95352	30073.7875
1352.44163	31373.1875
1355.92738	33733.9875
1359.41078	37763.8875
1362.89183	41730.7875
1366.37053	40505.0875
1369.84688	34758.1875
1373.32088	29189.2875
1376.79254	25740.3875
1380.26186	24082.6875
1383.72883	23266.9875
1387.19347	22785.8875
1390.65578	22207.4875
1394.11575	21718.1875
1397.57339	21532.4875
1401.0287	21723.2875
1404.48168	21941.9875
1407.93234	22165.1875
1411.38068	22294.3875
1414.82669	22008.9875
1418.27039	21435.3875
1421.71177	20746.6875
1425.15083	20114.1875
1428.58758	19715.3875
1432.02203	19701.3875
1435.45416	19860.6875
1438.88399	19973.2875
1442.31151	20034.2875
1445.73673	20212.8875
1449.15965	20458.3875
1452.58027	20495.0875
1455.9986	20479.8875
1459.41463	20584.9875
1462.82837	20853.4875
1466.23982	21212.4875
1469.64898	21602.3875
1473.05586	21810.1875
1476.46045	21922.8875
1479.86276	22177.7875
1483.26279	22572.2875
1486.66054	23114.8875
1490.05602	23775.2875
1493.44922	24627.8875
1496.84016	26084.8875
1500.22882	28338.1875
1503.61521	31358.6875
1506.99934	34824.0875
1510.38121	38105.8875
1513.76081	39708.4875
1517.13816	38130.3875
1520.51324	34010.7875
1523.88607	29866.2875
1527.25665	27051.2875
1530.62498	25399.1875
1533.99105	24400.9875
1537.35488	23768.6875
1540.71647	23359.6875
1544.07581	23116.6875
1547.4329	22888.1875
1550.78776	22704.4875
1554.14038	22597.6875
1557.49077	22699.1875
1560.83892	23108.7875
1564.18484	23729.3875
1567.52853	24368.8875
1570.86999	24756.3875
1574.20922	25004.3875
1577.54624	24782.0875
1580.88103	23785.8875
1584.2136	22463.0875
1587.54395	21899.0875
1590.87208	22232.7875
1594.19801	23291.7875
1597.52172	24706.1875
1600.84321	25295.3875
1604.16251	24434.5875
1607.47959	22915.0875
1610.79447	21224.2875
1614.10715	19611.9875
1617.41763	18372.9875
1620.7259	17534.1875
1624.03199	17097.6875
1627.33587	17030.7875
1630.63757	17360.4875
1633.93707	18161.6875
1637.23439	19382.3875
1640.52951	21185.7875
1643.82246	23573.1875
1647.11321	26343.2875
1650.40179	28302.5875
1653.68819	27686.3875
1656.97241	24378.0875
1660.25446	20606.9875
1663.53433	17800.6875
1666.81203	16080.8875
1670.08756	15054.6875
1673.36092	14455.2875
1676.63211	14037.5875
1679.90115	13770.5875
1683.16801	13557.2875
1686.43272	13405.7875
1689.69527	13255.1875
1692.95567	13199.7875
1696.2139	13145.9875
1699.46999	13081.8875
1702.72392	13060.1875
1705.97571	13017.9875
1709.22535	12979.6875
1712.47284	12970.6875
1715.71819	12991.1875
1718.96139	13001.9875
1722.20246	12970.9875
1725.44139	12918.2875
1728.67818	12828.7875
1731.91284	12742.2875
1735.14537	12685.1875
1738.37576	12563.4875
1741.60403	12546.3875
1744.83017	12492.2875
1748.05418	12469.0875
1751.27607	12427.5875
1754.49584	12388.4875
1757.71349	12424.8875
1760.92903	12392.0875
1764.14244	12369.2875
1767.35375	12365.4875
1770.56294	12317.7875
1773.77002	12268.3875
1776.97499	12240.1875
1780.17785	12197.9875
1783.37861	12180.6875
1786.57727	12174.0875
1789.77382	12134.2875
1792.96828	12152.1875
1796.16064	12114.5875
1799.3509	12094.2875
1802.53907	12094.5875
1805.72514	12033.1875
1808.90913	12003.6875
1812.09102	11977.5875
1815.27083	11909.5875
1818.44856	11891.1875
1821.6242	11876.1875
1824.79776	11872.4875
1827.96924	11829.7875
1831.13864	11852.9875
1834.30597	11821.9875
1837.47122	11812.3875
1840.6344	11805.5875
1843.7955	11779.6875
1846.95454	11765.1875
1850.11151	11769.5875
1853.26642	11791.3875
1856.41926	11791.2875
1859.57004	11800.7875
1862.71876	11801.3875
1865.86542	11764.1875
1869.01003	11770.2875
1872.15258	11766.7875
1875.29308	11770.6875
1878.43152	11771.5875
1881.56792	11783.3875
1884.70227	11780.8875
1887.83457	11782.1875
1890.96482	11767.9875
1894.09304	11751.0875
1897.21921	11747.6875
1900.34335	11758.1875
1903.46544	11763.0875
1906.58551	11752.2875
1909.70353	11752.7875
1912.81953	11756.9875
1915.93349	11731.0875
1919.04543	11729.4875
1922.15534	11729.1875
1925.26322	11704.8875
1928.36908	11642.6875
1931.47292	11613.3875
1934.57473	11573.7875
1937.67453	11525.9875
1940.77232	11466.4875
1943.86808	11411.7875
1946.96184	11378.5875
1950.05358	11343.4875
1953.14331	11316.1875
1956.23103	11252.4875
1959.31675	11223.7875
1962.40046	11170.7875
1965.48217	11144.3875
1968.56188	11125.7875
1971.63959	11089.1875
1974.7153	11031.0875
1977.78901	11009.5875
1980.86073	10965.5875
1983.93046	10915.5875
1986.99819	10903.6875
1990.06394	10850.5875
1993.1277	10812.6875
1996.18947	10792.4875
1999.24925	10770.5875
2002.30706	10730.4875
2005.36288	10696.4875
2008.41672	10689.1875
2011.46859	10645.4875
2014.51848	10618.2875
2017.56639	10591.0875
2020.61233	10537.1875
2023.6563	10490.5875
2026.6983	10457.4875
2029.73833	10429.3875
2032.7764	10421.2875
2035.8125	10388.5875
2038.84664	10367.2875
2041.87881	10367.9875
2044.90903	10330.2875
2047.93729	10300.7875
2050.96359	10310.2875
2053.98794	10277.6875
2057.01034	10286.6875
2060.03078	10259.8875
2063.04927	10235.9875
2066.06582	10242.7875
2069.08042	10233.3875
2072.09307	10211.8875
2075.10378	10216.7875
2078.11255	10202.9875
2081.11938	10192.9875
2084.12426	10196.7875
2087.12722	10161.6875
2090.12824	10159.1875
2093.12732	10182.6875
2096.12447	10157.3875
2099.11969	10154.9875
2102.11299	10151.7875
2105.10435	10146.3875
2108.09379	10139.8875
2111.08131	10156.0875
2114.0669	10209.8875
2117.05057	10193.5875
2120.03233	10176.9875
2123.01216	10191.6875
2125.99008	10227.1875
2128.96609	10206.6875
2131.94018	10217.2875
2134.91236	10217.7875
2137.88263	10220.1875
2140.851	10221.4875
2143.81746	10253.1875
2146.78201	10223.6875
2149.74466	10195.1875
2152.7054	10192.5875
2155.66425	10187.7875
2158.6212	10182.3875
2161.57625	10189.7875
2164.52941	10162.1875
2167.48067	10158.2875
2170.43004	10154.9875
2173.37752	10151.1875
2176.32311	10164.2875
2179.26681	10163.5875
2182.20863	10158.1875
2185.14856	10145.8875
2188.08661	10140.8875
2191.02278	10171.0875
2193.95707	10141.6875
2196.88948	10115.0875
2199.82001	10121.7875
2202.74867	10088.6875
2205.67545	10083.0875
2208.60037	10072.5875
2211.52341	10059.9875
2214.44458	10047.0875
2217.36388	10025.7875
2220.28132	10016.9875
2223.1969	9960.1875
2226.11061	9945.5875
2229.02246	9929.3875
2231.93245	9923.4875
2234.84058	9876.0875
2237.74686	9858.7875
2240.65128	9841.3875
2243.55385	9830.5875
2246.45456	9818.8875
2249.35343	9816.9875
2252.25044	9807.8875
2255.14561	9792.7875
2258.03893	9809.4875
2260.93041	9797.8875
2263.82004	9777.2875
2266.70783	9745.1875
2269.59378	9732.1875
2272.4779	9678.7875
2275.36017	9651.9875
2278.24061	9658.4875
2281.11922	9619.8875
2283.996	9603.6875
2286.87094	9561.1875
2289.74405	9565.5875
2292.61534	9554.1875
2295.4848	9521.2875
2298.35243	9509.7875
2301.21824	9521.1875
2304.08223	9495.7875
2306.94439	9486.8875
2309.80474	9483.4875
2312.66327	9508.4875
2315.51999	9500.7875
2318.37489	9489.3875
2321.22797	9454.5875
2324.07925	9440.9875
2326.92871	9438.1875
2329.77637	9410.4875
2332.62222	9389.4875
2335.46626	9398.5875
2338.3085	9395.8875
2341.14893	9401.3875
2343.98756	9386.2875
2346.8244	9415.2875
2349.65943	9403.0875
2352.49267	9389.6875
2355.32411	9392.8875
2358.15376	9395.6875
2360.98161	9400.1875
2363.80768	9428.8875
2366.63195	9434.8875
2369.45444	9416.9875
2372.27514	9394.4875
2375.09405	9388.8875
2377.91118	9351.9875
2380.72652	9311.5875
2383.54009	9287.8875
2386.35187	9260.0875
2389.16188	9217.9875
2391.97011	9190.4875
2394.77657	9178.4875
2397.58125	9152.5875
2400.38416	9134.4875
2403.18529	9110.3875
2405.98466	9078.9875
2408.78226	9067.1875
2411.57809	9070.9875
2414.37216	9036.3875
2417.16446	9037.6875
2419.955	9014.7875
2422.74378	9038.4875
2425.5308	9008.9875
2428.31606	8992.7875
2431.09956	8993.6875
2433.88131	9008.6875
2436.6613	9004.3875
2439.43954	8997.9875
2442.21603	8985.4875
2444.99077	8964.9875
2447.76377	8992.3875
2450.53501	8973.3875
2453.30451	8963.9875
2456.07226	8942.1875
2458.83827	8962.7875
2461.60254	8944.3875
2464.36507	8937.2875
2467.12586	8906.6875
2469.88492	8903.3875
2472.64224	8926.9875
2475.39782	8939.1875
2478.15167	8948.5875
2480.90379	8927.3875
2483.65417	8931.1875
2486.40283	8959.4875
2489.14976	8982.2875
2491.89497	8986.0875
2494.63845	8997.9875
2497.3802	9011.3875
2500.12024	8988.7875
2502.85855	8969.7875
2505.59514	8917.4875
2508.33002	8904.9875
2511.06318	8880.1875
2513.79462	8848.4875
2516.52435	8842.1875
2519.25237	8820.9875
2521.97867	8783.7875
2524.70327	8762.9875
2527.42616	8752.1875
2530.14734	8756.6875
2532.86681	8747.7875
2535.58458	8729.0875
2538.30065	8720.4875
2541.01501	8721.4875
2543.72768	8712.6875
2546.43864	8704.6875
2549.14791	8682.9875
2551.85548	8691.4875
2554.56136	8682.0875
2557.26554	8658.3875
2559.96803	8636.0875
2562.66883	8633.1875
2565.36794	8618.0875
2568.06536	8601.4875
2570.7611	8585.2875
2573.45514	8571.1875
2576.14751	8551.2875
2578.83819	8537.3875
2581.52719	8538.1875
2584.21451	8532.9875
2586.90015	8523.0875
2589.58411	8501.1875
2592.2664	8506.5875
2594.94701	8470.9875
2597.62594	8510.3875
2600.30321	8466.6875
2602.9788	8477.3875
2605.65273	8459.5875
2608.32498	8457.1875
2610.99557	8449.6875
2613.66449	8459.5875
2616.33175	8454.4875
2618.99734	8452.8875
2621.66128	8422.3875
2624.32355	8409.2875
2626.98416	8404.2875
2629.64311	8396.7875
2632.30041	8395.7875
2634.95605	8380.4875
2637.61004	8356.6875
2640.26238	8333.2875
2642.91306	8330.1875
2645.56209	8321.6875
2648.20948	8332.2875
2650.85521	8326.2875
2653.4993	8321.4875
2656.14175	8319.2875
2658.78255	8328.2875
2661.42171	8339.1875
2664.05923	8342.4875
2666.6951	8333.6875
2669.32934	8346.5875
2671.96194	8370.5875
2674.59291	8364.3875
2677.22224	8348.3875
2679.84993	8387.4875
2682.476	8354.8875
2685.10043	8339.2875
2687.72324	8352.1875
2690.34441	8336.9875
2692.96396	8323.0875
2695.58188	8336.1875
2698.19818	8338.1875
2700.81285	8344.1875
2703.4259	8367.8875
2706.03733	8418.7875
2708.64714	8369.6875
2711.25533	8372.4875
2713.86191	8352.6875
2716.46687	8377.0875
2719.07021	8397.5875
2721.67194	8380.7875
2724.27206	8378.7875
2726.87057	8374.2875
2729.46747	8365.1875
2732.06276	8378.5875
2734.65644	8339.0875
2737.24852	8346.4875
2739.83899	8339.9875
2742.42786	8320.9875
2745.01513	8307.0875
2747.60079	8294.6875
2750.18486	8281.4875
2752.76733	8265.3875
2755.3482	8251.9875
2757.92747	8255.5875
2760.50515	8240.6875
2763.08123	8241.2875
2765.65573	8234.3875
2768.22863	8225.1875
2770.79994	8208.0875
2773.36967	8204.6875
2775.9378	8207.9875
2778.50435	8191.7875
2781.06932	8188.8875
2783.6327	8198.5875
2786.1945	8196.8875
2788.75471	8197.0875
2791.31335	8174.7875
2793.87041	8165.1875
2796.42589	8144.6875
2798.97979	8129.7875
2801.53212	8119.9875
2804.08288	8101.9875
2806.63206	8090.5875
2809.17967	8099.1875
2811.72571	8059.5875
2814.27018	8088.5875
2816.81308	8060.8875
2819.35442	8057.7875
2821.89419	8064.4875
2824.43239	8071.8875
2826.96904	8077.3875
2829.50412	8067.0875
2832.03763	8055.9875
2834.56959	8054.8875
2837.1	8086.5875
2839.62884	8093.1875
2842.15613	8108.8875
2844.68186	8178.1875
2847.20604	8221.7875
2849.72867	8270.1875
2852.24974	8293.0875
2854.76927	8305.2875
2857.28724	8298.4875
2859.80367	8266.8875
2862.31855	8229.2875
2864.83189	8215.3875
2867.34368	8206.1875
2869.85393	8197.1875
2872.36264	8189.9875
2874.8698	8177.7875
2877.37543	8161.9875
2879.87952	8152.5875
2882.38207	8156.4875
2884.88308	8135.2875
2887.38256	8142.5875
2889.88051	8127.0875
2892.37692	8146.0875
2894.8718	8124.2875
2897.36515	8137.7875
2899.85698	8160.0875
2902.34727	8150.0875
2904.83604	8162.9875
2907.32328	8173.2875
2909.809	8160.7875
2912.29319	8153.7875
2914.77587	8148.9875
2917.25702	8146.0875
2919.73665	8142.3875
2922.21476	8151.0875
2924.69136	8129.8875
2927.16644	8132.2875
2929.64	8110.4875
2932.11205	8067.5875
2934.58258	8039.0875
2937.05161	8051.9875
2939.51912	8044.9875
2941.98513	7991.4875
2944.44962	7954.0875
2946.91261	7897.4875
2949.37409	7884.8875
2951.83407	7863.0875
2954.29254	7835.2875
2956.74951	7829.8875
2959.20498	7808.0875
2961.65895	7784.2875
2964.11142	7799.5875
2966.56239	7756.9875
2969.01186	7763.5875
2971.45984	7717.6875
2973.90632	7716.0875
2976.35131	7696.9875
2978.7948	7682.8875
2981.23681	7660.9875
2983.67732	7655.2875
2986.11635	7623.3875
2988.55388	7605.6875
2990.98993	7579.1875
2993.4245	7549.7875
2995.85758	7549.0875
2998.28917	7498.0875
3000.71928	7508.0875
3003.14791	7483.8875
3005.57506	7469.6875
3008.00073	7457.6875
3010.42493	7352.7875
3012.84764	7442.0875
3015.26888	7442.5875
3017.68865	7406.8875
3020.10694	7412.4875
3022.52376	7404.8875
3024.9391	7381.6875
3027.35298	7377.9875
3029.76539	7360.7875
3032.17632	7354.7875
3034.5858	7338.1875
3036.9938	7337.6875
3039.40034	7302.0875
3041.80542	7305.4875
3044.20903	7310.7875
3046.61118	7304.3875
3049.01187	7279.6875
3051.4111	7266.3875
3053.80888	7230.7875
3056.20519	7208.7875
3058.60005	7210.0875
3060.99345	7208.8875
3063.3854	7180.1875
3065.7759	7142.6875
3068.16494	7141.1875
3070.55254	7104.8875
3072.93868	7100.8875
3075.32338	7055.1875
3077.70662	7056.4875
3080.08842	7029.9875
3082.46878	7013.2875
3084.84769	7009.9875
3087.22515	6990.2875
3089.60118	6998.6875
3091.97576	6991.0875
3094.3489	6967.1875
3096.72061	6975.1875
3099.09087	6940.2875
3101.4597	6961.8875
3103.82709	6950.8875
3106.19305	6944.2875
3108.55757	6946.8875
3110.92066	6927.7875
3113.28232	6918.3875
3115.64255	6884.9875
3118.00134	6895.4875
3120.35871	6858.2875
3122.71466	6881.9875
3125.06917	6851.2875
3127.42226	6827.0875
3129.77393	6838.5875
3132.12417	6843.3875
3134.47299	6830.9875
3136.82039	6845.3875
3139.16636	6817.6875
3141.51092	6825.6875
3143.85406	6794.5875
3146.19579	6815.8875
3148.53609	6821.1875
3150.87499	6811.6875
3153.21246	6822.6875
3155.54853	6846.1875
3157.88318	6836.8875
3160.21642	6837.7875
3162.54826	6842.7875
3164.87868	6847.8875
3167.2077	6838.7875
3169.5353	6817.3875
3171.86151	6833.8875
3174.18631	6829.8875
3176.5097	6823.3875
3178.83169	6800.8875
3181.15228	6824.0875
3183.47147	6810.3875
3185.78926	6786.7875
3188.10565	6790.6875
3190.42065	6788.4875
3192.73424	6777.5875
3195.04645	6771.9875
3197.35725	6771.3875
3199.66667	6738.8875
3201.97469	6765.6875
3204.28132	6774.3875
3206.58656	6794.7875
3208.8904	6783.8875
3211.19287	6792.2875
3213.49394	6784.5875
3215.79363	6808.7875
3218.09193	6787.5875
3220.38884	6822.9875
3222.68438	6815.5875
3224.97853	6774.9875
3227.2713	6792.0875
3229.56269	6773.6875
3231.8527	6747.7875
3234.14133	6763.7875
3236.42858	6720.9875
3238.71446	6704.3875
3240.99896	6712.4875
3243.28209	6703.2875
3245.56384	6680.2875
3247.84423	6666.2875
3250.12324	6694.1875
3252.40088	6668.3875
3254.67715	6670.2875
3256.95205	6654.0875
3259.22558	6654.9875
3261.49775	6647.8875
3263.76855	6646.3875
3266.03799	6636.2875
3268.30606	6626.1875
3270.57277	6603.1875
3272.83812	6578.7875
3275.10211	6582.9875
3277.36474	6531.5875
3279.62601	6532.1875
3281.88593	6540.8875
3284.14448	6526.3875
3286.40168	6541.8875
3288.65753	6540.2875
3290.91202	6521.7875
3293.16516	6512.6875
3295.41695	6497.5875
3297.66738	6450.2875
3299.91647	6407.2875
3302.16421	6374.7875
3304.4106	6356.4875
3306.65564	6305.4875
3308.89933	6252.8875
3311.14169	6214.2875
3313.38269	6165.8875
3315.62236	6123.5875
3317.86068	6085.7875
3320.09766	6023.2875
3322.3333	5990.5875
3324.5676	5974.3875
3326.80056	5875.6875
3329.03219	5838.6875
3331.26248	1.0875
3333.49143	-0.7125
3335.71905	-1.0125
