Data from AgNPs_FTO_APTES_UA_5uM_CRN_1uM_R6G_10uM_NaF_0.1M_Addition_RamanShift__23__10-44-06-595.txt Node

Date: Mon Feb 07 10:44:06 GMT 2022
User: TCL
Spectrometer: QEP01345
Trigger mode: 4
Integration Time (sec): 7.000000E0
Scans to average: 10
Electric dark correction enabled: true
Nonlinearity correction enabled: false
Boxcar width: 0
XAxis mode: Raman Shifts
Number of Pixels in Spectrum: 1044
>>>>>Begin Spectral Data<<<<<
46.04893	-0.375
50.45542	-1.475
54.85868	-0.775
59.25871	0.025
63.6555	98.325
68.04907	102.725
72.43941	106.625
76.82654	110.225
81.21044	115.125
85.59113	120.325
89.96862	124.325
94.34289	124.225
98.71396	133.725
103.08183	139.225
107.4465	140.925
111.80798	142.525
116.16626	148.825
120.52136	149.225
124.87327	158.925
129.222	171.225
133.56755	187.825
137.90993	199.825
142.24913	217.625
146.58517	250.825
150.91804	289.125
155.24774	351.925
159.57429	443.425
163.89768	574.925
168.21792	764.825
172.53501	1049.825
176.84895	1464.125
181.15975	2062.125
185.46741	2885.125
189.77193	3981.325
194.07331	5323.725
198.37157	6845.525
202.6667	8422.725
206.9587	10035.125
211.24758	11632.025
215.53334	13245.525
219.81599	15039.925
224.09553	17019.125
228.37195	19196.925
232.64527	21592.425
236.91549	24096.525
241.18261	26460.925
245.44663	28590.325
249.70755	30364.425
253.96539	31949.025
258.22014	33336.625
262.4718	34526.125
266.72039	35419.125
270.96589	36002.125
275.20832	36190.725
279.44768	36120.925
283.68397	35904.525
287.91719	35721.325
292.14735	35772.625
296.37445	35997.525
300.59849	36378.425
304.81948	36864.925
309.03742	37046.925
313.25231	36673.225
317.46415	35397.325
321.67296	33494.725
325.87872	31911.525
330.08145	31127.125
334.28114	31006.225
338.47781	31275.225
342.67145	31809.925
346.86207	32591.925
351.04966	33674.825
355.23424	34949.825
359.4158	35972.425
363.59435	36577.125
367.76989	36790.925
371.94243	36798.325
376.11196	36748.625
380.27849	36733.325
384.44203	36711.325
388.60257	36695.725
392.76012	36922.625
396.91468	37455.025
401.06626	38310.225
405.21485	39013.625
409.36047	38721.925
413.50311	37637.125
417.64277	36757.625
421.77947	36425.925
425.9132	36469.325
430.04396	36665.025
434.17176	36816.725
438.2966	37102.025
442.41849	37620.025
446.53742	38677.725
450.6534	39949.925
454.76644	40948.925
458.87653	41338.125
462.98368	41095.725
467.08789	40519.725
471.18916	39784.925
475.2875	39095.825
479.38291	38753.425
483.4754	38554.525
487.56496	38226.325
491.6516	37681.525
495.73531	37123.125
499.81612	36833.425
503.89401	36915.425
507.96899	36971.425
512.04106	36936.125
516.11023	36654.325
520.1765	36316.325
524.23987	35916.825
528.30034	35305.125
532.35792	34674.525
536.41261	34011.325
540.46441	33411.925
544.51333	33296.125
548.55936	33871.425
552.60252	34965.125
556.64279	36086.425
560.6802	36752.325
564.71473	37262.625
568.7464	38384.525
572.7752	39743.825
576.80114	40315.725
580.82422	40649.125
584.84444	41051.525
588.86181	41302.325
592.87633	41762.325
596.888	42306.025
600.89682	42800.125
604.9028	44990.125
608.90594	51588.825
612.90624	59444.925
616.90371	56096.125
620.89834	43167.525
624.89015	37138.025
628.87913	36326.125
632.86528	36462.725
636.84862	36171.525
640.82913	35224.525
644.80683	33692.425
648.78172	32504.825
652.75379	32290.625
656.72306	33036.325
660.68952	34205.225
664.65319	34146.225
668.61405	33246.525
672.57211	32692.825
676.52738	32659.725
680.47986	32596.125
684.42955	32339.225
688.37646	32225.825
692.32058	32404.925
696.26192	32790.525
700.20048	33259.425
704.13626	33680.625
708.06928	33708.225
711.99952	33340.225
715.927	33145.225
719.85171	33136.125
723.77365	32954.325
727.69284	32410.125
731.60928	31933.325
735.52295	31847.725
739.43388	31986.525
743.34206	32200.325
747.24749	32419.125
751.15017	32901.125
755.05012	33702.725
758.94733	35193.625
762.8418	38116.825
766.73354	42820.125
770.62254	47559.025
774.50882	48907.525
778.39237	46016.725
782.27321	40941.625
786.15132	36642.225
790.02671	34033.625
793.89938	32843.425
797.76935	32402.625
801.6366	32260.425
805.50115	32086.925
809.36299	31764.025
813.22213	31528.225
817.07857	31438.925
820.93231	31391.825
824.78336	31332.725
828.63172	31322.825
832.47738	31334.025
836.32036	31394.025
840.16066	31539.625
843.99827	31665.025
847.8332	31604.825
851.66546	31361.125
855.49504	31218.325
859.32195	31160.425
863.1462	30936.525
866.96777	30709.025
870.78668	30547.025
874.60293	30490.125
878.41652	30447.425
882.22745	30618.525
886.03573	30771.625
889.84136	30721.325
893.64433	30518.525
897.44466	30426.225
901.24235	30321.025
905.0374	30201.325
908.8298	30142.325
912.61957	30226.025
916.40671	30579.925
920.19121	31253.725
923.97308	31979.925
927.75233	32406.025
931.52895	32368.825
935.30295	31799.925
939.07433	30731.525
942.84309	29978.625
946.60924	29644.025
950.37278	29506.125
954.13371	29247.725
957.89203	28998.025
961.64774	28863.425
965.40086	28766.925
969.15137	28681.825
972.89929	28580.425
976.64461	28487.925
980.38733	28542.125
984.12747	28673.925
987.86502	29042.425
991.59999	29590.925
995.33237	30487.225
999.06217	31996.425
1002.78939	33758.625
1006.51404	34940.325
1010.23611	35569.825
1013.95561	35907.525
1017.67255	35741.325
1021.38692	35202.725
1025.09872	34842.525
1028.80796	35522.125
1032.51465	37397.625
1036.21877	39051.025
1039.92035	39227.325
1043.61937	38154.825
1047.31584	36495.125
1051.00976	34687.525
1054.70114	33687.725
1058.38998	33424.825
1062.07627	33462.925
1065.76003	33714.125
1069.44126	33980.925
1073.11995	34540.225
1076.79611	35104.925
1080.46974	35424.625
1084.14085	35852.325
1087.80943	36546.525
1091.47549	36981.025
1095.13903	36809.325
1098.80005	35928.725
1102.45857	34717.825
1106.11456	33825.125
1109.76805	33505.525
1113.41903	33687.825
1117.06751	34197.225
1120.71348	34893.825
1124.35696	35635.225
1127.99793	36436.825
1131.63641	36739.925
1135.2724	36199.925
1138.90589	35480.425
1142.5369	35026.725
1146.16542	34828.525
1149.79145	34777.825
1153.415	35122.625
1157.03607	35741.425
1160.65467	36783.925
1164.27079	38575.925
1167.88443	41211.525
1171.49561	44866.725
1175.10432	49955.825
1178.71056	56511.825
1182.31434	62219.925
1185.91565	65169.925
1189.51451	65152.725
1193.11091	62286.425
1196.70485	58091.925
1200.29634	54179.425
1203.88538	51246.325
1207.47197	48878.325
1211.05612	47084.725
1214.63782	45837.025
1218.21708	45341.225
1221.79391	45396.925
1225.36829	45535.425
1228.94024	45135.925
1232.50976	44199.625
1236.07685	43470.025
1239.6415	42934.525
1243.20374	42740.725
1246.76355	42851.925
1250.32093	43614.525
1253.8759	45000.325
1257.42845	46749.125
1260.97859	48596.425
1264.52631	50227.925
1268.07163	52010.325
1271.61453	53972.825
1275.15503	56228.825
1278.69312	58464.325
1282.22882	60311.125
1285.76211	62086.125
1289.29301	63914.425
1292.82151	66252.125
1296.34761	69404.325
1299.87133	73689.125
1303.39266	79440.725
1306.9116	86463.925
1310.42815	93730.025
1313.94233	98306.025
1317.45412	98152.225
1320.96354	95225.125
1324.47058	91530.525
1327.97525	88250.225
1331.47754	85946.325
1334.97747	84787.025
1338.47502	84342.425
1341.97022	83952.125
1345.46305	83008.825
1348.95352	81590.425
1352.44163	80860.625
1355.92738	82525.725
1359.41078	88009.725
1362.89183	94206.925
1366.37053	93302.025
1369.84688	84074.525
1373.32088	73184.225
1376.79254	65464.825
1380.26186	61838.925
1383.72883	60682.925
1387.19347	60046.925
1390.65578	59335.525
1394.11575	59224.325
1397.57339	60083.125
1401.0287	61716.725
1404.48168	63196.425
1407.93234	64175.125
1411.38068	63883.825
1414.82669	62195.025
1418.27039	59237.625
1421.71177	56010.525
1425.15083	53407.925
1428.58758	51933.225
1432.02203	51782.925
1435.45416	52633.625
1438.88399	53819.925
1442.31151	54886.725
1445.73673	55899.625
1449.15965	56925.225
1452.58027	57653.025
1455.9986	57937.125
1459.41463	58267.125
1462.82837	59104.725
1466.23982	60387.025
1469.64898	61636.925
1473.05586	62278.725
1476.46045	62338.325
1479.86276	62258.225
1483.26279	62186.625
1486.66054	62423.825
1490.05602	63008.525
1493.44922	64004.825
1496.84016	65188.025
1500.22882	67147.025
1503.61521	70079.425
1506.99934	74066.825
1510.38121	78229.025
1513.76081	80341.425
1517.13816	78719.025
1520.51324	74002.825
1523.88607	69060.825
1527.25665	65528.225
1530.62498	63354.125
1533.99105	62026.925
1537.35488	61170.325
1540.71647	60265.325
1544.07581	59220.525
1547.4329	57930.625
1550.78776	56817.425
1554.14038	56105.425
1557.49077	55867.825
1560.83892	55998.625
1564.18484	56259.525
1567.52853	56375.125
1570.86999	56584.325
1574.20922	57130.725
1577.54624	57502.825
1580.88103	57120.025
1584.2136	56783.625
1587.54395	58180.025
1590.87208	61678.725
1594.19801	66645.625
1597.52172	71851.925
1600.84321	73678.425
1604.16251	70277.125
1607.47959	63546.625
1610.79447	56609.525
1614.10715	50437.925
1617.41763	45628.625
1620.7259	42536.025
1624.03199	41028.225
1627.33587	41090.125
1630.63757	42782.525
1633.93707	46073.025
1637.23439	51007.625
1640.52951	57590.325
1643.82246	65148.125
1647.11321	71483.425
1650.40179	73566.825
1653.68819	69239.525
1656.97241	59754.425
1660.25446	49544.725
1663.53433	41844.225
1666.81203	36857.125
1670.08756	33810.925
1673.36092	31956.125
1676.63211	30746.725
1679.90115	29916.025
1683.16801	29325.725
1686.43272	28865.425
1689.69527	28590.425
1692.95567	28303.225
1696.2139	28184.625
1699.46999	28050.625
1702.72392	27920.725
1705.97571	27847.425
1709.22535	27788.125
1712.47284	27695.025
1715.71819	27665.725
1718.96139	27596.125
1722.20246	27499.825
1725.44139	27423.325
1728.67818	27209.925
1731.91284	26972.725
1735.14537	26801.625
1738.37576	26643.225
1741.60403	26539.525
1744.83017	26400.525
1748.05418	26332.725
1751.27607	26293.725
1754.49584	26221.325
1757.71349	26175.425
1760.92903	26144.125
1764.14244	26176.025
1767.35375	26152.125
1770.56294	26116.825
1773.77002	26039.925
1776.97499	25982.325
1780.17785	25891.725
1783.37861	25875.225
1786.57727	25827.225
1789.77382	25782.325
1792.96828	25751.725
1796.16064	25744.925
1799.3509	25686.325
1802.53907	25656.725
1805.72514	25583.125
1808.90913	25452.625
1812.09102	25443.625
1815.27083	25362.225
1818.44856	25346.325
1821.6242	25300.125
1824.79776	25288.125
1827.96924	25275.425
1831.13864	25211.925
1834.30597	25251.725
1837.47122	25245.425
1840.6344	25288.625
1843.7955	25285.725
1846.95454	25347.425
1850.11151	25308.025
1853.26642	25290.625
1856.41926	25342.625
1859.57004	25367.725
1862.71876	25359.025
1865.86542	25368.725
1869.01003	25335.725
1872.15258	25332.525
1875.29308	25363.325
1878.43152	25415.025
1881.56792	25471.325
1884.70227	25480.925
1887.83457	25459.725
1890.96482	25477.225
1894.09304	25523.425
1897.21921	25530.225
1900.34335	25507.925
1903.46544	25499.525
1906.58551	25511.625
1909.70353	25486.625
1912.81953	25461.925
1915.93349	25473.725
1919.04543	25423.425
1922.15534	25358.725
1925.26322	25265.125
1928.36908	25163.925
1931.47292	25057.725
1934.57473	24884.825
1937.67453	24784.325
1940.77232	24671.925
1943.86808	24542.225
1946.96184	24415.125
1950.05358	24324.625
1953.14331	24251.125
1956.23103	24140.025
1959.31675	24036.825
1962.40046	23994.125
1965.48217	23896.125
1968.56188	23865.125
1971.63959	23795.425
1974.7153	23735.325
1977.78901	23646.425
1980.86073	23588.325
1983.93046	23444.325
1986.99819	23395.925
1990.06394	23310.725
1993.1277	23225.825
1996.18947	23132.125
1999.24925	23076.325
2002.30706	22982.125
2005.36288	22934.425
2008.41672	22849.625
2011.46859	22811.225
2014.51848	22769.425
2017.56639	22713.525
2020.61233	22607.725
2023.6563	22568.125
2026.6983	22540.025
2029.73833	22497.625
2032.7764	22475.325
2035.8125	22478.925
2038.84664	22423.925
2041.87881	22429.725
2044.90903	22368.225
2047.93729	22329.325
2050.96359	22294.625
2053.98794	22302.025
2057.01034	22272.025
2060.03078	22237.125
2063.04927	22264.025
2066.06582	22238.725
2069.08042	22188.125
2072.09307	22168.125
2075.10378	22154.825
2078.11255	22070.125
2081.11938	22095.525
2084.12426	22017.725
2087.12722	22018.625
2090.12824	22008.025
2093.12732	22013.825
2096.12447	22017.425
2099.11969	21982.225
2102.11299	22003.525
2105.10435	22001.625
2108.09379	21972.625
2111.08131	21976.825
2114.0669	22003.225
2117.05057	22009.725
2120.03233	22025.125
2123.01216	22078.825
2125.99008	22077.325
2128.96609	22112.525
2131.94018	22076.325
2134.91236	22111.425
2137.88263	22162.425
2140.851	22141.625
2143.81746	22177.225
2146.78201	22160.625
2149.74466	22133.725
2152.7054	22145.225
2155.66425	22111.525
2158.6212	22118.425
2161.57625	22104.425
2164.52941	22116.725
2167.48067	22067.625
2170.43004	22078.125
2173.37752	22067.025
2176.32311	22077.425
2179.26681	22068.225
2182.20863	22053.625
2185.14856	22078.025
2188.08661	22101.725
2191.02278	22130.325
2193.95707	22118.525
2196.88948	22097.125
2199.82001	22090.425
2202.74867	22110.125
2205.67545	22086.625
2208.60037	22083.325
2211.52341	22081.925
2214.44458	22067.525
2217.36388	22067.425
2220.28132	22018.425
2223.1969	21972.625
2226.11061	21984.425
2229.02246	21924.325
2231.93245	21867.625
2234.84058	21828.725
2237.74686	21771.325
2240.65128	21751.025
2243.55385	21734.625
2246.45456	21688.125
2249.35343	21695.725
2252.25044	21634.225
2255.14561	21559.225
2258.03893	21533.425
2260.93041	21508.925
2263.82004	21486.225
2266.70783	21453.525
2269.59378	21335.025
2272.4779	21277.625
2275.36017	21188.625
2278.24061	21215.625
2281.11922	21178.225
2283.996	21152.725
2286.87094	21160.325
2289.74405	21108.625
2292.61534	21109.925
2295.4848	21062.625
2298.35243	21087.625
2301.21824	21106.425
2304.08223	21135.625
2306.94439	21157.525
2309.80474	21247.325
2312.66327	21278.725
2315.51999	21298.025
2318.37489	21256.425
2321.22797	21224.725
2324.07925	21251.825
2326.92871	21251.025
2329.77637	21257.925
2332.62222	21182.625
2335.46626	21282.725
2338.3085	21256.625
2341.14893	21280.925
2343.98756	21353.125
2346.8244	21373.425
2349.65943	21413.525
2352.49267	21423.925
2355.32411	21435.525
2358.15376	21363.225
2360.98161	21325.625
2363.80768	21269.525
2366.63195	21333.825
2369.45444	21249.025
2372.27514	21217.225
2375.09405	21135.725
2377.91118	21067.125
2380.72652	21003.725
2383.54009	20904.225
2386.35187	20876.425
2389.16188	20843.725
2391.97011	20843.225
2394.77657	20802.125
2397.58125	20776.625
2400.38416	20706.625
2403.18529	20700.625
2405.98466	20668.525
2408.78226	20566.825
2411.57809	20505.225
2414.37216	20506.125
2417.16446	20479.525
2419.955	20432.125
2422.74378	20433.725
2425.5308	20377.325
2428.31606	20378.425
2431.09956	20384.125
2433.88131	20358.325
2436.6613	20403.225
2439.43954	20438.525
2442.21603	20393.625
2444.99077	20384.925
2447.76377	20382.125
2450.53501	20332.825
2453.30451	20365.625
2456.07226	20345.325
2458.83827	20312.825
2461.60254	20357.725
2464.36507	20364.025
2467.12586	20358.925
2469.88492	20346.725
2472.64224	20395.625
2475.39782	20423.625
2478.15167	20513.925
2480.90379	20469.625
2483.65417	20503.725
2486.40283	20575.525
2489.14976	20612.625
2491.89497	20641.025
2494.63845	20658.425
2497.3802	20668.525
2500.12024	20654.925
2502.85855	20653.825
2505.59514	20600.625
2508.33002	20547.725
2511.06318	20556.425
2513.79462	20466.225
2516.52435	20465.725
2519.25237	20464.925
2521.97867	20430.525
2524.70327	20418.625
2527.42616	20382.025
2530.14734	20416.425
2532.86681	20425.125
2535.58458	20428.425
2538.30065	20375.425
2541.01501	20431.325
2543.72768	20408.925
2546.43864	20400.525
2549.14791	20343.325
2551.85548	20375.225
2554.56136	20328.925
2557.26554	20316.025
2559.96803	20316.425
2562.66883	20279.125
2565.36794	20305.325
2568.06536	20279.525
2570.7611	20291.125
2573.45514	20269.025
2576.14751	20214.025
2578.83819	20227.525
2581.52719	20270.825
2584.21451	20271.525
2586.90015	20309.925
2589.58411	20291.125
2592.2664	20326.525
2594.94701	20305.325
2597.62594	20291.725
2600.30321	20271.325
2602.9788	20264.525
2605.65273	20301.625
2608.32498	20317.025
2610.99557	20345.325
2613.66449	20357.425
2616.33175	20365.825
2618.99734	20378.925
2621.66128	20395.025
2624.32355	20399.325
2626.98416	20378.725
2629.64311	20420.725
2632.30041	20438.825
2634.95605	20456.325
2637.61004	20392.125
2640.26238	20360.725
2642.91306	20312.025
2645.56209	20296.225
2648.20948	20221.325
2650.85521	20198.125
2653.4993	20233.425
2656.14175	20238.325
2658.78255	20245.825
2661.42171	20231.625
2664.05923	20301.825
2666.6951	20309.925
2669.32934	20346.425
2671.96194	20376.525
2674.59291	20395.225
2677.22224	20366.325
2679.84993	20421.525
2682.476	20340.125
2685.10043	20308.425
2687.72324	20244.725
2690.34441	20237.725
2692.96396	20178.225
2695.58188	20189.725
2698.19818	20190.425
2700.81285	20172.425
2703.4259	20143.125
2706.03733	20205.025
2708.64714	20179.925
2711.25533	20207.725
2713.86191	20173.725
2716.46687	20199.325
2719.07021	20182.825
2721.67194	20218.925
2724.27206	20244.925
2726.87057	20261.725
2729.46747	20285.325
2732.06276	20280.725
2734.65644	20286.625
2737.24852	20273.125
2739.83899	20278.625
2742.42786	20276.425
2745.01513	20177.225
2747.60079	20206.425
2750.18486	20197.525
2752.76733	20201.825
2755.3482	20156.625
2757.92747	20199.325
2760.50515	20171.925
2763.08123	20177.825
2765.65573	20171.825
2768.22863	20105.125
2770.79994	20148.625
2773.36967	20163.325
2775.9378	20194.325
2778.50435	20200.025
2781.06932	20193.325
2783.6327	20201.425
2786.1945	20197.725
2788.75471	20217.925
2791.31335	20193.825
2793.87041	20185.425
2796.42589	20100.825
2798.97979	20106.925
2801.53212	20057.425
2804.08288	20073.525
2806.63206	19974.725
2809.17967	19960.125
2811.72571	19920.725
2814.27018	19945.625
2816.81308	19873.325
2819.35442	19863.325
2821.89419	19848.125
2824.43239	19908.425
2826.96904	19891.125
2829.50412	19903.925
2832.03763	19856.325
2834.56959	19850.825
2837.1	19817.325
2839.62884	19825.025
2842.15613	19802.925
2844.68186	19894.725
2847.20604	19874.425
2849.72867	19863.425
2852.24974	19910.925
2854.76927	19895.725
2857.28724	19884.725
2859.80367	19889.725
2862.31855	19851.425
2864.83189	19836.925
2867.34368	19796.725
2869.85393	19802.325
2872.36264	19755.225
2874.8698	19761.625
2877.37543	19812.725
2879.87952	19795.625
2882.38207	19753.925
2884.88308	19750.725
2887.38256	19776.125
2889.88051	19773.025
2892.37692	19833.325
2894.8718	19786.525
2897.36515	19821.325
2899.85698	19873.425
2902.34727	19900.325
2904.83604	19931.625
2907.32328	19964.825
2909.809	19962.225
2912.29319	19966.825
2914.77587	19990.025
2917.25702	19955.325
2919.73665	19952.225
2922.21476	19929.525
2924.69136	19880.725
2927.16644	19871.925
2929.64	19812.125
2932.11205	19773.025
2934.58258	19726.225
2937.05161	19671.425
2939.51912	19715.025
2941.98513	19669.925
2944.44962	19625.225
2946.91261	19528.025
2949.37409	19559.525
2951.83407	19521.825
2954.29254	19482.925
2956.74951	19480.325
2959.20498	19453.725
2961.65895	19422.725
2964.11142	19371.325
2966.56239	19355.025
2969.01186	19341.525
2971.45984	19266.225
2973.90632	19272.925
2976.35131	19212.025
2978.7948	19158.125
2981.23681	19127.725
2983.67732	19107.725
2986.11635	19081.325
2988.55388	19002.625
2990.98993	18967.825
2993.4245	18887.425
2995.85758	18816.325
2998.28917	18770.225
3000.71928	18760.525
3003.14791	18735.625
3005.57506	18702.725
3008.00073	18616.425
3010.42493	18623.725
3012.84764	18567.925
3015.26888	18552.825
3017.68865	18507.725
3020.10694	18475.925
3022.52376	18455.125
3024.9391	18409.225
3027.35298	18375.125
3029.76539	18376.425
3032.17632	18377.425
3034.5858	18316.225
3036.9938	18245.725
3039.40034	18261.825
3041.80542	18286.825
3044.20903	18262.225
3046.61118	18241.325
3049.01187	18216.025
3051.4111	18176.825
3053.80888	18152.225
3056.20519	18135.625
3058.60005	18072.825
3060.99345	18011.225
3063.3854	17959.025
3065.7759	17857.625
3068.16494	17819.525
3070.55254	17780.225
3072.93868	17728.725
3075.32338	17681.025
3077.70662	17648.725
3080.08842	17564.425
3082.46878	17526.625
3084.84769	17519.125
3087.22515	17479.125
3089.60118	17507.525
3091.97576	17523.225
3094.3489	17487.425
3096.72061	17495.725
3099.09087	17482.325
3101.4597	17435.625
3103.82709	17454.125
3106.19305	17426.025
3108.55757	17380.725
3110.92066	17350.025
3113.28232	17348.425
3115.64255	17277.825
3118.00134	17239.725
3120.35871	17228.625
3122.71466	17171.525
3125.06917	17104.525
3127.42226	17062.025
3129.77393	17073.925
3132.12417	17009.825
3134.47299	17033.225
3136.82039	16993.925
3139.16636	17010.725
3141.51092	17016.225
3143.85406	16994.625
3146.19579	16973.325
3148.53609	16981.325
3150.87499	16980.825
3153.21246	16954.625
3155.54853	16979.625
3157.88318	16955.125
3160.21642	16993.925
3162.54826	17006.825
3164.87868	16972.325
3167.2077	16966.525
3169.5353	16954.325
3171.86151	16954.025
3174.18631	16947.225
3176.5097	16917.625
3178.83169	16907.925
3181.15228	16888.925
3183.47147	16832.525
3185.78926	16855.525
3188.10565	16826.425
3190.42065	16831.025
3192.73424	16790.625
3195.04645	16793.425
3197.35725	16785.325
3199.66667	16791.225
3201.97469	16784.625
3204.28132	16803.825
3206.58656	16776.925
3208.8904	16770.425
3211.19287	16819.325
3213.49394	16815.125
3215.79363	16825.225
3218.09193	16795.425
3220.38884	16815.925
3222.68438	16814.825
3224.97853	16812.925
3227.2713	16771.625
3229.56269	16761.625
3231.8527	16782.225
3234.14133	16733.825
3236.42858	16719.325
3238.71446	16707.425
3240.99896	16655.925
3243.28209	16664.325
3245.56384	16646.725
3247.84423	16626.925
3250.12324	16603.525
3252.40088	16568.625
3254.67715	16583.125
3256.95205	16556.025
3259.22558	16553.725
3261.49775	16508.425
3263.76855	16505.125
3266.03799	16460.325
3268.30606	16420.125
3270.57277	16388.125
3272.83812	16374.725
3275.10211	16309.825
3277.36474	16285.025
3279.62601	16310.225
3281.88593	16275.625
3284.14448	16288.025
3286.40168	16287.725
3288.65753	16281.425
3290.91202	16249.025
3293.16516	16232.125
3295.41695	16190.425
3297.66738	16140.125
3299.91647	16047.925
3302.16421	15960.925
3304.4106	15874.825
3306.65564	15769.425
3308.89933	15634.325
3311.14169	15535.525
3313.38269	15410.025
3315.62236	15349.725
3317.86068	15210.125
3320.09766	15047.325
3322.3333	14981.425
3324.5676	14915.825
3326.80056	14645.425
3329.03219	14593.825
3331.26248	4.425
3333.49143	-0.875
3335.71905	-1.575
