Data from AgNPs_FTO_APTES_UA_5uM_CRN_1uM_R6G_10uM_NaF_0.1M_Addition_RamanShift__3__10-20-46-568.txt Node

Date: Mon Feb 07 10:20:46 GMT 2022
User: TCL
Spectrometer: QEP01345
Trigger mode: 4
Integration Time (sec): 7.000000E0
Scans to average: 10
Electric dark correction enabled: true
Nonlinearity correction enabled: false
Boxcar width: 0
XAxis mode: Raman Shifts
Number of Pixels in Spectrum: 1044
>>>>>Begin Spectral Data<<<<<
46.04893	-0.4875
50.45542	-2.0875
54.85868	-1.2875
59.25871	-0.2875
63.6555	89.6125
68.04907	97.8125
72.43941	100.7125
76.82654	103.8125
81.21044	110.1125
85.59113	110.6125
89.96862	121.1125
94.34289	119.1125
98.71396	121.9125
103.08183	126.3125
107.4465	130.3125
111.80798	131.7125
116.16626	138.3125
120.52136	144.0125
124.87327	151.3125
129.222	160.0125
133.56755	169.9125
137.90993	184.3125
142.24913	199.2125
146.58517	228.4125
150.91804	260.7125
155.24774	318.2125
159.57429	396.4125
163.89768	511.5125
168.21792	676.4125
172.53501	928.0125
176.84895	1305.6125
181.15975	1830.4125
185.46741	2566.9125
189.77193	3544.8125
194.07331	4724.7125
198.37157	6086.3125
202.6667	7507.7125
206.9587	8911.1125
211.24758	10336.5125
215.53334	11767.2125
219.81599	13323.4125
224.09553	15019.1125
228.37195	16905.2125
232.64527	18990.0125
236.91549	21021.2125
241.18261	23062.6125
245.44663	24925.2125
249.70755	26623.5125
253.96539	28019.4125
258.22014	29176.4125
262.4718	30178.4125
266.72039	30849.1125
270.96589	31184.7125
275.20832	31160.2125
279.44768	30914.0125
283.68397	30597.5125
287.91719	30341.5125
292.14735	30226.1125
296.37445	30261.7125
300.59849	30420.1125
304.81948	30694.0125
309.03742	30812.8125
313.25231	30737.8125
317.46415	30276.0125
321.67296	29555.9125
325.87872	28961.9125
330.08145	28610.4125
334.28114	28622.4125
338.47781	28738.1125
342.67145	28989.0125
346.86207	29500.7125
351.04966	30055.1125
355.23424	30763.3125
359.4158	31366.8125
363.59435	31914.6125
367.76989	32230.1125
371.94243	32453.5125
376.11196	32571.9125
380.27849	32712.2125
384.44203	32854.5125
388.60257	33125.2125
392.76012	33361.1125
396.91468	33798.7125
401.06626	34396.3125
405.21485	34871.3125
409.36047	34895.9125
413.50311	34697.6125
417.64277	34748.2125
421.77947	35088.8125
425.9132	35293.7125
430.04396	35486.1125
434.17176	35623.9125
438.2966	35680.2125
442.41849	36145.0125
446.53742	37298.3125
450.6534	38654.8125
454.76644	39690.9125
458.87653	39745.8125
462.98368	39196.1125
467.08789	38291.7125
471.18916	37266.9125
475.2875	36325.1125
479.38291	35804.9125
483.4754	35545.3125
487.56496	35375.0125
491.6516	35061.1125
495.73531	34775.9125
499.81612	34702.5125
503.89401	34897.8125
507.96899	34985.5125
512.04106	34702.8125
516.11023	34207.2125
520.1765	33672.9125
524.23987	33318.1125
528.30034	33078.3125
532.35792	32752.4125
536.41261	32149.3125
540.46441	31583.6125
544.51333	31382.3125
548.55936	31690.3125
552.60252	32447.2125
556.64279	33483.0125
560.6802	34323.2125
564.71473	34802.1125
568.7464	35610.6125
572.7752	36939.5125
576.80114	38307.4125
580.82422	39957.6125
584.84444	42494.3125
588.86181	45459.6125
592.87633	47578.4125
596.888	46939.3125
600.89682	43816.6125
604.9028	42415.0125
608.90594	45183.8125
612.90624	48679.1125
616.90371	45829.6125
620.89834	38287.8125
624.89015	34723.8125
628.87913	34193.6125
632.86528	34067.5125
636.84862	33494.1125
640.82913	32529.7125
644.80683	31488.3125
648.78172	30973.8125
652.75379	31109.9125
656.72306	31640.0125
660.68952	32223.9125
664.65319	32016.4125
668.61405	31371.4125
672.57211	31329.2125
676.52738	31462.3125
680.47986	31419.9125
684.42955	31021.9125
688.37646	30842.3125
692.32058	31253.7125
696.26192	31999.0125
700.20048	32801.5125
704.13626	33136.0125
708.06928	32901.5125
711.99952	32618.1125
715.927	32737.6125
719.85171	33138.9125
723.77365	33071.1125
727.69284	32324.1125
731.60928	31557.5125
735.52295	31301.8125
739.43388	31263.0125
743.34206	31521.5125
747.24749	31748.3125
751.15017	32182.7125
755.05012	32831.7125
758.94733	33851.6125
762.8418	35495.5125
766.73354	37977.3125
770.62254	40264.2125
774.50882	40537.5125
778.39237	38732.4125
782.27321	36131.2125
786.15132	33916.2125
790.02671	32525.2125
793.89938	32007.6125
797.76935	31846.6125
801.6366	31926.5125
805.50115	31889.6125
809.36299	31723.7125
813.22213	31384.2125
817.07857	31125.2125
820.93231	30842.7125
824.78336	30713.0125
828.63172	30652.3125
832.47738	30710.4125
836.32036	30862.5125
840.16066	31211.7125
843.99827	31496.4125
847.8332	31357.9125
851.66546	31018.9125
855.49504	30915.3125
859.32195	30914.5125
863.1462	30745.3125
866.96777	30560.3125
870.78668	30388.6125
874.60293	30340.5125
878.41652	30373.8125
882.22745	30571.1125
886.03573	30727.9125
889.84136	30670.1125
893.64433	30488.1125
897.44466	30280.1125
901.24235	30176.5125
905.0374	30060.0125
908.8298	30045.8125
912.61957	30151.4125
916.40671	30537.5125
920.19121	31200.0125
923.97308	31968.3125
927.75233	32433.3125
931.52895	32292.8125
935.30295	31659.6125
939.07433	30859.9125
942.84309	30299.3125
946.60924	30167.4125
950.37278	30151.1125
954.13371	30051.6125
957.89203	29807.7125
961.64774	29698.2125
965.40086	29713.6125
969.15137	29681.2125
972.89929	29611.6125
976.64461	29601.4125
980.38733	29813.5125
984.12747	29970.3125
987.86502	30365.5125
991.59999	30904.1125
995.33237	31740.3125
999.06217	33212.7125
1002.78939	34896.9125
1006.51404	36022.6125
1010.23611	36566.3125
1013.95561	36860.7125
1017.67255	36623.3125
1021.38692	35990.8125
1025.09872	35503.3125
1028.80796	36284.8125
1032.51465	38415.9125
1036.21877	40486.9125
1039.92035	41050.3125
1043.61937	40172.5125
1047.31584	38336.2125
1051.00976	36285.5125
1054.70114	35062.3125
1058.38998	34531.1125
1062.07627	34281.7125
1065.76003	34264.3125
1069.44126	34527.0125
1073.11995	35191.1125
1076.79611	35916.2125
1080.46974	36343.3125
1084.14085	36706.8125
1087.80943	37167.2125
1091.47549	37434.1125
1095.13903	37337.6125
1098.80005	36532.0125
1102.45857	35528.6125
1106.11456	34748.2125
1109.76805	34408.2125
1113.41903	34329.3125
1117.06751	34400.7125
1120.71348	34599.9125
1124.35696	34875.6125
1127.99793	35320.7125
1131.63641	35683.8125
1135.2724	35729.3125
1138.90589	35652.9125
1142.5369	35837.5125
1146.16542	36081.3125
1149.79145	36349.6125
1153.415	36713.4125
1157.03607	37396.0125
1160.65467	38866.2125
1164.27079	41366.9125
1167.88443	44182.0125
1171.49561	46841.8125
1175.10432	49978.2125
1178.71056	54429.2125
1182.31434	58911.3125
1185.91565	61037.0125
1189.51451	60259.5125
1193.11091	57743.9125
1196.70485	55064.3125
1200.29634	52961.1125
1203.88538	52073.5125
1207.47197	51832.1125
1211.05612	51381.3125
1214.63782	50378.2125
1218.21708	48926.6125
1221.79391	47770.4125
1225.36829	46968.9125
1228.94024	45874.1125
1232.50976	44313.3125
1236.07685	42867.0125
1239.6415	42149.7125
1243.20374	42120.6125
1246.76355	42710.5125
1250.32093	43904.5125
1253.8759	45324.9125
1257.42845	47003.5125
1260.97859	48722.4125
1264.52631	50555.6125
1268.07163	52471.6125
1271.61453	54723.1125
1275.15503	57156.9125
1278.69312	59656.9125
1282.22882	61958.8125
1285.76211	64331.8125
1289.29301	66973.0125
1292.82151	70373.0125
1296.34761	74916.3125
1299.87133	80871.3125
1303.39266	87751.8125
1306.9116	93896.8125
1310.42815	97883.6125
1313.94233	98714.0125
1317.45412	96118.8125
1320.96354	92003.5125
1324.47058	88436.3125
1327.97525	86149.4125
1331.47754	84736.8125
1334.97747	83458.1125
1338.47502	81579.1125
1341.97022	78622.3125
1345.46305	75455.2125
1348.95352	73733.6125
1352.44163	74689.0125
1355.92738	78827.3125
1359.41078	85083.5125
1362.89183	89849.7125
1366.37053	89420.8125
1369.84688	82412.3125
1373.32088	71959.6125
1376.79254	64256.2125
1380.26186	61418.1125
1383.72883	61426.5125
1387.19347	61318.0125
1390.65578	60288.3125
1394.11575	59705.7125
1397.57339	60719.8125
1401.0287	62451.0125
1404.48168	64163.3125
1407.93234	64728.8125
1411.38068	63475.3125
1414.82669	61056.9125
1418.27039	57997.1125
1421.71177	54977.4125
1425.15083	52543.7125
1428.58758	51571.8125
1432.02203	52479.7125
1435.45416	54609.0125
1438.88399	56877.5125
1442.31151	58417.8125
1445.73673	59208.0125
1449.15965	59464.2125
1452.58027	59063.9125
1455.9986	58145.1125
1459.41463	57763.7125
1462.82837	58527.7125
1466.23982	60256.2125
1469.64898	62194.9125
1473.05586	63573.8125
1476.46045	64037.5125
1479.86276	63874.8125
1483.26279	63081.3125
1486.66054	62376.7125
1490.05602	62375.7125
1493.44922	62443.4125
1496.84016	62354.7125
1500.22882	62202.2125
1503.61521	62688.8125
1506.99934	63733.2125
1510.38121	64794.5125
1513.76081	65075.4125
1517.13816	64317.3125
1520.51324	62784.9125
1523.88607	61858.4125
1527.25665	62088.4125
1530.62498	62622.5125
1533.99105	62714.0125
1537.35488	62030.5125
1540.71647	60671.9125
1544.07581	58827.0125
1547.4329	56923.5125
1550.78776	55165.4125
1554.14038	53748.1125
1557.49077	52766.9125
1560.83892	51887.7125
1564.18484	51420.3125
1567.52853	51301.9125
1570.86999	51666.6125
1574.20922	52656.1125
1577.54624	53574.8125
1580.88103	54344.4125
1584.2136	55855.1125
1587.54395	59516.0125
1590.87208	65381.6125
1594.19801	72275.2125
1597.52172	77864.7125
1600.84321	78821.9125
1604.16251	73572.9125
1607.47959	64602.0125
1610.79447	55812.7125
1614.10715	49093.5125
1617.41763	44484.5125
1620.7259	41943.9125
1624.03199	40982.3125
1627.33587	41589.7125
1630.63757	43491.1125
1633.93707	46956.3125
1637.23439	52502.1125
1640.52951	60806.5125
1643.82246	71060.7125
1647.11321	79399.0125
1650.40179	80016.7125
1653.68819	71888.7125
1656.97241	59592.1125
1660.25446	48929.3125
1663.53433	41719.8125
1666.81203	37350.6125
1670.08756	34792.7125
1673.36092	33187.0125
1676.63211	32174.5125
1679.90115	31473.2125
1683.16801	30920.0125
1686.43272	30558.0125
1689.69527	30258.4125
1692.95567	30008.7125
1696.2139	29893.3125
1699.46999	29789.9125
1702.72392	29680.5125
1705.97571	29614.8125
1709.22535	29543.3125
1712.47284	29485.2125
1715.71819	29435.9125
1718.96139	29368.8125
1722.20246	29307.4125
1725.44139	29167.1125
1728.67818	28981.8125
1731.91284	28823.0125
1735.14537	28656.0125
1738.37576	28515.8125
1741.60403	28399.6125
1744.83017	28299.9125
1748.05418	28212.6125
1751.27607	28127.2125
1754.49584	28089.1125
1757.71349	28042.7125
1760.92903	28040.4125
1764.14244	28028.2125
1767.35375	28017.6125
1770.56294	27989.7125
1773.77002	27938.7125
1776.97499	27891.2125
1780.17785	27842.4125
1783.37861	27850.0125
1786.57727	27824.1125
1789.77382	27798.4125
1792.96828	27738.4125
1796.16064	27714.2125
1799.3509	27632.4125
1802.53907	27562.3125
1805.72514	27515.0125
1808.90913	27463.6125
1812.09102	27431.8125
1815.27083	27298.7125
1818.44856	27296.3125
1821.6242	27274.4125
1824.79776	27255.1125
1827.96924	27237.8125
1831.13864	27209.0125
1834.30597	27203.3125
1837.47122	27200.6125
1840.6344	27150.4125
1843.7955	27203.9125
1846.95454	27197.1125
1850.11151	27163.6125
1853.26642	27114.5125
1856.41926	27141.8125
1859.57004	27191.4125
1862.71876	27152.1125
1865.86542	27115.4125
1869.01003	27115.0125
1872.15258	27062.2125
1875.29308	27079.2125
1878.43152	27049.3125
1881.56792	27074.3125
1884.70227	27082.9125
1887.83457	27091.1125
1890.96482	27035.8125
1894.09304	26993.8125
1897.21921	26980.8125
1900.34335	26984.1125
1903.46544	26943.0125
1906.58551	26964.5125
1909.70353	26923.2125
1912.81953	26845.5125
1915.93349	26850.8125
1919.04543	26816.6125
1922.15534	26772.8125
1925.26322	26730.3125
1928.36908	26648.6125
1931.47292	26638.6125
1934.57473	26529.1125
1937.67453	26455.2125
1940.77232	26423.9125
1943.86808	26350.6125
1946.96184	26276.0125
1950.05358	26210.3125
1953.14331	26182.9125
1956.23103	26101.9125
1959.31675	26022.6125
1962.40046	25976.9125
1965.48217	25930.5125
1968.56188	25861.2125
1971.63959	25771.0125
1974.7153	25687.2125
1977.78901	25659.3125
1980.86073	25546.5125
1983.93046	25539.8125
1986.99819	25440.3125
1990.06394	25349.7125
1993.1277	25305.6125
1996.18947	25247.9125
1999.24925	25200.7125
2002.30706	25083.4125
2005.36288	25030.7125
2008.41672	24950.8125
2011.46859	24902.7125
2014.51848	24887.6125
2017.56639	24807.7125
2020.61233	24811.5125
2023.6563	24727.7125
2026.6983	24684.3125
2029.73833	24725.7125
2032.7764	24652.7125
2035.8125	24628.7125
2038.84664	24611.4125
2041.87881	24598.6125
2044.90903	24571.7125
2047.93729	24527.7125
2050.96359	24510.6125
2053.98794	24491.4125
2057.01034	24454.0125
2060.03078	24467.1125
2063.04927	24468.8125
2066.06582	24476.7125
2069.08042	24459.2125
2072.09307	24396.8125
2075.10378	24381.3125
2078.11255	24377.6125
2081.11938	24383.9125
2084.12426	24311.9125
2087.12722	24322.7125
2090.12824	24313.1125
2093.12732	24312.8125
2096.12447	24322.6125
2099.11969	24378.4125
2102.11299	24350.5125
2105.10435	24373.9125
2108.09379	24369.4125
2111.08131	24348.0125
2114.0669	24399.9125
2117.05057	24434.3125
2120.03233	24438.7125
2123.01216	24481.3125
2125.99008	24477.2125
2128.96609	24514.6125
2131.94018	24565.3125
2134.91236	24549.9125
2137.88263	24589.0125
2140.851	24587.4125
2143.81746	24632.8125
2146.78201	24674.7125
2149.74466	24648.7125
2152.7054	24687.8125
2155.66425	24635.7125
2158.6212	24612.5125
2161.57625	24619.5125
2164.52941	24604.6125
2167.48067	24599.0125
2170.43004	24647.1125
2173.37752	24600.0125
2176.32311	24621.4125
2179.26681	24622.9125
2182.20863	24652.2125
2185.14856	24697.3125
2188.08661	24719.0125
2191.02278	24744.2125
2193.95707	24722.3125
2196.88948	24760.6125
2199.82001	24738.7125
2202.74867	24714.7125
2205.67545	24707.4125
2208.60037	24731.2125
2211.52341	24728.4125
2214.44458	24705.0125
2217.36388	24670.9125
2220.28132	24624.0125
2223.1969	24631.7125
2226.11061	24569.1125
2229.02246	24573.7125
2231.93245	24530.9125
2234.84058	24508.0125
2237.74686	24535.6125
2240.65128	24497.5125
2243.55385	24425.3125
2246.45456	24410.1125
2249.35343	24345.1125
2252.25044	24335.5125
2255.14561	24199.5125
2258.03893	24211.1125
2260.93041	24135.9125
2263.82004	24106.6125
2266.70783	24054.1125
2269.59378	23976.2125
2272.4779	23918.5125
2275.36017	23856.6125
2278.24061	23847.7125
2281.11922	23850.1125
2283.996	23859.0125
2286.87094	23868.6125
2289.74405	23864.8125
2292.61534	23889.8125
2295.4848	23852.4125
2298.35243	23899.3125
2301.21824	23964.0125
2304.08223	23972.6125
2306.94439	24034.8125
2309.80474	24064.5125
2312.66327	24047.9125
2315.51999	24071.7125
2318.37489	24080.3125
2321.22797	24064.0125
2324.07925	24065.0125
2326.92871	24045.6125
2329.77637	24018.0125
2332.62222	23996.6125
2335.46626	24034.9125
2338.3085	24053.9125
2341.14893	24088.0125
2343.98756	24105.2125
2346.8244	24117.7125
2349.65943	24117.6125
2352.49267	24074.7125
2355.32411	24090.7125
2358.15376	24053.3125
2360.98161	23991.4125
2363.80768	23953.3125
2366.63195	23946.0125
2369.45444	23867.1125
2372.27514	23837.9125
2375.09405	23804.9125
2377.91118	23763.1125
2380.72652	23713.7125
2383.54009	23658.5125
2386.35187	23651.5125
2389.16188	23613.1125
2391.97011	23638.3125
2394.77657	23593.5125
2397.58125	23564.8125
2400.38416	23552.2125
2403.18529	23520.3125
2405.98466	23510.8125
2408.78226	23436.9125
2411.57809	23365.1125
2414.37216	23379.5125
2417.16446	23339.2125
2419.955	23358.6125
2422.74378	23285.0125
2425.5308	23302.5125
2428.31606	23280.3125
2431.09956	23273.3125
2433.88131	23229.9125
2436.6613	23305.1125
2439.43954	23309.6125
2442.21603	23314.5125
2444.99077	23286.2125
2447.76377	23298.7125
2450.53501	23272.0125
2453.30451	23268.0125
2456.07226	23221.2125
2458.83827	23245.2125
2461.60254	23272.5125
2464.36507	23330.5125
2467.12586	23285.5125
2469.88492	23320.5125
2472.64224	23349.9125
2475.39782	23424.9125
2478.15167	23486.8125
2480.90379	23464.9125
2483.65417	23503.1125
2486.40283	23481.2125
2489.14976	23566.1125
2491.89497	23579.8125
2494.63845	23590.5125
2497.3802	23598.2125
2500.12024	23599.7125
2502.85855	23563.2125
2505.59514	23563.4125
2508.33002	23488.5125
2511.06318	23484.7125
2513.79462	23491.5125
2516.52435	23467.7125
2519.25237	23492.0125
2521.97867	23489.3125
2524.70327	23495.9125
2527.42616	23454.2125
2530.14734	23485.4125
2532.86681	23480.4125
2535.58458	23461.0125
2538.30065	23475.4125
2541.01501	23480.6125
2543.72768	23478.6125
2546.43864	23516.7125
2549.14791	23429.6125
2551.85548	23460.5125
2554.56136	23448.7125
2557.26554	23422.6125
2559.96803	23443.2125
2562.66883	23479.2125
2565.36794	23483.1125
2568.06536	23468.2125
2570.7611	23498.2125
2573.45514	23457.8125
2576.14751	23516.9125
2578.83819	23465.6125
2581.52719	23494.0125
2584.21451	23482.5125
2586.90015	23511.6125
2589.58411	23508.2125
2592.2664	23516.0125
2594.94701	23482.0125
2597.62594	23495.6125
2600.30321	23480.7125
2602.9788	23463.5125
2605.65273	23460.4125
2608.32498	23514.8125
2610.99557	23548.9125
2613.66449	23527.3125
2616.33175	23521.2125
2618.99734	23562.3125
2621.66128	23526.7125
2624.32355	23498.6125
2626.98416	23520.1125
2629.64311	23501.6125
2632.30041	23542.9125
2634.95605	23482.0125
2637.61004	23447.1125
2640.26238	23426.5125
2642.91306	23382.8125
2645.56209	23366.2125
2648.20948	23366.1125
2650.85521	23407.6125
2653.4993	23409.7125
2656.14175	23438.4125
2658.78255	23481.1125
2661.42171	23486.1125
2664.05923	23554.5125
2666.6951	23528.0125
2669.32934	23568.5125
2671.96194	23580.1125
2674.59291	23564.2125
2677.22224	23607.1125
2679.84993	23625.8125
2682.476	23547.6125
2685.10043	23545.8125
2687.72324	23470.1125
2690.34441	23494.0125
2692.96396	23477.0125
2695.58188	23449.9125
2698.19818	23428.2125
2700.81285	23414.9125
2703.4259	23461.1125
2706.03733	23485.5125
2708.64714	23503.1125
2711.25533	23510.2125
2713.86191	23492.1125
2716.46687	23588.5125
2719.07021	23595.0125
2721.67194	23675.0125
2724.27206	23646.6125
2726.87057	23658.9125
2729.46747	23658.8125
2732.06276	23706.5125
2734.65644	23700.6125
2737.24852	23762.9125
2739.83899	23703.8125
2742.42786	23674.5125
2745.01513	23632.5125
2747.60079	23710.4125
2750.18486	23649.7125
2752.76733	23665.0125
2755.3482	23653.9125
2757.92747	23637.0125
2760.50515	23659.8125
2763.08123	23685.7125
2765.65573	23678.4125
2768.22863	23681.9125
2770.79994	23682.8125
2773.36967	23724.1125
2775.9378	23754.7125
2778.50435	23728.8125
2781.06932	23744.0125
2783.6327	23746.5125
2786.1945	23751.6125
2788.75471	23741.6125
2791.31335	23759.6125
2793.87041	23737.3125
2796.42589	23665.4125
2798.97979	23619.4125
2801.53212	23596.7125
2804.08288	23559.9125
2806.63206	23522.2125
2809.17967	23505.0125
2811.72571	23477.4125
2814.27018	23424.8125
2816.81308	23432.6125
2819.35442	23337.3125
2821.89419	23357.4125
2824.43239	23360.7125
2826.96904	23356.8125
2829.50412	23395.3125
2832.03763	23308.2125
2834.56959	23290.6125
2837.1	23258.2125
2839.62884	23320.8125
2842.15613	23287.8125
2844.68186	23394.2125
2847.20604	23390.0125
2849.72867	23396.3125
2852.24974	23422.9125
2854.76927	23387.8125
2857.28724	23403.7125
2859.80367	23390.1125
2862.31855	23381.9125
2864.83189	23358.9125
2867.34368	23289.8125
2869.85393	23287.9125
2872.36264	23290.9125
2874.8698	23278.6125
2877.37543	23343.0125
2879.87952	23358.8125
2882.38207	23332.4125
2884.88308	23364.4125
2887.38256	23382.0125
2889.88051	23385.8125
2892.37692	23439.4125
2894.8718	23487.7125
2897.36515	23509.3125
2899.85698	23523.1125
2902.34727	23604.9125
2904.83604	23582.9125
2907.32328	23626.9125
2909.809	23620.7125
2912.29319	23643.9125
2914.77587	23643.9125
2917.25702	23617.0125
2919.73665	23584.4125
2922.21476	23591.9125
2924.69136	23584.7125
2927.16644	23601.7125
2929.64	23535.3125
2932.11205	23530.6125
2934.58258	23407.5125
2937.05161	23474.9125
2939.51912	23438.1125
2941.98513	23451.1125
2944.44962	23373.5125
2946.91261	23335.2125
2949.37409	23332.5125
2951.83407	23286.5125
2954.29254	23271.3125
2956.74951	23231.6125
2959.20498	23264.3125
2961.65895	23225.2125
2964.11142	23255.5125
2966.56239	23183.7125
2969.01186	23191.5125
2971.45984	23119.8125
2973.90632	23169.7125
2976.35131	23072.9125
2978.7948	23021.9125
2981.23681	22967.5125
2983.67732	22935.6125
2986.11635	22897.8125
2988.55388	22852.9125
2990.98993	22774.6125
2993.4245	22699.1125
2995.85758	22623.2125
2998.28917	22578.2125
3000.71928	22537.5125
3003.14791	22563.5125
3005.57506	22482.0125
3008.00073	22486.2125
3010.42493	22472.6125
3012.84764	22416.8125
3015.26888	22402.1125
3017.68865	22382.6125
3020.10694	22347.3125
3022.52376	22302.5125
3024.9391	22295.0125
3027.35298	22279.5125
3029.76539	22275.2125
3032.17632	22231.5125
3034.5858	22187.6125
3036.9938	22208.5125
3039.40034	22197.2125
3041.80542	22198.1125
3044.20903	22156.7125
3046.61118	22191.2125
3049.01187	22152.3125
3051.4111	22168.8125
3053.80888	22087.4125
3056.20519	22077.0125
3058.60005	22021.1125
3060.99345	21988.8125
3063.3854	21948.5125
3065.7759	21856.3125
3068.16494	21800.7125
3070.55254	21746.3125
3072.93868	21744.5125
3075.32338	21655.7125
3077.70662	21596.9125
3080.08842	21521.9125
3082.46878	21540.9125
3084.84769	21513.7125
3087.22515	21532.9125
3089.60118	21509.9125
3091.97576	21576.1125
3094.3489	21547.5125
3096.72061	21498.4125
3099.09087	21535.1125
3101.4597	21481.3125
3103.82709	21510.0125
3106.19305	21470.8125
3108.55757	21447.7125
3110.92066	21414.6125
3113.28232	21399.7125
3115.64255	21309.1125
3118.00134	21289.9125
3120.35871	21262.6125
3122.71466	21229.0125
3125.06917	21164.9125
3127.42226	21129.4125
3129.77393	21123.2125
3132.12417	21084.9125
3134.47299	21124.2125
3136.82039	21104.5125
3139.16636	21135.7125
3141.51092	21130.5125
3143.85406	21112.9125
3146.19579	21119.6125
3148.53609	21092.4125
3150.87499	21072.8125
3153.21246	21074.2125
3155.54853	21080.8125
3157.88318	21059.2125
3160.21642	21111.4125
3162.54826	21091.0125
3164.87868	21099.2125
3167.2077	21108.3125
3169.5353	21107.1125
3171.86151	21108.6125
3174.18631	21076.6125
3176.5097	21103.1125
3178.83169	21047.5125
3181.15228	21045.3125
3183.47147	20994.3125
3185.78926	21000.6125
3188.10565	20951.6125
3190.42065	20991.5125
3192.73424	20953.6125
3195.04645	20962.8125
3197.35725	20953.1125
3199.66667	20909.7125
3201.97469	20921.4125
3204.28132	20881.2125
3206.58656	20939.7125
3208.8904	20860.2125
3211.19287	20919.6125
3213.49394	20942.2125
3215.79363	20911.7125
3218.09193	20951.8125
3220.38884	20940.6125
3222.68438	20958.3125
3224.97853	20903.2125
3227.2713	20943.2125
3229.56269	20917.6125
3231.8527	20927.1125
3234.14133	20904.0125
3236.42858	20862.2125
3238.71446	20873.6125
3240.99896	20833.8125
3243.28209	20817.4125
3245.56384	20816.7125
3247.84423	20823.5125
3250.12324	20752.6125
3252.40088	20741.2125
3254.67715	20696.9125
3256.95205	20663.9125
3259.22558	20649.7125
3261.49775	20677.8125
3263.76855	20623.1125
3266.03799	20567.3125
3268.30606	20538.2125
3270.57277	20509.2125
3272.83812	20486.7125
3275.10211	20486.4125
3277.36474	20456.8125
3279.62601	20463.4125
3281.88593	20405.2125
3284.14448	20442.1125
3286.40168	20429.6125
3288.65753	20457.5125
3290.91202	20433.7125
3293.16516	20436.9125
3295.41695	20375.4125
3297.66738	20293.2125
3299.91647	20195.8125
3302.16421	20058.8125
3304.4106	19994.1125
3306.65564	19837.2125
3308.89933	19674.2125
3311.14169	19571.0125
3313.38269	19432.1125
3315.62236	19325.7125
3317.86068	19137.7125
3320.09766	19014.9125
3322.3333	18873.0125
3324.5676	18782.5125
3326.80056	18488.8125
3329.03219	18406.2125
3331.26248	3.8125
3333.49143	-0.9875
3335.71905	-0.0875
