Data from AgNPs_FTO_APTES_UA_5uM_CRN_50uM_R6G_10uM_NaF_0.1M_Addition_RamanShift__31__14-18-46-843.txt Node

Date: Mon Feb 07 14:18:46 GMT 2022
User: TCL
Spectrometer: QEP01345
Trigger mode: 4
Integration Time (sec): 7.000000E0
Scans to average: 10
Electric dark correction enabled: true
Nonlinearity correction enabled: false
Boxcar width: 0
XAxis mode: Raman Shifts
Number of Pixels in Spectrum: 1044
>>>>>Begin Spectral Data<<<<<
46.04893	0.7
50.45542	-0.5
54.85868	-0.4
59.25871	0.3
63.6555	43
68.04907	44.3
72.43941	50.8
76.82654	49.3
81.21044	50.3
85.59113	52.8
89.96862	57
94.34289	55.7
98.71396	60
103.08183	61.2
107.4465	63.5
111.80798	61.6
116.16626	66.8
120.52136	69.3
124.87327	71.4
129.222	76.1
133.56755	80
137.90993	85.7
142.24913	87.1
146.58517	104.7
150.91804	114.1
155.24774	136.1
159.57429	173.7
163.89768	226
168.21792	301.2
172.53501	400.8
176.84895	557.3
181.15975	777.9
185.46741	1092.2
189.77193	1511.4
194.07331	2012.4
198.37157	2583.4
202.6667	3188.9
206.9587	3796
211.24758	4410.9
215.53334	5059.1
219.81599	5772
224.09553	6603.4
228.37195	7542.9
232.64527	8551.9
236.91549	9531
241.18261	10409.2
245.44663	11098.5
249.70755	11617.6
253.96539	12050.3
258.22014	12453.9
262.4718	12849.9
266.72039	13148
270.96589	13359.7
275.20832	13438.7
279.44768	13367
283.68397	13267.8
287.91719	13216.4
292.14735	13340.8
296.37445	13685
300.59849	14275.1
304.81948	14951.2
309.03742	15453
313.25231	15394.1
317.46415	14502.5
321.67296	13149.3
325.87872	12011.4
330.08145	11439.6
334.28114	11377.1
338.47781	11600.3
342.67145	11934.9
346.86207	12565.6
351.04966	13451.2
355.23424	14477.7
359.4158	15232.5
363.59435	15510.6
367.76989	15535.1
371.94243	15421.6
376.11196	15241.8
380.27849	15077.6
384.44203	14820.2
388.60257	14524.8
392.76012	14382.9
396.91468	14530.8
401.06626	14999.2
405.21485	15385.8
409.36047	15035
413.50311	14071.7
417.64277	13127.3
421.77947	12556.4
425.9132	12316.1
430.04396	12273.8
434.17176	12286.8
438.2966	12418
442.41849	12670.5
446.53742	13059.3
450.6534	13436.5
454.76644	13666.6
458.87653	13681.1
462.98368	13582.9
467.08789	13396
471.18916	13097.1
475.2875	12765.4
479.38291	12478.6
483.4754	12245.6
487.56496	12033.6
491.6516	11907.4
495.73531	11883.5
499.81612	11945.7
503.89401	12137.5
507.96899	12363.2
512.04106	12572.4
516.11023	12805.1
520.1765	12961.5
524.23987	12886.8
528.30034	12539.4
532.35792	12183.5
536.41261	11862.6
540.46441	11525.9
544.51333	11382.7
548.55936	11555.1
552.60252	11924.5
556.64279	12382.5
560.6802	12618.3
564.71473	12817.2
568.7464	13478.1
572.7752	13938.5
576.80114	13512.1
580.82422	12851.5
584.84444	12549.1
588.86181	12359.8
592.87633	12232.5
596.888	12364.3
600.89682	12892.1
604.9028	14774.4
608.90594	19866.6
612.90624	26985.9
616.90371	26280.2
620.89834	17161.8
624.89015	12710
628.87913	11871.9
632.86528	11981
636.84862	12292.6
640.82913	12109.8
644.80683	11470.6
648.78172	10983.8
652.75379	11026.9
656.72306	11644.1
660.68952	12447.5
664.65319	12344
668.61405	11534.7
672.57211	11113.7
676.52738	11076.4
680.47986	11094
684.42955	10979.2
688.37646	10861
692.32058	10907.6
696.26192	11038.1
700.20048	11237.4
704.13626	11387.3
708.06928	11397.9
711.99952	11268.5
715.927	11210.6
719.85171	11262.1
723.77365	11210.1
727.69284	11067
731.60928	10916.8
735.52295	10839.1
739.43388	10851.8
743.34206	10923.1
747.24749	10987.8
751.15017	11108.4
755.05012	11416.3
758.94733	12144.8
762.8418	13853.2
766.73354	16870.7
770.62254	20119
774.50882	21730.8
778.39237	20642.6
782.27321	17337.1
786.15132	14114.5
790.02671	12237.1
793.89938	11410.4
797.76935	11059.6
801.6366	10867.4
805.50115	10778.4
809.36299	10727.7
813.22213	10646.6
817.07857	10630.2
820.93231	10615.1
824.78336	10671
828.63172	10728.8
832.47738	10754.8
836.32036	10694.3
840.16066	10598.7
843.99827	10526.4
847.8332	10451.7
851.66546	10473.9
855.49504	10442.2
859.32195	10414.3
863.1462	10345.5
866.96777	10291.2
870.78668	10282.5
874.60293	10318.7
878.41652	10329.1
882.22745	10407
886.03573	10481
889.84136	10436
893.64433	10364
897.44466	10332.2
901.24235	10325.3
905.0374	10340.2
908.8298	10290.3
912.61957	10273.9
916.40671	10360.6
920.19121	10509.3
923.97308	10603.2
927.75233	10692.5
931.52895	10820.1
935.30295	10650.3
939.07433	10275.5
942.84309	9928
946.60924	9706.2
950.37278	9587.6
954.13371	9510.9
957.89203	9467.6
961.64774	9457.8
965.40086	9418.9
969.15137	9394.4
972.89929	9366.7
976.64461	9332.2
980.38733	9308.4
984.12747	9328.5
987.86502	9353.9
991.59999	9451.5
995.33237	9522
999.06217	9696.7
1002.78939	9933.6
1006.51404	10188
1010.23611	10499.8
1013.95561	10665
1017.67255	10636.1
1021.38692	10442
1025.09872	10249.8
1028.80796	10116.4
1032.51465	10146.7
1036.21877	10236.5
1039.92035	10403.6
1043.61937	10501.1
1047.31584	10518.2
1051.00976	10545.8
1054.70114	10557.1
1058.38998	10566.6
1062.07627	10671.1
1065.76003	10771.8
1069.44126	10862.4
1073.11995	10994.3
1076.79611	11148.4
1080.46974	11340.5
1084.14085	11707.7
1087.80943	12180.8
1091.47549	12412.4
1095.13903	12158.1
1098.80005	11648.5
1102.45857	11187.7
1106.11456	10924
1109.76805	10936.1
1113.41903	11191.2
1117.06751	11693.3
1120.71348	12294.5
1124.35696	12985.5
1127.99793	13624
1131.63641	13578.9
1135.2724	12800.3
1138.90589	11977.5
1142.5369	11509.6
1146.16542	11235.1
1149.79145	11083.6
1153.415	11076.7
1157.03607	11257.7
1160.65467	11537.3
1164.27079	12090.5
1167.88443	12848.5
1171.49561	14178.2
1175.10432	16389
1178.71056	19292.2
1182.31434	21227.7
1185.91565	21454
1189.51451	20585.1
1193.11091	19038.8
1196.70485	17283.9
1200.29634	16082.4
1203.88538	15185.3
1207.47197	14099.4
1211.05612	13123.1
1214.63782	12553.2
1218.21708	12333.9
1221.79391	12309.7
1225.36829	12390.2
1228.94024	12506.1
1232.50976	12601.5
1236.07685	12628.6
1239.6415	12683.6
1243.20374	12731.8
1246.76355	12812.7
1250.32093	12983.9
1253.8759	13308.2
1257.42845	13748.2
1260.97859	14259.8
1264.52631	14760.1
1268.07163	15272.9
1271.61453	15751.1
1275.15503	16093.6
1278.69312	16172.4
1282.22882	16180.4
1285.76211	16531.1
1289.29301	17129
1292.82151	17777.1
1296.34761	18437.9
1299.87133	19452.2
1303.39266	21214.1
1306.9116	24013
1310.42815	27412.5
1313.94233	29544.6
1317.45412	29075.5
1320.96354	26887.4
1324.47058	24340.7
1327.97525	22243
1331.47754	20886.4
1334.97747	20329.1
1338.47502	20390.4
1341.97022	20852.3
1345.46305	21727.3
1348.95352	23098.9
1352.44163	25048.3
1355.92738	27851.7
1359.41078	32455.2
1362.89183	37357.7
1366.37053	36546.1
1369.84688	30374.5
1373.32088	24167.4
1376.79254	20278.7
1380.26186	18406.9
1383.72883	17507.4
1387.19347	16867
1390.65578	16145.5
1394.11575	15477.8
1397.57339	15112.9
1401.0287	15101.9
1404.48168	15176
1407.93234	15386.5
1411.38068	15459.2
1414.82669	15369.7
1418.27039	15080.2
1421.71177	14703.6
1425.15083	14330.2
1428.58758	13985.2
1432.02203	13950.3
1435.45416	14129.3
1438.88399	14215.6
1442.31151	14217.8
1445.73673	14349.9
1449.15965	14500.2
1452.58027	14531.4
1455.9986	14459.3
1459.41463	14457.9
1462.82837	14644.6
1466.23982	14971.5
1469.64898	15357.4
1473.05586	15634.3
1476.46045	15832.7
1479.86276	16134.9
1483.26279	16590.5
1486.66054	17125.1
1490.05602	17818.9
1493.44922	18778.7
1496.84016	20374.6
1500.22882	22882.8
1503.61521	26249.5
1506.99934	30178.1
1510.38121	33939.7
1513.76081	36054.9
1517.13816	34551.4
1520.51324	30038.5
1523.88607	25164.8
1527.25665	21786.3
1530.62498	19780.2
1533.99105	18581.5
1537.35488	17768.4
1540.71647	17298.3
1544.07581	16987.9
1547.4329	16815.4
1550.78776	16686
1554.14038	16712.3
1557.49077	16922.8
1560.83892	17401.4
1564.18484	18061.2
1567.52853	18846.5
1570.86999	19346.4
1574.20922	19680.5
1577.54624	19524.7
1580.88103	18421.5
1584.2136	16823.1
1587.54395	15903.9
1590.87208	15908.3
1594.19801	16727.8
1597.52172	17943.2
1600.84321	18412.6
1604.16251	17669.6
1607.47959	16414.2
1610.79447	15205.8
1614.10715	13956.5
1617.41763	12921.4
1620.7259	12259.6
1624.03199	11955
1627.33587	11899.8
1630.63757	12151.4
1633.93707	12738.7
1637.23439	13767.9
1640.52951	15283.4
1643.82246	17541.4
1647.11321	20451.9
1650.40179	22933.3
1653.68819	22817.3
1656.97241	19762.9
1660.25446	15947.7
1663.53433	13150.4
1666.81203	11463.2
1670.08756	10496.4
1673.36092	9933.4
1676.63211	9561
1679.90115	9336.4
1683.16801	9136.7
1686.43272	9014.7
1689.69527	8925.5
1692.95567	8850.8
1696.2139	8788.4
1699.46999	8765.3
1702.72392	8737.1
1705.97571	8697.5
1709.22535	8675.8
1712.47284	8652.9
1715.71819	8674.7
1718.96139	8670.4
1722.20246	8653.8
1725.44139	8617.1
1728.67818	8529.7
1731.91284	8442.5
1735.14537	8351.1
1738.37576	8299.8
1741.60403	8260.9
1744.83017	8204.9
1748.05418	8191.2
1751.27607	8195.1
1754.49584	8160.9
1757.71349	8151.2
1760.92903	8117.4
1764.14244	8124.4
1767.35375	8097.5
1770.56294	8079.6
1773.77002	8013.8
1776.97499	7969
1780.17785	7943.2
1783.37861	7912.9
1786.57727	7883.1
1789.77382	7877.4
1792.96828	7850.3
1796.16064	7839.2
1799.3509	7838.4
1802.53907	7813.1
1805.72514	7771.8
1808.90913	7724.5
1812.09102	7730.2
1815.27083	7674
1818.44856	7672.4
1821.6242	7657.5
1824.79776	7643.2
1827.96924	7624.5
1831.13864	7630.8
1834.30597	7614.3
1837.47122	7602.3
1840.6344	7582.4
1843.7955	7590.9
1846.95454	7569.8
1850.11151	7574
1853.26642	7542.2
1856.41926	7550
1859.57004	7574.3
1862.71876	7577.1
1865.86542	7575.3
1869.01003	7554.4
1872.15258	7545.6
1875.29308	7557.3
1878.43152	7553.4
1881.56792	7559.6
1884.70227	7578.3
1887.83457	7572
1890.96482	7556.2
1894.09304	7550.1
1897.21921	7536.3
1900.34335	7560.8
1903.46544	7545.4
1906.58551	7574.7
1909.70353	7568.5
1912.81953	7575.6
1915.93349	7554.9
1919.04543	7547.4
1922.15534	7514.3
1925.26322	7531.9
1928.36908	7484.3
1931.47292	7452
1934.57473	7416.2
1937.67453	7380.3
1940.77232	7341
1943.86808	7279.3
1946.96184	7264.9
1950.05358	7248.1
1953.14331	7178.4
1956.23103	7158.2
1959.31675	7134.7
1962.40046	7106.9
1965.48217	7100.6
1968.56188	7093.6
1971.63959	7056.5
1974.7153	7032.2
1977.78901	7028.4
1980.86073	6985.2
1983.93046	6967.3
1986.99819	6914.7
1990.06394	6909.2
1993.1277	6875.3
1996.18947	6864.1
1999.24925	6827.9
2002.30706	6787.9
2005.36288	6786.9
2008.41672	6772.4
2011.46859	6751.5
2014.51848	6727.6
2017.56639	6688.9
2020.61233	6695.7
2023.6563	6664.7
2026.6983	6608.1
2029.73833	6608
2032.7764	6586.2
2035.8125	6582.1
2038.84664	6543.8
2041.87881	6525.3
2044.90903	6533.9
2047.93729	6518.8
2050.96359	6507.3
2053.98794	6502.4
2057.01034	6486.9
2060.03078	6460
2063.04927	6468.3
2066.06582	6455.9
2069.08042	6452.4
2072.09307	6434.3
2075.10378	6418.4
2078.11255	6420.6
2081.11938	6433.6
2084.12426	6417.2
2087.12722	6426.1
2090.12824	6406.6
2093.12732	6400.2
2096.12447	6386.1
2099.11969	6406.6
2102.11299	6413.8
2105.10435	6426.7
2108.09379	6393
2111.08131	6386.1
2114.0669	6391.2
2117.05057	6423.4
2120.03233	6416
2123.01216	6396.9
2125.99008	6436.5
2128.96609	6418.9
2131.94018	6438.8
2134.91236	6427.6
2137.88263	6443.6
2140.851	6445.1
2143.81746	6427.9
2146.78201	6420.7
2149.74466	6401.6
2152.7054	6397.5
2155.66425	6395.1
2158.6212	6379.3
2161.57625	6379.6
2164.52941	6368.3
2167.48067	6366.5
2170.43004	6361.4
2173.37752	6364.5
2176.32311	6357.7
2179.26681	6360.8
2182.20863	6344.4
2185.14856	6364.8
2188.08661	6352.5
2191.02278	6354.5
2193.95707	6342.6
2196.88948	6320.8
2199.82001	6319.5
2202.74867	6301.2
2205.67545	6296.3
2208.60037	6276.9
2211.52341	6279
2214.44458	6279.3
2217.36388	6264.1
2220.28132	6222.5
2223.1969	6205.4
2226.11061	6218.4
2229.02246	6193
2231.93245	6168
2234.84058	6138.8
2237.74686	6156.4
2240.65128	6144.8
2243.55385	6121.3
2246.45456	6117.4
2249.35343	6126.7
2252.25044	6107.4
2255.14561	6126.8
2258.03893	6127.9
2260.93041	6125.2
2263.82004	6108.4
2266.70783	6075.1
2269.59378	6071.6
2272.4779	6062.5
2275.36017	6025.9
2278.24061	6013.7
2281.11922	6029.8
2283.996	5977.3
2286.87094	5978.6
2289.74405	5953.1
2292.61534	5942
2295.4848	5919.5
2298.35243	5924.6
2301.21824	5924.8
2304.08223	5903.4
2306.94439	5898
2309.80474	5902.2
2312.66327	5919.9
2315.51999	5895
2318.37489	5890.9
2321.22797	5887.1
2324.07925	5877.7
2326.92871	5866.3
2329.77637	5846.5
2332.62222	5834.1
2335.46626	5849.9
2338.3085	5827.1
2341.14893	5839.2
2343.98756	5819.2
2346.8244	5850.9
2349.65943	5849.4
2352.49267	5853.4
2355.32411	5872.4
2358.15376	5875.5
2360.98161	5889.7
2363.80768	5900.9
2366.63195	5909.1
2369.45444	5922.9
2372.27514	5933.6
2375.09405	5916.8
2377.91118	5886.3
2380.72652	5836
2383.54009	5801.9
2386.35187	5799.7
2389.16188	5757
2391.97011	5719.3
2394.77657	5696.7
2397.58125	5671.4
2400.38416	5685.7
2403.18529	5648.4
2405.98466	5631
2408.78226	5623.7
2411.57809	5643.1
2414.37216	5616.8
2417.16446	5613.9
2419.955	5603.9
2422.74378	5582.2
2425.5308	5586.5
2428.31606	5592.5
2431.09956	5608.4
2433.88131	5597.1
2436.6613	5577.9
2439.43954	5601.2
2442.21603	5606
2444.99077	5580.3
2447.76377	5596.2
2450.53501	5602.2
2453.30451	5604.9
2456.07226	5593.5
2458.83827	5607.6
2461.60254	5589.8
2464.36507	5588.5
2467.12586	5572.6
2469.88492	5582.3
2472.64224	5599.8
2475.39782	5609.4
2478.15167	5612.6
2480.90379	5615.9
2483.65417	5617
2486.40283	5643
2489.14976	5651.2
2491.89497	5665.7
2494.63845	5694.1
2497.3802	5685.5
2500.12024	5644.7
2502.85855	5643
2505.59514	5608.1
2508.33002	5589.6
2511.06318	5559.3
2513.79462	5524.2
2516.52435	5518.5
2519.25237	5489.1
2521.97867	5466.2
2524.70327	5469.2
2527.42616	5437.2
2530.14734	5435.9
2532.86681	5456.8
2535.58458	5419.7
2538.30065	5412.7
2541.01501	5429.3
2543.72768	5429.6
2546.43864	5420.1
2549.14791	5408.9
2551.85548	5426.2
2554.56136	5408.1
2557.26554	5400.6
2559.96803	5393.8
2562.66883	5401.2
2565.36794	5370.6
2568.06536	5362.7
2570.7611	5371.1
2573.45514	5340.5
2576.14751	5326.7
2578.83819	5308.3
2581.52719	5309.3
2584.21451	5326.4
2586.90015	5305.8
2589.58411	5294.4
2592.2664	5285.9
2594.94701	5278.9
2597.62594	5279.5
2600.30321	5277.7
2602.9788	5259.6
2605.65273	5252.6
2608.32498	5262.7
2610.99557	5268.3
2613.66449	5274.7
2616.33175	5270.2
2618.99734	5264.2
2621.66128	5248.8
2624.32355	5248.5
2626.98416	5237.8
2629.64311	5208.8
2632.30041	5224.1
2634.95605	5204.9
2637.61004	5198.1
2640.26238	5180.7
2642.91306	5170.2
2645.56209	5172.7
2648.20948	5184
2650.85521	5161.6
2653.4993	5164.5
2656.14175	5171.6
2658.78255	5172.3
2661.42171	5173.6
2664.05923	5196.6
2666.6951	5207.3
2669.32934	5216.3
2671.96194	5217.8
2674.59291	5218.4
2677.22224	5214.3
2679.84993	5225
2682.476	5212.6
2685.10043	5211.5
2687.72324	5200.4
2690.34441	5195
2692.96396	5188.4
2695.58188	5190.1
2698.19818	5197.2
2700.81285	5219.6
2703.4259	5224.5
2706.03733	5273
2708.64714	5236.7
2711.25533	5233.6
2713.86191	5231.1
2716.46687	5242.5
2719.07021	5235.8
2721.67194	5251.4
2724.27206	5230.7
2726.87057	5217.2
2729.46747	5224.5
2732.06276	5225.2
2734.65644	5227.2
2737.24852	5206
2739.83899	5182.6
2742.42786	5191.9
2745.01513	5164.4
2747.60079	5175
2750.18486	5149.2
2752.76733	5149.8
2755.3482	5146.5
2757.92747	5147
2760.50515	5151.5
2763.08123	5140
2765.65573	5104.2
2768.22863	5121.6
2770.79994	5105.2
2773.36967	5101.6
2775.9378	5110.9
2778.50435	5078.1
2781.06932	5083
2783.6327	5090.6
2786.1945	5095.2
2788.75471	5102.4
2791.31335	5092.7
2793.87041	5102.5
2796.42589	5063.5
2798.97979	5070.8
2801.53212	5079.7
2804.08288	5053.5
2806.63206	5036.8
2809.17967	5046.9
2811.72571	5062.8
2814.27018	5061
2816.81308	5057.4
2819.35442	5051.4
2821.89419	5066
2824.43239	5081.2
2826.96904	5074.6
2829.50412	5084.4
2832.03763	5090
2834.56959	5093.4
2837.1	5104.5
2839.62884	5125.4
2842.15613	5154
2844.68186	5212.1
2847.20604	5288.6
2849.72867	5349.7
2852.24974	5355.8
2854.76927	5375.7
2857.28724	5358.8
2859.80367	5340.5
2862.31855	5328.4
2864.83189	5300
2867.34368	5299.8
2869.85393	5266.9
2872.36264	5281.7
2874.8698	5287.6
2877.37543	5280.1
2879.87952	5266.6
2882.38207	5265.4
2884.88308	5238.6
2887.38256	5232.4
2889.88051	5235.4
2892.37692	5231
2894.8718	5234.3
2897.36515	5226.9
2899.85698	5231.5
2902.34727	5257.1
2904.83604	5233.6
2907.32328	5254
2909.809	5254.9
2912.29319	5240.6
2914.77587	5249
2917.25702	5259.8
2919.73665	5238.6
2922.21476	5259.8
2924.69136	5216.5
2927.16644	5222.2
2929.64	5207.9
2932.11205	5184
2934.58258	5175.6
2937.05161	5156.3
2939.51912	5149.2
2941.98513	5099.8
2944.44962	5074
2946.91261	5012.3
2949.37409	4995.3
2951.83407	4966.8
2954.29254	4934.7
2956.74951	4942.3
2959.20498	4911.3
2961.65895	4917.9
2964.11142	4904.4
2966.56239	4873.9
2969.01186	4886.9
2971.45984	4859.4
2973.90632	4863.9
2976.35131	4847.6
2978.7948	4826
2981.23681	4812.6
2983.67732	4794.3
2986.11635	4788.6
2988.55388	4769.1
2990.98993	4766.4
2993.4245	4754.7
2995.85758	4725.4
2998.28917	4720.9
3000.71928	4720
3003.14791	4687
3005.57506	4702
3008.00073	4672.2
3010.42493	4588.7
3012.84764	4675.6
3015.26888	4680
3017.68865	4667.6
3020.10694	4655.9
3022.52376	4626.5
3024.9391	4635.9
3027.35298	4624.4
3029.76539	4607.3
3032.17632	4590.7
3034.5858	4597.5
3036.9938	4594.9
3039.40034	4584.1
3041.80542	4570.4
3044.20903	4575.8
3046.61118	4558.2
3049.01187	4547.8
3051.4111	4554.1
3053.80888	4542.1
3056.20519	4531.2
3058.60005	4529.2
3060.99345	4528.5
3063.3854	4516.6
3065.7759	4488.9
3068.16494	4488.3
3070.55254	4456.2
3072.93868	4454.3
3075.32338	4450.5
3077.70662	4425.7
3080.08842	4415.3
3082.46878	4401.6
3084.84769	4378.7
3087.22515	4386.4
3089.60118	4376.5
3091.97576	4374.9
3094.3489	4361.9
3096.72061	4367.2
3099.09087	4368.1
3101.4597	4347.8
3103.82709	4348.9
3106.19305	4354.2
3108.55757	4352
3110.92066	4338.7
3113.28232	4338.5
3115.64255	4315.3
3118.00134	4320.8
3120.35871	4320.3
3122.71466	4311.2
3125.06917	4309.6
3127.42226	4295.1
3129.77393	4287.9
3132.12417	4280.5
3134.47299	4292.8
3136.82039	4294.5
3139.16636	4274.9
3141.51092	4275.9
3143.85406	4287.8
3146.19579	4287.1
3148.53609	4299.9
3150.87499	4294.1
3153.21246	4305.1
3155.54853	4314
3157.88318	4321.4
3160.21642	4325
3162.54826	4330
3164.87868	4325.9
3167.2077	4322.5
3169.5353	4327.6
3171.86151	4324
3174.18631	4323.9
3176.5097	4312.2
3178.83169	4323.4
3181.15228	4314.1
3183.47147	4316.6
3185.78926	4316.5
3188.10565	4294.6
3190.42065	4297.7
3192.73424	4293.5
3195.04645	4294.1
3197.35725	4318.3
3199.66667	4300.9
3201.97469	4307
3204.28132	4311.4
3206.58656	4322
3208.8904	4333
3211.19287	4335.2
3213.49394	4329.3
3215.79363	4351.9
3218.09193	4341.9
3220.38884	4352.4
3222.68438	4360.8
3224.97853	4360
3227.2713	4335.6
3229.56269	4342.6
3231.8527	4337.7
3234.14133	4313.1
3236.42858	4301.4
3238.71446	4314.4
3240.99896	4293
3243.28209	4286.8
3245.56384	4268.5
3247.84423	4282.4
3250.12324	4279.2
3252.40088	4265.7
3254.67715	4276
3256.95205	4274.8
3259.22558	4282.4
3261.49775	4264.3
3263.76855	4258.3
3266.03799	4247.4
3268.30606	4244.2
3270.57277	4234.6
3272.83812	4226.2
3275.10211	4207
3277.36474	4195.9
3279.62601	4185
3281.88593	4164.5
3284.14448	4193.2
3286.40168	4195.2
3288.65753	4185.5
3290.91202	4193.1
3293.16516	4184.1
3295.41695	4163
3297.66738	4158.9
3299.91647	4131.4
3302.16421	4094.3
3304.4106	4079.6
3306.65564	4055.4
3308.89933	4027.2
3311.14169	3991.5
3313.38269	3966.9
3315.62236	3946.9
3317.86068	3887
3320.09766	3858.8
3322.3333	3835.1
3324.5676	3826
3326.80056	3776.5
3329.03219	3744.2
3331.26248	1.7
3333.49143	-1.4
3335.71905	-0
