Data from AgNPs_FTO_APTES_UA_5uM_CRN_50uM_R6G_10uM_NaF_0.1M_Addition_RamanShift__14__13-58-56-820.txt Node

Date: Mon Feb 07 13:58:56 GMT 2022
User: TCL
Spectrometer: QEP01345
Trigger mode: 4
Integration Time (sec): 7.000000E0
Scans to average: 10
Electric dark correction enabled: true
Nonlinearity correction enabled: false
Boxcar width: 0
XAxis mode: Raman Shifts
Number of Pixels in Spectrum: 1044
>>>>>Begin Spectral Data<<<<<
46.04893	-0.1125
50.45542	-1.5125
54.85868	-0.7125
59.25871	0.5875
63.6555	70.8875
68.04907	74.7875
72.43941	80.0875
76.82654	82.7875
81.21044	81.7875
85.59113	89.3875
89.96862	94.2875
94.34289	94.6875
98.71396	94.8875
103.08183	102.6875
107.4465	103.6875
111.80798	106.5875
116.16626	109.1875
120.52136	117.4875
124.87327	121.2875
129.222	131.5875
133.56755	138.3875
137.90993	150.3875
142.24913	165.1875
146.58517	190.7875
150.91804	221.3875
155.24774	268.7875
159.57429	335.3875
163.89768	438.4875
168.21792	587.4875
172.53501	798.5875
176.84895	1116.0875
181.15975	1582.5875
185.46741	2228.9875
189.77193	3098.6875
194.07331	4155.6875
198.37157	5359.3875
202.6667	6654.2875
206.9587	7910.4875
211.24758	9147.6875
215.53334	10376.7875
219.81599	11661.7875
224.09553	13065.4875
228.37195	14568.1875
232.64527	16257.1875
236.91549	18050.8875
241.18261	19900.5875
245.44663	21707.2875
249.70755	23292.2875
253.96539	24703.4875
258.22014	25924.7875
262.4718	26910.7875
266.72039	27625.5875
270.96589	28039.9875
275.20832	28206.7875
279.44768	28180.7875
283.68397	28013.4875
287.91719	27893.6875
292.14735	27767.8875
296.37445	27780.4875
300.59849	27826.4875
304.81948	27799.5875
309.03742	27653.9875
313.25231	27285.4875
317.46415	26732.1875
321.67296	26026.4875
325.87872	25504.2875
330.08145	25255.3875
334.28114	25216.8875
338.47781	25369.4875
342.67145	25606.6875
346.86207	25931.8875
351.04966	26286.0875
355.23424	26590.2875
359.4158	26895.4875
363.59435	27166.0875
367.76989	27348.9875
371.94243	27477.9875
376.11196	27554.9875
380.27849	27674.6875
384.44203	27748.2875
388.60257	27925.7875
392.76012	28216.4875
396.91468	28618.3875
401.06626	29058.6875
405.21485	29389.8875
409.36047	29332.0875
413.50311	29042.3875
417.64277	28780.4875
421.77947	28709.3875
425.9132	28754.9875
430.04396	28874.0875
434.17176	29008.6875
438.2966	29190.7875
442.41849	29516.8875
446.53742	29990.6875
450.6534	30544.7875
454.76644	30939.9875
458.87653	31201.8875
462.98368	31263.7875
467.08789	31233.6875
471.18916	31081.0875
475.2875	30957.3875
479.38291	30905.1875
483.4754	30808.5875
487.56496	30564.2875
491.6516	30211.6875
495.73531	29844.1875
499.81612	29569.7875
503.89401	29595.3875
507.96899	29731.3875
512.04106	29793.1875
516.11023	29679.2875
520.1765	29531.2875
524.23987	29196.1875
528.30034	28860.6875
532.35792	28660.4875
536.41261	28406.0875
540.46441	28270.8875
544.51333	28320.5875
548.55936	28677.1875
552.60252	29207.7875
556.64279	29770.0875
560.6802	30231.5875
564.71473	30447.3875
568.7464	30962.7875
572.7752	31713.9875
576.80114	32521.4875
580.82422	33269.4875
584.84444	33877.4875
588.86181	34058.2875
592.87633	33948.5875
596.888	33617.2875
600.89682	33302.8875
604.9028	33573.4875
608.90594	34916.5875
612.90624	36347.3875
616.90371	34541.6875
620.89834	30694.4875
624.89015	29007.6875
628.87913	28850.9875
632.86528	29061.3875
636.84862	29203.1875
640.82913	28950.1875
644.80683	28463.6875
648.78172	28126.3875
652.75379	27950.3875
656.72306	28059.9875
660.68952	28367.3875
664.65319	28368.8875
668.61405	28185.5875
672.57211	28106.9875
676.52738	28115.1875
680.47986	28167.3875
684.42955	28060.4875
688.37646	27940.3875
692.32058	28042.0875
696.26192	28244.3875
700.20048	28483.7875
704.13626	28728.7875
708.06928	28802.7875
711.99952	28775.2875
715.927	28747.0875
719.85171	28676.4875
723.77365	28496.5875
727.69284	28188.8875
731.60928	27943.8875
735.52295	27735.6875
739.43388	27718.9875
743.34206	27756.9875
747.24749	27854.0875
751.15017	28048.1875
755.05012	28478.4875
758.94733	29081.1875
762.8418	30166.1875
766.73354	31757.0875
770.62254	33277.4875
774.50882	33504.5875
778.39237	32298.5875
782.27321	30602.4875
786.15132	29236.0875
790.02671	28371.5875
793.89938	27830.9875
797.76935	27583.8875
801.6366	27495.8875
805.50115	27387.0875
809.36299	27305.7875
813.22213	27205.9875
817.07857	27143.9875
820.93231	27196.1875
824.78336	27065.2875
828.63172	27074.9875
832.47738	26944.0875
836.32036	26936.9875
840.16066	26879.8875
843.99827	26908.1875
847.8332	26903.6875
851.66546	26861.7875
855.49504	26872.9875
859.32195	26898.2875
863.1462	26799.2875
866.96777	26831.9875
870.78668	26743.2875
874.60293	26774.4875
878.41652	26734.9875
882.22745	26791.6875
886.03573	26826.5875
889.84136	26878.1875
893.64433	26823.7875
897.44466	26754.4875
901.24235	26701.7875
905.0374	26640.5875
908.8298	26640.3875
912.61957	26716.6875
916.40671	26920.4875
920.19121	27271.0875
923.97308	27467.4875
927.75233	27253.0875
931.52895	26992.9875
935.30295	26706.6875
939.07433	26366.4875
942.84309	26106.9875
946.60924	25908.6875
950.37278	25783.8875
954.13371	25697.5875
957.89203	25672.1875
961.64774	25660.1875
965.40086	25669.4875
969.15137	25604.6875
972.89929	25534.7875
976.64461	25473.5875
980.38733	25386.1875
984.12747	25425.2875
987.86502	25498.3875
991.59999	25576.4875
995.33237	25685.9875
999.06217	25877.8875
1002.78939	26098.2875
1006.51404	26340.6875
1010.23611	26586.1875
1013.95561	26799.0875
1017.67255	26838.4875
1021.38692	26689.2875
1025.09872	26521.5875
1028.80796	26345.0875
1032.51465	26333.7875
1036.21877	26468.9875
1039.92035	26599.1875
1043.61937	26658.5875
1047.31584	26703.4875
1051.00976	26759.1875
1054.70114	26882.6875
1058.38998	27105.3875
1062.07627	27418.5875
1065.76003	27772.0875
1069.44126	28057.0875
1073.11995	28364.4875
1076.79611	28527.9875
1080.46974	28637.9875
1084.14085	28671.8875
1087.80943	28812.5875
1091.47549	29078.2875
1095.13903	29224.0875
1098.80005	29127.8875
1102.45857	28669.7875
1106.11456	28093.9875
1109.76805	27723.5875
1113.41903	27639.5875
1117.06751	27646.6875
1120.71348	27836.5875
1124.35696	28039.2875
1127.99793	28283.4875
1131.63641	28532.8875
1135.2724	28425.9875
1138.90589	28326.5875
1142.5369	28312.4875
1146.16542	28490.4875
1149.79145	28640.8875
1153.415	28946.0875
1157.03607	29324.7875
1160.65467	29964.6875
1164.27079	30810.7875
1167.88443	31984.8875
1171.49561	33270.3875
1175.10432	34826.9875
1178.71056	36692.3875
1182.31434	38532.0875
1185.91565	39752.0875
1189.51451	40194.5875
1193.11091	39939.7875
1196.70485	39036.4875
1200.29634	37810.1875
1203.88538	36763.1875
1207.47197	36180.6875
1211.05612	35726.9875
1214.63782	35196.8875
1218.21708	34346.1875
1221.79391	33396.5875
1225.36829	32628.6875
1228.94024	32076.5875
1232.50976	31789.9875
1236.07685	31650.0875
1239.6415	31643.8875
1243.20374	31733.7875
1246.76355	31931.3875
1250.32093	32275.7875
1253.8759	32764.7875
1257.42845	33410.9875
1260.97859	34126.9875
1264.52631	34732.0875
1268.07163	35411.7875
1271.61453	36134.5875
1275.15503	36808.7875
1278.69312	37636.0875
1282.22882	38343.0875
1285.76211	39232.4875
1289.29301	40350.1875
1292.82151	41571.9875
1296.34761	43259.9875
1299.87133	45141.6875
1303.39266	46938.1875
1306.9116	48526.7875
1310.42815	49684.6875
1313.94233	50232.2875
1317.45412	50186.7875
1320.96354	50111.3875
1324.47058	50138.6875
1327.97525	50339.5875
1331.47754	50536.5875
1334.97747	50867.6875
1338.47502	51248.8875
1341.97022	51671.7875
1345.46305	51840.2875
1348.95352	51641.3875
1352.44163	50913.8875
1355.92738	50243.4875
1359.41078	50049.8875
1362.89183	50103.5875
1366.37053	49069.2875
1369.84688	46324.2875
1373.32088	43021.3875
1376.79254	40564.8875
1380.26186	39531.5875
1383.72883	39386.7875
1387.19347	39543.4875
1390.65578	39347.0875
1394.11575	39184.8875
1397.57339	39221.6875
1401.0287	39437.3875
1404.48168	39568.2875
1407.93234	39437.6875
1411.38068	38692.4875
1414.82669	37533.1875
1418.27039	36158.7875
1421.71177	34801.4875
1425.15083	33723.0875
1428.58758	33127.3875
1432.02203	33161.8875
1435.45416	33603.5875
1438.88399	34263.1875
1442.31151	34909.4875
1445.73673	35492.1875
1449.15965	35975.9875
1452.58027	36469.6875
1455.9986	36827.6875
1459.41463	37239.6875
1462.82837	37715.0875
1466.23982	38207.3875
1469.64898	38629.2875
1473.05586	38882.5875
1476.46045	38888.6875
1479.86276	38783.6875
1483.26279	38692.8875
1486.66054	38675.4875
1490.05602	38879.4875
1493.44922	39307.9875
1496.84016	40006.4875
1500.22882	41042.9875
1503.61521	42369.8875
1506.99934	43753.9875
1510.38121	44759.5875
1513.76081	44957.5875
1517.13816	44407.8875
1520.51324	43427.8875
1523.88607	42592.4875
1527.25665	42158.6875
1530.62498	41907.5875
1533.99105	41573.9875
1537.35488	41008.6875
1540.71647	40163.5875
1544.07581	39119.6875
1547.4329	38115.5875
1550.78776	37316.5875
1554.14038	36778.5875
1557.49077	36561.4875
1560.83892	36532.7875
1564.18484	36558.7875
1567.52853	36718.9875
1570.86999	36985.9875
1574.20922	37474.5875
1577.54624	37976.8875
1580.88103	38099.2875
1584.2136	38075.1875
1587.54395	38429.6875
1590.87208	39234.9875
1594.19801	40458.9875
1597.52172	41653.2875
1600.84321	41884.8875
1604.16251	40595.1875
1607.47959	38579.2875
1610.79447	36475.8875
1614.10715	34358.8875
1617.41763	32443.8875
1620.7259	30907.8875
1624.03199	29961.7875
1627.33587	29656.9875
1630.63757	29964.9875
1633.93707	31164.6875
1637.23439	33114.8875
1640.52951	36078.3875
1643.82246	39733.1875
1647.11321	42965.5875
1650.40179	44446.3875
1653.68819	43184.7875
1656.97241	39649.6875
1660.25446	35408.1875
1663.53433	31674.8875
1666.81203	28857.8875
1670.08756	26990.4875
1673.36092	25769.3875
1676.63211	24908.8875
1679.90115	24406.4875
1683.16801	23981.7875
1686.43272	23656.5875
1689.69527	23451.5875
1692.95567	23287.9875
1696.2139	23140.6875
1699.46999	23036.6875
1702.72392	22947.2875
1705.97571	22908.6875
1709.22535	22790.5875
1712.47284	22796.8875
1715.71819	22693.7875
1718.96139	22637.4875
1722.20246	22541.3875
1725.44139	22466.4875
1728.67818	22373.9875
1731.91284	22240.7875
1735.14537	22113.7875
1738.37576	22054.6875
1741.60403	21953.2875
1744.83017	21891.0875
1748.05418	21831.1875
1751.27607	21822.9875
1754.49584	21770.9875
1757.71349	21746.4875
1760.92903	21741.1875
1764.14244	21733.0875
1767.35375	21706.5875
1770.56294	21672.8875
1773.77002	21579.5875
1776.97499	21528.3875
1780.17785	21452.0875
1783.37861	21432.7875
1786.57727	21414.1875
1789.77382	21352.1875
1792.96828	21295.0875
1796.16064	21245.4875
1799.3509	21212.5875
1802.53907	21177.7875
1805.72514	21087.5875
1808.90913	21029.9875
1812.09102	20984.9875
1815.27083	20915.2875
1818.44856	20898.3875
1821.6242	20875.7875
1824.79776	20835.0875
1827.96924	20786.8875
1831.13864	20784.0875
1834.30597	20779.4875
1837.47122	20738.9875
1840.6344	20736.7875
1843.7955	20691.5875
1846.95454	20697.1875
1850.11151	20682.8875
1853.26642	20679.4875
1856.41926	20681.9875
1859.57004	20617.6875
1862.71876	20606.5875
1865.86542	20611.8875
1869.01003	20565.7875
1872.15258	20457.3875
1875.29308	20446.8875
1878.43152	20417.4875
1881.56792	20353.3875
1884.70227	20339.6875
1887.83457	20328.6875
1890.96482	20242.1875
1894.09304	20212.8875
1897.21921	20207.0875
1900.34335	20195.9875
1903.46544	20136.9875
1906.58551	20174.8875
1909.70353	20087.7875
1912.81953	20071.7875
1915.93349	20006.3875
1919.04543	19993.3875
1922.15534	19947.2875
1925.26322	19894.4875
1928.36908	19855.3875
1931.47292	19810.0875
1934.57473	19771.3875
1937.67453	19742.0875
1940.77232	19681.1875
1943.86808	19596.2875
1946.96184	19529.9875
1950.05358	19479.8875
1953.14331	19468.3875
1956.23103	19362.5875
1959.31675	19314.7875
1962.40046	19244.7875
1965.48217	19186.7875
1968.56188	19152.8875
1971.63959	19077.6875
1974.7153	19002.2875
1977.78901	18937.0875
1980.86073	18871.7875
1983.93046	18832.4875
1986.99819	18759.2875
1990.06394	18692.1875
1993.1277	18680.4875
1996.18947	18631.9875
1999.24925	18552.1875
2002.30706	18488.3875
2005.36288	18418.7875
2008.41672	18392.4875
2011.46859	18322.3875
2014.51848	18283.6875
2017.56639	18186.2875
2020.61233	18172.5875
2023.6563	18101.4875
2026.6983	18027.9875
2029.73833	17965.9875
2032.7764	17918.6875
2035.8125	17885.0875
2038.84664	17825.4875
2041.87881	17810.9875
2044.90903	17785.6875
2047.93729	17693.2875
2050.96359	17699.7875
2053.98794	17687.7875
2057.01034	17687.0875
2060.03078	17647.3875
2063.04927	17617.7875
2066.06582	17604.5875
2069.08042	17598.2875
2072.09307	17549.8875
2075.10378	17541.7875
2078.11255	17528.9875
2081.11938	17520.7875
2084.12426	17537.9875
2087.12722	17543.4875
2090.12824	17487.4875
2093.12732	17467.4875
2096.12447	17463.1875
2099.11969	17446.9875
2102.11299	17467.9875
2105.10435	17476.8875
2108.09379	17478.7875
2111.08131	17466.7875
2114.0669	17501.0875
2117.05057	17519.5875
2120.03233	17518.1875
2123.01216	17498.8875
2125.99008	17545.5875
2128.96609	17529.2875
2131.94018	17536.7875
2134.91236	17572.3875
2137.88263	17550.6875
2140.851	17577.4875
2143.81746	17583.9875
2146.78201	17554.5875
2149.74466	17552.5875
2152.7054	17518.5875
2155.66425	17552.0875
2158.6212	17521.5875
2161.57625	17479.0875
2164.52941	17497.2875
2167.48067	17473.2875
2170.43004	17455.0875
2173.37752	17434.1875
2176.32311	17422.6875
2179.26681	17451.4875
2182.20863	17426.2875
2185.14856	17415.2875
2188.08661	17424.4875
2191.02278	17438.7875
2193.95707	17402.7875
2196.88948	17363.6875
2199.82001	17340.1875
2202.74867	17322.5875
2205.67545	17297.5875
2208.60037	17284.1875
2211.52341	17232.2875
2214.44458	17211.2875
2217.36388	17183.7875
2220.28132	17153.7875
2223.1969	17081.7875
2226.11061	17067.2875
2229.02246	17026.2875
2231.93245	16959.8875
2234.84058	16922.3875
2237.74686	16876.4875
2240.65128	16897.2875
2243.55385	16854.6875
2246.45456	16834.2875
2249.35343	16803.3875
2252.25044	16804.0875
2255.14561	16753.0875
2258.03893	16716.3875
2260.93041	16685.5875
2263.82004	16667.5875
2266.70783	16618.2875
2269.59378	16559.0875
2272.4779	16485.0875
2275.36017	16435.8875
2278.24061	16444.6875
2281.11922	16387.3875
2283.996	16343.2875
2286.87094	16311.3875
2289.74405	16276.5875
2292.61534	16271.5875
2295.4848	16241.6875
2298.35243	16222.6875
2301.21824	16242.2875
2304.08223	16210.2875
2306.94439	16199.9875
2309.80474	16187.9875
2312.66327	16219.9875
2315.51999	16146.7875
2318.37489	16135.8875
2321.22797	16110.5875
2324.07925	16082.4875
2326.92871	16054.9875
2329.77637	15990.2875
2332.62222	15959.3875
2335.46626	15957.4875
2338.3085	15929.8875
2341.14893	15885.6875
2343.98756	15906.5875
2346.8244	15888.9875
2349.65943	15873.6875
2352.49267	15859.3875
2355.32411	15876.9875
2358.15376	15830.0875
2360.98161	15843.8875
2363.80768	15831.0875
2366.63195	15812.1875
2369.45444	15814.1875
2372.27514	15776.4875
2375.09405	15773.8875
2377.91118	15722.5875
2380.72652	15672.9875
2383.54009	15655.7875
2386.35187	15633.1875
2389.16188	15556.1875
2391.97011	15533.0875
2394.77657	15524.4875
2397.58125	15457.0875
2400.38416	15441.6875
2403.18529	15414.4875
2405.98466	15404.3875
2408.78226	15419.0875
2411.57809	15362.1875
2414.37216	15344.3875
2417.16446	15343.9875
2419.955	15324.8875
2422.74378	15320.2875
2425.5308	15242.5875
2428.31606	15242.5875
2431.09956	15240.0875
2433.88131	15234.1875
2436.6613	15222.1875
2439.43954	15240.8875
2442.21603	15188.2875
2444.99077	15183.7875
2447.76377	15151.7875
2450.53501	15146.5875
2453.30451	15140.6875
2456.07226	15094.5875
2458.83827	15080.8875
2461.60254	15089.5875
2464.36507	15064.2875
2467.12586	15025.2875
2469.88492	15039.9875
2472.64224	15054.6875
2475.39782	15063.8875
2478.15167	15035.0875
2480.90379	15009.0875
2483.65417	14979.3875
2486.40283	14989.5875
2489.14976	14988.5875
2491.89497	14960.9875
2494.63845	14980.5875
2497.3802	14957.3875
2500.12024	14966.8875
2502.85855	14948.1875
2505.59514	14933.3875
2508.33002	14900.5875
2511.06318	14891.6875
2513.79462	14854.5875
2516.52435	14874.7875
2519.25237	14832.7875
2521.97867	14818.4875
2524.70327	14815.2875
2527.42616	14765.6875
2530.14734	14776.0875
2532.86681	14788.1875
2535.58458	14777.0875
2538.30065	14727.3875
2541.01501	14733.4875
2543.72768	14717.6875
2546.43864	14663.1875
2549.14791	14641.3875
2551.85548	14619.2875
2554.56136	14592.8875
2557.26554	14563.5875
2559.96803	14544.8875
2562.66883	14512.4875
2565.36794	14480.5875
2568.06536	14448.5875
2570.7611	14431.0875
2573.45514	14412.8875
2576.14751	14377.9875
2578.83819	14331.0875
2581.52719	14381.4875
2584.21451	14325.4875
2586.90015	14328.7875
2589.58411	14323.4875
2592.2664	14293.0875
2594.94701	14255.5875
2597.62594	14271.2875
2600.30321	14209.1875
2602.9788	14202.2875
2605.65273	14196.2875
2608.32498	14175.6875
2610.99557	14150.1875
2613.66449	14162.8875
2616.33175	14117.5875
2618.99734	14105.2875
2621.66128	14091.6875
2624.32355	14065.9875
2626.98416	14061.2875
2629.64311	14053.2875
2632.30041	14057.5875
2634.95605	14025.6875
2637.61004	13991.7875
2640.26238	13989.5875
2642.91306	14006.7875
2645.56209	13975.8875
2648.20948	13981.1875
2650.85521	13963.9875
2653.4993	13990.9875
2656.14175	13966.9875
2658.78255	14001.5875
2661.42171	13962.1875
2664.05923	13988.1875
2666.6951	13985.5875
2669.32934	13988.4875
2671.96194	13978.6875
2674.59291	13986.6875
2677.22224	13970.2875
2679.84993	13972.9875
2682.476	13940.5875
2685.10043	13938.3875
2687.72324	13931.9875
2690.34441	13912.4875
2692.96396	13907.7875
2695.58188	13938.7875
2698.19818	13921.8875
2700.81285	13934.1875
2703.4259	13925.2875
2706.03733	13973.2875
2708.64714	13933.1875
2711.25533	13927.9875
2713.86191	13904.1875
2716.46687	13935.7875
2719.07021	13954.3875
2721.67194	13988.7875
2724.27206	13945.6875
2726.87057	13938.5875
2729.46747	13945.3875
2732.06276	13968.0875
2734.65644	13951.6875
2737.24852	13888.5875
2739.83899	13898.7875
2742.42786	13932.7875
2745.01513	13857.3875
2747.60079	13847.4875
2750.18486	13842.2875
2752.76733	13810.3875
2755.3482	13809.7875
2757.92747	13801.8875
2760.50515	13765.9875
2763.08123	13790.4875
2765.65573	13774.2875
2768.22863	13785.6875
2770.79994	13744.8875
2773.36967	13752.9875
2775.9378	13714.5875
2778.50435	13677.7875
2781.06932	13714.5875
2783.6327	13689.9875
2786.1945	13694.3875
2788.75471	13676.8875
2791.31335	13638.2875
2793.87041	13589.4875
2796.42589	13542.4875
2798.97979	13537.4875
2801.53212	13507.0875
2804.08288	13485.0875
2806.63206	13450.0875
2809.17967	13438.9875
2811.72571	13391.0875
2814.27018	13365.6875
2816.81308	13361.6875
2819.35442	13322.8875
2821.89419	13297.3875
2824.43239	13307.4875
2826.96904	13313.2875
2829.50412	13291.1875
2832.03763	13226.2875
2834.56959	13235.9875
2837.1	13238.9875
2839.62884	13219.6875
2842.15613	13229.0875
2844.68186	13243.5875
2847.20604	13277.7875
2849.72867	13237.5875
2852.24974	13249.3875
2854.76927	13219.4875
2857.28724	13210.5875
2859.80367	13196.4875
2862.31855	13165.3875
2864.83189	13141.4875
2867.34368	13112.9875
2869.85393	13091.9875
2872.36264	13069.4875
2874.8698	13075.6875
2877.37543	13019.5875
2879.87952	13035.9875
2882.38207	13000.8875
2884.88308	13021.8875
2887.38256	13024.1875
2889.88051	13020.9875
2892.37692	12988.8875
2894.8718	13002.5875
2897.36515	13011.3875
2899.85698	12987.7875
2902.34727	13022.2875
2904.83604	13021.4875
2907.32328	13043.2875
2909.809	13036.6875
2912.29319	13046.0875
2914.77587	13032.9875
2917.25702	13030.5875
2919.73665	13037.5875
2922.21476	13017.1875
2924.69136	13011.9875
2927.16644	13005.3875
2929.64	12966.6875
2932.11205	12965.4875
2934.58258	12937.4875
2937.05161	12923.0875
2939.51912	12932.4875
2941.98513	12893.4875
2944.44962	12882.1875
2946.91261	12830.0875
2949.37409	12815.9875
2951.83407	12812.3875
2954.29254	12819.1875
2956.74951	12795.3875
2959.20498	12768.7875
2961.65895	12744.0875
2964.11142	12721.0875
2966.56239	12705.2875
2969.01186	12722.2875
2971.45984	12669.6875
2973.90632	12660.9875
2976.35131	12687.9875
2978.7948	12640.1875
2981.23681	12645.2875
2983.67732	12629.8875
2986.11635	12567.2875
2988.55388	12538.5875
2990.98993	12523.3875
2993.4245	12495.5875
2995.85758	12441.8875
2998.28917	12409.9875
3000.71928	12393.3875
3003.14791	12367.1875
3005.57506	12349.8875
3008.00073	12298.0875
3010.42493	12180.7875
3012.84764	12267.9875
3015.26888	12246.1875
3017.68865	12203.0875
3020.10694	12205.9875
3022.52376	12159.5875
3024.9391	12155.9875
3027.35298	12152.0875
3029.76539	12137.7875
3032.17632	12072.5875
3034.5858	12041.8875
3036.9938	12046.2875
3039.40034	12065.4875
3041.80542	12051.2875
3044.20903	12051.8875
3046.61118	12010.8875
3049.01187	11968.1875
3051.4111	11956.6875
3053.80888	11929.5875
3056.20519	11922.3875
3058.60005	11897.3875
3060.99345	11873.3875
3063.3854	11851.6875
3065.7759	11796.5875
3068.16494	11783.2875
3070.55254	11715.6875
3072.93868	11706.2875
3075.32338	11646.0875
3077.70662	11654.3875
3080.08842	11582.7875
3082.46878	11588.7875
3084.84769	11561.7875
3087.22515	11561.7875
3089.60118	11590.9875
3091.97576	11561.3875
3094.3489	11555.0875
3096.72061	11518.9875
3099.09087	11518.5875
3101.4597	11527.6875
3103.82709	11530.6875
3106.19305	11485.7875
3108.55757	11512.8875
3110.92066	11449.7875
3113.28232	11471.8875
3115.64255	11431.3875
3118.00134	11427.1875
3120.35871	11397.2875
3122.71466	11348.7875
3125.06917	11330.1875
3127.42226	11284.1875
3129.77393	11287.3875
3132.12417	11228.8875
3134.47299	11267.4875
3136.82039	11246.9875
3139.16636	11232.6875
3141.51092	11221.8875
3143.85406	11217.4875
3146.19579	11214.3875
3148.53609	11222.8875
3150.87499	11211.8875
3153.21246	11215.6875
3155.54853	11238.7875
3157.88318	11231.6875
3160.21642	11237.4875
3162.54826	11238.1875
3164.87868	11223.7875
3167.2077	11238.4875
3169.5353	11225.2875
3171.86151	11238.3875
3174.18631	11216.4875
3176.5097	11185.6875
3178.83169	11169.3875
3181.15228	11149.0875
3183.47147	11130.8875
3185.78926	11127.4875
3188.10565	11071.1875
3190.42065	11076.0875
3192.73424	11078.4875
3195.04645	11046.7875
3197.35725	11013.3875
3199.66667	11002.2875
3201.97469	11026.3875
3204.28132	11032.4875
3206.58656	11033.7875
3208.8904	11024.2875
3211.19287	11048.7875
3213.49394	11043.8875
3215.79363	11033.7875
3218.09193	11040.2875
3220.38884	11038.3875
3222.68438	11048.8875
3224.97853	11012.6875
3227.2713	11010.1875
3229.56269	10971.3875
3231.8527	10957.9875
3234.14133	10922.3875
3236.42858	10909.0875
3238.71446	10899.5875
3240.99896	10871.9875
3243.28209	10864.3875
3245.56384	10824.7875
3247.84423	10830.6875
3250.12324	10823.4875
3252.40088	10788.4875
3254.67715	10771.6875
3256.95205	10797.9875
3259.22558	10768.7875
3261.49775	10770.5875
3263.76855	10753.8875
3266.03799	10739.7875
3268.30606	10670.8875
3270.57277	10656.3875
3272.83812	10629.4875
3275.10211	10589.1875
3277.36474	10624.3875
3279.62601	10590.6875
3281.88593	10572.1875
3284.14448	10576.5875
3286.40168	10598.1875
3288.65753	10578.9875
3290.91202	10565.3875
3293.16516	10514.6875
3295.41695	10472.1875
3297.66738	10443.1875
3299.91647	10392.4875
3302.16421	10328.4875
3304.4106	10275.0875
3306.65564	10194.9875
3308.89933	10137.8875
3311.14169	10051.9875
3313.38269	9963.0875
3315.62236	9902.5875
3317.86068	9831.2875
3320.09766	9739.0875
3322.3333	9675.7875
3324.5676	9625.4875
3326.80056	9472.1875
3329.03219	9407.1875
3331.26248	2.3875
3333.49143	-0.5125
3335.71905	-0.5125
