Data from AgNPs_FTO_APTES_UA_5uM_CRN_2uM_R6G_10uM_NaF_0.1M_Addition_RamanShift__12__11-10-56-620.txt Node

Date: Mon Feb 07 11:10:56 GMT 2022
User: TCL
Spectrometer: QEP01345
Trigger mode: 4
Integration Time (sec): 7.000000E0
Scans to average: 10
Electric dark correction enabled: true
Nonlinearity correction enabled: false
Boxcar width: 0
XAxis mode: Raman Shifts
Number of Pixels in Spectrum: 1044
>>>>>Begin Spectral Data<<<<<
46.04893	-0.1625
50.45542	-0.8625
54.85868	-2.1625
59.25871	0.0375
63.6555	104.8375
68.04907	106.1375
72.43941	113.7375
76.82654	120.9375
81.21044	122.5375
85.59113	127.4375
89.96862	134.4375
94.34289	131.2375
98.71396	140.1375
103.08183	143.0375
107.4465	150.1375
111.80798	153.6375
116.16626	156.7375
120.52136	165.1375
124.87327	174.5375
129.222	184.3375
133.56755	198.5375
137.90993	216.9375
142.24913	239.1375
146.58517	279.3375
150.91804	320.3375
155.24774	388.4375
159.57429	496.9375
163.89768	634.7375
168.21792	853.7375
172.53501	1163.4375
176.84895	1631.3375
181.15975	2303.5375
185.46741	3227.9375
189.77193	4441.0375
194.07331	5964.9375
198.37157	7693.9375
202.6667	9520.8375
206.9587	11291.1375
211.24758	13098.7375
215.53334	14820.2375
219.81599	16650.5375
224.09553	18751.4375
228.37195	20942.0375
232.64527	23428.2375
236.91549	25981.7375
241.18261	28622.3375
245.44663	31089.1375
249.70755	33337.9375
253.96539	35300.2375
258.22014	36915.5375
262.4718	38197.1375
266.72039	39015.6375
270.96589	39478.1375
275.20832	39543.9375
279.44768	39313.7375
283.68397	39021.2375
287.91719	38730.7375
292.14735	38466.4375
296.37445	38367.8375
300.59849	38314.1375
304.81948	38418.7375
309.03742	38426.3375
313.25231	38215.9375
317.46415	37731.1375
321.67296	36983.6375
325.87872	36244.0375
330.08145	35860.9375
334.28114	35805.2375
338.47781	35902.9375
342.67145	36246.7375
346.86207	36728.1375
351.04966	37254.4375
355.23424	37813.3375
359.4158	38322.8375
363.59435	38779.4375
367.76989	39055.4375
371.94243	39148.2375
376.11196	39150.1375
380.27849	39120.5375
384.44203	39113.8375
388.60257	39337.4375
392.76012	39870.1375
396.91468	40544.1375
401.06626	41286.9375
405.21485	41855.8375
409.36047	41653.5375
413.50311	41192.1375
417.64277	41040.3375
421.77947	41386.1375
425.9132	41703.8375
430.04396	42005.2375
434.17176	42135.5375
438.2966	42120.2375
442.41849	42402.8375
446.53742	43079.5375
450.6534	43991.6375
454.76644	44551.2375
458.87653	44663.9375
462.98368	44676.4375
467.08789	44314.9375
471.18916	43797.8375
475.2875	43268.1375
479.38291	42971.1375
483.4754	42901.7375
487.56496	42672.8375
491.6516	42266.7375
495.73531	41685.3375
499.81612	41321.5375
503.89401	41364.6375
507.96899	41644.4375
512.04106	41717.2375
516.11023	41491.0375
520.1765	40852.9375
524.23987	40193.7375
528.30034	39653.9375
532.35792	39114.5375
536.41261	38679.4375
540.46441	38310.8375
544.51333	38245.4375
548.55936	38729.7375
552.60252	39523.5375
556.64279	40395.1375
560.6802	41150.3375
564.71473	41716.0375
568.7464	42803.9375
572.7752	44597.8375
576.80114	46920.2375
580.82422	49336.3375
584.84444	51693.5375
588.86181	54610.8375
592.87633	57503.3375
596.888	57228.2375
600.89682	53534.2375
604.9028	50724.3375
608.90594	51488.4375
612.90624	52865.5375
616.90371	49367.0375
620.89834	42966.6375
624.89015	40289.7375
628.87913	40321.5375
632.86528	40894.3375
636.84862	40873.4375
640.82913	39927.0375
644.80683	38693.4375
648.78172	37891.0375
652.75379	37854.6375
656.72306	38226.8375
660.68952	38655.4375
664.65319	38444.8375
668.61405	37886.5375
672.57211	37805.7375
676.52738	37958.9375
680.47986	37855.3375
684.42955	37499.5375
688.37646	37301.8375
692.32058	37560.5375
696.26192	38115.1375
700.20048	38669.4375
704.13626	39126.5375
708.06928	39486.3375
711.99952	39524.5375
715.927	39412.1375
719.85171	39245.6375
723.77365	38803.0375
727.69284	38035.3375
731.60928	37342.7375
735.52295	37005.3375
739.43388	36904.7375
743.34206	36996.7375
747.24749	37355.5375
751.15017	37928.1375
755.05012	38701.8375
758.94733	39898.9375
762.8418	41707.6375
766.73354	44328.7375
770.62254	46461.6375
774.50882	46416.7375
778.39237	44294.3375
782.27321	41659.2375
786.15132	39570.9375
790.02671	38169.3375
793.89938	37359.6375
797.76935	36975.3375
801.6366	36793.6375
805.50115	36632.8375
809.36299	36499.3375
813.22213	36279.3375
817.07857	36109.8375
820.93231	36037.3375
824.78336	35821.4375
828.63172	35557.2375
832.47738	35419.9375
836.32036	35296.2375
840.16066	35294.7375
843.99827	35282.2375
847.8332	35318.5375
851.66546	35420.4375
855.49504	35510.7375
859.32195	35489.8375
863.1462	35420.1375
866.96777	35358.5375
870.78668	35302.9375
874.60293	35297.6375
878.41652	35283.0375
882.22745	35360.8375
886.03573	35443.1375
889.84136	35438.7375
893.64433	35358.9375
897.44466	35315.7375
901.24235	35281.3375
905.0374	35236.8375
908.8298	35209.1375
912.61957	35330.1375
916.40671	35727.3375
920.19121	36404.8375
923.97308	37056.8375
927.75233	37042.6375
931.52895	36503.1375
935.30295	35649.9375
939.07433	34727.6375
942.84309	34108.4375
946.60924	33814.7375
950.37278	33601.2375
954.13371	33605.4375
957.89203	33622.6375
961.64774	33676.6375
965.40086	33654.6375
969.15137	33623.1375
972.89929	33405.9375
976.64461	33212.3375
980.38733	33070.3375
984.12747	33051.7375
987.86502	33124.4375
991.59999	33253.8375
995.33237	33471.1375
999.06217	33876.1375
1002.78939	34438.3375
1006.51404	35176.2375
1010.23611	35972.1375
1013.95561	36422.9375
1017.67255	36447.5375
1021.38692	36062.1375
1025.09872	35360.3375
1028.80796	34828.1375
1032.51465	34615.6375
1036.21877	34699.9375
1039.92035	34850.2375
1043.61937	35045.4375
1047.31584	35197.7375
1051.00976	35368.5375
1054.70114	35595.1375
1058.38998	35888.8375
1062.07627	36348.6375
1065.76003	36974.5375
1069.44126	37715.1375
1073.11995	38511.4375
1076.79611	39197.5375
1080.46974	39451.0375
1084.14085	39591.1375
1087.80943	40072.4375
1091.47549	40635.8375
1095.13903	40987.1375
1098.80005	40436.5375
1102.45857	39151.4375
1106.11456	37942.4375
1109.76805	37281.4375
1113.41903	37034.2375
1117.06751	37065.8375
1120.71348	37379.7375
1124.35696	37695.7375
1127.99793	38182.8375
1131.63641	38486.5375
1135.2724	38609.1375
1138.90589	38648.2375
1142.5369	38953.6375
1146.16542	39345.8375
1149.79145	39837.2375
1153.415	40455.2375
1157.03607	41185.5375
1160.65467	42500.0375
1164.27079	44612.2375
1167.88443	47042.5375
1171.49561	49432.6375
1175.10432	52006.1375
1178.71056	55204.0375
1182.31434	58232.3375
1185.91565	59951.8375
1189.51451	60181.0375
1193.11091	59219.6375
1196.70485	57482.5375
1200.29634	55433.2375
1203.88538	54239.5375
1207.47197	53973.7375
1211.05612	54246.8375
1214.63782	53604.7375
1218.21708	51903.4375
1221.79391	49721.3375
1225.36829	47865.3375
1228.94024	46873.3375
1232.50976	46240.6375
1236.07685	45763.3375
1239.6415	45436.7375
1243.20374	45357.4375
1246.76355	45629.7375
1250.32093	46295.7375
1253.8759	47293.9375
1257.42845	48670.8375
1260.97859	50260.2375
1264.52631	51952.1375
1268.07163	53552.0375
1271.61453	55239.8375
1275.15503	57013.3375
1278.69312	59100.7375
1282.22882	61469.7375
1285.76211	64184.5375
1289.29301	67116.2375
1292.82151	70415.4375
1296.34761	74162.7375
1299.87133	78464.3375
1303.39266	82616.4375
1306.9116	85685.2375
1310.42815	87388.1375
1313.94233	87604.8375
1317.45412	86602.9375
1320.96354	85551.2375
1324.47058	85275.2375
1327.97525	85703.4375
1331.47754	86028.1375
1334.97747	85823.8375
1338.47502	85007.1375
1341.97022	84165.2375
1345.46305	83028.8375
1348.95352	81752.9375
1352.44163	80740.4375
1355.92738	80632.3375
1359.41078	82116.9375
1362.89183	83718.5375
1366.37053	83096.1375
1369.84688	78281.9375
1373.32088	70894.3375
1376.79254	65174.6375
1380.26186	62991.4375
1383.72883	63214.0375
1387.19347	63327.2375
1390.65578	62595.2375
1394.11575	62152.9375
1397.57339	62754.5375
1401.0287	64066.6375
1404.48168	65004.9375
1407.93234	64704.5375
1411.38068	62882.8375
1414.82669	60059.3375
1418.27039	56946.6375
1421.71177	54242.3375
1425.15083	52268.0375
1428.58758	51606.4375
1432.02203	52313.7375
1435.45416	54003.6375
1438.88399	55808.7375
1442.31151	57070.1375
1445.73673	57857.2375
1449.15965	58448.9375
1452.58027	58707.7375
1455.9986	58915.5375
1459.41463	59389.5375
1462.82837	60364.5375
1466.23982	61428.1375
1469.64898	62376.7375
1473.05586	62774.2375
1476.46045	62665.7375
1479.86276	62292.9375
1483.26279	61903.0375
1486.66054	61795.8375
1490.05602	62238.2375
1493.44922	63086.7375
1496.84016	64308.5375
1500.22882	65552.7375
1503.61521	66832.5375
1506.99934	68127.0375
1510.38121	68963.9375
1513.76081	69174.8375
1517.13816	68748.7375
1520.51324	68499.5375
1523.88607	68657.9375
1527.25665	69040.8375
1530.62498	69204.0375
1533.99105	68365.1375
1537.35488	66597.9375
1540.71647	64248.7375
1544.07581	61528.1375
1547.4329	59143.2375
1550.78776	57236.9375
1554.14038	55952.1375
1557.49077	55307.0375
1560.83892	54828.8375
1564.18484	54678.8375
1567.52853	54728.2375
1570.86999	55117.3375
1574.20922	56330.6375
1577.54624	57592.8375
1580.88103	58380.3375
1584.2136	59462.0375
1587.54395	61826.4375
1590.87208	65353.5375
1594.19801	69263.7375
1597.52172	72202.7375
1600.84321	71860.7375
1604.16251	67442.0375
1607.47959	61372.1375
1610.79447	55674.9375
1614.10715	50734.4375
1617.41763	46715.8375
1620.7259	44061.4375
1624.03199	42820.3375
1627.33587	42845.9375
1630.63757	44393.8375
1633.93707	47884.4375
1637.23439	53792.3375
1640.52951	62502.9375
1643.82246	73074.1375
1647.11321	81656.7375
1650.40179	83179.2375
1653.68819	76264.5375
1656.97241	64924.0375
1660.25446	53950.5375
1663.53433	45774.0375
1666.81203	40535.1375
1670.08756	37292.6375
1673.36092	35228.7375
1676.63211	33978.1375
1679.90115	33099.1375
1683.16801	32444.4375
1686.43272	31861.4375
1689.69527	31471.8375
1692.95567	31196.3375
1696.2139	30980.3375
1699.46999	30826.1375
1702.72392	30649.2375
1705.97571	30537.9375
1709.22535	30409.5375
1712.47284	30283.5375
1715.71819	30253.5375
1718.96139	30119.6375
1722.20246	29976.6375
1725.44139	29838.4375
1728.67818	29643.3375
1731.91284	29427.3375
1735.14537	29190.3375
1738.37576	29069.7375
1741.60403	28891.2375
1744.83017	28780.4375
1748.05418	28673.3375
1751.27607	28568.6375
1754.49584	28511.5375
1757.71349	28465.0375
1760.92903	28420.0375
1764.14244	28351.9375
1767.35375	28335.3375
1770.56294	28285.6375
1773.77002	28177.4375
1776.97499	28088.0375
1780.17785	28016.7375
1783.37861	27957.5375
1786.57727	27865.0375
1789.77382	27790.0375
1792.96828	27745.3375
1796.16064	27684.2375
1799.3509	27637.2375
1802.53907	27594.0375
1805.72514	27503.2375
1808.90913	27397.0375
1812.09102	27344.7375
1815.27083	27274.7375
1818.44856	27260.8375
1821.6242	27183.4375
1824.79776	27153.9375
1827.96924	27117.2375
1831.13864	27121.4375
1834.30597	27117.2375
1837.47122	27123.3375
1840.6344	27111.6375
1843.7955	27168.4375
1846.95454	27144.6375
1850.11151	27154.8375
1853.26642	27067.6375
1856.41926	27085.0375
1859.57004	27064.3375
1862.71876	27031.7375
1865.86542	26959.0375
1869.01003	26913.6375
1872.15258	26808.0375
1875.29308	26725.5375
1878.43152	26716.2375
1881.56792	26695.4375
1884.70227	26605.9375
1887.83457	26580.1375
1890.96482	26492.0375
1894.09304	26451.4375
1897.21921	26412.8375
1900.34335	26328.8375
1903.46544	26317.3375
1906.58551	26278.7375
1909.70353	26199.5375
1912.81953	26162.1375
1915.93349	26095.3375
1919.04543	26012.7375
1922.15534	25910.3375
1925.26322	25822.7375
1928.36908	25747.4375
1931.47292	25699.8375
1934.57473	25583.4375
1937.67453	25496.2375
1940.77232	25425.1375
1943.86808	25372.3375
1946.96184	25245.1375
1950.05358	25197.1375
1953.14331	25134.8375
1956.23103	25015.7375
1959.31675	24929.7375
1962.40046	24839.6375
1965.48217	24776.9375
1968.56188	24731.9375
1971.63959	24604.7375
1974.7153	24488.9375
1977.78901	24391.0375
1980.86073	24288.6375
1983.93046	24189.4375
1986.99819	24142.0375
1990.06394	24072.3375
1993.1277	24046.0375
1996.18947	23954.5375
1999.24925	23855.0375
2002.30706	23730.0375
2005.36288	23664.9375
2008.41672	23588.9375
2011.46859	23545.7375
2014.51848	23444.9375
2017.56639	23365.4375
2020.61233	23312.7375
2023.6563	23238.6375
2026.6983	23163.0375
2029.73833	23161.5375
2032.7764	23048.8375
2035.8125	22968.1375
2038.84664	22916.1375
2041.87881	22882.7375
2044.90903	22851.2375
2047.93729	22801.4375
2050.96359	22761.4375
2053.98794	22747.8375
2057.01034	22699.6375
2060.03078	22668.9375
2063.04927	22660.8375
2066.06582	22639.0375
2069.08042	22637.2375
2072.09307	22636.2375
2075.10378	22576.4375
2078.11255	22528.6375
2081.11938	22570.9375
2084.12426	22518.7375
2087.12722	22497.7375
2090.12824	22464.1375
2093.12732	22436.8375
2096.12447	22491.6375
2099.11969	22488.3375
2102.11299	22461.5375
2105.10435	22427.8375
2108.09379	22464.8375
2111.08131	22444.8375
2114.0669	22423.7375
2117.05057	22461.9375
2120.03233	22468.3375
2123.01216	22480.4375
2125.99008	22478.8375
2128.96609	22463.7375
2131.94018	22472.5375
2134.91236	22499.7375
2137.88263	22490.1375
2140.851	22478.2375
2143.81746	22455.5375
2146.78201	22411.0375
2149.74466	22434.7375
2152.7054	22427.6375
2155.66425	22381.2375
2158.6212	22294.9375
2161.57625	22314.0375
2164.52941	22279.9375
2167.48067	22233.0375
2170.43004	22278.7375
2173.37752	22272.9375
2176.32311	22219.1375
2179.26681	22241.4375
2182.20863	22200.8375
2185.14856	22172.7375
2188.08661	22192.2375
2191.02278	22228.9375
2193.95707	22194.8375
2196.88948	22121.7375
2199.82001	22089.9375
2202.74867	22026.1375
2205.67545	22023.6375
2208.60037	21965.6375
2211.52341	21932.4375
2214.44458	21918.3375
2217.36388	21854.3375
2220.28132	21762.4375
2223.1969	21740.3375
2226.11061	21732.0375
2229.02246	21724.2375
2231.93245	21712.5375
2234.84058	21660.2375
2237.74686	21640.5375
2240.65128	21642.9375
2243.55385	21567.8375
2246.45456	21522.8375
2249.35343	21475.7375
2252.25044	21402.8375
2255.14561	21295.7375
2258.03893	21260.3375
2260.93041	21180.2375
2263.82004	21137.0375
2266.70783	21064.8375
2269.59378	21010.5375
2272.4779	20930.3375
2275.36017	20845.0375
2278.24061	20812.1375
2281.11922	20716.9375
2283.996	20704.3375
2286.87094	20681.4375
2289.74405	20666.7375
2292.61534	20636.5375
2295.4848	20569.9375
2298.35243	20600.3375
2301.21824	20551.9375
2304.08223	20518.5375
2306.94439	20526.5375
2309.80474	20536.1375
2312.66327	20531.2375
2315.51999	20466.7375
2318.37489	20412.5375
2321.22797	20360.0375
2324.07925	20386.4375
2326.92871	20309.9375
2329.77637	20308.6375
2332.62222	20227.8375
2335.46626	20238.5375
2338.3085	20222.5375
2341.14893	20202.3375
2343.98756	20213.6375
2346.8244	20185.4375
2349.65943	20186.2375
2352.49267	20179.1375
2355.32411	20177.3375
2358.15376	20173.0375
2360.98161	20102.6375
2363.80768	20094.9375
2366.63195	20137.9375
2369.45444	20128.2375
2372.27514	20079.9375
2375.09405	20043.6375
2377.91118	20000.3375
2380.72652	19933.9375
2383.54009	19864.6375
2386.35187	19811.0375
2389.16188	19774.8375
2391.97011	19772.8375
2394.77657	19680.2375
2397.58125	19644.7375
2400.38416	19613.0375
2403.18529	19586.2375
2405.98466	19576.3375
2408.78226	19521.6375
2411.57809	19529.0375
2414.37216	19478.6375
2417.16446	19526.3375
2419.955	19467.7375
2422.74378	19456.6375
2425.5308	19401.6375
2428.31606	19454.1375
2431.09956	19405.8375
2433.88131	19350.4375
2436.6613	19394.3375
2439.43954	19398.9375
2442.21603	19349.1375
2444.99077	19314.7375
2447.76377	19318.9375
2450.53501	19277.6375
2453.30451	19281.5375
2456.07226	19234.1375
2458.83827	19262.5375
2461.60254	19259.5375
2464.36507	19229.1375
2467.12586	19186.0375
2469.88492	19184.9375
2472.64224	19152.6375
2475.39782	19210.7375
2478.15167	19215.2375
2480.90379	19168.5375
2483.65417	19168.7375
2486.40283	19161.6375
2489.14976	19165.1375
2491.89497	19147.3375
2494.63845	19113.1375
2497.3802	19128.0375
2500.12024	19135.4375
2502.85855	19119.2375
2505.59514	19088.5375
2508.33002	19024.6375
2511.06318	19078.5375
2513.79462	19013.6375
2516.52435	18975.6375
2519.25237	19005.2375
2521.97867	18969.6375
2524.70327	18961.1375
2527.42616	18945.8375
2530.14734	18956.0375
2532.86681	18932.4375
2535.58458	18925.2375
2538.30065	18868.0375
2541.01501	18879.5375
2543.72768	18846.4375
2546.43864	18833.8375
2549.14791	18809.0375
2551.85548	18777.3375
2554.56136	18746.1375
2557.26554	18716.3375
2559.96803	18681.7375
2562.66883	18696.2375
2565.36794	18663.6375
2568.06536	18626.2375
2570.7611	18605.8375
2573.45514	18600.5375
2576.14751	18556.8375
2578.83819	18520.8375
2581.52719	18560.8375
2584.21451	18522.0375
2586.90015	18507.8375
2589.58411	18467.3375
2592.2664	18439.5375
2594.94701	18425.8375
2597.62594	18402.3375
2600.30321	18342.2375
2602.9788	18364.6375
2605.65273	18395.2375
2608.32498	18387.6375
2610.99557	18375.2375
2613.66449	18418.6375
2616.33175	18343.7375
2618.99734	18389.3375
2621.66128	18307.1375
2624.32355	18287.2375
2626.98416	18279.0375
2629.64311	18271.0375
2632.30041	18282.7375
2634.95605	18236.4375
2637.61004	18204.9375
2640.26238	18202.2375
2642.91306	18188.3375
2645.56209	18202.7375
2648.20948	18183.0375
2650.85521	18238.8375
2653.4993	18219.2375
2656.14175	18228.1375
2658.78255	18244.0375
2661.42171	18267.4375
2664.05923	18278.9375
2666.6951	18240.2375
2669.32934	18274.8375
2671.96194	18285.3375
2674.59291	18283.2375
2677.22224	18256.1375
2679.84993	18291.5375
2682.476	18248.9375
2685.10043	18231.4375
2687.72324	18220.2375
2690.34441	18204.6375
2692.96396	18203.9375
2695.58188	18234.1375
2698.19818	18241.8375
2700.81285	18218.1375
2703.4259	18211.3375
2706.03733	18240.1375
2708.64714	18248.5375
2711.25533	18218.5375
2713.86191	18192.5375
2716.46687	18242.7375
2719.07021	18219.7375
2721.67194	18269.9375
2724.27206	18275.9375
2726.87057	18308.6375
2729.46747	18268.7375
2732.06276	18294.8375
2734.65644	18305.4375
2737.24852	18263.9375
2739.83899	18260.6375
2742.42786	18263.1375
2745.01513	18211.7375
2747.60079	18232.6375
2750.18486	18185.4375
2752.76733	18166.8375
2755.3482	18117.9375
2757.92747	18156.2375
2760.50515	18118.7375
2763.08123	18082.2375
2765.65573	18103.5375
2768.22863	18106.4375
2770.79994	18059.0375
2773.36967	18092.8375
2775.9378	18101.9375
2778.50435	18091.9375
2781.06932	18046.5375
2783.6327	18056.7375
2786.1945	18078.4375
2788.75471	18051.7375
2791.31335	17984.2375
2793.87041	17960.9375
2796.42589	17919.6375
2798.97979	17934.6375
2801.53212	17911.5375
2804.08288	17860.2375
2806.63206	17797.8375
2809.17967	17776.1375
2811.72571	17751.2375
2814.27018	17738.3375
2816.81308	17667.1375
2819.35442	17659.7375
2821.89419	17605.4375
2824.43239	17618.5375
2826.96904	17544.8375
2829.50412	17544.0375
2832.03763	17487.9375
2834.56959	17462.9375
2837.1	17449.5375
2839.62884	17456.0375
2842.15613	17460.4375
2844.68186	17506.4375
2847.20604	17497.2375
2849.72867	17520.9375
2852.24974	17491.4375
2854.76927	17512.7375
2857.28724	17457.7375
2859.80367	17471.2375
2862.31855	17409.9375
2864.83189	17349.7375
2867.34368	17328.5375
2869.85393	17297.4375
2872.36264	17238.7375
2874.8698	17217.2375
2877.37543	17219.1375
2879.87952	17229.0375
2882.38207	17189.6375
2884.88308	17194.6375
2887.38256	17188.2375
2889.88051	17184.8375
2892.37692	17208.3375
2894.8718	17176.1375
2897.36515	17188.6375
2899.85698	17197.1375
2902.34727	17222.7375
2904.83604	17241.9375
2907.32328	17255.4375
2909.809	17235.9375
2912.29319	17246.2375
2914.77587	17247.6375
2917.25702	17241.9375
2919.73665	17212.8375
2922.21476	17255.0375
2924.69136	17222.4375
2927.16644	17224.2375
2929.64	17161.8375
2932.11205	17159.6375
2934.58258	17137.8375
2937.05161	17102.7375
2939.51912	17112.2375
2941.98513	17088.1375
2944.44962	17080.2375
2946.91261	16966.9375
2949.37409	16983.5375
2951.83407	16933.5375
2954.29254	16932.5375
2956.74951	16936.4375
2959.20498	16894.8375
2961.65895	16858.4375
2964.11142	16851.8375
2966.56239	16788.6375
2969.01186	16805.8375
2971.45984	16771.4375
2973.90632	16706.3375
2976.35131	16703.1375
2978.7948	16642.5375
2981.23681	16619.7375
2983.67732	16594.8375
2986.11635	16530.4375
2988.55388	16483.6375
2990.98993	16415.2375
2993.4245	16366.5375
2995.85758	16301.6375
2998.28917	16237.1375
3000.71928	16242.3375
3003.14791	16179.0375
3005.57506	16142.0375
3008.00073	16107.1375
3010.42493	16099.7375
3012.84764	16047.1375
3015.26888	16056.6375
3017.68865	15991.2375
3020.10694	15964.4375
3022.52376	15893.8375
3024.9391	15891.8375
3027.35298	15852.5375
3029.76539	15832.9375
3032.17632	15804.0375
3034.5858	15784.6375
3036.9938	15768.2375
3039.40034	15768.1375
3041.80542	15725.4375
3044.20903	15703.3375
3046.61118	15694.5375
3049.01187	15636.1375
3051.4111	15642.4375
3053.80888	15590.9375
3056.20519	15587.4375
3058.60005	15512.6375
3060.99345	15472.4375
3063.3854	15413.8375
3065.7759	15362.1375
3068.16494	15310.3375
3070.55254	15233.9375
3072.93868	15158.8375
3075.32338	15155.7375
3077.70662	15116.2375
3080.08842	15037.3375
3082.46878	15010.8375
3084.84769	14962.1375
3087.22515	14967.2375
3089.60118	14955.5375
3091.97576	14925.2375
3094.3489	14930.8375
3096.72061	14925.7375
3099.09087	14904.1375
3101.4597	14892.7375
3103.82709	14878.6375
3106.19305	14828.5375
3108.55757	14824.9375
3110.92066	14766.5375
3113.28232	14738.8375
3115.64255	14691.3375
3118.00134	14658.3375
3120.35871	14634.9375
3122.71466	14573.5375
3125.06917	14502.4375
3127.42226	14491.7375
3129.77393	14467.1375
3132.12417	14430.3375
3134.47299	14400.8375
3136.82039	14396.5375
3139.16636	14380.7375
3141.51092	14355.4375
3143.85406	14368.8375
3146.19579	14354.3375
3148.53609	14327.4375
3150.87499	14343.1375
3153.21246	14334.2375
3155.54853	14293.3375
3157.88318	14281.3375
3160.21642	14304.3375
3162.54826	14322.8375
3164.87868	14284.5375
3167.2077	14267.9375
3169.5353	14261.5375
3171.86151	14255.5375
3174.18631	14257.0375
3176.5097	14208.1375
3178.83169	14220.2375
3181.15228	14215.4375
3183.47147	14137.3375
3185.78926	14129.9375
3188.10565	14052.0375
3190.42065	14025.0375
3192.73424	14019.2375
3195.04645	13997.0375
3197.35725	13977.8375
3199.66667	13967.4375
3201.97469	13970.1375
3204.28132	13873.4375
3206.58656	13914.2375
3208.8904	13917.9375
3211.19287	13908.1375
3213.49394	13913.8375
3215.79363	13901.6375
3218.09193	13867.8375
3220.38884	13876.4375
3222.68438	13880.8375
3224.97853	13848.4375
3227.2713	13812.2375
3229.56269	13834.8375
3231.8527	13791.8375
3234.14133	13755.1375
3236.42858	13736.1375
3238.71446	13723.4375
3240.99896	13712.6375
3243.28209	13693.4375
3245.56384	13657.0375
3247.84423	13670.6375
3250.12324	13613.5375
3252.40088	13568.5375
3254.67715	13540.9375
3256.95205	13522.9375
3259.22558	13484.4375
3261.49775	13480.2375
3263.76855	13459.8375
3266.03799	13397.3375
3268.30606	13368.7375
3270.57277	13329.4375
3272.83812	13320.6375
3275.10211	13303.8375
3277.36474	13255.3375
3279.62601	13260.2375
3281.88593	13217.7375
3284.14448	13251.9375
3286.40168	13269.6375
3288.65753	13221.8375
3290.91202	13229.9375
3293.16516	13230.1375
3295.41695	13156.8375
3297.66738	13077.3375
3299.91647	13013.0375
3302.16421	12891.8375
3304.4106	12829.8375
3306.65564	12703.3375
3308.89933	12592.8375
3311.14169	12497.2375
3313.38269	12382.2375
3315.62236	12310.2375
3317.86068	12173.6375
3320.09766	12062.5375
3322.3333	11973.9375
3324.5676	11920.7375
3326.80056	11731.7375
3329.03219	11638.0375
3331.26248	4.5375
3333.49143	-1.1625
3335.71905	-0.6625
