Data from AgNPs_FTO_APTES_UA_5uM_CRN_20uM_R6G_10uM_NaF_0.1M_Addition_RamanShift__26__13-33-16-791.txt Node

Date: Mon Feb 07 13:33:16 GMT 2022
User: TCL
Spectrometer: QEP01345
Trigger mode: 4
Integration Time (sec): 7.000000E0
Scans to average: 10
Electric dark correction enabled: true
Nonlinearity correction enabled: false
Boxcar width: 0
XAxis mode: Raman Shifts
Number of Pixels in Spectrum: 1044
>>>>>Begin Spectral Data<<<<<
46.04893	-0.0125
50.45542	-0.7125
54.85868	-0.2125
59.25871	-0.6125
63.6555	80.6875
68.04907	83.5875
72.43941	86.5875
76.82654	91.0875
81.21044	91.7875
85.59113	95.2875
89.96862	100.4875
94.34289	100.7875
98.71396	105.1875
103.08183	112.1875
107.4465	111.7875
111.80798	114.7875
116.16626	119.1875
120.52136	125.1875
124.87327	134.5875
129.222	147.1875
133.56755	153.0875
137.90993	169.5875
142.24913	183.3875
146.58517	215.7875
150.91804	252.5875
155.24774	304.4875
159.57429	381.0875
163.89768	500.6875
168.21792	673.1875
172.53501	930.6875
176.84895	1289.7875
181.15975	1817.2875
185.46741	2558.9875
189.77193	3522.0875
194.07331	4694.0875
198.37157	6036.9875
202.6667	7477.9875
206.9587	8866.1875
211.24758	10274.5875
215.53334	11732.6875
219.81599	13307.9875
224.09553	15094.6875
228.37195	17094.6875
232.64527	19204.4875
236.91549	21377.3875
241.18261	23451.4875
245.44663	25288.8875
249.70755	26774.1875
253.96539	28089.4875
258.22014	29319.0875
262.4718	30365.3875
266.72039	31232.8875
270.96589	31804.1875
275.20832	32074.5875
279.44768	32056.3875
283.68397	31945.4875
287.91719	31958.9875
292.14735	32162.5875
296.37445	32690.2875
300.59849	33268.1875
304.81948	33801.0875
309.03742	33942.6875
313.25231	33444.7875
317.46415	31997.3875
321.67296	30052.0875
325.87872	28396.7875
330.08145	27560.7875
334.28114	27442.1875
338.47781	27728.9875
342.67145	28262.7875
346.86207	29151.3875
351.04966	30369.8875
355.23424	31703.2875
359.4158	32709.6875
363.59435	33175.3875
367.76989	33278.9875
371.94243	33209.8875
376.11196	33207.0875
380.27849	33116.5875
384.44203	32970.9875
388.60257	32800.6875
392.76012	32869.2875
396.91468	33263.0875
401.06626	33996.7875
405.21485	34592.2875
409.36047	34092.4875
413.50311	32821.3875
417.64277	31665.4875
421.77947	31085.4875
425.9132	31003.1875
430.04396	31185.8875
434.17176	31414.2875
438.2966	31771.2875
442.41849	32459.4875
446.53742	33426.0875
450.6534	34575.0875
454.76644	35412.3875
458.87653	35577.0875
462.98368	35402.2875
467.08789	34999.9875
471.18916	34467.6875
475.2875	34055.5875
479.38291	33802.6875
483.4754	33378.3875
487.56496	32839.8875
491.6516	32136.0875
495.73531	31580.4875
499.81612	31287.7875
503.89401	31426.5875
507.96899	31603.6875
512.04106	31677.8875
516.11023	31637.6875
520.1765	31564.1875
524.23987	31267.2875
528.30034	30695.5875
532.35792	30265.8875
536.41261	29776.5875
540.46441	29316.4875
544.51333	29244.3875
548.55936	29796.1875
552.60252	30761.0875
556.64279	31834.7875
560.6802	32489.5875
564.71473	32975.9875
568.7464	34101.7875
572.7752	35156.5875
576.80114	34989.8875
580.82422	34488.0875
584.84444	34284.5875
588.86181	34308.5875
592.87633	34571.5875
596.888	34900.9875
600.89682	35494.4875
604.9028	37951.1875
608.90594	44782.2875
612.90624	53454.4875
616.90371	50775.5875
620.89834	37683.5875
624.89015	31733.0875
628.87913	30825.8875
632.86528	30976.1875
636.84862	30997.9875
640.82913	30233.5875
644.80683	28910.1875
648.78172	27980.7875
652.75379	27872.9875
656.72306	28637.8875
660.68952	29759.0875
664.65319	29672.8875
668.61405	28656.8875
672.57211	28091.5875
676.52738	28092.4875
680.47986	28091.4875
684.42955	27920.9875
688.37646	27782.5875
692.32058	27911.1875
696.26192	28222.6875
700.20048	28637.3875
704.13626	28955.4875
708.06928	28963.6875
711.99952	28676.1875
715.927	28563.4875
719.85171	28591.0875
723.77365	28439.1875
727.69284	28049.4875
731.60928	27770.8875
735.52295	27653.6875
739.43388	27703.2875
743.34206	27849.3875
747.24749	27988.3875
751.15017	28368.3875
755.05012	29033.1875
758.94733	30452.8875
762.8418	33354.5875
766.73354	38029.6875
770.62254	42706.4875
774.50882	44269.6875
778.39237	41568.3875
782.27321	36413.8875
786.15132	32029.2875
790.02671	29432.0875
793.89938	28223.5875
797.76935	27721.3875
801.6366	27513.7875
805.50115	27370.5875
809.36299	27215.8875
813.22213	27076.8875
817.07857	27026.5875
820.93231	27013.3875
824.78336	27005.7875
828.63172	26984.9875
832.47738	26967.2875
836.32036	26954.4875
840.16066	26927.2875
843.99827	26923.5875
847.8332	26812.9875
851.66546	26682.2875
855.49504	26612.0875
859.32195	26521.0875
863.1462	26294.2875
866.96777	26250.5875
870.78668	26087.0875
874.60293	26120.5875
878.41652	26130.7875
882.22745	26303.1875
886.03573	26387.7875
889.84136	26375.8875
893.64433	26196.0875
897.44466	26099.1875
901.24235	26039.5875
905.0374	25984.4875
908.8298	25923.1875
912.61957	26003.2875
916.40671	26319.1875
920.19121	26782.9875
923.97308	27150.0875
927.75233	27235.5875
931.52895	27176.0875
935.30295	26800.3875
939.07433	26019.5875
942.84309	25421.2875
946.60924	25063.9875
950.37278	24889.6875
954.13371	24753.5875
957.89203	24585.2875
961.64774	24591.1875
965.40086	24490.6875
969.15137	24410.2875
972.89929	24281.8875
976.64461	24150.0875
980.38733	24196.5875
984.12747	24276.3875
987.86502	24535.0875
991.59999	24786.2875
995.33237	25252.5875
999.06217	26099.8875
1002.78939	27154.5875
1006.51404	27905.9875
1010.23611	28378.2875
1013.95561	28683.0875
1017.67255	28667.2875
1021.38692	28247.2875
1025.09872	27817.3875
1028.80796	27838.4875
1032.51465	28438.7875
1036.21877	29109.4875
1039.92035	29274.7875
1043.61937	28958.6875
1047.31584	28403.9875
1051.00976	27780.9875
1054.70114	27512.4875
1058.38998	27554.9875
1062.07627	27854.0875
1065.76003	28139.6875
1069.44126	28386.2875
1073.11995	28636.5875
1076.79611	28866.6875
1080.46974	29171.9875
1084.14085	29535.1875
1087.80943	30248.6875
1091.47549	30619.7875
1095.13903	30441.0875
1098.80005	29707.7875
1102.45857	28820.4875
1106.11456	28221.3875
1109.76805	28174.5875
1113.41903	28486.5875
1117.06751	29128.0875
1120.71348	29923.5875
1124.35696	30830.7875
1127.99793	31571.1875
1131.63641	31686.0875
1135.2724	30822.2875
1138.90589	29980.1875
1142.5369	29460.4875
1146.16542	29242.6875
1149.79145	29183.7875
1153.415	29519.6875
1157.03607	30069.1875
1160.65467	30948.6875
1164.27079	32359.0875
1167.88443	34354.7875
1171.49561	37356.2875
1175.10432	41649.8875
1178.71056	47166.5875
1182.31434	51641.0875
1185.91565	53536.2875
1189.51451	53188.8875
1193.11091	50909.8875
1196.70485	47762.7875
1200.29634	44851.9875
1203.88538	42562.4875
1207.47197	40404.2875
1211.05612	38587.0875
1214.63782	37421.6875
1218.21708	36852.6875
1221.79391	36632.3875
1225.36829	36617.1875
1228.94024	36353.5875
1232.50976	36014.8875
1236.07685	35674.2875
1239.6415	35526.3875
1243.20374	35449.4875
1246.76355	35579.9875
1250.32093	36114.6875
1253.8759	37111.4875
1257.42845	38453.6875
1260.97859	39704.8875
1264.52631	40867.8875
1268.07163	42088.1875
1271.61453	43349.5875
1275.15503	44669.4875
1278.69312	45844.5875
1282.22882	46785.3875
1285.76211	48016.1875
1289.29301	49562.9875
1292.82151	51471.5875
1296.34761	53891.9875
1299.87133	56969.0875
1303.39266	61230.1875
1306.9116	66778.4875
1310.42815	73027.5875
1313.94233	77418.9875
1317.45412	77948.8875
1320.96354	75763.2875
1324.47058	72686.8875
1327.97525	69711.0875
1331.47754	67602.1875
1334.97747	66683.5875
1338.47502	66617.6875
1341.97022	66993.0875
1345.46305	67158.8875
1348.95352	66955.0875
1352.44163	67117.1875
1355.92738	69171.5875
1359.41078	74538.4875
1362.89183	80262.6875
1366.37053	78715.3875
1369.84688	69358.2875
1373.32088	59466.4875
1376.79254	53223.7875
1380.26186	50522.2875
1383.72883	49790.2875
1387.19347	49355.1875
1390.65578	48897.3875
1394.11575	48782.7875
1397.57339	49490.5875
1401.0287	50683.5875
1404.48168	51872.8875
1407.93234	52512.4875
1411.38068	52220.5875
1414.82669	50728.5875
1418.27039	48366.1875
1421.71177	45806.5875
1425.15083	43629.2875
1428.58758	42342.0875
1432.02203	42087.1875
1435.45416	42695.4875
1438.88399	43470.9875
1442.31151	44166.7875
1445.73673	45019.2875
1449.15965	46047.1875
1452.58027	46763.7875
1455.9986	47123.2875
1459.41463	47601.1875
1462.82837	48371.5875
1466.23982	49277.8875
1469.64898	50134.8875
1473.05586	50427.1875
1476.46045	50352.6875
1479.86276	50147.9875
1483.26279	50109.3875
1486.66054	50294.9875
1490.05602	50820.3875
1493.44922	51701.6875
1496.84016	53031.0875
1500.22882	55305.5875
1503.61521	58796.6875
1506.99934	63297.0875
1510.38121	68018.7875
1513.76081	70972.2875
1517.13816	69626.4875
1520.51324	64598.8875
1523.88607	59049.5875
1527.25665	55005.7875
1530.62498	52648.7875
1533.99105	51336.8875
1537.35488	50467.8875
1540.71647	49737.3875
1544.07581	48923.5875
1547.4329	48005.9875
1550.78776	47176.9875
1554.14038	46800.4875
1557.49077	46816.2875
1560.83892	47266.5875
1564.18484	47841.1875
1567.52853	48375.5875
1570.86999	48621.1875
1574.20922	49058.3875
1577.54624	49271.2875
1580.88103	48501.9875
1584.2136	47520.3875
1587.54395	47904.2875
1590.87208	49970.8875
1594.19801	53243.5875
1597.52172	56756.8875
1600.84321	57957.3875
1604.16251	55471.4875
1607.47959	50909.0875
1610.79447	46126.0875
1614.10715	41726.5875
1617.41763	38069.8875
1620.7259	35621.7875
1624.03199	34283.3875
1627.33587	34183.1875
1630.63757	35214.8875
1633.93707	37659.5875
1637.23439	41386.5875
1640.52951	46377.3875
1643.82246	52224.8875
1647.11321	57672.0875
1650.40179	60407.0875
1653.68819	57701.6875
1656.97241	50181.0875
1660.25446	41694.7875
1663.53433	35247.4875
1666.81203	31137.1875
1670.08756	28585.9875
1673.36092	27058.9875
1676.63211	26066.3875
1679.90115	25381.6875
1683.16801	24919.6875
1686.43272	24512.9875
1689.69527	24219.9875
1692.95567	24044.4875
1696.2139	23901.6875
1699.46999	23746.1875
1702.72392	23665.9875
1705.97571	23580.7875
1709.22535	23565.1875
1712.47284	23492.8875
1715.71819	23481.6875
1718.96139	23421.2875
1722.20246	23342.8875
1725.44139	23209.8875
1728.67818	23073.1875
1731.91284	22919.8875
1735.14537	22716.7875
1738.37576	22617.8875
1741.60403	22565.1875
1744.83017	22446.4875
1748.05418	22350.5875
1751.27607	22338.2875
1754.49584	22279.8875
1757.71349	22242.8875
1760.92903	22240.0875
1764.14244	22177.3875
1767.35375	22176.5875
1770.56294	22113.3875
1773.77002	22043.5875
1776.97499	22025.0875
1780.17785	21940.9875
1783.37861	21915.9875
1786.57727	21882.6875
1789.77382	21835.1875
1792.96828	21809.1875
1796.16064	21791.5875
1799.3509	21751.3875
1802.53907	21747.3875
1805.72514	21622.2875
1808.90913	21572.8875
1812.09102	21486.7875
1815.27083	21450.0875
1818.44856	21429.3875
1821.6242	21343.2875
1824.79776	21360.5875
1827.96924	21330.5875
1831.13864	21320.3875
1834.30597	21294.0875
1837.47122	21305.4875
1840.6344	21268.4875
1843.7955	21305.7875
1846.95454	21288.9875
1850.11151	21305.1875
1853.26642	21318.0875
1856.41926	21323.0875
1859.57004	21360.4875
1862.71876	21347.8875
1865.86542	21347.3875
1869.01003	21322.2875
1872.15258	21322.4875
1875.29308	21349.5875
1878.43152	21346.5875
1881.56792	21390.7875
1884.70227	21389.1875
1887.83457	21383.4875
1890.96482	21406.4875
1894.09304	21410.3875
1897.21921	21426.9875
1900.34335	21434.0875
1903.46544	21467.7875
1906.58551	21478.1875
1909.70353	21501.5875
1912.81953	21472.7875
1915.93349	21432.8875
1919.04543	21444.6875
1922.15534	21374.4875
1925.26322	21276.5875
1928.36908	21190.8875
1931.47292	21156.5875
1934.57473	21039.4875
1937.67453	20908.6875
1940.77232	20829.1875
1943.86808	20681.7875
1946.96184	20640.6875
1950.05358	20500.3875
1953.14331	20443.5875
1956.23103	20351.9875
1959.31675	20242.8875
1962.40046	20194.6875
1965.48217	20123.7875
1968.56188	20088.9875
1971.63959	20017.5875
1974.7153	19963.4875
1977.78901	19920.1875
1980.86073	19808.0875
1983.93046	19719.2875
1986.99819	19663.4875
1990.06394	19634.1875
1993.1277	19552.8875
1996.18947	19481.9875
1999.24925	19446.5875
2002.30706	19381.7875
2005.36288	19320.2875
2008.41672	19292.1875
2011.46859	19209.3875
2014.51848	19183.0875
2017.56639	19115.2875
2020.61233	19040.5875
2023.6563	19021.7875
2026.6983	18964.2875
2029.73833	18897.4875
2032.7764	18858.2875
2035.8125	18829.9875
2038.84664	18813.8875
2041.87881	18784.8875
2044.90903	18768.6875
2047.93729	18739.5875
2050.96359	18706.4875
2053.98794	18645.4875
2057.01034	18666.3875
2060.03078	18647.2875
2063.04927	18611.2875
2066.06582	18595.4875
2069.08042	18588.6875
2072.09307	18565.7875
2075.10378	18537.9875
2078.11255	18516.8875
2081.11938	18490.7875
2084.12426	18487.5875
2087.12722	18483.2875
2090.12824	18452.7875
2093.12732	18424.9875
2096.12447	18446.9875
2099.11969	18444.7875
2102.11299	18431.5875
2105.10435	18437.1875
2108.09379	18417.6875
2111.08131	18430.1875
2114.0669	18465.3875
2117.05057	18482.1875
2120.03233	18504.3875
2123.01216	18491.9875
2125.99008	18513.5875
2128.96609	18501.4875
2131.94018	18549.0875
2134.91236	18573.7875
2137.88263	18562.9875
2140.851	18559.8875
2143.81746	18577.8875
2146.78201	18564.6875
2149.74466	18583.5875
2152.7054	18537.3875
2155.66425	18520.2875
2158.6212	18500.6875
2161.57625	18524.1875
2164.52941	18519.3875
2167.48067	18535.7875
2170.43004	18488.7875
2173.37752	18486.7875
2176.32311	18465.2875
2179.26681	18487.4875
2182.20863	18501.7875
2185.14856	18501.0875
2188.08661	18490.8875
2191.02278	18536.1875
2193.95707	18471.8875
2196.88948	18442.5875
2199.82001	18452.2875
2202.74867	18430.0875
2205.67545	18436.5875
2208.60037	18401.0875
2211.52341	18366.1875
2214.44458	18394.4875
2217.36388	18369.6875
2220.28132	18337.2875
2223.1969	18316.6875
2226.11061	18289.7875
2229.02246	18187.3875
2231.93245	18165.6875
2234.84058	18124.8875
2237.74686	18077.0875
2240.65128	18064.6875
2243.55385	18032.0875
2246.45456	17998.3875
2249.35343	17991.0875
2252.25044	17977.7875
2255.14561	17950.0875
2258.03893	17948.7875
2260.93041	17935.9875
2263.82004	17895.4875
2266.70783	17828.5875
2269.59378	17781.2875
2272.4779	17726.5875
2275.36017	17671.4875
2278.24061	17657.9875
2281.11922	17629.4875
2283.996	17608.9875
2286.87094	17585.9875
2289.74405	17588.6875
2292.61534	17537.7875
2295.4848	17510.7875
2298.35243	17489.6875
2301.21824	17498.4875
2304.08223	17532.9875
2306.94439	17533.7875
2309.80474	17557.1875
2312.66327	17549.4875
2315.51999	17544.8875
2318.37489	17517.0875
2321.22797	17521.4875
2324.07925	17513.6875
2326.92871	17494.4875
2329.77637	17464.6875
2332.62222	17440.8875
2335.46626	17439.9875
2338.3085	17464.1875
2341.14893	17454.9875
2343.98756	17507.9875
2346.8244	17509.7875
2349.65943	17516.3875
2352.49267	17532.4875
2355.32411	17530.0875
2358.15376	17533.0875
2360.98161	17556.6875
2363.80768	17514.6875
2366.63195	17522.5875
2369.45444	17486.5875
2372.27514	17475.4875
2375.09405	17427.8875
2377.91118	17353.2875
2380.72652	17317.6875
2383.54009	17278.4875
2386.35187	17228.7875
2389.16188	17172.5875
2391.97011	17122.8875
2394.77657	17100.2875
2397.58125	17070.3875
2400.38416	17066.8875
2403.18529	17014.4875
2405.98466	16995.0875
2408.78226	16968.3875
2411.57809	16912.5875
2414.37216	16875.0875
2417.16446	16890.1875
2419.955	16869.1875
2422.74378	16839.9875
2425.5308	16797.1875
2428.31606	16777.2875
2431.09956	16830.7875
2433.88131	16783.7875
2436.6613	16800.6875
2439.43954	16801.3875
2442.21603	16818.4875
2444.99077	16792.9875
2447.76377	16774.4875
2450.53501	16776.1875
2453.30451	16783.5875
2456.07226	16782.8875
2458.83827	16783.6875
2461.60254	16781.3875
2464.36507	16764.7875
2467.12586	16760.7875
2469.88492	16776.4875
2472.64224	16788.9875
2475.39782	16829.8875
2478.15167	16828.7875
2480.90379	16805.1875
2483.65417	16838.0875
2486.40283	16864.4875
2489.14976	16917.8875
2491.89497	16956.7875
2494.63845	16958.6875
2497.3802	16961.8875
2500.12024	16987.6875
2502.85855	16950.9875
2505.59514	16920.4875
2508.33002	16916.4875
2511.06318	16832.0875
2513.79462	16841.3875
2516.52435	16796.1875
2519.25237	16757.8875
2521.97867	16732.1875
2524.70327	16729.0875
2527.42616	16685.4875
2530.14734	16727.0875
2532.86681	16702.4875
2535.58458	16702.4875
2538.30065	16705.9875
2541.01501	16664.6875
2543.72768	16668.1875
2546.43864	16649.5875
2549.14791	16650.8875
2551.85548	16681.8875
2554.56136	16652.8875
2557.26554	16579.4875
2559.96803	16576.2875
2562.66883	16570.7875
2565.36794	16530.8875
2568.06536	16543.9875
2570.7611	16542.1875
2573.45514	16489.3875
2576.14751	16502.0875
2578.83819	16458.5875
2581.52719	16464.9875
2584.21451	16493.5875
2586.90015	16469.1875
2589.58411	16504.9875
2592.2664	16488.7875
2594.94701	16482.6875
2597.62594	16482.0875
2600.30321	16467.4875
2602.9788	16466.8875
2605.65273	16471.2875
2608.32498	16452.5875
2610.99557	16484.8875
2613.66449	16493.5875
2616.33175	16524.0875
2618.99734	16492.2875
2621.66128	16527.4875
2624.32355	16509.8875
2626.98416	16537.7875
2629.64311	16535.1875
2632.30041	16537.1875
2634.95605	16508.5875
2637.61004	16472.1875
2640.26238	16449.8875
2642.91306	16417.9875
2645.56209	16449.9875
2648.20948	16417.8875
2650.85521	16423.9875
2653.4993	16412.3875
2656.14175	16410.1875
2658.78255	16406.0875
2661.42171	16421.6875
2664.05923	16490.2875
2666.6951	16481.7875
2669.32934	16505.7875
2671.96194	16488.6875
2674.59291	16527.2875
2677.22224	16520.2875
2679.84993	16504.3875
2682.476	16476.7875
2685.10043	16473.3875
2687.72324	16429.3875
2690.34441	16469.4875
2692.96396	16406.8875
2695.58188	16444.2875
2698.19818	16407.0875
2700.81285	16420.5875
2703.4259	16449.1875
2706.03733	16471.8875
2708.64714	16444.5875
2711.25533	16457.4875
2713.86191	16435.2875
2716.46687	16473.6875
2719.07021	16491.3875
2721.67194	16520.1875
2724.27206	16503.7875
2726.87057	16509.4875
2729.46747	16526.8875
2732.06276	16534.9875
2734.65644	16550.7875
2737.24852	16511.8875
2739.83899	16515.8875
2742.42786	16500.4875
2745.01513	16461.9875
2747.60079	16477.8875
2750.18486	16434.9875
2752.76733	16441.2875
2755.3482	16440.2875
2757.92747	16487.9875
2760.50515	16423.5875
2763.08123	16439.4875
2765.65573	16438.8875
2768.22863	16436.0875
2770.79994	16409.6875
2773.36967	16433.8875
2775.9378	16412.6875
2778.50435	16410.7875
2781.06932	16381.3875
2783.6327	16396.1875
2786.1945	16433.2875
2788.75471	16427.5875
2791.31335	16385.7875
2793.87041	16364.4875
2796.42589	16307.9875
2798.97979	16322.8875
2801.53212	16284.4875
2804.08288	16274.4875
2806.63206	16234.5875
2809.17967	16191.5875
2811.72571	16188.9875
2814.27018	16185.3875
2816.81308	16124.8875
2819.35442	16149.7875
2821.89419	16118.2875
2824.43239	16157.2875
2826.96904	16152.0875
2829.50412	16164.6875
2832.03763	16101.6875
2834.56959	16103.2875
2837.1	16109.5875
2839.62884	16064.7875
2842.15613	16104.0875
2844.68186	16163.0875
2847.20604	16188.9875
2849.72867	16208.2875
2852.24974	16194.7875
2854.76927	16181.0875
2857.28724	16170.6875
2859.80367	16204.2875
2862.31855	16162.7875
2864.83189	16106.8875
2867.34368	16116.9875
2869.85393	16094.3875
2872.36264	16077.9875
2874.8698	16092.0875
2877.37543	16052.8875
2879.87952	16072.3875
2882.38207	16077.5875
2884.88308	16069.0875
2887.38256	16051.2875
2889.88051	16029.1875
2892.37692	16046.2875
2894.8718	16052.3875
2897.36515	16081.7875
2899.85698	16078.0875
2902.34727	16118.5875
2904.83604	16123.3875
2907.32328	16177.8875
2909.809	16169.6875
2912.29319	16194.3875
2914.77587	16192.2875
2917.25702	16191.2875
2919.73665	16159.2875
2922.21476	16177.7875
2924.69136	16140.0875
2927.16644	16114.8875
2929.64	16051.4875
2932.11205	16016.2875
2934.58258	15962.4875
2937.05161	15995.8875
2939.51912	15986.6875
2941.98513	15942.8875
2944.44962	15912.6875
2946.91261	15821.0875
2949.37409	15831.8875
2951.83407	15802.3875
2954.29254	15773.5875
2956.74951	15764.3875
2959.20498	15760.8875
2961.65895	15736.2875
2964.11142	15697.4875
2966.56239	15691.9875
2969.01186	15652.8875
2971.45984	15618.1875
2973.90632	15656.2875
2976.35131	15605.8875
2978.7948	15559.3875
2981.23681	15516.3875
2983.67732	15491.7875
2986.11635	15451.1875
2988.55388	15420.2875
2990.98993	15371.0875
2993.4245	15331.2875
2995.85758	15293.9875
2998.28917	15246.8875
3000.71928	15234.9875
3003.14791	15204.8875
3005.57506	15194.6875
3008.00073	15134.4875
3010.42493	15034.4875
3012.84764	15063.7875
3015.26888	15084.3875
3017.68865	15020.0875
3020.10694	15015.5875
3022.52376	14996.4875
3024.9391	14965.1875
3027.35298	14939.3875
3029.76539	14891.2875
3032.17632	14897.1875
3034.5858	14842.7875
3036.9938	14838.8875
3039.40034	14829.8875
3041.80542	14860.1875
3044.20903	14803.8875
3046.61118	14799.0875
3049.01187	14774.2875
3051.4111	14775.9875
3053.80888	14692.7875
3056.20519	14707.7875
3058.60005	14629.8875
3060.99345	14656.3875
3063.3854	14553.5875
3065.7759	14511.2875
3068.16494	14423.2875
3070.55254	14378.4875
3072.93868	14361.6875
3075.32338	14302.3875
3077.70662	14255.9875
3080.08842	14228.1875
3082.46878	14214.8875
3084.84769	14181.4875
3087.22515	14157.2875
3089.60118	14161.1875
3091.97576	14132.8875
3094.3489	14137.7875
3096.72061	14116.3875
3099.09087	14104.8875
3101.4597	14122.0875
3103.82709	14104.9875
3106.19305	14073.7875
3108.55757	14061.2875
3110.92066	14027.2875
3113.28232	14002.3875
3115.64255	13979.1875
3118.00134	13946.7875
3120.35871	13897.6875
3122.71466	13883.2875
3125.06917	13842.7875
3127.42226	13819.7875
3129.77393	13796.0875
3132.12417	13765.1875
3134.47299	13777.6875
3136.82039	13751.6875
3139.16636	13749.0875
3141.51092	13727.4875
3143.85406	13724.2875
3146.19579	13717.2875
3148.53609	13667.1875
3150.87499	13723.7875
3153.21246	13729.8875
3155.54853	13726.8875
3157.88318	13729.3875
3160.21642	13719.5875
3162.54826	13735.2875
3164.87868	13712.6875
3167.2077	13721.8875
3169.5353	13741.1875
3171.86151	13732.1875
3174.18631	13705.2875
3176.5097	13721.4875
3178.83169	13685.9875
3181.15228	13681.6875
3183.47147	13646.7875
3185.78926	13648.6875
3188.10565	13594.3875
3190.42065	13613.8875
3192.73424	13585.3875
3195.04645	13587.5875
3197.35725	13599.9875
3199.66667	13580.0875
3201.97469	13603.4875
3204.28132	13559.9875
3206.58656	13587.8875
3208.8904	13550.7875
3211.19287	13576.7875
3213.49394	13603.7875
3215.79363	13615.0875
3218.09193	13588.2875
3220.38884	13564.1875
3222.68438	13617.3875
3224.97853	13583.0875
3227.2713	13554.4875
3229.56269	13545.0875
3231.8527	13539.5875
3234.14133	13515.4875
3236.42858	13492.6875
3238.71446	13479.4875
3240.99896	13419.3875
3243.28209	13412.5875
3245.56384	13381.8875
3247.84423	13434.0875
3250.12324	13374.4875
3252.40088	13343.4875
3254.67715	13344.3875
3256.95205	13344.6875
3259.22558	13356.5875
3261.49775	13323.2875
3263.76855	13314.7875
3266.03799	13263.5875
3268.30606	13242.4875
3270.57277	13195.1875
3272.83812	13181.5875
3275.10211	13151.0875
3277.36474	13129.2875
3279.62601	13165.0875
3281.88593	13101.2875
3284.14448	13118.3875
3286.40168	13108.0875
3288.65753	13115.2875
3290.91202	13102.3875
3293.16516	13078.6875
3295.41695	13025.2875
3297.66738	12949.6875
3299.91647	12902.0875
3302.16421	12841.3875
3304.4106	12743.9875
3306.65564	12688.3875
3308.89933	12570.0875
3311.14169	12472.5875
3313.38269	12375.8875
3315.62236	12316.6875
3317.86068	12185.9875
3320.09766	12124.8875
3322.3333	12028.1875
3324.5676	11961.9875
3326.80056	11755.6875
3329.03219	11706.1875
3331.26248	4.4875
3333.49143	-1.9125
3335.71905	-0.4125
