Data from AgNPs_FTO_APTES_UA_5uM_CRN_500uM_R6G_10uM_NaF_0.1M_Addition_RamanShift__19__17-02-51-835.txt Node

Date: Mon Feb 07 17:02:51 GMT 2022
User: TCL
Spectrometer: QEP01345
Trigger mode: 4
Integration Time (sec): 7.000000E0
Scans to average: 10
Electric dark correction enabled: true
Nonlinearity correction enabled: false
Boxcar width: 0
XAxis mode: Raman Shifts
Number of Pixels in Spectrum: 1044
>>>>>Begin Spectral Data<<<<<
46.04893	-1.5
50.45542	-0.5
54.85868	0.2
59.25871	-0.4
63.6555	58.2
68.04907	64.6
72.43941	65.5
76.82654	69.1
81.21044	68.4
85.59113	71.6
89.96862	77.7
94.34289	78.8
98.71396	78.3
103.08183	81.2
107.4465	86.8
111.80798	88.3
116.16626	88.5
120.52136	94.6
124.87327	98.2
129.222	107.2
133.56755	111
137.90993	120.7
142.24913	133.1
146.58517	149.9
150.91804	174.1
155.24774	214.9
159.57429	266.9
163.89768	342.7
168.21792	465
172.53501	625.8
176.84895	889
181.15975	1239.5
185.46741	1747
189.77193	2405.6
194.07331	3224.5
198.37157	4135.2
202.6667	5120.4
206.9587	6079
211.24758	7035
215.53334	7991.4
219.81599	8990.9
224.09553	10144.8
228.37195	11336.6
232.64527	12646.1
236.91549	14041.2
241.18261	15416.5
245.44663	16738.8
249.70755	17937.6
253.96539	18947.7
258.22014	19875.1
262.4718	20595.1
266.72039	21076.2
270.96589	21395.6
275.20832	21511
279.44768	21508.8
283.68397	21415.7
287.91719	21334.6
292.14735	21359.3
296.37445	21459.4
300.59849	21539.9
304.81948	21591.7
309.03742	21409.2
313.25231	21047.3
317.46415	20453.5
321.67296	19834.8
325.87872	19360.4
330.08145	19082
334.28114	18991.2
338.47781	19086.9
342.67145	19236.8
346.86207	19490.4
351.04966	19823.8
355.23424	20102.1
359.4158	20312.4
363.59435	20544.4
367.76989	20662.1
371.94243	20802
376.11196	20910.8
380.27849	20973.8
384.44203	21225.4
388.60257	21417
392.76012	21642.6
396.91468	21829.4
401.06626	22147
405.21485	22319.9
409.36047	22256.5
413.50311	21976.9
417.64277	21797.3
421.77947	21841
425.9132	21966.8
430.04396	22134.6
434.17176	22374.1
438.2966	22559.5
442.41849	23034.3
446.53742	23723.1
450.6534	24547.1
454.76644	25153.8
458.87653	25366.4
462.98368	25214.9
467.08789	24995.1
471.18916	24798.8
475.2875	24744
479.38291	24879.7
483.4754	24809.5
487.56496	24457.4
491.6516	23765.5
495.73531	23119
499.81612	22720.7
503.89401	22605.5
507.96899	22610.2
512.04106	22518.2
516.11023	22273.1
520.1765	21981.7
524.23987	21718.7
528.30034	21539.9
532.35792	21378.1
536.41261	21173.2
540.46441	21013.9
544.51333	21051.1
548.55936	21429.5
552.60252	22003
556.64279	22688
560.6802	23326.4
564.71473	23749.3
568.7464	24352.4
572.7752	25168
576.80114	25717.5
580.82422	26013.7
584.84444	26342.7
588.86181	26770.4
592.87633	27261.4
596.888	27154.3
600.89682	26614.6
604.9028	26574.6
608.90594	27624.5
612.90624	28675.3
616.90371	26736.5
620.89834	22918.6
624.89015	21331.7
628.87913	21247
632.86528	21420.2
636.84862	21517.9
640.82913	21186.6
644.80683	20758.3
648.78172	20313.4
652.75379	20120.9
656.72306	20271.1
660.68952	20426.8
664.65319	20324.4
668.61405	20054.5
672.57211	20021.8
676.52738	20077.6
680.47986	20127.2
684.42955	20082.6
688.37646	20018.2
692.32058	19997.9
696.26192	20159.9
700.20048	20330.3
704.13626	20517.2
708.06928	20564
711.99952	20444.1
715.927	20437.4
719.85171	20497
723.77365	20433.9
727.69284	20231.4
731.60928	20044.4
735.52295	19957.6
739.43388	19948.8
743.34206	19963.6
747.24749	20053.8
751.15017	20267
755.05012	20630.4
758.94733	21303.6
762.8418	22355.8
766.73354	23919.1
770.62254	25238.5
774.50882	25363.6
778.39237	24134
782.27321	22420.9
786.15132	21023.1
790.02671	20188
793.89938	19802.1
797.76935	19628.1
801.6366	19606
805.50115	19562
809.36299	19468.6
813.22213	19329.4
817.07857	19330.4
820.93231	19301.3
824.78336	19134
828.63172	18993.1
832.47738	18942.3
836.32036	18902.4
840.16066	18876.4
843.99827	18862.4
847.8332	18836.1
851.66546	18810.1
855.49504	18804.6
859.32195	18775.8
863.1462	18778.2
866.96777	18755.3
870.78668	18683.8
874.60293	18674.4
878.41652	18731.2
882.22745	18730.2
886.03573	18747.7
889.84136	18739.7
893.64433	18711.5
897.44466	18649
901.24235	18560.3
905.0374	18438.8
908.8298	18411.1
912.61957	18421.1
916.40671	18647.9
920.19121	18985
923.97308	19149.9
927.75233	19071.2
931.52895	18841
935.30295	18550
939.07433	18217.8
942.84309	17925.8
946.60924	17763.9
950.37278	17691.3
954.13371	17695.6
957.89203	17708.2
961.64774	17687.4
965.40086	17683.7
969.15137	17596
972.89929	17422
976.64461	17299.2
980.38733	17232.2
984.12747	17258.1
987.86502	17363.5
991.59999	17463
995.33237	17693.1
999.06217	18070.4
1002.78939	18518.5
1006.51404	18835.9
1010.23611	19086.9
1013.95561	19248.6
1017.67255	19316.8
1021.38692	19097
1025.09872	18798.6
1028.80796	18615.1
1032.51465	18715
1036.21877	18917.9
1039.92035	18985.1
1043.61937	18924.7
1047.31584	18808.9
1051.00976	18739.5
1054.70114	18735.3
1058.38998	18856
1062.07627	19066.3
1065.76003	19290.4
1069.44126	19463.6
1073.11995	19654.3
1076.79611	19803.3
1080.46974	19914.6
1084.14085	19992.7
1087.80943	20165
1091.47549	20371
1095.13903	20493.9
1098.80005	20319.7
1102.45857	19928.4
1106.11456	19530.6
1109.76805	19359.5
1113.41903	19388.7
1117.06751	19540.5
1120.71348	19830.3
1124.35696	20064.6
1127.99793	20346.1
1131.63641	20575.5
1135.2724	20501.9
1138.90589	20394.2
1142.5369	20468.9
1146.16542	20615.1
1149.79145	20940.4
1153.415	21309.7
1157.03607	21855.7
1160.65467	22559.9
1164.27079	23691.4
1167.88443	25094.5
1171.49561	26697.3
1175.10432	28690.5
1178.71056	31083.5
1182.31434	33331.5
1185.91565	34440
1189.51451	34384.7
1193.11091	33640.8
1196.70485	32580.4
1200.29634	31351
1203.88538	30409.6
1207.47197	29830.5
1211.05612	29328.9
1214.63782	28739.4
1218.21708	27992.2
1221.79391	27260.7
1225.36829	26743.4
1228.94024	26125.9
1232.50976	25490.3
1236.07685	24942
1239.6415	24702.9
1243.20374	24687.6
1246.76355	24877.8
1250.32093	25189
1253.8759	25711.4
1257.42845	26379.2
1260.97859	27117.6
1264.52631	27860.5
1268.07163	28605.8
1271.61453	29421
1275.15503	30334
1278.69312	31347.4
1282.22882	32455
1285.76211	33690.3
1289.29301	35294.8
1292.82151	37344.9
1296.34761	39788
1299.87133	42508.3
1303.39266	45132.1
1306.9116	47427.2
1310.42815	49355.5
1313.94233	50558.7
1317.45412	50793.7
1320.96354	50465.8
1324.47058	50118.7
1327.97525	49750.2
1331.47754	49465.9
1334.97747	49287.9
1338.47502	49033.2
1341.97022	48392.2
1345.46305	47333.8
1348.95352	46105.7
1352.44163	44997.7
1355.92738	44588.2
1359.41078	45104.1
1362.89183	45766
1366.37053	44935.5
1369.84688	41837.4
1373.32088	37931.5
1376.79254	35320.6
1380.26186	34633.7
1383.72883	35075.4
1387.19347	35640.6
1390.65578	36012.1
1394.11575	36482.5
1397.57339	37304.4
1401.0287	38352.5
1404.48168	39107.9
1407.93234	38981.6
1411.38068	37934.9
1414.82669	36101.5
1418.27039	33848.6
1421.71177	31725
1425.15083	29975.4
1428.58758	29085.6
1432.02203	29107.7
1435.45416	29877
1438.88399	31079.2
1442.31151	32172.1
1445.73673	32984.7
1449.15965	33770.2
1452.58027	34475.8
1455.9986	34912.7
1459.41463	35276.9
1462.82837	35696.9
1466.23982	36164.9
1469.64898	36473.4
1473.05586	36431
1476.46045	36173
1479.86276	35595
1483.26279	34817.7
1486.66054	34245.6
1490.05602	33914
1493.44922	33866.4
1496.84016	33769.6
1500.22882	33962.3
1503.61521	34533.7
1506.99934	35333.4
1510.38121	36209.3
1513.76081	36532.7
1517.13816	36133.4
1520.51324	35356.3
1523.88607	34765
1527.25665	34722.1
1530.62498	34943.5
1533.99105	35126.9
1537.35488	35017.3
1540.71647	34465.5
1544.07581	33586.2
1547.4329	32529.8
1550.78776	31605.5
1554.14038	31053.1
1557.49077	30594.4
1560.83892	30394.5
1564.18484	30332.2
1567.52853	30384.2
1570.86999	30712.5
1574.20922	31415.8
1577.54624	32179.5
1580.88103	32766.7
1584.2136	33475.2
1587.54395	34690.5
1590.87208	36430.9
1594.19801	38474.8
1597.52172	40365.7
1600.84321	40766
1604.16251	38940.4
1607.47959	35597.2
1610.79447	32110.7
1614.10715	28872.1
1617.41763	26279.1
1620.7259	24447.5
1624.03199	23516.6
1627.33587	23451.3
1630.63757	24277.1
1633.93707	26108.7
1637.23439	29104.6
1640.52951	33380.5
1643.82246	38242.6
1647.11321	41902.2
1650.40179	42447.2
1653.68819	39277.3
1656.97241	33762
1660.25446	28329
1663.53433	24137.9
1666.81203	21364.5
1670.08756	19590.1
1673.36092	18479.2
1676.63211	17784.1
1679.90115	17285.8
1683.16801	16895.1
1686.43272	16600.3
1689.69527	16391.6
1692.95567	16218.4
1696.2139	16123.3
1699.46999	15968.2
1702.72392	15867.8
1705.97571	15808.6
1709.22535	15760.6
1712.47284	15711.4
1715.71819	15648.3
1718.96139	15583.6
1722.20246	15529.9
1725.44139	15430.9
1728.67818	15341.4
1731.91284	15263.9
1735.14537	15167.7
1738.37576	15088.4
1741.60403	15009.2
1744.83017	14948.6
1748.05418	14918.1
1751.27607	14888.8
1754.49584	14868.4
1757.71349	14880.6
1760.92903	14818.7
1764.14244	14807.3
1767.35375	14771.3
1770.56294	14727.6
1773.77002	14659.7
1776.97499	14647.7
1780.17785	14586.1
1783.37861	14572.1
1786.57727	14556.7
1789.77382	14512.5
1792.96828	14447.8
1796.16064	14387.2
1799.3509	14389.4
1802.53907	14352.2
1805.72514	14324.4
1808.90913	14257.5
1812.09102	14198.6
1815.27083	14174
1818.44856	14137.1
1821.6242	14122.8
1824.79776	14075.9
1827.96924	14069.3
1831.13864	14057.8
1834.30597	14037.2
1837.47122	14032
1840.6344	14011.8
1843.7955	14039.2
1846.95454	13998.6
1850.11151	14007.7
1853.26642	13955.2
1856.41926	13951.3
1859.57004	13959.6
1862.71876	13931.4
1865.86542	13946.8
1869.01003	13902.3
1872.15258	13898.2
1875.29308	13877.8
1878.43152	13868.3
1881.56792	13846.5
1884.70227	13849.8
1887.83457	13837.1
1890.96482	13808.3
1894.09304	13779.5
1897.21921	13753.9
1900.34335	13733
1903.46544	13754.7
1906.58551	13719.3
1909.70353	13694.8
1912.81953	13668.8
1915.93349	13624.4
1919.04543	13616.6
1922.15534	13585.9
1925.26322	13563.4
1928.36908	13507.3
1931.47292	13495.3
1934.57473	13458.5
1937.67453	13443.8
1940.77232	13378.9
1943.86808	13315.7
1946.96184	13239.8
1950.05358	13230.9
1953.14331	13163.4
1956.23103	13122.7
1959.31675	13071.3
1962.40046	13050.3
1965.48217	13025.4
1968.56188	12971.8
1971.63959	12911
1974.7153	12888.6
1977.78901	12846.7
1980.86073	12803.4
1983.93046	12775.4
1986.99819	12720
1990.06394	12685.6
1993.1277	12639.2
1996.18947	12618.9
1999.24925	12581.1
2002.30706	12531.5
2005.36288	12481.8
2008.41672	12459.2
2011.46859	12428.7
2014.51848	12375.4
2017.56639	12339.8
2020.61233	12319
2023.6563	12275.8
2026.6983	12217.5
2029.73833	12195.4
2032.7764	12186.8
2035.8125	12151.9
2038.84664	12139.1
2041.87881	12121.6
2044.90903	12091.7
2047.93729	12046.1
2050.96359	12059.7
2053.98794	12015.4
2057.01034	12008.2
2060.03078	12015.8
2063.04927	12019.6
2066.06582	12002
2069.08042	12005.7
2072.09307	12016.8
2075.10378	11988.2
2078.11255	11934.5
2081.11938	11955.8
2084.12426	11925
2087.12722	11905.3
2090.12824	11913.2
2093.12732	11889.4
2096.12447	11912.4
2099.11969	11906.2
2102.11299	11878.9
2105.10435	11896
2108.09379	11870.1
2111.08131	11900.6
2114.0669	11889.9
2117.05057	11899
2120.03233	11897.8
2123.01216	11928.7
2125.99008	11921.3
2128.96609	11906.2
2131.94018	11924.7
2134.91236	11923.8
2137.88263	11950.3
2140.851	11955.3
2143.81746	11937.6
2146.78201	11931
2149.74466	11917.7
2152.7054	11909.1
2155.66425	11906.4
2158.6212	11885.5
2161.57625	11910.6
2164.52941	11850.3
2167.48067	11884.1
2170.43004	11870.7
2173.37752	11857.5
2176.32311	11844.3
2179.26681	11873.9
2182.20863	11836.5
2185.14856	11894.6
2188.08661	11889.1
2191.02278	11842.9
2193.95707	11821.1
2196.88948	11836.2
2199.82001	11799.1
2202.74867	11783.8
2205.67545	11793.7
2208.60037	11745.3
2211.52341	11740.8
2214.44458	11724.2
2217.36388	11692
2220.28132	11656.9
2223.1969	11637.7
2226.11061	11633.5
2229.02246	11615
2231.93245	11578.5
2234.84058	11564.9
2237.74686	11521.9
2240.65128	11513.8
2243.55385	11491.9
2246.45456	11493
2249.35343	11474.5
2252.25044	11449
2255.14561	11383.7
2258.03893	11369.1
2260.93041	11330.3
2263.82004	11290.8
2266.70783	11287.4
2269.59378	11245.3
2272.4779	11221.6
2275.36017	11175.4
2278.24061	11134.4
2281.11922	11142.6
2283.996	11130.9
2286.87094	11117.3
2289.74405	11061.2
2292.61534	11086.5
2295.4848	11089.4
2298.35243	11061.6
2301.21824	11073.1
2304.08223	11081.1
2306.94439	11072.4
2309.80474	11057.8
2312.66327	11048.4
2315.51999	11067.3
2318.37489	11030.1
2321.22797	11032.1
2324.07925	11007.3
2326.92871	11002.7
2329.77637	10981.3
2332.62222	10946.1
2335.46626	10969.7
2338.3085	10948.4
2341.14893	10953
2343.98756	10942.7
2346.8244	10923.9
2349.65943	10914.7
2352.49267	10926.5
2355.32411	10920.2
2358.15376	10915.5
2360.98161	10929
2363.80768	10899.6
2366.63195	10899.9
2369.45444	10916.8
2372.27514	10857
2375.09405	10836.3
2377.91118	10809.6
2380.72652	10804.7
2383.54009	10796.5
2386.35187	10760.5
2389.16188	10740.9
2391.97011	10703.9
2394.77657	10682.5
2397.58125	10655.9
2400.38416	10639.9
2403.18529	10642.4
2405.98466	10623.2
2408.78226	10625.7
2411.57809	10581.7
2414.37216	10574.8
2417.16446	10607.7
2419.955	10564.9
2422.74378	10569.5
2425.5308	10519
2428.31606	10515.7
2431.09956	10496
2433.88131	10492.8
2436.6613	10537.1
2439.43954	10539.1
2442.21603	10497.5
2444.99077	10499.5
2447.76377	10480.9
2450.53501	10474.9
2453.30451	10466.7
2456.07226	10449.9
2458.83827	10462.8
2461.60254	10451.1
2464.36507	10456.5
2467.12586	10459.1
2469.88492	10467.6
2472.64224	10452.7
2475.39782	10460.7
2478.15167	10451.5
2480.90379	10461.4
2483.65417	10455.5
2486.40283	10456.4
2489.14976	10478.3
2491.89497	10466.1
2494.63845	10478.1
2497.3802	10480.4
2500.12024	10475.1
2502.85855	10480.4
2505.59514	10476.9
2508.33002	10457.6
2511.06318	10454.6
2513.79462	10442.4
2516.52435	10415.3
2519.25237	10415.6
2521.97867	10408.9
2524.70327	10393.6
2527.42616	10358.3
2530.14734	10406.3
2532.86681	10402.8
2535.58458	10391.8
2538.30065	10364.9
2541.01501	10350.4
2543.72768	10339
2546.43864	10326.9
2549.14791	10322.2
2551.85548	10312.1
2554.56136	10307.5
2557.26554	10268.5
2559.96803	10256.9
2562.66883	10240.9
2565.36794	10259.3
2568.06536	10262.1
2570.7611	10253.6
2573.45514	10215.6
2576.14751	10236.2
2578.83819	10202.8
2581.52719	10210.8
2584.21451	10207.1
2586.90015	10195.2
2589.58411	10206.7
2592.2664	10201.6
2594.94701	10192
2597.62594	10182.5
2600.30321	10166.4
2602.9788	10179
2605.65273	10145.1
2608.32498	10198.9
2610.99557	10196.4
2613.66449	10178.9
2616.33175	10176.6
2618.99734	10172.3
2621.66128	10166.9
2624.32355	10197.6
2626.98416	10167.8
2629.64311	10165
2632.30041	10152.6
2634.95605	10149.9
2637.61004	10123.4
2640.26238	10142.4
2642.91306	10120.3
2645.56209	10114
2648.20948	10134.6
2650.85521	10128.1
2653.4993	10141
2656.14175	10117.2
2658.78255	10146.3
2661.42171	10147.7
2664.05923	10118.9
2666.6951	10143
2669.32934	10156.6
2671.96194	10139.5
2674.59291	10159.6
2677.22224	10132.3
2679.84993	10143.2
2682.476	10127.7
2685.10043	10125.5
2687.72324	10102.7
2690.34441	10102.9
2692.96396	10097.5
2695.58188	10111.1
2698.19818	10110.1
2700.81285	10129.2
2703.4259	10118.4
2706.03733	10105
2708.64714	10119.1
2711.25533	10119.7
2713.86191	10156.4
2716.46687	10171.2
2719.07021	10155.7
2721.67194	10174.7
2724.27206	10190.9
2726.87057	10183.9
2729.46747	10220.8
2732.06276	10209.5
2734.65644	10209
2737.24852	10194.3
2739.83899	10177.4
2742.42786	10181.4
2745.01513	10174.9
2747.60079	10176.7
2750.18486	10153.1
2752.76733	10157.9
2755.3482	10152.3
2757.92747	10138.1
2760.50515	10148
2763.08123	10136
2765.65573	10147.9
2768.22863	10153.8
2770.79994	10141.1
2773.36967	10155.7
2775.9378	10170
2778.50435	10155.4
2781.06932	10147.8
2783.6327	10152.3
2786.1945	10150.4
2788.75471	10173
2791.31335	10166.9
2793.87041	10144.7
2796.42589	10126.9
2798.97979	10109.8
2801.53212	10073.6
2804.08288	10063.4
2806.63206	10054
2809.17967	10030.7
2811.72571	10008.3
2814.27018	9998.2
2816.81308	9981.6
2819.35442	9971.2
2821.89419	9942.1
2824.43239	9943.6
2826.96904	9952
2829.50412	9943.1
2832.03763	9896.8
2834.56959	9888.4
2837.1	9882.7
2839.62884	9887.7
2842.15613	9907.8
2844.68186	9947.2
2847.20604	9988.4
2849.72867	10004.2
2852.24974	9983.7
2854.76927	9994.8
2857.28724	9962
2859.80367	9960.4
2862.31855	9928.5
2864.83189	9915.8
2867.34368	9887.5
2869.85393	9924
2872.36264	9889.6
2874.8698	9905.4
2877.37543	9884.3
2879.87952	9854.3
2882.38207	9886.9
2884.88308	9882.3
2887.38256	9895.3
2889.88051	9907.9
2892.37692	9895.5
2894.8718	9924.4
2897.36515	9921.5
2899.85698	9927.7
2902.34727	9977.8
2904.83604	9943.9
2907.32328	9980.3
2909.809	9979.7
2912.29319	9977.9
2914.77587	9980.8
2917.25702	9977.8
2919.73665	9957.3
2922.21476	9968.3
2924.69136	9965.6
2927.16644	9987.3
2929.64	9968.3
2932.11205	9973.9
2934.58258	9908.4
2937.05161	9947.4
2939.51912	9936.6
2941.98513	9895.2
2944.44962	9879.2
2946.91261	9835.8
2949.37409	9845.1
2951.83407	9824.5
2954.29254	9827.3
2956.74951	9804.4
2959.20498	9783.6
2961.65895	9759.6
2964.11142	9754
2966.56239	9751.6
2969.01186	9729.3
2971.45984	9710.9
2973.90632	9683.1
2976.35131	9666.4
2978.7948	9631
2981.23681	9611.7
2983.67732	9598.9
2986.11635	9551.1
2988.55388	9529
2990.98993	9521.6
2993.4245	9489.4
2995.85758	9472.8
2998.28917	9409.4
3000.71928	9425.5
3003.14791	9386.4
3005.57506	9386.7
3008.00073	9359.5
3010.42493	9333.8
3012.84764	9309.3
3015.26888	9299.7
3017.68865	9257.8
3020.10694	9250.6
3022.52376	9258.4
3024.9391	9244
3027.35298	9209.8
3029.76539	9228.9
3032.17632	9204.6
3034.5858	9197.4
3036.9938	9199.9
3039.40034	9196.4
3041.80542	9178.9
3044.20903	9184.4
3046.61118	9172.6
3049.01187	9144
3051.4111	9113.8
3053.80888	9107.2
3056.20519	9106.7
3058.60005	9065.4
3060.99345	9042.1
3063.3854	9022.3
3065.7759	8972.7
3068.16494	8945.9
3070.55254	8923.8
3072.93868	8909.6
3075.32338	8876.9
3077.70662	8859.8
3080.08842	8830.1
3082.46878	8835.8
3084.84769	8801.8
3087.22515	8807.1
3089.60118	8790
3091.97576	8776.8
3094.3489	8786.3
3096.72061	8787.9
3099.09087	8778.5
3101.4597	8767.7
3103.82709	8773.2
3106.19305	8743.9
3108.55757	8766.4
3110.92066	8712.2
3113.28232	8706.9
3115.64255	8659.4
3118.00134	8664.8
3120.35871	8646.8
3122.71466	8622.2
3125.06917	8609.7
3127.42226	8610
3129.77393	8595.4
3132.12417	8578.7
3134.47299	8578.1
3136.82039	8573.7
3139.16636	8558.1
3141.51092	8548.9
3143.85406	8569.2
3146.19579	8551.9
3148.53609	8536.7
3150.87499	8563.5
3153.21246	8542
3155.54853	8566.5
3157.88318	8582.6
3160.21642	8604.6
3162.54826	8585.1
3164.87868	8595.7
3167.2077	8588.3
3169.5353	8592.7
3171.86151	8586.3
3174.18631	8592.8
3176.5097	8555.6
3178.83169	8579.4
3181.15228	8585.7
3183.47147	8545.3
3185.78926	8530.7
3188.10565	8538.3
3190.42065	8528.1
3192.73424	8520.8
3195.04645	8499.4
3197.35725	8487.9
3199.66667	8482.4
3201.97469	8521.9
3204.28132	8489.3
3206.58656	8507.2
3208.8904	8500.9
3211.19287	8502
3213.49394	8517.3
3215.79363	8505.8
3218.09193	8478.2
3220.38884	8476.9
3222.68438	8489.8
3224.97853	8491.5
3227.2713	8495.6
3229.56269	8499.8
3231.8527	8495
3234.14133	8471.8
3236.42858	8450.9
3238.71446	8425.1
3240.99896	8413.2
3243.28209	8407.6
3245.56384	8380.4
3247.84423	8412
3250.12324	8382.6
3252.40088	8366.2
3254.67715	8365
3256.95205	8299.1
3259.22558	8320.9
3261.49775	8312.2
3263.76855	8288.6
3266.03799	8281.9
3268.30606	8263.4
3270.57277	8254.7
3272.83812	8221.4
3275.10211	8216.5
3277.36474	8225.1
3279.62601	8228
3281.88593	8212.7
3284.14448	8212.7
3286.40168	8204.1
3288.65753	8203.7
3290.91202	8177
3293.16516	8179.4
3295.41695	8161.8
3297.66738	8080.3
3299.91647	8056.5
3302.16421	7985.2
3304.4106	7943.9
3306.65564	7895.5
3308.89933	7853.9
3311.14169	7777.3
3313.38269	7734.8
3315.62236	7660.1
3317.86068	7604.5
3320.09766	7555.6
3322.3333	7473.7
3324.5676	7461.2
3326.80056	7336.7
3329.03219	7282.2
3331.26248	2.6
3333.49143	0.3
3335.71905	-0.6
