Data from AgNPs_FTO_APTES_UA_5uM_CRN_50uM_R6G_10uM_NaF_0.1M_Addition_RamanShift__21__14-07-06-830.txt Node

Date: Mon Feb 07 14:07:06 GMT 2022
User: TCL
Spectrometer: QEP01345
Trigger mode: 4
Integration Time (sec): 7.000000E0
Scans to average: 10
Electric dark correction enabled: true
Nonlinearity correction enabled: false
Boxcar width: 0
XAxis mode: Raman Shifts
Number of Pixels in Spectrum: 1044
>>>>>Begin Spectral Data<<<<<
46.04893	-2.1125
50.45542	-1.1125
54.85868	-1.4125
59.25871	-0.3125
63.6555	76.4875
68.04907	77.5875
72.43941	84.4875
76.82654	89.6875
81.21044	90.5875
85.59113	90.8875
89.96862	95.0875
94.34289	93.8875
98.71396	101.1875
103.08183	105.5875
107.4465	107.7875
111.80798	108.9875
116.16626	113.0875
120.52136	119.5875
124.87327	124.6875
129.222	135.3875
133.56755	143.4875
137.90993	158.6875
142.24913	173.4875
146.58517	196.3875
150.91804	232.7875
155.24774	283.2875
159.57429	354.9875
163.89768	456.7875
168.21792	607.4875
172.53501	836.1875
176.84895	1174.6875
181.15975	1641.6875
185.46741	2312.9875
189.77193	3199.0875
194.07331	4274.0875
198.37157	5495.3875
202.6667	6781.1875
206.9587	8047.6875
211.24758	9309.3875
215.53334	10551.5875
219.81599	11901.3875
224.09553	13384.9875
228.37195	15030.9875
232.64527	16808.0875
236.91549	18680.8875
241.18261	20598.8875
245.44663	22352.1875
249.70755	24006.3875
253.96539	25378.5875
258.22014	26616.5875
262.4718	27686.1875
266.72039	28446.2875
270.96589	28955.4875
275.20832	29130.5875
279.44768	29170.1875
283.68397	29104.1875
287.91719	29013.9875
292.14735	29068.9875
296.37445	29214.0875
300.59849	29335.6875
304.81948	29314.8875
309.03742	29025.7875
313.25231	28459.0875
317.46415	27586.6875
321.67296	26621.3875
325.87872	25847.8875
330.08145	25498.7875
334.28114	25439.7875
338.47781	25603.4875
342.67145	25918.6875
346.86207	26257.3875
351.04966	26782.5875
355.23424	27318.6875
359.4158	27753.7875
363.59435	28030.2875
367.76989	28244.7875
371.94243	28406.3875
376.11196	28558.3875
380.27849	28681.1875
384.44203	28821.2875
388.60257	29068.4875
392.76012	29369.5875
396.91468	29786.8875
401.06626	30233.9875
405.21485	30577.9875
409.36047	30466.2875
413.50311	30044.4875
417.64277	29687.9875
421.77947	29538.1875
425.9132	29723.5875
430.04396	29929.7875
434.17176	30219.8875
438.2966	30501.2875
442.41849	31075.5875
446.53742	31934.2875
450.6534	32969.1875
454.76644	33768.4875
458.87653	34067.1875
462.98368	34044.1875
467.08789	33770.8875
471.18916	33527.7875
475.2875	33353.4875
479.38291	33418.6875
483.4754	33264.4875
487.56496	32816.6875
491.6516	32021.0875
495.73531	31321.6875
499.81612	30871.6875
503.89401	30833.1875
507.96899	30890.0875
512.04106	30734.4875
516.11023	30392.9875
520.1765	30081.4875
524.23987	29680.4875
528.30034	29325.3875
532.35792	29119.1875
536.41261	28856.6875
540.46441	28646.6875
544.51333	28782.4875
548.55936	29254.8875
552.60252	30003.1875
556.64279	30791.1875
560.6802	31374.5875
564.71473	31780.5875
568.7464	32374.8875
572.7752	33208.9875
576.80114	33785.0875
580.82422	34136.4875
584.84444	34484.9875
588.86181	34893.5875
592.87633	35393.8875
596.888	35760.0875
600.89682	35895.6875
604.9028	36551.8875
608.90594	38797.4875
612.90624	41008.7875
616.90371	38375.2875
620.89834	32554.6875
624.89015	30119.6875
628.87913	29974.7875
632.86528	30228.4875
636.84862	30191.6875
640.82913	29696.4875
644.80683	28851.1875
648.78172	28108.2875
652.75379	27852.4875
656.72306	27999.6875
660.68952	28416.4875
664.65319	28381.0875
668.61405	27941.5875
672.57211	27745.5875
676.52738	27773.2875
680.47986	27776.6875
684.42955	27648.2875
688.37646	27574.0875
692.32058	27689.0875
696.26192	27932.7875
700.20048	28246.4875
704.13626	28438.4875
708.06928	28453.8875
711.99952	28305.5875
715.927	28182.1875
719.85171	28245.5875
723.77365	28125.8875
727.69284	27917.4875
731.60928	27682.4875
735.52295	27597.0875
739.43388	27594.1875
743.34206	27620.8875
747.24749	27796.8875
751.15017	28095.0875
755.05012	28636.4875
758.94733	29544.0875
762.8418	31146.3875
766.73354	33539.4875
770.62254	35595.2875
774.50882	35906.4875
778.39237	34065.8875
782.27321	31342.1875
786.15132	29308.2875
790.02671	28084.4875
793.89938	27504.1875
797.76935	27331.8875
801.6366	27288.2875
805.50115	27245.7875
809.36299	27169.8875
813.22213	27004.6875
817.07857	26968.9875
820.93231	26933.8875
824.78336	26771.5875
828.63172	26709.3875
832.47738	26554.8875
836.32036	26576.0875
840.16066	26647.7875
843.99827	26720.8875
847.8332	26642.2875
851.66546	26539.4875
855.49504	26469.1875
859.32195	26461.3875
863.1462	26362.2875
866.96777	26240.5875
870.78668	26161.5875
874.60293	26158.0875
878.41652	26163.2875
882.22745	26187.3875
886.03573	26280.5875
889.84136	26237.4875
893.64433	26164.6875
897.44466	26074.8875
901.24235	26020.5875
905.0374	25910.9875
908.8298	25828.8875
912.61957	25929.9875
916.40671	26246.5875
920.19121	26685.8875
923.97308	26976.2875
927.75233	26963.4875
931.52895	26696.5875
935.30295	26383.2875
939.07433	25896.6875
942.84309	25496.2875
946.60924	25297.9875
950.37278	25207.4875
954.13371	25097.1875
957.89203	25028.0875
961.64774	25012.6875
965.40086	25031.6875
969.15137	24882.3875
972.89929	24693.8875
976.64461	24573.5875
980.38733	24555.2875
984.12747	24612.5875
987.86502	24818.5875
991.59999	25146.2875
995.33237	25547.3875
999.06217	26267.9875
1002.78939	27077.6875
1006.51404	27606.8875
1010.23611	27822.7875
1013.95561	28049.9875
1017.67255	28135.3875
1021.38692	27850.8875
1025.09872	27572.6875
1028.80796	27668.9875
1032.51465	28293.5875
1036.21877	28890.8875
1039.92035	28982.3875
1043.61937	28680.1875
1047.31584	28111.6875
1051.00976	27543.2875
1054.70114	27330.6875
1058.38998	27430.2875
1062.07627	27694.0875
1065.76003	27962.7875
1069.44126	28177.7875
1073.11995	28448.6875
1076.79611	28587.3875
1080.46974	28723.4875
1084.14085	28873.1875
1087.80943	29175.1875
1091.47549	29448.0875
1095.13903	29589.2875
1098.80005	29330.2875
1102.45857	28760.1875
1106.11456	28284.0875
1109.76805	28084.2875
1113.41903	28140.1875
1117.06751	28432.2875
1120.71348	28734.7875
1124.35696	29048.3875
1127.99793	29405.4875
1131.63641	29549.6875
1135.2724	29422.1875
1138.90589	29209.1875
1142.5369	29184.0875
1146.16542	29281.9875
1149.79145	29557.1875
1153.415	29975.8875
1157.03607	30600.5875
1160.65467	31551.1875
1164.27079	33004.7875
1167.88443	34858.6875
1171.49561	37116.2875
1175.10432	39986.0875
1178.71056	43528.0875
1182.31434	46667.4875
1185.91565	48438.4875
1189.51451	48681.9875
1193.11091	47624.8875
1196.70485	45869.9875
1200.29634	43888.4875
1203.88538	42306.6875
1207.47197	41217.9875
1211.05612	40465.2875
1214.63782	39660.8875
1218.21708	38828.4875
1221.79391	38026.9875
1225.36829	37530.8875
1228.94024	36957.7875
1232.50976	36258.2875
1236.07685	35721.1875
1239.6415	35496.0875
1243.20374	35492.9875
1246.76355	35736.7875
1250.32093	36289.1875
1253.8759	37110.3875
1257.42845	38207.7875
1260.97859	39180.3875
1264.52631	40084.6875
1268.07163	41098.9875
1271.61453	42245.0875
1275.15503	43618.5875
1278.69312	45144.4875
1282.22882	46481.9875
1285.76211	47879.2875
1289.29301	49535.7875
1292.82151	51760.2875
1296.34761	54654.1875
1299.87133	57992.6875
1303.39266	61657.0875
1306.9116	65290.3875
1310.42815	68580.3875
1313.94233	70832.0875
1317.45412	71155.2875
1320.96354	70582.7875
1324.47058	69849.8875
1327.97525	69144.5875
1331.47754	68558.8875
1334.97747	68398.3875
1338.47502	68494.9875
1341.97022	68385.3875
1345.46305	67470.9875
1348.95352	65694.8875
1352.44163	63745.2875
1355.92738	62925.3875
1359.41078	63861.5875
1362.89183	65057.1875
1366.37053	63821.1875
1369.84688	59084.3875
1373.32088	53665.0875
1376.79254	49989.7875
1380.26186	48696.1875
1383.72883	48897.0875
1387.19347	49461.9875
1390.65578	49787.0875
1394.11575	50266.7875
1397.57339	51397.3875
1401.0287	52938.8875
1404.48168	54240.1875
1407.93234	54672.0875
1411.38068	53830.6875
1414.82669	51736.4875
1418.27039	48917.3875
1421.71177	46013.6875
1425.15083	43652.8875
1428.58758	42231.8875
1432.02203	42107.9875
1435.45416	42889.7875
1438.88399	44190.9875
1442.31151	45575.6875
1445.73673	46741.5875
1449.15965	47873.6875
1452.58027	48913.0875
1455.9986	49623.9875
1459.41463	50261.2875
1462.82837	51097.1875
1466.23982	51886.6875
1469.64898	52505.3875
1473.05586	52648.6875
1476.46045	52319.7875
1479.86276	51739.0875
1483.26279	50822.3875
1486.66054	50132.0875
1490.05602	49836.8875
1493.44922	49676.0875
1496.84016	49665.9875
1500.22882	49958.1875
1503.61521	50782.6875
1506.99934	52194.8875
1510.38121	53588.2875
1513.76081	54343.1875
1517.13816	53685.9875
1520.51324	52264.0875
1523.88607	50900.0875
1527.25665	50222.0875
1530.62498	50058.0875
1533.99105	50068.4875
1537.35488	49966.2875
1540.71647	49517.7875
1544.07581	48690.3875
1547.4329	47482.2875
1550.78776	46456.0875
1554.14038	45746.9875
1557.49077	45371.2875
1560.83892	45209.7875
1564.18484	45174.8875
1567.52853	45114.4875
1570.86999	45265.5875
1574.20922	45854.5875
1577.54624	46686.7875
1580.88103	47209.0875
1584.2136	47864.7875
1587.54395	49450.6875
1590.87208	51865.7875
1594.19801	54872.7875
1597.52172	57710.1875
1600.84321	58499.8875
1604.16251	56016.8875
1607.47959	51577.1875
1610.79447	46971.0875
1614.10715	42652.3875
1617.41763	39124.6875
1620.7259	36619.4875
1624.03199	35248.7875
1627.33587	35094.4875
1630.63757	36086.6875
1633.93707	38436.0875
1637.23439	42181.5875
1640.52951	47373.0875
1643.82246	53159.6875
1647.11321	57396.2875
1650.40179	58215.7875
1653.68819	54523.2875
1656.97241	47824.4875
1660.25446	40848.9875
1663.53433	35351.7875
1666.81203	31631.9875
1670.08756	29255.1875
1673.36092	27708.1875
1676.63211	26660.6875
1679.90115	25993.5875
1683.16801	25465.2875
1686.43272	25088.3875
1689.69527	24826.9875
1692.95567	24597.9875
1696.2139	24461.3875
1699.46999	24292.1875
1702.72392	24193.0875
1705.97571	24124.8875
1709.22535	24003.0875
1712.47284	23978.2875
1715.71819	23880.6875
1718.96139	23819.9875
1722.20246	23719.9875
1725.44139	23602.9875
1728.67818	23485.0875
1731.91284	23338.4875
1735.14537	23235.7875
1738.37576	23077.8875
1741.60403	23016.4875
1744.83017	22929.6875
1748.05418	22900.5875
1751.27607	22903.3875
1754.49584	22812.4875
1757.71349	22803.4875
1760.92903	22796.6875
1764.14244	22766.0875
1767.35375	22744.2875
1770.56294	22703.8875
1773.77002	22621.1875
1776.97499	22594.9875
1780.17785	22521.0875
1783.37861	22532.9875
1786.57727	22473.0875
1789.77382	22439.3875
1792.96828	22402.0875
1796.16064	22369.5875
1799.3509	22354.4875
1802.53907	22254.6875
1805.72514	22192.4875
1808.90913	22177.5875
1812.09102	22126.3875
1815.27083	22022.7875
1818.44856	22011.1875
1821.6242	21981.1875
1824.79776	21960.6875
1827.96924	21908.4875
1831.13864	21920.1875
1834.30597	21901.3875
1837.47122	21904.8875
1840.6344	21892.8875
1843.7955	21898.5875
1846.95454	21911.0875
1850.11151	21918.3875
1853.26642	21915.9875
1856.41926	21893.9875
1859.57004	21907.3875
1862.71876	21908.6875
1865.86542	21871.5875
1869.01003	21829.0875
1872.15258	21845.1875
1875.29308	21826.9875
1878.43152	21797.0875
1881.56792	21823.5875
1884.70227	21845.7875
1887.83457	21792.7875
1890.96482	21804.6875
1894.09304	21752.8875
1897.21921	21761.5875
1900.34335	21752.6875
1903.46544	21753.6875
1906.58551	21752.8875
1909.70353	21706.4875
1912.81953	21695.4875
1915.93349	21616.6875
1919.04543	21639.5875
1922.15534	21542.5875
1925.26322	21506.1875
1928.36908	21437.1875
1931.47292	21410.2875
1934.57473	21358.4875
1937.67453	21316.4875
1940.77232	21242.3875
1943.86808	21151.1875
1946.96184	21098.9875
1950.05358	21010.3875
1953.14331	20966.9875
1956.23103	20864.9875
1959.31675	20801.8875
1962.40046	20718.3875
1965.48217	20688.5875
1968.56188	20604.6875
1971.63959	20564.0875
1974.7153	20479.4875
1977.78901	20463.3875
1980.86073	20388.6875
1983.93046	20308.3875
1986.99819	20228.9875
1990.06394	20205.3875
1993.1277	20140.1875
1996.18947	20104.5875
1999.24925	20043.2875
2002.30706	19981.8875
2005.36288	19924.4875
2008.41672	19863.9875
2011.46859	19856.5875
2014.51848	19770.6875
2017.56639	19693.3875
2020.61233	19650.6875
2023.6563	19591.4875
2026.6983	19570.5875
2029.73833	19488.4875
2032.7764	19468.6875
2035.8125	19460.0875
2038.84664	19386.1875
2041.87881	19430.7875
2044.90903	19403.0875
2047.93729	19331.9875
2050.96359	19328.7875
2053.98794	19305.0875
2057.01034	19306.7875
2060.03078	19266.4875
2063.04927	19204.7875
2066.06582	19241.8875
2069.08042	19247.0875
2072.09307	19206.3875
2075.10378	19183.0875
2078.11255	19178.0875
2081.11938	19162.5875
2084.12426	19149.5875
2087.12722	19148.7875
2090.12824	19123.4875
2093.12732	19093.1875
2096.12447	19095.2875
2099.11969	19095.3875
2102.11299	19133.2875
2105.10435	19101.3875
2108.09379	19086.1875
2111.08131	19110.5875
2114.0669	19142.2875
2117.05057	19180.4875
2120.03233	19155.6875
2123.01216	19171.6875
2125.99008	19173.4875
2128.96609	19166.8875
2131.94018	19197.7875
2134.91236	19220.8875
2137.88263	19237.8875
2140.851	19261.2875
2143.81746	19288.2875
2146.78201	19257.1875
2149.74466	19236.5875
2152.7054	19244.0875
2155.66425	19234.6875
2158.6212	19238.8875
2161.57625	19217.3875
2164.52941	19162.6875
2167.48067	19192.5875
2170.43004	19215.7875
2173.37752	19177.2875
2176.32311	19189.4875
2179.26681	19196.2875
2182.20863	19208.6875
2185.14856	19197.6875
2188.08661	19197.1875
2191.02278	19208.4875
2193.95707	19221.9875
2196.88948	19215.5875
2199.82001	19165.1875
2202.74867	19161.8875
2205.67545	19153.2875
2208.60037	19147.6875
2211.52341	19125.7875
2214.44458	19115.1875
2217.36388	19126.7875
2220.28132	19048.6875
2223.1969	18976.0875
2226.11061	19021.5875
2229.02246	18969.6875
2231.93245	18892.8875
2234.84058	18858.1875
2237.74686	18792.6875
2240.65128	18804.2875
2243.55385	18775.8875
2246.45456	18759.5875
2249.35343	18733.9875
2252.25044	18706.0875
2255.14561	18639.9875
2258.03893	18647.8875
2260.93041	18584.4875
2263.82004	18566.2875
2266.70783	18557.4875
2269.59378	18456.6875
2272.4779	18416.0875
2275.36017	18355.7875
2278.24061	18335.8875
2281.11922	18293.7875
2283.996	18302.4875
2286.87094	18277.6875
2289.74405	18232.5875
2292.61534	18223.7875
2295.4848	18191.1875
2298.35243	18200.1875
2301.21824	18216.3875
2304.08223	18232.6875
2306.94439	18219.4875
2309.80474	18249.3875
2312.66327	18260.7875
2315.51999	18251.8875
2318.37489	18224.3875
2321.22797	18184.9875
2324.07925	18186.2875
2326.92871	18184.2875
2329.77637	18124.6875
2332.62222	18093.9875
2335.46626	18113.3875
2338.3085	18156.5875
2341.14893	18114.5875
2343.98756	18140.9875
2346.8244	18164.0875
2349.65943	18109.3875
2352.49267	18142.0875
2355.32411	18164.4875
2358.15376	18123.4875
2360.98161	18113.7875
2363.80768	18096.4875
2366.63195	18102.7875
2369.45444	18035.5875
2372.27514	18028.3875
2375.09405	17988.2875
2377.91118	17956.0875
2380.72652	17917.8875
2383.54009	17858.3875
2386.35187	17838.8875
2389.16188	17818.0875
2391.97011	17795.3875
2394.77657	17730.0875
2397.58125	17695.2875
2400.38416	17710.7875
2403.18529	17695.2875
2405.98466	17672.6875
2408.78226	17629.3875
2411.57809	17599.3875
2414.37216	17549.9875
2417.16446	17548.6875
2419.955	17530.4875
2422.74378	17550.8875
2425.5308	17451.7875
2428.31606	17505.3875
2431.09956	17492.7875
2433.88131	17476.1875
2436.6613	17493.1875
2439.43954	17465.1875
2442.21603	17447.9875
2444.99077	17461.2875
2447.76377	17465.4875
2450.53501	17449.6875
2453.30451	17410.3875
2456.07226	17417.2875
2458.83827	17399.8875
2461.60254	17427.7875
2464.36507	17429.5875
2467.12586	17383.5875
2469.88492	17400.1875
2472.64224	17463.6875
2475.39782	17457.3875
2478.15167	17465.3875
2480.90379	17419.8875
2483.65417	17455.0875
2486.40283	17459.5875
2489.14976	17515.3875
2491.89497	17502.4875
2494.63845	17578.5875
2497.3802	17537.9875
2500.12024	17523.0875
2502.85855	17498.1875
2505.59514	17519.9875
2508.33002	17472.9875
2511.06318	17468.7875
2513.79462	17455.9875
2516.52435	17417.7875
2519.25237	17471.4875
2521.97867	17428.7875
2524.70327	17429.1875
2527.42616	17400.4875
2530.14734	17437.1875
2532.86681	17397.0875
2535.58458	17413.3875
2538.30065	17363.0875
2541.01501	17378.9875
2543.72768	17368.6875
2546.43864	17375.7875
2549.14791	17353.3875
2551.85548	17353.5875
2554.56136	17324.4875
2557.26554	17313.8875
2559.96803	17264.3875
2562.66883	17266.5875
2565.36794	17241.5875
2568.06536	17196.4875
2570.7611	17210.5875
2573.45514	17213.1875
2576.14751	17195.9875
2578.83819	17142.4875
2581.52719	17162.4875
2584.21451	17187.4875
2586.90015	17196.2875
2589.58411	17202.8875
2592.2664	17198.1875
2594.94701	17172.6875
2597.62594	17162.8875
2600.30321	17170.3875
2602.9788	17190.2875
2605.65273	17175.4875
2608.32498	17195.5875
2610.99557	17153.6875
2613.66449	17196.4875
2616.33175	17189.3875
2618.99734	17241.3875
2621.66128	17178.6875
2624.32355	17171.6875
2626.98416	17214.3875
2629.64311	17211.0875
2632.30041	17219.0875
2634.95605	17219.5875
2637.61004	17178.2875
2640.26238	17182.6875
2642.91306	17198.0875
2645.56209	17151.4875
2648.20948	17178.1875
2650.85521	17173.7875
2653.4993	17161.2875
2656.14175	17155.5875
2658.78255	17175.8875
2661.42171	17150.5875
2664.05923	17217.3875
2666.6951	17232.0875
2669.32934	17220.6875
2671.96194	17238.9875
2674.59291	17263.5875
2677.22224	17240.8875
2679.84993	17212.5875
2682.476	17197.4875
2685.10043	17171.9875
2687.72324	17188.7875
2690.34441	17151.9875
2692.96396	17141.8875
2695.58188	17138.0875
2698.19818	17175.0875
2700.81285	17177.5875
2703.4259	17162.6875
2706.03733	17239.3875
2708.64714	17195.8875
2711.25533	17194.8875
2713.86191	17222.9875
2716.46687	17237.5875
2719.07021	17262.8875
2721.67194	17291.2875
2724.27206	17280.1875
2726.87057	17284.4875
2729.46747	17318.2875
2732.06276	17344.1875
2734.65644	17328.8875
2737.24852	17297.1875
2739.83899	17311.8875
2742.42786	17321.5875
2745.01513	17288.9875
2747.60079	17290.1875
2750.18486	17297.9875
2752.76733	17285.4875
2755.3482	17232.6875
2757.92747	17261.9875
2760.50515	17274.1875
2763.08123	17294.7875
2765.65573	17273.5875
2768.22863	17308.6875
2770.79994	17275.3875
2773.36967	17323.0875
2775.9378	17284.0875
2778.50435	17279.0875
2781.06932	17250.1875
2783.6327	17264.7875
2786.1945	17277.6875
2788.75471	17315.3875
2791.31335	17281.0875
2793.87041	17242.5875
2796.42589	17183.7875
2798.97979	17203.7875
2801.53212	17160.0875
2804.08288	17137.4875
2806.63206	17074.2875
2809.17967	17057.0875
2811.72571	17023.7875
2814.27018	17007.9875
2816.81308	16993.8875
2819.35442	16958.8875
2821.89419	16924.4875
2824.43239	16925.6875
2826.96904	16957.7875
2829.50412	16917.0875
2832.03763	16876.2875
2834.56959	16887.0875
2837.1	16857.6875
2839.62884	16876.9875
2842.15613	16847.6875
2844.68186	16898.6875
2847.20604	16898.9875
2849.72867	16927.0875
2852.24974	16879.4875
2854.76927	16900.3875
2857.28724	16888.1875
2859.80367	16866.1875
2862.31855	16871.5875
2864.83189	16822.3875
2867.34368	16809.0875
2869.85393	16785.0875
2872.36264	16800.3875
2874.8698	16783.1875
2877.37543	16769.3875
2879.87952	16762.1875
2882.38207	16777.8875
2884.88308	16789.2875
2887.38256	16792.5875
2889.88051	16768.5875
2892.37692	16797.3875
2894.8718	16806.6875
2897.36515	16836.0875
2899.85698	16838.1875
2902.34727	16848.0875
2904.83604	16891.4875
2907.32328	16926.9875
2909.809	16932.1875
2912.29319	16921.6875
2914.77587	16960.9875
2917.25702	16963.2875
2919.73665	16939.5875
2922.21476	16950.2875
2924.69136	16901.1875
2927.16644	16936.3875
2929.64	16856.0875
2932.11205	16874.4875
2934.58258	16787.2875
2937.05161	16833.8875
2939.51912	16827.4875
2941.98513	16789.4875
2944.44962	16781.1875
2946.91261	16685.0875
2949.37409	16694.2875
2951.83407	16684.0875
2954.29254	16710.2875
2956.74951	16648.2875
2959.20498	16653.8875
2961.65895	16618.9875
2964.11142	16630.4875
2966.56239	16580.0875
2969.01186	16575.3875
2971.45984	16551.7875
2973.90632	16567.5875
2976.35131	16522.0875
2978.7948	16512.3875
2981.23681	16441.5875
2983.67732	16419.2875
2986.11635	16374.1875
2988.55388	16322.2875
2990.98993	16304.6875
2993.4245	16258.1875
2995.85758	16197.8875
2998.28917	16140.7875
3000.71928	16140.3875
3003.14791	16110.5875
3005.57506	16073.9875
3008.00073	16016.5875
3010.42493	15922.4875
3012.84764	15978.1875
3015.26888	15934.2875
3017.68865	15926.0875
3020.10694	15912.5875
3022.52376	15856.4875
3024.9391	15876.8875
3027.35298	15830.9875
3029.76539	15810.4875
3032.17632	15786.7875
3034.5858	15779.8875
3036.9938	15784.0875
3039.40034	15796.9875
3041.80542	15778.6875
3044.20903	15768.3875
3046.61118	15758.2875
3049.01187	15715.3875
3051.4111	15715.4875
3053.80888	15687.3875
3056.20519	15674.1875
3058.60005	15622.6875
3060.99345	15599.2875
3063.3854	15536.4875
3065.7759	15464.6875
3068.16494	15420.9875
3070.55254	15387.9875
3072.93868	15341.9875
3075.32338	15287.1875
3077.70662	15263.5875
3080.08842	15189.3875
3082.46878	15186.4875
3084.84769	15168.6875
3087.22515	15174.8875
3089.60118	15167.3875
3091.97576	15150.2875
3094.3489	15144.6875
3096.72061	15116.5875
3099.09087	15127.2875
3101.4597	15134.8875
3103.82709	15116.9875
3106.19305	15090.1875
3108.55757	15117.6875
3110.92066	15048.0875
3113.28232	15046.1875
3115.64255	15027.0875
3118.00134	15003.8875
3120.35871	14957.0875
3122.71466	14938.1875
3125.06917	14896.2875
3127.42226	14837.2875
3129.77393	14824.0875
3132.12417	14774.0875
3134.47299	14797.7875
3136.82039	14768.9875
3139.16636	14778.7875
3141.51092	14757.2875
3143.85406	14715.8875
3146.19579	14727.8875
3148.53609	14745.9875
3150.87499	14754.5875
3153.21246	14747.9875
3155.54853	14775.0875
3157.88318	14767.3875
3160.21642	14778.1875
3162.54826	14751.5875
3164.87868	14774.9875
3167.2077	14758.4875
3169.5353	14782.8875
3171.86151	14789.5875
3174.18631	14731.8875
3176.5097	14725.4875
3178.83169	14720.8875
3181.15228	14709.3875
3183.47147	14685.3875
3185.78926	14677.8875
3188.10565	14660.9875
3190.42065	14669.3875
3192.73424	14647.1875
3195.04645	14599.7875
3197.35725	14582.9875
3199.66667	14573.8875
3201.97469	14614.0875
3204.28132	14619.1875
3206.58656	14628.6875
3208.8904	14585.4875
3211.19287	14608.6875
3213.49394	14628.1875
3215.79363	14658.7875
3218.09193	14633.4875
3220.38884	14610.6875
3222.68438	14629.0875
3224.97853	14570.9875
3227.2713	14605.3875
3229.56269	14578.4875
3231.8527	14599.6875
3234.14133	14540.4875
3236.42858	14516.6875
3238.71446	14488.4875
3240.99896	14492.7875
3243.28209	14470.5875
3245.56384	14452.7875
3247.84423	14444.6875
3250.12324	14422.1875
3252.40088	14388.8875
3254.67715	14416.0875
3256.95205	14364.1875
3259.22558	14390.1875
3261.49775	14361.4875
3263.76855	14345.6875
3266.03799	14300.4875
3268.30606	14286.8875
3270.57277	14263.7875
3272.83812	14223.4875
3275.10211	14187.5875
3277.36474	14156.5875
3279.62601	14177.6875
3281.88593	14170.2875
3284.14448	14175.0875
3286.40168	14187.5875
3288.65753	14174.3875
3290.91202	14155.7875
3293.16516	14128.9875
3295.41695	14106.5875
3297.66738	14004.2875
3299.91647	13960.4875
3302.16421	13859.3875
3304.4106	13803.0875
3306.65564	13659.0875
3308.89933	13614.0875
3311.14169	13496.9875
3313.38269	13412.6875
3315.62236	13328.7875
3317.86068	13203.7875
3320.09766	13125.6875
3322.3333	13036.8875
3324.5676	12965.9875
3326.80056	12802.0875
3329.03219	12707.6875
3331.26248	4.5875
3333.49143	-0.5125
3335.71905	-0.1125
