Data from AgNPs_FTO_APTES_UA_5uM_CRN_200uM_R6G_10uM_NaF_0.1M_Addition_RamanShift__24__16-27-51-789.txt Node

Date: Mon Feb 07 16:27:51 GMT 2022
User: TCL
Spectrometer: QEP01345
Trigger mode: 4
Integration Time (sec): 7.000000E0
Scans to average: 10
Electric dark correction enabled: true
Nonlinearity correction enabled: false
Boxcar width: 0
XAxis mode: Raman Shifts
Number of Pixels in Spectrum: 1044
>>>>>Begin Spectral Data<<<<<
46.04893	-1.475
50.45542	-0.275
54.85868	0.025
59.25871	-0.875
63.6555	75.625
68.04907	78.425
72.43941	88.325
76.82654	85.025
81.21044	87.525
85.59113	91.325
89.96862	98.525
94.34289	100.525
98.71396	102.325
103.08183	104.725
107.4465	109.525
111.80798	112.525
116.16626	113.825
120.52136	121.025
124.87327	129.725
129.222	132.625
133.56755	140.925
137.90993	155.525
142.24913	177.525
146.58517	200.925
150.91804	231.925
155.24774	283.625
159.57429	355.525
163.89768	459.425
168.21792	613.225
172.53501	837.825
176.84895	1158.125
181.15975	1640.625
185.46741	2307.825
189.77193	3180.125
194.07331	4274.225
198.37157	5494.325
202.6667	6781.625
206.9587	8048.225
211.24758	9334.625
215.53334	10608.625
219.81599	11975.425
224.09553	13470.325
228.37195	15159.625
232.64527	16928.025
236.91549	18812.325
241.18261	20695.325
245.44663	22431.425
249.70755	24036.525
253.96539	25416.825
258.22014	26580.425
262.4718	27589.325
266.72039	28329.825
270.96589	28819.225
275.20832	29037.425
279.44768	29013.125
283.68397	28884.725
287.91719	28773.425
292.14735	28876.625
296.37445	29128.125
300.59849	29317.825
304.81948	29381.025
309.03742	29139.225
313.25231	28531.625
317.46415	27661.825
321.67296	26662.125
325.87872	25896.525
330.08145	25520.125
334.28114	25472.425
338.47781	25655.425
342.67145	25908.425
346.86207	26311.125
351.04966	26810.525
355.23424	27356.525
359.4158	27793.725
363.59435	28104.625
367.76989	28321.825
371.94243	28496.925
376.11196	28651.725
380.27849	28765.925
384.44203	28979.525
388.60257	29228.125
392.76012	29418.825
396.91468	29749.125
401.06626	30180.225
405.21485	30436.125
409.36047	30285.625
413.50311	29803.425
417.64277	29384.625
421.77947	29261.925
425.9132	29363.225
430.04396	29584.325
434.17176	29956.425
438.2966	30449.225
442.41849	31159.825
446.53742	32158.725
450.6534	33327.225
454.76644	34166.225
458.87653	34527.525
462.98368	34302.725
467.08789	33984.625
471.18916	33694.725
475.2875	33684.125
479.38291	33780.525
483.4754	33594.225
487.56496	32951.925
491.6516	31962.125
495.73531	31093.025
499.81612	30541.925
503.89401	30498.025
507.96899	30468.725
512.04106	30379.625
516.11023	30151.525
520.1765	29892.625
524.23987	29596.125
528.30034	29393.525
532.35792	29202.425
536.41261	28943.825
540.46441	28726.925
544.51333	28752.025
548.55936	29191.925
552.60252	29947.625
556.64279	30839.925
560.6802	31539.025
564.71473	32097.425
568.7464	32799.025
572.7752	33671.425
576.80114	33970.625
580.82422	33992.825
584.84444	34243.125
588.86181	34759.825
592.87633	35664.825
596.888	36156.425
600.89682	35972.825
604.9028	36297.625
608.90594	38274.125
612.90624	40744.925
616.90371	38269.425
620.89834	32160.025
624.89015	29507.225
628.87913	29301.525
632.86528	29594.625
636.84862	29691.425
640.82913	29326.025
644.80683	28488.625
648.78172	27819.925
652.75379	27540.125
656.72306	27720.125
660.68952	28097.225
664.65319	27942.725
668.61405	27486.225
672.57211	27383.225
676.52738	27456.025
680.47986	27427.525
684.42955	27367.925
688.37646	27276.225
692.32058	27373.925
696.26192	27541.825
700.20048	27815.125
704.13626	28010.625
708.06928	28004.025
711.99952	27862.125
715.927	27753.225
719.85171	27767.325
723.77365	27733.725
727.69284	27574.225
731.60928	27401.725
735.52295	27342.225
739.43388	27321.725
743.34206	27373.425
747.24749	27497.125
751.15017	27773.925
755.05012	28307.325
758.94733	29187.225
762.8418	30770.925
766.73354	33155.625
770.62254	35361.025
774.50882	35721.625
778.39237	34013.525
782.27321	31294.525
786.15132	29023.125
790.02671	27738.525
793.89938	27097.725
797.76935	26870.825
801.6366	26779.925
805.50115	26784.425
809.36299	26684.125
813.22213	26582.625
817.07857	26618.925
820.93231	26650.525
824.78336	26523.725
828.63172	26370.025
832.47738	26310.525
836.32036	26257.925
840.16066	26204.425
843.99827	26221.725
847.8332	26164.925
851.66546	26059.425
855.49504	26051.825
859.32195	26023.625
863.1462	26000.125
866.96777	25893.725
870.78668	25854.125
874.60293	25850.625
878.41652	25869.925
882.22745	25914.325
886.03573	25958.225
889.84136	25924.725
893.64433	25868.725
897.44466	25713.125
901.24235	25667.725
905.0374	25546.325
908.8298	25485.225
912.61957	25595.525
916.40671	25857.125
920.19121	26256.425
923.97308	26411.825
927.75233	26386.325
931.52895	26198.125
935.30295	25891.625
939.07433	25441.025
942.84309	25063.725
946.60924	24845.825
950.37278	24696.125
954.13371	24702.425
957.89203	24682.625
961.64774	24676.725
965.40086	24615.525
969.15137	24493.125
972.89929	24325.925
976.64461	24200.625
980.38733	24091.325
984.12747	24158.425
987.86502	24301.925
991.59999	24575.425
995.33237	24877.225
999.06217	25517.625
1002.78939	26133.925
1006.51404	26615.125
1010.23611	26917.425
1013.95561	27187.825
1017.67255	27206.525
1021.38692	26869.925
1025.09872	26478.425
1028.80796	26356.125
1032.51465	26641.525
1036.21877	26955.425
1039.92035	26983.525
1043.61937	26895.925
1047.31584	26662.325
1051.00976	26399.725
1054.70114	26319.825
1058.38998	26389.625
1062.07627	26715.025
1065.76003	26997.625
1069.44126	27198.125
1073.11995	27415.425
1076.79611	27613.425
1080.46974	27766.525
1084.14085	27901.725
1087.80943	28194.325
1091.47549	28464.225
1095.13903	28525.525
1098.80005	28306.625
1102.45857	27739.125
1106.11456	27335.325
1109.76805	27202.925
1113.41903	27383.225
1117.06751	27717.225
1120.71348	28155.825
1124.35696	28574.225
1127.99793	28992.625
1131.63641	29180.025
1135.2724	28900.825
1138.90589	28534.725
1142.5369	28469.025
1146.16542	28599.425
1149.79145	28991.425
1153.415	29415.825
1157.03607	30027.225
1160.65467	30935.325
1164.27079	32231.025
1167.88443	34008.425
1171.49561	36199.025
1175.10432	39068.225
1178.71056	42671.225
1182.31434	45848.525
1185.91565	47404.325
1189.51451	47391.025
1193.11091	46411.925
1196.70485	44948.825
1200.29634	43254.525
1203.88538	41728.025
1207.47197	40610.125
1211.05612	39683.325
1214.63782	38789.825
1218.21708	37964.725
1221.79391	37275.725
1225.36829	36613.025
1228.94024	35921.425
1232.50976	35069.525
1236.07685	34419.925
1239.6415	34157.425
1243.20374	34234.125
1246.76355	34541.825
1250.32093	34960.625
1253.8759	35667.625
1257.42845	36561.825
1260.97859	37469.225
1264.52631	38375.125
1268.07163	39221.125
1271.61453	40275.925
1275.15503	41469.325
1278.69312	42724.925
1282.22882	43939.325
1285.76211	45368.325
1289.29301	47253.925
1292.82151	49770.425
1296.34761	52887.625
1299.87133	56464.425
1303.39266	60064.625
1306.9116	63627.725
1310.42815	66925.525
1313.94233	69183.025
1317.45412	69654.225
1320.96354	69186.025
1324.47058	68463.925
1327.97525	67613.925
1331.47754	66998.725
1334.97747	66688.225
1338.47502	66658.025
1341.97022	66396.625
1345.46305	65394.525
1348.95352	63615.425
1352.44163	61973.825
1355.92738	61508.325
1359.41078	62670.425
1362.89183	64200.125
1366.37053	62860.425
1369.84688	57859.325
1373.32088	52185.625
1376.79254	48575.125
1380.26186	47380.325
1383.72883	47851.525
1387.19347	48577.725
1390.65578	49217.725
1394.11575	50053.525
1397.57339	51437.525
1401.0287	53125.325
1404.48168	54468.025
1407.93234	54837.525
1411.38068	53854.525
1414.82669	51517.925
1418.27039	48393.025
1421.71177	45230.925
1425.15083	42606.125
1428.58758	41113.325
1432.02203	40990.325
1435.45416	41833.825
1438.88399	43202.425
1442.31151	44622.925
1445.73673	45718.825
1449.15965	46943.025
1452.58027	48136.025
1455.9986	48979.625
1459.41463	49701.625
1462.82837	50480.525
1466.23982	51206.825
1469.64898	51742.825
1473.05586	51733.725
1476.46045	51273.625
1479.86276	50503.425
1483.26279	49471.625
1486.66054	48589.225
1490.05602	48075.825
1493.44922	47838.825
1496.84016	47604.825
1500.22882	47914.125
1503.61521	48906.925
1506.99934	50466.425
1510.38121	52025.725
1513.76081	52627.725
1517.13816	51738.825
1520.51324	50001.625
1523.88607	48395.525
1527.25665	47698.625
1530.62498	47650.025
1533.99105	47822.525
1537.35488	47892.325
1540.71647	47534.225
1544.07581	46748.625
1547.4329	45633.525
1550.78776	44593.425
1554.14038	43842.225
1557.49077	43429.225
1560.83892	43282.625
1564.18484	43278.125
1567.52853	43391.825
1570.86999	43703.725
1574.20922	44404.525
1577.54624	45311.125
1580.88103	45834.225
1584.2136	46538.425
1587.54395	48122.525
1590.87208	50485.925
1594.19801	53432.825
1597.52172	56114.725
1600.84321	56966.125
1604.16251	54635.525
1607.47959	50268.325
1610.79447	45437.625
1614.10715	40995.625
1617.41763	37365.225
1620.7259	34863.525
1624.03199	33567.425
1627.33587	33414.725
1630.63757	34389.425
1633.93707	36724.225
1637.23439	40513.325
1640.52951	45885.425
1643.82246	51982.525
1647.11321	56880.625
1650.40179	57911.525
1653.68819	54189.625
1656.97241	47165.225
1660.25446	39871.025
1663.53433	34233.825
1666.81203	30372.825
1670.08756	27977.725
1673.36092	26514.725
1676.63211	25522.525
1679.90115	24854.025
1683.16801	24307.425
1686.43272	23905.925
1689.69527	23602.325
1692.95567	23431.025
1696.2139	23259.325
1699.46999	23083.325
1702.72392	22995.125
1705.97571	22915.825
1709.22535	22817.025
1712.47284	22742.925
1715.71819	22723.625
1718.96139	22664.025
1722.20246	22556.625
1725.44139	22457.125
1728.67818	22306.425
1731.91284	22184.125
1735.14537	22082.225
1738.37576	21976.325
1741.60403	21906.625
1744.83017	21794.525
1748.05418	21749.725
1751.27607	21757.225
1754.49584	21703.425
1757.71349	21663.925
1760.92903	21601.125
1764.14244	21582.425
1767.35375	21562.525
1770.56294	21525.925
1773.77002	21447.925
1776.97499	21429.025
1780.17785	21370.425
1783.37861	21345.725
1786.57727	21297.725
1789.77382	21272.025
1792.96828	21205.825
1796.16064	21176.825
1799.3509	21127.125
1802.53907	21087.925
1805.72514	21033.625
1808.90913	20982.825
1812.09102	20918.125
1815.27083	20865.325
1818.44856	20844.725
1821.6242	20791.525
1824.79776	20766.225
1827.96924	20718.125
1831.13864	20710.625
1834.30597	20708.325
1837.47122	20654.425
1840.6344	20636.525
1843.7955	20662.425
1846.95454	20639.425
1850.11151	20611.925
1853.26642	20560.825
1856.41926	20589.125
1859.57004	20633.625
1862.71876	20554.825
1865.86542	20545.525
1869.01003	20533.225
1872.15258	20525.525
1875.29308	20523.925
1878.43152	20491.925
1881.56792	20483.125
1884.70227	20478.025
1887.83457	20464.325
1890.96482	20444.425
1894.09304	20413.225
1897.21921	20393.325
1900.34335	20411.425
1903.46544	20363.825
1906.58551	20362.825
1909.70353	20328.225
1912.81953	20294.125
1915.93349	20270.925
1919.04543	20265.725
1922.15534	20231.225
1925.26322	20165.125
1928.36908	20116.225
1931.47292	20133.125
1934.57473	20078.825
1937.67453	20009.125
1940.77232	19929.625
1943.86808	19874.925
1946.96184	19780.625
1950.05358	19707.325
1953.14331	19618.125
1956.23103	19579.625
1959.31675	19505.825
1962.40046	19479.625
1965.48217	19406.725
1968.56188	19318.625
1971.63959	19255.325
1974.7153	19229.125
1977.78901	19161.725
1980.86073	19113.525
1983.93046	19060.925
1986.99819	18974.025
1990.06394	18932.625
1993.1277	18856.725
1996.18947	18812.525
1999.24925	18720.025
2002.30706	18702.325
2005.36288	18677.225
2008.41672	18618.825
2011.46859	18580.125
2014.51848	18522.425
2017.56639	18431.825
2020.61233	18367.125
2023.6563	18314.125
2026.6983	18309.325
2029.73833	18221.325
2032.7764	18187.725
2035.8125	18190.125
2038.84664	18170.225
2041.87881	18151.525
2044.90903	18068.625
2047.93729	18038.525
2050.96359	18069.625
2053.98794	18034.925
2057.01034	18037.325
2060.03078	18020.325
2063.04927	18008.025
2066.06582	18009.425
2069.08042	18003.725
2072.09307	17960.625
2075.10378	17908.625
2078.11255	17904.025
2081.11938	17910.025
2084.12426	17865.625
2087.12722	17853.725
2090.12824	17842.325
2093.12732	17852.225
2096.12447	17844.125
2099.11969	17803.425
2102.11299	17798.125
2105.10435	17811.525
2108.09379	17803.525
2111.08131	17799.425
2114.0669	17830.425
2117.05057	17829.925
2120.03233	17850.725
2123.01216	17834.525
2125.99008	17904.025
2128.96609	17875.625
2131.94018	17888.525
2134.91236	17879.425
2137.88263	17901.225
2140.851	17914.225
2143.81746	17906.325
2146.78201	17920.525
2149.74466	17886.825
2152.7054	17868.825
2155.66425	17866.225
2158.6212	17863.825
2161.57625	17842.025
2164.52941	17816.725
2167.48067	17838.525
2170.43004	17858.025
2173.37752	17847.725
2176.32311	17850.625
2179.26681	17832.925
2182.20863	17842.925
2185.14856	17850.825
2188.08661	17820.625
2191.02278	17823.925
2193.95707	17791.425
2196.88948	17760.725
2199.82001	17732.825
2202.74867	17719.825
2205.67545	17705.325
2208.60037	17721.625
2211.52341	17685.825
2214.44458	17634.925
2217.36388	17592.825
2220.28132	17576.025
2223.1969	17498.325
2226.11061	17511.625
2229.02246	17491.025
2231.93245	17449.425
2234.84058	17405.825
2237.74686	17366.725
2240.65128	17366.325
2243.55385	17324.125
2246.45456	17353.725
2249.35343	17302.025
2252.25044	17259.725
2255.14561	17193.925
2258.03893	17161.125
2260.93041	17119.625
2263.82004	17085.225
2266.70783	17053.725
2269.59378	16996.025
2272.4779	16928.225
2275.36017	16898.225
2278.24061	16888.025
2281.11922	16868.925
2283.996	16848.725
2286.87094	16784.625
2289.74405	16748.125
2292.61534	16727.025
2295.4848	16743.425
2298.35243	16765.225
2301.21824	16755.525
2304.08223	16778.425
2306.94439	16785.625
2309.80474	16774.925
2312.66327	16737.025
2315.51999	16707.525
2318.37489	16730.225
2321.22797	16657.125
2324.07925	16638.625
2326.92871	16665.325
2329.77637	16672.825
2332.62222	16572.225
2335.46626	16615.125
2338.3085	16589.325
2341.14893	16593.725
2343.98756	16583.425
2346.8244	16582.825
2349.65943	16569.125
2352.49267	16565.425
2355.32411	16591.925
2358.15376	16576.625
2360.98161	16588.425
2363.80768	16549.525
2366.63195	16576.725
2369.45444	16527.525
2372.27514	16496.525
2375.09405	16461.325
2377.91118	16425.025
2380.72652	16366.925
2383.54009	16347.125
2386.35187	16332.525
2389.16188	16248.425
2391.97011	16237.825
2394.77657	16205.925
2397.58125	16155.625
2400.38416	16132.225
2403.18529	16070.725
2405.98466	16082.225
2408.78226	16112.525
2411.57809	16091.325
2414.37216	16089.725
2417.16446	16049.625
2419.955	16010.725
2422.74378	15987.025
2425.5308	15966.625
2428.31606	15967.025
2431.09956	15954.725
2433.88131	15903.425
2436.6613	15964.125
2439.43954	15976.825
2442.21603	15938.825
2444.99077	15909.525
2447.76377	15905.325
2450.53501	15871.425
2453.30451	15876.325
2456.07226	15889.325
2458.83827	15851.025
2461.60254	15834.125
2464.36507	15864.725
2467.12586	15862.525
2469.88492	15863.525
2472.64224	15851.025
2475.39782	15889.925
2478.15167	15864.225
2480.90379	15874.325
2483.65417	15892.525
2486.40283	15904.425
2489.14976	15912.225
2491.89497	15871.425
2494.63845	15930.025
2497.3802	15939.425
2500.12024	15921.325
2502.85855	15892.025
2505.59514	15924.725
2508.33002	15863.025
2511.06318	15881.025
2513.79462	15870.725
2516.52435	15841.125
2519.25237	15815.725
2521.97867	15809.425
2524.70327	15782.425
2527.42616	15770.325
2530.14734	15757.125
2532.86681	15780.425
2535.58458	15735.725
2538.30065	15769.025
2541.01501	15744.025
2543.72768	15734.525
2546.43864	15708.725
2549.14791	15666.425
2551.85548	15695.625
2554.56136	15623.025
2557.26554	15621.325
2559.96803	15595.825
2562.66883	15576.625
2565.36794	15586.025
2568.06536	15574.425
2570.7611	15572.325
2573.45514	15579.225
2576.14751	15553.125
2578.83819	15499.125
2581.52719	15543.325
2584.21451	15555.325
2586.90015	15530.525
2589.58411	15517.125
2592.2664	15517.525
2594.94701	15523.225
2597.62594	15477.625
2600.30321	15479.325
2602.9788	15455.925
2605.65273	15473.825
2608.32498	15480.825
2610.99557	15478.925
2613.66449	15513.225
2616.33175	15499.025
2618.99734	15484.825
2621.66128	15481.825
2624.32355	15469.025
2626.98416	15488.325
2629.64311	15470.525
2632.30041	15458.825
2634.95605	15466.625
2637.61004	15448.725
2640.26238	15448.425
2642.91306	15416.325
2645.56209	15403.225
2648.20948	15459.525
2650.85521	15446.625
2653.4993	15455.025
2656.14175	15420.425
2658.78255	15443.025
2661.42171	15426.125
2664.05923	15463.625
2666.6951	15471.025
2669.32934	15489.425
2671.96194	15467.725
2674.59291	15489.325
2677.22224	15468.025
2679.84993	15450.525
2682.476	15422.525
2685.10043	15427.025
2687.72324	15428.525
2690.34441	15439.225
2692.96396	15370.425
2695.58188	15397.225
2698.19818	15424.725
2700.81285	15418.725
2703.4259	15378.825
2706.03733	15426.825
2708.64714	15454.825
2711.25533	15450.425
2713.86191	15446.425
2716.46687	15500.225
2719.07021	15451.725
2721.67194	15483.825
2724.27206	15482.025
2726.87057	15526.225
2729.46747	15539.025
2732.06276	15529.725
2734.65644	15535.225
2737.24852	15510.225
2739.83899	15500.525
2742.42786	15528.125
2745.01513	15502.625
2747.60079	15489.325
2750.18486	15470.825
2752.76733	15459.225
2755.3482	15465.825
2757.92747	15418.625
2760.50515	15455.025
2763.08123	15494.725
2765.65573	15453.625
2768.22863	15467.125
2770.79994	15427.925
2773.36967	15493.125
2775.9378	15461.425
2778.50435	15482.925
2781.06932	15470.125
2783.6327	15450.125
2786.1945	15458.025
2788.75471	15471.825
2791.31335	15452.425
2793.87041	15451.425
2796.42589	15441.025
2798.97979	15424.625
2801.53212	15384.225
2804.08288	15318.625
2806.63206	15315.825
2809.17967	15291.525
2811.72571	15268.225
2814.27018	15234.825
2816.81308	15181.425
2819.35442	15184.925
2821.89419	15137.925
2824.43239	15144.125
2826.96904	15128.525
2829.50412	15108.925
2832.03763	15045.525
2834.56959	15064.225
2837.1	15018.725
2839.62884	15040.625
2842.15613	15063.725
2844.68186	15122.825
2847.20604	15113.525
2849.72867	15142.125
2852.24974	15144.425
2854.76927	15123.525
2857.28724	15078.525
2859.80367	15076.125
2862.31855	15041.025
2864.83189	15031.925
2867.34368	14994.325
2869.85393	15027.925
2872.36264	15016.325
2874.8698	15031.825
2877.37543	15035.525
2879.87952	14997.125
2882.38207	15013.525
2884.88308	15020.525
2887.38256	15029.325
2889.88051	15025.325
2892.37692	15019.725
2894.8718	15035.225
2897.36515	15052.625
2899.85698	15045.025
2902.34727	15101.325
2904.83604	15115.225
2907.32328	15123.425
2909.809	15112.825
2912.29319	15138.825
2914.77587	15125.225
2917.25702	15082.325
2919.73665	15075.725
2922.21476	15112.525
2924.69136	15072.925
2927.16644	15108.425
2929.64	15067.625
2932.11205	15069.825
2934.58258	15023.225
2937.05161	15001.225
2939.51912	15011.325
2941.98513	14969.725
2944.44962	14939.425
2946.91261	14863.225
2949.37409	14911.025
2951.83407	14865.625
2954.29254	14820.625
2956.74951	14844.125
2959.20498	14817.325
2961.65895	14792.725
2964.11142	14786.725
2966.56239	14746.325
2969.01186	14745.525
2971.45984	14734.025
2973.90632	14673.025
2976.35131	14645.425
2978.7948	14637.325
2981.23681	14592.625
2983.67732	14577.625
2986.11635	14482.525
2988.55388	14466.425
2990.98993	14432.125
2993.4245	14392.125
2995.85758	14362.525
2998.28917	14306.025
3000.71928	14306.925
3003.14791	14270.525
3005.57506	14246.625
3008.00073	14159.925
3010.42493	14168.125
3012.84764	14136.725
3015.26888	14121.625
3017.68865	14067.625
3020.10694	14032.725
3022.52376	14042.325
3024.9391	13996.125
3027.35298	13981.625
3029.76539	14001.525
3032.17632	13973.125
3034.5858	13962.725
3036.9938	13919.125
3039.40034	13943.425
3041.80542	13972.725
3044.20903	13914.325
3046.61118	13941.525
3049.01187	13900.025
3051.4111	13883.225
3053.80888	13823.025
3056.20519	13815.525
3058.60005	13770.225
3060.99345	13715.425
3063.3854	13667.825
3065.7759	13626.625
3068.16494	13599.825
3070.55254	13511.425
3072.93868	13473.425
3075.32338	13449.125
3077.70662	13374.725
3080.08842	13345.725
3082.46878	13365.425
3084.84769	13309.325
3087.22515	13317.725
3089.60118	13315.025
3091.97576	13306.125
3094.3489	13295.025
3096.72061	13310.425
3099.09087	13285.325
3101.4597	13267.525
3103.82709	13251.325
3106.19305	13230.025
3108.55757	13242.625
3110.92066	13156.425
3113.28232	13146.525
3115.64255	13087.725
3118.00134	13083.525
3120.35871	13042.425
3122.71466	13026.925
3125.06917	13011.725
3127.42226	12970.725
3129.77393	12981.825
3132.12417	12922.525
3134.47299	12906.525
3136.82039	12896.225
3139.16636	12915.725
3141.51092	12888.625
3143.85406	12887.525
3146.19579	12871.325
3148.53609	12858.425
3150.87499	12872.825
3153.21246	12869.225
3155.54853	12899.025
3157.88318	12867.425
3160.21642	12899.625
3162.54826	12883.425
3164.87868	12879.525
3167.2077	12891.925
3169.5353	12882.425
3171.86151	12870.325
3174.18631	12877.225
3176.5097	12872.725
3178.83169	12837.925
3181.15228	12840.625
3183.47147	12813.125
3185.78926	12801.325
3188.10565	12758.525
3190.42065	12778.825
3192.73424	12768.725
3195.04645	12753.625
3197.35725	12733.325
3199.66667	12699.625
3201.97469	12741.925
3204.28132	12704.125
3206.58656	12718.625
3208.8904	12726.125
3211.19287	12713.725
3213.49394	12725.325
3215.79363	12735.025
3218.09193	12752.425
3220.38884	12729.125
3222.68438	12729.525
3224.97853	12722.725
3227.2713	12692.425
3229.56269	12663.025
3231.8527	12682.025
3234.14133	12633.325
3236.42858	12627.425
3238.71446	12584.225
3240.99896	12588.225
3243.28209	12573.425
3245.56384	12546.525
3247.84423	12561.625
3250.12324	12547.125
3252.40088	12493.325
3254.67715	12483.625
3256.95205	12466.225
3259.22558	12451.425
3261.49775	12426.125
3263.76855	12393.425
3266.03799	12361.525
3268.30606	12351.825
3270.57277	12332.325
3272.83812	12286.025
3275.10211	12277.425
3277.36474	12262.025
3279.62601	12277.325
3281.88593	12229.525
3284.14448	12252.225
3286.40168	12247.925
3288.65753	12240.625
3290.91202	12241.325
3293.16516	12207.225
3295.41695	12175.225
3297.66738	12107.725
3299.91647	12025.525
3302.16421	11971.225
3304.4106	11882.325
3306.65564	11805.325
3308.89933	11736.525
3311.14169	11645.825
3313.38269	11531.825
3315.62236	11488.125
3317.86068	11337.625
3320.09766	11295.225
3322.3333	11213.825
3324.5676	11157.025
3326.80056	10959.325
3329.03219	10913.925
3331.26248	3.425
3333.49143	0.825
3335.71905	-0.875
