Data from AgNPs_FTO_APTES_UA_5uM_CRN_20uM_R6G_10uM_NaF_0.1M_Addition_RamanShift__0__13-02-56-756.txt Node

Date: Mon Feb 07 13:02:56 GMT 2022
User: TCL
Spectrometer: QEP01345
Trigger mode: 4
Integration Time (sec): 7.000000E0
Scans to average: 10
Electric dark correction enabled: true
Nonlinearity correction enabled: false
Boxcar width: 0
XAxis mode: Raman Shifts
Number of Pixels in Spectrum: 1044
>>>>>Begin Spectral Data<<<<<
46.04893	0.3375
50.45542	-0.5625
54.85868	-1.1625
59.25871	1.0375
63.6555	38.1375
68.04907	38.7375
72.43941	42.5375
76.82654	43.5375
81.21044	40.7375
85.59113	44.7375
89.96862	47.7375
94.34289	47.0375
98.71396	47.5375
103.08183	49.7375
107.4465	53.4375
111.80798	55.7375
116.16626	55.6375
120.52136	61.5375
124.87327	62.6375
129.222	65.2375
133.56755	72.2375
137.90993	76.4375
142.24913	84.3375
146.58517	101.7375
150.91804	114.6375
155.24774	139.2375
159.57429	176.6375
163.89768	226.7375
168.21792	304.4375
172.53501	418.1375
176.84895	583.3375
181.15975	830.1375
185.46741	1172.3375
189.77193	1610.2375
194.07331	2162.0375
198.37157	2780.8375
202.6667	3419.0375
206.9587	4074.2375
211.24758	4722.6375
215.53334	5348.7375
219.81599	6069.5375
224.09553	6840.7375
228.37195	7705.5375
232.64527	8624.8375
236.91549	9570.9375
241.18261	10506.6375
245.44663	11349.0375
249.70755	12056.3375
253.96539	12718.4375
258.22014	13254.8375
262.4718	13714.7375
266.72039	14069.7375
270.96589	14257.9375
275.20832	14258.8375
279.44768	14185.3375
283.68397	14023.9375
287.91719	13919.7375
292.14735	13855.2375
296.37445	13933.0375
300.59849	14094.0375
304.81948	14290.1375
309.03742	14420.0375
313.25231	14332.1375
317.46415	14027.2375
321.67296	13530.8375
325.87872	13089.6375
330.08145	12847.7375
334.28114	12835.2375
338.47781	12930.5375
342.67145	13094.5375
346.86207	13356.6375
351.04966	13679.8375
355.23424	14081.8375
359.4158	14431.2375
363.59435	14622.9375
367.76989	14724.0375
371.94243	14742.5375
376.11196	14853.9375
380.27849	14844.0375
384.44203	14889.5375
388.60257	14920.5375
392.76012	15013.9375
396.91468	15228.3375
401.06626	15477.1375
405.21485	15678.5375
409.36047	15624.3375
413.50311	15342.7375
417.64277	15147.6375
421.77947	15167.5375
425.9132	15295.3375
430.04396	15405.2375
434.17176	15482.5375
438.2966	15549.0375
442.41849	15764.3375
446.53742	16217.5375
450.6534	16786.3375
454.76644	17144.9375
458.87653	17187.8375
462.98368	16963.2375
467.08789	16624.3375
471.18916	16301.6375
475.2875	16105.8375
479.38291	16013.7375
483.4754	15925.1375
487.56496	15821.7375
491.6516	15568.9375
495.73531	15308.8375
499.81612	15074.1375
503.89401	15062.6375
507.96899	15051.5375
512.04106	14992.8375
516.11023	14875.6375
520.1765	14816.9375
524.23987	14691.5375
528.30034	14569.2375
532.35792	14470.3375
536.41261	14258.0375
540.46441	14026.3375
544.51333	13962.0375
548.55936	14073.0375
552.60252	14400.4375
556.64279	14830.2375
560.6802	15154.7375
564.71473	15462.3375
568.7464	15821.5375
572.7752	16309.3375
576.80114	16568.7375
580.82422	16689.2375
584.84444	17095.6375
588.86181	17648.8375
592.87633	18266.7375
596.888	18365.1375
600.89682	17944.1375
604.9028	18049.3375
608.90594	19792.6375
612.90624	22096.4375
616.90371	20909.8375
620.89834	16783.8375
624.89015	14851.8375
628.87913	14560.4375
632.86528	14627.6375
636.84862	14601.8375
640.82913	14308.1375
644.80683	13848.9375
648.78172	13548.6375
652.75379	13513.8375
656.72306	13763.9375
660.68952	14118.0375
664.65319	14021.7375
668.61405	13663.5375
672.57211	13523.3375
676.52738	13575.3375
680.47986	13585.0375
684.42955	13474.9375
688.37646	13424.8375
692.32058	13589.1375
696.26192	13893.2375
700.20048	14229.0375
704.13626	14450.8375
708.06928	14465.3375
711.99952	14333.1375
715.927	14240.0375
719.85171	14260.9375
723.77365	14145.5375
727.69284	13938.0375
731.60928	13716.3375
735.52295	13628.9375
739.43388	13650.0375
743.34206	13694.1375
747.24749	13740.9375
751.15017	13866.1375
755.05012	14110.1375
758.94733	14589.6375
762.8418	15443.1375
766.73354	16835.5375
770.62254	18209.7375
774.50882	18615.9375
778.39237	17799.0375
782.27321	16318.5375
786.15132	14999.4375
790.02671	14215.4375
793.89938	13793.7375
797.76935	13665.3375
801.6366	13591.6375
805.50115	13553.4375
809.36299	13506.6375
813.22213	13432.7375
817.07857	13391.7375
820.93231	13352.0375
824.78336	13322.3375
828.63172	13278.0375
832.47738	13297.9375
836.32036	13326.0375
840.16066	13362.4375
843.99827	13393.6375
847.8332	13373.5375
851.66546	13274.6375
855.49504	13247.0375
859.32195	13250.6375
863.1462	13154.5375
866.96777	13119.1375
870.78668	13082.7375
874.60293	13075.0375
878.41652	13072.4375
882.22745	13160.8375
886.03573	13222.6375
889.84136	13195.6375
893.64433	13105.9375
897.44466	13046.8375
901.24235	13014.8375
905.0374	12983.3375
908.8298	12970.7375
912.61957	13010.0375
916.40671	13136.4375
920.19121	13331.7375
923.97308	13466.7375
927.75233	13546.0375
931.52895	13476.0375
935.30295	13300.5375
939.07433	13030.0375
942.84309	12819.5375
946.60924	12699.9375
950.37278	12649.5375
954.13371	12641.9375
957.89203	12573.3375
961.64774	12561.6375
965.40086	12548.3375
969.15137	12516.2375
972.89929	12474.8375
976.64461	12477.4375
980.38733	12482.1375
984.12747	12542.8375
987.86502	12635.6375
991.59999	12778.6375
995.33237	12969.0375
999.06217	13346.6375
1002.78939	13713.3375
1006.51404	13998.7375
1010.23611	14132.1375
1013.95561	14271.9375
1017.67255	14251.0375
1021.38692	14041.8375
1025.09872	13838.3375
1028.80796	13833.0375
1032.51465	14157.6375
1036.21877	14511.7375
1039.92035	14621.1375
1043.61937	14494.2375
1047.31584	14224.4375
1051.00976	13960.6375
1054.70114	13798.4375
1058.38998	13737.7375
1062.07627	13824.4375
1065.76003	13919.4375
1069.44126	14004.0375
1073.11995	14195.0375
1076.79611	14389.8375
1080.46974	14551.7375
1084.14085	14744.5375
1087.80943	14938.0375
1091.47549	15114.8375
1095.13903	15149.0375
1098.80005	14922.2375
1102.45857	14558.5375
1106.11456	14338.8375
1109.76805	14220.5375
1113.41903	14292.7375
1117.06751	14432.5375
1120.71348	14635.4375
1124.35696	14853.3375
1127.99793	15096.6375
1131.63641	15202.2375
1135.2724	15003.7375
1138.90589	14832.6375
1142.5369	14753.5375
1146.16542	14760.0375
1149.79145	14886.5375
1153.415	15037.1375
1157.03607	15295.7375
1160.65467	15761.4375
1164.27079	16504.8375
1167.88443	17443.1375
1171.49561	18551.6375
1175.10432	20086.7375
1178.71056	22055.1375
1182.31434	23752.2375
1185.91565	24348.6375
1189.51451	23917.4375
1193.11091	22906.4375
1196.70485	21803.9375
1200.29634	20941.7375
1203.88538	20397.5375
1207.47197	19982.4375
1211.05612	19529.5375
1214.63782	19116.4375
1218.21708	18724.2375
1221.79391	18491.1375
1225.36829	18336.8375
1228.94024	18075.3375
1232.50976	17681.8375
1236.07685	17370.7375
1239.6415	17238.6375
1243.20374	17263.9375
1246.76355	17484.7375
1250.32093	17871.0375
1253.8759	18292.2375
1257.42845	18856.8375
1260.97859	19406.2375
1264.52631	19966.5375
1268.07163	20514.8375
1271.61453	21102.1375
1275.15503	21645.8375
1278.69312	22220.9375
1282.22882	22795.9375
1285.76211	23559.5375
1289.29301	24533.1375
1292.82151	25717.7375
1296.34761	27207.0375
1299.87133	29005.7375
1303.39266	31009.8375
1306.9116	33160.4375
1310.42815	34972.5375
1313.94233	35877.0375
1317.45412	35548.1375
1320.96354	34515.1375
1324.47058	33375.8375
1327.97525	32470.0375
1331.47754	31518.5375
1334.97747	31009.5375
1338.47502	30479.6375
1341.97022	29877.7375
1345.46305	29246.9375
1348.95352	29023.4375
1352.44163	29462.2375
1355.92738	30698.8375
1359.41078	32847.6375
1362.89183	34914.8375
1366.37053	34577.2375
1369.84688	31333.3375
1373.32088	27240.0375
1376.79254	24619.0375
1380.26186	23836.4375
1383.72883	23980.1375
1387.19347	24192.1375
1390.65578	23906.2375
1394.11575	23631.0375
1397.57339	23786.6375
1401.0287	24185.3375
1404.48168	24537.5375
1407.93234	24503.6375
1411.38068	23963.0375
1414.82669	23067.8375
1418.27039	22031.6375
1421.71177	20928.1375
1425.15083	20065.2375
1428.58758	19600.8375
1432.02203	19762.2375
1435.45416	20352.3375
1438.88399	20986.7375
1442.31151	21550.4375
1445.73673	21996.0375
1449.15965	22336.7375
1452.58027	22326.1375
1455.9986	22185.7375
1459.41463	22118.9375
1462.82837	22318.6375
1466.23982	22743.5375
1469.64898	23162.2375
1473.05586	23478.1375
1476.46045	23578.8375
1479.86276	23533.3375
1483.26279	23368.2375
1486.66054	23298.7375
1490.05602	23398.0375
1493.44922	23611.1375
1496.84016	23988.0375
1500.22882	24623.4375
1503.61521	25540.8375
1506.99934	26765.8375
1510.38121	27902.3375
1513.76081	28454.9375
1517.13816	27868.7375
1520.51324	26450.0375
1523.88607	25080.1375
1527.25665	24276.2375
1530.62498	23939.6375
1533.99105	23760.1375
1537.35488	23411.1375
1540.71647	22935.0375
1544.07581	22286.0375
1547.4329	21646.9375
1550.78776	21111.9375
1554.14038	20779.1375
1557.49077	20590.0375
1560.83892	20570.6375
1564.18484	20685.4375
1567.52853	20874.5375
1570.86999	21197.9375
1574.20922	21648.1375
1577.54624	22035.4375
1580.88103	22135.8375
1584.2136	22183.2375
1587.54395	22854.4375
1590.87208	24161.9375
1594.19801	25833.7375
1597.52172	27228.1375
1600.84321	27565.4375
1604.16251	26068.2375
1607.47959	23651.3375
1610.79447	21208.5375
1614.10715	19141.5375
1617.41763	17680.9375
1620.7259	16792.8375
1624.03199	16501.3375
1627.33587	16641.0375
1630.63757	17324.5375
1633.93707	18583.2375
1637.23439	20605.9375
1640.52951	23450.9375
1643.82246	27065.2375
1647.11321	30145.5375
1650.40179	31146.5375
1653.68819	29202.0375
1656.97241	25133.5375
1660.25446	21129.9375
1663.53433	18225.7375
1666.81203	16353.1375
1670.08756	15169.9375
1673.36092	14295.5375
1676.63211	13692.4375
1679.90115	13284.9375
1683.16801	13053.4375
1686.43272	12889.4375
1689.69527	12925.7375
1692.95567	13181.9375
1696.2139	13692.7375
1699.46999	14193.7375
1702.72392	14189.7375
1705.97571	13679.1375
1709.22535	13026.0375
1712.47284	12604.1375
1715.71819	12380.1375
1718.96139	12204.5375
1722.20246	12088.4375
1725.44139	12006.6375
1728.67818	11904.4375
1731.91284	11853.0375
1735.14537	11792.5375
1738.37576	11760.5375
1741.60403	11758.0375
1744.83017	11784.2375
1748.05418	11848.3375
1751.27607	12000.2375
1754.49584	12258.4375
1757.71349	12623.3375
1760.92903	12794.8375
1764.14244	12760.7375
1767.35375	12701.4375
1770.56294	12688.3375
1773.77002	12518.2375
1776.97499	12143.7375
1780.17785	11814.1375
1783.37861	11566.1375
1786.57727	11451.8375
1789.77382	11341.6375
1792.96828	11321.1375
1796.16064	11241.8375
1799.3509	11209.1375
1802.53907	11150.4375
1805.72514	11103.4375
1808.90913	11058.7375
1812.09102	11039.4375
1815.27083	10994.3375
1818.44856	10979.7375
1821.6242	10938.3375
1824.79776	10966.0375
1827.96924	10926.7375
1831.13864	10915.9375
1834.30597	10917.6375
1837.47122	10895.9375
1840.6344	10876.2375
1843.7955	10875.2375
1846.95454	10877.1375
1850.11151	10854.3375
1853.26642	10861.1375
1856.41926	10859.0375
1859.57004	10858.7375
1862.71876	10869.4375
1865.86542	10830.1375
1869.01003	10821.2375
1872.15258	10831.3375
1875.29308	10821.9375
1878.43152	10808.2375
1881.56792	10788.4375
1884.70227	10794.2375
1887.83457	10769.0375
1890.96482	10741.4375
1894.09304	10727.1375
1897.21921	10764.1375
1900.34335	10759.1375
1903.46544	10754.5375
1906.58551	10745.2375
1909.70353	10756.7375
1912.81953	10702.4375
1915.93349	10697.7375
1919.04543	10674.6375
1922.15534	10628.1375
1925.26322	10625.8375
1928.36908	10611.0375
1931.47292	10602.3375
1934.57473	10543.5375
1937.67453	10545.5375
1940.77232	10490.7375
1943.86808	10484.4375
1946.96184	10439.0375
1950.05358	10417.0375
1953.14331	10388.6375
1956.23103	10366.8375
1959.31675	10307.3375
1962.40046	10300.5375
1965.48217	10277.8375
1968.56188	10246.9375
1971.63959	10217.3375
1974.7153	10194.2375
1977.78901	10138.8375
1980.86073	10093.6375
1983.93046	10080.3375
1986.99819	10048.3375
1990.06394	10023.0375
1993.1277	10011.4375
1996.18947	9970.8375
1999.24925	9953.6375
2002.30706	9900.4375
2005.36288	9908.1375
2008.41672	9887.5375
2011.46859	9841.9375
2014.51848	9818.4375
2017.56639	9787.4375
2020.61233	9763.9375
2023.6563	9753.9375
2026.6983	9723.4375
2029.73833	9680.2375
2032.7764	9677.6375
2035.8125	9669.4375
2038.84664	9636.9375
2041.87881	9646.6375
2044.90903	9628.8375
2047.93729	9613.9375
2050.96359	9617.1375
2053.98794	9609.8375
2057.01034	9597.0375
2060.03078	9575.8375
2063.04927	9559.3375
2066.06582	9562.7375
2069.08042	9565.6375
2072.09307	9539.1375
2075.10378	9528.9375
2078.11255	9502.2375
2081.11938	9531.3375
2084.12426	9505.4375
2087.12722	9520.7375
2090.12824	9494.7375
2093.12732	9514.9375
2096.12447	9506.8375
2099.11969	9528.4375
2102.11299	9533.0375
2105.10435	9514.2375
2108.09379	9535.0375
2111.08131	9522.9375
2114.0669	9564.3375
2117.05057	9564.4375
2120.03233	9539.3375
2123.01216	9562.3375
2125.99008	9558.8375
2128.96609	9570.8375
2131.94018	9591.1375
2134.91236	9558.3375
2137.88263	9605.1375
2140.851	9606.6375
2143.81746	9609.1375
2146.78201	9622.7375
2149.74466	9582.1375
2152.7054	9569.0375
2155.66425	9574.8375
2158.6212	9567.1375
2161.57625	9562.9375
2164.52941	9552.6375
2167.48067	9576.4375
2170.43004	9580.3375
2173.37752	9551.3375
2176.32311	9589.1375
2179.26681	9558.1375
2182.20863	9577.3375
2185.14856	9588.9375
2188.08661	9580.8375
2191.02278	9597.3375
2193.95707	9591.9375
2196.88948	9573.3375
2199.82001	9564.4375
2202.74867	9558.2375
2205.67545	9545.5375
2208.60037	9530.6375
2211.52341	9524.9375
2214.44458	9541.7375
2217.36388	9499.7375
2220.28132	9484.1375
2223.1969	9463.3375
2226.11061	9474.7375
2229.02246	9440.5375
2231.93245	9442.2375
2234.84058	9392.8375
2237.74686	9404.7375
2240.65128	9399.7375
2243.55385	9390.2375
2246.45456	9366.3375
2249.35343	9360.3375
2252.25044	9337.9375
2255.14561	9315.1375
2258.03893	9391.2375
2260.93041	9487.4375
2263.82004	9362.6375
2266.70783	9305.9375
2269.59378	9271.8375
2272.4779	9214.1375
2275.36017	9173.0375
2278.24061	9171.7375
2281.11922	9142.7375
2283.996	9135.7375
2286.87094	9129.6375
2289.74405	9142.9375
2292.61534	9127.6375
2295.4848	9125.2375
2298.35243	9098.4375
2301.21824	9131.3375
2304.08223	9145.5375
2306.94439	9125.4375
2309.80474	9142.1375
2312.66327	9179.8375
2315.51999	9165.0375
2318.37489	9134.9375
2321.22797	9119.2375
2324.07925	9125.4375
2326.92871	9109.3375
2329.77637	9104.2375
2332.62222	9093.8375
2335.46626	9103.8375
2338.3085	9106.1375
2341.14893	9122.2375
2343.98756	9106.8375
2346.8244	9111.8375
2349.65943	9098.1375
2352.49267	9086.3375
2355.32411	9080.2375
2358.15376	9064.0375
2360.98161	9055.2375
2363.80768	9047.4375
2366.63195	9042.9375
2369.45444	9043.8375
2372.27514	9023.4375
2375.09405	8997.8375
2377.91118	9013.6375
2380.72652	8973.9375
2383.54009	8961.4375
2386.35187	8967.2375
2389.16188	8918.4375
2391.97011	8891.9375
2394.77657	8902.9375
2397.58125	8881.3375
2400.38416	8868.2375
2403.18529	8868.4375
2405.98466	8863.2375
2408.78226	8841.9375
2411.57809	8834.9375
2414.37216	8823.9375
2417.16446	8832.5375
2419.955	8812.7375
2422.74378	8806.1375
2425.5308	8768.6375
2428.31606	8770.6375
2431.09956	8777.9375
2433.88131	8772.1375
2436.6613	8768.5375
2439.43954	8757.7375
2442.21603	8758.4375
2444.99077	8743.4375
2447.76377	8751.7375
2450.53501	8731.8375
2453.30451	8740.2375
2456.07226	8726.3375
2458.83827	8751.2375
2461.60254	8731.4375
2464.36507	8741.4375
2467.12586	8718.7375
2469.88492	8745.3375
2472.64224	8753.4375
2475.39782	8856.6375
2478.15167	8906.9375
2480.90379	8823.9375
2483.65417	8798.4375
2486.40283	8793.2375
2489.14976	8795.1375
2491.89497	8804.0375
2494.63845	8912.8375
2497.3802	8941.7375
2500.12024	8867.3375
2502.85855	8808.5375
2505.59514	8777.3375
2508.33002	8749.8375
2511.06318	8755.6375
2513.79462	8727.2375
2516.52435	8708.0375
2519.25237	8710.4375
2521.97867	8703.3375
2524.70327	8707.0375
2527.42616	8691.6375
2530.14734	8709.7375
2532.86681	8697.2375
2535.58458	8704.8375
2538.30065	8671.8375
2541.01501	8678.9375
2543.72768	8665.5375
2546.43864	8657.9375
2549.14791	8640.2375
2551.85548	8651.0375
2554.56136	8648.7375
2557.26554	8608.5375
2559.96803	8604.4375
2562.66883	8640.5375
2565.36794	8601.2375
2568.06536	8588.9375
2570.7611	8603.2375
2573.45514	8592.7375
2576.14751	8608.4375
2578.83819	8592.4375
2581.52719	8558.2375
2584.21451	8546.8375
2586.90015	8565.5375
2589.58411	8562.1375
2592.2664	8571.9375
2594.94701	8557.2375
2597.62594	8550.0375
2600.30321	8541.3375
2602.9788	8531.5375
2605.65273	8535.0375
2608.32498	8551.1375
2610.99557	8526.0375
2613.66449	8544.4375
2616.33175	8516.2375
2618.99734	8549.4375
2621.66128	8512.8375
2624.32355	8528.3375
2626.98416	8523.9375
2629.64311	8502.1375
2632.30041	8510.3375
2634.95605	8487.7375
2637.61004	8504.0375
2640.26238	8466.3375
2642.91306	8454.7375
2645.56209	8439.6375
2648.20948	8480.0375
2650.85521	8470.2375
2653.4993	8461.0375
2656.14175	8468.5375
2658.78255	8476.2375
2661.42171	8464.0375
2664.05923	8473.6375
2666.6951	8476.5375
2669.32934	8493.0375
2671.96194	8494.9375
2674.59291	8504.2375
2677.22224	8519.8375
2679.84993	8529.1375
2682.476	8475.2375
2685.10043	8503.3375
2687.72324	8495.0375
2690.34441	8451.7375
2692.96396	8467.2375
2695.58188	8479.2375
2698.19818	8485.9375
2700.81285	8505.9375
2703.4259	8737.3375
2706.03733	9248.1375
2708.64714	8938.1375
2711.25533	8728.0375
2713.86191	8662.2375
2716.46687	8630.5375
2719.07021	8589.9375
2721.67194	8559.2375
2724.27206	8547.0375
2726.87057	8557.6375
2729.46747	8551.8375
2732.06276	8547.9375
2734.65644	8580.8375
2737.24852	8532.2375
2739.83899	8513.3375
2742.42786	8553.2375
2745.01513	8529.0375
2747.60079	8513.0375
2750.18486	8504.5375
2752.76733	8513.0375
2755.3482	8496.9375
2757.92747	8515.4375
2760.50515	8518.3375
2763.08123	8523.2375
2765.65573	8516.6375
2768.22863	8504.4375
2770.79994	8480.5375
2773.36967	8509.6375
2775.9378	8502.0375
2778.50435	8505.1375
2781.06932	8495.7375
2783.6327	8495.4375
2786.1945	8517.8375
2788.75471	8510.5375
2791.31335	8490.9375
2793.87041	8479.1375
2796.42589	8438.8375
2798.97979	8456.3375
2801.53212	8453.0375
2804.08288	8415.0375
2806.63206	8391.4375
2809.17967	8402.4375
2811.72571	8368.1375
2814.27018	8368.1375
2816.81308	8360.8375
2819.35442	8327.8375
2821.89419	8328.0375
2824.43239	8328.1375
2826.96904	8325.0375
2829.50412	8349.9375
2832.03763	8327.1375
2834.56959	8310.6375
2837.1	8307.1375
2839.62884	8312.1375
2842.15613	8314.5375
2844.68186	8334.0375
2847.20604	8350.5375
2849.72867	8352.6375
2852.24974	8355.2375
2854.76927	8462.1375
2857.28724	8590.4375
2859.80367	8466.3375
2862.31855	8397.3375
2864.83189	8364.9375
2867.34368	8350.4375
2869.85393	8343.4375
2872.36264	8306.1375
2874.8698	8289.6375
2877.37543	8250.5375
2879.87952	8266.0375
2882.38207	8279.8375
2884.88308	8269.9375
2887.38256	8278.9375
2889.88051	8280.9375
2892.37692	8273.1375
2894.8718	8284.9375
2897.36515	8300.8375
2899.85698	8314.1375
2902.34727	8318.4375
2904.83604	8319.6375
2907.32328	8347.6375
2909.809	8337.1375
2912.29319	8340.3375
2914.77587	8344.4375
2917.25702	8349.8375
2919.73665	8338.2375
2922.21476	8327.1375
2924.69136	8340.2375
2927.16644	8317.7375
2929.64	8300.4375
2932.11205	8284.2375
2934.58258	8259.4375
2937.05161	8250.7375
2939.51912	8284.1375
2941.98513	8257.6375
2944.44962	8236.9375
2946.91261	8217.0375
2949.37409	8217.3375
2951.83407	8224.9375
2954.29254	8198.0375
2956.74951	8214.6375
2959.20498	8175.7375
2961.65895	8180.4375
2964.11142	8185.5375
2966.56239	8154.6375
2969.01186	8168.5375
2971.45984	8152.4375
2973.90632	8153.7375
2976.35131	8119.3375
2978.7948	8107.2375
2981.23681	8099.9375
2983.67732	8079.3375
2986.11635	8053.4375
2988.55388	8068.7375
2990.98993	8023.1375
2993.4245	8002.5375
2995.85758	7977.5375
2998.28917	7953.8375
3000.71928	7974.6375
3003.14791	7955.7375
3005.57506	7942.8375
3008.00073	7915.5375
3010.42493	7816.9375
3012.84764	7892.7375
3015.26888	7904.5375
3017.68865	7893.1375
3020.10694	7853.1375
3022.52376	7851.8375
3024.9391	7846.5375
3027.35298	7827.8375
3029.76539	7835.2375
3032.17632	7813.3375
3034.5858	7796.3375
3036.9938	7795.4375
3039.40034	7802.1375
3041.80542	7782.2375
3044.20903	7784.7375
3046.61118	7770.6375
3049.01187	7762.0375
3051.4111	7773.3375
3053.80888	7730.1375
3056.20519	7725.2375
3058.60005	7712.0375
3060.99345	7707.1375
3063.3854	7685.9375
3065.7759	7637.8375
3068.16494	7633.3375
3070.55254	7611.7375
3072.93868	7598.7375
3075.32338	7590.6375
3077.70662	7565.8375
3080.08842	7541.6375
3082.46878	7527.9375
3084.84769	7538.5375
3087.22515	7520.4375
3089.60118	7522.1375
3091.97576	7517.1375
3094.3489	7509.0375
3096.72061	7508.0375
3099.09087	7509.8375
3101.4597	7481.8375
3103.82709	7487.5375
3106.19305	7473.0375
3108.55757	7479.3375
3110.92066	7452.6375
3113.28232	7438.1375
3115.64255	7427.6375
3118.00134	7409.0375
3120.35871	7407.7375
3122.71466	7373.7375
3125.06917	7364.4375
3127.42226	7324.8375
3129.77393	7351.2375
3132.12417	7329.9375
3134.47299	7313.6375
3136.82039	7342.8375
3139.16636	7335.1375
3141.51092	7328.2375
3143.85406	7308.0375
3146.19579	7312.0375
3148.53609	7336.2375
3150.87499	7336.2375
3153.21246	7325.2375
3155.54853	7331.7375
3157.88318	7324.4375
3160.21642	7344.0375
3162.54826	7323.2375
3164.87868	7332.5375
3167.2077	7332.7375
3169.5353	7342.6375
3171.86151	7338.3375
3174.18631	7324.1375
3176.5097	7311.5375
3178.83169	7317.0375
3181.15228	7300.4375
3183.47147	7302.8375
3185.78926	7294.6375
3188.10565	7262.9375
3190.42065	7248.8375
3192.73424	7238.1375
3195.04645	7249.5375
3197.35725	7228.5375
3199.66667	7216.3375
3201.97469	7223.7375
3204.28132	7234.5375
3206.58656	7235.9375
3208.8904	7230.8375
3211.19287	7256.1375
3213.49394	7240.6375
3215.79363	7260.1375
3218.09193	7272.1375
3220.38884	7349.2375
3222.68438	7466.5375
3224.97853	7331.4375
3227.2713	7309.1375
3229.56269	7272.9375
3231.8527	7256.6375
3234.14133	7235.5375
3236.42858	7229.0375
3238.71446	7219.3375
3240.99896	7164.9375
3243.28209	7189.1375
3245.56384	7168.4375
3247.84423	7157.8375
3250.12324	7134.5375
3252.40088	7109.4375
3254.67715	7131.5375
3256.95205	7118.0375
3259.22558	7135.1375
3261.49775	7117.0375
3263.76855	7121.8375
3266.03799	7068.0375
3268.30606	7067.3375
3270.57277	7059.4375
3272.83812	7044.7375
3275.10211	7046.7375
3277.36474	7032.6375
3279.62601	7030.3375
3281.88593	7021.1375
3284.14448	7047.6375
3286.40168	7036.9375
3288.65753	7053.0375
3290.91202	7024.6375
3293.16516	7026.6375
3295.41695	6982.1375
3297.66738	6953.7375
3299.91647	6931.8375
3302.16421	6869.4375
3304.4106	6848.4375
3306.65564	6809.6375
3308.89933	6753.1375
3311.14169	6754.4375
3313.38269	6759.6375
3315.62236	6674.1375
3317.86068	6600.4375
3320.09766	6535.7375
3322.3333	6509.7375
3324.5676	6542.0375
3326.80056	6563.8375
3329.03219	6473.7375
3331.26248	1.0375
3333.49143	-0.9625
3335.71905	-0.7625
