Data from AgNPs_FTO_APTES_UA_5uM_CRN_5uM_R6G_10uM_NaF_0.1M_Addition_RamanShift__3__11-48-16-670.txt Node

Date: Mon Feb 07 11:48:16 GMT 2022
User: TCL
Spectrometer: QEP01345
Trigger mode: 4
Integration Time (sec): 7.000000E0
Scans to average: 10
Electric dark correction enabled: true
Nonlinearity correction enabled: false
Boxcar width: 0
XAxis mode: Raman Shifts
Number of Pixels in Spectrum: 1044
>>>>>Begin Spectral Data<<<<<
46.04893	-1.5625
50.45542	-2.0625
54.85868	-0.9625
59.25871	1.4375
63.6555	107.3375
68.04907	110.3375
72.43941	118.3375
76.82654	117.8375
81.21044	122.6375
85.59113	129.8375
89.96862	134.3375
94.34289	131.4375
98.71396	139.1375
103.08183	144.9375
107.4465	151.7375
111.80798	155.1375
116.16626	157.5375
120.52136	165.1375
124.87327	174.4375
129.222	184.8375
133.56755	201.2375
137.90993	215.9375
142.24913	237.2375
146.58517	267.1375
150.91804	318.4375
155.24774	383.5375
159.57429	476.3375
163.89768	617.9375
168.21792	832.5375
172.53501	1144.3375
176.84895	1579.6375
181.15975	2238.7375
185.46741	3120.9375
189.77193	4316.6375
194.07331	5774.9375
198.37157	7417.3375
202.6667	9130.5375
206.9587	10844.1375
211.24758	12527.3375
215.53334	14260.4375
219.81599	16085.2375
224.09553	18113.3375
228.37195	20359.4375
232.64527	22748.8375
236.91549	25260.9375
241.18261	27740.2375
245.44663	30053.1375
249.70755	32052.8375
253.96539	33824.4375
258.22014	35368.8375
262.4718	36585.6375
266.72039	37483.1375
270.96589	38001.8375
275.20832	38036.1375
279.44768	37848.0375
283.68397	37548.9375
287.91719	37389.0375
292.14735	37311.6375
296.37445	37367.2375
300.59849	37514.9375
304.81948	37648.1375
309.03742	37656.5375
313.25231	37321.6375
317.46415	36742.8375
321.67296	35800.2375
325.87872	34981.5375
330.08145	34536.9375
334.28114	34359.6375
338.47781	34515.1375
342.67145	34879.4375
346.86207	35431.5375
351.04966	36067.7375
355.23424	36782.6375
359.4158	37429.4375
363.59435	37926.1375
367.76989	38254.8375
371.94243	38429.9375
376.11196	38553.9375
380.27849	38670.5375
384.44203	38808.5375
388.60257	39169.4375
392.76012	39637.2375
396.91468	40252.9375
401.06626	40942.8375
405.21485	41340.8375
409.36047	41257.2375
413.50311	40877.5375
417.64277	40823.0375
421.77947	41208.3375
425.9132	41549.1375
430.04396	41744.2375
434.17176	41872.8375
438.2966	41932.1375
442.41849	42533.0375
446.53742	43739.1375
450.6534	45212.5375
454.76644	46254.1375
458.87653	46610.2375
462.98368	46165.9375
467.08789	45360.8375
471.18916	44408.0375
475.2875	43560.1375
479.38291	43142.8375
483.4754	42906.6375
487.56496	42495.9375
491.6516	41814.2375
495.73531	41085.3375
499.81612	40712.8375
503.89401	40910.0375
507.96899	41177.1375
512.04106	41093.5375
516.11023	40552.3375
520.1765	39749.0375
524.23987	39006.6375
528.30034	38396.6375
532.35792	37930.5375
536.41261	37397.3375
540.46441	36877.1375
544.51333	36927.6375
548.55936	37414.8375
552.60252	38507.2375
556.64279	39760.8375
560.6802	40792.2375
564.71473	41511.9375
568.7464	42567.4375
572.7752	44311.2375
576.80114	46468.5375
580.82422	48712.4375
584.84444	51338.5375
588.86181	54378.6375
592.87633	56433.4375
596.888	55124.5375
600.89682	51434.8375
604.9028	49741.6375
608.90594	51839.3375
612.90624	54311.4375
616.90371	50365.9375
620.89834	42319.1375
624.89015	38792.7375
628.87913	38491.9375
632.86528	38638.2375
636.84862	38371.1375
640.82913	37389.5375
644.80683	36371.7375
648.78172	35756.7375
652.75379	35780.0375
656.72306	36275.4375
660.68952	36736.7375
664.65319	36419.2375
668.61405	35721.3375
672.57211	35592.7375
676.52738	35799.0375
680.47986	35732.3375
684.42955	35291.4375
688.37646	35113.0375
692.32058	35493.7375
696.26192	36205.2375
700.20048	36994.1375
704.13626	37391.6375
708.06928	37448.1375
711.99952	37228.4375
715.927	37301.2375
719.85171	37504.2375
723.77365	37390.3375
727.69284	36560.8375
731.60928	35824.8375
735.52295	35513.4375
739.43388	35493.5375
743.34206	35633.0375
747.24749	35937.0375
751.15017	36488.6375
755.05012	37304.1375
758.94733	38638.0375
762.8418	40734.0375
766.73354	43700.2375
770.62254	46125.1375
774.50882	45974.7375
778.39237	43425.1375
782.27321	40291.3375
786.15132	37889.0375
790.02671	36406.5375
793.89938	35705.4375
797.76935	35451.3375
801.6366	35410.1375
805.50115	35442.0375
809.36299	35218.9375
813.22213	34871.8375
817.07857	34622.3375
820.93231	34311.9375
824.78336	33981.6375
828.63172	33774.7375
832.47738	33640.2375
836.32036	33675.2375
840.16066	33826.1375
843.99827	33947.0375
847.8332	33902.9375
851.66546	33765.8375
855.49504	33799.9375
859.32195	33751.5375
863.1462	33619.0375
866.96777	33518.8375
870.78668	33419.2375
874.60293	33382.0375
878.41652	33385.5375
882.22745	33547.2375
886.03573	33658.6375
889.84136	33660.5375
893.64433	33458.0375
897.44466	33301.5375
901.24235	33158.3375
905.0374	33027.2375
908.8298	32958.9375
912.61957	33119.8375
916.40671	33584.7375
920.19121	34326.8375
923.97308	34960.0375
927.75233	34967.9375
931.52895	34460.8375
935.30295	33680.5375
939.07433	32889.0375
942.84309	32340.2375
946.60924	32132.8375
950.37278	32082.4375
954.13371	32080.9375
957.89203	32025.9375
961.64774	32012.3375
965.40086	32068.0375
969.15137	32007.4375
972.89929	31844.9375
976.64461	31646.5375
980.38733	31659.1375
984.12747	31711.2375
987.86502	31980.5375
991.59999	32375.2375
995.33237	32954.0375
999.06217	33881.4375
1002.78939	35113.6375
1006.51404	36193.5375
1010.23611	36978.0375
1013.95561	37467.9375
1017.67255	37433.3375
1021.38692	36737.3375
1025.09872	35906.8375
1028.80796	35666.7375
1032.51465	36430.4375
1036.21877	37283.1375
1039.92035	37634.5375
1043.61937	37351.6375
1047.31584	36649.1375
1051.00976	35928.5375
1054.70114	35567.4375
1058.38998	35560.2375
1062.07627	35863.9375
1065.76003	36341.7375
1069.44126	36893.9375
1073.11995	37632.8375
1076.79611	38235.2375
1080.46974	38603.8375
1084.14085	38998.3375
1087.80943	39571.6375
1091.47549	40127.3375
1095.13903	40265.2375
1098.80005	39620.3375
1102.45857	38445.5375
1106.11456	37478.1375
1109.76805	36913.5375
1113.41903	36850.3375
1117.06751	36903.9375
1120.71348	37199.7375
1124.35696	37540.9375
1127.99793	37963.3375
1131.63641	38368.1375
1135.2724	38491.4375
1138.90589	38557.9375
1142.5369	38910.1375
1146.16542	39438.8375
1149.79145	40108.5375
1153.415	40699.2375
1157.03607	41696.8375
1160.65467	43568.9375
1164.27079	46577.8375
1167.88443	49980.0375
1171.49561	53125.0375
1175.10432	56731.9375
1178.71056	61438.5375
1182.31434	65895.2375
1185.91565	68024.6375
1189.51451	67347.6375
1193.11091	65224.5375
1196.70485	62663.4375
1200.29634	60264.9375
1203.88538	59046.2375
1207.47197	58929.5375
1211.05612	58789.1375
1214.63782	57718.1375
1218.21708	55571.2375
1221.79391	53433.7375
1225.36829	51823.0375
1228.94024	50557.8375
1232.50976	49371.4375
1236.07685	48253.5375
1239.6415	47616.7375
1243.20374	47561.4375
1246.76355	48056.9375
1250.32093	49164.0375
1253.8759	50600.9375
1257.42845	52275.3375
1260.97859	54222.9375
1264.52631	56239.2375
1268.07163	58394.6375
1271.61453	60644.3375
1275.15503	63000.8375
1278.69312	65545.3375
1282.22882	68178.0375
1285.76211	71199.1375
1289.29301	74723.1375
1292.82151	79081.2375
1296.34761	84545.1375
1299.87133	91112.4375
1303.39266	97800.3375
1306.9116	103489.6375
1310.42815	106851.6375
1313.94233	107772.3375
1317.45412	106207.1375
1320.96354	103943.8375
1324.47058	102310.5375
1327.97525	101753.7375
1331.47754	101522.7375
1334.97747	100757.8375
1338.47502	99219.1375
1341.97022	96641.4375
1345.46305	93587.1375
1348.95352	90878.9375
1352.44163	89810.3375
1355.92738	91393.6375
1359.41078	95186.8375
1362.89183	98121.2375
1366.37053	97015.0375
1369.84688	89741.3375
1373.32088	79477.1375
1376.79254	72099.7375
1380.26186	69826.6375
1383.72883	70659.1375
1387.19347	71477.6375
1390.65578	70913.8375
1394.11575	70861.4375
1397.57339	72207.6375
1401.0287	74455.3375
1404.48168	76333.1375
1407.93234	76684.9375
1411.38068	74790.0375
1414.82669	71370.9375
1418.27039	67290.4375
1421.71177	63239.4375
1425.15083	60108.1375
1428.58758	58835.4375
1432.02203	59826.2375
1435.45416	62358.1375
1438.88399	65346.9375
1442.31151	67417.8375
1445.73673	68575.3375
1449.15965	69067.0375
1452.58027	69035.8375
1455.9986	68605.8375
1459.41463	68699.5375
1462.82837	69859.2375
1466.23982	71491.3375
1469.64898	72987.6375
1473.05586	73728.8375
1476.46045	73654.7375
1479.86276	72696.6375
1483.26279	71388.5375
1486.66054	70500.3375
1490.05602	70402.3375
1493.44922	70637.1375
1496.84016	70800.4375
1500.22882	71128.0375
1503.61521	71835.8375
1506.99934	72941.4375
1510.38121	73854.2375
1513.76081	73977.2375
1517.13816	73050.4375
1520.51324	72098.1375
1523.88607	71825.6375
1527.25665	72532.1375
1530.62498	73382.2375
1533.99105	73578.8375
1537.35488	72668.6375
1540.71647	70923.9375
1544.07581	68294.5375
1547.4329	65626.6375
1550.78776	63340.5375
1554.14038	61626.4375
1557.49077	60468.4375
1560.83892	59603.6375
1564.18484	59231.0375
1567.52853	59086.4375
1570.86999	59659.1375
1574.20922	61107.5375
1577.54624	62686.6375
1580.88103	64017.2375
1584.2136	66062.1375
1587.54395	70054.6375
1590.87208	75752.7375
1594.19801	82218.6375
1597.52172	87449.8375
1600.84321	87884.3375
1604.16251	81915.3375
1607.47959	72747.8375
1610.79447	63775.0375
1614.10715	56332.8375
1617.41763	50824.1375
1620.7259	47337.7375
1624.03199	45807.2375
1627.33587	46128.9375
1630.63757	48409.2375
1633.93707	53009.7375
1637.23439	60578.2375
1640.52951	71476.6375
1643.82246	84055.1375
1647.11321	93194.4375
1650.40179	93370.0375
1653.68819	83465.0375
1656.97241	69086.7375
1660.25446	56209.7375
1663.53433	47011.8375
1666.81203	41252.4375
1670.08756	37679.2375
1673.36092	35474.6375
1676.63211	34096.7375
1679.90115	33059.0375
1683.16801	32344.0375
1686.43272	31771.8375
1689.69527	31351.5375
1692.95567	31039.0375
1696.2139	30761.6375
1699.46999	30630.1375
1702.72392	30489.2375
1705.97571	30333.0375
1709.22535	30250.5375
1712.47284	30160.8375
1715.71819	30079.3375
1718.96139	30002.9375
1722.20246	29832.2375
1725.44139	29674.8375
1728.67818	29445.7375
1731.91284	29203.4375
1735.14537	28953.0375
1738.37576	28814.7375
1741.60403	28702.9375
1744.83017	28560.1375
1748.05418	28440.6375
1751.27607	28350.5375
1754.49584	28280.3375
1757.71349	28281.8375
1760.92903	28247.5375
1764.14244	28150.2375
1767.35375	28158.9375
1770.56294	28085.0375
1773.77002	28007.3375
1776.97499	27920.2375
1780.17785	27858.6375
1783.37861	27791.2375
1786.57727	27748.1375
1789.77382	27683.5375
1792.96828	27670.6375
1796.16064	27579.3375
1799.3509	27551.8375
1802.53907	27435.7375
1805.72514	27326.7375
1808.90913	27268.1375
1812.09102	27199.9375
1815.27083	27172.5375
1818.44856	27141.6375
1821.6242	27100.1375
1824.79776	27095.8375
1827.96924	27070.8375
1831.13864	27054.7375
1834.30597	27054.7375
1837.47122	27065.5375
1840.6344	27021.8375
1843.7955	27126.2375
1846.95454	27096.2375
1850.11151	27109.6375
1853.26642	27068.1375
1856.41926	27024.6375
1859.57004	27051.4375
1862.71876	27045.3375
1865.86542	26987.5375
1869.01003	26920.6375
1872.15258	26811.4375
1875.29308	26818.4375
1878.43152	26805.9375
1881.56792	26791.2375
1884.70227	26763.8375
1887.83457	26744.3375
1890.96482	26681.9375
1894.09304	26666.1375
1897.21921	26607.3375
1900.34335	26542.6375
1903.46544	26507.7375
1906.58551	26507.1375
1909.70353	26438.9375
1912.81953	26381.0375
1915.93349	26267.0375
1919.04543	26271.8375
1922.15534	26203.6375
1925.26322	26106.7375
1928.36908	26042.9375
1931.47292	26006.0375
1934.57473	25830.4375
1937.67453	25770.5375
1940.77232	25700.4375
1943.86808	25584.6375
1946.96184	25539.3375
1950.05358	25457.6375
1953.14331	25482.5375
1956.23103	25373.1375
1959.31675	25248.1375
1962.40046	25180.4375
1965.48217	25079.5375
1968.56188	25022.3375
1971.63959	24967.9375
1974.7153	24897.9375
1977.78901	24748.4375
1980.86073	24705.7375
1983.93046	24602.5375
1986.99819	24581.5375
1990.06394	24513.3375
1993.1277	24438.7375
1996.18947	24386.8375
1999.24925	24288.6375
2002.30706	24208.6375
2005.36288	24136.8375
2008.41672	24075.0375
2011.46859	23999.5375
2014.51848	23936.4375
2017.56639	23871.5375
2020.61233	23831.7375
2023.6563	23806.7375
2026.6983	23739.1375
2029.73833	23686.2375
2032.7764	23670.4375
2035.8125	23619.5375
2038.84664	23576.9375
2041.87881	23564.5375
2044.90903	23509.9375
2047.93729	23499.7375
2050.96359	23434.0375
2053.98794	23387.9375
2057.01034	23385.8375
2060.03078	23378.7375
2063.04927	23365.1375
2066.06582	23397.7375
2069.08042	23339.8375
2072.09307	23312.9375
2075.10378	23264.6375
2078.11255	23288.4375
2081.11938	23235.4375
2084.12426	23201.6375
2087.12722	23224.1375
2090.12824	23176.4375
2093.12732	23206.9375
2096.12447	23222.2375
2099.11969	23187.3375
2102.11299	23199.8375
2105.10435	23211.7375
2108.09379	23203.6375
2111.08131	23184.3375
2114.0669	23203.2375
2117.05057	23244.2375
2120.03233	23235.0375
2123.01216	23233.8375
2125.99008	23248.3375
2128.96609	23266.1375
2131.94018	23254.5375
2134.91236	23247.7375
2137.88263	23256.4375
2140.851	23245.2375
2143.81746	23306.4375
2146.78201	23265.0375
2149.74466	23227.2375
2152.7054	23216.3375
2155.66425	23240.9375
2158.6212	23213.9375
2161.57625	23160.7375
2164.52941	23194.0375
2167.48067	23191.6375
2170.43004	23230.5375
2173.37752	23224.4375
2176.32311	23205.1375
2179.26681	23196.8375
2182.20863	23195.2375
2185.14856	23227.4375
2188.08661	23243.7375
2191.02278	23244.8375
2193.95707	23252.2375
2196.88948	23224.2375
2199.82001	23137.2375
2202.74867	23147.7375
2205.67545	23126.2375
2208.60037	23076.5375
2211.52341	23047.9375
2214.44458	23034.0375
2217.36388	22988.8375
2220.28132	22954.2375
2223.1969	22891.4375
2226.11061	22865.2375
2229.02246	22865.4375
2231.93245	22855.7375
2234.84058	22815.3375
2237.74686	22797.6375
2240.65128	22739.7375
2243.55385	22699.3375
2246.45456	22610.7375
2249.35343	22586.0375
2252.25044	22565.0375
2255.14561	22483.8375
2258.03893	22448.4375
2260.93041	22380.4375
2263.82004	22312.7375
2266.70783	22248.7375
2269.59378	22141.1375
2272.4779	22108.9375
2275.36017	22035.2375
2278.24061	22046.1375
2281.11922	21988.8375
2283.996	21954.5375
2286.87094	21965.0375
2289.74405	21959.0375
2292.61534	21968.0375
2295.4848	21935.9375
2298.35243	21931.8375
2301.21824	21966.3375
2304.08223	21979.6375
2306.94439	21986.4375
2309.80474	21967.1375
2312.66327	21993.1375
2315.51999	21960.5375
2318.37489	21923.4375
2321.22797	21899.7375
2324.07925	21898.1375
2326.92871	21890.5375
2329.77637	21892.2375
2332.62222	21810.3375
2335.46626	21851.6375
2338.3085	21845.8375
2341.14893	21855.4375
2343.98756	21892.9375
2346.8244	21919.9375
2349.65943	21879.7375
2352.49267	21873.0375
2355.32411	21879.7375
2358.15376	21840.6375
2360.98161	21839.5375
2363.80768	21784.9375
2366.63195	21816.4375
2369.45444	21783.3375
2372.27514	21738.1375
2375.09405	21716.8375
2377.91118	21643.5375
2380.72652	21592.4375
2383.54009	21552.5375
2386.35187	21535.9375
2389.16188	21466.8375
2391.97011	21444.7375
2394.77657	21437.6375
2397.58125	21401.9375
2400.38416	21372.3375
2403.18529	21354.2375
2405.98466	21318.9375
2408.78226	21280.7375
2411.57809	21249.1375
2414.37216	21237.0375
2417.16446	21233.5375
2419.955	21237.4375
2422.74378	21201.9375
2425.5308	21173.7375
2428.31606	21184.0375
2431.09956	21142.9375
2433.88131	21121.0375
2436.6613	21168.6375
2439.43954	21171.8375
2442.21603	21138.0375
2444.99077	21101.6375
2447.76377	21113.3375
2450.53501	21150.1375
2453.30451	21089.7375
2456.07226	21094.2375
2458.83827	21084.6375
2461.60254	21137.9375
2464.36507	21104.4375
2467.12586	21086.1375
2469.88492	21116.7375
2472.64224	21127.5375
2475.39782	21187.8375
2478.15167	21223.5375
2480.90379	21211.2375
2483.65417	21250.2375
2486.40283	21238.5375
2489.14976	21244.2375
2491.89497	21241.8375
2494.63845	21257.8375
2497.3802	21271.7375
2500.12024	21296.6375
2502.85855	21277.5375
2505.59514	21271.8375
2508.33002	21283.0375
2511.06318	21246.3375
2513.79462	21247.3375
2516.52435	21219.9375
2519.25237	21263.2375
2521.97867	21245.7375
2524.70327	21238.5375
2527.42616	21215.8375
2530.14734	21248.1375
2532.86681	21224.4375
2535.58458	21268.1375
2538.30065	21233.4375
2541.01501	21233.1375
2543.72768	21225.6375
2546.43864	21191.8375
2549.14791	21183.3375
2551.85548	21201.8375
2554.56136	21167.7375
2557.26554	21146.0375
2559.96803	21141.3375
2562.66883	21146.3375
2565.36794	21129.0375
2568.06536	21115.8375
2570.7611	21085.8375
2573.45514	21121.7375
2576.14751	21105.2375
2578.83819	21103.0375
2581.52719	21133.3375
2584.21451	21102.9375
2586.90015	21119.1375
2589.58411	21134.5375
2592.2664	21136.8375
2594.94701	21096.5375
2597.62594	21097.3375
2600.30321	21097.6375
2602.9788	21102.1375
2605.65273	21088.0375
2608.32498	21126.0375
2610.99557	21168.7375
2613.66449	21126.7375
2616.33175	21167.0375
2618.99734	21153.5375
2621.66128	21161.5375
2624.32355	21099.4375
2626.98416	21091.6375
2629.64311	21112.0375
2632.30041	21117.4375
2634.95605	21106.5375
2637.61004	21080.5375
2640.26238	21077.2375
2642.91306	21081.5375
2645.56209	21048.5375
2648.20948	21068.5375
2650.85521	21121.5375
2653.4993	21191.5375
2656.14175	21152.9375
2658.78255	21192.9375
2661.42171	21195.6375
2664.05923	21230.5375
2666.6951	21212.1375
2669.32934	21277.7375
2671.96194	21294.0375
2674.59291	21283.6375
2677.22224	21276.0375
2679.84993	21328.7375
2682.476	21316.6375
2685.10043	21247.7375
2687.72324	21201.5375
2690.34441	21220.0375
2692.96396	21209.7375
2695.58188	21196.4375
2698.19818	21178.3375
2700.81285	21200.7375
2703.4259	21195.8375
2706.03733	21241.2375
2708.64714	21246.6375
2711.25533	21270.6375
2713.86191	21253.3375
2716.46687	21303.1375
2719.07021	21326.9375
2721.67194	21355.3375
2724.27206	21389.2375
2726.87057	21416.2375
2729.46747	21442.4375
2732.06276	21487.7375
2734.65644	21511.0375
2737.24852	21500.2375
2739.83899	21466.5375
2742.42786	21493.7375
2745.01513	21466.0375
2747.60079	21455.0375
2750.18486	21451.7375
2752.76733	21426.2375
2755.3482	21395.0375
2757.92747	21425.3375
2760.50515	21416.2375
2763.08123	21465.7375
2765.65573	21454.3375
2768.22863	21427.1375
2770.79994	21418.4375
2773.36967	21447.1375
2775.9378	21458.4375
2778.50435	21450.2375
2781.06932	21442.3375
2783.6327	21469.2375
2786.1945	21488.5375
2788.75471	21457.2375
2791.31335	21442.9375
2793.87041	21445.8375
2796.42589	21375.3375
2798.97979	21390.1375
2801.53212	21377.9375
2804.08288	21327.3375
2806.63206	21250.4375
2809.17967	21189.2375
2811.72571	21161.3375
2814.27018	21155.3375
2816.81308	21095.9375
2819.35442	21096.2375
2821.89419	21028.0375
2824.43239	21085.9375
2826.96904	21061.6375
2829.50412	21067.3375
2832.03763	20987.0375
2834.56959	20975.0375
2837.1	20957.3375
2839.62884	20939.4375
2842.15613	20927.7375
2844.68186	21001.2375
2847.20604	20980.4375
2849.72867	20976.7375
2852.24974	20981.5375
2854.76927	21005.0375
2857.28724	21003.4375
2859.80367	20966.6375
2862.31855	20899.2375
2864.83189	20889.0375
2867.34368	20862.7375
2869.85393	20863.6375
2872.36264	20790.3375
2874.8698	20816.1375
2877.37543	20810.6375
2879.87952	20823.8375
2882.38207	20808.7375
2884.88308	20792.0375
2887.38256	20832.7375
2889.88051	20852.5375
2892.37692	20873.0375
2894.8718	20827.0375
2897.36515	20902.1375
2899.85698	20956.4375
2902.34727	21003.8375
2904.83604	21002.3375
2907.32328	21075.6375
2909.809	21053.8375
2912.29319	21066.4375
2914.77587	21082.8375
2917.25702	21071.0375
2919.73665	21065.9375
2922.21476	21029.3375
2924.69136	20990.3375
2927.16644	21007.7375
2929.64	20943.1375
2932.11205	20932.3375
2934.58258	20877.6375
2937.05161	20861.3375
2939.51912	20867.8375
2941.98513	20857.9375
2944.44962	20810.2375
2946.91261	20756.5375
2949.37409	20746.3375
2951.83407	20746.4375
2954.29254	20730.5375
2956.74951	20685.4375
2959.20498	20690.3375
2961.65895	20636.2375
2964.11142	20615.4375
2966.56239	20593.4375
2969.01186	20568.8375
2971.45984	20523.6375
2973.90632	20519.9375
2976.35131	20478.7375
2978.7948	20428.9375
2981.23681	20354.1375
2983.67732	20329.2375
2986.11635	20285.8375
2988.55388	20205.8375
2990.98993	20191.5375
2993.4245	20104.2375
2995.85758	20052.6375
2998.28917	19981.7375
3000.71928	19968.4375
3003.14791	19940.5375
3005.57506	19925.0375
3008.00073	19817.4375
3010.42493	19828.1375
3012.84764	19772.3375
3015.26888	19742.4375
3017.68865	19656.9375
3020.10694	19647.4375
3022.52376	19600.4375
3024.9391	19596.9375
3027.35298	19576.6375
3029.76539	19591.6375
3032.17632	19554.3375
3034.5858	19511.9375
3036.9938	19492.5375
3039.40034	19505.3375
3041.80542	19513.4375
3044.20903	19455.9375
3046.61118	19470.5375
3049.01187	19413.5375
3051.4111	19409.0375
3053.80888	19371.2375
3056.20519	19368.2375
3058.60005	19291.2375
3060.99345	19212.3375
3063.3854	19188.5375
3065.7759	19117.9375
3068.16494	19023.4375
3070.55254	18958.5375
3072.93868	18929.3375
3075.32338	18843.1375
3077.70662	18811.9375
3080.08842	18761.1375
3082.46878	18728.4375
3084.84769	18669.9375
3087.22515	18655.3375
3089.60118	18653.1375
3091.97576	18650.2375
3094.3489	18619.4375
3096.72061	18617.2375
3099.09087	18621.7375
3101.4597	18575.1375
3103.82709	18616.9375
3106.19305	18559.8375
3108.55757	18503.2375
3110.92066	18471.8375
3113.28232	18494.7375
3115.64255	18408.2375
3118.00134	18371.7375
3120.35871	18305.8375
3122.71466	18268.3375
3125.06917	18192.6375
3127.42226	18149.7375
3129.77393	18153.3375
3132.12417	18082.5375
3134.47299	18120.1375
3136.82039	18096.0375
3139.16636	18069.9375
3141.51092	18057.8375
3143.85406	18059.8375
3146.19579	18069.2375
3148.53609	18074.0375
3150.87499	18054.6375
3153.21246	18050.1375
3155.54853	18043.4375
3157.88318	18019.0375
3160.21642	18045.7375
3162.54826	18016.8375
3164.87868	18014.9375
3167.2077	17999.7375
3169.5353	17987.6375
3171.86151	17973.9375
3174.18631	17998.9375
3176.5097	17961.0375
3178.83169	17955.8375
3181.15228	17934.5375
3183.47147	17899.5375
3185.78926	17869.1375
3188.10565	17826.4375
3190.42065	17825.7375
3192.73424	17808.4375
3195.04645	17800.8375
3197.35725	17751.3375
3199.66667	17711.7375
3201.97469	17697.2375
3204.28132	17673.9375
3206.58656	17683.4375
3208.8904	17644.7375
3211.19287	17683.1375
3213.49394	17677.4375
3215.79363	17697.7375
3218.09193	17683.4375
3220.38884	17685.6375
3222.68438	17681.5375
3224.97853	17686.3375
3227.2713	17681.9375
3229.56269	17638.7375
3231.8527	17658.2375
3234.14133	17597.1375
3236.42858	17564.1375
3238.71446	17553.6375
3240.99896	17504.8375
3243.28209	17497.6375
3245.56384	17479.3375
3247.84423	17458.5375
3250.12324	17424.4375
3252.40088	17379.1375
3254.67715	17333.7375
3256.95205	17339.0375
3259.22558	17349.6375
3261.49775	17271.5375
3263.76855	17264.3375
3266.03799	17217.8375
3268.30606	17181.3375
3270.57277	17128.2375
3272.83812	17123.4375
3275.10211	17094.6375
3277.36474	17042.3375
3279.62601	17086.9375
3281.88593	17048.3375
3284.14448	17064.7375
3286.40168	17086.3375
3288.65753	17076.6375
3290.91202	17029.6375
3293.16516	17018.3375
3295.41695	16962.9375
3297.66738	16857.4375
3299.91647	16787.4375
3302.16421	16638.8375
3304.4106	16562.8375
3306.65564	16482.6375
3308.89933	16336.8375
3311.14169	16173.9375
3313.38269	16050.9375
3315.62236	15981.9375
3317.86068	15806.7375
3320.09766	15710.5375
3322.3333	15577.3375
3324.5676	15494.5375
3326.80056	15244.7375
3329.03219	15160.8375
3331.26248	4.7375
3333.49143	-0.5625
3335.71905	-1.3625
