Data from AgNPs_FTO_APTES_UA_5uM_CRN_1uM_R6G_10uM_NaF_0.1M_Addition_RamanShift__5__10-23-06-571.txt Node

Date: Mon Feb 07 10:23:06 GMT 2022
User: TCL
Spectrometer: QEP01345
Trigger mode: 4
Integration Time (sec): 7.000000E0
Scans to average: 10
Electric dark correction enabled: true
Nonlinearity correction enabled: false
Boxcar width: 0
XAxis mode: Raman Shifts
Number of Pixels in Spectrum: 1044
>>>>>Begin Spectral Data<<<<<
46.04893	-0.975
50.45542	-1.775
54.85868	-0.775
59.25871	0.825
63.6555	94.125
68.04907	95.825
72.43941	101.225
76.82654	102.425
81.21044	108.925
85.59113	110.225
89.96862	114.825
94.34289	114.125
98.71396	122.525
103.08183	122.725
107.4465	131.925
111.80798	132.725
116.16626	136.325
120.52136	145.525
124.87327	149.525
129.222	158.725
133.56755	171.425
137.90993	182.525
142.24913	198.625
146.58517	230.025
150.91804	265.025
155.24774	324.725
159.57429	410.325
163.89768	521.625
168.21792	700.025
172.53501	955.625
176.84895	1324.125
181.15975	1861.025
185.46741	2617.625
189.77193	3613.725
194.07331	4815.925
198.37157	6194.725
202.6667	7634.025
206.9587	9089.325
211.24758	10523.225
215.53334	12001.925
219.81599	13550.225
224.09553	15317.225
228.37195	17233.125
232.64527	19264.825
236.91549	21396.725
241.18261	23458.725
245.44663	25384.625
249.70755	27011.225
253.96539	28434.725
258.22014	29632.025
262.4718	30615.425
266.72039	31318.825
270.96589	31650.825
275.20832	31647.925
279.44768	31411.925
283.68397	31093.125
287.91719	30891.525
292.14735	30787.925
296.37445	30825.625
300.59849	30981.025
304.81948	31245.325
309.03742	31312.325
313.25231	31163.825
317.46415	30739.025
321.67296	30005.125
325.87872	29376.725
330.08145	29044.025
334.28114	28948.825
338.47781	29066.425
342.67145	29329.525
346.86207	29831.825
351.04966	30420.025
355.23424	31137.525
359.4158	31778.825
363.59435	32286.425
367.76989	32634.225
371.94243	32865.125
376.11196	33004.325
380.27849	33037.325
384.44203	33197.425
388.60257	33505.525
392.76012	33887.325
396.91468	34328.325
401.06626	34961.125
405.21485	35417.325
409.36047	35447.325
413.50311	35260.625
417.64277	35396.425
421.77947	35794.125
425.9132	36076.525
430.04396	36290.425
434.17176	36384.325
438.2966	36382.925
442.41849	36805.425
446.53742	37892.525
450.6534	39251.625
454.76644	40200.425
458.87653	40401.025
462.98368	39789.825
467.08789	38887.125
471.18916	37913.325
475.2875	36932.825
479.38291	36464.725
483.4754	36285.225
487.56496	36111.225
491.6516	35744.525
495.73531	35341.025
499.81612	35193.725
503.89401	35428.225
507.96899	35555.325
512.04106	35302.825
516.11023	34692.425
520.1765	34018.625
524.23987	33582.225
528.30034	33255.025
532.35792	32892.825
536.41261	32247.025
540.46441	31699.225
544.51333	31531.125
548.55936	31912.125
552.60252	32742.225
556.64279	33853.025
560.6802	34673.525
564.71473	35276.425
568.7464	36123.125
572.7752	37665.525
576.80114	39315.925
580.82422	41370.825
584.84444	44136.925
588.86181	47434.725
592.87633	49618.325
596.888	48541.025
600.89682	44744.825
604.9028	43084.025
608.90594	45589.425
612.90624	48801.025
616.90371	45660.425
620.89834	38079.925
624.89015	34500.125
628.87913	34069.025
632.86528	33973.525
636.84862	33408.725
640.82913	32458.325
644.80683	31439.625
648.78172	30908.725
652.75379	31113.325
656.72306	31615.225
660.68952	32113.525
664.65319	31829.825
668.61405	31155.925
672.57211	31105.125
676.52738	31346.025
680.47986	31244.425
684.42955	30909.525
688.37646	30691.825
692.32058	31079.025
696.26192	31887.225
700.20048	32782.425
704.13626	33117.525
708.06928	32981.025
711.99952	32720.025
715.927	32837.625
719.85171	33257.525
723.77365	33132.525
727.69284	32292.725
731.60928	31530.325
735.52295	31253.325
739.43388	31249.425
743.34206	31415.625
747.24749	31691.925
751.15017	32167.025
755.05012	32820.225
758.94733	33914.425
762.8418	35671.425
766.73354	38164.325
770.62254	40316.625
774.50882	40455.925
778.39237	38426.125
782.27321	35828.125
786.15132	33621.825
790.02671	32292.325
793.89938	31788.825
797.76935	31662.425
801.6366	31733.425
805.50115	31761.125
809.36299	31550.625
813.22213	31221.625
817.07857	30897.225
820.93231	30650.825
824.78336	30416.225
828.63172	30271.025
832.47738	30257.325
836.32036	30404.225
840.16066	30693.125
843.99827	30937.725
847.8332	30846.925
851.66546	30595.025
855.49504	30478.925
859.32195	30467.325
863.1462	30297.725
866.96777	30067.525
870.78668	29977.225
874.60293	29914.525
878.41652	29958.425
882.22745	30123.525
886.03573	30265.625
889.84136	30280.025
893.64433	30063.025
897.44466	29862.125
901.24235	29709.925
905.0374	29639.925
908.8298	29602.125
912.61957	29728.825
916.40671	30138.025
920.19121	30833.125
923.97308	31617.125
927.75233	31987.325
931.52895	31808.325
935.30295	31063.425
939.07433	30202.625
942.84309	29644.625
946.60924	29538.125
950.37278	29528.825
954.13371	29459.825
957.89203	29254.325
961.64774	29205.725
965.40086	29231.025
969.15137	29184.325
972.89929	29026.225
976.64461	28994.525
980.38733	29091.925
984.12747	29277.125
987.86502	29639.025
991.59999	30040.225
995.33237	30921.225
999.06217	32294.925
1002.78939	33901.825
1006.51404	35081.025
1010.23611	35718.825
1013.95561	36091.325
1017.67255	35884.325
1021.38692	35176.725
1025.09872	34623.925
1028.80796	35229.025
1032.51465	37096.625
1036.21877	38980.525
1039.92035	39470.225
1043.61937	38690.125
1047.31584	37014.425
1051.00976	35209.225
1054.70114	34146.525
1058.38998	33676.325
1062.07627	33522.625
1065.76003	33615.525
1069.44126	33946.325
1073.11995	34627.025
1076.79611	35432.525
1080.46974	35855.125
1084.14085	36272.025
1087.80943	36714.225
1091.47549	37008.825
1095.13903	36942.625
1098.80005	36200.525
1102.45857	35061.725
1106.11456	34240.325
1109.76805	33771.825
1113.41903	33677.425
1117.06751	33728.825
1120.71348	33951.725
1124.35696	34242.625
1127.99793	34741.425
1131.63641	35119.125
1135.2724	35236.925
1138.90589	35278.025
1142.5369	35477.925
1146.16542	35773.625
1149.79145	36191.925
1153.415	36645.225
1157.03607	37430.225
1160.65467	39197.325
1164.27079	41967.225
1167.88443	45049.925
1171.49561	47774.525
1175.10432	50905.625
1178.71056	55364.925
1182.31434	59886.825
1185.91565	62030.225
1189.51451	61097.025
1193.11091	58599.425
1196.70485	55908.925
1200.29634	53866.825
1203.88538	53061.525
1207.47197	53075.525
1211.05612	52767.925
1214.63782	51757.325
1218.21708	50037.225
1221.79391	48436.225
1225.36829	47300.025
1228.94024	46076.425
1232.50976	44524.825
1236.07685	43099.725
1239.6415	42437.125
1243.20374	42399.125
1246.76355	43039.825
1250.32093	44232.625
1253.8759	45714.625
1257.42845	47400.325
1260.97859	49260.025
1264.52631	51103.125
1268.07163	53215.625
1271.61453	55513.425
1275.15503	57955.625
1278.69312	60602.125
1282.22882	63130.125
1285.76211	65900.725
1289.29301	69058.625
1292.82151	72874.325
1296.34761	77926.025
1299.87133	84364.625
1303.39266	91541.825
1306.9116	97662.925
1310.42815	101439.625
1313.94233	101950.425
1317.45412	99272.025
1320.96354	95255.225
1324.47058	92193.325
1327.97525	90506.325
1331.47754	89458.825
1334.97747	88234.225
1338.47502	86148.025
1341.97022	82820.525
1345.46305	79175.625
1348.95352	76993.725
1352.44163	77642.425
1355.92738	81664.725
1359.41078	87872.525
1362.89183	92484.525
1366.37053	92151.025
1369.84688	85024.325
1373.32088	74187.525
1376.79254	66016.325
1380.26186	63305.325
1383.72883	63583.825
1387.19347	63593.125
1390.65578	62611.625
1394.11575	62184.825
1397.57339	63294.625
1401.0287	65452.525
1404.48168	67425.925
1407.93234	68087.125
1411.38068	66596.325
1414.82669	63714.825
1418.27039	60168.125
1421.71177	56765.725
1425.15083	54026.125
1428.58758	52963.625
1432.02203	53951.925
1435.45416	56385.625
1438.88399	58991.725
1442.31151	60711.825
1445.73673	61562.725
1449.15965	61802.425
1452.58027	61405.025
1455.9986	60438.725
1459.41463	60059.925
1462.82837	60970.425
1466.23982	62760.825
1469.64898	64714.625
1473.05586	66010.225
1476.46045	66454.825
1479.86276	66134.725
1483.26279	65152.625
1486.66054	64400.925
1490.05602	64204.125
1493.44922	64212.125
1496.84016	64023.725
1500.22882	63761.325
1503.61521	64009.025
1506.99934	64912.825
1510.38121	65825.825
1513.76081	66051.225
1517.13816	65285.125
1520.51324	64148.825
1523.88607	63654.325
1527.25665	64284.125
1530.62498	65179.025
1533.99105	65376.825
1537.35488	64636.925
1540.71647	63086.925
1544.07581	61017.325
1547.4329	58787.925
1550.78776	56671.125
1554.14038	55017.025
1557.49077	53855.925
1560.83892	52940.925
1564.18484	52321.025
1567.52853	52148.625
1570.86999	52617.825
1574.20922	53698.425
1577.54624	54855.225
1580.88103	55886.325
1584.2136	57745.325
1587.54395	61914.325
1590.87208	68292.425
1594.19801	75661.425
1597.52172	81491.125
1600.84321	82308.025
1604.16251	76365.625
1607.47959	66697.525
1610.79447	57309.625
1614.10715	50062.325
1617.41763	45106.625
1620.7259	42355.025
1624.03199	41260.425
1627.33587	41822.025
1630.63757	43873.825
1633.93707	47775.925
1637.23439	54041.125
1640.52951	63374.225
1643.82246	74844.225
1647.11321	83981.725
1650.40179	84460.925
1653.68819	75163.425
1656.97241	61687.625
1660.25446	50048.925
1663.53433	42212.625
1666.81203	37413.825
1670.08756	34585.225
1673.36092	32851.125
1676.63211	31712.225
1679.90115	30950.025
1683.16801	30383.825
1686.43272	29945.025
1689.69527	29607.725
1692.95567	29369.625
1696.2139	29221.725
1699.46999	29105.025
1702.72392	28961.225
1705.97571	28888.825
1709.22535	28782.725
1712.47284	28701.825
1715.71819	28691.625
1718.96139	28603.725
1722.20246	28465.925
1725.44139	28390.625
1728.67818	28190.025
1731.91284	27997.125
1735.14537	27761.725
1738.37576	27632.425
1741.60403	27531.325
1744.83017	27432.825
1748.05418	27338.025
1751.27607	27278.125
1754.49584	27228.925
1757.71349	27197.025
1760.92903	27195.525
1764.14244	27165.325
1767.35375	27104.025
1770.56294	27120.325
1773.77002	27019.725
1776.97499	26993.525
1780.17785	26952.425
1783.37861	26920.925
1786.57727	26880.225
1789.77382	26850.125
1792.96828	26797.125
1796.16064	26729.625
1799.3509	26737.525
1802.53907	26664.325
1805.72514	26550.425
1808.90913	26496.625
1812.09102	26478.125
1815.27083	26377.325
1818.44856	26359.925
1821.6242	26355.125
1824.79776	26337.525
1827.96924	26312.425
1831.13864	26277.025
1834.30597	26277.725
1837.47122	26278.225
1840.6344	26267.925
1843.7955	26306.925
1846.95454	26306.525
1850.11151	26274.125
1853.26642	26253.325
1856.41926	26246.025
1859.57004	26234.025
1862.71876	26211.625
1865.86542	26191.125
1869.01003	26172.725
1872.15258	26153.025
1875.29308	26106.525
1878.43152	26168.325
1881.56792	26138.625
1884.70227	26151.025
1887.83457	26148.725
1890.96482	26117.825
1894.09304	26097.825
1897.21921	26024.425
1900.34335	26031.925
1903.46544	25999.725
1906.58551	26007.225
1909.70353	25921.425
1912.81953	25888.925
1915.93349	25853.025
1919.04543	25799.525
1922.15534	25768.525
1925.26322	25748.225
1928.36908	25654.525
1931.47292	25630.725
1934.57473	25505.025
1937.67453	25449.025
1940.77232	25412.525
1943.86808	25346.625
1946.96184	25255.525
1950.05358	25166.825
1953.14331	25153.825
1956.23103	25101.525
1959.31675	25010.425
1962.40046	24950.525
1965.48217	24899.625
1968.56188	24837.425
1971.63959	24749.625
1974.7153	24663.825
1977.78901	24600.325
1980.86073	24584.925
1983.93046	24487.025
1986.99819	24418.025
1990.06394	24352.625
1993.1277	24295.125
1996.18947	24221.225
1999.24925	24173.325
2002.30706	24097.625
2005.36288	24019.925
2008.41672	23964.225
2011.46859	23946.125
2014.51848	23875.025
2017.56639	23841.125
2020.61233	23772.225
2023.6563	23728.625
2026.6983	23729.725
2029.73833	23709.125
2032.7764	23649.725
2035.8125	23657.225
2038.84664	23591.225
2041.87881	23595.025
2044.90903	23572.025
2047.93729	23480.925
2050.96359	23497.625
2053.98794	23502.025
2057.01034	23471.425
2060.03078	23497.625
2063.04927	23504.425
2066.06582	23445.325
2069.08042	23432.025
2072.09307	23408.925
2075.10378	23358.825
2078.11255	23378.725
2081.11938	23354.025
2084.12426	23291.225
2087.12722	23334.225
2090.12824	23319.025
2093.12732	23294.525
2096.12447	23302.725
2099.11969	23302.625
2102.11299	23334.225
2105.10435	23318.525
2108.09379	23322.025
2111.08131	23326.825
2114.0669	23386.825
2117.05057	23358.725
2120.03233	23365.125
2123.01216	23408.825
2125.99008	23461.925
2128.96609	23468.525
2131.94018	23519.525
2134.91236	23466.425
2137.88263	23486.125
2140.851	23484.225
2143.81746	23478.625
2146.78201	23552.425
2149.74466	23540.325
2152.7054	23566.325
2155.66425	23512.725
2158.6212	23513.125
2161.57625	23475.225
2164.52941	23511.425
2167.48067	23494.525
2170.43004	23540.625
2173.37752	23496.125
2176.32311	23521.825
2179.26681	23514.025
2182.20863	23518.525
2185.14856	23568.725
2188.08661	23581.325
2191.02278	23652.825
2193.95707	23580.525
2196.88948	23572.125
2199.82001	23583.225
2202.74867	23604.425
2205.67545	23582.125
2208.60037	23510.025
2211.52341	23559.525
2214.44458	23580.325
2217.36388	23506.825
2220.28132	23502.725
2223.1969	23465.425
2226.11061	23456.025
2229.02246	23391.025
2231.93245	23398.825
2234.84058	23350.225
2237.74686	23353.425
2240.65128	23360.225
2243.55385	23283.925
2246.45456	23258.125
2249.35343	23182.925
2252.25044	23121.225
2255.14561	23081.325
2258.03893	22999.125
2260.93041	22942.025
2263.82004	22947.725
2266.70783	22895.225
2269.59378	22840.225
2272.4779	22727.025
2275.36017	22695.525
2278.24061	22677.325
2281.11922	22673.125
2283.996	22667.525
2286.87094	22670.625
2289.74405	22660.025
2292.61534	22669.025
2295.4848	22640.425
2298.35243	22712.925
2301.21824	22738.025
2304.08223	22796.125
2306.94439	22824.925
2309.80474	22871.525
2312.66327	22865.925
2315.51999	22837.925
2318.37489	22892.525
2321.22797	22858.525
2324.07925	22833.125
2326.92871	22864.125
2329.77637	22806.725
2332.62222	22792.925
2335.46626	22792.025
2338.3085	22820.425
2341.14893	22860.025
2343.98756	22912.825
2346.8244	22909.125
2349.65943	22893.225
2352.49267	22885.225
2355.32411	22882.025
2358.15376	22842.725
2360.98161	22801.025
2363.80768	22743.025
2366.63195	22718.825
2369.45444	22700.725
2372.27514	22615.625
2375.09405	22590.825
2377.91118	22550.925
2380.72652	22513.125
2383.54009	22449.425
2386.35187	22445.325
2389.16188	22415.925
2391.97011	22425.025
2394.77657	22391.725
2397.58125	22414.425
2400.38416	22349.925
2403.18529	22331.825
2405.98466	22297.625
2408.78226	22226.525
2411.57809	22211.125
2414.37216	22195.425
2417.16446	22153.925
2419.955	22087.425
2422.74378	22068.925
2425.5308	22092.225
2428.31606	22107.525
2431.09956	22092.025
2433.88131	22065.425
2436.6613	22106.225
2439.43954	22111.825
2442.21603	22097.325
2444.99077	22090.225
2447.76377	22117.625
2450.53501	22072.625
2453.30451	22089.625
2456.07226	22066.825
2458.83827	22101.525
2461.60254	22121.325
2464.36507	22095.725
2467.12586	22150.825
2469.88492	22145.825
2472.64224	22159.525
2475.39782	22195.825
2478.15167	22269.125
2480.90379	22286.525
2483.65417	22329.825
2486.40283	22303.625
2489.14976	22379.225
2491.89497	22371.325
2494.63845	22402.925
2497.3802	22389.525
2500.12024	22358.025
2502.85855	22363.125
2505.59514	22327.125
2508.33002	22327.425
2511.06318	22276.925
2513.79462	22293.225
2516.52435	22252.125
2519.25237	22292.625
2521.97867	22326.025
2524.70327	22318.425
2527.42616	22317.725
2530.14734	22270.725
2532.86681	22285.925
2535.58458	22352.925
2538.30065	22285.425
2541.01501	22315.325
2543.72768	22299.425
2546.43864	22307.625
2549.14791	22291.725
2551.85548	22284.825
2554.56136	22273.025
2557.26554	22269.825
2559.96803	22304.925
2562.66883	22289.625
2565.36794	22357.125
2568.06536	22343.025
2570.7611	22337.525
2573.45514	22344.025
2576.14751	22313.825
2578.83819	22323.525
2581.52719	22345.725
2584.21451	22332.725
2586.90015	22358.525
2589.58411	22361.625
2592.2664	22350.725
2594.94701	22358.525
2597.62594	22381.925
2600.30321	22339.625
2602.9788	22332.825
2605.65273	22344.725
2608.32498	22436.925
2610.99557	22418.125
2613.66449	22426.225
2616.33175	22410.925
2618.99734	22421.925
2621.66128	22363.325
2624.32355	22371.825
2626.98416	22404.425
2629.64311	22402.125
2632.30041	22400.325
2634.95605	22403.125
2637.61004	22366.325
2640.26238	22351.925
2642.91306	22264.625
2645.56209	22267.325
2648.20948	22308.025
2650.85521	22323.825
2653.4993	22327.125
2656.14175	22386.825
2658.78255	22381.925
2661.42171	22399.725
2664.05923	22452.025
2666.6951	22438.025
2669.32934	22494.425
2671.96194	22495.525
2674.59291	22534.325
2677.22224	22509.225
2679.84993	22529.525
2682.476	22472.825
2685.10043	22484.825
2687.72324	22391.325
2690.34441	22388.325
2692.96396	22398.225
2695.58188	22363.625
2698.19818	22337.625
2700.81285	22342.825
2703.4259	22356.525
2706.03733	22427.425
2708.64714	22393.125
2711.25533	22442.125
2713.86191	22433.325
2716.46687	22519.025
2719.07021	22508.625
2721.67194	22563.225
2724.27206	22548.225
2726.87057	22620.225
2729.46747	22603.625
2732.06276	22633.225
2734.65644	22665.125
2737.24852	22655.725
2739.83899	22649.125
2742.42786	22645.325
2745.01513	22603.125
2747.60079	22653.725
2750.18486	22611.525
2752.76733	22605.525
2755.3482	22568.325
2757.92747	22622.825
2760.50515	22594.525
2763.08123	22625.225
2765.65573	22605.225
2768.22863	22645.425
2770.79994	22604.125
2773.36967	22651.125
2775.9378	22692.525
2778.50435	22710.625
2781.06932	22675.325
2783.6327	22713.425
2786.1945	22727.725
2788.75471	22721.425
2791.31335	22737.325
2793.87041	22658.525
2796.42589	22611.525
2798.97979	22607.025
2801.53212	22583.125
2804.08288	22547.325
2806.63206	22477.425
2809.17967	22455.825
2811.72571	22484.925
2814.27018	22398.725
2816.81308	22379.825
2819.35442	22340.525
2821.89419	22326.625
2824.43239	22307.825
2826.96904	22340.125
2829.50412	22360.525
2832.03763	22287.125
2834.56959	22266.525
2837.1	22294.125
2839.62884	22276.425
2842.15613	22279.225
2844.68186	22354.725
2847.20604	22336.525
2849.72867	22378.225
2852.24974	22362.025
2854.76927	22394.725
2857.28724	22377.725
2859.80367	22339.225
2862.31855	22350.825
2864.83189	22285.725
2867.34368	22274.825
2869.85393	22263.125
2872.36264	22231.225
2874.8698	22231.325
2877.37543	22252.325
2879.87952	22288.425
2882.38207	22276.625
2884.88308	22303.925
2887.38256	22317.925
2889.88051	22349.525
2892.37692	22364.525
2894.8718	22431.425
2897.36515	22435.625
2899.85698	22508.725
2902.34727	22553.225
2904.83604	22553.425
2907.32328	22577.825
2909.809	22579.225
2912.29319	22606.625
2914.77587	22570.925
2917.25702	22540.425
2919.73665	22521.525
2922.21476	22514.725
2924.69136	22487.725
2927.16644	22534.225
2929.64	22458.925
2932.11205	22476.525
2934.58258	22376.225
2937.05161	22354.325
2939.51912	22395.425
2941.98513	22397.625
2944.44962	22356.525
2946.91261	22268.125
2949.37409	22275.825
2951.83407	22249.925
2954.29254	22230.525
2956.74951	22194.625
2959.20498	22179.825
2961.65895	22180.425
2964.11142	22154.625
2966.56239	22143.725
2969.01186	22126.725
2971.45984	22045.825
2973.90632	22060.725
2976.35131	21993.925
2978.7948	21947.025
2981.23681	21861.525
2983.67732	21860.625
2986.11635	21807.225
2988.55388	21768.825
2990.98993	21704.425
2993.4245	21650.125
2995.85758	21531.425
2998.28917	21482.325
3000.71928	21476.125
3003.14791	21458.525
3005.57506	21454.825
3008.00073	21397.925
3010.42493	21417.625
3012.84764	21370.925
3015.26888	21349.725
3017.68865	21280.125
3020.10694	21255.625
3022.52376	21185.525
3024.9391	21183.525
3027.35298	21201.525
3029.76539	21194.525
3032.17632	21170.825
3034.5858	21118.625
3036.9938	21124.925
3039.40034	21112.225
3041.80542	21118.625
3044.20903	21094.125
3046.61118	21114.125
3049.01187	21065.825
3051.4111	21054.725
3053.80888	21011.425
3056.20519	21002.325
3058.60005	20937.625
3060.99345	20877.825
3063.3854	20822.225
3065.7759	20793.825
3068.16494	20692.725
3070.55254	20642.425
3072.93868	20613.325
3075.32338	20532.925
3077.70662	20520.725
3080.08842	20428.225
3082.46878	20394.925
3084.84769	20402.125
3087.22515	20392.625
3089.60118	20409.725
3091.97576	20416.225
3094.3489	20402.825
3096.72061	20427.825
3099.09087	20428.925
3101.4597	20372.025
3103.82709	20393.625
3106.19305	20333.425
3108.55757	20350.125
3110.92066	20272.525
3113.28232	20250.625
3115.64255	20196.025
3118.00134	20167.825
3120.35871	20145.925
3122.71466	20067.125
3125.06917	20045.625
3127.42226	19968.025
3129.77393	20018.725
3132.12417	19971.725
3134.47299	20000.825
3136.82039	19980.525
3139.16636	19954.025
3141.51092	19960.625
3143.85406	19974.025
3146.19579	19958.725
3148.53609	19942.825
3150.87499	19911.825
3153.21246	19906.525
3155.54853	19920.425
3157.88318	19930.025
3160.21642	19954.625
3162.54826	19934.225
3164.87868	19943.925
3167.2077	19921.325
3169.5353	19947.025
3171.86151	19922.625
3174.18631	19904.725
3176.5097	19904.025
3178.83169	19890.825
3181.15228	19881.825
3183.47147	19857.525
3185.78926	19846.525
3188.10565	19788.525
3190.42065	19814.125
3192.73424	19792.225
3195.04645	19784.225
3197.35725	19780.125
3199.66667	19745.925
3201.97469	19712.825
3204.28132	19692.825
3206.58656	19728.625
3208.8904	19688.525
3211.19287	19714.925
3213.49394	19743.825
3215.79363	19719.725
3218.09193	19736.025
3220.38884	19725.625
3222.68438	19726.025
3224.97853	19716.325
3227.2713	19739.025
3229.56269	19715.025
3231.8527	19721.025
3234.14133	19668.825
3236.42858	19665.125
3238.71446	19686.325
3240.99896	19609.325
3243.28209	19598.425
3245.56384	19642.825
3247.84423	19624.125
3250.12324	19561.825
3252.40088	19499.725
3254.67715	19511.525
3256.95205	19441.725
3259.22558	19437.925
3261.49775	19424.225
3263.76855	19411.325
3266.03799	19354.425
3268.30606	19363.925
3270.57277	19333.225
3272.83812	19277.625
3275.10211	19207.225
3277.36474	19240.125
3279.62601	19247.025
3281.88593	19212.725
3284.14448	19183.425
3286.40168	19231.425
3288.65753	19235.825
3290.91202	19211.525
3293.16516	19197.225
3295.41695	19174.925
3297.66738	19067.525
3299.91647	18977.725
3302.16421	18846.625
3304.4106	18751.725
3306.65564	18608.525
3308.89933	18477.225
3311.14169	18371.025
3313.38269	18197.525
3315.62236	18102.225
3317.86068	17952.025
3320.09766	17819.925
3322.3333	17668.325
3324.5676	17623.225
3326.80056	17345.525
3329.03219	17280.625
3331.26248	4.125
3333.49143	-0.975
3335.71905	-1.475
