Data from AgNPs_FTO_APTES_UA_5uM_CRN_1000uM_R6G_10uM_NaF_0.1M_Addition_RamanShift__25__17-53-01-894.txt Node

Date: Mon Feb 07 17:53:01 GMT 2022
User: TCL
Spectrometer: QEP01345
Trigger mode: 4
Integration Time (sec): 7.000000E0
Scans to average: 10
Electric dark correction enabled: true
Nonlinearity correction enabled: false
Boxcar width: 0
XAxis mode: Raman Shifts
Number of Pixels in Spectrum: 1044
>>>>>Begin Spectral Data<<<<<
46.04893	-2.3125
50.45542	-0.8125
54.85868	0.3875
59.25871	0.1875
63.6555	58.8875
68.04907	57.8875
72.43941	65.3875
76.82654	62.1875
81.21044	65.3875
85.59113	64.1875
89.96862	67.3875
94.34289	74.2875
98.71396	71.9875
103.08183	76.2875
107.4465	80.1875
111.80798	79.9875
116.16626	84.2875
120.52136	90.2875
124.87327	91.3875
129.222	98.3875
133.56755	104.1875
137.90993	112.8875
142.24913	126.0875
146.58517	145.6875
150.91804	164.6875
155.24774	205.2875
159.57429	259.4875
163.89768	331.6875
168.21792	448.2875
172.53501	611.9875
176.84895	858.9875
181.15975	1205.4875
185.46741	1682.9875
189.77193	2334.6875
194.07331	3139.7875
198.37157	4036.0875
202.6667	4995.0875
206.9587	5957.7875
211.24758	6923.3875
215.53334	7901.5875
219.81599	8991.7875
224.09553	10179.6875
228.37195	11497.5875
232.64527	12905.3875
236.91549	14363.8875
241.18261	15768.5875
245.44663	17009.9875
249.70755	18051.9875
253.96539	19016.5875
258.22014	19780.3875
262.4718	20461.9875
266.72039	20923.6875
270.96589	21212.2875
275.20832	21233.0875
279.44768	21083.9875
283.68397	20901.3875
287.91719	20723.3875
292.14735	20775.3875
296.37445	21050.5875
300.59849	21470.7875
304.81948	21943.6875
309.03742	22146.1875
313.25231	21873.2875
317.46415	21052.9875
321.67296	19878.8875
325.87872	18907.3875
330.08145	18417.8875
334.28114	18372.5875
338.47781	18575.8875
342.67145	18955.1875
346.86207	19530.5875
351.04966	20308.6875
355.23424	21216.3875
359.4158	21885.7875
363.59435	22246.4875
367.76989	22350.2875
371.94243	22422.6875
376.11196	22368.5875
380.27849	22326.7875
384.44203	22283.0875
388.60257	22201.3875
392.76012	22231.1875
396.91468	22401.0875
401.06626	22847.3875
405.21485	23198.2875
409.36047	22954.5875
413.50311	22123.8875
417.64277	21368.7875
421.77947	20967.8875
425.9132	20888.7875
430.04396	21037.3875
434.17176	21259.8875
438.2966	21582.9875
442.41849	22150.5875
446.53742	22936.4875
450.6534	23729.0875
454.76644	24237.7875
458.87653	24339.3875
462.98368	24106.7875
467.08789	23676.7875
471.18916	23265.9875
475.2875	23032.7875
479.38291	22836.2875
483.4754	22584.6875
487.56496	22256.7875
491.6516	21788.8875
495.73531	21392.9875
499.81612	21129.9875
503.89401	21216.7875
507.96899	21274.5875
512.04106	21387.6875
516.11023	21378.3875
520.1765	21408.0875
524.23987	21327.4875
528.30034	21154.7875
532.35792	20927.8875
536.41261	20589.9875
540.46441	20255.9875
544.51333	20148.5875
548.55936	20322.5875
552.60252	20811.4875
556.64279	21461.4875
560.6802	22016.7875
564.71473	22418.1875
568.7464	23252.6875
572.7752	23965.6875
576.80114	23631.1875
580.82422	23014.4875
584.84444	22744.9875
588.86181	22969.1875
592.87633	23529.7875
596.888	23823.8875
600.89682	23858.9875
604.9028	24971.5875
608.90594	29097.0875
612.90624	34714.1875
616.90371	33147.3875
620.89834	24915.8875
624.89015	21098.7875
628.87913	20458.5875
632.86528	20569.1875
636.84862	20739.2875
640.82913	20417.3875
644.80683	19692.2875
648.78172	19107.4875
652.75379	19037.9875
656.72306	19449.8875
660.68952	20131.8875
664.65319	20041.0875
668.61405	19416.5875
672.57211	19184.0875
676.52738	19186.3875
680.47986	19196.2875
684.42955	19055.6875
688.37646	18950.1875
692.32058	18948.8875
696.26192	19088.7875
700.20048	19307.9875
704.13626	19462.4875
708.06928	19440.1875
711.99952	19297.2875
715.927	19172.3875
719.85171	19228.8875
723.77365	19232.0875
727.69284	19135.8875
731.60928	18999.7875
735.52295	18960.3875
739.43388	18999.5875
743.34206	19045.3875
747.24749	19082.1875
751.15017	19220.1875
755.05012	19533.2875
758.94733	20233.6875
762.8418	21890.5875
766.73354	24676.0875
770.62254	27639.5875
774.50882	28917.7875
778.39237	27627.4875
782.27321	24468.8875
786.15132	21550.3875
790.02671	19849.3875
793.89938	19041.2875
797.76935	18728.6875
801.6366	18573.0875
805.50115	18500.3875
809.36299	18429.7875
813.22213	18307.1875
817.07857	18297.2875
820.93231	18304.8875
824.78336	18293.0875
828.63172	18278.9875
832.47738	18276.2875
836.32036	18204.5875
840.16066	18162.0875
843.99827	18115.2875
847.8332	18004.0875
851.66546	17971.6875
855.49504	17961.7875
859.32195	17981.5875
863.1462	17942.7875
866.96777	17904.9875
870.78668	17880.0875
874.60293	17848.9875
878.41652	17860.9875
882.22745	17980.2875
886.03573	18018.0875
889.84136	17955.7875
893.64433	17929.2875
897.44466	17827.7875
901.24235	17807.1875
905.0374	17666.1875
908.8298	17590.0875
912.61957	17557.4875
916.40671	17677.8875
920.19121	17910.5875
923.97308	18037.4875
927.75233	18144.3875
931.52895	18156.0875
935.30295	18014.3875
939.07433	17587.8875
942.84309	17198.4875
946.60924	16947.3875
950.37278	16834.3875
954.13371	16802.8875
957.89203	16756.4875
961.64774	16707.3875
965.40086	16629.4875
969.15137	16580.9875
972.89929	16475.1875
976.64461	16408.5875
980.38733	16383.8875
984.12747	16406.1875
987.86502	16512.8875
991.59999	16668.4875
995.33237	16896.3875
999.06217	17279.4875
1002.78939	17811.1875
1006.51404	18238.9875
1010.23611	18579.0875
1013.95561	18695.2875
1017.67255	18662.2875
1021.38692	18362.8875
1025.09872	17998.1875
1028.80796	17863.5875
1032.51465	17932.4875
1036.21877	18117.5875
1039.92035	18233.3875
1043.61937	18175.5875
1047.31584	18062.9875
1051.00976	17916.7875
1054.70114	17836.5875
1058.38998	17875.9875
1062.07627	18030.2875
1065.76003	18134.8875
1069.44126	18210.1875
1073.11995	18341.4875
1076.79611	18516.3875
1080.46974	18699.4875
1084.14085	19028.0875
1087.80943	19416.7875
1091.47549	19608.9875
1095.13903	19481.6875
1098.80005	19097.8875
1102.45857	18692.3875
1106.11456	18394.1875
1109.76805	18421.6875
1113.41903	18713.3875
1117.06751	19145.5875
1120.71348	19740.4875
1124.35696	20366.0875
1127.99793	20937.2875
1131.63641	20913.4875
1135.2724	20316.6875
1138.90589	19692.0875
1142.5369	19321.8875
1146.16542	19169.1875
1149.79145	19100.4875
1153.415	19208.4875
1157.03607	19390.8875
1160.65467	19879.8875
1164.27079	20648.5875
1167.88443	21864.4875
1171.49561	23516.4875
1175.10432	25987.1875
1178.71056	29158.7875
1182.31434	31781.0875
1185.91565	32708.1875
1189.51451	32158.3875
1193.11091	30724.4875
1196.70485	29044.9875
1200.29634	27623.0875
1203.88538	26460.9875
1207.47197	25271.6875
1211.05612	24271.5875
1214.63782	23706.4875
1218.21708	23433.3875
1221.79391	23366.1875
1225.36829	23181.0875
1228.94024	22739.7875
1232.50976	22219.3875
1236.07685	21890.5875
1239.6415	21798.8875
1243.20374	21862.1875
1246.76355	22031.8875
1250.32093	22334.9875
1253.8759	22826.0875
1257.42845	23494.7875
1260.97859	24162.7875
1264.52631	24795.9875
1268.07163	25497.5875
1271.61453	26163.5875
1275.15503	26799.4875
1278.69312	27238.7875
1282.22882	27676.5875
1285.76211	28360.9875
1289.29301	29393.0875
1292.82151	30676.3875
1296.34761	32301.6875
1299.87133	34339.1875
1303.39266	37049.0875
1306.9116	40479.7875
1310.42815	44188.7875
1313.94233	46371.5875
1317.45412	46056.9875
1320.96354	44146.7875
1324.47058	42013.1875
1327.97525	39995.7875
1331.47754	38762.1875
1334.97747	38241.5875
1338.47502	38466.0875
1341.97022	38900.6875
1345.46305	39139.3875
1348.95352	39364.2875
1352.44163	40008.0875
1355.92738	41853.3875
1359.41078	45416.4875
1362.89183	48745.1875
1366.37053	47479.8875
1369.84688	41563.9875
1373.32088	35467.4875
1376.79254	31659.0875
1380.26186	29939.7875
1383.72883	29436.1875
1387.19347	29183.3875
1390.65578	28984.7875
1394.11575	29091.6875
1397.57339	29605.6875
1401.0287	30517.7875
1404.48168	31408.9875
1407.93234	31866.9875
1411.38068	31801.4875
1414.82669	31015.7875
1418.27039	29647.1875
1421.71177	28010.9875
1425.15083	26635.7875
1428.58758	25813.9875
1432.02203	25765.3875
1435.45416	26109.4875
1438.88399	26602.6875
1442.31151	27071.8875
1445.73673	27539.4875
1449.15965	28067.4875
1452.58027	28571.3875
1455.9986	28756.0875
1459.41463	29030.7875
1462.82837	29480.6875
1466.23982	30095.3875
1469.64898	30709.4875
1473.05586	30952.0875
1476.46045	30864.5875
1479.86276	30729.4875
1483.26279	30568.5875
1486.66054	30583.3875
1490.05602	30763.8875
1493.44922	31106.1875
1496.84016	31567.9875
1500.22882	32763.1875
1503.61521	34880.0875
1506.99934	37755.9875
1510.38121	40617.9875
1513.76081	41861.4875
1517.13816	40241.7875
1520.51324	36678.2875
1523.88607	33269.3875
1527.25665	31062.6875
1530.62498	29955.0875
1533.99105	29472.3875
1537.35488	29278.4875
1540.71647	29028.6875
1544.07581	28733.6875
1547.4329	28358.5875
1550.78776	27937.5875
1554.14038	27647.7875
1557.49077	27628.3875
1560.83892	27730.7875
1564.18484	28109.4875
1567.52853	28481.9875
1570.86999	28798.2875
1574.20922	29142.5875
1577.54624	29233.0875
1580.88103	28656.4875
1584.2136	27930.8875
1587.54395	28045.8875
1590.87208	29170.0875
1594.19801	31124.6875
1597.52172	33394.7875
1600.84321	34476.2875
1604.16251	33400.9875
1607.47959	30732.6875
1610.79447	27701.1875
1614.10715	24880.8875
1617.41763	22699.4875
1620.7259	21222.7875
1624.03199	20441.8875
1627.33587	20347.5875
1630.63757	20878.7875
1633.93707	22068.7875
1637.23439	24119.2875
1640.52951	27150.3875
1643.82246	31061.1875
1647.11321	34844.3875
1650.40179	36710.3875
1653.68819	34867.5875
1656.97241	30164.1875
1660.25446	25057.9875
1663.53433	21363.5875
1666.81203	19024.8875
1670.08756	17628.9875
1673.36092	16769.7875
1676.63211	16235.1875
1679.90115	15879.7875
1683.16801	15584.1875
1686.43272	15336.1875
1689.69527	15166.6875
1692.95567	15068.6875
1696.2139	14982.7875
1699.46999	14900.6875
1702.72392	14801.7875
1705.97571	14780.1875
1709.22535	14759.1875
1712.47284	14716.5875
1715.71819	14714.3875
1718.96139	14687.5875
1722.20246	14658.7875
1725.44139	14546.1875
1728.67818	14463.1875
1731.91284	14372.0875
1735.14537	14271.4875
1738.37576	14221.9875
1741.60403	14169.0875
1744.83017	14118.8875
1748.05418	14126.7875
1751.27607	14081.9875
1754.49584	14018.4875
1757.71349	14002.2875
1760.92903	13980.8875
1764.14244	13943.0875
1767.35375	13921.7875
1770.56294	13854.6875
1773.77002	13877.3875
1776.97499	13823.1875
1780.17785	13773.7875
1783.37861	13784.7875
1786.57727	13741.1875
1789.77382	13731.2875
1792.96828	13690.4875
1796.16064	13641.2875
1799.3509	13618.5875
1802.53907	13574.2875
1805.72514	13568.9875
1808.90913	13530.6875
1812.09102	13450.2875
1815.27083	13435.7875
1818.44856	13407.0875
1821.6242	13373.1875
1824.79776	13347.9875
1827.96924	13316.4875
1831.13864	13294.8875
1834.30597	13276.3875
1837.47122	13246.1875
1840.6344	13252.3875
1843.7955	13239.8875
1846.95454	13235.8875
1850.11151	13209.3875
1853.26642	13238.9875
1856.41926	13196.2875
1859.57004	13205.4875
1862.71876	13222.0875
1865.86542	13216.8875
1869.01003	13177.6875
1872.15258	13177.6875
1875.29308	13168.0875
1878.43152	13159.7875
1881.56792	13161.4875
1884.70227	13140.4875
1887.83457	13136.0875
1890.96482	13114.9875
1894.09304	13108.7875
1897.21921	13107.5875
1900.34335	13113.3875
1903.46544	13072.9875
1906.58551	13099.3875
1909.70353	13083.3875
1912.81953	13036.1875
1915.93349	12989.4875
1919.04543	12994.6875
1922.15534	12983.1875
1925.26322	12946.2875
1928.36908	12933.8875
1931.47292	12912.5875
1934.57473	12838.4875
1937.67453	12810.8875
1940.77232	12744.5875
1943.86808	12703.8875
1946.96184	12672.2875
1950.05358	12603.2875
1953.14331	12565.7875
1956.23103	12501.6875
1959.31675	12495.0875
1962.40046	12459.5875
1965.48217	12419.7875
1968.56188	12367.1875
1971.63959	12329.4875
1974.7153	12285.7875
1977.78901	12260.0875
1980.86073	12217.9875
1983.93046	12171.0875
1986.99819	12109.2875
1990.06394	12075.1875
1993.1277	12052.7875
1996.18947	11984.3875
1999.24925	11981.5875
2002.30706	11926.0875
2005.36288	11883.9875
2008.41672	11830.0875
2011.46859	11801.7875
2014.51848	11778.1875
2017.56639	11760.7875
2020.61233	11724.5875
2023.6563	11650.7875
2026.6983	11640.2875
2029.73833	11594.6875
2032.7764	11585.9875
2035.8125	11585.0875
2038.84664	11561.5875
2041.87881	11550.2875
2044.90903	11523.2875
2047.93729	11481.8875
2050.96359	11471.5875
2053.98794	11458.0875
2057.01034	11425.5875
2060.03078	11399.2875
2063.04927	11419.1875
2066.06582	11416.5875
2069.08042	11425.9875
2072.09307	11395.1875
2075.10378	11355.0875
2078.11255	11340.9875
2081.11938	11338.0875
2084.12426	11332.4875
2087.12722	11309.6875
2090.12824	11299.4875
2093.12732	11306.1875
2096.12447	11303.7875
2099.11969	11308.5875
2102.11299	11264.4875
2105.10435	11280.8875
2108.09379	11281.3875
2111.08131	11283.3875
2114.0669	11287.7875
2117.05057	11316.2875
2120.03233	11323.5875
2123.01216	11324.6875
2125.99008	11324.5875
2128.96609	11301.1875
2131.94018	11310.0875
2134.91236	11318.6875
2137.88263	11364.9875
2140.851	11378.3875
2143.81746	11370.8875
2146.78201	11354.5875
2149.74466	11319.8875
2152.7054	11306.5875
2155.66425	11278.4875
2158.6212	11279.8875
2161.57625	11265.9875
2164.52941	11262.0875
2167.48067	11267.7875
2170.43004	11259.6875
2173.37752	11252.2875
2176.32311	11251.0875
2179.26681	11250.4875
2182.20863	11233.4875
2185.14856	11234.7875
2188.08661	11239.6875
2191.02278	11253.6875
2193.95707	11231.7875
2196.88948	11177.6875
2199.82001	11165.0875
2202.74867	11164.9875
2205.67545	11135.7875
2208.60037	11139.2875
2211.52341	11133.2875
2214.44458	11132.4875
2217.36388	11096.2875
2220.28132	11035.2875
2223.1969	11010.9875
2226.11061	11001.5875
2229.02246	10985.7875
2231.93245	10949.2875
2234.84058	10935.5875
2237.74686	10880.6875
2240.65128	10907.7875
2243.55385	10854.1875
2246.45456	10869.8875
2249.35343	10861.8875
2252.25044	10847.1875
2255.14561	10818.8875
2258.03893	10798.9875
2260.93041	10765.7875
2263.82004	10746.8875
2266.70783	10724.4875
2269.59378	10688.6875
2272.4779	10677.3875
2275.36017	10627.4875
2278.24061	10615.2875
2281.11922	10593.6875
2283.996	10591.2875
2286.87094	10547.5875
2289.74405	10522.7875
2292.61534	10503.5875
2295.4848	10505.6875
2298.35243	10523.0875
2301.21824	10500.1875
2304.08223	10483.9875
2306.94439	10502.2875
2309.80474	10505.7875
2312.66327	10491.4875
2315.51999	10484.7875
2318.37489	10473.1875
2321.22797	10461.3875
2324.07925	10430.8875
2326.92871	10391.8875
2329.77637	10396.1875
2332.62222	10393.4875
2335.46626	10409.5875
2338.3085	10396.6875
2341.14893	10363.3875
2343.98756	10385.3875
2346.8244	10385.5875
2349.65943	10331.0875
2352.49267	10349.1875
2355.32411	10371.5875
2358.15376	10354.6875
2360.98161	10369.2875
2363.80768	10369.6875
2366.63195	10377.8875
2369.45444	10364.0875
2372.27514	10342.1875
2375.09405	10319.4875
2377.91118	10269.2875
2380.72652	10255.1875
2383.54009	10212.2875
2386.35187	10212.5875
2389.16188	10160.2875
2391.97011	10130.2875
2394.77657	10107.8875
2397.58125	10088.5875
2400.38416	10085.2875
2403.18529	10049.7875
2405.98466	10034.1875
2408.78226	10020.1875
2411.57809	10002.1875
2414.37216	9982.6875
2417.16446	9981.1875
2419.955	9959.0875
2422.74378	9912.4875
2425.5308	9954.5875
2428.31606	9921.7875
2431.09956	9897.2875
2433.88131	9873.9875
2436.6613	9910.5875
2439.43954	9879.2875
2442.21603	9889.1875
2444.99077	9890.6875
2447.76377	9903.0875
2450.53501	9889.0875
2453.30451	9886.2875
2456.07226	9884.2875
2458.83827	9878.7875
2461.60254	9838.6875
2464.36507	9845.7875
2467.12586	9853.4875
2469.88492	9845.4875
2472.64224	9850.4875
2475.39782	9839.3875
2478.15167	9867.7875
2480.90379	9855.3875
2483.65417	9869.3875
2486.40283	9877.4875
2489.14976	9900.8875
2491.89497	9870.4875
2494.63845	9895.9875
2497.3802	9861.1875
2500.12024	9880.0875
2502.85855	9845.0875
2505.59514	9849.9875
2508.33002	9828.4875
2511.06318	9824.2875
2513.79462	9790.7875
2516.52435	9772.5875
2519.25237	9755.1875
2521.97867	9719.1875
2524.70327	9704.8875
2527.42616	9694.7875
2530.14734	9683.2875
2532.86681	9698.5875
2535.58458	9673.9875
2538.30065	9683.0875
2541.01501	9697.9875
2543.72768	9664.2875
2546.43864	9635.4875
2549.14791	9627.0875
2551.85548	9638.4875
2554.56136	9613.7875
2557.26554	9587.9875
2559.96803	9574.0875
2562.66883	9548.0875
2565.36794	9550.7875
2568.06536	9572.5875
2570.7611	9549.8875
2573.45514	9537.4875
2576.14751	9508.3875
2578.83819	9506.2875
2581.52719	9488.5875
2584.21451	9484.1875
2586.90015	9497.6875
2589.58411	9476.9875
2592.2664	9470.7875
2594.94701	9446.3875
2597.62594	9447.5875
2600.30321	9447.3875
2602.9788	9442.6875
2605.65273	9451.4875
2608.32498	9461.0875
2610.99557	9462.7875
2613.66449	9454.1875
2616.33175	9435.4875
2618.99734	9432.9875
2621.66128	9421.3875
2624.32355	9403.4875
2626.98416	9404.3875
2629.64311	9386.8875
2632.30041	9367.2875
2634.95605	9374.6875
2637.61004	9359.5875
2640.26238	9358.1875
2642.91306	9346.9875
2645.56209	9329.1875
2648.20948	9337.2875
2650.85521	9325.1875
2653.4993	9331.1875
2656.14175	9301.8875
2658.78255	9345.6875
2661.42171	9359.2875
2664.05923	9324.6875
2666.6951	9353.5875
2669.32934	9374.5875
2671.96194	9371.9875
2674.59291	9370.5875
2677.22224	9325.1875
2679.84993	9363.0875
2682.476	9333.0875
2685.10043	9333.9875
2687.72324	9333.6875
2690.34441	9323.8875
2692.96396	9336.3875
2695.58188	9297.3875
2698.19818	9334.1875
2700.81285	9333.1875
2703.4259	9312.6875
2706.03733	9320.5875
2708.64714	9321.0875
2711.25533	9345.1875
2713.86191	9314.9875
2716.46687	9343.6875
2719.07021	9330.1875
2721.67194	9356.6875
2724.27206	9337.8875
2726.87057	9352.7875
2729.46747	9340.4875
2732.06276	9358.4875
2734.65644	9315.9875
2737.24852	9317.9875
2739.83899	9315.5875
2742.42786	9290.3875
2745.01513	9282.2875
2747.60079	9292.4875
2750.18486	9274.9875
2752.76733	9251.2875
2755.3482	9257.7875
2757.92747	9234.4875
2760.50515	9247.1875
2763.08123	9245.4875
2765.65573	9228.0875
2768.22863	9224.7875
2770.79994	9212.5875
2773.36967	9226.2875
2775.9378	9221.3875
2778.50435	9236.3875
2781.06932	9223.0875
2783.6327	9215.4875
2786.1945	9231.0875
2788.75471	9201.9875
2791.31335	9213.0875
2793.87041	9205.0875
2796.42589	9186.1875
2798.97979	9174.0875
2801.53212	9146.8875
2804.08288	9146.4875
2806.63206	9092.9875
2809.17967	9100.0875
2811.72571	9081.0875
2814.27018	9078.9875
2816.81308	9074.0875
2819.35442	9071.1875
2821.89419	9054.1875
2824.43239	9036.4875
2826.96904	9075.9875
2829.50412	9066.5875
2832.03763	9028.7875
2834.56959	9041.8875
2837.1	9014.5875
2839.62884	9045.2875
2842.15613	9006.2875
2844.68186	9080.3875
2847.20604	9090.9875
2849.72867	9128.0875
2852.24974	9121.9875
2854.76927	9083.0875
2857.28724	9092.8875
2859.80367	9093.3875
2862.31855	9050.7875
2864.83189	9057.9875
2867.34368	9053.6875
2869.85393	9023.4875
2872.36264	9018.7875
2874.8698	9051.4875
2877.37543	9037.0875
2879.87952	9024.6875
2882.38207	9030.3875
2884.88308	9006.3875
2887.38256	9026.2875
2889.88051	9005.6875
2892.37692	9027.1875
2894.8718	9049.4875
2897.36515	9040.9875
2899.85698	9010.2875
2902.34727	9017.0875
2904.83604	9056.0875
2907.32328	9051.0875
2909.809	9050.9875
2912.29319	9061.9875
2914.77587	9079.2875
2917.25702	9034.1875
2919.73665	9026.6875
2922.21476	9031.0875
2924.69136	9029.4875
2927.16644	9010.1875
2929.64	9016.3875
2932.11205	8962.4875
2934.58258	8953.4875
2937.05161	8953.6875
2939.51912	8943.6875
2941.98513	8914.5875
2944.44962	8889.2875
2946.91261	8856.1875
2949.37409	8865.0875
2951.83407	8836.1875
2954.29254	8815.4875
2956.74951	8787.9875
2959.20498	8766.4875
2961.65895	8781.1875
2964.11142	8737.6875
2966.56239	8724.5875
2969.01186	8716.6875
2971.45984	8675.4875
2973.90632	8667.2875
2976.35131	8647.0875
2978.7948	8617.9875
2981.23681	8600.4875
2983.67732	8586.3875
2986.11635	8558.1875
2988.55388	8540.6875
2990.98993	8525.2875
2993.4245	8492.9875
2995.85758	8482.7875
2998.28917	8450.0875
3000.71928	8442.3875
3003.14791	8423.5875
3005.57506	8398.4875
3008.00073	8403.0875
3010.42493	8379.7875
3012.84764	8372.6875
3015.26888	8365.7875
3017.68865	8326.6875
3020.10694	8313.9875
3022.52376	8290.3875
3024.9391	8292.1875
3027.35298	8262.1875
3029.76539	8266.6875
3032.17632	8246.3875
3034.5858	8222.5875
3036.9938	8212.3875
3039.40034	8198.7875
3041.80542	8190.6875
3044.20903	8167.8875
3046.61118	8195.3875
3049.01187	8169.0875
3051.4111	8146.2875
3053.80888	8138.2875
3056.20519	8122.6875
3058.60005	8078.9875
3060.99345	8066.5875
3063.3854	8055.2875
3065.7759	8012.0875
3068.16494	7995.6875
3070.55254	7949.4875
3072.93868	7918.2875
3075.32338	7923.5875
3077.70662	7912.8875
3080.08842	7870.9875
3082.46878	7847.8875
3084.84769	7846.3875
3087.22515	7827.9875
3089.60118	7828.8875
3091.97576	7818.5875
3094.3489	7826.3875
3096.72061	7807.8875
3099.09087	7814.6875
3101.4597	7823.6875
3103.82709	7793.3875
3106.19305	7781.4875
3108.55757	7785.6875
3110.92066	7738.5875
3113.28232	7748.6875
3115.64255	7710.3875
3118.00134	7691.2875
3120.35871	7678.5875
3122.71466	7664.2875
3125.06917	7652.7875
3127.42226	7641.1875
3129.77393	7654.1875
3132.12417	7630.9875
3134.47299	7608.6875
3136.82039	7627.4875
3139.16636	7604.1875
3141.51092	7604.8875
3143.85406	7584.1875
3146.19579	7585.9875
3148.53609	7586.3875
3150.87499	7600.2875
3153.21246	7597.5875
3155.54853	7607.8875
3157.88318	7601.0875
3160.21642	7612.4875
3162.54826	7590.7875
3164.87868	7618.3875
3167.2077	7608.7875
3169.5353	7623.2875
3171.86151	7590.1875
3174.18631	7593.1875
3176.5097	7578.7875
3178.83169	7538.0875
3181.15228	7556.0875
3183.47147	7543.9875
3185.78926	7526.5875
3188.10565	7524.2875
3190.42065	7548.6875
3192.73424	7524.7875
3195.04645	7515.4875
3197.35725	7509.3875
3199.66667	7515.9875
3201.97469	7511.5875
3204.28132	7510.5875
3206.58656	7515.4875
3208.8904	7522.5875
3211.19287	7541.7875
3213.49394	7527.5875
3215.79363	7540.7875
3218.09193	7535.2875
3220.38884	7509.0875
3222.68438	7522.1875
3224.97853	7510.6875
3227.2713	7492.7875
3229.56269	7499.0875
3231.8527	7523.6875
3234.14133	7481.7875
3236.42858	7469.2875
3238.71446	7436.9875
3240.99896	7441.5875
3243.28209	7437.3875
3245.56384	7412.0875
3247.84423	7419.5875
3250.12324	7414.8875
3252.40088	7366.7875
3254.67715	7359.3875
3256.95205	7357.8875
3259.22558	7359.5875
3261.49775	7335.7875
3263.76855	7324.3875
3266.03799	7315.4875
3268.30606	7318.2875
3270.57277	7294.3875
3272.83812	7291.5875
3275.10211	7274.7875
3277.36474	7263.3875
3279.62601	7247.0875
3281.88593	7233.3875
3284.14448	7248.8875
3286.40168	7257.8875
3288.65753	7230.8875
3290.91202	7230.0875
3293.16516	7230.5875
3295.41695	7190.8875
3297.66738	7143.9875
3299.91647	7095.5875
3302.16421	7058.7875
3304.4106	7023.4875
3306.65564	6963.7875
3308.89933	6928.3875
3311.14169	6869.0875
3313.38269	6833.1875
3315.62236	6784.1875
3317.86068	6716.4875
3320.09766	6664.9875
3322.3333	6611.3875
3324.5676	6607.8875
3326.80056	6487.2875
3329.03219	6440.1875
3331.26248	2.4875
3333.49143	-0.1125
3335.71905	-0.8125
