Data from AgNPs_FTO_APTES_UA_5uM_CRN_2uM_R6G_10uM_NaF_0.1M_Addition_RamanShift__29__11-30-46-650.txt Node

Date: Mon Feb 07 11:30:46 GMT 2022
User: TCL
Spectrometer: QEP01345
Trigger mode: 4
Integration Time (sec): 7.000000E0
Scans to average: 10
Electric dark correction enabled: true
Nonlinearity correction enabled: false
Boxcar width: 0
XAxis mode: Raman Shifts
Number of Pixels in Spectrum: 1044
>>>>>Begin Spectral Data<<<<<
46.04893	-0.1625
50.45542	-1.8625
54.85868	-0.2625
59.25871	0.7375
63.6555	61.0375
68.04907	67.9375
72.43941	72.2375
76.82654	72.2375
81.21044	77.6375
85.59113	81.4375
89.96862	84.3375
94.34289	82.5375
98.71396	85.1375
103.08183	91.8375
107.4465	92.3375
111.80798	94.4375
116.16626	97.1375
120.52136	100.1375
124.87327	107.2375
129.222	110.4375
133.56755	122.3375
137.90993	128.0375
142.24913	136.7375
146.58517	156.7375
150.91804	178.6375
155.24774	218.0375
159.57429	272.0375
163.89768	340.8375
168.21792	461.6375
172.53501	620.0375
176.84895	857.6375
181.15975	1203.5375
185.46741	1683.6375
189.77193	2321.8375
194.07331	3110.0375
198.37157	3999.9375
202.6667	4935.1375
206.9587	5882.2375
211.24758	6844.3375
215.53334	7818.2375
219.81599	8932.3375
224.09553	10191.8375
228.37195	11609.9375
232.64527	13068.3375
236.91549	14563.1375
241.18261	15943.8375
245.44663	17109.5375
249.70755	18004.2375
253.96539	18830.9375
258.22014	19498.5375
262.4718	20088.5375
266.72039	20526.7375
270.96589	20795.0375
275.20832	20883.1375
279.44768	20813.9375
283.68397	20649.9375
287.91719	20665.0375
292.14735	20767.7375
296.37445	21089.4375
300.59849	21656.6375
304.81948	22457.8375
309.03742	23033.1375
313.25231	22983.5375
317.46415	21927.3375
321.67296	20241.5375
325.87872	18778.3375
330.08145	18038.5375
334.28114	17965.4375
338.47781	18222.5375
342.67145	18706.7375
346.86207	19492.7375
351.04966	20609.9375
355.23424	21903.8375
359.4158	22906.1375
363.59435	23261.5375
367.76989	23274.8375
371.94243	23039.5375
376.11196	22813.8375
380.27849	22604.4375
384.44203	22251.2375
388.60257	21969.0375
392.76012	21907.8375
396.91468	22211.8375
401.06626	22927.4375
405.21485	23513.8375
409.36047	23164.8375
413.50311	22088.9375
417.64277	21038.6375
421.77947	20481.4375
425.9132	20262.0375
430.04396	20241.4375
434.17176	20288.6375
438.2966	20486.9375
442.41849	20939.5375
446.53742	21569.8375
450.6534	22247.0375
454.76644	22646.6375
458.87653	22717.8375
462.98368	22516.3375
467.08789	22151.9375
471.18916	21661.3375
475.2875	21040.5375
479.38291	20657.1375
483.4754	20349.3375
487.56496	20079.7375
491.6516	19893.5375
495.73531	19860.1375
499.81612	19952.0375
503.89401	20150.8375
507.96899	20345.9375
512.04106	20462.8375
516.11023	20587.4375
520.1765	20600.8375
524.23987	20420.5375
528.30034	20048.1375
532.35792	19619.4375
536.41261	19152.2375
540.46441	18688.3375
544.51333	18531.6375
548.55936	18771.1375
552.60252	19328.3375
556.64279	19993.3375
560.6802	20271.3375
564.71473	20634.9375
568.7464	21573.1375
572.7752	22420.4375
576.80114	22212.5375
580.82422	21818.0375
584.84444	21694.0375
588.86181	21538.9375
592.87633	21420.5375
596.888	21583.6375
600.89682	22269.0375
604.9028	24635.9375
608.90594	30948.8375
612.90624	39193.4375
616.90371	37537.7375
620.89834	26207.8375
624.89015	20837.9375
628.87913	19910.5375
632.86528	20063.3375
636.84862	20307.6375
640.82913	19862.0375
644.80683	18852.3375
648.78172	18130.2375
652.75379	18167.7375
656.72306	19027.3375
660.68952	20107.4375
664.65319	19997.2375
668.61405	19014.7375
672.57211	18472.0375
676.52738	18371.1375
680.47986	18327.7375
684.42955	18126.4375
688.37646	18003.8375
692.32058	18121.3375
696.26192	18378.4375
700.20048	18665.1375
704.13626	19010.4375
708.06928	19131.6375
711.99952	18884.6375
715.927	18695.8375
719.85171	18653.0375
723.77365	18489.1375
727.69284	18248.2375
731.60928	18005.2375
735.52295	17930.8375
739.43388	18022.6375
743.34206	18164.4375
747.24749	18344.4375
751.15017	18616.8375
755.05012	19092.3375
758.94733	20225.4375
762.8418	22601.9375
766.73354	26634.0375
770.62254	30663.8375
774.50882	32089.2375
778.39237	30274.8375
782.27321	26198.0375
786.15132	22228.5375
790.02671	19893.4375
793.89938	18772.5375
797.76935	18304.4375
801.6366	18101.8375
805.50115	17955.3375
809.36299	17790.9375
813.22213	17647.2375
817.07857	17607.3375
820.93231	17569.3375
824.78336	17625.8375
828.63172	17757.3375
832.47738	17787.8375
836.32036	17797.4375
840.16066	17696.1375
843.99827	17585.0375
847.8332	17515.8375
851.66546	17456.6375
855.49504	17445.9375
859.32195	17412.8375
863.1462	17252.5375
866.96777	17180.3375
870.78668	17179.2375
874.60293	17167.9375
878.41652	17200.7375
882.22745	17340.8375
886.03573	17426.8375
889.84136	17380.8375
893.64433	17238.4375
897.44466	17240.2375
901.24235	17222.8375
905.0374	17205.3375
908.8298	17117.3375
912.61957	17115.4375
916.40671	17309.6375
920.19121	17592.4375
923.97308	17870.2375
927.75233	18060.2375
931.52895	18123.1375
935.30295	17768.5375
939.07433	17121.6375
942.84309	16677.4375
946.60924	16404.7375
950.37278	16246.9375
954.13371	16130.2375
957.89203	16043.6375
961.64774	15982.1375
965.40086	15953.8375
969.15137	15903.6375
972.89929	15826.1375
976.64461	15822.1375
980.38733	15844.5375
984.12747	15865.0375
987.86502	16005.2375
991.59999	16164.7375
995.33237	16429.7375
999.06217	16935.8375
1002.78939	17579.5375
1006.51404	18194.8375
1010.23611	18695.4375
1013.95561	18988.6375
1017.67255	18911.4375
1021.38692	18533.4375
1025.09872	18132.8375
1028.80796	17977.2375
1032.51465	18222.9375
1036.21877	18634.2375
1039.92035	18796.8375
1043.61937	18784.4375
1047.31584	18523.4375
1051.00976	18288.0375
1054.70114	18164.3375
1058.38998	18183.7375
1062.07627	18316.5375
1065.76003	18560.3375
1069.44126	18855.2375
1073.11995	19187.9375
1076.79611	19436.5375
1080.46974	19626.2375
1084.14085	20020.5375
1087.80943	20623.6375
1091.47549	20880.1375
1095.13903	20598.5375
1098.80005	19851.1375
1102.45857	19007.0375
1106.11456	18508.0375
1109.76805	18391.0375
1113.41903	18669.1375
1117.06751	19190.0375
1120.71348	19981.1375
1124.35696	20926.3375
1127.99793	21731.7375
1131.63641	21708.7375
1135.2724	20775.3375
1138.90589	19917.8375
1142.5369	19347.9375
1146.16542	19014.3375
1149.79145	18865.5375
1153.415	18907.3375
1157.03607	19219.2375
1160.65467	19733.8375
1164.27079	20560.5375
1167.88443	21884.0375
1171.49561	23937.0375
1175.10432	27130.9375
1178.71056	31209.7375
1182.31434	34216.9375
1185.91565	35178.2375
1189.51451	34603.6375
1193.11091	32690.3375
1196.70485	30155.7375
1200.29634	28040.8375
1203.88538	26381.1375
1207.47197	24612.5375
1211.05612	23190.0375
1214.63782	22335.8375
1218.21708	22129.3375
1221.79391	22212.8375
1225.36829	22504.4375
1228.94024	22785.2375
1232.50976	22975.1375
1236.07685	23050.9375
1239.6415	22878.8375
1243.20374	22666.5375
1246.76355	22622.4375
1250.32093	22870.7375
1253.8759	23427.2375
1257.42845	24276.7375
1260.97859	25189.8375
1264.52631	26047.9375
1268.07163	26945.6375
1271.61453	27805.8375
1275.15503	28563.6375
1278.69312	29111.3375
1282.22882	29620.6375
1285.76211	30478.6375
1289.29301	31598.3375
1292.82151	32684.5375
1296.34761	33870.0375
1299.87133	35584.0375
1303.39266	38314.3375
1306.9116	42496.3375
1310.42815	47248.8375
1313.94233	50403.0375
1317.45412	50341.3375
1320.96354	47932.4375
1324.47058	44948.6375
1327.97525	42218.5375
1331.47754	40447.4375
1334.97747	39583.9375
1338.47502	39374.5375
1341.97022	39709.4375
1345.46305	40238.5375
1348.95352	41146.7375
1352.44163	42693.7375
1355.92738	45635.2375
1359.41078	50979.9375
1362.89183	56456.5375
1366.37053	55367.6375
1369.84688	48053.9375
1373.32088	40380.4375
1376.79254	35438.5375
1380.26186	32865.2375
1383.72883	31546.1375
1387.19347	30566.8375
1390.65578	29560.1375
1394.11575	28873.2375
1397.57339	28694.8375
1401.0287	29064.6375
1404.48168	29604.1375
1407.93234	30144.8375
1411.38068	30318.7375
1414.82669	29948.5375
1418.27039	28954.2375
1421.71177	27825.3375
1425.15083	26891.5375
1428.58758	26369.8375
1432.02203	26310.4375
1435.45416	26459.3375
1438.88399	26619.6375
1442.31151	26687.2375
1445.73673	26948.1375
1449.15965	27185.2375
1452.58027	27254.6375
1455.9986	27123.9375
1459.41463	27163.7375
1462.82837	27476.3375
1466.23982	28028.5375
1469.64898	28594.7375
1473.05586	29053.8375
1476.46045	29257.5375
1479.86276	29722.2375
1483.26279	30261.6375
1486.66054	31009.5375
1490.05602	32010.9375
1493.44922	33377.1375
1496.84016	35351.9375
1500.22882	38259.0375
1503.61521	42056.1375
1506.99934	46448.9375
1510.38121	50648.8375
1513.76081	52790.9375
1517.13816	51075.3375
1520.51324	45992.7375
1523.88607	40643.2375
1527.25665	36727.2375
1530.62498	34361.1375
1533.99105	32867.8375
1537.35488	31820.8375
1540.71647	31055.8375
1544.07581	30541.8375
1547.4329	30068.7375
1550.78776	29636.6375
1554.14038	29352.5375
1557.49077	29464.8375
1560.83892	29986.0375
1564.18484	30749.0375
1567.52853	31485.0375
1570.86999	31921.6375
1574.20922	32237.8375
1577.54624	32032.2375
1580.88103	30720.9375
1584.2136	29111.5375
1587.54395	28664.6375
1590.87208	29652.4375
1594.19801	31713.9375
1597.52172	34069.7375
1600.84321	34923.7375
1604.16251	33393.4375
1607.47959	30743.2375
1610.79447	27929.2375
1614.10715	25382.7375
1617.41763	23340.8375
1620.7259	22091.2375
1624.03199	21528.7375
1627.33587	21585.6375
1630.63757	22275.1375
1633.93707	23710.0375
1637.23439	25939.3375
1640.52951	28956.7375
1643.82246	32501.5375
1647.11321	36186.3375
1650.40179	38528.5375
1653.68819	37298.0375
1656.97241	32458.3375
1660.25446	26844.6375
1663.53433	22612.4375
1666.81203	19958.8375
1670.08756	18378.4375
1673.36092	17458.7375
1676.63211	16869.4375
1679.90115	16490.7375
1683.16801	16195.9375
1686.43272	15953.3375
1689.69527	15800.9375
1692.95567	15658.0375
1696.2139	15619.3375
1699.46999	15551.8375
1702.72392	15467.5375
1705.97571	15449.9375
1709.22535	15419.1375
1712.47284	15433.3375
1715.71819	15415.5375
1718.96139	15402.9375
1722.20246	15385.8375
1725.44139	15324.1375
1728.67818	15215.7375
1731.91284	15068.9375
1735.14537	14979.9375
1738.37576	14858.7375
1741.60403	14777.4375
1744.83017	14714.0375
1748.05418	14653.1375
1751.27607	14631.9375
1754.49584	14611.5375
1757.71349	14583.6375
1760.92903	14573.4375
1764.14244	14548.8375
1767.35375	14564.8375
1770.56294	14486.2375
1773.77002	14449.2375
1776.97499	14370.7375
1780.17785	14342.1375
1783.37861	14310.0375
1786.57727	14291.2375
1789.77382	14250.6375
1792.96828	14240.9375
1796.16064	14225.4375
1799.3509	14207.6375
1802.53907	14180.7375
1805.72514	14164.5375
1808.90913	14085.2375
1812.09102	14018.6375
1815.27083	14012.5375
1818.44856	14002.3375
1821.6242	13952.7375
1824.79776	13937.0375
1827.96924	13909.7375
1831.13864	13936.8375
1834.30597	13908.3375
1837.47122	13907.2375
1840.6344	13908.3375
1843.7955	13866.6375
1846.95454	13924.8375
1850.11151	13952.8375
1853.26642	13934.4375
1856.41926	13934.8375
1859.57004	13966.1375
1862.71876	13966.1375
1865.86542	14014.0375
1869.01003	13984.4375
1872.15258	14002.2375
1875.29308	14040.3375
1878.43152	14046.2375
1881.56792	14133.7375
1884.70227	14137.4375
1887.83457	14134.5375
1890.96482	14157.7375
1894.09304	14190.2375
1897.21921	14163.0375
1900.34335	14185.2375
1903.46544	14191.7375
1906.58551	14241.9375
1909.70353	14228.4375
1912.81953	14211.2375
1915.93349	14241.1375
1919.04543	14225.7375
1922.15534	14175.0375
1925.26322	14157.7375
1928.36908	14094.7375
1931.47292	13995.7375
1934.57473	13889.0375
1937.67453	13795.4375
1940.77232	13683.5375
1943.86808	13569.9375
1946.96184	13467.1375
1950.05358	13405.7375
1953.14331	13355.3375
1956.23103	13268.6375
1959.31675	13205.4375
1962.40046	13169.6375
1965.48217	13128.6375
1968.56188	13099.2375
1971.63959	13055.3375
1974.7153	12983.9375
1977.78901	12944.6375
1980.86073	12903.2375
1983.93046	12836.2375
1986.99819	12779.3375
1990.06394	12744.7375
1993.1277	12713.8375
1996.18947	12656.5375
1999.24925	12608.4375
2002.30706	12563.1375
2005.36288	12553.1375
2008.41672	12524.1375
2011.46859	12473.5375
2014.51848	12426.2375
2017.56639	12399.3375
2020.61233	12364.0375
2023.6563	12317.7375
2026.6983	12285.3375
2029.73833	12245.7375
2032.7764	12212.9375
2035.8125	12204.7375
2038.84664	12158.8375
2041.87881	12165.7375
2044.90903	12136.2375
2047.93729	12096.4375
2050.96359	12113.6375
2053.98794	12053.9375
2057.01034	12047.1375
2060.03078	12047.9375
2063.04927	12019.9375
2066.06582	12023.4375
2069.08042	11998.2375
2072.09307	11995.4375
2075.10378	11987.0375
2078.11255	11956.5375
2081.11938	11964.2375
2084.12426	11943.0375
2087.12722	11960.5375
2090.12824	11904.4375
2093.12732	11924.0375
2096.12447	11918.0375
2099.11969	11950.1375
2102.11299	11932.6375
2105.10435	11912.6375
2108.09379	11911.1375
2111.08131	11910.0375
2114.0669	11933.8375
2117.05057	11941.2375
2120.03233	11935.8375
2123.01216	11936.9375
2125.99008	11943.5375
2128.96609	11962.4375
2131.94018	11969.9375
2134.91236	11996.8375
2137.88263	11963.9375
2140.851	11982.3375
2143.81746	11983.1375
2146.78201	11966.2375
2149.74466	11932.6375
2152.7054	11933.1375
2155.66425	11929.6375
2158.6212	11894.5375
2161.57625	11873.9375
2164.52941	11898.8375
2167.48067	11891.4375
2170.43004	11869.4375
2173.37752	11882.6375
2176.32311	11889.7375
2179.26681	11875.0375
2182.20863	11872.6375
2185.14856	11871.7375
2188.08661	11876.8375
2191.02278	11873.6375
2193.95707	11865.4375
2196.88948	11847.5375
2199.82001	11835.8375
2202.74867	11803.0375
2205.67545	11796.8375
2208.60037	11815.3375
2211.52341	11770.5375
2214.44458	11773.2375
2217.36388	11744.2375
2220.28132	11719.7375
2223.1969	11665.8375
2226.11061	11664.0375
2229.02246	11628.5375
2231.93245	11623.7375
2234.84058	11583.9375
2237.74686	11576.4375
2240.65128	11556.7375
2243.55385	11532.8375
2246.45456	11530.6375
2249.35343	11516.2375
2252.25044	11505.5375
2255.14561	11477.3375
2258.03893	11493.7375
2260.93041	11481.5375
2263.82004	11454.7375
2266.70783	11413.5375
2269.59378	11370.0375
2272.4779	11355.4375
2275.36017	11326.5375
2278.24061	11274.8375
2281.11922	11262.8375
2283.996	11257.9375
2286.87094	11252.1375
2289.74405	11220.1375
2292.61534	11199.7375
2295.4848	11157.3375
2298.35243	11175.8375
2301.21824	11166.1375
2304.08223	11155.8375
2306.94439	11153.2375
2309.80474	11166.2375
2312.66327	11159.8375
2315.51999	11172.4375
2318.37489	11150.1375
2321.22797	11140.2375
2324.07925	11098.1375
2326.92871	11135.3375
2329.77637	11121.3375
2332.62222	11062.8375
2335.46626	11072.3375
2338.3085	11058.0375
2341.14893	11047.7375
2343.98756	11078.2375
2346.8244	11089.8375
2349.65943	11091.8375
2352.49267	11112.0375
2355.32411	11119.0375
2358.15376	11141.5375
2360.98161	11130.1375
2363.80768	11126.3375
2366.63195	11135.0375
2369.45444	11141.8375
2372.27514	11110.5375
2375.09405	11100.1375
2377.91118	11080.4375
2380.72652	11014.4375
2383.54009	10982.1375
2386.35187	10965.1375
2389.16188	10901.4375
2391.97011	10872.0375
2394.77657	10879.0375
2397.58125	10807.8375
2400.38416	10780.7375
2403.18529	10760.5375
2405.98466	10742.9375
2408.78226	10711.5375
2411.57809	10683.4375
2414.37216	10671.0375
2417.16446	10672.1375
2419.955	10670.1375
2422.74378	10657.0375
2425.5308	10616.8375
2428.31606	10624.0375
2431.09956	10627.2375
2433.88131	10624.7375
2436.6613	10641.3375
2439.43954	10635.5375
2442.21603	10619.8375
2444.99077	10603.1375
2447.76377	10610.1375
2450.53501	10635.6375
2453.30451	10630.0375
2456.07226	10596.8375
2458.83827	10581.1375
2461.60254	10613.1375
2464.36507	10597.4375
2467.12586	10565.6375
2469.88492	10570.1375
2472.64224	10589.0375
2475.39782	10605.9375
2478.15167	10648.7375
2480.90379	10631.2375
2483.65417	10656.7375
2486.40283	10666.8375
2489.14976	10712.9375
2491.89497	10705.2375
2494.63845	10713.7375
2497.3802	10718.1375
2500.12024	10708.0375
2502.85855	10711.3375
2505.59514	10662.1375
2508.33002	10638.6375
2511.06318	10608.7375
2513.79462	10566.4375
2516.52435	10527.2375
2519.25237	10506.6375
2521.97867	10500.0375
2524.70327	10475.8375
2527.42616	10434.5375
2530.14734	10453.5375
2532.86681	10433.4375
2535.58458	10438.3375
2538.30065	10401.7375
2541.01501	10431.2375
2543.72768	10432.4375
2546.43864	10396.7375
2549.14791	10405.4375
2551.85548	10403.7375
2554.56136	10385.4375
2557.26554	10362.6375
2559.96803	10361.6375
2562.66883	10354.3375
2565.36794	10343.7375
2568.06536	10299.4375
2570.7611	10279.8375
2573.45514	10290.8375
2576.14751	10266.2375
2578.83819	10255.8375
2581.52719	10265.8375
2584.21451	10253.7375
2586.90015	10262.9375
2589.58411	10261.6375
2592.2664	10257.1375
2594.94701	10230.8375
2597.62594	10245.5375
2600.30321	10236.0375
2602.9788	10227.2375
2605.65273	10225.6375
2608.32498	10234.1375
2610.99557	10220.1375
2613.66449	10234.8375
2616.33175	10227.9375
2618.99734	10239.4375
2621.66128	10246.1375
2624.32355	10184.2375
2626.98416	10187.4375
2629.64311	10185.2375
2632.30041	10204.3375
2634.95605	10168.6375
2637.61004	10155.0375
2640.26238	10153.2375
2642.91306	10133.4375
2645.56209	10119.5375
2648.20948	10109.6375
2650.85521	10096.8375
2653.4993	10116.7375
2656.14175	10085.0375
2658.78255	10100.0375
2661.42171	10100.9375
2664.05923	10129.6375
2666.6951	10132.0375
2669.32934	10167.7375
2671.96194	10176.2375
2674.59291	10178.5375
2677.22224	10200.6375
2679.84993	10184.2375
2682.476	10172.5375
2685.10043	10170.6375
2687.72324	10155.6375
2690.34441	10149.0375
2692.96396	10132.5375
2695.58188	10140.6375
2698.19818	10112.6375
2700.81285	10100.8375
2703.4259	10126.7375
2706.03733	10169.2375
2708.64714	10160.5375
2711.25533	10156.2375
2713.86191	10153.7375
2716.46687	10160.4375
2719.07021	10148.9375
2721.67194	10167.0375
2724.27206	10140.2375
2726.87057	10170.8375
2729.46747	10173.2375
2732.06276	10155.4375
2734.65644	10161.9375
2737.24852	10141.3375
2739.83899	10112.4375
2742.42786	10139.4375
2745.01513	10084.2375
2747.60079	10093.9375
2750.18486	10111.9375
2752.76733	10069.2375
2755.3482	10034.3375
2757.92747	10056.5375
2760.50515	10048.7375
2763.08123	10037.0375
2765.65573	10017.6375
2768.22863	10011.1375
2770.79994	9995.4375
2773.36967	9994.0375
2775.9378	10011.5375
2778.50435	9994.0375
2781.06932	10014.3375
2783.6327	9985.5375
2786.1945	9998.3375
2788.75471	10017.1375
2791.31335	9984.8375
2793.87041	9960.2375
2796.42589	9957.3375
2798.97979	9935.2375
2801.53212	9926.6375
2804.08288	9906.5375
2806.63206	9896.6375
2809.17967	9917.4375
2811.72571	9898.2375
2814.27018	9885.5375
2816.81308	9881.1375
2819.35442	9887.7375
2821.89419	9878.3375
2824.43239	9926.0375
2826.96904	9896.8375
2829.50412	9912.1375
2832.03763	9896.1375
2834.56959	9888.2375
2837.1	9893.0375
2839.62884	9911.3375
2842.15613	9932.4375
2844.68186	10003.3375
2847.20604	10051.5375
2849.72867	10070.9375
2852.24974	10118.3375
2854.76927	10094.5375
2857.28724	10108.3375
2859.80367	10084.1375
2862.31855	10057.7375
2864.83189	10016.9375
2867.34368	10010.6375
2869.85393	9994.7375
2872.36264	9979.2375
2874.8698	9987.5375
2877.37543	9979.4375
2879.87952	9963.1375
2882.38207	9960.9375
2884.88308	9919.8375
2887.38256	9945.4375
2889.88051	9944.0375
2892.37692	9935.1375
2894.8718	9924.3375
2897.36515	9930.0375
2899.85698	9936.3375
2902.34727	9969.6375
2904.83604	9979.6375
2907.32328	10005.5375
2909.809	9995.4375
2912.29319	10018.2375
2914.77587	9974.7375
2917.25702	9969.8375
2919.73665	9934.7375
2922.21476	9951.4375
2924.69136	9924.9375
2927.16644	9938.9375
2929.64	9904.1375
2932.11205	9848.9375
2934.58258	9821.1375
2937.05161	9832.6375
2939.51912	9794.4375
2941.98513	9727.6375
2944.44962	9707.6375
2946.91261	9654.3375
2949.37409	9649.0375
2951.83407	9601.1375
2954.29254	9570.6375
2956.74951	9561.2375
2959.20498	9529.4375
2961.65895	9525.7375
2964.11142	9504.0375
2966.56239	9474.3375
2969.01186	9468.7375
2971.45984	9427.0375
2973.90632	9424.1375
2976.35131	9388.6375
2978.7948	9352.7375
2981.23681	9331.9375
2983.67732	9328.9375
2986.11635	9290.0375
2988.55388	9251.0375
2990.98993	9226.0375
2993.4245	9197.0375
2995.85758	9207.8375
2998.28917	9150.2375
3000.71928	9150.9375
3003.14791	9104.7375
3005.57506	9098.7375
3008.00073	9090.9375
3010.42493	9075.9375
3012.84764	9062.6375
3015.26888	9053.3375
3017.68865	9013.8375
3020.10694	9026.3375
3022.52376	8997.6375
3024.9391	8975.9375
3027.35298	8936.5375
3029.76539	8939.8375
3032.17632	8921.1375
3034.5858	8883.5375
3036.9938	8889.3375
3039.40034	8892.8375
3041.80542	8863.7375
3044.20903	8876.0375
3046.61118	8841.4375
3049.01187	8832.6375
3051.4111	8802.3375
3053.80888	8789.5375
3056.20519	8767.0375
3058.60005	8742.9375
3060.99345	8711.0375
3063.3854	8691.4375
3065.7759	8660.4375
3068.16494	8627.0375
3070.55254	8617.0375
3072.93868	8587.8375
3075.32338	8550.7375
3077.70662	8525.1375
3080.08842	8479.1375
3082.46878	8475.3375
3084.84769	8444.6375
3087.22515	8453.4375
3089.60118	8424.3375
3091.97576	8408.1375
3094.3489	8410.8375
3096.72061	8402.2375
3099.09087	8402.7375
3101.4597	8370.6375
3103.82709	8379.4375
3106.19305	8368.0375
3108.55757	8347.0375
3110.92066	8307.7375
3113.28232	8337.7375
3115.64255	8305.5375
3118.00134	8279.0375
3120.35871	8267.2375
3122.71466	8248.6375
3125.06917	8232.2375
3127.42226	8189.7375
3129.77393	8220.6375
3132.12417	8185.6375
3134.47299	8201.4375
3136.82039	8169.6375
3139.16636	8192.7375
3141.51092	8160.1375
3143.85406	8160.3375
3146.19579	8174.4375
3148.53609	8173.8375
3150.87499	8170.4375
3153.21246	8174.8375
3155.54853	8195.5375
3157.88318	8187.5375
3160.21642	8187.8375
3162.54826	8181.4375
3164.87868	8199.9375
3167.2077	8171.1375
3169.5353	8153.3375
3171.86151	8160.3375
3174.18631	8157.3375
3176.5097	8167.7375
3178.83169	8138.7375
3181.15228	8157.1375
3183.47147	8126.4375
3185.78926	8128.0375
3188.10565	8081.3375
3190.42065	8106.9375
3192.73424	8107.3375
3195.04645	8064.7375
3197.35725	8076.4375
3199.66667	8088.0375
3201.97469	8093.5375
3204.28132	8088.2375
3206.58656	8110.5375
3208.8904	8108.4375
3211.19287	8102.3375
3213.49394	8108.7375
3215.79363	8109.1375
3218.09193	8105.7375
3220.38884	8112.3375
3222.68438	8111.3375
3224.97853	8114.4375
3227.2713	8110.9375
3229.56269	8104.2375
3231.8527	8092.1375
3234.14133	8067.9375
3236.42858	8038.6375
3238.71446	8040.5375
3240.99896	7998.5375
3243.28209	8002.7375
3245.56384	7982.8375
3247.84423	7987.5375
3250.12324	7964.8375
3252.40088	7953.7375
3254.67715	7958.3375
3256.95205	7960.4375
3259.22558	7915.9375
3261.49775	7897.5375
3263.76855	7909.3375
3266.03799	7887.8375
3268.30606	7864.4375
3270.57277	7863.9375
3272.83812	7824.1375
3275.10211	7816.5375
3277.36474	7808.7375
3279.62601	7807.4375
3281.88593	7793.2375
3284.14448	7802.3375
3286.40168	7802.0375
3288.65753	7794.1375
3290.91202	7751.1375
3293.16516	7760.3375
3295.41695	7733.8375
3297.66738	7698.2375
3299.91647	7644.0375
3302.16421	7614.7375
3304.4106	7559.5375
3306.65564	7504.3375
3308.89933	7450.8375
3311.14169	7403.3375
3313.38269	7330.2375
3315.62236	7290.6375
3317.86068	7218.8375
3320.09766	7156.7375
3322.3333	7094.0375
3324.5676	7080.4375
3326.80056	6978.1375
3329.03219	6915.8375
3331.26248	2.5375
3333.49143	-1.5625
3335.71905	-0.2625
