Data from AgNPs_FTO_APTES_UA_5uM_CRN_500uM_R6G_10uM_NaF_0.1M_Addition_RamanShift__30__17-15-41-850.txt Node

Date: Mon Feb 07 17:15:41 GMT 2022
User: TCL
Spectrometer: QEP01345
Trigger mode: 4
Integration Time (sec): 7.000000E0
Scans to average: 10
Electric dark correction enabled: true
Nonlinearity correction enabled: false
Boxcar width: 0
XAxis mode: Raman Shifts
Number of Pixels in Spectrum: 1044
>>>>>Begin Spectral Data<<<<<
46.04893	-1.6
50.45542	0.3
54.85868	1.6
59.25871	-1
63.6555	40.5
68.04907	42.2
72.43941	47.7
76.82654	48
81.21044	46.4
85.59113	49.7
89.96862	54.2
94.34289	56.7
98.71396	55.3
103.08183	59.4
107.4465	62.2
111.80798	63.1
116.16626	64
120.52136	67.6
124.87327	68.9
129.222	77
133.56755	76.6
137.90993	80.1
142.24913	90.1
146.58517	97.8
150.91804	112.8
155.24774	136.7
159.57429	170.6
163.89768	216.3
168.21792	289
172.53501	393.6
176.84895	539.3
181.15975	758.9
185.46741	1063.5
189.77193	1461.2
194.07331	1960.5
198.37157	2526.8
202.6667	3126.6
206.9587	3718.3
211.24758	4335
215.53334	4960
219.81599	5674.8
224.09553	6481.2
228.37195	7375.6
232.64527	8355.8
236.91549	9307.3
241.18261	10181.9
245.44663	10849.6
249.70755	11443.2
253.96539	11880.3
258.22014	12279.8
262.4718	12605.9
266.72039	12856.4
270.96589	12973.1
275.20832	12968.3
279.44768	12869.6
283.68397	12732.3
287.91719	12666.6
292.14735	12806.9
296.37445	13124.8
300.59849	13705
304.81948	14344.4
309.03742	14828.3
313.25231	14768.7
317.46415	13993.3
321.67296	12775.9
325.87872	11712.4
330.08145	11194.1
334.28114	11155.7
338.47781	11356.5
342.67145	11721.6
346.86207	12299
351.04966	13183.8
355.23424	14144.7
359.4158	14800.5
363.59435	15017.8
367.76989	15026.8
371.94243	14920.1
376.11196	14691.9
380.27849	14544.2
384.44203	14330.2
388.60257	14107.1
392.76012	13959.6
396.91468	14049.1
401.06626	14519.3
405.21485	14910
409.36047	14584.9
413.50311	13668.8
417.64277	12835.4
421.77947	12333.3
425.9132	12121.9
430.04396	12116.1
434.17176	12154.6
438.2966	12327.7
442.41849	12615.7
446.53742	13008.2
450.6534	13412.8
454.76644	13647.7
458.87653	13650.6
462.98368	13499.3
467.08789	13260.8
471.18916	13020
475.2875	12718.8
479.38291	12459.7
483.4754	12218.6
487.56496	12018
491.6516	11855.8
495.73531	11787.1
499.81612	11845.1
503.89401	12011.5
507.96899	12208
512.04106	12407.6
516.11023	12582.4
520.1765	12718.7
524.23987	12692.1
528.30034	12408.7
532.35792	12107.7
536.41261	11808.6
540.46441	11497.7
544.51333	11362.3
548.55936	11466.8
552.60252	11826.3
556.64279	12250.8
560.6802	12518.4
564.71473	12839.7
568.7464	13564.8
572.7752	14023.2
576.80114	13513.8
580.82422	12796.1
584.84444	12426.6
588.86181	12330.1
592.87633	12361.5
596.888	12477.8
600.89682	12881.5
604.9028	14517.3
608.90594	19110.9
612.90624	25613
616.90371	24837.7
620.89834	16518.2
624.89015	12506
628.87913	11751.1
632.86528	11873.6
636.84862	12087.4
640.82913	11868.1
644.80683	11309.1
648.78172	10863.9
652.75379	10914.5
656.72306	11464.1
660.68952	12188.1
664.65319	12080.6
668.61405	11356.2
672.57211	10995.2
676.52738	11008.1
680.47986	11005
684.42955	10905.3
688.37646	10834.9
692.32058	10847.5
696.26192	10959
700.20048	11131.7
704.13626	11255.1
708.06928	11234.1
711.99952	11120.5
715.927	11048.9
719.85171	11082.3
723.77365	11077
727.69284	10916
731.60928	10745
735.52295	10680.1
739.43388	10724.2
743.34206	10758.1
747.24749	10832.1
751.15017	10918.6
755.05012	11233.2
758.94733	11914.1
762.8418	13554.9
766.73354	16349.2
770.62254	19230
774.50882	20672.5
778.39237	19778.9
782.27321	16739.2
786.15132	13729.1
790.02671	11941.4
793.89938	11192.2
797.76935	10862.6
801.6366	10702.3
805.50115	10619.4
809.36299	10547.6
813.22213	10488.6
817.07857	10469.3
820.93231	10468.5
824.78336	10525.6
828.63172	10586.9
832.47738	10630.2
836.32036	10558
840.16066	10459.7
843.99827	10358.6
847.8332	10317.4
851.66546	10308
855.49504	10301.4
859.32195	10263.6
863.1462	10226.8
866.96777	10159.5
870.78668	10105.2
874.60293	10139.2
878.41652	10196.2
882.22745	10284.7
886.03573	10333.9
889.84136	10316.6
893.64433	10216.2
897.44466	10226.7
901.24235	10225.7
905.0374	10185.6
908.8298	10123.2
912.61957	10111.2
916.40671	10170.8
920.19121	10308.3
923.97308	10400.1
927.75233	10513
931.52895	10619.3
935.30295	10472.2
939.07433	10096.2
942.84309	9748.1
946.60924	9556.8
950.37278	9422.5
954.13371	9376.5
957.89203	9340.3
961.64774	9317
965.40086	9284.8
969.15137	9249.5
972.89929	9215.5
976.64461	9198.2
980.38733	9198.7
984.12747	9226.1
987.86502	9247.3
991.59999	9300.5
995.33237	9383.6
999.06217	9567.7
1002.78939	9840.5
1006.51404	10082.8
1010.23611	10342.6
1013.95561	10481
1017.67255	10398.3
1021.38692	10229.7
1025.09872	10007.1
1028.80796	9882
1032.51465	9864.9
1036.21877	9962.7
1039.92035	10111.8
1043.61937	10206.4
1047.31584	10254.9
1051.00976	10281
1054.70114	10288.3
1058.38998	10325.5
1062.07627	10416.2
1065.76003	10499.5
1069.44126	10567.3
1073.11995	10677.4
1076.79611	10844.2
1080.46974	11078.6
1084.14085	11430.5
1087.80943	11815.4
1091.47549	11963.2
1095.13903	11732.5
1098.80005	11254.7
1102.45857	10810.7
1106.11456	10624.9
1109.76805	10678.1
1113.41903	10937.2
1117.06751	11445.4
1120.71348	12115.7
1124.35696	12862.6
1127.99793	13433.5
1131.63641	13243.7
1135.2724	12388.8
1138.90589	11648.4
1142.5369	11225
1146.16542	10991.5
1149.79145	10876.8
1153.415	10879.4
1157.03607	11001.9
1160.65467	11285.5
1164.27079	11810.5
1167.88443	12595.9
1171.49561	13841.9
1175.10432	15945.2
1178.71056	18609.3
1182.31434	20333.3
1185.91565	20476
1189.51451	19751.5
1193.11091	18482.3
1196.70485	16993
1200.29634	15902.2
1203.88538	15032.8
1207.47197	13947.9
1211.05612	13023.3
1214.63782	12533.4
1218.21708	12383.1
1221.79391	12368.7
1225.36829	12368.5
1228.94024	12404.7
1232.50976	12399.9
1236.07685	12422.4
1239.6415	12398.1
1243.20374	12457
1246.76355	12538.2
1250.32093	12682.6
1253.8759	12965.6
1257.42845	13391
1260.97859	13836.8
1264.52631	14341
1268.07163	14815.6
1271.61453	15229.1
1275.15503	15544.7
1278.69312	15599.2
1282.22882	15672.3
1285.76211	16063.8
1289.29301	16729.2
1292.82151	17409.3
1296.34761	18125.8
1299.87133	19225.5
1303.39266	21072.3
1306.9116	23870
1310.42815	27040.3
1313.94233	28755.6
1317.45412	28041.4
1320.96354	25809.5
1324.47058	23546.5
1327.97525	21635.1
1331.47754	20461.7
1334.97747	19983.9
1338.47502	20022.6
1341.97022	20508.9
1345.46305	21409.7
1348.95352	22720.5
1352.44163	24460.8
1355.92738	27190.5
1359.41078	31518.9
1362.89183	35425.4
1366.37053	33945.3
1369.84688	28193.2
1373.32088	22877
1376.79254	19611.9
1380.26186	17984.1
1383.72883	17085.3
1387.19347	16482.2
1390.65578	15898.9
1394.11575	15425.4
1397.57339	15254
1401.0287	15303
1404.48168	15442
1407.93234	15592.3
1411.38068	15609.7
1414.82669	15405.8
1418.27039	14974.1
1421.71177	14503.6
1425.15083	14082.4
1428.58758	13839
1432.02203	13850.3
1435.45416	13962.5
1438.88399	14062.8
1442.31151	14082.3
1445.73673	14178.2
1449.15965	14309.4
1452.58027	14326.7
1455.9986	14295
1459.41463	14392.3
1462.82837	14641.5
1466.23982	14956.1
1469.64898	15294.7
1473.05586	15533.7
1476.46045	15636
1479.86276	15822.2
1483.26279	16151.6
1486.66054	16587.6
1490.05602	17218.6
1493.44922	18075.1
1496.84016	19536.5
1500.22882	21799.1
1503.61521	24892.2
1506.99934	28402.9
1510.38121	31753.6
1513.76081	33288.5
1517.13816	31456.5
1520.51324	27189.8
1523.88607	22974.9
1527.25665	20193.6
1530.62498	18656.4
1533.99105	17766.4
1537.35488	17196.2
1540.71647	16832.4
1544.07581	16610.4
1547.4329	16423.1
1550.78776	16309.6
1554.14038	16274.9
1557.49077	16384.1
1560.83892	16746.4
1564.18484	17366.1
1567.52853	18026
1570.86999	18542.2
1574.20922	18759
1577.54624	18540.5
1580.88103	17499.3
1584.2136	16134.3
1587.54395	15408.8
1590.87208	15579.1
1594.19801	16448.4
1597.52172	17687.9
1600.84321	18224.2
1604.16251	17532.2
1607.47959	16249.1
1610.79447	14884.8
1614.10715	13534.3
1617.41763	12513.5
1620.7259	11829.6
1624.03199	11508.4
1627.33587	11505.2
1630.63757	11751.2
1633.93707	12377.7
1637.23439	13386.4
1640.52951	15006.5
1643.82246	17303.1
1647.11321	20086
1650.40179	22091.7
1653.68819	21533.1
1656.97241	18442.8
1660.25446	14913.8
1663.53433	12413.8
1666.81203	10956.5
1670.08756	10101.2
1673.36092	9570.9
1676.63211	9293.4
1679.90115	9058.7
1683.16801	8874.3
1686.43272	8750.3
1689.69527	8642.8
1692.95567	8558.2
1696.2139	8504.8
1699.46999	8477
1702.72392	8407.2
1705.97571	8427.1
1709.22535	8401.6
1712.47284	8383.6
1715.71819	8408.5
1718.96139	8408.2
1722.20246	8407.3
1725.44139	8340.5
1728.67818	8278.4
1731.91284	8201.5
1735.14537	8112.6
1738.37576	8071.4
1741.60403	8000.8
1744.83017	7978.3
1748.05418	7944.1
1751.27607	7937.2
1754.49584	7908.9
1757.71349	7871.7
1760.92903	7870.7
1764.14244	7853.4
1767.35375	7841.2
1770.56294	7798.1
1773.77002	7776
1776.97499	7711.8
1780.17785	7695.5
1783.37861	7689.4
1786.57727	7649.4
1789.77382	7656.1
1792.96828	7631.2
1796.16064	7619.2
1799.3509	7606.8
1802.53907	7574.7
1805.72514	7529.7
1808.90913	7516.1
1812.09102	7480.3
1815.27083	7468.3
1818.44856	7434.9
1821.6242	7417.1
1824.79776	7396.4
1827.96924	7411.2
1831.13864	7369.4
1834.30597	7386
1837.47122	7361.7
1840.6344	7353.2
1843.7955	7326.2
1846.95454	7319.7
1850.11151	7316.7
1853.26642	7319
1856.41926	7306.3
1859.57004	7295
1862.71876	7298.4
1865.86542	7303.3
1869.01003	7304
1872.15258	7273.8
1875.29308	7290.7
1878.43152	7268.8
1881.56792	7295.6
1884.70227	7275.8
1887.83457	7284.7
1890.96482	7278.2
1894.09304	7267.9
1897.21921	7252.8
1900.34335	7280.2
1903.46544	7284.8
1906.58551	7289.8
1909.70353	7264.6
1912.81953	7259.8
1915.93349	7252.8
1919.04543	7264.1
1922.15534	7251.6
1925.26322	7224
1928.36908	7189.6
1931.47292	7192.6
1934.57473	7135.2
1937.67453	7112.9
1940.77232	7062.3
1943.86808	7024.8
1946.96184	6979.1
1950.05358	6960.3
1953.14331	6936.8
1956.23103	6882.4
1959.31675	6881.5
1962.40046	6868.7
1965.48217	6823.6
1968.56188	6803.9
1971.63959	6787.5
1974.7153	6786.9
1977.78901	6764
1980.86073	6723.8
1983.93046	6713.1
1986.99819	6660.8
1990.06394	6656.4
1993.1277	6632
1996.18947	6591.6
1999.24925	6561.1
2002.30706	6549.1
2005.36288	6530.7
2008.41672	6508.3
2011.46859	6484.9
2014.51848	6454.2
2017.56639	6441.6
2020.61233	6435.4
2023.6563	6390.7
2026.6983	6371.2
2029.73833	6344.3
2032.7764	6318.5
2035.8125	6333.5
2038.84664	6309.7
2041.87881	6298.2
2044.90903	6255.9
2047.93729	6261.4
2050.96359	6275.6
2053.98794	6249.5
2057.01034	6236.3
2060.03078	6218.2
2063.04927	6227.6
2066.06582	6216
2069.08042	6214.9
2072.09307	6203.7
2075.10378	6179.9
2078.11255	6176.1
2081.11938	6188.7
2084.12426	6193
2087.12722	6159.9
2090.12824	6162.4
2093.12732	6170.9
2096.12447	6177
2099.11969	6143.3
2102.11299	6138.3
2105.10435	6128.7
2108.09379	6157.3
2111.08131	6137.5
2114.0669	6157.6
2117.05057	6160.1
2120.03233	6175.2
2123.01216	6173.9
2125.99008	6180.3
2128.96609	6171.6
2131.94018	6166
2134.91236	6185.7
2137.88263	6172.9
2140.851	6199.6
2143.81746	6171.3
2146.78201	6176.3
2149.74466	6158.7
2152.7054	6138.9
2155.66425	6128.9
2158.6212	6129.5
2161.57625	6115.5
2164.52941	6108.4
2167.48067	6124
2170.43004	6096.3
2173.37752	6096.4
2176.32311	6127.2
2179.26681	6108.6
2182.20863	6099.3
2185.14856	6104.3
2188.08661	6097.8
2191.02278	6099.4
2193.95707	6078.1
2196.88948	6073.7
2199.82001	6058.4
2202.74867	6036.9
2205.67545	6041.3
2208.60037	6050.7
2211.52341	6009.4
2214.44458	6009.9
2217.36388	5981.9
2220.28132	5980.8
2223.1969	5945.4
2226.11061	5933
2229.02246	5925.2
2231.93245	5905
2234.84058	5881.7
2237.74686	5892.6
2240.65128	5868.8
2243.55385	5867.2
2246.45456	5876.3
2249.35343	5854.1
2252.25044	5866.9
2255.14561	5834.6
2258.03893	5846.2
2260.93041	5830.3
2263.82004	5826.9
2266.70783	5821.8
2269.59378	5804.1
2272.4779	5783.2
2275.36017	5762.1
2278.24061	5759.7
2281.11922	5731.8
2283.996	5732.5
2286.87094	5710.2
2289.74405	5695.7
2292.61534	5681.1
2295.4848	5677.3
2298.35243	5674.1
2301.21824	5663.3
2304.08223	5668.1
2306.94439	5678.2
2309.80474	5655.9
2312.66327	5645
2315.51999	5637.7
2318.37489	5651.7
2321.22797	5621.1
2324.07925	5606.9
2326.92871	5594.3
2329.77637	5606.2
2332.62222	5589.8
2335.46626	5581.9
2338.3085	5579.9
2341.14893	5576.4
2343.98756	5583.3
2346.8244	5595
2349.65943	5572.8
2352.49267	5568.8
2355.32411	5577.3
2358.15376	5602.5
2360.98161	5600.8
2363.80768	5628.6
2366.63195	5639.8
2369.45444	5643.1
2372.27514	5638.3
2375.09405	5614.6
2377.91118	5593.8
2380.72652	5579.6
2383.54009	5553.2
2386.35187	5532.6
2389.16188	5495.1
2391.97011	5479.5
2394.77657	5454.3
2397.58125	5430.4
2400.38416	5418.7
2403.18529	5383.6
2405.98466	5393.3
2408.78226	5382.1
2411.57809	5368.9
2414.37216	5366.7
2417.16446	5369.5
2419.955	5357.2
2422.74378	5350.6
2425.5308	5326.4
2428.31606	5337.1
2431.09956	5330.9
2433.88131	5315.9
2436.6613	5335.6
2439.43954	5336.4
2442.21603	5341.6
2444.99077	5339.1
2447.76377	5338.4
2450.53501	5322.9
2453.30451	5326.9
2456.07226	5323.5
2458.83827	5309.6
2461.60254	5320.6
2464.36507	5324.8
2467.12586	5306.2
2469.88492	5321
2472.64224	5307.6
2475.39782	5313
2478.15167	5312
2480.90379	5343.8
2483.65417	5342.3
2486.40283	5363
2489.14976	5370.2
2491.89497	5363.5
2494.63845	5384
2497.3802	5366
2500.12024	5358.9
2502.85855	5327.6
2505.59514	5335.7
2508.33002	5294.1
2511.06318	5283
2513.79462	5269.2
2516.52435	5244.2
2519.25237	5218
2521.97867	5198.4
2524.70327	5169.1
2527.42616	5167.9
2530.14734	5171.6
2532.86681	5158.1
2535.58458	5163
2538.30065	5159.5
2541.01501	5151.5
2543.72768	5146
2546.43864	5146.1
2549.14791	5143.9
2551.85548	5136.4
2554.56136	5117.8
2557.26554	5123.4
2559.96803	5092.2
2562.66883	5122.1
2565.36794	5090.7
2568.06536	5089.2
2570.7611	5081.8
2573.45514	5067.3
2576.14751	5062.6
2578.83819	5046.1
2581.52719	5039.1
2584.21451	5035.2
2586.90015	5030.1
2589.58411	5020
2592.2664	5015.9
2594.94701	5000.8
2597.62594	4992.8
2600.30321	4992.2
2602.9788	5017.2
2605.65273	4994.2
2608.32498	4987.3
2610.99557	4985
2613.66449	5003
2616.33175	4985.3
2618.99734	4983
2621.66128	4968.9
2624.32355	4961.7
2626.98416	4958.8
2629.64311	4944.4
2632.30041	4948.6
2634.95605	4932.4
2637.61004	4932.9
2640.26238	4913
2642.91306	4897.7
2645.56209	4879.9
2648.20948	4888.3
2650.85521	4901.2
2653.4993	4891.5
2656.14175	4901.3
2658.78255	4909.9
2661.42171	4903.2
2664.05923	4905.4
2666.6951	4920.1
2669.32934	4920.6
2671.96194	4917.8
2674.59291	4926
2677.22224	4915.8
2679.84993	4921.2
2682.476	4924.2
2685.10043	4900.2
2687.72324	4892.2
2690.34441	4904
2692.96396	4906.2
2695.58188	4914.2
2698.19818	4900.7
2700.81285	4915.1
2703.4259	4924.7
2706.03733	4907.9
2708.64714	4918.7
2711.25533	4924.5
2713.86191	4925.4
2716.46687	4944.8
2719.07021	4950.7
2721.67194	4952.4
2724.27206	4937.8
2726.87057	4948.7
2729.46747	4960.1
2732.06276	4930
2734.65644	4923.1
2737.24852	4911.9
2739.83899	4903.9
2742.42786	4910.6
2745.01513	4874.2
2747.60079	4868.6
2750.18486	4868.2
2752.76733	4849.7
2755.3482	4829.3
2757.92747	4839.3
2760.50515	4820.7
2763.08123	4829.5
2765.65573	4804.9
2768.22863	4816.5
2770.79994	4796.7
2773.36967	4811.6
2775.9378	4818.1
2778.50435	4817.9
2781.06932	4812.9
2783.6327	4798.2
2786.1945	4813
2788.75471	4811.7
2791.31335	4801.6
2793.87041	4791.8
2796.42589	4789.4
2798.97979	4791.2
2801.53212	4786.2
2804.08288	4804.6
2806.63206	4795.2
2809.17967	4786.1
2811.72571	4786.9
2814.27018	4773.6
2816.81308	4803.6
2819.35442	4788
2821.89419	4798.6
2824.43239	4814
2826.96904	4813.4
2829.50412	4814.4
2832.03763	4805.5
2834.56959	4817.6
2837.1	4815.1
2839.62884	4848.3
2842.15613	4906
2844.68186	4973.6
2847.20604	5069.2
2849.72867	5143.1
2852.24974	5131.8
2854.76927	5145.4
2857.28724	5138
2859.80367	5119.4
2862.31855	5105.8
2864.83189	5095.7
2867.34368	5067.3
2869.85393	5056.1
2872.36264	5041.2
2874.8698	5067.7
2877.37543	5061.4
2879.87952	5034.1
2882.38207	5030.4
2884.88308	5025.7
2887.38256	5022
2889.88051	5036.1
2892.37692	5020.8
2894.8718	5027.6
2897.36515	5026
2899.85698	5028.2
2902.34727	5045.2
2904.83604	5050
2907.32328	5032.6
2909.809	5052.3
2912.29319	5023.1
2914.77587	5020.4
2917.25702	5019.2
2919.73665	5008.8
2922.21476	4997.1
2924.69136	4999.4
2927.16644	5012.7
2929.64	4981.8
2932.11205	4959.2
2934.58258	4922.8
2937.05161	4935.9
2939.51912	4897.4
2941.98513	4861.9
2944.44962	4816.7
2946.91261	4776.6
2949.37409	4739
2951.83407	4729.3
2954.29254	4701.7
2956.74951	4681.9
2959.20498	4672.3
2961.65895	4644
2964.11142	4645.7
2966.56239	4599.8
2969.01186	4592.5
2971.45984	4570.5
2973.90632	4577.4
2976.35131	4565.4
2978.7948	4529.1
2981.23681	4531.1
2983.67732	4512.4
2986.11635	4477.4
2988.55388	4485
2990.98993	4483.2
2993.4245	4447.7
2995.85758	4432.3
2998.28917	4426.5
3000.71928	4433.2
3003.14791	4413.1
3005.57506	4412.2
3008.00073	4404.8
3010.42493	4373.5
3012.84764	4377.2
3015.26888	4393.7
3017.68865	4370.9
3020.10694	4370.9
3022.52376	4346.8
3024.9391	4358
3027.35298	4335.2
3029.76539	4335
3032.17632	4327.5
3034.5858	4308.7
3036.9938	4312.8
3039.40034	4315.2
3041.80542	4296.1
3044.20903	4282.6
3046.61118	4282.4
3049.01187	4277.1
3051.4111	4275.2
3053.80888	4256.8
3056.20519	4247.4
3058.60005	4250.1
3060.99345	4243.8
3063.3854	4229.5
3065.7759	4219.5
3068.16494	4204.3
3070.55254	4183.5
3072.93868	4188.3
3075.32338	4157.7
3077.70662	4151.5
3080.08842	4133.6
3082.46878	4137
3084.84769	4132.8
3087.22515	4128.2
3089.60118	4123.6
3091.97576	4122
3094.3489	4121.1
3096.72061	4110.1
3099.09087	4107
3101.4597	4099.3
3103.82709	4106.9
3106.19305	4095
3108.55757	4098.6
3110.92066	4089.4
3113.28232	4078.6
3115.64255	4066.1
3118.00134	4054.9
3120.35871	4042
3122.71466	4063.6
3125.06917	4037.3
3127.42226	4041.6
3129.77393	4058.8
3132.12417	4039.7
3134.47299	4055.1
3136.82039	4056.7
3139.16636	4048.2
3141.51092	4050.8
3143.85406	4044.2
3146.19579	4062.2
3148.53609	4046.9
3150.87499	4059.6
3153.21246	4071.3
3155.54853	4081.2
3157.88318	4073
3160.21642	4102
3162.54826	4089.4
3164.87868	4102.9
3167.2077	4091.1
3169.5353	4086.2
3171.86151	4096.4
3174.18631	4092.1
3176.5097	4103.2
3178.83169	4084.2
3181.15228	4084.6
3183.47147	4081.4
3185.78926	4070.9
3188.10565	4062.2
3190.42065	4067.5
3192.73424	4076.2
3195.04645	4084.3
3197.35725	4093.8
3199.66667	4080.5
3201.97469	4094.6
3204.28132	4082.8
3206.58656	4112.3
3208.8904	4090.5
3211.19287	4113
3213.49394	4120.8
3215.79363	4124.6
3218.09193	4110
3220.38884	4128.4
3222.68438	4124
3224.97853	4107.7
3227.2713	4124.1
3229.56269	4105.3
3231.8527	4101.7
3234.14133	4096.3
3236.42858	4092.3
3238.71446	4078.3
3240.99896	4082.3
3243.28209	4071.4
3245.56384	4065.9
3247.84423	4068.1
3250.12324	4056.5
3252.40088	4049.3
3254.67715	4041.3
3256.95205	4050.7
3259.22558	4033.4
3261.49775	4040.9
3263.76855	4028.4
3266.03799	4019
3268.30606	4011.6
3270.57277	4002.4
3272.83812	3990.1
3275.10211	3987.8
3277.36474	3990.3
3279.62601	3991.4
3281.88593	3982.4
3284.14448	3961.8
3286.40168	3992.6
3288.65753	3981.4
3290.91202	3990.2
3293.16516	3961.3
3295.41695	3948.7
3297.66738	3927.9
3299.91647	3906
3302.16421	3878.4
3304.4106	3858
3306.65564	3834.4
3308.89933	3802.7
3311.14169	3787.6
3313.38269	3755
3315.62236	3719.7
3317.86068	3692.5
3320.09766	3658.4
3322.3333	3621.7
3324.5676	3605.7
3326.80056	3556.6
3329.03219	3527.1
3331.26248	0.7
3333.49143	0.3
3335.71905	-0.9
