Data from AgNPs_FTO_APTES_UA_5uM_CRN_50uM_R6G_10uM_NaF_0.1M_Addition_RamanShift__35__14-23-26-849.txt Node

Date: Mon Feb 07 14:23:26 GMT 2022
User: TCL
Spectrometer: QEP01345
Trigger mode: 4
Integration Time (sec): 7.000000E0
Scans to average: 10
Electric dark correction enabled: true
Nonlinearity correction enabled: false
Boxcar width: 0
XAxis mode: Raman Shifts
Number of Pixels in Spectrum: 1044
>>>>>Begin Spectral Data<<<<<
46.04893	-0.1
50.45542	-2
54.85868	-1.5
59.25871	0.4
63.6555	76.1
68.04907	79.1
72.43941	84.9
76.82654	85.6
81.21044	87.2
85.59113	93.8
89.96862	98.4
94.34289	97.2
98.71396	102
103.08183	106.8
107.4465	105.4
111.80798	111.2
116.16626	112.1
120.52136	121.3
124.87327	123.3
129.222	132.1
133.56755	142.5
137.90993	155.3
142.24913	165
146.58517	196
150.91804	226.1
155.24774	271.5
159.57429	340.8
163.89768	436.3
168.21792	585.4
172.53501	803.2
176.84895	1119
181.15975	1570.4
185.46741	2221.2
189.77193	3056.8
194.07331	4095.8
198.37157	5289.3
202.6667	6532.2
206.9587	7755.5
211.24758	8976.3
215.53334	10213.3
219.81599	11525.2
224.09553	12944.3
228.37195	14509.5
232.64527	16226.9
236.91549	17986.5
241.18261	19784.2
245.44663	21444.3
249.70755	22984.3
253.96539	24322.7
258.22014	25457.3
262.4718	26445
266.72039	27110.4
270.96589	27465.4
275.20832	27518.3
279.44768	27427.6
283.68397	27201.4
287.91719	26938.4
292.14735	26781
296.37445	26764.4
300.59849	26834.2
304.81948	26971.4
309.03742	26991.3
313.25231	26785.7
317.46415	26318.8
321.67296	25719.9
325.87872	25242.7
330.08145	25011.7
334.28114	24988.1
338.47781	25134.2
342.67145	25374.8
346.86207	25724.6
351.04966	26187.2
355.23424	26655.6
359.4158	27098.9
363.59435	27406.3
367.76989	27663.3
371.94243	27828.4
376.11196	27935.8
380.27849	28084.2
384.44203	28224.5
388.60257	28458.5
392.76012	28725.7
396.91468	29153.6
401.06626	29547.9
405.21485	29878.8
409.36047	29778.5
413.50311	29479
417.64277	29272.8
421.77947	29263
425.9132	29369.7
430.04396	29542.1
434.17176	29766.7
438.2966	30132.9
442.41849	30754.2
446.53742	31722.1
450.6534	32843
454.76644	33588.2
458.87653	33847.2
462.98368	33571.7
467.08789	33043.9
471.18916	32567.1
475.2875	32135.8
479.38291	31959.9
483.4754	31748
487.56496	31435.7
491.6516	30824.2
495.73531	30266
499.81612	29891.7
503.89401	29865.7
507.96899	29917.7
512.04106	29787.6
516.11023	29552.5
520.1765	29321.7
524.23987	29124.8
528.30034	28953.9
532.35792	28784.8
536.41261	28481.4
540.46441	28196.1
544.51333	28103.3
548.55936	28372.8
552.60252	28984.4
556.64279	29739.9
560.6802	30391.6
564.71473	30768.6
568.7464	31368.4
572.7752	32285.2
576.80114	32978.8
580.82422	33596.9
584.84444	34535.4
588.86181	35875.8
592.87633	37065.2
596.888	37299.9
600.89682	36240.3
604.9028	35814.5
608.90594	37433.4
612.90624	39415.4
616.90371	37239.1
620.89834	31974
624.89015	29611.5
628.87913	29355.7
632.86528	29418.6
636.84862	29273.6
640.82913	28697.7
644.80683	28066.4
648.78172	27610.6
652.75379	27556.4
656.72306	27859.4
660.68952	28214.8
664.65319	28114.1
668.61405	27659.1
672.57211	27564.7
676.52738	27702.8
680.47986	27683.9
684.42955	27480.4
688.37646	27383
692.32058	27545.9
696.26192	27914.9
700.20048	28355.2
704.13626	28534.4
708.06928	28515.2
711.99952	28356.1
715.927	28382.8
719.85171	28470.5
723.77365	28426.4
727.69284	28042.7
731.60928	27714.6
735.52295	27600.3
739.43388	27615.2
743.34206	27699.9
747.24749	27898.8
751.15017	28157
755.05012	28586.4
758.94733	29427.2
762.8418	30702.5
766.73354	32564
770.62254	34320
774.50882	34594.9
778.39237	33199.9
782.27321	31083.4
786.15132	29336.9
790.02671	28282.4
793.89938	27814
797.76935	27630.5
801.6366	27583.1
805.50115	27534.9
809.36299	27400.1
813.22213	27254.9
817.07857	27209
820.93231	27125.5
824.78336	26985.8
828.63172	26939.6
832.47738	26904.7
836.32036	26955.9
840.16066	27144.5
843.99827	27264.8
847.8332	27160.3
851.66546	27017.4
855.49504	26944.6
859.32195	26968.4
863.1462	26832.7
866.96777	26734.8
870.78668	26655.7
874.60293	26650.2
878.41652	26663.6
882.22745	26756.8
886.03573	26843.8
889.84136	26815.7
893.64433	26694.9
897.44466	26604.1
901.24235	26495.2
905.0374	26421
908.8298	26455.1
912.61957	26521.3
916.40671	26811.7
920.19121	27249
923.97308	27580.7
927.75233	27638.9
931.52895	27450.3
935.30295	27070.2
939.07433	26604
942.84309	26306.1
946.60924	26170.2
950.37278	26100.3
954.13371	25989.3
957.89203	25898.1
961.64774	25839.8
965.40086	25856.1
969.15137	25811.2
972.89929	25698.9
976.64461	25650.8
980.38733	25719.2
984.12747	25798.7
987.86502	26003.1
991.59999	26286.7
995.33237	26723.1
999.06217	27423
1002.78939	28254.6
1006.51404	28739.7
1010.23611	29031.5
1013.95561	29225.8
1017.67255	29183.3
1021.38692	28863.2
1025.09872	28541
1028.80796	28636.8
1032.51465	29442.1
1036.21877	30237.9
1039.92035	30471.9
1043.61937	30216.6
1047.31584	29532.8
1051.00976	28850.6
1054.70114	28480.1
1058.38998	28401.5
1062.07627	28471.2
1065.76003	28595.7
1069.44126	28784.5
1073.11995	29040
1076.79611	29338
1080.46974	29518.4
1084.14085	29711.8
1087.80943	30013.3
1091.47549	30280.9
1095.13903	30317.7
1098.80005	29975.2
1102.45857	29424.8
1106.11456	29000.2
1109.76805	28827.3
1113.41903	28909.8
1117.06751	29077.4
1120.71348	29343.1
1124.35696	29616.9
1127.99793	29955
1131.63641	30153.1
1135.2724	30041.5
1138.90589	29903.1
1142.5369	29982
1146.16542	30184.3
1149.79145	30473
1153.415	30834.9
1157.03607	31411.2
1160.65467	32457.9
1164.27079	33984.7
1167.88443	35735.4
1171.49561	37695.3
1175.10432	40027.5
1178.71056	43091.5
1182.31434	45850.6
1185.91565	47069.6
1189.51451	46541.2
1193.11091	45133.2
1196.70485	43590.3
1200.29634	42256.4
1203.88538	41477.5
1207.47197	40992.3
1211.05612	40454.9
1214.63782	39672.4
1218.21708	38694.7
1221.79391	37989.2
1225.36829	37477.8
1228.94024	36801.6
1232.50976	35976.9
1236.07685	35314.9
1239.6415	35006.3
1243.20374	35059.5
1246.76355	35419.1
1250.32093	36022.1
1253.8759	36816.8
1257.42845	37751.7
1260.97859	38667.2
1264.52631	39653.7
1268.07163	40742.9
1271.61453	41919
1275.15503	43198.1
1278.69312	44662.1
1282.22882	45926.8
1285.76211	47522
1289.29301	49442.3
1292.82151	51897.1
1296.34761	54949.6
1299.87133	58525
1303.39266	62285.5
1306.9116	65604.7
1310.42815	68100.7
1313.94233	69116.4
1317.45412	68555.1
1320.96354	67236.8
1324.47058	65804.2
1327.97525	64587.4
1331.47754	63532.1
1334.97747	62808.8
1338.47502	62042.4
1341.97022	60893.8
1345.46305	59283.5
1348.95352	58199.2
1352.44163	58120.4
1355.92738	59741.3
1359.41078	62544.4
1362.89183	64811.9
1366.37053	63921.7
1369.84688	59082.5
1373.32088	52847.1
1376.79254	48555.4
1380.26186	47333.2
1383.72883	47664.4
1387.19347	48051.2
1390.65578	47814.6
1394.11575	47795.9
1397.57339	48525.5
1401.0287	49604.4
1404.48168	50542
1407.93234	50652.5
1411.38068	49600.6
1414.82669	47754.6
1418.27039	45513.2
1421.71177	43204.6
1425.15083	41367.2
1428.58758	40416.4
1432.02203	40718.7
1435.45416	41860.4
1438.88399	43333
1442.31151	44485.5
1445.73673	45325.3
1449.15965	45918.9
1452.58027	46257.3
1455.9986	46045.5
1459.41463	46082.5
1462.82837	46555.9
1466.23982	47394.5
1469.64898	48275.8
1473.05586	48821.7
1476.46045	49042.6
1479.86276	48869.5
1483.26279	48330.1
1486.66054	47874.6
1490.05602	47804.9
1493.44922	47932.1
1496.84016	47969.1
1500.22882	48228.3
1503.61521	48689.1
1506.99934	49719.7
1510.38121	50633.6
1513.76081	50916.4
1517.13816	50316.5
1520.51324	49118.6
1523.88607	48169.6
1527.25665	47975.3
1530.62498	48205.9
1533.99105	48213.3
1537.35488	47845.8
1540.71647	46998.3
1544.07581	45858.9
1547.4329	44517.9
1550.78776	43407.3
1554.14038	42601.3
1557.49077	42117.8
1560.83892	41776.5
1564.18484	41639
1567.52853	41728.7
1570.86999	42118.1
1574.20922	42987.5
1577.54624	43881.4
1580.88103	44490.8
1584.2136	45254.4
1587.54395	46985.3
1590.87208	49742
1594.19801	53042.8
1597.52172	55640.4
1600.84321	56175.8
1604.16251	53310
1607.47959	48515.2
1610.79447	43637.4
1614.10715	39515.8
1617.41763	36582.9
1620.7259	34818.6
1624.03199	34056.3
1627.33587	34350.2
1630.63757	35565.8
1633.93707	37926
1637.23439	41628.8
1640.52951	46995.9
1643.82246	53292.3
1647.11321	58329.5
1650.40179	58964.8
1653.68819	54286.4
1656.97241	46727
1660.25446	39647.1
1663.53433	34491.1
1666.81203	31257.3
1670.08756	29287.3
1673.36092	28024.1
1676.63211	27251.8
1679.90115	26691.9
1683.16801	26217.2
1686.43272	25935.9
1689.69527	25688.3
1692.95567	25511.8
1696.2139	25370.8
1699.46999	25310.1
1702.72392	25156.7
1705.97571	25118.6
1709.22535	25061.1
1712.47284	25058.5
1715.71819	25003.5
1718.96139	24923.7
1722.20246	24879
1725.44139	24758.9
1728.67818	24628.8
1731.91284	24514.2
1735.14537	24375
1738.37576	24274.2
1741.60403	24195.1
1744.83017	24094.4
1748.05418	24034
1751.27607	24028.7
1754.49584	23983.3
1757.71349	23990
1760.92903	23969.9
1764.14244	23970.2
1767.35375	23953
1770.56294	23915.1
1773.77002	23861.1
1776.97499	23805.8
1780.17785	23743.6
1783.37861	23735.4
1786.57727	23692.2
1789.77382	23660.4
1792.96828	23606.5
1796.16064	23577.7
1799.3509	23556.4
1802.53907	23484.1
1805.72514	23452.5
1808.90913	23398.9
1812.09102	23305.4
1815.27083	23245
1818.44856	23243.7
1821.6242	23229.8
1824.79776	23180.6
1827.96924	23160.2
1831.13864	23148.2
1834.30597	23103.1
1837.47122	23090.5
1840.6344	23078.9
1843.7955	23099
1846.95454	23057.8
1850.11151	23039.3
1853.26642	23061.3
1856.41926	23058.5
1859.57004	23058.1
1862.71876	23012.5
1865.86542	23006.4
1869.01003	22986.1
1872.15258	22937.3
1875.29308	22948
1878.43152	22923.4
1881.56792	22932.7
1884.70227	22917.3
1887.83457	22928.9
1890.96482	22919.7
1894.09304	22835.7
1897.21921	22860.7
1900.34335	22837.1
1903.46544	22859.6
1906.58551	22823.4
1909.70353	22810.9
1912.81953	22780.7
1915.93349	22706.8
1919.04543	22706.8
1922.15534	22687
1925.26322	22606.1
1928.36908	22564
1931.47292	22546.1
1934.57473	22519.1
1937.67453	22455.5
1940.77232	22385.4
1943.86808	22343.4
1946.96184	22221.6
1950.05358	22245.1
1953.14331	22177.3
1956.23103	22110.8
1959.31675	22064.3
1962.40046	21990.8
1965.48217	21941
1968.56188	21866.3
1971.63959	21813.9
1974.7153	21760.4
1977.78901	21693.5
1980.86073	21582.9
1983.93046	21584.3
1986.99819	21490.1
1990.06394	21416.2
1993.1277	21424.4
1996.18947	21320
1999.24925	21283.2
2002.30706	21232.5
2005.36288	21155
2008.41672	21157.4
2011.46859	21115.4
2014.51848	21053.6
2017.56639	20952.1
2020.61233	20886.9
2023.6563	20853.5
2026.6983	20842
2029.73833	20777.7
2032.7764	20742.5
2035.8125	20760.7
2038.84664	20689.6
2041.87881	20712
2044.90903	20656.4
2047.93729	20646.8
2050.96359	20610.4
2053.98794	20580.7
2057.01034	20609.4
2060.03078	20568.4
2063.04927	20587.4
2066.06582	20559
2069.08042	20517.1
2072.09307	20498.9
2075.10378	20476.1
2078.11255	20469.1
2081.11938	20478.9
2084.12426	20460.7
2087.12722	20469.4
2090.12824	20448.4
2093.12732	20454.4
2096.12447	20436.7
2099.11969	20460.2
2102.11299	20461.9
2105.10435	20470.1
2108.09379	20494.9
2111.08131	20502.7
2114.0669	20503.4
2117.05057	20565.6
2120.03233	20556.8
2123.01216	20579.5
2125.99008	20612.5
2128.96609	20580.6
2131.94018	20594.3
2134.91236	20636.3
2137.88263	20627.7
2140.851	20669.7
2143.81746	20705.9
2146.78201	20675.1
2149.74466	20688.7
2152.7054	20657.3
2155.66425	20725.8
2158.6212	20663.6
2161.57625	20602.3
2164.52941	20638.3
2167.48067	20642.5
2170.43004	20659.2
2173.37752	20638.7
2176.32311	20652.1
2179.26681	20683.6
2182.20863	20672.1
2185.14856	20685.7
2188.08661	20686.7
2191.02278	20723.1
2193.95707	20720.8
2196.88948	20696.7
2199.82001	20650.8
2202.74867	20677.9
2205.67545	20637.5
2208.60037	20637.8
2211.52341	20637.7
2214.44458	20610.8
2217.36388	20600.1
2220.28132	20529.6
2223.1969	20508.6
2226.11061	20520.3
2229.02246	20433
2231.93245	20417.8
2234.84058	20425.7
2237.74686	20340.5
2240.65128	20337.2
2243.55385	20319.7
2246.45456	20281.8
2249.35343	20280.7
2252.25044	20254.2
2255.14561	20215.3
2258.03893	20158.4
2260.93041	20148.3
2263.82004	20111.6
2266.70783	20047.3
2269.59378	19987.2
2272.4779	19959.8
2275.36017	19887.1
2278.24061	19898.2
2281.11922	19873.7
2283.996	19831.8
2286.87094	19818
2289.74405	19773.5
2292.61534	19741.8
2295.4848	19786.2
2298.35243	19790.8
2301.21824	19834.3
2304.08223	19832.9
2306.94439	19879.6
2309.80474	19842.5
2312.66327	19875.1
2315.51999	19857.8
2318.37489	19874.1
2321.22797	19806.3
2324.07925	19821.7
2326.92871	19757
2329.77637	19745.9
2332.62222	19697.5
2335.46626	19728.9
2338.3085	19732.4
2341.14893	19713.5
2343.98756	19728.3
2346.8244	19738.6
2349.65943	19722.8
2352.49267	19701.3
2355.32411	19693.8
2358.15376	19677.3
2360.98161	19665
2363.80768	19661.8
2366.63195	19657.7
2369.45444	19607.6
2372.27514	19587.3
2375.09405	19570.5
2377.91118	19524.5
2380.72652	19490.2
2383.54009	19456.3
2386.35187	19456.2
2389.16188	19402.2
2391.97011	19397.5
2394.77657	19363.2
2397.58125	19340.2
2400.38416	19322
2403.18529	19284.7
2405.98466	19254.2
2408.78226	19249.7
2411.57809	19220
2414.37216	19189.9
2417.16446	19192
2419.955	19196.2
2422.74378	19167
2425.5308	19093.5
2428.31606	19135
2431.09956	19139.6
2433.88131	19107.2
2436.6613	19155.1
2439.43954	19134.7
2442.21603	19105.1
2444.99077	19125.5
2447.76377	19147.8
2450.53501	19130.3
2453.30451	19112.5
2456.07226	19075.3
2458.83827	19085.2
2461.60254	19088.6
2464.36507	19102.8
2467.12586	19088.4
2469.88492	19083.2
2472.64224	19151.1
2475.39782	19157.6
2478.15167	19197.7
2480.90379	19141.6
2483.65417	19113
2486.40283	19189.8
2489.14976	19214.2
2491.89497	19192.1
2494.63845	19241.8
2497.3802	19234.6
2500.12024	19211.3
2502.85855	19184.2
2505.59514	19181.8
2508.33002	19136.5
2511.06318	19133.1
2513.79462	19147.6
2516.52435	19150.7
2519.25237	19136.1
2521.97867	19106.7
2524.70327	19106.9
2527.42616	19098.4
2530.14734	19083.2
2532.86681	19102.6
2535.58458	19116.6
2538.30065	19073.9
2541.01501	19079.8
2543.72768	19086.6
2546.43864	19091.1
2549.14791	19055.9
2551.85548	19061.5
2554.56136	19057.5
2557.26554	18986.2
2559.96803	19016.6
2562.66883	19009.9
2565.36794	18945.9
2568.06536	18968.4
2570.7611	18956.8
2573.45514	18949.5
2576.14751	18966.2
2578.83819	18906.4
2581.52719	18935.9
2584.21451	18915.6
2586.90015	18933.3
2589.58411	18952.3
2592.2664	18950.4
2594.94701	18903.2
2597.62594	18865.9
2600.30321	18859
2602.9788	18887.5
2605.65273	18866.7
2608.32498	18908.1
2610.99557	18892
2613.66449	18863
2616.33175	18877.7
2618.99734	18890.2
2621.66128	18903
2624.32355	18888.6
2626.98416	18857.8
2629.64311	18827.7
2632.30041	18863.2
2634.95605	18823.1
2637.61004	18813.7
2640.26238	18820.7
2642.91306	18806
2645.56209	18794.6
2648.20948	18785.3
2650.85521	18837.8
2653.4993	18879.8
2656.14175	18893.9
2658.78255	18838.6
2661.42171	18868.4
2664.05923	18911.1
2666.6951	18897.3
2669.32934	18935.6
2671.96194	18938.3
2674.59291	18948.9
2677.22224	18942.5
2679.84993	18951.6
2682.476	18910.3
2685.10043	18919.3
2687.72324	18864.2
2690.34441	18883.7
2692.96396	18851
2695.58188	18872.7
2698.19818	18860.8
2700.81285	18910.4
2703.4259	18932.9
2706.03733	18993.7
2708.64714	19000.7
2711.25533	18981.5
2713.86191	19004.6
2716.46687	19009.2
2719.07021	19030.1
2721.67194	19066.2
2724.27206	19050.3
2726.87057	19096.2
2729.46747	19089.9
2732.06276	19124.1
2734.65644	19085.2
2737.24852	19106.8
2739.83899	19086.7
2742.42786	19109.5
2745.01513	19060.5
2747.60079	19068.9
2750.18486	19052.1
2752.76733	19054.8
2755.3482	19023
2757.92747	19062
2760.50515	19044.8
2763.08123	19064.4
2765.65573	19061.6
2768.22863	19105.8
2770.79994	19040.3
2773.36967	19088.3
2775.9378	19079.3
2778.50435	19035.3
2781.06932	19062.7
2783.6327	19085.3
2786.1945	19075.6
2788.75471	19117.5
2791.31335	19033.5
2793.87041	19019.7
2796.42589	18973.5
2798.97979	19003.8
2801.53212	18909.3
2804.08288	18932.7
2806.63206	18861.5
2809.17967	18833.6
2811.72571	18808.7
2814.27018	18824.6
2816.81308	18760
2819.35442	18702.8
2821.89419	18726.2
2824.43239	18714.4
2826.96904	18712.2
2829.50412	18701.5
2832.03763	18686.3
2834.56959	18693.7
2837.1	18689.9
2839.62884	18719.8
2842.15613	18665.7
2844.68186	18763
2847.20604	18760.4
2849.72867	18785.5
2852.24974	18771
2854.76927	18779.8
2857.28724	18772.6
2859.80367	18750.3
2862.31855	18722.5
2864.83189	18675.5
2867.34368	18662.6
2869.85393	18665
2872.36264	18638.1
2874.8698	18632.8
2877.37543	18609.4
2879.87952	18613.2
2882.38207	18653.8
2884.88308	18622.9
2887.38256	18647.6
2889.88051	18692.4
2892.37692	18688
2894.8718	18704.4
2897.36515	18719.7
2899.85698	18716.5
2902.34727	18765.4
2904.83604	18789.5
2907.32328	18829.7
2909.809	18809.3
2912.29319	18817.7
2914.77587	18790.4
2917.25702	18850
2919.73665	18845
2922.21476	18825.5
2924.69136	18819.9
2927.16644	18821.9
2929.64	18759.7
2932.11205	18798.8
2934.58258	18715.2
2937.05161	18745.2
2939.51912	18770.5
2941.98513	18735.5
2944.44962	18698.8
2946.91261	18626.4
2949.37409	18624.5
2951.83407	18610.2
2954.29254	18629.1
2956.74951	18616.3
2959.20498	18594.4
2961.65895	18574.6
2964.11142	18582.4
2966.56239	18564.8
2969.01186	18566.9
2971.45984	18518.1
2973.90632	18558.4
2976.35131	18515.7
2978.7948	18495.9
2981.23681	18425.9
2983.67732	18406.7
2986.11635	18366.9
2988.55388	18309.1
2990.98993	18312
2993.4245	18278.3
2995.85758	18209.1
2998.28917	18173.5
3000.71928	18160.7
3003.14791	18152.1
3005.57506	18148.4
3008.00073	18059
3010.42493	17990.8
3012.84764	18055.7
3015.26888	18028.1
3017.68865	17969.6
3020.10694	17947.6
3022.52376	17922.9
3024.9391	17902.4
3027.35298	17893.9
3029.76539	17903.9
3032.17632	17864.7
3034.5858	17799.5
3036.9938	17832.7
3039.40034	17841.4
3041.80542	17881.3
3044.20903	17833
3046.61118	17803.9
3049.01187	17756.2
3051.4111	17776.4
3053.80888	17767.6
3056.20519	17718.4
3058.60005	17710.8
3060.99345	17677.7
3063.3854	17634.3
3065.7759	17586.4
3068.16494	17498.5
3070.55254	17463.7
3072.93868	17479.2
3075.32338	17406.5
3077.70662	17374.9
3080.08842	17332.4
3082.46878	17321.6
3084.84769	17277.5
3087.22515	17312.3
3089.60118	17295.4
3091.97576	17310.3
3094.3489	17277.5
3096.72061	17296.9
3099.09087	17306.4
3101.4597	17294.3
3103.82709	17297.1
3106.19305	17269.5
3108.55757	17264
3110.92066	17216.4
3113.28232	17205.1
3115.64255	17180.4
3118.00134	17157.4
3120.35871	17157.4
3122.71466	17104.8
3125.06917	17064.2
3127.42226	17007.8
3129.77393	17031.8
3132.12417	16987.1
3134.47299	17019
3136.82039	16984.5
3139.16636	16982.7
3141.51092	16931.3
3143.85406	16936.9
3146.19579	16951.7
3148.53609	16972.2
3150.87499	16961
3153.21246	16960.4
3155.54853	17024.9
3157.88318	16985
3160.21642	17005
3162.54826	17046.8
3164.87868	17004.7
3167.2077	17012.3
3169.5353	16990.1
3171.86151	17023
3174.18631	17006.2
3176.5097	16990.9
3178.83169	16931
3181.15228	16950.8
3183.47147	16916.3
3185.78926	16904.2
3188.10565	16870.9
3190.42065	16843.5
3192.73424	16804.8
3195.04645	16835.7
3197.35725	16804.1
3199.66667	16790.2
3201.97469	16833.3
3204.28132	16799.7
3206.58656	16863.1
3208.8904	16818.1
3211.19287	16860
3213.49394	16855.7
3215.79363	16901.3
3218.09193	16847.4
3220.38884	16852.6
3222.68438	16900.4
3224.97853	16846.4
3227.2713	16849.9
3229.56269	16802.5
3231.8527	16816.4
3234.14133	16802.6
3236.42858	16741.9
3238.71446	16717.8
3240.99896	16715
3243.28209	16707.2
3245.56384	16686.4
3247.84423	16726.6
3250.12324	16664.5
3252.40088	16654.8
3254.67715	16627.4
3256.95205	16626.5
3259.22558	16631.9
3261.49775	16610.3
3263.76855	16624.5
3266.03799	16571.8
3268.30606	16536.9
3270.57277	16511.9
3272.83812	16487.8
3275.10211	16427
3277.36474	16413.1
3279.62601	16387
3281.88593	16426.4
3284.14448	16405.5
3286.40168	16443.7
3288.65753	16426.3
3290.91202	16449.2
3293.16516	16398.2
3295.41695	16383.2
3297.66738	16280.2
3299.91647	16173.1
3302.16421	16107
3304.4106	16034.8
3306.65564	15903.1
3308.89933	15819.7
3311.14169	15704
3313.38269	15599
3315.62236	15518.2
3317.86068	15368.6
3320.09766	15251.9
3322.3333	15159.4
3324.5676	15109.4
3326.80056	14866.7
3329.03219	14757
3331.26248	4.4
3333.49143	-1.5
3335.71905	-0.7
