Data from AgNPs_FTO_APTES_UA_5uM_CRN_50uM_R6G_10uM_NaF_0.1M_Addition_RamanShift__37__14-25-46-851.txt Node

Date: Mon Feb 07 14:25:46 GMT 2022
User: TCL
Spectrometer: QEP01345
Trigger mode: 4
Integration Time (sec): 7.000000E0
Scans to average: 10
Electric dark correction enabled: true
Nonlinearity correction enabled: false
Boxcar width: 0
XAxis mode: Raman Shifts
Number of Pixels in Spectrum: 1044
>>>>>Begin Spectral Data<<<<<
46.04893	0.2875
50.45542	-1.5125
54.85868	-0.5125
59.25871	-1.0125
63.6555	75.1875
68.04907	80.1875
72.43941	84.3875
76.82654	86.2875
81.21044	87.9875
85.59113	93.1875
89.96862	95.5875
94.34289	94.2875
98.71396	102.0875
103.08183	104.4875
107.4465	107.7875
111.80798	107.3875
116.16626	112.2875
120.52136	117.6875
124.87327	129.1875
129.222	138.0875
133.56755	145.9875
137.90993	161.4875
142.24913	170.9875
146.58517	200.2875
150.91804	235.1875
155.24774	284.6875
159.57429	358.3875
163.89768	463.3875
168.21792	625.7875
172.53501	842.1875
176.84895	1185.0875
181.15975	1682.8875
185.46741	2354.3875
189.77193	3254.3875
194.07331	4376.0875
198.37157	5632.7875
202.6667	6962.4875
206.9587	8250.7875
211.24758	9550.2875
215.53334	10862.5875
219.81599	12231.2875
224.09553	13709.5875
228.37195	15348.3875
232.64527	17112.2875
236.91549	18943.3875
241.18261	20841.9875
245.44663	22653.5875
249.70755	24234.9875
253.96539	25681.6875
258.22014	26882.1875
262.4718	27887.4875
266.72039	28611.3875
270.96589	29025.3875
275.20832	29095.5875
279.44768	28953.8875
283.68397	28717.8875
287.91719	28503.9875
292.14735	28350.2875
296.37445	28385.4875
300.59849	28420.1875
304.81948	28514.5875
309.03742	28482.3875
313.25231	28176.0875
317.46415	27709.6875
321.67296	27145.4875
325.87872	26682.0875
330.08145	26363.5875
334.28114	26351.7875
338.47781	26474.4875
342.67145	26680.6875
346.86207	27020.2875
351.04966	27446.8875
355.23424	27927.0875
359.4158	28319.9875
363.59435	28644.1875
367.76989	28915.1875
371.94243	29076.5875
376.11196	29124.0875
380.27849	29266.2875
384.44203	29364.0875
388.60257	29628.6875
392.76012	29963.5875
396.91468	30381.6875
401.06626	30847.1875
405.21485	31174.8875
409.36047	31043.1875
413.50311	30830.2875
417.64277	30666.3875
421.77947	30789.2875
425.9132	30954.5875
430.04396	31201.8875
434.17176	31368.5875
438.2966	31626.2875
442.41849	32217.2875
446.53742	33084.9875
450.6534	34054.7875
454.76644	34700.9875
458.87653	34879.0875
462.98368	34695.3875
467.08789	34279.2875
471.18916	33762.8875
475.2875	33471.6875
479.38291	33329.3875
483.4754	33151.1875
487.56496	32839.6875
491.6516	32261.9875
495.73531	31608.2875
499.81612	31171.2875
503.89401	31155.0875
507.96899	31279.9875
512.04106	31178.7875
516.11023	30858.1875
520.1765	30490.1875
524.23987	30102.0875
528.30034	29795.1875
532.35792	29525.8875
536.41261	29287.7875
540.46441	28992.9875
544.51333	28971.8875
548.55936	29354.4875
552.60252	29955.9875
556.64279	30772.8875
560.6802	31478.7875
564.71473	31940.9875
568.7464	32661.7875
572.7752	33823.4875
576.80114	35054.3875
580.82422	36087.2875
584.84444	37526.9875
588.86181	39361.4875
592.87633	40752.8875
596.888	40360.5875
600.89682	38322.5875
604.9028	37027.2875
608.90594	37980.7875
612.90624	39363.2875
616.90371	36993.7875
620.89834	32123.5875
624.89015	29981.0875
628.87913	29791.9875
632.86528	29983.0875
636.84862	29851.0875
640.82913	29320.2875
644.80683	28682.1875
648.78172	28298.1875
652.75379	28297.3875
656.72306	28566.5875
660.68952	28818.1875
664.65319	28643.2875
668.61405	28201.4875
672.57211	28185.8875
676.52738	28294.7875
680.47986	28309.0875
684.42955	28086.6875
688.37646	27998.8875
692.32058	28158.8875
696.26192	28536.8875
700.20048	28993.2875
704.13626	29227.6875
708.06928	29311.6875
711.99952	29264.1875
715.927	29267.9875
719.85171	29389.5875
723.77365	29218.7875
727.69284	28822.1875
731.60928	28410.2875
735.52295	28210.0875
739.43388	28194.4875
743.34206	28297.4875
747.24749	28506.5875
751.15017	28811.7875
755.05012	29323.2875
758.94733	30110.3875
762.8418	31434.1875
766.73354	33203.9875
770.62254	34754.7875
774.50882	34770.1875
778.39237	33242.1875
782.27321	31244.4875
786.15132	29653.6875
790.02671	28646.7875
793.89938	28180.9875
797.76935	28016.8875
801.6366	27939.6875
805.50115	27942.5875
809.36299	27809.7875
813.22213	27648.2875
817.07857	27581.5875
820.93231	27448.3875
824.78336	27247.4875
828.63172	27062.0875
832.47738	26992.4875
836.32036	26963.4875
840.16066	27091.2875
843.99827	27116.6875
847.8332	27061.8875
851.66546	27043.5875
855.49504	27005.1875
859.32195	27010.1875
863.1462	26903.2875
866.96777	26822.7875
870.78668	26737.0875
874.60293	26717.5875
878.41652	26736.8875
882.22745	26796.5875
886.03573	26895.7875
889.84136	26905.3875
893.64433	26822.2875
897.44466	26650.4875
901.24235	26588.5875
905.0374	26521.4875
908.8298	26531.1875
912.61957	26649.8875
916.40671	26898.5875
920.19121	27378.3875
923.97308	27716.5875
927.75233	27671.6875
931.52895	27301.1875
935.30295	26823.9875
939.07433	26305.9875
942.84309	26006.0875
946.60924	25812.2875
950.37278	25746.0875
954.13371	25748.4875
957.89203	25692.3875
961.64774	25707.3875
965.40086	25744.0875
969.15137	25644.6875
972.89929	25512.3875
976.64461	25397.3875
980.38733	25337.3875
984.12747	25372.9875
987.86502	25513.5875
991.59999	25672.8875
995.33237	25887.3875
999.06217	26347.9875
1002.78939	26918.5875
1006.51404	27417.3875
1010.23611	27773.7875
1013.95561	28108.1875
1017.67255	28174.9875
1021.38692	27875.2875
1025.09872	27405.0875
1028.80796	27173.2875
1032.51465	27351.8875
1036.21877	27697.3875
1039.92035	27874.4875
1043.61937	27876.3875
1047.31584	27681.4875
1051.00976	27497.6875
1054.70114	27448.1875
1058.38998	27578.6875
1062.07627	27820.0875
1065.76003	28082.2875
1069.44126	28378.7875
1073.11995	28748.9875
1076.79611	29089.1875
1080.46974	29194.9875
1084.14085	29355.0875
1087.80943	29614.7875
1091.47549	29975.0875
1095.13903	30125.0875
1098.80005	29737.5875
1102.45857	29098.1875
1106.11456	28541.2875
1109.76805	28246.4875
1113.41903	28240.2875
1117.06751	28409.8875
1120.71348	28662.4875
1124.35696	28960.5875
1127.99793	29251.9875
1131.63641	29543.7875
1135.2724	29472.5875
1138.90589	29490.7875
1142.5369	29690.1875
1146.16542	30030.5875
1149.79145	30447.4875
1153.415	30897.9875
1157.03607	31523.5875
1160.65467	32728.8875
1164.27079	34565.2875
1167.88443	36506.5875
1171.49561	38365.4875
1175.10432	40467.6875
1178.71056	43116.2875
1182.31434	45645.7875
1185.91565	46683.0875
1189.51451	46171.7875
1193.11091	45029.3875
1196.70485	43772.8875
1200.29634	42552.2875
1203.88538	41940.2875
1207.47197	41828.2875
1211.05612	41690.6875
1214.63782	40943.5875
1218.21708	39616.8875
1221.79391	38157.3875
1225.36829	37140.8875
1228.94024	36361.2875
1232.50976	35693.9875
1236.07685	35123.3875
1239.6415	34852.0875
1243.20374	34873.5875
1246.76355	35258.7875
1250.32093	35811.3875
1253.8759	36533.7875
1257.42845	37432.0875
1260.97859	38389.1875
1264.52631	39425.9875
1268.07163	40504.5875
1271.61453	41626.2875
1275.15503	42873.6875
1278.69312	44359.1875
1282.22882	46058.6875
1285.76211	48024.5875
1289.29301	50484.0875
1292.82151	53371.7875
1296.34761	56962.3875
1299.87133	60863.1875
1303.39266	64527.5875
1306.9116	67299.1875
1310.42815	69053.1875
1313.94233	69636.3875
1317.45412	69133.8875
1320.96354	68020.3875
1324.47058	67198.4875
1327.97525	66702.7875
1331.47754	66314.2875
1334.97747	65855.0875
1338.47502	65046.2875
1341.97022	63623.1875
1345.46305	61978.6875
1348.95352	60564.3875
1352.44163	60089.5875
1355.92738	61222.6875
1359.41078	63347.6875
1362.89183	64901.8875
1366.37053	64007.8875
1369.84688	59561.2875
1373.32088	53480.1875
1376.79254	49171.3875
1380.26186	48101.5875
1383.72883	48789.3875
1387.19347	49439.5875
1390.65578	49259.8875
1394.11575	49286.9875
1397.57339	50071.3875
1401.0287	51359.0875
1404.48168	52239.7875
1407.93234	52098.1875
1411.38068	50787.3875
1414.82669	48500.7875
1418.27039	45924.4875
1421.71177	43391.2875
1425.15083	41404.2875
1428.58758	40388.6875
1432.02203	40695.6875
1435.45416	42087.5875
1438.88399	43683.2875
1442.31151	45001.3875
1445.73673	45879.5875
1449.15965	46459.9875
1452.58027	46765.2875
1455.9986	46652.0875
1459.41463	46647.7875
1462.82837	47191.9875
1466.23982	48043.2875
1469.64898	48829.2875
1473.05586	49345.1875
1476.46045	49426.3875
1479.86276	49118.1875
1483.26279	48470.5875
1486.66054	47943.3875
1490.05602	47928.1875
1493.44922	48072.4875
1496.84016	48277.6875
1500.22882	48521.3875
1503.61521	48973.3875
1506.99934	49660.3875
1510.38121	50293.6875
1513.76081	50513.9875
1517.13816	50143.6875
1520.51324	49510.3875
1523.88607	49262.3875
1527.25665	49663.6875
1530.62498	50084.8875
1533.99105	50066.7875
1537.35488	49503.4875
1540.71647	48265.3875
1544.07581	46704.1875
1547.4329	45056.3875
1550.78776	43638.8875
1554.14038	42574.4875
1557.49077	41980.7875
1560.83892	41565.8875
1564.18484	41312.8875
1567.52853	41476.4875
1570.86999	41944.8875
1574.20922	42979.1875
1577.54624	44151.9875
1580.88103	45014.5875
1584.2136	46100.3875
1587.54395	48075.3875
1590.87208	51027.6875
1594.19801	54268.5875
1597.52172	56820.6875
1600.84321	56957.1875
1604.16251	53786.3875
1607.47959	48733.0875
1610.79447	43717.8875
1614.10715	39524.1875
1617.41763	36356.3875
1620.7259	34487.9875
1624.03199	33574.7875
1627.33587	33787.2875
1630.63757	35025.0875
1633.93707	37693.1875
1637.23439	42013.4875
1640.52951	48183.1875
1643.82246	55587.9875
1647.11321	61382.6875
1650.40179	62157.2875
1653.68819	56808.4875
1656.97241	48429.2875
1660.25446	40545.0875
1663.53433	34718.5875
1666.81203	30954.2875
1670.08756	28772.5875
1673.36092	27299.7875
1676.63211	26372.8875
1679.90115	25702.3875
1683.16801	25244.6875
1686.43272	24899.8875
1689.69527	24625.8875
1692.95567	24432.7875
1696.2139	24256.0875
1699.46999	24149.4875
1702.72392	24069.5875
1705.97571	23913.6875
1709.22535	23862.9875
1712.47284	23846.2875
1715.71819	23772.7875
1718.96139	23655.3875
1722.20246	23587.1875
1725.44139	23497.5875
1728.67818	23366.1875
1731.91284	23202.9875
1735.14537	23040.3875
1738.37576	22920.5875
1741.60403	22804.6875
1744.83017	22746.4875
1748.05418	22707.7875
1751.27607	22674.2875
1754.49584	22637.8875
1757.71349	22653.5875
1760.92903	22627.7875
1764.14244	22585.8875
1767.35375	22547.0875
1770.56294	22470.7875
1773.77002	22431.4875
1776.97499	22367.0875
1780.17785	22294.8875
1783.37861	22315.9875
1786.57727	22244.3875
1789.77382	22193.8875
1792.96828	22155.4875
1796.16064	22119.0875
1799.3509	22045.5875
1802.53907	22056.5875
1805.72514	21942.9875
1808.90913	21864.9875
1812.09102	21800.9875
1815.27083	21787.2875
1818.44856	21728.1875
1821.6242	21673.2875
1824.79776	21699.5875
1827.96924	21646.8875
1831.13864	21617.9875
1834.30597	21612.6875
1837.47122	21612.5875
1840.6344	21569.3875
1843.7955	21585.1875
1846.95454	21560.2875
1850.11151	21536.8875
1853.26642	21510.5875
1856.41926	21549.0875
1859.57004	21486.3875
1862.71876	21476.2875
1865.86542	21443.6875
1869.01003	21440.4875
1872.15258	21356.9875
1875.29308	21368.5875
1878.43152	21349.6875
1881.56792	21333.4875
1884.70227	21329.3875
1887.83457	21297.5875
1890.96482	21276.4875
1894.09304	21197.1875
1897.21921	21211.9875
1900.34335	21191.4875
1903.46544	21154.9875
1906.58551	21142.2875
1909.70353	21123.5875
1912.81953	21072.9875
1915.93349	21062.1875
1919.04543	20992.4875
1922.15534	20974.5875
1925.26322	20901.6875
1928.36908	20846.8875
1931.47292	20846.4875
1934.57473	20745.5875
1937.67453	20707.6875
1940.77232	20670.8875
1943.86808	20600.4875
1946.96184	20537.4875
1950.05358	20513.6875
1953.14331	20479.6875
1956.23103	20407.4875
1959.31675	20343.7875
1962.40046	20279.1875
1965.48217	20205.0875
1968.56188	20129.1875
1971.63959	20051.9875
1974.7153	19987.8875
1977.78901	19961.3875
1980.86073	19861.3875
1983.93046	19820.3875
1986.99819	19752.5875
1990.06394	19678.2875
1993.1277	19632.7875
1996.18947	19602.6875
1999.24925	19555.3875
2002.30706	19472.5875
2005.36288	19432.4875
2008.41672	19405.9875
2011.46859	19312.1875
2014.51848	19261.5875
2017.56639	19217.9875
2020.61233	19180.7875
2023.6563	19120.3875
2026.6983	19030.7875
2029.73833	19016.1875
2032.7764	18984.5875
2035.8125	18969.3875
2038.84664	18939.7875
2041.87881	18903.0875
2044.90903	18878.5875
2047.93729	18836.4875
2050.96359	18801.6875
2053.98794	18786.1875
2057.01034	18797.5875
2060.03078	18746.4875
2063.04927	18736.6875
2066.06582	18729.7875
2069.08042	18737.8875
2072.09307	18696.6875
2075.10378	18665.3875
2078.11255	18650.4875
2081.11938	18636.9875
2084.12426	18647.3875
2087.12722	18647.9875
2090.12824	18623.0875
2093.12732	18582.6875
2096.12447	18611.1875
2099.11969	18601.9875
2102.11299	18599.9875
2105.10435	18658.2875
2108.09379	18580.4875
2111.08131	18613.1875
2114.0669	18602.1875
2117.05057	18668.6875
2120.03233	18668.0875
2123.01216	18665.5875
2125.99008	18656.4875
2128.96609	18684.5875
2131.94018	18674.7875
2134.91236	18712.1875
2137.88263	18690.4875
2140.851	18668.6875
2143.81746	18742.9875
2146.78201	18723.6875
2149.74466	18718.4875
2152.7054	18709.3875
2155.66425	18639.2875
2158.6212	18664.6875
2161.57625	18652.6875
2164.52941	18670.0875
2167.48067	18642.5875
2170.43004	18644.0875
2173.37752	18640.8875
2176.32311	18671.8875
2179.26681	18621.9875
2182.20863	18614.8875
2185.14856	18624.8875
2188.08661	18661.4875
2191.02278	18661.1875
2193.95707	18643.6875
2196.88948	18611.7875
2199.82001	18586.0875
2202.74867	18560.2875
2205.67545	18551.7875
2208.60037	18497.8875
2211.52341	18470.9875
2214.44458	18465.4875
2217.36388	18442.5875
2220.28132	18396.1875
2223.1969	18335.7875
2226.11061	18314.8875
2229.02246	18315.1875
2231.93245	18321.0875
2234.84058	18251.2875
2237.74686	18234.7875
2240.65128	18223.6875
2243.55385	18195.5875
2246.45456	18135.4875
2249.35343	18101.5875
2252.25044	18063.8875
2255.14561	18035.1875
2258.03893	18019.0875
2260.93041	17959.6875
2263.82004	17893.8875
2266.70783	17912.6875
2269.59378	17828.2875
2272.4779	17763.7875
2275.36017	17699.4875
2278.24061	17711.9875
2281.11922	17694.8875
2283.996	17633.5875
2286.87094	17618.4875
2289.74405	17622.2875
2292.61534	17594.2875
2295.4848	17574.5875
2298.35243	17569.9875
2301.21824	17579.4875
2304.08223	17551.5875
2306.94439	17540.7875
2309.80474	17589.2875
2312.66327	17545.5875
2315.51999	17552.1875
2318.37489	17516.8875
2321.22797	17495.7875
2324.07925	17485.8875
2326.92871	17453.6875
2329.77637	17382.7875
2332.62222	17388.6875
2335.46626	17373.1875
2338.3085	17387.4875
2341.14893	17353.2875
2343.98756	17352.7875
2346.8244	17378.0875
2349.65943	17311.0875
2352.49267	17304.3875
2355.32411	17338.4875
2358.15376	17331.4875
2360.98161	17297.4875
2363.80768	17294.0875
2366.63195	17295.2875
2369.45444	17290.1875
2372.27514	17228.3875
2375.09405	17228.8875
2377.91118	17204.6875
2380.72652	17135.7875
2383.54009	17144.1875
2386.35187	17118.7875
2389.16188	17072.4875
2391.97011	17018.8875
2394.77657	16988.5875
2397.58125	16992.6875
2400.38416	16935.0875
2403.18529	16911.6875
2405.98466	16920.4875
2408.78226	16880.8875
2411.57809	16893.3875
2414.37216	16860.9875
2417.16446	16866.6875
2419.955	16841.7875
2422.74378	16824.4875
2425.5308	16784.2875
2428.31606	16800.7875
2431.09956	16781.3875
2433.88131	16754.2875
2436.6613	16753.3875
2439.43954	16767.9875
2442.21603	16760.8875
2444.99077	16706.6875
2447.76377	16756.3875
2450.53501	16729.8875
2453.30451	16712.7875
2456.07226	16697.2875
2458.83827	16705.0875
2461.60254	16710.4875
2464.36507	16702.2875
2467.12586	16670.1875
2469.88492	16693.1875
2472.64224	16693.8875
2475.39782	16719.0875
2478.15167	16763.1875
2480.90379	16696.6875
2483.65417	16686.4875
2486.40283	16700.0875
2489.14976	16734.2875
2491.89497	16698.7875
2494.63845	16743.4875
2497.3802	16730.2875
2500.12024	16697.2875
2502.85855	16687.1875
2505.59514	16688.4875
2508.33002	16646.2875
2511.06318	16629.9875
2513.79462	16598.7875
2516.52435	16602.6875
2519.25237	16623.1875
2521.97867	16615.9875
2524.70327	16627.0875
2527.42616	16562.7875
2530.14734	16574.5875
2532.86681	16596.8875
2535.58458	16590.0875
2538.30065	16542.4875
2541.01501	16546.1875
2543.72768	16562.2875
2546.43864	16555.6875
2549.14791	16493.5875
2551.85548	16518.4875
2554.56136	16475.7875
2557.26554	16462.8875
2559.96803	16433.5875
2562.66883	16435.6875
2565.36794	16436.2875
2568.06536	16432.5875
2570.7611	16402.2875
2573.45514	16370.8875
2576.14751	16374.2875
2578.83819	16298.7875
2581.52719	16331.7875
2584.21451	16318.1875
2586.90015	16329.9875
2589.58411	16335.2875
2592.2664	16315.8875
2594.94701	16281.8875
2597.62594	16298.4875
2600.30321	16257.6875
2602.9788	16265.3875
2605.65273	16241.1875
2608.32498	16295.7875
2610.99557	16274.8875
2613.66449	16292.8875
2616.33175	16261.4875
2618.99734	16269.3875
2621.66128	16231.7875
2624.32355	16234.8875
2626.98416	16200.3875
2629.64311	16199.8875
2632.30041	16223.2875
2634.95605	16196.6875
2637.61004	16184.0875
2640.26238	16153.5875
2642.91306	16168.3875
2645.56209	16164.7875
2648.20948	16164.5875
2650.85521	16200.2875
2653.4993	16196.8875
2656.14175	16196.1875
2658.78255	16228.1875
2661.42171	16234.0875
2664.05923	16261.1875
2666.6951	16231.4875
2669.32934	16252.0875
2671.96194	16299.3875
2674.59291	16273.0875
2677.22224	16256.6875
2679.84993	16260.1875
2682.476	16221.1875
2685.10043	16262.3875
2687.72324	16257.5875
2690.34441	16213.8875
2692.96396	16203.3875
2695.58188	16213.2875
2698.19818	16235.3875
2700.81285	16247.9875
2703.4259	16274.5875
2706.03733	16293.4875
2708.64714	16275.5875
2711.25533	16283.3875
2713.86191	16272.7875
2716.46687	16292.8875
2719.07021	16298.4875
2721.67194	16379.1875
2724.27206	16324.3875
2726.87057	16361.9875
2729.46747	16358.0875
2732.06276	16399.5875
2734.65644	16396.1875
2737.24852	16379.6875
2739.83899	16355.7875
2742.42786	16379.1875
2745.01513	16353.1875
2747.60079	16331.0875
2750.18486	16335.0875
2752.76733	16305.2875
2755.3482	16322.1875
2757.92747	16336.8875
2760.50515	16312.6875
2763.08123	16338.6875
2765.65573	16339.9875
2768.22863	16307.7875
2770.79994	16285.9875
2773.36967	16339.2875
2775.9378	16337.8875
2778.50435	16303.5875
2781.06932	16289.9875
2783.6327	16308.2875
2786.1945	16317.1875
2788.75471	16306.0875
2791.31335	16257.0875
2793.87041	16226.8875
2796.42589	16216.9875
2798.97979	16217.3875
2801.53212	16160.5875
2804.08288	16162.7875
2806.63206	16104.0875
2809.17967	16073.0875
2811.72571	16064.4875
2814.27018	16037.5875
2816.81308	16013.7875
2819.35442	15996.0875
2821.89419	15940.9875
2824.43239	15962.6875
2826.96904	15956.6875
2829.50412	15950.7875
2832.03763	15878.7875
2834.56959	15921.7875
2837.1	15922.3875
2839.62884	15903.8875
2842.15613	15911.7875
2844.68186	15949.6875
2847.20604	15952.7875
2849.72867	15996.9875
2852.24974	15987.5875
2854.76927	15963.3875
2857.28724	15938.4875
2859.80367	15923.7875
2862.31855	15935.4875
2864.83189	15876.1875
2867.34368	15820.3875
2869.85393	15814.1875
2872.36264	15810.8875
2874.8698	15794.1875
2877.37543	15778.4875
2879.87952	15785.3875
2882.38207	15783.4875
2884.88308	15796.7875
2887.38256	15790.2875
2889.88051	15740.6875
2892.37692	15790.7875
2894.8718	15803.2875
2897.36515	15836.9875
2899.85698	15801.1875
2902.34727	15837.1875
2904.83604	15835.9875
2907.32328	15894.1875
2909.809	15882.8875
2912.29319	15861.2875
2914.77587	15867.9875
2917.25702	15882.8875
2919.73665	15884.1875
2922.21476	15884.6875
2924.69136	15866.3875
2927.16644	15881.8875
2929.64	15857.2875
2932.11205	15816.8875
2934.58258	15758.7875
2937.05161	15829.5875
2939.51912	15803.4875
2941.98513	15792.5875
2944.44962	15753.4875
2946.91261	15686.1875
2949.37409	15699.7875
2951.83407	15686.3875
2954.29254	15712.5875
2956.74951	15664.2875
2959.20498	15643.2875
2961.65895	15591.9875
2964.11142	15634.7875
2966.56239	15579.5875
2969.01186	15601.2875
2971.45984	15542.7875
2973.90632	15550.4875
2976.35131	15530.8875
2978.7948	15505.0875
2981.23681	15471.5875
2983.67732	15448.5875
2986.11635	15370.4875
2988.55388	15361.9875
2990.98993	15339.5875
2993.4245	15292.7875
2995.85758	15232.6875
2998.28917	15169.3875
3000.71928	15171.2875
3003.14791	15145.0875
3005.57506	15121.4875
3008.00073	15060.5875
3010.42493	14960.2875
3012.84764	15041.7875
3015.26888	15040.5875
3017.68865	14973.9875
3020.10694	14960.8875
3022.52376	14938.1875
3024.9391	14915.1875
3027.35298	14882.1875
3029.76539	14880.4875
3032.17632	14820.8875
3034.5858	14814.7875
3036.9938	14804.7875
3039.40034	14814.3875
3041.80542	14838.4875
3044.20903	14808.8875
3046.61118	14806.8875
3049.01187	14742.0875
3051.4111	14740.3875
3053.80888	14708.0875
3056.20519	14692.2875
3058.60005	14643.0875
3060.99345	14628.6875
3063.3854	14592.3875
3065.7759	14535.6875
3068.16494	14501.5875
3070.55254	14425.7875
3072.93868	14427.5875
3075.32338	14381.9875
3077.70662	14344.3875
3080.08842	14295.7875
3082.46878	14281.2875
3084.84769	14234.3875
3087.22515	14230.1875
3089.60118	14237.4875
3091.97576	14237.9875
3094.3489	14213.0875
3096.72061	14214.6875
3099.09087	14204.4875
3101.4597	14206.3875
3103.82709	14172.4875
3106.19305	14160.9875
3108.55757	14161.5875
3110.92066	14086.4875
3113.28232	14117.5875
3115.64255	14084.5875
3118.00134	14035.8875
3120.35871	14038.3875
3122.71466	14025.8875
3125.06917	13958.9875
3127.42226	13936.0875
3129.77393	13925.7875
3132.12417	13871.7875
3134.47299	13881.5875
3136.82039	13873.3875
3139.16636	13884.5875
3141.51092	13859.6875
3143.85406	13846.0875
3146.19579	13830.0875
3148.53609	13834.4875
3150.87499	13831.5875
3153.21246	13839.0875
3155.54853	13860.5875
3157.88318	13822.9875
3160.21642	13845.0875
3162.54826	13832.2875
3164.87868	13846.0875
3167.2077	13842.1875
3169.5353	13819.4875
3171.86151	13812.4875
3174.18631	13814.1875
3176.5097	13788.1875
3178.83169	13776.2875
3181.15228	13791.6875
3183.47147	13743.7875
3185.78926	13725.9875
3188.10565	13676.9875
3190.42065	13703.2875
3192.73424	13676.4875
3195.04645	13632.5875
3197.35725	13646.6875
3199.66667	13635.5875
3201.97469	13616.2875
3204.28132	13606.4875
3206.58656	13629.5875
3208.8904	13624.8875
3211.19287	13593.1875
3213.49394	13626.5875
3215.79363	13634.3875
3218.09193	13611.4875
3220.38884	13589.1875
3222.68438	13634.2875
3224.97853	13596.3875
3227.2713	13587.3875
3229.56269	13573.6875
3231.8527	13577.6875
3234.14133	13524.1875
3236.42858	13495.6875
3238.71446	13498.6875
3240.99896	13461.3875
3243.28209	13461.5875
3245.56384	13447.1875
3247.84423	13429.7875
3250.12324	13409.6875
3252.40088	13429.0875
3254.67715	13391.9875
3256.95205	13351.0875
3259.22558	13362.3875
3261.49775	13332.0875
3263.76855	13329.4875
3266.03799	13260.4875
3268.30606	13271.0875
3270.57277	13209.3875
3272.83812	13172.9875
3275.10211	13163.5875
3277.36474	13145.5875
3279.62601	13169.8875
3281.88593	13148.9875
3284.14448	13165.0875
3286.40168	13172.6875
3288.65753	13141.3875
3290.91202	13133.6875
3293.16516	13118.0875
3295.41695	13073.4875
3297.66738	12977.7875
3299.91647	12926.6875
3302.16421	12844.6875
3304.4106	12789.0875
3306.65564	12701.2875
3308.89933	12594.8875
3311.14169	12513.0875
3313.38269	12420.2875
3315.62236	12322.9875
3317.86068	12242.4875
3320.09766	12124.6875
3322.3333	12076.1875
3324.5676	11993.5875
3326.80056	11805.9875
3329.03219	11724.8875
3331.26248	4.2875
3333.49143	-1.3125
3335.71905	-0.4125
