Data from AgNPs_FTO_APTES_UA_5uM_CRN_5uM_R6G_10uM_NaF_0.1M_Addition_RamanShift__25__12-13-56-700.txt Node

Date: Mon Feb 07 12:13:56 GMT 2022
User: TCL
Spectrometer: QEP01345
Trigger mode: 4
Integration Time (sec): 7.000000E0
Scans to average: 10
Electric dark correction enabled: true
Nonlinearity correction enabled: false
Boxcar width: 0
XAxis mode: Raman Shifts
Number of Pixels in Spectrum: 1044
>>>>>Begin Spectral Data<<<<<
46.04893	-0.6125
50.45542	-1.9125
54.85868	-0.3125
59.25871	-0.8125
63.6555	89.5875
68.04907	97.8875
72.43941	100.4875
76.82654	104.9875
81.21044	106.6875
85.59113	112.4875
89.96862	117.4875
94.34289	121.0875
98.71396	125.0875
103.08183	125.8875
107.4465	131.3875
111.80798	135.7875
116.16626	137.5875
120.52136	147.6875
124.87327	153.4875
129.222	164.6875
133.56755	172.9875
137.90993	192.9875
142.24913	209.0875
146.58517	235.7875
150.91804	277.3875
155.24774	333.8875
159.57429	420.9875
163.89768	548.5875
168.21792	735.0875
172.53501	1010.0875
176.84895	1403.3875
181.15975	1968.3875
185.46741	2775.6875
189.77193	3826.6875
194.07331	5103.5875
198.37157	6555.0875
202.6667	8069.4875
206.9587	9589.7875
211.24758	11112.8875
215.53334	12664.6875
219.81599	14410.2875
224.09553	16339.6875
228.37195	18518.2875
232.64527	20876.1875
236.91549	23242.8875
241.18261	25503.9875
245.44663	27487.8875
249.70755	29058.2875
253.96539	30469.6875
258.22014	31769.8875
262.4718	32897.1875
266.72039	33785.4875
270.96589	34318.1875
275.20832	34579.5875
279.44768	34588.6875
283.68397	34454.5875
287.91719	34447.8875
292.14735	34626.5875
296.37445	35058.8875
300.59849	35679.1875
304.81948	36384.2875
309.03742	36807.6875
313.25231	36433.6875
317.46415	34838.4875
321.67296	32590.8875
325.87872	30681.9875
330.08145	29745.0875
334.28114	29612.7875
338.47781	29957.2875
342.67145	30622.2875
346.86207	31633.6875
351.04966	33045.8875
355.23424	34652.5875
359.4158	35788.3875
363.59435	36328.1875
367.76989	36409.5875
371.94243	36284.3875
376.11196	36130.6875
380.27849	36017.4875
384.44203	35768.4875
388.60257	35575.8875
392.76012	35637.8875
396.91468	36080.7875
401.06626	36947.1875
405.21485	37611.1875
409.36047	37196.7875
413.50311	35740.9875
417.64277	34461.9875
421.77947	33874.8875
425.9132	33760.9875
430.04396	33865.6875
434.17176	34015.9875
438.2966	34400.5875
442.41849	35042.9875
446.53742	36002.7875
450.6534	37143.8875
454.76644	38014.1875
458.87653	38308.7875
462.98368	38112.8875
467.08789	37648.2875
471.18916	36981.2875
475.2875	36308.3875
479.38291	35881.9875
483.4754	35426.0875
487.56496	34830.7875
491.6516	34268.3875
495.73531	33869.9875
499.81612	33697.6875
503.89401	33964.1875
507.96899	34167.8875
512.04106	34212.1875
516.11023	34252.0875
520.1765	34183.0875
524.23987	33802.3875
528.30034	33197.1875
532.35792	32580.1875
536.41261	32020.6875
540.46441	31536.0875
544.51333	31375.9875
548.55936	31932.4875
552.60252	32983.7875
556.64279	34088.4875
560.6802	34736.4875
564.71473	35221.5875
568.7464	36470.5875
572.7752	37703.5875
576.80114	37565.0875
580.82422	37086.9875
584.84444	36954.7875
588.86181	36809.3875
592.87633	36859.2875
596.888	37254.6875
600.89682	38150.1875
604.9028	41183.7875
608.90594	49232.0875
612.90624	59429.3875
616.90371	56361.1875
620.89834	41484.8875
624.89015	34578.2875
628.87913	33561.2875
632.86528	33715.6875
636.84862	33726.4875
640.82913	32913.7875
644.80683	31430.3875
648.78172	30359.4875
652.75379	30317.8875
656.72306	31271.4875
660.68952	32546.3875
664.65319	32558.0875
668.61405	31348.2875
672.57211	30665.0875
676.52738	30656.8875
680.47986	30587.9875
684.42955	30343.9875
688.37646	30191.0875
692.32058	30404.1875
696.26192	30762.8875
700.20048	31182.5875
704.13626	31583.1875
708.06928	31611.3875
711.99952	31340.8875
715.927	31111.4875
719.85171	31131.1875
723.77365	31008.4875
727.69284	30554.4875
731.60928	30108.7875
735.52295	29989.9875
739.43388	30064.9875
743.34206	30233.5875
747.24749	30490.4875
751.15017	30860.5875
755.05012	31700.7875
758.94733	33239.8875
762.8418	36512.2875
766.73354	41919.6875
770.62254	47258.5875
774.50882	49015.7875
778.39237	45975.0875
782.27321	40238.6875
786.15132	35196.6875
790.02671	32251.1875
793.89938	30837.4875
797.76935	30328.5875
801.6366	30018.8875
805.50115	29846.3875
809.36299	29614.6875
813.22213	29433.3875
817.07857	29375.3875
820.93231	29355.8875
824.78336	29404.3875
828.63172	29422.0875
832.47738	29458.9875
836.32036	29415.8875
840.16066	29407.6875
843.99827	29451.3875
847.8332	29299.2875
851.66546	29153.8875
855.49504	29064.6875
859.32195	28963.0875
863.1462	28776.9875
866.96777	28597.4875
870.78668	28523.1875
874.60293	28516.2875
878.41652	28564.8875
882.22745	28708.3875
886.03573	28904.0875
889.84136	28788.9875
893.64433	28620.0875
897.44466	28497.9875
901.24235	28471.5875
905.0374	28409.6875
908.8298	28306.0875
912.61957	28434.9875
916.40671	28769.4875
920.19121	29303.7875
923.97308	29757.0875
927.75233	29952.5875
931.52895	29938.0875
935.30295	29444.5875
939.07433	28568.2875
942.84309	27879.1875
946.60924	27457.7875
950.37278	27271.5875
954.13371	27025.9875
957.89203	26904.2875
961.64774	26832.0875
965.40086	26773.4875
969.15137	26722.9875
972.89929	26600.6875
976.64461	26535.5875
980.38733	26542.9875
984.12747	26636.0875
987.86502	26894.8875
991.59999	27327.4875
995.33237	27871.6875
999.06217	28909.9875
1002.78939	30118.1875
1006.51404	31095.6875
1010.23611	31723.5875
1013.95561	32167.6875
1017.67255	32105.8875
1021.38692	31567.4875
1025.09872	31134.5875
1028.80796	31283.1875
1032.51465	32147.4875
1036.21877	33072.0875
1039.92035	33223.2875
1043.61937	32718.1875
1047.31584	31915.0875
1051.00976	31017.1875
1054.70114	30546.9875
1058.38998	30533.9875
1062.07627	30839.0875
1065.76003	31103.0875
1069.44126	31395.6875
1073.11995	31721.6875
1076.79611	32078.9875
1080.46974	32377.4875
1084.14085	32921.4875
1087.80943	33674.6875
1091.47549	34087.3875
1095.13903	33795.0875
1098.80005	32881.9875
1102.45857	31825.8875
1106.11456	31155.6875
1109.76805	30984.3875
1113.41903	31391.0875
1117.06751	32141.5875
1120.71348	33024.7875
1124.35696	34040.9875
1127.99793	34944.5875
1131.63641	35018.1875
1135.2724	34109.9875
1138.90589	33096.3875
1142.5369	32448.9875
1146.16542	32122.4875
1149.79145	32039.9875
1153.415	32324.3875
1157.03607	32847.4875
1160.65467	33827.2875
1164.27079	35312.3875
1167.88443	37539.2875
1171.49561	40802.6875
1175.10432	45634.9875
1178.71056	51758.2875
1182.31434	56727.4875
1185.91565	59082.3875
1189.51451	58822.3875
1193.11091	56226.5875
1196.70485	52499.3875
1200.29634	49123.9875
1203.88538	46331.8875
1207.47197	43699.8875
1211.05612	41621.0875
1214.63782	40310.6875
1218.21708	39825.5875
1221.79391	39878.6875
1225.36829	40097.4875
1228.94024	40067.7875
1232.50976	39767.3875
1236.07685	39502.5875
1239.6415	39294.9875
1243.20374	38959.5875
1246.76355	39067.6875
1250.32093	39661.7875
1253.8759	40752.2875
1257.42845	42271.1875
1260.97859	43771.7875
1264.52631	45170.8875
1268.07163	46537.5875
1271.61453	47995.0875
1275.15503	49561.5875
1278.69312	50975.8875
1282.22882	52095.9875
1285.76211	53435.4875
1289.29301	54958.9875
1292.82151	56861.5875
1296.34761	59168.6875
1299.87133	62384.0875
1303.39266	67003.4875
1306.9116	73472.3875
1310.42815	80620.9875
1313.94233	85509.5875
1317.45412	85851.9875
1320.96354	83012.4875
1324.47058	79310.9875
1327.97525	75865.0875
1331.47754	73420.3875
1334.97747	72304.6875
1338.47502	72245.6875
1341.97022	72674.6875
1345.46305	73115.3875
1348.95352	73116.7875
1352.44163	73527.8875
1355.92738	76142.0875
1359.41078	82461.7875
1362.89183	89302.5875
1366.37053	87643.1875
1369.84688	77040.2875
1373.32088	66017.4875
1376.79254	58928.4875
1380.26186	55671.5875
1383.72883	54367.0875
1387.19347	53577.1875
1390.65578	52657.2875
1394.11575	52265.3875
1397.57339	52759.9875
1401.0287	53857.0875
1404.48168	55077.1875
1407.93234	55967.5875
1411.38068	56007.9875
1414.82669	54764.2875
1418.27039	52475.9875
1421.71177	49877.8875
1425.15083	47745.4875
1428.58758	46456.8875
1432.02203	46231.2875
1435.45416	46667.7875
1438.88399	47367.2875
1442.31151	47982.9875
1445.73673	48755.8875
1449.15965	49569.7875
1452.58027	50116.4875
1455.9986	50334.0875
1459.41463	50721.5875
1462.82837	51502.9875
1466.23982	52528.3875
1469.64898	53543.6875
1473.05586	54031.6875
1476.46045	54170.6875
1479.86276	54289.3875
1483.26279	54467.2875
1486.66054	55020.5875
1490.05602	55912.9875
1493.44922	57109.4875
1496.84016	58914.5875
1500.22882	61728.4875
1503.61521	65888.8875
1506.99934	71111.9875
1510.38121	76557.8875
1513.76081	79805.2875
1517.13816	78225.2875
1520.51324	72483.4875
1523.88607	65928.6875
1527.25665	61203.4875
1530.62498	58284.1875
1533.99105	56472.5875
1537.35488	55326.8875
1540.71647	54416.5875
1544.07581	53497.1875
1547.4329	52556.1875
1550.78776	51747.0875
1554.14038	51328.7875
1557.49077	51441.0875
1560.83892	51995.6875
1564.18484	52671.5875
1567.52853	53237.7875
1570.86999	53478.8875
1574.20922	53801.7875
1577.54624	53853.7875
1580.88103	52699.3875
1584.2136	51382.5875
1587.54395	51649.6875
1590.87208	53983.7875
1594.19801	57600.1875
1597.52172	61701.8875
1600.84321	63026.5875
1604.16251	60206.5875
1607.47959	55328.0875
1610.79447	50167.8875
1614.10715	45466.2875
1617.41763	41607.5875
1620.7259	38941.8875
1624.03199	37690.0875
1627.33587	37616.9875
1630.63757	38833.0875
1633.93707	41498.1875
1637.23439	45512.4875
1640.52951	50817.7875
1643.82246	56734.1875
1647.11321	62407.0875
1650.40179	65184.0875
1653.68819	62450.9875
1656.97241	54315.5875
1660.25446	45294.1875
1663.53433	38426.8875
1666.81203	34020.8875
1670.08756	31379.8875
1673.36092	29711.4875
1676.63211	28682.0875
1679.90115	27969.2875
1683.16801	27459.4875
1686.43272	27047.8875
1689.69527	26701.2875
1692.95567	26525.6875
1696.2139	26321.3875
1699.46999	26227.2875
1702.72392	26141.6875
1705.97571	26047.5875
1709.22535	26041.7875
1712.47284	26022.8875
1715.71819	25977.3875
1718.96139	25954.1875
1722.20246	25883.6875
1725.44139	25754.3875
1728.67818	25568.2875
1731.91284	25358.6875
1735.14537	25194.9875
1738.37576	25033.8875
1741.60403	24966.3875
1744.83017	24841.1875
1748.05418	24776.5875
1751.27607	24752.7875
1754.49584	24691.2875
1757.71349	24630.7875
1760.92903	24603.4875
1764.14244	24564.0875
1767.35375	24555.1875
1770.56294	24496.5875
1773.77002	24416.7875
1776.97499	24355.6875
1780.17785	24277.2875
1783.37861	24279.1875
1786.57727	24216.8875
1789.77382	24167.4875
1792.96828	24168.1875
1796.16064	24115.4875
1799.3509	24114.5875
1802.53907	24055.4875
1805.72514	23953.4875
1808.90913	23876.7875
1812.09102	23859.1875
1815.27083	23798.5875
1818.44856	23733.8875
1821.6242	23707.1875
1824.79776	23694.6875
1827.96924	23713.9875
1831.13864	23631.1875
1834.30597	23634.2875
1837.47122	23660.5875
1840.6344	23622.7875
1843.7955	23647.2875
1846.95454	23627.4875
1850.11151	23691.3875
1853.26642	23631.0875
1856.41926	23683.2875
1859.57004	23754.6875
1862.71876	23746.2875
1865.86542	23752.4875
1869.01003	23747.1875
1872.15258	23746.4875
1875.29308	23820.3875
1878.43152	23806.6875
1881.56792	23905.4875
1884.70227	23897.2875
1887.83457	23950.9875
1890.96482	23926.6875
1894.09304	23947.6875
1897.21921	23935.5875
1900.34335	23984.7875
1903.46544	24003.1875
1906.58551	24043.2875
1909.70353	24056.4875
1912.81953	24055.7875
1915.93349	23989.9875
1919.04543	24030.2875
1922.15534	23933.5875
1925.26322	23840.4875
1928.36908	23735.4875
1931.47292	23639.1875
1934.57473	23513.7875
1937.67453	23323.3875
1940.77232	23206.7875
1943.86808	23051.4875
1946.96184	22941.1875
1950.05358	22838.7875
1953.14331	22709.5875
1956.23103	22600.1875
1959.31675	22525.5875
1962.40046	22424.3875
1965.48217	22371.0875
1968.56188	22318.9875
1971.63959	22267.6875
1974.7153	22159.7875
1977.78901	22136.5875
1980.86073	22006.8875
1983.93046	21949.7875
1986.99819	21850.2875
1990.06394	21777.7875
1993.1277	21718.3875
1996.18947	21659.4875
1999.24925	21619.9875
2002.30706	21507.7875
2005.36288	21464.8875
2008.41672	21378.2875
2011.46859	21330.0875
2014.51848	21298.1875
2017.56639	21203.6875
2020.61233	21172.4875
2023.6563	21108.3875
2026.6983	21036.8875
2029.73833	21030.7875
2032.7764	20969.7875
2035.8125	20924.6875
2038.84664	20885.9875
2041.87881	20861.6875
2044.90903	20851.8875
2047.93729	20794.4875
2050.96359	20750.4875
2053.98794	20711.3875
2057.01034	20699.1875
2060.03078	20721.0875
2063.04927	20698.3875
2066.06582	20682.2875
2069.08042	20690.9875
2072.09307	20646.1875
2075.10378	20578.4875
2078.11255	20512.3875
2081.11938	20564.8875
2084.12426	20498.9875
2087.12722	20530.9875
2090.12824	20480.8875
2093.12732	20471.5875
2096.12447	20498.3875
2099.11969	20504.0875
2102.11299	20496.4875
2105.10435	20494.7875
2108.09379	20461.2875
2111.08131	20492.8875
2114.0669	20494.7875
2117.05057	20528.3875
2120.03233	20536.8875
2123.01216	20555.7875
2125.99008	20574.0875
2128.96609	20544.9875
2131.94018	20563.0875
2134.91236	20560.7875
2137.88263	20615.1875
2140.851	20558.5875
2143.81746	20624.3875
2146.78201	20578.9875
2149.74466	20595.7875
2152.7054	20593.0875
2155.66425	20555.9875
2158.6212	20546.4875
2161.57625	20533.7875
2164.52941	20501.8875
2167.48067	20472.5875
2170.43004	20511.5875
2173.37752	20536.9875
2176.32311	20485.6875
2179.26681	20518.7875
2182.20863	20471.1875
2185.14856	20521.3875
2188.08661	20499.7875
2191.02278	20514.7875
2193.95707	20538.7875
2196.88948	20498.1875
2199.82001	20475.6875
2202.74867	20468.6875
2205.67545	20464.3875
2208.60037	20426.9875
2211.52341	20437.8875
2214.44458	20447.7875
2217.36388	20386.9875
2220.28132	20354.7875
2223.1969	20342.7875
2226.11061	20242.9875
2229.02246	20237.0875
2231.93245	20208.7875
2234.84058	20138.2875
2237.74686	20116.3875
2240.65128	20077.1875
2243.55385	20043.9875
2246.45456	20009.8875
2249.35343	19974.3875
2252.25044	20011.2875
2255.14561	19939.6875
2258.03893	19943.2875
2260.93041	19886.5875
2263.82004	19880.8875
2266.70783	19801.5875
2269.59378	19737.0875
2272.4779	19673.1875
2275.36017	19641.1875
2278.24061	19622.3875
2281.11922	19578.6875
2283.996	19577.3875
2286.87094	19548.9875
2289.74405	19494.5875
2292.61534	19459.3875
2295.4848	19453.2875
2298.35243	19444.9875
2301.21824	19449.8875
2304.08223	19485.0875
2306.94439	19461.9875
2309.80474	19507.5875
2312.66327	19526.4875
2315.51999	19514.0875
2318.37489	19495.6875
2321.22797	19487.5875
2324.07925	19473.8875
2326.92871	19485.8875
2329.77637	19477.2875
2332.62222	19438.1875
2335.46626	19408.3875
2338.3085	19437.7875
2341.14893	19438.9875
2343.98756	19505.9875
2346.8244	19535.3875
2349.65943	19546.6875
2352.49267	19552.3875
2355.32411	19562.7875
2358.15376	19573.2875
2360.98161	19507.5875
2363.80768	19494.6875
2366.63195	19504.3875
2369.45444	19500.9875
2372.27514	19436.2875
2375.09405	19433.6875
2377.91118	19376.7875
2380.72652	19264.1875
2383.54009	19222.9875
2386.35187	19182.0875
2389.16188	19098.6875
2391.97011	19096.7875
2394.77657	19043.5875
2397.58125	19013.1875
2400.38416	18973.5875
2403.18529	18930.5875
2405.98466	18917.9875
2408.78226	18856.7875
2411.57809	18795.7875
2414.37216	18767.3875
2417.16446	18748.8875
2419.955	18725.6875
2422.74378	18709.8875
2425.5308	18705.2875
2428.31606	18694.3875
2431.09956	18696.7875
2433.88131	18672.0875
2436.6613	18736.1875
2439.43954	18699.3875
2442.21603	18668.5875
2444.99077	18674.1875
2447.76377	18685.7875
2450.53501	18690.5875
2453.30451	18674.9875
2456.07226	18620.7875
2458.83827	18655.3875
2461.60254	18666.5875
2464.36507	18654.8875
2467.12586	18632.6875
2469.88492	18590.5875
2472.64224	18619.9875
2475.39782	18678.5875
2478.15167	18718.7875
2480.90379	18724.8875
2483.65417	18771.5875
2486.40283	18802.5875
2489.14976	18828.8875
2491.89497	18846.4875
2494.63845	18886.1875
2497.3802	18875.3875
2500.12024	18924.8875
2502.85855	18847.6875
2505.59514	18844.9875
2508.33002	18822.9875
2511.06318	18776.1875
2513.79462	18722.1875
2516.52435	18670.2875
2519.25237	18687.7875
2521.97867	18651.9875
2524.70327	18571.0875
2527.42616	18600.3875
2530.14734	18594.3875
2532.86681	18571.0875
2535.58458	18586.2875
2538.30065	18572.2875
2541.01501	18577.2875
2543.72768	18528.9875
2546.43864	18557.3875
2549.14791	18512.3875
2551.85548	18518.8875
2554.56136	18475.4875
2557.26554	18458.5875
2559.96803	18460.6875
2562.66883	18473.8875
2565.36794	18408.6875
2568.06536	18391.2875
2570.7611	18377.7875
2573.45514	18401.7875
2576.14751	18354.9875
2578.83819	18351.0875
2581.52719	18353.0875
2584.21451	18383.8875
2586.90015	18386.0875
2589.58411	18379.7875
2592.2664	18391.7875
2594.94701	18350.2875
2597.62594	18336.7875
2600.30321	18348.3875
2602.9788	18361.7875
2605.65273	18325.8875
2608.32498	18347.1875
2610.99557	18341.3875
2613.66449	18390.1875
2616.33175	18386.7875
2618.99734	18375.3875
2621.66128	18394.8875
2624.32355	18404.3875
2626.98416	18380.2875
2629.64311	18390.5875
2632.30041	18417.9875
2634.95605	18390.2875
2637.61004	18371.0875
2640.26238	18359.5875
2642.91306	18312.2875
2645.56209	18264.1875
2648.20948	18240.3875
2650.85521	18283.3875
2653.4993	18289.2875
2656.14175	18248.8875
2658.78255	18284.7875
2661.42171	18277.4875
2664.05923	18327.6875
2666.6951	18315.9875
2669.32934	18367.1875
2671.96194	18346.9875
2674.59291	18364.3875
2677.22224	18386.7875
2679.84993	18394.2875
2682.476	18414.6875
2685.10043	18357.0875
2687.72324	18332.2875
2690.34441	18281.4875
2692.96396	18283.0875
2695.58188	18276.0875
2698.19818	18253.4875
2700.81285	18266.9875
2703.4259	18263.7875
2706.03733	18267.1875
2708.64714	18261.9875
2711.25533	18271.5875
2713.86191	18278.2875
2716.46687	18276.5875
2719.07021	18285.0875
2721.67194	18339.9875
2724.27206	18343.3875
2726.87057	18325.7875
2729.46747	18384.4875
2732.06276	18382.6875
2734.65644	18361.0875
2737.24852	18356.2875
2739.83899	18312.5875
2742.42786	18314.1875
2745.01513	18262.7875
2747.60079	18284.1875
2750.18486	18300.6875
2752.76733	18284.6875
2755.3482	18239.4875
2757.92747	18256.2875
2760.50515	18227.9875
2763.08123	18250.5875
2765.65573	18223.3875
2768.22863	18219.7875
2770.79994	18169.0875
2773.36967	18192.8875
2775.9378	18197.4875
2778.50435	18217.8875
2781.06932	18189.7875
2783.6327	18183.8875
2786.1945	18204.5875
2788.75471	18206.1875
2791.31335	18186.6875
2793.87041	18144.5875
2796.42589	18103.7875
2798.97979	18105.7875
2801.53212	18053.3875
2804.08288	18036.7875
2806.63206	17985.0875
2809.17967	17955.2875
2811.72571	17963.9875
2814.27018	17937.0875
2816.81308	17921.9875
2819.35442	17906.1875
2821.89419	17921.2875
2824.43239	17944.1875
2826.96904	17941.4875
2829.50412	17935.4875
2832.03763	17904.5875
2834.56959	17876.2875
2837.1	17852.3875
2839.62884	17878.8875
2842.15613	17841.7875
2844.68186	17913.8875
2847.20604	17956.1875
2849.72867	17960.3875
2852.24974	17964.3875
2854.76927	17949.0875
2857.28724	17934.3875
2859.80367	17954.2875
2862.31855	17861.1875
2864.83189	17885.7875
2867.34368	17835.9875
2869.85393	17875.5875
2872.36264	17830.1875
2874.8698	17795.0875
2877.37543	17829.5875
2879.87952	17845.9875
2882.38207	17835.9875
2884.88308	17772.8875
2887.38256	17798.7875
2889.88051	17792.3875
2892.37692	17800.6875
2894.8718	17799.9875
2897.36515	17818.0875
2899.85698	17834.9875
2902.34727	17860.9875
2904.83604	17885.5875
2907.32328	17938.4875
2909.809	17932.4875
2912.29319	17947.1875
2914.77587	17955.1875
2917.25702	17959.5875
2919.73665	17915.0875
2922.21476	17890.4875
2924.69136	17866.8875
2927.16644	17868.9875
2929.64	17817.6875
2932.11205	17744.9875
2934.58258	17690.0875
2937.05161	17706.4875
2939.51912	17702.1875
2941.98513	17649.3875
2944.44962	17619.7875
2946.91261	17509.8875
2949.37409	17534.5875
2951.83407	17499.7875
2954.29254	17517.1875
2956.74951	17468.9875
2959.20498	17465.3875
2961.65895	17416.4875
2964.11142	17394.9875
2966.56239	17364.0875
2969.01186	17345.0875
2971.45984	17313.7875
2973.90632	17321.0875
2976.35131	17250.8875
2978.7948	17184.4875
2981.23681	17152.1875
2983.67732	17133.2875
2986.11635	17146.5875
2988.55388	17065.3875
2990.98993	17016.1875
2993.4245	16960.1875
2995.85758	16892.5875
2998.28917	16895.5875
3000.71928	16851.7875
3003.14791	16821.8875
3005.57506	16818.6875
3008.00073	16741.6875
3010.42493	16680.6875
3012.84764	16715.8875
3015.26888	16704.6875
3017.68865	16687.3875
3020.10694	16621.6875
3022.52376	16568.5875
3024.9391	16549.8875
3027.35298	16538.0875
3029.76539	16503.8875
3032.17632	16475.0875
3034.5858	16445.1875
3036.9938	16443.3875
3039.40034	16423.4875
3041.80542	16425.7875
3044.20903	16378.1875
3046.61118	16386.8875
3049.01187	16342.8875
3051.4111	16318.7875
3053.80888	16295.6875
3056.20519	16238.6875
3058.60005	16177.3875
3060.99345	16138.5875
3063.3854	16062.9875
3065.7759	16023.4875
3068.16494	15962.8875
3070.55254	15915.9875
3072.93868	15846.8875
3075.32338	15794.6875
3077.70662	15756.0875
3080.08842	15727.6875
3082.46878	15729.0875
3084.84769	15686.8875
3087.22515	15654.7875
3089.60118	15638.8875
3091.97576	15640.1875
3094.3489	15605.3875
3096.72061	15588.8875
3099.09087	15573.3875
3101.4597	15593.0875
3103.82709	15588.0875
3106.19305	15564.4875
3108.55757	15525.8875
3110.92066	15500.2875
3113.28232	15463.7875
3115.64255	15453.0875
3118.00134	15387.6875
3120.35871	15386.7875
3122.71466	15327.4875
3125.06917	15308.7875
3127.42226	15240.8875
3129.77393	15248.0875
3132.12417	15185.3875
3134.47299	15204.8875
3136.82039	15175.1875
3139.16636	15177.5875
3141.51092	15159.8875
3143.85406	15158.6875
3146.19579	15165.2875
3148.53609	15187.0875
3150.87499	15156.8875
3153.21246	15113.8875
3155.54853	15156.5875
3157.88318	15151.7875
3160.21642	15186.5875
3162.54826	15163.6875
3164.87868	15154.8875
3167.2077	15126.0875
3169.5353	15123.6875
3171.86151	15123.2875
3174.18631	15115.5875
3176.5097	15102.7875
3178.83169	15068.3875
3181.15228	15050.5875
3183.47147	15057.0875
3185.78926	15020.2875
3188.10565	15017.7875
3190.42065	15003.0875
3192.73424	15018.7875
3195.04645	15006.4875
3197.35725	14958.3875
3199.66667	14910.5875
3201.97469	14956.3875
3204.28132	14967.2875
3206.58656	14974.8875
3208.8904	14986.8875
3211.19287	14962.2875
3213.49394	15003.9875
3215.79363	15004.4875
3218.09193	14992.5875
3220.38884	14987.0875
3222.68438	15003.9875
3224.97853	14959.8875
3227.2713	14960.7875
3229.56269	14937.6875
3231.8527	14942.7875
3234.14133	14899.2875
3236.42858	14835.8875
3238.71446	14830.7875
3240.99896	14816.7875
3243.28209	14818.9875
3245.56384	14747.0875
3247.84423	14760.6875
3250.12324	14711.2875
3252.40088	14690.8875
3254.67715	14704.5875
3256.95205	14681.4875
3259.22558	14694.1875
3261.49775	14654.3875
3263.76855	14624.8875
3266.03799	14629.8875
3268.30606	14586.7875
3270.57277	14575.7875
3272.83812	14523.3875
3275.10211	14527.1875
3277.36474	14479.1875
3279.62601	14453.6875
3281.88593	14477.4875
3284.14448	14435.0875
3286.40168	14465.5875
3288.65753	14428.8875
3290.91202	14423.2875
3293.16516	14395.6875
3295.41695	14345.2875
3297.66738	14261.7875
3299.91647	14216.3875
3302.16421	14134.6875
3304.4106	14052.1875
3306.65564	13966.2875
3308.89933	13844.1875
3311.14169	13752.9875
3313.38269	13636.7875
3315.62236	13570.6875
3317.86068	13423.5875
3320.09766	13310.6875
3322.3333	13244.9875
3324.5676	13166.5875
3326.80056	12965.3875
3329.03219	12871.0875
3331.26248	3.1875
3333.49143	-0.3125
3335.71905	-0.9125
