Data from AgNPs_FTO_APTES_UA_5uM_CRN_500uM_R6G_10uM_NaF_0.1M_Addition_RamanShift__21__17-05-11-837.txt Node

Date: Mon Feb 07 17:05:11 GMT 2022
User: TCL
Spectrometer: QEP01345
Trigger mode: 4
Integration Time (sec): 7.000000E0
Scans to average: 10
Electric dark correction enabled: true
Nonlinearity correction enabled: false
Boxcar width: 0
XAxis mode: Raman Shifts
Number of Pixels in Spectrum: 1044
>>>>>Begin Spectral Data<<<<<
46.04893	-1.5
50.45542	-0.3
54.85868	-1.3
59.25871	-0.4
63.6555	65.8
68.04907	69.5
72.43941	70.6
76.82654	74.6
81.21044	77.2
85.59113	76.5
89.96862	81.3
94.34289	83.1
98.71396	85
103.08183	87.4
107.4465	95
111.80798	95.3
116.16626	100
120.52136	102.6
124.87327	107.2
129.222	111.4
133.56755	117.4
137.90993	134.6
142.24913	149.9
146.58517	164.5
150.91804	196.5
155.24774	237.8
159.57429	297.7
163.89768	386.3
168.21792	515.6
172.53501	700.5
176.84895	974.4
181.15975	1375.1
185.46741	1935.1
189.77193	2661
194.07331	3573
198.37157	4604.3
202.6667	5677.9
206.9587	6761.5
211.24758	7826.6
215.53334	8913
219.81599	10061.5
224.09553	11302.5
228.37195	12672.5
232.64527	14186.2
236.91549	15716
241.18261	17304.7
245.44663	18778.5
249.70755	20096.8
253.96539	21276.8
258.22014	22265
262.4718	23077.9
266.72039	23666.7
270.96589	24004.7
275.20832	24138.8
279.44768	24149
283.68397	24015.4
287.91719	23884.4
292.14735	23954.1
296.37445	24032.7
300.59849	24150.6
304.81948	24195
309.03742	24026.7
313.25231	23566.8
317.46415	22972.8
321.67296	22231.6
325.87872	21606.9
330.08145	21330.8
334.28114	21290.3
338.47781	21406.3
342.67145	21620.6
346.86207	21973.3
351.04966	22392
355.23424	22817.9
359.4158	23168.4
363.59435	23438.7
367.76989	23610.2
371.94243	23781.2
376.11196	23901.9
380.27849	23986.2
384.44203	24195
388.60257	24399.8
392.76012	24646.4
396.91468	24897.7
401.06626	25273.8
405.21485	25498.6
409.36047	25379.9
413.50311	25045
417.64277	24755.8
421.77947	24752.9
425.9132	24851.1
430.04396	25094.5
434.17176	25320.3
438.2966	25712.7
442.41849	26302.9
446.53742	27145.5
450.6534	28087.5
454.76644	28847.3
458.87653	29021.8
462.98368	28822.7
467.08789	28484.8
471.18916	28173.3
475.2875	28062.3
479.38291	28107.7
483.4754	28063.8
487.56496	27705
491.6516	26973.4
495.73531	26320.5
499.81612	25817.7
503.89401	25733.7
507.96899	25733.6
512.04106	25597.3
516.11023	25375.3
520.1765	25074.2
524.23987	24844.1
528.30034	24659.2
532.35792	24475.1
536.41261	24265.9
540.46441	24068.1
544.51333	24108.5
548.55936	24437.1
552.60252	25088.9
556.64279	25842.3
560.6802	26509
564.71473	26989.4
568.7464	27638.2
572.7752	28424.7
576.80114	28822.8
580.82422	28924.6
584.84444	29128.4
588.86181	29701.1
592.87633	30302.4
596.888	30620.8
600.89682	30234.9
604.9028	30372.9
608.90594	31909.6
612.90624	33752.4
616.90371	31650.8
620.89834	26781.9
624.89015	24640.6
628.87913	24429.8
632.86528	24663.6
636.84862	24764.6
640.82913	24449.7
644.80683	23865.9
648.78172	23317.2
652.75379	23085.8
656.72306	23230
660.68952	23557.1
664.65319	23455.4
668.61405	23116
672.57211	23047.6
676.52738	23097.1
680.47986	23141.2
684.42955	23050.7
688.37646	22959.2
692.32058	22991.9
696.26192	23123.1
700.20048	23371.1
704.13626	23534.3
708.06928	23588.1
711.99952	23493.9
715.927	23374.1
719.85171	23410.1
723.77365	23399
727.69284	23261.4
731.60928	23066.7
735.52295	23019.6
739.43388	23015.4
743.34206	23070.9
747.24749	23133.7
751.15017	23372.5
755.05012	23742.2
758.94733	24483.5
762.8418	25758.4
766.73354	27590.2
770.62254	29289.9
774.50882	29654.4
778.39237	28328.5
782.27321	26180
786.15132	24352.3
790.02671	23344.9
793.89938	22821.2
797.76935	22624.4
801.6366	22598.4
805.50115	22592.9
809.36299	22507.3
813.22213	22369.7
817.07857	22341.3
820.93231	22355.8
824.78336	22215.9
828.63172	22080.4
832.47738	22045.5
836.32036	21994.2
840.16066	21960.4
843.99827	21964.4
847.8332	21961.1
851.66546	21882.3
855.49504	21868.8
859.32195	21864.6
863.1462	21865.7
866.96777	21819.9
870.78668	21731.9
874.60293	21744.5
878.41652	21726.3
882.22745	21789.8
886.03573	21826.7
889.84136	21829.8
893.64433	21768.2
897.44466	21696.4
901.24235	21593.4
905.0374	21496
908.8298	21385.3
912.61957	21429.5
916.40671	21672.3
920.19121	21973
923.97308	22173.2
927.75233	22107.1
931.52895	21941.4
935.30295	21660.2
939.07433	21288.1
942.84309	20958.4
946.60924	20811.1
950.37278	20722.6
954.13371	20697
957.89203	20690.6
961.64774	20710.1
965.40086	20651.1
969.15137	20545.7
972.89929	20374.6
976.64461	20237.4
980.38733	20181.6
984.12747	20248.7
987.86502	20376.6
991.59999	20558.1
995.33237	20839.8
999.06217	21311.8
1002.78939	21890.2
1006.51404	22279.3
1010.23611	22575.4
1013.95561	22780.4
1017.67255	22815.5
1021.38692	22533
1025.09872	22115.3
1028.80796	21937.7
1032.51465	22069.2
1036.21877	22308.1
1039.92035	22364.9
1043.61937	22351.6
1047.31584	22178
1051.00976	21988.7
1054.70114	21932.1
1058.38998	22032.4
1062.07627	22224.3
1065.76003	22483
1069.44126	22659.2
1073.11995	22856.7
1076.79611	23000.3
1080.46974	23156.6
1084.14085	23284.2
1087.80943	23502.5
1091.47549	23731.2
1095.13903	23806.9
1098.80005	23589.3
1102.45857	23176.9
1106.11456	22792.4
1109.76805	22696.2
1113.41903	22819.2
1117.06751	23050.4
1120.71348	23404
1124.35696	23710.7
1127.99793	24112.9
1131.63641	24277
1135.2724	24102.1
1138.90589	23908.3
1142.5369	23820.8
1146.16542	23928.1
1149.79145	24190.1
1153.415	24526.4
1157.03607	25009.4
1160.65467	25769.6
1164.27079	26961.8
1167.88443	28487.4
1171.49561	30323.4
1175.10432	32656.9
1178.71056	35551
1182.31434	38159
1185.91565	39430.6
1189.51451	39356
1193.11091	38469.9
1196.70485	37280.4
1200.29634	35909.4
1203.88538	34822
1207.47197	33989.5
1211.05612	33279.7
1214.63782	32591.9
1218.21708	31881
1221.79391	31372.8
1225.36829	30830
1228.94024	30135.1
1232.50976	29365.3
1236.07685	28834.8
1239.6415	28569.8
1243.20374	28501.2
1246.76355	28747.7
1250.32093	29099.4
1253.8759	29673.4
1257.42845	30440.2
1260.97859	31266.9
1264.52631	32061.4
1268.07163	32848.5
1271.61453	33709.1
1275.15503	34726.5
1278.69312	35820.2
1282.22882	36823.1
1285.76211	38114.9
1289.29301	39686.9
1292.82151	41771.9
1296.34761	44301.3
1299.87133	47252.5
1303.39266	50294.9
1306.9116	53212
1310.42815	55887.1
1313.94233	57638.3
1317.45412	58007.5
1320.96354	57523.8
1324.47058	56712.3
1327.97525	56063
1331.47754	55560.7
1334.97747	55360.4
1338.47502	55497.1
1341.97022	55145.9
1345.46305	54195.1
1348.95352	52772
1352.44163	51569
1355.92738	51258.6
1359.41078	52249.4
1362.89183	53327.4
1366.37053	52346.7
1369.84688	48415.4
1373.32088	43548.9
1376.79254	40399.6
1380.26186	39366.7
1383.72883	39585.4
1387.19347	40147.6
1390.65578	40522.3
1394.11575	41120.9
1397.57339	42279.8
1401.0287	43770.6
1404.48168	44966.2
1407.93234	45432.1
1411.38068	44669.4
1414.82669	42901
1418.27039	40429.2
1421.71177	37802.2
1425.15083	35646.9
1428.58758	34415.7
1432.02203	34296.1
1435.45416	35013.5
1438.88399	36223.1
1442.31151	37417
1445.73673	38424
1449.15965	39336.9
1452.58027	40221
1455.9986	40787.7
1459.41463	41256.3
1462.82837	41805.8
1466.23982	42427.9
1469.64898	42932.6
1473.05586	43054.9
1476.46045	42774.9
1479.86276	42150.6
1483.26279	41351.1
1486.66054	40619.2
1490.05602	40224.6
1493.44922	39975.2
1496.84016	39615
1500.22882	39668.5
1503.61521	40163.7
1506.99934	41232.1
1510.38121	42280.9
1513.76081	42693.7
1517.13816	41967.1
1520.51324	40699.5
1523.88607	39644.1
1527.25665	39207.1
1530.62498	39269
1533.99105	39539.7
1537.35488	39499.7
1540.71647	39282.1
1544.07581	38646.2
1547.4329	37673.3
1550.78776	36809.3
1554.14038	36104.6
1557.49077	35663.7
1560.83892	35469.6
1564.18484	35412.3
1567.52853	35454.9
1570.86999	35725.3
1574.20922	36350.4
1577.54624	37115.8
1580.88103	37541
1584.2136	38147.9
1587.54395	39555.2
1590.87208	41642.3
1594.19801	44256.1
1597.52172	46805.8
1600.84321	47732.7
1604.16251	45846
1607.47959	42110.7
1610.79447	37860.9
1614.10715	34023.4
1617.41763	30872
1620.7259	28740.2
1624.03199	27645.4
1627.33587	27440.9
1630.63757	28294.9
1633.93707	30180.8
1637.23439	33384.5
1640.52951	38005.5
1643.82246	43370.5
1647.11321	47569.9
1650.40179	48380.9
1653.68819	45063.7
1656.97241	39056.9
1660.25446	32919.8
1663.53433	28267.3
1666.81203	25108.1
1670.08756	23152.4
1673.36092	21924.5
1676.63211	21148.2
1679.90115	20590.1
1683.16801	20141.2
1686.43272	19817
1689.69527	19598.7
1692.95567	19414
1696.2139	19259.1
1699.46999	19129.7
1702.72392	19004.7
1705.97571	18959.7
1709.22535	18936.2
1712.47284	18829
1715.71819	18793.7
1718.96139	18746
1722.20246	18681
1725.44139	18566
1728.67818	18455.1
1731.91284	18368.1
1735.14537	18242.2
1738.37576	18187.4
1741.60403	18118.6
1744.83017	18026.4
1748.05418	18009
1751.27607	17976.9
1754.49584	17943.1
1757.71349	17926.2
1760.92903	17906.1
1764.14244	17851.6
1767.35375	17877.6
1770.56294	17785.8
1773.77002	17728.9
1776.97499	17695
1780.17785	17679.8
1783.37861	17627.7
1786.57727	17624.9
1789.77382	17561.8
1792.96828	17530.8
1796.16064	17526.8
1799.3509	17459.9
1802.53907	17414.9
1805.72514	17374.7
1808.90913	17328.9
1812.09102	17286.6
1815.27083	17240.8
1818.44856	17208.1
1821.6242	17187.4
1824.79776	17154.2
1827.96924	17142
1831.13864	17107.9
1834.30597	17102.2
1837.47122	17070.1
1840.6344	17066.9
1843.7955	17061.8
1846.95454	17080.8
1850.11151	17038.3
1853.26642	17026.2
1856.41926	17013.3
1859.57004	17019.3
1862.71876	17002.4
1865.86542	16982.1
1869.01003	16998.3
1872.15258	16992.3
1875.29308	16984.7
1878.43152	16958.8
1881.56792	16947.6
1884.70227	16960
1887.83457	16955.4
1890.96482	16882.9
1894.09304	16849
1897.21921	16890.7
1900.34335	16870.1
1903.46544	16858
1906.58551	16848.9
1909.70353	16822.1
1912.81953	16791.1
1915.93349	16723.6
1919.04543	16717.5
1922.15534	16700.3
1925.26322	16640.9
1928.36908	16620.8
1931.47292	16557
1934.57473	16517.9
1937.67453	16494.4
1940.77232	16440.9
1943.86808	16347.9
1946.96184	16273.2
1950.05358	16263
1953.14331	16180.1
1956.23103	16120.2
1959.31675	16067.2
1962.40046	16029.2
1965.48217	15994.2
1968.56188	15919.1
1971.63959	15870.8
1974.7153	15830.3
1977.78901	15774.4
1980.86073	15771.6
1983.93046	15711.1
1986.99819	15625.7
1990.06394	15623.2
1993.1277	15561.6
1996.18947	15452.1
1999.24925	15437.4
2002.30706	15413.8
2005.36288	15373.3
2008.41672	15313.2
2011.46859	15271.5
2014.51848	15226.2
2017.56639	15192.2
2020.61233	15139.4
2023.6563	15068.6
2026.6983	15036.3
2029.73833	15016.1
2032.7764	14976.3
2035.8125	14973.5
2038.84664	14948.1
2041.87881	14922.4
2044.90903	14877.8
2047.93729	14843.5
2050.96359	14875.4
2053.98794	14821.8
2057.01034	14815.3
2060.03078	14797.7
2063.04927	14836.7
2066.06582	14799.2
2069.08042	14837.8
2072.09307	14755.9
2075.10378	14746.3
2078.11255	14711.9
2081.11938	14733.5
2084.12426	14676.9
2087.12722	14668.3
2090.12824	14661.7
2093.12732	14681.3
2096.12447	14638.8
2099.11969	14681.2
2102.11299	14664.1
2105.10435	14662.9
2108.09379	14671.4
2111.08131	14651.2
2114.0669	14682
2117.05057	14675.2
2120.03233	14692.8
2123.01216	14706.4
2125.99008	14701
2128.96609	14732
2131.94018	14721.3
2134.91236	14720.8
2137.88263	14730.8
2140.851	14745.7
2143.81746	14759.7
2146.78201	14725.9
2149.74466	14726.6
2152.7054	14702.3
2155.66425	14692.6
2158.6212	14698.4
2161.57625	14672.6
2164.52941	14671.9
2167.48067	14681.1
2170.43004	14690.7
2173.37752	14680.4
2176.32311	14679.3
2179.26681	14688.2
2182.20863	14690
2185.14856	14664.3
2188.08661	14671.6
2191.02278	14668.9
2193.95707	14661.6
2196.88948	14620.8
2199.82001	14620.5
2202.74867	14586.9
2205.67545	14577.3
2208.60037	14572.4
2211.52341	14523.6
2214.44458	14507.3
2217.36388	14476.9
2220.28132	14433.1
2223.1969	14396.1
2226.11061	14386.9
2229.02246	14363.7
2231.93245	14321.9
2234.84058	14324.8
2237.74686	14260.1
2240.65128	14269.7
2243.55385	14237.8
2246.45456	14245.3
2249.35343	14202
2252.25044	14186.3
2255.14561	14126.1
2258.03893	14134.2
2260.93041	14074.8
2263.82004	14024.9
2266.70783	14025.8
2269.59378	13974.7
2272.4779	13928.1
2275.36017	13869.1
2278.24061	13846
2281.11922	13848.5
2283.996	13845
2286.87094	13818.2
2289.74405	13778.7
2292.61534	13752.8
2295.4848	13746.7
2298.35243	13769.6
2301.21824	13752.2
2304.08223	13779.5
2306.94439	13789
2309.80474	13752.1
2312.66327	13739.1
2315.51999	13723.1
2318.37489	13723.1
2321.22797	13695.5
2324.07925	13667.5
2326.92871	13660.7
2329.77637	13651.6
2332.62222	13631.1
2335.46626	13625.6
2338.3085	13623.9
2341.14893	13603.5
2343.98756	13613.6
2346.8244	13596.3
2349.65943	13554.7
2352.49267	13588.3
2355.32411	13574.3
2358.15376	13580
2360.98161	13592.5
2363.80768	13545.1
2366.63195	13572.6
2369.45444	13555.3
2372.27514	13515.7
2375.09405	13476.9
2377.91118	13467.1
2380.72652	13418.5
2383.54009	13407.1
2386.35187	13385.7
2389.16188	13349.6
2391.97011	13330
2394.77657	13312.1
2397.58125	13261.5
2400.38416	13217.7
2403.18529	13239.6
2405.98466	13208.9
2408.78226	13183.6
2411.57809	13193.1
2414.37216	13152.4
2417.16446	13174.9
2419.955	13147.3
2422.74378	13146.5
2425.5308	13130.7
2428.31606	13081.7
2431.09956	13043.2
2433.88131	13051.1
2436.6613	13088.5
2439.43954	13074
2442.21603	13064.1
2444.99077	13049.9
2447.76377	13036.1
2450.53501	13027.7
2453.30451	13002.7
2456.07226	13022.7
2458.83827	13006.4
2461.60254	12974.2
2464.36507	12983.4
2467.12586	13024.6
2469.88492	13006.9
2472.64224	13000.5
2475.39782	13002.9
2478.15167	13009.6
2480.90379	12996.3
2483.65417	12999.9
2486.40283	13005.6
2489.14976	13031.3
2491.89497	13032
2494.63845	13055.6
2497.3802	13039.2
2500.12024	13025.9
2502.85855	13003.9
2505.59514	13027.4
2508.33002	12987.4
2511.06318	12987.9
2513.79462	12966.8
2516.52435	12955.2
2519.25237	12964.2
2521.97867	12940.7
2524.70327	12930.9
2527.42616	12924.8
2530.14734	12900.8
2532.86681	12904.4
2535.58458	12912.2
2538.30065	12897
2541.01501	12900.5
2543.72768	12884
2546.43864	12875.3
2549.14791	12836.2
2551.85548	12832.3
2554.56136	12818.7
2557.26554	12803
2559.96803	12774.8
2562.66883	12755
2565.36794	12757.3
2568.06536	12756.1
2570.7611	12724.1
2573.45514	12681
2576.14751	12742.3
2578.83819	12695.6
2581.52719	12710.8
2584.21451	12686.2
2586.90015	12709.9
2589.58411	12700.6
2592.2664	12691.2
2594.94701	12679.3
2597.62594	12649
2600.30321	12659.7
2602.9788	12666.2
2605.65273	12665.8
2608.32498	12683.4
2610.99557	12662.7
2613.66449	12669
2616.33175	12669.9
2618.99734	12683.7
2621.66128	12670.7
2624.32355	12650.4
2626.98416	12641.5
2629.64311	12643
2632.30041	12648
2634.95605	12617
2637.61004	12640.6
2640.26238	12610.3
2642.91306	12604.9
2645.56209	12609.6
2648.20948	12633.7
2650.85521	12626.7
2653.4993	12604.4
2656.14175	12621.1
2658.78255	12647.7
2661.42171	12635.7
2664.05923	12624.8
2666.6951	12639.8
2669.32934	12639.2
2671.96194	12620.3
2674.59291	12645.4
2677.22224	12644.4
2679.84993	12618.9
2682.476	12609.5
2685.10043	12584.9
2687.72324	12585.7
2690.34441	12598.8
2692.96396	12585.9
2695.58188	12578.5
2698.19818	12604.8
2700.81285	12589.6
2703.4259	12598.4
2706.03733	12627.4
2708.64714	12595.9
2711.25533	12615.8
2713.86191	12640.2
2716.46687	12659.1
2719.07021	12633.7
2721.67194	12670.7
2724.27206	12661.4
2726.87057	12691.8
2729.46747	12709.4
2732.06276	12717.1
2734.65644	12670.9
2737.24852	12690.4
2739.83899	12678.1
2742.42786	12698
2745.01513	12678
2747.60079	12685.9
2750.18486	12672.3
2752.76733	12667.4
2755.3482	12656.3
2757.92747	12634.3
2760.50515	12623.5
2763.08123	12651
2765.65573	12634.6
2768.22863	12627.6
2770.79994	12639.4
2773.36967	12636.4
2775.9378	12645.5
2778.50435	12666.5
2781.06932	12658.7
2783.6327	12634.3
2786.1945	12625.6
2788.75471	12656.7
2791.31335	12619.7
2793.87041	12615.7
2796.42589	12607.3
2798.97979	12578.9
2801.53212	12569.1
2804.08288	12541
2806.63206	12500.9
2809.17967	12483.2
2811.72571	12466
2814.27018	12460.8
2816.81308	12460.7
2819.35442	12420.8
2821.89419	12396.4
2824.43239	12397.3
2826.96904	12347.2
2829.50412	12371.1
2832.03763	12325.4
2834.56959	12294.3
2837.1	12287.2
2839.62884	12312.9
2842.15613	12310.7
2844.68186	12368.6
2847.20604	12384.4
2849.72867	12395.6
2852.24974	12384.3
2854.76927	12405.1
2857.28724	12384.3
2859.80367	12369.7
2862.31855	12333.3
2864.83189	12300.7
2867.34368	12287.8
2869.85393	12298.4
2872.36264	12290.8
2874.8698	12313.1
2877.37543	12277.6
2879.87952	12263.7
2882.38207	12275.6
2884.88308	12294.2
2887.38256	12298.7
2889.88051	12299.6
2892.37692	12279.2
2894.8718	12305.7
2897.36515	12323.3
2899.85698	12311.4
2902.34727	12357.2
2904.83604	12356.6
2907.32328	12397.3
2909.809	12359.7
2912.29319	12388.6
2914.77587	12375.5
2917.25702	12371.3
2919.73665	12314.1
2922.21476	12343.7
2924.69136	12368.6
2927.16644	12356.8
2929.64	12373.2
2932.11205	12346.8
2934.58258	12296.7
2937.05161	12308.5
2939.51912	12295
2941.98513	12257.4
2944.44962	12237.6
2946.91261	12189.8
2949.37409	12202.9
2951.83407	12191.7
2954.29254	12170
2956.74951	12154.3
2959.20498	12145.6
2961.65895	12133.5
2964.11142	12073.1
2966.56239	12077.3
2969.01186	12085.9
2971.45984	12023.3
2973.90632	12024.8
2976.35131	11989.4
2978.7948	11976.4
2981.23681	11941.8
2983.67732	11904.6
2986.11635	11869.6
2988.55388	11818.2
2990.98993	11808.1
2993.4245	11773.7
2995.85758	11733.2
2998.28917	11722.8
3000.71928	11691
3003.14791	11652.2
3005.57506	11646.1
3008.00073	11623.9
3010.42493	11597.1
3012.84764	11590.3
3015.26888	11555.8
3017.68865	11514.7
3020.10694	11485.8
3022.52376	11462.6
3024.9391	11466.6
3027.35298	11426.1
3029.76539	11443.7
3032.17632	11435.8
3034.5858	11423.8
3036.9938	11420.5
3039.40034	11438.8
3041.80542	11416.4
3044.20903	11389.9
3046.61118	11395.2
3049.01187	11346.1
3051.4111	11354.7
3053.80888	11305.1
3056.20519	11291.8
3058.60005	11229.9
3060.99345	11216.7
3063.3854	11197.4
3065.7759	11153.6
3068.16494	11132.8
3070.55254	11079.2
3072.93868	11063.3
3075.32338	11007.8
3077.70662	10971.8
3080.08842	10939.4
3082.46878	10929.5
3084.84769	10904.5
3087.22515	10906.8
3089.60118	10895.5
3091.97576	10935.6
3094.3489	10960.8
3096.72061	11192.5
3099.09087	11010.9
3101.4597	10901.1
3103.82709	10891.2
3106.19305	10862.6
3108.55757	10831.6
3110.92066	10794.7
3113.28232	10796.3
3115.64255	10760.5
3118.00134	10696
3120.35871	10720.1
3122.71466	10685.5
3125.06917	10648.1
3127.42226	10624.6
3129.77393	10637
3132.12417	10593
3134.47299	10598.5
3136.82039	10599.9
3139.16636	10588.1
3141.51092	10570.8
3143.85406	10556.6
3146.19579	10572.1
3148.53609	10560.1
3150.87499	10566.1
3153.21246	10557.4
3155.54853	10600
3157.88318	10587.4
3160.21642	10589.8
3162.54826	10570.4
3164.87868	10589.3
3167.2077	10569.6
3169.5353	10593.8
3171.86151	10586.3
3174.18631	10597.9
3176.5097	10558.6
3178.83169	10557.8
3181.15228	10532.8
3183.47147	10507.5
3185.78926	10503.1
3188.10565	10480.7
3190.42065	10491.2
3192.73424	10482
3195.04645	10481.8
3197.35725	10449.5
3199.66667	10443.8
3201.97469	10445.3
3204.28132	10423.3
3206.58656	10451.1
3208.8904	10452.4
3211.19287	10486.5
3213.49394	10475.3
3215.79363	10465.2
3218.09193	10456.9
3220.38884	10444.9
3222.68438	10468.2
3224.97853	10450.4
3227.2713	10430.7
3229.56269	10413.5
3231.8527	10419.2
3234.14133	10397.9
3236.42858	10362.4
3238.71446	10360
3240.99896	10338
3243.28209	10326.6
3245.56384	10295
3247.84423	10309.7
3250.12324	10282.4
3252.40088	10295.9
3254.67715	10258.3
3256.95205	10250.5
3259.22558	10226.4
3261.49775	10202.3
3263.76855	10199.2
3266.03799	10190.1
3268.30606	10148.2
3270.57277	10133
3272.83812	10112.5
3275.10211	10046.2
3277.36474	10077.6
3279.62601	10083.5
3281.88593	10057.4
3284.14448	10075
3286.40168	10061.5
3288.65753	10066.5
3290.91202	10067.3
3293.16516	10019.7
3295.41695	10004.6
3297.66738	9952.1
3299.91647	9874
3302.16421	9824.3
3304.4106	9749.8
3306.65564	9705
3308.89933	9624.7
3311.14169	9570.9
3313.38269	9479.2
3315.62236	9405
3317.86068	9345.9
3320.09766	9261.7
3322.3333	9200.3
3324.5676	9145.4
3326.80056	9014.6
3329.03219	8931.4
3331.26248	2.5
3333.49143	0.8
3335.71905	-0.9
