Data from AgNPs_FTO_APTES_UA_5uM_CRN_0uM_R6G_10uM_NaF_0.1M_Addition_RamanShift__27__10-10-16-555.txt Node

Date: Mon Feb 07 10:10:16 GMT 2022
User: TCL
Spectrometer: QEP01345
Trigger mode: 4
Integration Time (sec): 7.000000E0
Scans to average: 10
Electric dark correction enabled: true
Nonlinearity correction enabled: false
Boxcar width: 0
XAxis mode: Raman Shifts
Number of Pixels in Spectrum: 1044
>>>>>Begin Spectral Data<<<<<
46.04893	-0.9
50.45542	-0.6
54.85868	-1.2
59.25871	0.2
63.6555	58.3
68.04907	61.9
72.43941	67.5
76.82654	69.5
81.21044	74.4
85.59113	76.2
89.96862	82
94.34289	82.9
98.71396	81.9
103.08183	84.4
107.4465	90.7
111.80798	91.9
116.16626	98.4
120.52136	97.8
124.87327	101.3
129.222	110.1
133.56755	114.2
137.90993	125.6
142.24913	134.2
146.58517	160.3
150.91804	180.5
155.24774	212.2
159.57429	271.8
163.89768	355
168.21792	473.2
172.53501	646.6
176.84895	885.6
181.15975	1254.5
185.46741	1748.3
189.77193	2413.7
194.07331	3210
198.37157	4119.7
202.6667	5093.8
206.9587	6035.4
211.24758	6986.9
215.53334	8005.3
219.81599	9129.7
224.09553	10408
228.37195	11810.9
232.64527	13315.1
236.91549	14860.9
241.18261	16280.7
245.44663	17475.9
249.70755	18411.6
253.96539	19333.6
258.22014	20071.4
262.4718	20712.8
266.72039	21199.1
270.96589	21486.2
275.20832	21571.2
279.44768	21493
283.68397	21384.4
287.91719	21370.8
292.14735	21488.5
296.37445	21709.6
300.59849	22188.5
304.81948	22822.7
309.03742	23263.8
313.25231	23044.5
317.46415	21813.7
321.67296	19941.8
325.87872	18364.2
330.08145	17562.1
334.28114	17476.1
338.47781	17718.9
342.67145	18149.1
346.86207	18888.4
351.04966	19953.2
355.23424	21253.6
359.4158	22229.8
363.59435	22697.6
367.76989	22763.3
371.94243	22588.7
376.11196	22382.2
380.27849	22156.7
384.44203	21832.4
388.60257	21493.2
392.76012	21397.9
396.91468	21690.8
401.06626	22344
405.21485	22956.2
409.36047	22666.4
413.50311	21585.3
417.64277	20593.9
421.77947	20088.9
425.9132	19961.8
430.04396	19865.6
434.17176	19781.2
438.2966	19824.9
442.41849	20152.9
446.53742	20700.3
450.6534	21365.2
454.76644	21790.9
458.87653	21907
462.98368	21819
467.08789	21619.4
471.18916	21251.2
475.2875	20894.4
479.38291	20607
483.4754	20384.2
487.56496	20123.5
491.6516	19905.7
495.73531	19747.6
499.81612	19830.7
503.89401	20079.4
507.96899	20163.4
512.04106	20245.7
516.11023	20142.2
520.1765	19962.4
524.23987	19601.8
528.30034	19103.9
532.35792	18602.8
536.41261	18029.9
540.46441	17588.1
544.51333	17401.6
548.55936	17674.7
552.60252	18371.2
556.64279	19148.4
560.6802	19568
564.71473	20078.6
568.7464	21408.8
572.7752	22551.1
576.80114	22384.8
580.82422	21760.3
584.84444	21518.1
588.86181	21166
592.87633	20731.3
596.888	20656.1
600.89682	21287.3
604.9028	23847.8
608.90594	30410.5
612.90624	38633.8
616.90371	36918.9
620.89834	25266.7
624.89015	19454.7
628.87913	18414.5
632.86528	18545.4
636.84862	18856
640.82913	18468.4
644.80683	17394.7
648.78172	16531.2
652.75379	16524.8
656.72306	17283.2
660.68952	18399.8
664.65319	18409.8
668.61405	17575.8
672.57211	17070.2
676.52738	16921.5
680.47986	16836.3
684.42955	16578.8
688.37646	16389.8
692.32058	16404.4
696.26192	16650.3
700.20048	16991.1
704.13626	17317.2
708.06928	17494.1
711.99952	17285.7
715.927	17099.3
719.85171	16981.7
723.77365	16861.6
727.69284	16536.8
731.60928	16224.6
735.52295	16107.9
739.43388	16167.5
743.34206	16312.3
747.24749	16512.6
751.15017	16833
755.05012	17364
758.94733	18434.5
762.8418	20776.8
766.73354	24979
770.62254	29373.2
774.50882	30971.1
778.39237	28949.5
782.27321	24746.6
786.15132	20697
790.02671	18211.4
793.89938	17001.9
797.76935	16461.2
801.6366	16205.8
805.50115	16083.2
809.36299	15909.6
813.22213	15778.6
817.07857	15717.3
820.93231	15679.1
824.78336	15717
828.63172	15832.2
832.47738	15877
836.32036	15862.6
840.16066	15820.2
843.99827	15734.7
847.8332	15674.8
851.66546	15583.2
855.49504	15567.8
859.32195	15526.8
863.1462	15382
866.96777	15237.7
870.78668	15162.4
874.60293	15126.9
878.41652	15107.8
882.22745	15214.8
886.03573	15298.4
889.84136	15268.5
893.64433	15181.7
897.44466	15134.9
901.24235	15103.4
905.0374	15020.8
908.8298	14988.3
912.61957	14961.3
916.40671	15182.7
920.19121	15541.5
923.97308	15952.3
927.75233	16207.6
931.52895	16221.6
935.30295	15871.3
939.07433	15190.9
942.84309	14629.6
946.60924	14286.2
950.37278	14151.3
954.13371	14014.4
957.89203	13922.3
961.64774	13888.3
965.40086	13841.2
969.15137	13804.4
972.89929	13766.5
976.64461	13734.2
980.38733	13752.7
984.12747	13837.4
987.86502	13954.7
991.59999	14120.6
995.33237	14376.1
999.06217	14857.4
1002.78939	15591.9
1006.51404	16285.8
1010.23611	16812.2
1013.95561	17087.5
1017.67255	16999.2
1021.38692	16670
1025.09872	16382.1
1028.80796	16414.1
1032.51465	16816.8
1036.21877	17260.2
1039.92035	17383.8
1043.61937	17172.4
1047.31584	16735.7
1051.00976	16309.7
1054.70114	16069.9
1058.38998	16063.3
1062.07627	16198.8
1065.76003	16401
1069.44126	16752.7
1073.11995	17268.3
1076.79611	17691.9
1080.46974	17901.3
1084.14085	18216.5
1087.80943	18784.5
1091.47549	19080.4
1095.13903	18892.4
1098.80005	18151.1
1102.45857	17196.7
1106.11456	16441
1109.76805	16162.9
1113.41903	16288.5
1117.06751	16734.2
1120.71348	17428.3
1124.35696	18217.7
1127.99793	19058
1131.63641	19313.7
1135.2724	18600.7
1138.90589	17770.4
1142.5369	17227.6
1146.16542	16912.6
1149.79145	16747.2
1153.415	16861.8
1157.03607	17112.1
1160.65467	17596.8
1164.27079	18479.4
1167.88443	19904.1
1171.49561	22160.5
1175.10432	25608.5
1178.71056	29947.9
1182.31434	33356.2
1185.91565	34642.2
1189.51451	34225.1
1193.11091	32429.2
1196.70485	29866.1
1200.29634	27479.9
1203.88538	25400.1
1207.47197	23456.3
1211.05612	21893.1
1214.63782	21112.6
1218.21708	20925.8
1221.79391	21010.3
1225.36829	21064.8
1228.94024	20845.5
1232.50976	20451.3
1236.07685	20206.9
1239.6415	20196
1243.20374	20188
1246.76355	20286.7
1250.32093	20650.2
1253.8759	21253
1257.42845	22219.2
1260.97859	23225.7
1264.52631	24157.8
1268.07163	25055
1271.61453	26050.1
1275.15503	26977.8
1278.69312	27714.2
1282.22882	28194.2
1285.76211	28850.2
1289.29301	29872.7
1292.82151	31262.3
1296.34761	32762.6
1299.87133	34964.3
1303.39266	38081.5
1306.9116	42403.8
1310.42815	47331.3
1313.94233	50855.7
1317.45412	51080.9
1320.96354	49107.9
1324.47058	46680.4
1327.97525	44465.8
1331.47754	42912
1334.97747	41851.9
1338.47502	41322.5
1341.97022	41100
1345.46305	41026.1
1348.95352	40949.4
1352.44163	41442.9
1355.92738	43474.8
1359.41078	48102.8
1362.89183	53695.7
1366.37053	54005.7
1369.84688	47689.6
1373.32088	40111.1
1376.79254	34588.7
1380.26186	31575.9
1383.72883	30190.6
1387.19347	29367
1390.65578	28711.6
1394.11575	28296
1397.57339	28453.6
1401.0287	29074.2
1404.48168	29851.4
1407.93234	30345.2
1411.38068	30325.6
1414.82669	29498.4
1418.27039	28004.5
1421.71177	26334.9
1425.15083	24916
1428.58758	23934.8
1432.02203	23642.1
1435.45416	23837.7
1438.88399	24234.9
1442.31151	24541.6
1445.73673	25003.1
1449.15965	25514.5
1452.58027	25902.2
1455.9986	26162
1459.41463	26514
1462.82837	27089.2
1466.23982	27857.6
1469.64898	28612.7
1473.05586	29040.7
1476.46045	29174
1479.86276	29416.7
1483.26279	29713.1
1486.66054	30229.1
1490.05602	30914.4
1493.44922	32028.9
1496.84016	33572
1500.22882	36136.6
1503.61521	39732.3
1506.99934	44068
1510.38121	48540.4
1513.76081	51282.2
1517.13816	50013.5
1520.51324	45318.1
1523.88607	39917.8
1527.25665	35947.6
1530.62498	33352.4
1533.99105	31801.9
1537.35488	30799.2
1540.71647	30050.9
1544.07581	29480.3
1547.4329	28924.5
1550.78776	28413.5
1554.14038	28115.4
1557.49077	28198.4
1560.83892	28691
1564.18484	29364.5
1567.52853	30027.2
1570.86999	30444
1574.20922	30727.5
1577.54624	30666.7
1580.88103	29454.5
1584.2136	27732.7
1587.54395	27153.5
1590.87208	28100.5
1594.19801	30397.1
1597.52172	33337.4
1600.84321	34774.3
1604.16251	33423.9
1607.47959	30386.2
1610.79447	27024.4
1614.10715	23905.3
1617.41763	21459
1620.7259	19838.9
1624.03199	19017.1
1627.33587	18893.7
1630.63757	19405.4
1633.93707	20671.2
1637.23439	22698.8
1640.52951	25643.5
1643.82246	29741.5
1647.11321	34261
1650.40179	37685.2
1653.68819	37289.7
1656.97241	32565.8
1660.25446	26292
1663.53433	21255.1
1666.81203	18028.3
1670.08756	16176.2
1673.36092	15084.5
1676.63211	14393.6
1679.90115	13911.8
1683.16801	13569.2
1686.43272	13313.6
1689.69527	13120.8
1692.95567	12994
1696.2139	12916.9
1699.46999	12843.2
1702.72392	12787.4
1705.97571	12741.3
1709.22535	12682.1
1712.47284	12667
1715.71819	12674
1718.96139	12655.4
1722.20246	12580.5
1725.44139	12503.7
1728.67818	12398.5
1731.91284	12300.6
1735.14537	12168.6
1738.37576	12072.9
1741.60403	12008.6
1744.83017	11953.4
1748.05418	11883.1
1751.27607	11863.4
1754.49584	11812.7
1757.71349	11790.2
1760.92903	11784.6
1764.14244	11740.7
1767.35375	11767.1
1770.56294	11718.7
1773.77002	11684.9
1776.97499	11652.7
1780.17785	11584.3
1783.37861	11545.8
1786.57727	11532
1789.77382	11489
1792.96828	11499.9
1796.16064	11482.9
1799.3509	11415.5
1802.53907	11415.3
1805.72514	11355.3
1808.90913	11308
1812.09102	11269.6
1815.27083	11254.9
1818.44856	11244.7
1821.6242	11206.5
1824.79776	11204
1827.96924	11154
1831.13864	11157
1834.30597	11138.1
1837.47122	11148.1
1840.6344	11154.3
1843.7955	11114.9
1846.95454	11123.1
1850.11151	11103.7
1853.26642	11083.7
1856.41926	11076.6
1859.57004	11097.3
1862.71876	11101.8
1865.86542	11067.7
1869.01003	11085.1
1872.15258	11077.1
1875.29308	11073.4
1878.43152	11020.8
1881.56792	11041.8
1884.70227	11035.8
1887.83457	11049
1890.96482	11029.6
1894.09304	11023.7
1897.21921	11052.3
1900.34335	11047.7
1903.46544	11023.4
1906.58551	11043.7
1909.70353	11037.4
1912.81953	11048.8
1915.93349	11046.4
1919.04543	11002
1922.15534	11000.1
1925.26322	10975
1928.36908	10950.7
1931.47292	10894.7
1934.57473	10851.8
1937.67453	10797.9
1940.77232	10760.6
1943.86808	10712.5
1946.96184	10676.1
1950.05358	10610.6
1953.14331	10605.8
1956.23103	10585.9
1959.31675	10557.7
1962.40046	10530.3
1965.48217	10452.9
1968.56188	10452.7
1971.63959	10427
1974.7153	10389.8
1977.78901	10388.9
1980.86073	10320.1
1983.93046	10295.9
1986.99819	10245.7
1990.06394	10213.5
1993.1277	10157.9
1996.18947	10124.1
1999.24925	10083.3
2002.30706	10081.5
2005.36288	10013.6
2008.41672	10009.8
2011.46859	9984.5
2014.51848	9951.1
2017.56639	9926.7
2020.61233	9918.2
2023.6563	9880.2
2026.6983	9851
2029.73833	9846.8
2032.7764	9831.4
2035.8125	9804.3
2038.84664	9770.2
2041.87881	9769.4
2044.90903	9751.9
2047.93729	9748.5
2050.96359	9723.7
2053.98794	9732
2057.01034	9696.2
2060.03078	9700.5
2063.04927	9700.1
2066.06582	9667.8
2069.08042	9633
2072.09307	9645.9
2075.10378	9622.7
2078.11255	9616
2081.11938	9618.4
2084.12426	9610.9
2087.12722	9618.3
2090.12824	9580.4
2093.12732	9569.7
2096.12447	9574
2099.11969	9563.3
2102.11299	9565
2105.10435	9584.3
2108.09379	9562.1
2111.08131	9579.5
2114.0669	9588.6
2117.05057	9596.5
2120.03233	9579.2
2123.01216	9588.3
2125.99008	9599.7
2128.96609	9633.7
2131.94018	9635.6
2134.91236	9619.2
2137.88263	9630
2140.851	9631.3
2143.81746	9642.7
2146.78201	9640.7
2149.74466	9645
2152.7054	9631.9
2155.66425	9618.1
2158.6212	9607.2
2161.57625	9605.8
2164.52941	9605.9
2167.48067	9587.4
2170.43004	9586.7
2173.37752	9567.3
2176.32311	9580.4
2179.26681	9575.2
2182.20863	9591.2
2185.14856	9595
2188.08661	9577.3
2191.02278	9596.6
2193.95707	9573.7
2196.88948	9574.1
2199.82001	9538.7
2202.74867	9546.7
2205.67545	9553.7
2208.60037	9512.3
2211.52341	9528.7
2214.44458	9549.5
2217.36388	9536.2
2220.28132	9506.2
2223.1969	9470.9
2226.11061	9458.9
2229.02246	9433.1
2231.93245	9422.2
2234.84058	9384.4
2237.74686	9363.6
2240.65128	9358.1
2243.55385	9338.3
2246.45456	9322.3
2249.35343	9308.8
2252.25044	9298.4
2255.14561	9299.2
2258.03893	9298.4
2260.93041	9300.3
2263.82004	9300
2266.70783	9257.5
2269.59378	9232
2272.4779	9215.1
2275.36017	9189.3
2278.24061	9170.4
2281.11922	9160.4
2283.996	9147.3
2286.87094	9163.9
2289.74405	9109.9
2292.61534	9105.3
2295.4848	9060.8
2298.35243	9092.7
2301.21824	9076.1
2304.08223	9080.4
2306.94439	9102.7
2309.80474	9123.6
2312.66327	9118.1
2315.51999	9125
2318.37489	9118.1
2321.22797	9095.4
2324.07925	9097.1
2326.92871	9122.3
2329.77637	9122.7
2332.62222	9105.3
2335.46626	9085.9
2338.3085	9100.3
2341.14893	9106.1
2343.98756	9134.4
2346.8244	9156.9
2349.65943	9182.1
2352.49267	9198.7
2355.32411	9212.7
2358.15376	9190.3
2360.98161	9207.5
2363.80768	9222.6
2366.63195	9234.1
2369.45444	9204.2
2372.27514	9178
2375.09405	9147.7
2377.91118	9120.9
2380.72652	9064
2383.54009	9052.2
2386.35187	9025.7
2389.16188	9000
2391.97011	8980.4
2394.77657	8949.1
2397.58125	8906.7
2400.38416	8903.4
2403.18529	8862
2405.98466	8869.9
2408.78226	8808.7
2411.57809	8799.7
2414.37216	8788.8
2417.16446	8789.3
2419.955	8761.3
2422.74378	8745.5
2425.5308	8751.9
2428.31606	8785.6
2431.09956	8730.8
2433.88131	8738.6
2436.6613	8755.5
2439.43954	8764.9
2442.21603	8757.6
2444.99077	8770.8
2447.76377	8753
2450.53501	8753.7
2453.30451	8749.2
2456.07226	8755.2
2458.83827	8771.2
2461.60254	8769.6
2464.36507	8784.7
2467.12586	8761.1
2469.88492	8742.8
2472.64224	8743.2
2475.39782	8778.1
2478.15167	8779.8
2480.90379	8795.1
2483.65417	8816.5
2486.40283	8853
2489.14976	8872.4
2491.89497	8877.5
2494.63845	8910.6
2497.3802	8903.8
2500.12024	8879.1
2502.85855	8885
2505.59514	8865.4
2508.33002	8826.1
2511.06318	8793.7
2513.79462	8796.8
2516.52435	8764.2
2519.25237	8752
2521.97867	8712.2
2524.70327	8714.5
2527.42616	8690.4
2530.14734	8693.5
2532.86681	8695.4
2535.58458	8690.8
2538.30065	8678.2
2541.01501	8710.8
2543.72768	8675.9
2546.43864	8698.9
2549.14791	8666.8
2551.85548	8654.6
2554.56136	8655.8
2557.26554	8648
2559.96803	8645.6
2562.66883	8674.1
2565.36794	8660.8
2568.06536	8614.6
2570.7611	8623.2
2573.45514	8619.8
2576.14751	8618.2
2578.83819	8595
2581.52719	8631.5
2584.21451	8602.5
2586.90015	8577.6
2589.58411	8623.7
2592.2664	8617.6
2594.94701	8589.5
2597.62594	8618.6
2600.30321	8581.4
2602.9788	8576.6
2605.65273	8603
2608.32498	8593.4
2610.99557	8605.5
2613.66449	8614.9
2616.33175	8609.1
2618.99734	8623.7
2621.66128	8624.6
2624.32355	8638.4
2626.98416	8647.5
2629.64311	8645.4
2632.30041	8653.8
2634.95605	8604.3
2637.61004	8603.4
2640.26238	8610.5
2642.91306	8599
2645.56209	8589.8
2648.20948	8576.3
2650.85521	8565.1
2653.4993	8559.1
2656.14175	8550.5
2658.78255	8573.3
2661.42171	8587.4
2664.05923	8574.7
2666.6951	8593.3
2669.32934	8597
2671.96194	8628.7
2674.59291	8627.5
2677.22224	8624.1
2679.84993	8627.2
2682.476	8605.3
2685.10043	8623.5
2687.72324	8595.6
2690.34441	8579.5
2692.96396	8602.3
2695.58188	8604.9
2698.19818	8575.7
2700.81285	8574.3
2703.4259	8565.1
2706.03733	8634.9
2708.64714	8608.3
2711.25533	8590.2
2713.86191	8589
2716.46687	8610.2
2719.07021	8619
2721.67194	8633.2
2724.27206	8624.7
2726.87057	8639.3
2729.46747	8653.8
2732.06276	8662.3
2734.65644	8641.3
2737.24852	8636.4
2739.83899	8595.9
2742.42786	8604.9
2745.01513	8577
2747.60079	8599.8
2750.18486	8577.8
2752.76733	8571.8
2755.3482	8555.1
2757.92747	8564.8
2760.50515	8541.4
2763.08123	8555.7
2765.65573	8516.5
2768.22863	8534.2
2770.79994	8532.2
2773.36967	8536.8
2775.9378	8549.1
2778.50435	8567
2781.06932	8573.7
2783.6327	8553
2786.1945	8576.2
2788.75471	8569.5
2791.31335	8555.7
2793.87041	8561.8
2796.42589	8577.1
2798.97979	8575.4
2801.53212	8564.9
2804.08288	8540.4
2806.63206	8528.8
2809.17967	8549.7
2811.72571	8524
2814.27018	8532.4
2816.81308	8547.3
2819.35442	8528.6
2821.89419	8532.7
2824.43239	8561.1
2826.96904	8572.4
2829.50412	8582.9
2832.03763	8551.6
2834.56959	8570.7
2837.1	8578.6
2839.62884	8604.6
2842.15613	8659.7
2844.68186	8723.8
2847.20604	8780.6
2849.72867	8810.4
2852.24974	8840.2
2854.76927	8833.5
2857.28724	8847.6
2859.80367	8819.9
2862.31855	8788.5
2864.83189	8798.1
2867.34368	8754.1
2869.85393	8797.1
2872.36264	8746.2
2874.8698	8762.7
2877.37543	8732.4
2879.87952	8756.1
2882.38207	8733.9
2884.88308	8743
2887.38256	8750.7
2889.88051	8734.5
2892.37692	8761
2894.8718	8747.7
2897.36515	8747.2
2899.85698	8753
2902.34727	8778.6
2904.83604	8773.1
2907.32328	8792.8
2909.809	8793.4
2912.29319	8801
2914.77587	8823.7
2917.25702	8790.3
2919.73665	8782.2
2922.21476	8775.9
2924.69136	8782.6
2927.16644	8761.5
2929.64	8728.3
2932.11205	8683.2
2934.58258	8665.2
2937.05161	8647.3
2939.51912	8631.2
2941.98513	8585.3
2944.44962	8535.4
2946.91261	8474.5
2949.37409	8451
2951.83407	8425.6
2954.29254	8373.3
2956.74951	8381.3
2959.20498	8361.1
2961.65895	8343.9
2964.11142	8314.3
2966.56239	8287.3
2969.01186	8288.2
2971.45984	8234.5
2973.90632	8233.4
2976.35131	8198.3
2978.7948	8193.4
2981.23681	8169.5
2983.67732	8159.5
2986.11635	8124.6
2988.55388	8100
2990.98993	8073.2
2993.4245	8062.3
2995.85758	8025.8
2998.28917	8014
3000.71928	7988.3
3003.14791	7948.8
3005.57506	7958
3008.00073	7948.3
3010.42493	7944.1
3012.84764	7919.3
3015.26888	7915.2
3017.68865	7905.2
3020.10694	7864.9
3022.52376	7829
3024.9391	7838.7
3027.35298	7826.7
3029.76539	7806.6
3032.17632	7805.8
3034.5858	7784.8
3036.9938	7768.2
3039.40034	7776.6
3041.80542	7794.6
3044.20903	7751
3046.61118	7756.7
3049.01187	7735.3
3051.4111	7738.9
3053.80888	7729
3056.20519	7705
3058.60005	7676.7
3060.99345	7654.2
3063.3854	7649.2
3065.7759	7623.1
3068.16494	7597.1
3070.55254	7554.9
3072.93868	7541.2
3075.32338	7504.4
3077.70662	7482.7
3080.08842	7445
3082.46878	7447.1
3084.84769	7441.3
3087.22515	7441.7
3089.60118	7424.2
3091.97576	7419.5
3094.3489	7404
3096.72061	7411.1
3099.09087	7396.2
3101.4597	7374.5
3103.82709	7415.2
3106.19305	7397.4
3108.55757	7401.7
3110.92066	7354.1
3113.28232	7367.8
3115.64255	7338.1
3118.00134	7320.5
3120.35871	7319.4
3122.71466	7291.1
3125.06917	7310.1
3127.42226	7285.2
3129.77393	7298.8
3132.12417	7273.1
3134.47299	7266.8
3136.82039	7271.2
3139.16636	7262.6
3141.51092	7261.2
3143.85406	7255.8
3146.19579	7269.3
3148.53609	7266.3
3150.87499	7269.8
3153.21246	7260.1
3155.54853	7294.5
3157.88318	7270.2
3160.21642	7277.6
3162.54826	7294.7
3164.87868	7302.2
3167.2077	7300.9
3169.5353	7306.4
3171.86151	7289.2
3174.18631	7288.9
3176.5097	7303.7
3178.83169	7290.2
3181.15228	7275
3183.47147	7260.8
3185.78926	7257.9
3188.10565	7243.1
3190.42065	7235.6
3192.73424	7249.3
3195.04645	7257.9
3197.35725	7279.4
3199.66667	7264.6
3201.97469	7237.5
3204.28132	7248.7
3206.58656	7269.1
3208.8904	7261.6
3211.19287	7288.8
3213.49394	7262.2
3215.79363	7299.3
3218.09193	7292.1
3220.38884	7287.6
3222.68438	7310.1
3224.97853	7316.6
3227.2713	7273.1
3229.56269	7258.4
3231.8527	7260.2
3234.14133	7254.3
3236.42858	7250
3238.71446	7240.6
3240.99896	7208.4
3243.28209	7214.5
3245.56384	7223.3
3247.84423	7206.9
3250.12324	7218.2
3252.40088	7180.7
3254.67715	7194.4
3256.95205	7182
3259.22558	7173.3
3261.49775	7162.8
3263.76855	7170.4
3266.03799	7149.9
3268.30606	7138.9
3270.57277	7104.5
3272.83812	7102.5
3275.10211	7093.3
3277.36474	7091
3279.62601	7068.4
3281.88593	7067.3
3284.14448	7083.6
3286.40168	7075.2
3288.65753	7083.7
3290.91202	7063.1
3293.16516	7045.5
3295.41695	7054.2
3297.66738	6980
3299.91647	6962.3
3302.16421	6908.6
3304.4106	6880.3
3306.65564	6825.8
3308.89933	6773.1
3311.14169	6745.2
3313.38269	6682.2
3315.62236	6670.3
3317.86068	6590.8
3320.09766	6520.8
3322.3333	6484.4
3324.5676	6444.8
3326.80056	6357.5
3329.03219	6314
3331.26248	3.5
3333.49143	-1
3335.71905	-0.8
