Data from AgNPs_FTO_APTES_UA_5uM_CRN_50uM_R6G_10uM_NaF_0.1M_Addition_RamanShift__11__13-55-26-815.txt Node

Date: Mon Feb 07 13:55:26 GMT 2022
User: TCL
Spectrometer: QEP01345
Trigger mode: 4
Integration Time (sec): 7.000000E0
Scans to average: 10
Electric dark correction enabled: true
Nonlinearity correction enabled: false
Boxcar width: 0
XAxis mode: Raman Shifts
Number of Pixels in Spectrum: 1044
>>>>>Begin Spectral Data<<<<<
46.04893	-0.2125
50.45542	-1.0125
54.85868	-1.3125
59.25871	-0.0125
63.6555	72.3875
68.04907	74.7875
72.43941	77.9875
76.82654	80.7875
81.21044	85.0875
85.59113	88.5875
89.96862	90.2875
94.34289	89.2875
98.71396	93.0875
103.08183	98.9875
107.4465	100.5875
111.80798	103.8875
116.16626	108.8875
120.52136	116.5875
124.87327	118.5875
129.222	126.2875
133.56755	137.8875
137.90993	150.4875
142.24913	165.4875
146.58517	191.5875
150.91804	227.4875
155.24774	270.7875
159.57429	344.5875
163.89768	447.8875
168.21792	596.0875
172.53501	821.5875
176.84895	1137.1875
181.15975	1615.3875
185.46741	2272.8875
189.77193	3129.0875
194.07331	4200.1875
198.37157	5429.4875
202.6667	6726.0875
206.9587	7983.7875
211.24758	9219.7875
215.53334	10464.1875
219.81599	11761.4875
224.09553	13162.5875
228.37195	14698.1875
232.64527	16361.0875
236.91549	18145.5875
241.18261	19927.0875
245.44663	21721.0875
249.70755	23297.6875
253.96539	24672.2875
258.22014	25874.8875
262.4718	26787.3875
266.72039	27444.9875
270.96589	27812.5875
275.20832	27959.9875
279.44768	27872.1875
283.68397	27782.1875
287.91719	27612.3875
292.14735	27559.0875
296.37445	27587.4875
300.59849	27621.2875
304.81948	27689.1875
309.03742	27597.9875
313.25231	27325.9875
317.46415	26830.0875
321.67296	26190.8875
325.87872	25635.6875
330.08145	25369.0875
334.28114	25301.1875
338.47781	25371.8875
342.67145	25611.2875
346.86207	25893.8875
351.04966	26182.4875
355.23424	26483.0875
359.4158	26735.1875
363.59435	26985.0875
367.76989	27107.3875
371.94243	27167.8875
376.11196	27223.6875
380.27849	27233.6875
384.44203	27263.2875
388.60257	27411.7875
392.76012	27745.8875
396.91468	28238.2875
401.06626	28762.7875
405.21485	29096.9875
409.36047	28991.1875
413.50311	28737.5875
417.64277	28562.6875
421.77947	28644.5875
425.9132	28829.3875
430.04396	29000.6875
434.17176	29150.5875
438.2966	29327.7875
442.41849	29690.0875
446.53742	30249.1875
450.6534	30852.0875
454.76644	31322.5875
458.87653	31485.0875
462.98368	31556.6875
467.08789	31409.2875
471.18916	31172.5875
475.2875	31009.7875
479.38291	30946.3875
483.4754	30889.7875
487.56496	30692.5875
491.6516	30212.7875
495.73531	29659.5875
499.81612	29246.8875
503.89401	29144.1875
507.96899	29265.7875
512.04106	29336.1875
516.11023	29158.8875
520.1765	28848.4875
524.23987	28447.8875
528.30034	28024.4875
532.35792	27708.3875
536.41261	27489.3875
540.46441	27297.4875
544.51333	27380.0875
548.55936	27717.0875
552.60252	28328.0875
556.64279	28961.8875
560.6802	29524.5875
564.71473	30043.1875
568.7464	30761.1875
572.7752	32100.9875
576.80114	33616.8875
580.82422	35027.2875
584.84444	36053.5875
588.86181	36982.1875
592.87633	37780.5875
596.888	37582.9875
600.89682	36160.6875
604.9028	35112.3875
608.90594	35300.1875
612.90624	35700.8875
616.90371	33357.9875
620.89834	29683.4875
624.89015	28197.1875
628.87913	28270.1875
632.86528	28615.4875
636.84862	28632.9875
640.82913	28073.2875
644.80683	27383.4875
648.78172	27041.9875
652.75379	26855.8875
656.72306	26946.4875
660.68952	27221.9875
664.65319	27153.0875
668.61405	26912.5875
672.57211	26857.6875
676.52738	26908.2875
680.47986	26901.8875
684.42955	26779.3875
688.37646	26714.8875
692.32058	26814.0875
696.26192	27088.6875
700.20048	27361.4875
704.13626	27620.5875
708.06928	27865.6875
711.99952	27964.0875
715.927	27889.0875
719.85171	27735.5875
723.77365	27431.4875
727.69284	26967.2875
731.60928	26575.6875
735.52295	26396.2875
739.43388	26296.2875
743.34206	26332.9875
747.24749	26487.4875
751.15017	26886.4875
755.05012	27380.1875
758.94733	28174.3875
762.8418	29399.3875
766.73354	31007.4875
770.62254	32375.1875
774.50882	32302.1875
778.39237	30864.8875
782.27321	29122.9875
786.15132	27763.9875
790.02671	26913.9875
793.89938	26333.0875
797.76935	26088.5875
801.6366	25985.9875
805.50115	25854.3875
809.36299	25779.8875
813.22213	25702.4875
817.07857	25678.9875
820.93231	25609.3875
824.78336	25550.3875
828.63172	25381.5875
832.47738	25251.3875
836.32036	25148.7875
840.16066	25128.2875
843.99827	25132.8875
847.8332	25169.9875
851.66546	25175.6875
855.49504	25223.6875
859.32195	25224.4875
863.1462	25129.8875
866.96777	25057.6875
870.78668	25000.9875
874.60293	24985.0875
878.41652	24945.0875
882.22745	24987.6875
886.03573	25008.7875
889.84136	25062.4875
893.64433	24993.0875
897.44466	24949.3875
901.24235	24896.1875
905.0374	24887.2875
908.8298	24910.0875
912.61957	25021.2875
916.40671	25411.9875
920.19121	25897.9875
923.97308	26170.1875
927.75233	25984.3875
931.52895	25496.2875
935.30295	25005.2875
939.07433	24569.9875
942.84309	24181.7875
946.60924	24002.6875
950.37278	23814.6875
954.13371	23767.1875
957.89203	23764.7875
961.64774	23811.2875
965.40086	23827.1875
969.15137	23759.9875
972.89929	23583.1875
976.64461	23455.8875
980.38733	23375.0875
984.12747	23314.0875
987.86502	23362.8875
991.59999	23452.5875
995.33237	23559.2875
999.06217	23786.5875
1002.78939	24050.0875
1006.51404	24354.2875
1010.23611	24717.3875
1013.95561	24996.3875
1017.67255	25026.2875
1021.38692	24878.6875
1025.09872	24576.8875
1028.80796	24344.9875
1032.51465	24237.7875
1036.21877	24272.9875
1039.92035	24334.8875
1043.61937	24560.7875
1047.31584	24669.8875
1051.00976	24837.8875
1054.70114	25004.7875
1058.38998	25284.3875
1062.07627	25674.3875
1065.76003	26121.3875
1069.44126	26585.3875
1073.11995	26967.8875
1076.79611	27227.7875
1080.46974	27257.2875
1084.14085	27314.8875
1087.80943	27525.7875
1091.47549	27869.8875
1095.13903	28078.5875
1098.80005	27876.5875
1102.45857	27183.6875
1106.11456	26437.3875
1109.76805	25976.8875
1113.41903	25814.1875
1117.06751	25883.0875
1120.71348	26071.9875
1124.35696	26340.9875
1127.99793	26629.9875
1131.63641	26860.0875
1135.2724	26879.9875
1138.90589	26959.7875
1142.5369	27146.7875
1146.16542	27462.6875
1149.79145	27833.2875
1153.415	28306.1875
1157.03607	28836.5875
1160.65467	29737.7875
1164.27079	31006.7875
1167.88443	32539.9875
1171.49561	34013.4875
1175.10432	35613.9875
1178.71056	37543.1875
1182.31434	39440.7875
1185.91565	40515.9875
1189.51451	40832.5875
1193.11091	40548.6875
1196.70485	39638.3875
1200.29634	38445.6875
1203.88538	37634.4875
1207.47197	37490.3875
1211.05612	37585.9875
1214.63782	37231.9875
1218.21708	36090.3875
1221.79391	34555.8875
1225.36829	33230.6875
1228.94024	32331.3875
1232.50976	31860.2875
1236.07685	31622.7875
1239.6415	31545.6875
1243.20374	31623.4875
1246.76355	31845.1875
1250.32093	32319.7875
1253.8759	32913.1875
1257.42845	33736.8875
1260.97859	34610.3875
1264.52631	35583.2875
1268.07163	36534.4875
1271.61453	37475.7875
1275.15503	38541.1875
1278.69312	39777.9875
1282.22882	41191.3875
1285.76211	42752.3875
1289.29301	44561.2875
1292.82151	46686.9875
1296.34761	49209.5875
1299.87133	51928.4875
1303.39266	54336.7875
1306.9116	56082.4875
1310.42815	57007.6875
1313.94233	57085.6875
1317.45412	56760.1875
1320.96354	56633.1875
1324.47058	56701.1875
1327.97525	57121.7875
1331.47754	57595.7875
1334.97747	57796.9875
1338.47502	57845.3875
1341.97022	57819.7875
1345.46305	57464.2875
1348.95352	56572.1875
1352.44163	55440.2875
1355.92738	54496.3875
1359.41078	54336.7875
1362.89183	54327.6875
1366.37053	53331.8875
1369.84688	50505.9875
1373.32088	46631.0875
1376.79254	43757.6875
1380.26186	42783.0875
1383.72883	43071.7875
1387.19347	43551.8875
1390.65578	43498.9875
1394.11575	43361.6875
1397.57339	43634.9875
1401.0287	44144.5875
1404.48168	44471.8875
1407.93234	44029.1875
1411.38068	42793.2875
1414.82669	40940.4875
1418.27039	38805.2875
1421.71177	36889.7875
1425.15083	35438.6875
1428.58758	34710.6875
1432.02203	34893.3875
1435.45416	35716.3875
1438.88399	36835.0875
1442.31151	37745.4875
1445.73673	38495.8875
1449.15965	39192.4875
1452.58027	39785.5875
1455.9986	40251.3875
1459.41463	40590.2875
1462.82837	41149.9875
1466.23982	41814.7875
1469.64898	42390.3875
1473.05586	42668.1875
1476.46045	42631.4875
1479.86276	42438.5875
1483.26279	42101.0875
1486.66054	42013.3875
1490.05602	42145.3875
1493.44922	42618.7875
1496.84016	43172.1875
1500.22882	43928.3875
1503.61521	44780.0875
1506.99934	45625.7875
1510.38121	46249.9875
1513.76081	46424.7875
1517.13816	46306.7875
1520.51324	46278.1875
1523.88607	46357.0875
1527.25665	46693.6875
1530.62498	46831.6875
1533.99105	46427.9875
1537.35488	45485.7875
1540.71647	44093.6875
1544.07581	42506.5875
1547.4329	40857.0875
1550.78776	39633.6875
1554.14038	38771.7875
1557.49077	38287.9875
1560.83892	38041.3875
1564.18484	37905.9875
1567.52853	38018.9875
1570.86999	38271.3875
1574.20922	39111.3875
1577.54624	40030.1875
1580.88103	40577.8875
1584.2136	41096.6875
1587.54395	42169.4875
1590.87208	43870.7875
1594.19801	45782.8875
1597.52172	47328.9875
1600.84321	47244.4875
1604.16251	44983.8875
1607.47959	41685.0875
1610.79447	38460.4875
1614.10715	35521.6875
1617.41763	32998.7875
1620.7259	31244.0875
1624.03199	30204.5875
1627.33587	30072.8875
1630.63757	30788.3875
1633.93707	32691.9875
1637.23439	35894.2875
1640.52951	40624.9875
1643.82246	46307.0875
1647.11321	51217.1875
1650.40179	52961.3875
1653.68819	50329.7875
1656.97241	44584.8875
1660.25446	38219.2875
1663.53433	32883.4875
1666.81203	29078.8875
1670.08756	26586.6875
1673.36092	24941.0875
1676.63211	23949.2875
1679.90115	23268.4875
1683.16801	22740.8875
1686.43272	22402.8875
1689.69527	22088.3875
1692.95567	21868.0875
1696.2139	21708.9875
1699.46999	21559.6875
1702.72392	21492.5875
1705.97571	21354.1875
1709.22535	21256.8875
1712.47284	21251.7875
1715.71819	21166.7875
1718.96139	21065.0875
1722.20246	20957.6875
1725.44139	20870.3875
1728.67818	20716.4875
1731.91284	20594.4875
1735.14537	20457.0875
1738.37576	20293.7875
1741.60403	20240.5875
1744.83017	20145.2875
1748.05418	20082.6875
1751.27607	20047.8875
1754.49584	20046.6875
1757.71349	20004.0875
1760.92903	19964.6875
1764.14244	19926.6875
1767.35375	19913.7875
1770.56294	19823.9875
1773.77002	19810.2875
1776.97499	19744.6875
1780.17785	19665.6875
1783.37861	19609.8875
1786.57727	19601.2875
1789.77382	19507.4875
1792.96828	19487.5875
1796.16064	19404.5875
1799.3509	19385.5875
1802.53907	19318.7875
1805.72514	19254.9875
1808.90913	19237.4875
1812.09102	19131.9875
1815.27083	19089.3875
1818.44856	19056.0875
1821.6242	19043.3875
1824.79776	18985.6875
1827.96924	18963.2875
1831.13864	18948.3875
1834.30597	18897.4875
1837.47122	18914.3875
1840.6344	18879.2875
1843.7955	18909.2875
1846.95454	18864.3875
1850.11151	18853.7875
1853.26642	18808.5875
1856.41926	18837.2875
1859.57004	18832.7875
1862.71876	18791.8875
1865.86542	18776.5875
1869.01003	18677.6875
1872.15258	18660.5875
1875.29308	18583.4875
1878.43152	18538.2875
1881.56792	18545.3875
1884.70227	18490.9875
1887.83457	18467.3875
1890.96482	18436.2875
1894.09304	18413.2875
1897.21921	18405.2875
1900.34335	18340.7875
1903.46544	18333.5875
1906.58551	18283.6875
1909.70353	18251.2875
1912.81953	18220.6875
1915.93349	18168.8875
1919.04543	18125.2875
1922.15534	18081.9875
1925.26322	18012.2875
1928.36908	17961.9875
1931.47292	17967.5875
1934.57473	17911.5875
1937.67453	17830.8875
1940.77232	17794.6875
1943.86808	17748.8875
1946.96184	17680.3875
1950.05358	17627.5875
1953.14331	17570.1875
1956.23103	17497.8875
1959.31675	17483.1875
1962.40046	17410.5875
1965.48217	17308.5875
1968.56188	17268.3875
1971.63959	17186.9875
1974.7153	17124.4875
1977.78901	17079.4875
1980.86073	17005.3875
1983.93046	16924.9875
1986.99819	16901.0875
1990.06394	16842.7875
1993.1277	16754.5875
1996.18947	16729.2875
1999.24925	16708.8875
2002.30706	16635.5875
2005.36288	16585.0875
2008.41672	16545.4875
2011.46859	16470.6875
2014.51848	16410.1875
2017.56639	16350.2875
2020.61233	16285.5875
2023.6563	16245.9875
2026.6983	16181.0875
2029.73833	16152.3875
2032.7764	16115.8875
2035.8125	16067.0875
2038.84664	15991.4875
2041.87881	16004.4875
2044.90903	15959.6875
2047.93729	15902.5875
2050.96359	15912.9875
2053.98794	15886.9875
2057.01034	15834.6875
2060.03078	15842.8875
2063.04927	15824.4875
2066.06582	15816.1875
2069.08042	15791.8875
2072.09307	15778.8875
2075.10378	15753.0875
2078.11255	15704.6875
2081.11938	15691.1875
2084.12426	15709.2875
2087.12722	15696.2875
2090.12824	15661.1875
2093.12732	15666.5875
2096.12447	15646.9875
2099.11969	15644.8875
2102.11299	15650.9875
2105.10435	15656.3875
2108.09379	15644.5875
2111.08131	15669.0875
2114.0669	15670.9875
2117.05057	15669.4875
2120.03233	15673.4875
2123.01216	15684.5875
2125.99008	15673.2875
2128.96609	15681.8875
2131.94018	15699.3875
2134.91236	15680.2875
2137.88263	15652.2875
2140.851	15689.0875
2143.81746	15638.9875
2146.78201	15661.2875
2149.74466	15620.5875
2152.7054	15610.3875
2155.66425	15608.5875
2158.6212	15599.6875
2161.57625	15542.5875
2164.52941	15548.4875
2167.48067	15537.4875
2170.43004	15549.6875
2173.37752	15519.3875
2176.32311	15530.9875
2179.26681	15522.5875
2182.20863	15497.3875
2185.14856	15473.4875
2188.08661	15496.7875
2191.02278	15483.2875
2193.95707	15487.8875
2196.88948	15456.4875
2199.82001	15413.7875
2202.74867	15374.8875
2205.67545	15346.6875
2208.60037	15320.3875
2211.52341	15273.4875
2214.44458	15281.0875
2217.36388	15241.3875
2220.28132	15216.3875
2223.1969	15165.7875
2226.11061	15121.1875
2229.02246	15129.8875
2231.93245	15111.3875
2234.84058	15038.2875
2237.74686	15008.9875
2240.65128	15022.7875
2243.55385	14961.3875
2246.45456	14968.1875
2249.35343	14931.9875
2252.25044	14874.5875
2255.14561	14860.3875
2258.03893	14812.0875
2260.93041	14747.5875
2263.82004	14735.1875
2266.70783	14683.7875
2269.59378	14602.9875
2272.4779	14570.8875
2275.36017	14522.9875
2278.24061	14503.7875
2281.11922	14452.3875
2283.996	14421.9875
2286.87094	14411.5875
2289.74405	14367.7875
2292.61534	14371.6875
2295.4848	14315.2875
2298.35243	14280.4875
2301.21824	14291.5875
2304.08223	14265.2875
2306.94439	14275.9875
2309.80474	14267.3875
2312.66327	14239.8875
2315.51999	14232.0875
2318.37489	14218.1875
2321.22797	14152.5875
2324.07925	14141.7875
2326.92871	14095.1875
2329.77637	14054.4875
2332.62222	14038.0875
2335.46626	14047.0875
2338.3085	14016.0875
2341.14893	13992.7875
2343.98756	13983.1875
2346.8244	13981.1875
2349.65943	13986.1875
2352.49267	13974.9875
2355.32411	14010.2875
2358.15376	13980.9875
2360.98161	13960.5875
2363.80768	13972.8875
2366.63195	13967.2875
2369.45444	13969.6875
2372.27514	13948.2875
2375.09405	13880.4875
2377.91118	13857.0875
2380.72652	13819.2875
2383.54009	13766.5875
2386.35187	13771.6875
2389.16188	13726.0875
2391.97011	13666.2875
2394.77657	13664.1875
2397.58125	13598.8875
2400.38416	13605.1875
2403.18529	13585.0875
2405.98466	13576.2875
2408.78226	13557.8875
2411.57809	13536.3875
2414.37216	13532.2875
2417.16446	13510.0875
2419.955	13510.2875
2422.74378	13486.1875
2425.5308	13445.2875
2428.31606	13460.9875
2431.09956	13439.2875
2433.88131	13394.2875
2436.6613	13403.2875
2439.43954	13411.6875
2442.21603	13386.5875
2444.99077	13367.1875
2447.76377	13372.3875
2450.53501	13334.2875
2453.30451	13321.8875
2456.07226	13310.9875
2458.83827	13290.8875
2461.60254	13304.0875
2464.36507	13262.4875
2467.12586	13275.6875
2469.88492	13303.7875
2472.64224	13299.0875
2475.39782	13286.4875
2478.15167	13253.0875
2480.90379	13251.3875
2483.65417	13236.4875
2486.40283	13222.6875
2489.14976	13233.8875
2491.89497	13202.1875
2494.63845	13250.5875
2497.3802	13237.5875
2500.12024	13216.3875
2502.85855	13185.2875
2505.59514	13181.4875
2508.33002	13189.4875
2511.06318	13174.3875
2513.79462	13114.6875
2516.52435	13132.8875
2519.25237	13134.4875
2521.97867	13102.0875
2524.70327	13099.1875
2527.42616	13073.7875
2530.14734	13088.3875
2532.86681	13074.0875
2535.58458	13075.2875
2538.30065	13028.8875
2541.01501	13025.4875
2543.72768	13004.1875
2546.43864	13002.2875
2549.14791	12980.9875
2551.85548	12957.6875
2554.56136	12956.9875
2557.26554	12916.4875
2559.96803	12883.0875
2562.66883	12853.9875
2565.36794	12850.1875
2568.06536	12811.0875
2570.7611	12787.2875
2573.45514	12816.2875
2576.14751	12801.0875
2578.83819	12743.1875
2581.52719	12750.3875
2584.21451	12748.0875
2586.90015	12721.4875
2589.58411	12736.3875
2592.2664	12737.5875
2594.94701	12677.2875
2597.62594	12684.6875
2600.30321	12648.7875
2602.9788	12635.9875
2605.65273	12627.6875
2608.32498	12645.5875
2610.99557	12610.7875
2613.66449	12650.7875
2616.33175	12619.1875
2618.99734	12621.5875
2621.66128	12579.4875
2624.32355	12601.3875
2626.98416	12551.0875
2629.64311	12518.5875
2632.30041	12531.0875
2634.95605	12534.7875
2637.61004	12507.8875
2640.26238	12514.6875
2642.91306	12512.5875
2645.56209	12502.8875
2648.20948	12516.8875
2650.85521	12539.1875
2653.4993	12525.1875
2656.14175	12501.8875
2658.78255	12523.1875
2661.42171	12523.2875
2664.05923	12534.1875
2666.6951	12537.5875
2669.32934	12548.3875
2671.96194	12513.7875
2674.59291	12539.0875
2677.22224	12538.1875
2679.84993	12521.5875
2682.476	12535.4875
2685.10043	12547.6875
2687.72324	12511.9875
2690.34441	12475.2875
2692.96396	12486.6875
2695.58188	12513.3875
2698.19818	12494.1875
2700.81285	12508.7875
2703.4259	12509.8875
2706.03733	12530.9875
2708.64714	12499.1875
2711.25533	12517.5875
2713.86191	12486.7875
2716.46687	12529.2875
2719.07021	12512.9875
2721.67194	12545.2875
2724.27206	12531.7875
2726.87057	12538.2875
2729.46747	12574.3875
2732.06276	12570.4875
2734.65644	12573.1875
2737.24852	12533.1875
2739.83899	12525.1875
2742.42786	12538.1875
2745.01513	12495.1875
2747.60079	12488.0875
2750.18486	12498.1875
2752.76733	12458.9875
2755.3482	12455.3875
2757.92747	12447.6875
2760.50515	12434.2875
2763.08123	12435.9875
2765.65573	12429.5875
2768.22863	12440.9875
2770.79994	12399.8875
2773.36967	12411.4875
2775.9378	12405.6875
2778.50435	12399.3875
2781.06932	12391.6875
2783.6327	12378.3875
2786.1945	12354.0875
2788.75471	12365.1875
2791.31335	12339.7875
2793.87041	12299.1875
2796.42589	12288.0875
2798.97979	12268.3875
2801.53212	12262.4875
2804.08288	12250.0875
2806.63206	12191.8875
2809.17967	12152.4875
2811.72571	12147.4875
2814.27018	12121.5875
2816.81308	12124.0875
2819.35442	12082.3875
2821.89419	12055.9875
2824.43239	12094.7875
2826.96904	12029.1875
2829.50412	12049.8875
2832.03763	12028.4875
2834.56959	11991.9875
2837.1	11983.3875
2839.62884	11993.9875
2842.15613	11984.6875
2844.68186	12004.1875
2847.20604	12006.4875
2849.72867	12027.3875
2852.24974	12019.6875
2854.76927	12028.8875
2857.28724	11988.2875
2859.80367	12002.4875
2862.31855	11967.6875
2864.83189	11946.6875
2867.34368	11889.5875
2869.85393	11912.3875
2872.36264	11851.7875
2874.8698	11841.6875
2877.37543	11793.3875
2879.87952	11806.3875
2882.38207	11819.9875
2884.88308	11809.2875
2887.38256	11819.5875
2889.88051	11802.6875
2892.37692	11823.2875
2894.8718	11795.6875
2897.36515	11790.6875
2899.85698	11797.5875
2902.34727	11807.9875
2904.83604	11819.9875
2907.32328	11827.8875
2909.809	11813.0875
2912.29319	11828.3875
2914.77587	11826.3875
2917.25702	11819.7875
2919.73665	11831.5875
2922.21476	11830.5875
2924.69136	11793.8875
2927.16644	11808.8875
2929.64	11788.1875
2932.11205	11753.4875
2934.58258	11733.9875
2937.05161	11756.0875
2939.51912	11730.4875
2941.98513	11718.7875
2944.44962	11677.5875
2946.91261	11641.9875
2949.37409	11640.2875
2951.83407	11641.7875
2954.29254	11611.8875
2956.74951	11584.8875
2959.20498	11582.4875
2961.65895	11563.2875
2964.11142	11565.7875
2966.56239	11536.7875
2969.01186	11528.3875
2971.45984	11502.6875
2973.90632	11488.3875
2976.35131	11465.0875
2978.7948	11458.1875
2981.23681	11431.1875
2983.67732	11404.0875
2986.11635	11358.3875
2988.55388	11319.4875
2990.98993	11290.8875
2993.4245	11253.5875
2995.85758	11227.2875
2998.28917	11155.7875
3000.71928	11160.0875
3003.14791	11130.7875
3005.57506	11104.0875
3008.00073	11078.9875
3010.42493	10966.3875
3012.84764	11024.8875
3015.26888	11001.7875
3017.68865	10958.1875
3020.10694	10952.9875
3022.52376	10898.6875
3024.9391	10899.9875
3027.35298	10907.4875
3029.76539	10888.6875
3032.17632	10866.7875
3034.5858	10814.5875
3036.9938	10826.8875
3039.40034	10822.7875
3041.80542	10836.1875
3044.20903	10786.1875
3046.61118	10785.1875
3049.01187	10727.9875
3051.4111	10722.1875
3053.80888	10735.1875
3056.20519	10706.2875
3058.60005	10632.4875
3060.99345	10639.9875
3063.3854	10623.0875
3065.7759	10565.1875
3068.16494	10518.6875
3070.55254	10474.0875
3072.93868	10473.4875
3075.32338	10425.2875
3077.70662	10375.2875
3080.08842	10346.1875
3082.46878	10321.5875
3084.84769	10310.4875
3087.22515	10291.7875
3089.60118	10297.6875
3091.97576	10276.6875
3094.3489	10253.5875
3096.72061	10246.8875
3099.09087	10266.6875
3101.4597	10258.3875
3103.82709	10267.7875
3106.19305	10216.8875
3108.55757	10230.9875
3110.92066	10165.0875
3113.28232	10184.3875
3115.64255	10138.7875
3118.00134	10113.9875
3120.35871	10131.0875
3122.71466	10082.7875
3125.06917	10036.3875
3127.42226	10028.9875
3129.77393	10013.2875
3132.12417	9995.4875
3134.47299	9964.5875
3136.82039	9980.8875
3139.16636	9948.8875
3141.51092	9922.7875
3143.85406	9915.1875
3146.19579	9917.9875
3148.53609	9916.9875
3150.87499	9936.3875
3153.21246	9930.2875
3155.54853	9935.1875
3157.88318	9921.5875
3160.21642	9914.8875
3162.54826	9926.7875
3164.87868	9932.9875
3167.2077	9895.6875
3169.5353	9902.1875
3171.86151	9892.7875
3174.18631	9891.1875
3176.5097	9860.2875
3178.83169	9837.2875
3181.15228	9846.0875
3183.47147	9810.3875
3185.78926	9801.4875
3188.10565	9789.4875
3190.42065	9768.5875
3192.73424	9734.9875
3195.04645	9719.5875
3197.35725	9698.8875
3199.66667	9698.8875
3201.97469	9677.1875
3204.28132	9700.7875
3206.58656	9708.1875
3208.8904	9669.8875
3211.19287	9691.6875
3213.49394	9676.0875
3215.79363	9681.9875
3218.09193	9678.7875
3220.38884	9643.2875
3222.68438	9674.4875
3224.97853	9631.0875
3227.2713	9603.7875
3229.56269	9615.9875
3231.8527	9613.7875
3234.14133	9591.1875
3236.42858	9561.0875
3238.71446	9548.7875
3240.99896	9517.0875
3243.28209	9521.0875
3245.56384	9506.4875
3247.84423	9494.1875
3250.12324	9454.3875
3252.40088	9439.0875
3254.67715	9460.6875
3256.95205	9398.9875
3259.22558	9427.1875
3261.49775	9387.5875
3263.76855	9382.2875
3266.03799	9337.8875
3268.30606	9304.2875
3270.57277	9296.9875
3272.83812	9280.5875
3275.10211	9261.5875
3277.36474	9238.8875
3279.62601	9240.4875
3281.88593	9218.3875
3284.14448	9226.6875
3286.40168	9218.6875
3288.65753	9216.8875
3290.91202	9215.4875
3293.16516	9194.8875
3295.41695	9150.7875
3297.66738	9121.7875
3299.91647	9044.1875
3302.16421	9004.6875
3304.4106	8966.7875
3306.65564	8868.7875
3308.89933	8803.7875
3311.14169	8727.9875
3313.38269	8683.7875
3315.62236	8587.8875
3317.86068	8541.4875
3320.09766	8434.1875
3322.3333	8401.2875
3324.5676	8338.1875
3326.80056	8182.6875
3329.03219	8138.3875
3331.26248	2.5875
3333.49143	-0.2125
3335.71905	-1.0125
