Data from AgNPs_FTO_APTES_UA_5uM_CRN_1uM_R6G_10uM_NaF_0.1M_Addition_RamanShift__7__10-25-26-573.txt Node

Date: Mon Feb 07 10:25:26 GMT 2022
User: TCL
Spectrometer: QEP01345
Trigger mode: 4
Integration Time (sec): 7.000000E0
Scans to average: 10
Electric dark correction enabled: true
Nonlinearity correction enabled: false
Boxcar width: 0
XAxis mode: Raman Shifts
Number of Pixels in Spectrum: 1044
>>>>>Begin Spectral Data<<<<<
46.04893	0.2375
50.45542	-2.1625
54.85868	-0.6625
59.25871	0.3375
63.6555	95.0375
68.04907	98.0375
72.43941	106.4375
76.82654	107.0375
81.21044	112.4375
85.59113	113.7375
89.96862	118.3375
94.34289	119.3375
98.71396	125.9375
103.08183	130.2375
107.4465	131.6375
111.80798	137.2375
116.16626	144.5375
120.52136	148.0375
124.87327	156.5375
129.222	170.1375
133.56755	181.5375
137.90993	198.1375
142.24913	216.0375
146.58517	251.9375
150.91804	293.7375
155.24774	355.6375
159.57429	452.2375
163.89768	585.2375
168.21792	782.7375
172.53501	1075.9375
176.84895	1507.8375
181.15975	2117.9375
185.46741	2973.0375
189.77193	4099.9375
194.07331	5459.9375
198.37157	7033.4375
202.6667	8668.5375
206.9587	10306.7375
211.24758	11915.1375
215.53334	13546.8375
219.81599	15307.1375
224.09553	17238.9375
228.37195	19358.1375
232.64527	21676.1375
236.91549	24082.9375
241.18261	26422.4375
245.44663	28581.3375
249.70755	30513.3375
253.96539	32176.5375
258.22014	33523.0375
262.4718	34642.6375
266.72039	35367.5375
270.96589	35795.3375
275.20832	35746.3375
279.44768	35474.0375
283.68397	35120.4375
287.91719	34854.6375
292.14735	34710.3375
296.37445	34646.3375
300.59849	34773.5375
304.81948	35014.4375
309.03742	35119.6375
313.25231	34977.6375
317.46415	34524.6375
321.67296	33843.8375
325.87872	33216.6375
330.08145	32882.5375
334.28114	32717.3375
338.47781	32830.9375
342.67145	33133.7375
346.86207	33633.4375
351.04966	34298.2375
355.23424	34999.7375
359.4158	35672.4375
363.59435	36274.1375
367.76989	36576.8375
371.94243	36742.8375
376.11196	36752.2375
380.27849	36668.1375
384.44203	36756.2375
388.60257	37041.4375
392.76012	37509.5375
396.91468	38159.7375
401.06626	38870.3375
405.21485	39319.5375
409.36047	39145.8375
413.50311	38846.9375
417.64277	39053.1375
421.77947	39528.7375
425.9132	39894.4375
430.04396	40133.5375
434.17176	40165.1375
438.2966	40118.6375
442.41849	40361.6375
446.53742	41334.5375
450.6534	42481.2375
454.76644	43340.2375
458.87653	43505.6375
462.98368	43082.0375
467.08789	42357.9375
471.18916	41421.9375
475.2875	40570.7375
479.38291	40155.0375
483.4754	40073.1375
487.56496	39861.4375
491.6516	39447.8375
495.73531	38862.1375
499.81612	38577.0375
503.89401	38718.4375
507.96899	38956.6375
512.04106	38815.9375
516.11023	38293.8375
520.1765	37540.4375
524.23987	36828.8375
528.30034	36315.6375
532.35792	35858.0375
536.41261	35254.6375
540.46441	34743.9375
544.51333	34670.1375
548.55936	35036.4375
552.60252	35936.3375
556.64279	37030.5375
560.6802	37978.9375
564.71473	38678.3375
568.7464	39726.5375
572.7752	41585.3375
576.80114	43883.3375
580.82422	46588.7375
584.84444	50078.4375
588.86181	54794.6375
592.87633	58401.3375
596.888	57201.5375
600.89682	51436.3375
604.9028	47826.2375
608.90594	49161.1375
612.90624	51467.0375
616.90371	48016.3375
620.89834	40499.7375
624.89015	37080.6375
628.87913	36768.1375
632.86528	37227.7375
636.84862	36930.2375
640.82913	35885.3375
644.80683	34720.1375
648.78172	34200.0375
652.75379	34368.2375
656.72306	34869.4375
660.68952	35285.4375
664.65319	34903.1375
668.61405	34175.0375
672.57211	34065.4375
676.52738	34352.6375
680.47986	34320.0375
684.42955	33903.6375
688.37646	33590.0375
692.32058	33984.2375
696.26192	34829.6375
700.20048	35680.4375
704.13626	36123.1375
708.06928	36247.4375
711.99952	36207.2375
715.927	36298.8375
719.85171	36538.4375
723.77365	36251.1375
727.69284	35298.3375
731.60928	34432.0375
735.52295	34016.9375
739.43388	34027.5375
743.34206	34186.3375
747.24749	34542.6375
751.15017	35107.6375
755.05012	35907.9375
758.94733	37163.7375
762.8418	39056.7375
766.73354	41664.5375
770.62254	43886.8375
774.50882	43784.7375
778.39237	41467.9375
782.27321	38696.5375
786.15132	36446.9375
790.02671	35058.1375
793.89938	34356.8375
797.76935	34118.5375
801.6366	34067.3375
805.50115	34090.6375
809.36299	33915.7375
813.22213	33649.5375
817.07857	33382.7375
820.93231	33080.5375
824.78336	32773.2375
828.63172	32491.2375
832.47738	32376.4375
836.32036	32401.8375
840.16066	32477.1375
843.99827	32640.0375
847.8332	32568.5375
851.66546	32547.3375
855.49504	32650.0375
859.32195	32642.6375
863.1462	32499.3375
866.96777	32325.3375
870.78668	32279.0375
874.60293	32239.6375
878.41652	32259.5375
882.22745	32395.4375
886.03573	32496.2375
889.84136	32491.6375
893.64433	32334.6375
897.44466	32199.1375
901.24235	32120.7375
905.0374	32026.1375
908.8298	31949.4375
912.61957	32090.0375
916.40671	32478.8375
920.19121	33191.2375
923.97308	33948.2375
927.75233	34260.0375
931.52895	33781.5375
935.30295	32865.7375
939.07433	31880.1375
942.84309	31247.5375
946.60924	31018.3375
950.37278	30983.7375
954.13371	31047.1375
957.89203	31094.1375
961.64774	31081.6375
965.40086	31138.9375
969.15137	31124.0375
972.89929	30927.0375
976.64461	30810.1375
980.38733	30836.8375
984.12747	30860.1375
987.86502	31035.8375
991.59999	31193.2375
995.33237	31562.5375
999.06217	32337.1375
1002.78939	33268.1375
1006.51404	34297.0375
1010.23611	35216.1375
1013.95561	35753.5375
1017.67255	35742.1375
1021.38692	35079.6375
1025.09872	34254.3375
1028.80796	33843.9375
1032.51465	34150.2375
1036.21877	34713.1375
1039.92035	35023.9375
1043.61937	34925.6375
1047.31584	34588.1375
1051.00976	34175.6375
1054.70114	34031.2375
1058.38998	34177.7375
1062.07627	34489.3375
1065.76003	34920.3375
1069.44126	35572.7375
1073.11995	36519.2375
1076.79611	37343.0375
1080.46974	37721.2375
1084.14085	38009.4375
1087.80943	38606.7375
1091.47549	39130.6375
1095.13903	39296.4375
1098.80005	38549.9375
1102.45857	37195.6375
1106.11456	35987.6375
1109.76805	35372.0375
1113.41903	35097.0375
1117.06751	35197.7375
1120.71348	35480.1375
1124.35696	35879.1375
1127.99793	36337.4375
1131.63641	36817.3375
1135.2724	36916.3375
1138.90589	37020.9375
1142.5369	37322.6375
1146.16542	37844.2375
1149.79145	38462.6375
1153.415	38976.9375
1157.03607	39842.7375
1160.65467	41684.2375
1164.27079	44605.3375
1167.88443	47767.3375
1171.49561	50349.4375
1175.10432	53142.6375
1178.71056	57119.8375
1182.31434	60919.5375
1185.91565	62409.5375
1189.51451	61409.3375
1193.11091	59326.8375
1196.70485	57233.4375
1200.29634	55479.9375
1203.88538	54828.9375
1207.47197	55234.3375
1211.05612	55643.5375
1214.63782	54861.6375
1218.21708	52657.2375
1221.79391	50197.6375
1225.36829	48353.6375
1228.94024	47211.6375
1232.50976	46133.4375
1236.07685	45042.2375
1239.6415	44370.6375
1243.20374	44251.9375
1246.76355	44727.8375
1250.32093	45704.3375
1253.8759	47041.2375
1257.42845	48646.4375
1260.97859	50494.5375
1264.52631	52409.9375
1268.07163	54346.2375
1271.61453	56459.4375
1275.15503	58550.5375
1278.69312	61107.1375
1282.22882	64009.0375
1285.76211	67522.2375
1289.29301	71437.3375
1292.82151	75932.6375
1296.34761	81259.2375
1299.87133	87394.8375
1303.39266	93597.9375
1306.9116	98306.9375
1310.42815	100704.1375
1313.94233	100806.5375
1317.45412	98716.1375
1320.96354	95976.2375
1324.47058	94514.7375
1327.97525	94051.9375
1331.47754	93846.9375
1334.97747	92777.7375
1338.47502	90347.0375
1341.97022	87187.3375
1345.46305	83752.3375
1348.95352	81518.4375
1352.44163	81443.6375
1355.92738	84414.2375
1359.41078	89493.8375
1362.89183	93913.0375
1366.37053	94036.0375
1369.84688	87635.8375
1373.32088	76847.6375
1376.79254	68588.3375
1380.26186	65836.3375
1383.72883	66427.4375
1387.19347	66827.0375
1390.65578	65877.2375
1394.11575	65393.6375
1397.57339	66629.8375
1401.0287	69005.0375
1404.48168	71048.3375
1407.93234	71257.6375
1411.38068	69114.7375
1414.82669	65445.0375
1418.27039	61471.5375
1421.71177	57907.6375
1425.15083	55328.2375
1428.58758	54314.3375
1432.02203	55529.0375
1435.45416	58151.9375
1438.88399	60785.3375
1442.31151	62541.0375
1445.73673	63280.1375
1449.15965	63452.3375
1452.58027	63015.4375
1455.9986	62287.6375
1459.41463	62284.8375
1462.82837	63358.2375
1466.23982	65020.8375
1469.64898	66735.0375
1473.05586	67717.3375
1476.46045	67852.3375
1479.86276	67268.5375
1483.26279	66380.5375
1486.66054	65744.2375
1490.05602	65793.2375
1493.44922	66333.7375
1496.84016	66680.5375
1500.22882	67101.4375
1503.61521	67722.8375
1506.99934	68646.5375
1510.38121	69490.9375
1513.76081	69676.6375
1517.13816	69252.9375
1520.51324	68635.1375
1523.88607	68905.0375
1527.25665	69873.2375
1530.62498	70757.4375
1533.99105	70401.1375
1537.35488	68922.5375
1540.71647	66402.8375
1544.07581	63586.9375
1547.4329	60865.8375
1550.78776	58502.5375
1554.14038	56756.4375
1557.49077	55688.8375
1560.83892	54904.7375
1564.18484	54499.4375
1567.52853	54431.1375
1570.86999	54913.5375
1574.20922	56359.2375
1577.54624	57754.8375
1580.88103	58912.6375
1584.2136	60809.1375
1587.54395	64887.9375
1590.87208	70863.7375
1594.19801	77623.8375
1597.52172	82727.6375
1600.84321	82909.4375
1604.16251	76532.9375
1607.47959	67018.5375
1610.79447	58109.3375
1614.10715	51178.8375
1617.41763	46386.9375
1620.7259	43537.2375
1624.03199	42378.2375
1627.33587	42803.8375
1630.63757	44849.6375
1633.93707	49015.1375
1637.23439	56149.7375
1640.52951	67057.2375
1643.82246	80568.4375
1647.11321	91661.1375
1650.40179	92919.9375
1653.68819	82773.3375
1656.97241	67542.7375
1660.25446	54176.9375
1663.53433	45011.2375
1666.81203	39478.4375
1670.08756	36176.8375
1673.36092	34116.0375
1676.63211	32858.1375
1679.90115	31976.8375
1683.16801	31300.6375
1686.43272	30812.6375
1689.69527	30467.5375
1692.95567	30150.8375
1696.2139	29907.3375
1699.46999	29793.5375
1702.72392	29641.6375
1705.97571	29543.4375
1709.22535	29450.6375
1712.47284	29331.7375
1715.71819	29302.2375
1718.96139	29149.9375
1722.20246	29032.4375
1725.44139	28862.0375
1728.67818	28689.9375
1731.91284	28445.6375
1735.14537	28250.1375
1738.37576	28052.3375
1741.60403	27922.1375
1744.83017	27819.8375
1748.05418	27669.0375
1751.27607	27643.5375
1754.49584	27533.9375
1757.71349	27508.2375
1760.92903	27470.4375
1764.14244	27449.3375
1767.35375	27430.3375
1770.56294	27382.3375
1773.77002	27315.5375
1776.97499	27264.1375
1780.17785	27155.3375
1783.37861	27157.4375
1786.57727	27082.4375
1789.77382	27022.1375
1792.96828	26978.2375
1796.16064	26918.7375
1799.3509	26825.1375
1802.53907	26824.3375
1805.72514	26686.6375
1808.90913	26614.7375
1812.09102	26564.3375
1815.27083	26500.9375
1818.44856	26443.2375
1821.6242	26441.8375
1824.79776	26358.4375
1827.96924	26346.5375
1831.13864	26328.7375
1834.30597	26359.0375
1837.47122	26346.2375
1840.6344	26313.8375
1843.7955	26320.0375
1846.95454	26329.3375
1850.11151	26316.7375
1853.26642	26304.0375
1856.41926	26259.4375
1859.57004	26235.0375
1862.71876	26213.6375
1865.86542	26151.5375
1869.01003	26134.0375
1872.15258	26109.2375
1875.29308	26104.3375
1878.43152	26057.2375
1881.56792	26020.8375
1884.70227	26000.8375
1887.83457	26031.2375
1890.96482	25957.2375
1894.09304	25936.5375
1897.21921	25909.6375
1900.34335	25862.3375
1903.46544	25831.0375
1906.58551	25771.0375
1909.70353	25715.2375
1912.81953	25628.1375
1915.93349	25627.0375
1919.04543	25570.8375
1922.15534	25517.9375
1925.26322	25428.5375
1928.36908	25396.7375
1931.47292	25319.7375
1934.57473	25219.6375
1937.67453	25138.6375
1940.77232	25057.0375
1943.86808	25022.2375
1946.96184	24906.8375
1950.05358	24862.1375
1953.14331	24857.8375
1956.23103	24750.8375
1959.31675	24690.8375
1962.40046	24613.8375
1965.48217	24510.3375
1968.56188	24467.4375
1971.63959	24391.7375
1974.7153	24249.0375
1977.78901	24182.8375
1980.86073	24121.0375
1983.93046	24030.8375
1986.99819	23916.9375
1990.06394	23933.6375
1993.1277	23877.3375
1996.18947	23794.4375
1999.24925	23737.1375
2002.30706	23611.0375
2005.36288	23501.5375
2008.41672	23492.3375
2011.46859	23459.4375
2014.51848	23359.3375
2017.56639	23299.0375
2020.61233	23222.7375
2023.6563	23189.8375
2026.6983	23173.3375
2029.73833	23115.4375
2032.7764	23051.3375
2035.8125	23054.4375
2038.84664	22951.6375
2041.87881	22903.3375
2044.90903	22890.9375
2047.93729	22815.2375
2050.96359	22823.5375
2053.98794	22789.1375
2057.01034	22787.5375
2060.03078	22800.9375
2063.04927	22801.0375
2066.06582	22755.2375
2069.08042	22732.7375
2072.09307	22661.3375
2075.10378	22680.9375
2078.11255	22671.2375
2081.11938	22659.7375
2084.12426	22619.4375
2087.12722	22612.9375
2090.12824	22623.8375
2093.12732	22607.6375
2096.12447	22624.3375
2099.11969	22594.2375
2102.11299	22624.1375
2105.10435	22616.1375
2108.09379	22616.5375
2111.08131	22588.4375
2114.0669	22650.1375
2117.05057	22612.7375
2120.03233	22613.2375
2123.01216	22664.3375
2125.99008	22686.7375
2128.96609	22691.5375
2131.94018	22654.6375
2134.91236	22678.3375
2137.88263	22683.1375
2140.851	22654.3375
2143.81746	22668.5375
2146.78201	22639.5375
2149.74466	22676.6375
2152.7054	22611.1375
2155.66425	22627.9375
2158.6212	22640.0375
2161.57625	22577.2375
2164.52941	22594.1375
2167.48067	22544.9375
2170.43004	22592.1375
2173.37752	22587.3375
2176.32311	22549.8375
2179.26681	22579.9375
2182.20863	22580.7375
2185.14856	22605.3375
2188.08661	22617.3375
2191.02278	22639.7375
2193.95707	22582.2375
2196.88948	22561.1375
2199.82001	22506.4375
2202.74867	22452.5375
2205.67545	22451.5375
2208.60037	22425.6375
2211.52341	22380.4375
2214.44458	22410.6375
2217.36388	22331.8375
2220.28132	22312.4375
2223.1969	22247.5375
2226.11061	22248.7375
2229.02246	22189.1375
2231.93245	22200.9375
2234.84058	22193.9375
2237.74686	22162.2375
2240.65128	22204.1375
2243.55385	22148.7375
2246.45456	22068.9375
2249.35343	22014.8375
2252.25044	21897.1375
2255.14561	21855.7375
2258.03893	21817.7375
2260.93041	21743.2375
2263.82004	21689.9375
2266.70783	21635.2375
2269.59378	21552.5375
2272.4779	21514.7375
2275.36017	21436.4375
2278.24061	21417.1375
2281.11922	21389.1375
2283.996	21370.4375
2286.87094	21376.7375
2289.74405	21318.7375
2292.61534	21359.9375
2295.4848	21300.9375
2298.35243	21256.9375
2301.21824	21284.9375
2304.08223	21335.0375
2306.94439	21334.6375
2309.80474	21318.7375
2312.66327	21316.1375
2315.51999	21272.5375
2318.37489	21233.6375
2321.22797	21260.6375
2324.07925	21226.1375
2326.92871	21188.7375
2329.77637	21174.9375
2332.62222	21142.0375
2335.46626	21115.6375
2338.3085	21157.3375
2341.14893	21139.6375
2343.98756	21138.2375
2346.8244	21123.5375
2349.65943	21129.7375
2352.49267	21129.3375
2355.32411	21142.6375
2358.15376	21131.6375
2360.98161	21090.4375
2363.80768	21059.7375
2366.63195	21081.9375
2369.45444	21062.5375
2372.27514	21021.0375
2375.09405	20968.0375
2377.91118	20959.2375
2380.72652	20888.2375
2383.54009	20843.0375
2386.35187	20855.4375
2389.16188	20754.4375
2391.97011	20757.3375
2394.77657	20688.6375
2397.58125	20664.6375
2400.38416	20665.4375
2403.18529	20642.9375
2405.98466	20622.3375
2408.78226	20582.2375
2411.57809	20571.0375
2414.37216	20539.5375
2417.16446	20546.1375
2419.955	20515.2375
2422.74378	20490.0375
2425.5308	20475.4375
2428.31606	20455.9375
2431.09956	20459.1375
2433.88131	20433.6375
2436.6613	20455.3375
2439.43954	20442.3375
2442.21603	20461.0375
2444.99077	20432.0375
2447.76377	20438.0375
2450.53501	20422.1375
2453.30451	20425.8375
2456.07226	20385.6375
2458.83827	20388.3375
2461.60254	20384.8375
2464.36507	20419.1375
2467.12586	20399.2375
2469.88492	20386.2375
2472.64224	20401.6375
2475.39782	20447.4375
2478.15167	20486.4375
2480.90379	20445.4375
2483.65417	20453.8375
2486.40283	20467.5375
2489.14976	20504.1375
2491.89497	20445.2375
2494.63845	20500.9375
2497.3802	20485.8375
2500.12024	20482.0375
2502.85855	20427.7375
2505.59514	20461.9375
2508.33002	20390.4375
2511.06318	20412.7375
2513.79462	20374.5375
2516.52435	20360.5375
2519.25237	20374.0375
2521.97867	20362.3375
2524.70327	20351.3375
2527.42616	20320.8375
2530.14734	20338.8375
2532.86681	20334.5375
2535.58458	20334.9375
2538.30065	20327.9375
2541.01501	20357.9375
2543.72768	20336.7375
2546.43864	20316.6375
2549.14791	20246.0375
2551.85548	20261.4375
2554.56136	20246.5375
2557.26554	20243.9375
2559.96803	20235.2375
2562.66883	20257.6375
2565.36794	20244.3375
2568.06536	20217.2375
2570.7611	20248.6375
2573.45514	20235.4375
2576.14751	20230.9375
2578.83819	20194.4375
2581.52719	20202.5375
2584.21451	20171.6375
2586.90015	20172.4375
2589.58411	20140.2375
2592.2664	20144.9375
2594.94701	20106.8375
2597.62594	20132.7375
2600.30321	20140.7375
2602.9788	20127.1375
2605.65273	20138.3375
2608.32498	20186.4375
2610.99557	20154.7375
2613.66449	20154.0375
2616.33175	20163.8375
2618.99734	20172.4375
2621.66128	20143.7375
2624.32355	20068.2375
2626.98416	20060.9375
2629.64311	20082.9375
2632.30041	20082.7375
2634.95605	20038.6375
2637.61004	20070.5375
2640.26238	20037.0375
2642.91306	19991.7375
2645.56209	19994.5375
2648.20948	20033.0375
2650.85521	20065.9375
2653.4993	20114.0375
2656.14175	20084.0375
2658.78255	20123.5375
2661.42171	20155.5375
2664.05923	20161.5375
2666.6951	20168.2375
2669.32934	20225.2375
2671.96194	20191.5375
2674.59291	20210.0375
2677.22224	20199.0375
2679.84993	20212.5375
2682.476	20202.1375
2685.10043	20150.6375
2687.72324	20145.7375
2690.34441	20167.1375
2692.96396	20115.5375
2695.58188	20132.7375
2698.19818	20124.5375
2700.81285	20086.3375
2703.4259	20124.9375
2706.03733	20192.0375
2708.64714	20143.0375
2711.25533	20161.1375
2713.86191	20166.5375
2716.46687	20222.4375
2719.07021	20250.3375
2721.67194	20250.4375
2724.27206	20259.6375
2726.87057	20299.9375
2729.46747	20325.0375
2732.06276	20321.6375
2734.65644	20367.0375
2737.24852	20353.5375
2739.83899	20331.9375
2742.42786	20346.5375
2745.01513	20255.7375
2747.60079	20276.3375
2750.18486	20264.1375
2752.76733	20266.4375
2755.3482	20225.2375
2757.92747	20243.6375
2760.50515	20216.4375
2763.08123	20235.9375
2765.65573	20244.8375
2768.22863	20256.1375
2770.79994	20248.4375
2773.36967	20268.5375
2775.9378	20273.0375
2778.50435	20256.6375
2781.06932	20267.6375
2783.6327	20276.2375
2786.1945	20294.0375
2788.75471	20299.5375
2791.31335	20256.3375
2793.87041	20235.9375
2796.42589	20195.7375
2798.97979	20172.6375
2801.53212	20176.2375
2804.08288	20093.5375
2806.63206	20066.0375
2809.17967	20033.3375
2811.72571	20020.7375
2814.27018	20020.7375
2816.81308	19923.1375
2819.35442	19909.4375
2821.89419	19842.7375
2824.43239	19916.4375
2826.96904	19855.5375
2829.50412	19860.3375
2832.03763	19810.5375
2834.56959	19802.0375
2837.1	19797.4375
2839.62884	19772.2375
2842.15613	19763.5375
2844.68186	19817.8375
2847.20604	19812.7375
2849.72867	19809.0375
2852.24974	19818.0375
2854.76927	19840.4375
2857.28724	19827.2375
2859.80367	19787.1375
2862.31855	19759.3375
2864.83189	19707.4375
2867.34368	19681.3375
2869.85393	19681.4375
2872.36264	19626.6375
2874.8698	19607.8375
2877.37543	19598.0375
2879.87952	19607.2375
2882.38207	19643.3375
2884.88308	19621.9375
2887.38256	19663.4375
2889.88051	19613.2375
2892.37692	19649.7375
2894.8718	19684.5375
2897.36515	19722.3375
2899.85698	19720.5375
2902.34727	19775.2375
2904.83604	19737.6375
2907.32328	19762.5375
2909.809	19738.6375
2912.29319	19785.2375
2914.77587	19765.4375
2917.25702	19755.4375
2919.73665	19751.7375
2922.21476	19744.7375
2924.69136	19712.9375
2927.16644	19749.5375
2929.64	19725.3375
2932.11205	19664.0375
2934.58258	19623.8375
2937.05161	19624.7375
2939.51912	19606.3375
2941.98513	19609.0375
2944.44962	19553.1375
2946.91261	19521.1375
2949.37409	19519.8375
2951.83407	19505.1375
2954.29254	19434.1375
2956.74951	19423.7375
2959.20498	19421.9375
2961.65895	19394.2375
2964.11142	19383.1375
2966.56239	19319.4375
2969.01186	19324.2375
2971.45984	19264.5375
2973.90632	19287.5375
2976.35131	19222.4375
2978.7948	19153.1375
2981.23681	19134.5375
2983.67732	19038.4375
2986.11635	19045.1375
2988.55388	18979.9375
2990.98993	18911.4375
2993.4245	18809.5375
2995.85758	18770.9375
2998.28917	18678.5375
3000.71928	18660.6375
3003.14791	18650.1375
3005.57506	18628.1375
3008.00073	18572.4375
3010.42493	18583.2375
3012.84764	18512.6375
3015.26888	18528.4375
3017.68865	18457.0375
3020.10694	18415.4375
3022.52376	18360.0375
3024.9391	18336.9375
3027.35298	18327.4375
3029.76539	18320.4375
3032.17632	18321.6375
3034.5858	18258.2375
3036.9938	18246.9375
3039.40034	18218.6375
3041.80542	18229.9375
3044.20903	18211.0375
3046.61118	18219.7375
3049.01187	18164.7375
3051.4111	18140.9375
3053.80888	18086.3375
3056.20519	18065.9375
3058.60005	17993.6375
3060.99345	17924.8375
3063.3854	17902.4375
3065.7759	17842.9375
3068.16494	17767.0375
3070.55254	17668.6375
3072.93868	17664.1375
3075.32338	17620.7375
3077.70662	17535.8375
3080.08842	17481.6375
3082.46878	17462.6375
3084.84769	17441.6375
3087.22515	17413.0375
3089.60118	17399.9375
3091.97576	17403.1375
3094.3489	17368.2375
3096.72061	17369.5375
3099.09087	17352.7375
3101.4597	17354.6375
3103.82709	17331.3375
3106.19305	17283.0375
3108.55757	17291.8375
3110.92066	17232.7375
3113.28232	17208.9375
3115.64255	17147.2375
3118.00134	17069.6375
3120.35871	17085.7375
3122.71466	17032.1375
3125.06917	17003.1375
3127.42226	16945.9375
3129.77393	16950.4375
3132.12417	16875.5375
3134.47299	16906.8375
3136.82039	16881.0375
3139.16636	16863.0375
3141.51092	16867.8375
3143.85406	16851.0375
3146.19579	16799.6375
3148.53609	16797.6375
3150.87499	16792.2375
3153.21246	16759.3375
3155.54853	16777.7375
3157.88318	16774.9375
3160.21642	16770.9375
3162.54826	16757.2375
3164.87868	16745.7375
3167.2077	16736.8375
3169.5353	16749.3375
3171.86151	16732.4375
3174.18631	16720.7375
3176.5097	16691.6375
3178.83169	16712.8375
3181.15228	16646.2375
3183.47147	16639.2375
3185.78926	16600.9375
3188.10565	16585.5375
3190.42065	16581.9375
3192.73424	16557.9375
3195.04645	16534.3375
3197.35725	16518.3375
3199.66667	16485.6375
3201.97469	16445.8375
3204.28132	16413.4375
3206.58656	16420.3375
3208.8904	16385.5375
3211.19287	16387.8375
3213.49394	16416.7375
3215.79363	16395.5375
3218.09193	16380.4375
3220.38884	16358.1375
3222.68438	16401.1375
3224.97853	16367.9375
3227.2713	16367.5375
3229.56269	16354.9375
3231.8527	16338.5375
3234.14133	16362.8375
3236.42858	16345.1375
3238.71446	16301.4375
3240.99896	16251.1375
3243.28209	16269.2375
3245.56384	16250.1375
3247.84423	16249.7375
3250.12324	16183.1375
3252.40088	16115.0375
3254.67715	16085.6375
3256.95205	16047.6375
3259.22558	16041.2375
3261.49775	16002.1375
3263.76855	15960.7375
3266.03799	15959.2375
3268.30606	15907.4375
3270.57277	15899.3375
3272.83812	15861.3375
3275.10211	15820.9375
3277.36474	15803.4375
3279.62601	15841.1375
3281.88593	15785.8375
3284.14448	15786.4375
3286.40168	15828.3375
3288.65753	15806.6375
3290.91202	15806.4375
3293.16516	15776.9375
3295.41695	15735.3375
3297.66738	15666.8375
3299.91647	15539.8375
3302.16421	15441.1375
3304.4106	15363.6375
3306.65564	15224.5375
3308.89933	15125.7375
3311.14169	15008.2375
3313.38269	14864.6375
3315.62236	14770.7375
3317.86068	14635.3375
3320.09766	14514.4375
3322.3333	14442.9375
3324.5676	14343.5375
3326.80056	14091.8375
3329.03219	14027.3375
3331.26248	2.5375
3333.49143	-0.1625
3335.71905	0.1375
