Data from AgNPs_FTO_APTES_UA_5uM_CRN_0uM_R6G_10uM_NaF_0.1M_Addition_RamanShift__6__09-45-46-526.txt Node

Date: Mon Feb 07 09:45:46 GMT 2022
User: TCL
Spectrometer: QEP01345
Trigger mode: 4
Integration Time (sec): 7.000000E0
Scans to average: 10
Electric dark correction enabled: true
Nonlinearity correction enabled: false
Boxcar width: 0
XAxis mode: Raman Shifts
Number of Pixels in Spectrum: 1044
>>>>>Begin Spectral Data<<<<<
46.04893	-0.3625
50.45542	-3.1625
54.85868	0.4375
59.25871	1.9375
63.6555	80.6375
68.04907	84.4375
72.43941	83.9375
76.82654	93.2375
81.21044	93.1375
85.59113	97.7375
89.96862	100.8375
94.34289	100.9375
98.71396	105.8375
103.08183	111.9375
107.4465	114.2375
111.80798	115.7375
116.16626	124.9375
120.52136	133.8375
124.87327	141.0375
129.222	147.7375
133.56755	160.6375
137.90993	174.5375
142.24913	190.0375
146.58517	226.1375
150.91804	261.3375
155.24774	323.2375
159.57429	409.9375
163.89768	533.5375
168.21792	722.1375
172.53501	982.9375
176.84895	1376.8375
181.15975	1931.6375
185.46741	2711.2375
189.77193	3725.5375
194.07331	4969.2375
198.37157	6412.0375
202.6667	7899.9375
206.9587	9403.2375
211.24758	10862.1375
215.53334	12347.3375
219.81599	13952.6375
224.09553	15721.9375
228.37195	17720.5375
232.64527	19874.4375
236.91549	22083.4375
241.18261	24313.6375
245.44663	26329.3375
249.70755	28136.5375
253.96539	29758.3375
258.22014	31111.3375
262.4718	32172.2375
266.72039	32924.0375
270.96589	33251.3375
275.20832	33301.1375
279.44768	33075.6375
283.68397	32803.2375
287.91719	32705.1375
292.14735	32628.2375
296.37445	32579.8375
300.59849	32633.7375
304.81948	32773.3375
309.03742	32859.5375
313.25231	32746.1375
317.46415	32087.7375
321.67296	30970.6375
325.87872	29810.0375
330.08145	29085.9375
334.28114	28760.1375
338.47781	28853.2375
342.67145	29064.7375
346.86207	29454.5375
351.04966	29919.8375
355.23424	30519.6375
359.4158	31022.7375
363.59435	31536.1375
367.76989	31743.8375
371.94243	31721.8375
376.11196	31654.3375
380.27849	31375.2375
384.44203	31242.2375
388.60257	31352.8375
392.76012	31784.6375
396.91468	32454.2375
401.06626	33294.1375
405.21485	33778.0375
409.36047	33546.9375
413.50311	32919.1375
417.64277	32645.8375
421.77947	32798.4375
425.9132	32947.9375
430.04396	32921.7375
434.17176	32826.4375
438.2966	32534.8375
442.41849	32549.6375
446.53742	33124.0375
450.6534	33859.2375
454.76644	34611.5375
458.87653	35019.9375
462.98368	35074.7375
467.08789	34787.5375
471.18916	34435.8375
475.2875	34016.3375
479.38291	34156.0375
483.4754	34585.8375
487.56496	34762.1375
491.6516	34500.4375
495.73531	33868.8375
499.81612	33445.1375
503.89401	33344.1375
507.96899	33256.7375
512.04106	32945.6375
516.11023	32254.1375
520.1765	31326.5375
524.23987	30506.9375
528.30034	29807.0375
532.35792	29258.1375
536.41261	28775.7375
540.46441	28425.6375
544.51333	28442.3375
548.55936	28956.9375
552.60252	29964.0375
556.64279	31089.0375
560.6802	31783.0375
564.71473	32406.9375
568.7464	33579.8375
572.7752	35589.2375
576.80114	37927.0375
580.82422	40266.0375
584.84444	42839.2375
588.86181	45680.4375
592.87633	47447.4375
596.888	45956.2375
600.89682	42070.0375
604.9028	40300.0375
608.90594	42349.5375
612.90624	45024.7375
616.90371	41638.2375
620.89834	33710.9375
624.89015	29949.5375
628.87913	29764.9375
632.86528	30635.0375
636.84862	30898.8375
640.82913	30041.3375
644.80683	28738.8375
648.78172	27982.6375
652.75379	28014.4375
656.72306	28434.5375
660.68952	28829.7375
664.65319	28437.9375
668.61405	27727.5375
672.57211	27472.0375
676.52738	27544.2375
680.47986	27531.1375
684.42955	27176.8375
688.37646	26917.5375
692.32058	27120.6375
696.26192	27758.3375
700.20048	28363.1375
704.13626	28928.0375
708.06928	29344.1375
711.99952	29465.2375
715.927	29449.0375
719.85171	29489.1375
723.77365	29175.9375
727.69284	28377.5375
731.60928	27583.8375
735.52295	27098.9375
739.43388	26984.8375
743.34206	27038.3375
747.24749	27358.2375
751.15017	27944.0375
755.05012	28899.2375
758.94733	30227.2375
762.8418	32398.5375
766.73354	35509.2375
770.62254	38147.0375
774.50882	37814.0375
778.39237	34927.0375
782.27321	31720.6375
786.15132	29318.7375
790.02671	27788.6375
793.89938	26995.2375
797.76935	26596.1375
801.6366	26484.7375
805.50115	26376.0375
809.36299	26277.5375
813.22213	26117.3375
817.07857	26004.1375
820.93231	25893.8375
824.78336	25600.4375
828.63172	25294.6375
832.47738	25068.4375
836.32036	25002.8375
840.16066	25057.0375
843.99827	25064.9375
847.8332	25052.2375
851.66546	25109.8375
855.49504	25147.7375
859.32195	25198.6375
863.1462	25118.6375
866.96777	24920.5375
870.78668	24866.6375
874.60293	24776.6375
878.41652	24704.5375
882.22745	24724.8375
886.03573	24821.1375
889.84136	24866.7375
893.64433	24775.0375
897.44466	24772.8375
901.24235	24789.3375
905.0374	24723.8375
908.8298	24588.1375
912.61957	24637.2375
916.40671	25044.7375
920.19121	25785.4375
923.97308	26604.4375
927.75233	26809.1375
931.52895	26324.6375
935.30295	25309.6375
939.07433	24283.2375
942.84309	23551.1375
946.60924	23157.3375
950.37278	23041.5375
954.13371	23112.6375
957.89203	23199.8375
961.64774	23266.8375
965.40086	23333.6375
969.15137	23355.6375
972.89929	23160.1375
976.64461	22949.7375
980.38733	22676.5375
984.12747	22599.9375
987.86502	22570.4375
991.59999	22656.3375
995.33237	22707.3375
999.06217	23058.9375
1002.78939	23507.8375
1006.51404	24003.7375
1010.23611	24563.9375
1013.95561	25030.1375
1017.67255	25192.0375
1021.38692	24874.5375
1025.09872	24317.2375
1028.80796	23833.5375
1032.51465	23656.7375
1036.21877	23729.3375
1039.92035	23957.2375
1043.61937	24179.2375
1047.31584	24370.2375
1051.00976	24497.0375
1054.70114	24725.8375
1058.38998	24975.6375
1062.07627	25413.6375
1065.76003	25998.4375
1069.44126	26805.5375
1073.11995	27915.6375
1076.79611	28996.3375
1080.46974	29319.1375
1084.14085	29387.6375
1087.80943	29876.7375
1091.47549	30447.5375
1095.13903	30893.9375
1098.80005	30422.2375
1102.45857	28813.1375
1106.11456	27053.0375
1109.76805	25945.6375
1113.41903	25458.8375
1117.06751	25449.1375
1120.71348	25728.6375
1124.35696	26108.0375
1127.99793	26631.2375
1131.63641	27172.1375
1135.2724	27401.0375
1138.90589	27503.9375
1142.5369	27648.3375
1146.16542	28035.9375
1149.79145	28496.7375
1153.415	29021.5375
1157.03607	29887.5375
1160.65467	31427.2375
1164.27079	33744.0375
1167.88443	36396.8375
1171.49561	38977.3375
1175.10432	41825.8375
1178.71056	45405.6375
1182.31434	48688.6375
1185.91565	50286.4375
1189.51451	50026.1375
1193.11091	48681.7375
1196.70485	46344.1375
1200.29634	43983.4375
1203.88538	42639.2375
1207.47197	42450.4375
1211.05612	42656.1375
1214.63782	42174.1375
1218.21708	40596.1375
1221.79391	38311.8375
1225.36829	36424.8375
1228.94024	35198.3375
1232.50976	34330.8375
1236.07685	33647.0375
1239.6415	33241.7375
1243.20374	33148.8375
1246.76355	33339.4375
1250.32093	33993.7375
1253.8759	35029.3375
1257.42845	36541.0375
1260.97859	38263.8375
1264.52631	40053.0375
1268.07163	41831.0375
1271.61453	43659.7375
1275.15503	45530.2375
1278.69312	47770.6375
1282.22882	50485.9375
1285.76211	53673.8375
1289.29301	57257.0375
1292.82151	61009.7375
1296.34761	65124.8375
1299.87133	69852.9375
1303.39266	74320.8375
1306.9116	77516.4375
1310.42815	79026.8375
1313.94233	79139.7375
1317.45412	78288.9375
1320.96354	77908.4375
1324.47058	78476.6375
1327.97525	79357.1375
1331.47754	79662.5375
1334.97747	78654.5375
1338.47502	76394.6375
1341.97022	73611.0375
1345.46305	70907.9375
1348.95352	68327.3375
1352.44163	66239.1375
1355.92738	65942.7375
1359.41078	68210.9375
1362.89183	71707.0375
1366.37053	73435.1375
1369.84688	70355.1375
1373.32088	63198.1375
1376.79254	56253.7375
1380.26186	52764.2375
1383.72883	52069.0375
1387.19347	52280.6375
1390.65578	52069.1375
1394.11575	51895.6375
1397.57339	52693.5375
1401.0287	54301.5375
1404.48168	55475.8375
1407.93234	54900.7375
1411.38068	52368.7375
1414.82669	48814.4375
1418.27039	45131.7375
1421.71177	41886.5375
1425.15083	39505.1375
1428.58758	38442.1375
1432.02203	38777.1375
1435.45416	40333.5375
1438.88399	42131.3375
1442.31151	43639.6375
1445.73673	44802.9375
1449.15965	45570.9375
1452.58027	46088.4375
1455.9986	46140.0375
1459.41463	46428.5375
1462.82837	47239.6375
1466.23982	48533.8375
1469.64898	49631.0375
1473.05586	50103.0375
1476.46045	50186.1375
1479.86276	49843.6375
1483.26279	49536.4375
1486.66054	49686.0375
1490.05602	50400.2375
1493.44922	51695.5375
1496.84016	53126.0375
1500.22882	54746.4375
1503.61521	56550.6375
1506.99934	58431.1375
1510.38121	60070.7375
1513.76081	60790.7375
1517.13816	60538.4375
1520.51324	59800.4375
1523.88607	59254.8375
1527.25665	59100.0375
1530.62498	58752.5375
1533.99105	57695.9375
1537.35488	55779.7375
1540.71647	53164.1375
1544.07581	50124.6375
1547.4329	47447.8375
1550.78776	45319.6375
1554.14038	44107.8375
1557.49077	43678.8375
1560.83892	43560.9375
1564.18484	43534.7375
1567.52853	43506.7375
1570.86999	43698.4375
1574.20922	44578.2375
1577.54624	45638.6375
1580.88103	46276.3375
1584.2136	47407.7375
1587.54395	50060.9375
1590.87208	53983.9375
1594.19801	57953.6375
1597.52172	60467.5375
1600.84321	59400.8375
1604.16251	54276.7375
1607.47959	47744.3375
1610.79447	42212.0375
1614.10715	37549.7375
1617.41763	33848.2375
1620.7259	31343.9375
1624.03199	30174.2375
1627.33587	30235.8375
1630.63757	31624.6375
1633.93707	34735.4375
1637.23439	40287.2375
1640.52951	48838.7375
1643.82246	59817.8375
1647.11321	69673.2375
1650.40179	73216.9375
1653.68819	67942.5375
1656.97241	56929.8375
1660.25446	45327.8375
1663.53433	36277.9375
1666.81203	30331.3375
1670.08756	26710.5375
1673.36092	24526.6375
1676.63211	23179.0375
1679.90115	22231.7375
1683.16801	21518.9375
1686.43272	21022.6375
1689.69527	20683.3375
1692.95567	20395.5375
1696.2139	20135.2375
1699.46999	19976.0375
1702.72392	19841.8375
1705.97571	19736.8375
1709.22535	19601.3375
1712.47284	19454.1375
1715.71819	19403.4375
1718.96139	19266.8375
1722.20246	19131.3375
1725.44139	18972.9375
1728.67818	18789.4375
1731.91284	18600.2375
1735.14537	18419.4375
1738.37576	18296.9375
1741.60403	18147.7375
1744.83017	18057.7375
1748.05418	17942.4375
1751.27607	17872.2375
1754.49584	17821.7375
1757.71349	17776.9375
1760.92903	17717.1375
1764.14244	17718.1375
1767.35375	17666.4375
1770.56294	17610.7375
1773.77002	17555.1375
1776.97499	17501.4375
1780.17785	17429.4375
1783.37861	17412.5375
1786.57727	17353.2375
1789.77382	17274.5375
1792.96828	17238.8375
1796.16064	17158.0375
1799.3509	17123.6375
1802.53907	17058.9375
1805.72514	17002.9375
1808.90913	16886.2375
1812.09102	16826.0375
1815.27083	16764.3375
1818.44856	16756.9375
1821.6242	16725.3375
1824.79776	16658.8375
1827.96924	16618.9375
1831.13864	16559.7375
1834.30597	16621.0375
1837.47122	16622.8375
1840.6344	16580.0375
1843.7955	16587.4375
1846.95454	16553.0375
1850.11151	16560.6375
1853.26642	16519.2375
1856.41926	16475.0375
1859.57004	16467.1375
1862.71876	16421.3375
1865.86542	16371.6375
1869.01003	16320.9375
1872.15258	16341.5375
1875.29308	16262.5375
1878.43152	16198.3375
1881.56792	16146.9375
1884.70227	16144.9375
1887.83457	16142.5375
1890.96482	16109.7375
1894.09304	16091.9375
1897.21921	16065.7375
1900.34335	16024.7375
1903.46544	15990.7375
1906.58551	15936.7375
1909.70353	15936.8375
1912.81953	15871.2375
1915.93349	15808.1375
1919.04543	15772.4375
1922.15534	15740.7375
1925.26322	15664.0375
1928.36908	15592.5375
1931.47292	15533.3375
1934.57473	15511.5375
1937.67453	15443.8375
1940.77232	15378.7375
1943.86808	15277.5375
1946.96184	15286.5375
1950.05358	15182.6375
1953.14331	15181.9375
1956.23103	15145.1375
1959.31675	15097.5375
1962.40046	15011.3375
1965.48217	14965.0375
1968.56188	14936.7375
1971.63959	14854.0375
1974.7153	14797.8375
1977.78901	14734.6375
1980.86073	14671.6375
1983.93046	14601.7375
1986.99819	14550.0375
1990.06394	14520.3375
1993.1277	14457.1375
1996.18947	14396.6375
1999.24925	14341.2375
2002.30706	14277.6375
2005.36288	14240.2375
2008.41672	14152.2375
2011.46859	14122.3375
2014.51848	14054.9375
2017.56639	14026.5375
2020.61233	13994.3375
2023.6563	13968.0375
2026.6983	13907.5375
2029.73833	13886.7375
2032.7764	13858.5375
2035.8125	13796.2375
2038.84664	13755.2375
2041.87881	13725.3375
2044.90903	13702.2375
2047.93729	13644.8375
2050.96359	13623.6375
2053.98794	13606.9375
2057.01034	13606.0375
2060.03078	13617.3375
2063.04927	13584.8375
2066.06582	13567.7375
2069.08042	13558.1375
2072.09307	13513.8375
2075.10378	13525.6375
2078.11255	13468.5375
2081.11938	13471.1375
2084.12426	13429.0375
2087.12722	13419.0375
2090.12824	13398.9375
2093.12732	13443.0375
2096.12447	13417.7375
2099.11969	13423.7375
2102.11299	13412.9375
2105.10435	13422.2375
2108.09379	13386.8375
2111.08131	13397.3375
2114.0669	13379.8375
2117.05057	13412.3375
2120.03233	13407.3375
2123.01216	13452.0375
2125.99008	13435.7375
2128.96609	13438.9375
2131.94018	13413.0375
2134.91236	13380.8375
2137.88263	13385.1375
2140.851	13357.4375
2143.81746	13345.9375
2146.78201	13360.1375
2149.74466	13334.7375
2152.7054	13309.5375
2155.66425	13289.7375
2158.6212	13266.7375
2161.57625	13243.7375
2164.52941	13221.1375
2167.48067	13217.5375
2170.43004	13211.7375
2173.37752	13163.7375
2176.32311	13163.9375
2179.26681	13157.5375
2182.20863	13183.8375
2185.14856	13181.0375
2188.08661	13181.5375
2191.02278	13111.8375
2193.95707	13102.4375
2196.88948	13081.4375
2199.82001	13044.9375
2202.74867	12990.1375
2205.67545	12968.4375
2208.60037	12991.1375
2211.52341	12944.9375
2214.44458	12927.8375
2217.36388	12894.2375
2220.28132	12813.9375
2223.1969	12841.0375
2226.11061	12840.8375
2229.02246	12817.9375
2231.93245	12836.9375
2234.84058	12820.7375
2237.74686	12794.6375
2240.65128	12740.5375
2243.55385	12706.4375
2246.45456	12666.0375
2249.35343	12646.4375
2252.25044	12574.1375
2255.14561	12545.3375
2258.03893	12504.7375
2260.93041	12473.3375
2263.82004	12437.6375
2266.70783	12392.9375
2269.59378	12345.7375
2272.4779	12313.3375
2275.36017	12279.5375
2278.24061	12253.2375
2281.11922	12219.1375
2283.996	12217.8375
2286.87094	12206.5375
2289.74405	12156.4375
2292.61534	12129.8375
2295.4848	12099.7375
2298.35243	12080.6375
2301.21824	12079.8375
2304.08223	12112.7375
2306.94439	12053.3375
2309.80474	12043.7375
2312.66327	12030.9375
2315.51999	12009.6375
2318.37489	11996.2375
2321.22797	11962.6375
2324.07925	11963.8375
2326.92871	11928.3375
2329.77637	11899.9375
2332.62222	11902.0375
2335.46626	11902.3375
2338.3085	11915.7375
2341.14893	11867.5375
2343.98756	11871.7375
2346.8244	11896.2375
2349.65943	11910.9375
2352.49267	11921.0375
2355.32411	11917.7375
2358.15376	11906.9375
2360.98161	11902.5375
2363.80768	11903.9375
2366.63195	11920.9375
2369.45444	11872.2375
2372.27514	11837.1375
2375.09405	11836.2375
2377.91118	11806.8375
2380.72652	11766.2375
2383.54009	11703.6375
2386.35187	11688.7375
2389.16188	11643.9375
2391.97011	11603.8375
2394.77657	11574.4375
2397.58125	11539.5375
2400.38416	11542.0375
2403.18529	11495.8375
2405.98466	11492.5375
2408.78226	11476.4375
2411.57809	11459.0375
2414.37216	11453.7375
2417.16446	11456.2375
2419.955	11431.2375
2422.74378	11430.8375
2425.5308	11396.2375
2428.31606	11392.1375
2431.09956	11396.9375
2433.88131	11352.6375
2436.6613	11409.2375
2439.43954	11399.0375
2442.21603	11400.0375
2444.99077	11407.7375
2447.76377	11385.4375
2450.53501	11370.4375
2453.30451	11366.8375
2456.07226	11352.0375
2458.83827	11374.4375
2461.60254	11325.7375
2464.36507	11340.7375
2467.12586	11341.2375
2469.88492	11306.3375
2472.64224	11321.8375
2475.39782	11317.4375
2478.15167	11330.7375
2480.90379	11330.7375
2483.65417	11350.7375
2486.40283	11343.2375
2489.14976	11349.0375
2491.89497	11333.4375
2494.63845	11344.0375
2497.3802	11314.1375
2500.12024	11321.1375
2502.85855	11296.5375
2505.59514	11289.2375
2508.33002	11256.0375
2511.06318	11214.9375
2513.79462	11236.8375
2516.52435	11219.0375
2519.25237	11217.0375
2521.97867	11198.7375
2524.70327	11176.7375
2527.42616	11149.0375
2530.14734	11132.8375
2532.86681	11149.1375
2535.58458	11128.4375
2538.30065	11117.0375
2541.01501	11118.4375
2543.72768	11109.5375
2546.43864	11124.4375
2549.14791	11065.9375
2551.85548	11086.1375
2554.56136	11049.5375
2557.26554	11031.9375
2559.96803	11051.7375
2562.66883	11043.6375
2565.36794	11056.7375
2568.06536	11016.5375
2570.7611	11019.5375
2573.45514	11013.7375
2576.14751	10995.4375
2578.83819	10984.7375
2581.52719	10963.4375
2584.21451	10976.6375
2586.90015	10956.0375
2589.58411	10962.9375
2592.2664	10953.3375
2594.94701	10932.7375
2597.62594	10960.0375
2600.30321	10937.4375
2602.9788	10922.5375
2605.65273	10941.3375
2608.32498	10946.2375
2610.99557	10944.9375
2613.66449	10959.5375
2616.33175	10918.7375
2618.99734	10929.5375
2621.66128	10878.7375
2624.32355	10882.5375
2626.98416	10888.9375
2629.64311	10865.4375
2632.30041	10866.4375
2634.95605	10856.7375
2637.61004	10843.8375
2640.26238	10815.4375
2642.91306	10833.6375
2645.56209	10853.8375
2648.20948	10838.4375
2650.85521	10864.4375
2653.4993	10868.6375
2656.14175	10844.4375
2658.78255	10865.1375
2661.42171	10851.4375
2664.05923	10877.6375
2666.6951	10887.5375
2669.32934	10903.0375
2671.96194	10901.7375
2674.59291	10895.1375
2677.22224	10913.1375
2679.84993	10933.4375
2682.476	10883.8375
2685.10043	10865.4375
2687.72324	10880.6375
2690.34441	10887.3375
2692.96396	10867.0375
2695.58188	10848.1375
2698.19818	10838.4375
2700.81285	10843.2375
2703.4259	10830.0375
2706.03733	10822.9375
2708.64714	10848.9375
2711.25533	10834.2375
2713.86191	10847.3375
2716.46687	10853.1375
2719.07021	10884.4375
2721.67194	10865.7375
2724.27206	10877.2375
2726.87057	10898.2375
2729.46747	10889.8375
2732.06276	10913.3375
2734.65644	10900.4375
2737.24852	10948.0375
2739.83899	10891.1375
2742.42786	10904.6375
2745.01513	10900.9375
2747.60079	10884.9375
2750.18486	10878.7375
2752.76733	10838.6375
2755.3482	10844.1375
2757.92747	10821.3375
2760.50515	10782.7375
2763.08123	10809.2375
2765.65573	10812.2375
2768.22863	10803.7375
2770.79994	10781.3375
2773.36967	10792.3375
2775.9378	10798.4375
2778.50435	10831.0375
2781.06932	10830.6375
2783.6327	10815.5375
2786.1945	10824.9375
2788.75471	10823.3375
2791.31335	10798.5375
2793.87041	10803.9375
2796.42589	10778.4375
2798.97979	10791.6375
2801.53212	10777.8375
2804.08288	10788.9375
2806.63206	10749.9375
2809.17967	10741.3375
2811.72571	10716.6375
2814.27018	10715.6375
2816.81308	10677.1375
2819.35442	10639.5375
2821.89419	10622.6375
2824.43239	10632.8375
2826.96904	10618.6375
2829.50412	10615.2375
2832.03763	10590.8375
2834.56959	10605.9375
2837.1	10555.3375
2839.62884	10567.8375
2842.15613	10566.1375
2844.68186	10588.3375
2847.20604	10601.7375
2849.72867	10638.0375
2852.24974	10614.4375
2854.76927	10619.4375
2857.28724	10610.2375
2859.80367	10612.4375
2862.31855	10588.4375
2864.83189	10580.1375
2867.34368	10562.7375
2869.85393	10547.9375
2872.36264	10491.4375
2874.8698	10499.5375
2877.37543	10500.0375
2879.87952	10522.2375
2882.38207	10492.6375
2884.88308	10500.8375
2887.38256	10517.1375
2889.88051	10528.3375
2892.37692	10551.4375
2894.8718	10543.0375
2897.36515	10544.9375
2899.85698	10577.9375
2902.34727	10577.1375
2904.83604	10589.5375
2907.32328	10600.0375
2909.809	10596.7375
2912.29319	10578.9375
2914.77587	10587.1375
2917.25702	10604.1375
2919.73665	10578.2375
2922.21476	10564.9375
2924.69136	10557.7375
2927.16644	10558.5375
2929.64	10555.1375
2932.11205	10563.5375
2934.58258	10529.2375
2937.05161	10504.3375
2939.51912	10487.1375
2941.98513	10450.9375
2944.44962	10441.0375
2946.91261	10384.3375
2949.37409	10395.2375
2951.83407	10374.8375
2954.29254	10347.6375
2956.74951	10315.9375
2959.20498	10278.3375
2961.65895	10264.5375
2964.11142	10261.8375
2966.56239	10234.2375
2969.01186	10195.0375
2971.45984	10185.2375
2973.90632	10158.8375
2976.35131	10135.2375
2978.7948	10121.0375
2981.23681	10108.2375
2983.67732	10062.5375
2986.11635	10007.0375
2988.55388	9993.3375
2990.98993	9955.4375
2993.4245	9923.1375
2995.85758	9877.2375
2998.28917	9850.6375
3000.71928	9811.0375
3003.14791	9757.1375
3005.57506	9759.5375
3008.00073	9733.0375
3010.42493	9709.5375
3012.84764	9686.6375
3015.26888	9689.0375
3017.68865	9625.3375
3020.10694	9615.9375
3022.52376	9580.0375
3024.9391	9544.3375
3027.35298	9547.6375
3029.76539	9537.0375
3032.17632	9549.1375
3034.5858	9551.2375
3036.9938	9523.3375
3039.40034	9510.7375
3041.80542	9514.3375
3044.20903	9485.0375
3046.61118	9485.8375
3049.01187	9463.5375
3051.4111	9452.8375
3053.80888	9421.9375
3056.20519	9395.9375
3058.60005	9352.4375
3060.99345	9313.7375
3063.3854	9291.0375
3065.7759	9227.6375
3068.16494	9211.8375
3070.55254	9151.9375
3072.93868	9100.6375
3075.32338	9075.3375
3077.70662	9043.9375
3080.08842	8998.1375
3082.46878	9006.5375
3084.84769	8991.6375
3087.22515	8988.9375
3089.60118	8951.0375
3091.97576	8946.5375
3094.3489	8951.8375
3096.72061	8927.9375
3099.09087	8942.3375
3101.4597	8904.4375
3103.82709	8902.8375
3106.19305	8894.6375
3108.55757	8896.4375
3110.92066	8835.6375
3113.28232	8812.8375
3115.64255	8788.9375
3118.00134	8783.4375
3120.35871	8760.6375
3122.71466	8748.3375
3125.06917	8713.3375
3127.42226	8686.4375
3129.77393	8719.2375
3132.12417	8679.1375
3134.47299	8677.5375
3136.82039	8666.1375
3139.16636	8659.8375
3141.51092	8649.0375
3143.85406	8652.0375
3146.19579	8618.9375
3148.53609	8660.3375
3150.87499	8638.2375
3153.21246	8618.7375
3155.54853	8625.4375
3157.88318	8605.8375
3160.21642	8619.4375
3162.54826	8623.8375
3164.87868	8642.8375
3167.2077	8623.6375
3169.5353	8609.4375
3171.86151	8617.3375
3174.18631	8611.8375
3176.5097	8578.2375
3178.83169	8603.7375
3181.15228	8579.2375
3183.47147	8567.7375
3185.78926	8549.8375
3188.10565	8533.0375
3190.42065	8517.5375
3192.73424	8522.3375
3195.04645	8490.0375
3197.35725	8458.3375
3199.66667	8431.3375
3201.97469	8442.1375
3204.28132	8429.9375
3206.58656	8440.3375
3208.8904	8433.9375
3211.19287	8404.1375
3213.49394	8420.4375
3215.79363	8406.0375
3218.09193	8411.8375
3220.38884	8424.7375
3222.68438	8420.2375
3224.97853	8407.6375
3227.2713	8375.4375
3229.56269	8387.1375
3231.8527	8391.1375
3234.14133	8394.3375
3236.42858	8375.5375
3238.71446	8375.3375
3240.99896	8346.9375
3243.28209	8344.3375
3245.56384	8309.5375
3247.84423	8314.3375
3250.12324	8291.8375
3252.40088	8263.4375
3254.67715	8250.8375
3256.95205	8233.6375
3259.22558	8208.7375
3261.49775	8193.6375
3263.76855	8192.5375
3266.03799	8156.8375
3268.30606	8136.0375
3270.57277	8117.9375
3272.83812	8100.2375
3275.10211	8095.3375
3277.36474	8098.2375
3279.62601	8098.7375
3281.88593	8089.1375
3284.14448	8090.7375
3286.40168	8095.4375
3288.65753	8092.4375
3290.91202	8065.7375
3293.16516	8052.6375
3295.41695	8055.4375
3297.66738	7968.0375
3299.91647	7954.3375
3302.16421	7890.4375
3304.4106	7828.2375
3306.65564	7772.3375
3308.89933	7722.3375
3311.14169	7630.4375
3313.38269	7545.2375
3315.62236	7470.2375
3317.86068	7394.3375
3320.09766	7341.1375
3322.3333	7254.9375
3324.5676	7250.3375
3326.80056	7114.5375
3329.03219	7060.7375
3331.26248	2.1375
3333.49143	-0.8625
3335.71905	-0.2625
