Data from AgNPs_FTO_APTES_UA_5uM_CRN_2uM_R6G_10uM_NaF_0.1M_Addition_RamanShift__30__11-31-56-651.txt Node

Date: Mon Feb 07 11:31:56 GMT 2022
User: TCL
Spectrometer: QEP01345
Trigger mode: 4
Integration Time (sec): 7.000000E0
Scans to average: 10
Electric dark correction enabled: true
Nonlinearity correction enabled: false
Boxcar width: 0
XAxis mode: Raman Shifts
Number of Pixels in Spectrum: 1044
>>>>>Begin Spectral Data<<<<<
46.04893	-0.4
50.45542	-1.3
54.85868	-0
59.25871	0.5
63.6555	52.3
68.04907	55
72.43941	61
76.82654	62.8
81.21044	65.7
85.59113	67
89.96862	73.2
94.34289	69
98.71396	74.5
103.08183	78.8
107.4465	80.5
111.80798	80.6
116.16626	85.2
120.52136	89.8
124.87327	91.1
129.222	94.4
133.56755	101.3
137.90993	110.6
142.24913	116.9
146.58517	132.9
150.91804	150
155.24774	175.1
159.57429	218
163.89768	277.3
168.21792	376.2
172.53501	505.2
176.84895	694.5
181.15975	967.8
185.46741	1364.4
189.77193	1882
194.07331	2504.8
198.37157	3222.6
202.6667	3970.7
206.9587	4722.3
211.24758	5519.1
215.53334	6318.3
219.81599	7246
224.09553	8310.1
228.37195	9517.1
232.64527	10761.8
236.91549	11988.3
241.18261	13078.2
245.44663	13933.7
249.70755	14570.9
253.96539	15101.1
258.22014	15555.9
262.4718	15994.9
266.72039	16336.6
270.96589	16519.2
275.20832	16561.8
279.44768	16411
283.68397	16283.1
287.91719	16265.6
292.14735	16350.8
296.37445	16771.3
300.59849	17483.2
304.81948	18393
309.03742	19160.7
313.25231	19146.8
317.46415	18102.4
321.67296	16409
325.87872	14893.2
330.08145	14147.9
334.28114	14022.9
338.47781	14306.4
342.67145	14762.3
346.86207	15525.5
351.04966	16676
355.23424	18030.8
359.4158	18960.3
363.59435	19341.7
367.76989	19360.1
371.94243	19113.7
376.11196	18807.6
380.27849	18530.8
384.44203	18162.4
388.60257	17777.7
392.76012	17647.6
396.91468	17864.8
401.06626	18490.6
405.21485	19005.7
409.36047	18625.6
413.50311	17409.7
417.64277	16232.8
421.77947	15631.5
425.9132	15323
430.04396	15294
434.17176	15279.4
438.2966	15415.1
442.41849	15828.4
446.53742	16328.4
450.6534	16831.8
454.76644	17157.5
458.87653	17151.4
462.98368	16979.3
467.08789	16619
471.18916	16176.3
475.2875	15668.3
479.38291	15267
483.4754	14974
487.56496	14721.4
491.6516	14613.7
495.73531	14623.1
499.81612	14748.1
503.89401	14943
507.96899	15190.9
512.04106	15376.3
516.11023	15588.2
520.1765	15719.7
524.23987	15583.5
528.30034	15217.9
532.35792	14771.9
536.41261	14297.9
540.46441	13845
544.51333	13612.5
548.55936	13764.8
552.60252	14283
556.64279	14826.4
560.6802	15075.7
564.71473	15416.5
568.7464	16332
572.7752	17068.2
576.80114	16667.1
580.82422	16069.5
584.84444	15837.5
588.86181	15611.5
592.87633	15463.8
596.888	15504.6
600.89682	16252.3
604.9028	18618.2
608.90594	25057.4
612.90624	33787.6
616.90371	32566.6
620.89834	21110.2
624.89015	15563.2
628.87913	14527.5
632.86528	14678.5
636.84862	15012.6
640.82913	14692.4
644.80683	13787.2
648.78172	13174
652.75379	13213.3
656.72306	14035.5
660.68952	15099.7
664.65319	14985.1
668.61405	13925.5
672.57211	13353.7
676.52738	13290
680.47986	13203.6
684.42955	13018.9
688.37646	12913.7
692.32058	12969.6
696.26192	13169.7
700.20048	13469.2
704.13626	13733
708.06928	13762.9
711.99952	13622.7
715.927	13452.5
719.85171	13465.1
723.77365	13373.2
727.69284	13139.3
731.60928	12922.5
735.52295	12887.3
739.43388	12929.4
743.34206	13079.6
747.24749	13183.6
751.15017	13418.9
755.05012	13795.3
758.94733	14790.5
762.8418	17063.8
766.73354	20970.1
770.62254	24995.6
774.50882	26694.9
778.39237	25226.5
782.27321	21179.3
786.15132	17167
790.02671	14783.4
793.89938	13766.4
797.76935	13266.1
801.6366	13057.6
805.50115	12900.4
809.36299	12807.8
813.22213	12674.7
817.07857	12612.6
820.93231	12597.9
824.78336	12662.5
828.63172	12765.4
832.47738	12823.3
836.32036	12768.6
840.16066	12657.1
843.99827	12551.9
847.8332	12449.4
851.66546	12426.6
855.49504	12426.1
859.32195	12385.2
863.1462	12285.2
866.96777	12203.9
870.78668	12158.4
874.60293	12177.1
878.41652	12229.1
882.22745	12347.7
886.03573	12425.1
889.84136	12404.5
893.64433	12301.9
897.44466	12289.6
901.24235	12291.1
905.0374	12236.1
908.8298	12164.8
912.61957	12152.3
916.40671	12269.8
920.19121	12478.6
923.97308	12689.7
927.75233	12882.9
931.52895	13011.5
935.30295	12767.4
939.07433	12163.5
942.84309	11711.9
946.60924	11453.4
950.37278	11312.6
954.13371	11234.5
957.89203	11183.3
961.64774	11107.4
965.40086	11103.7
969.15137	11052.9
972.89929	11023.1
976.64461	10990.7
980.38733	10996.9
984.12747	11024.2
987.86502	11080.3
991.59999	11158.1
995.33237	11365.8
999.06217	11699.8
1002.78939	12168.8
1006.51404	12620.2
1010.23611	13049.3
1013.95561	13292.1
1017.67255	13219.1
1021.38692	12879.3
1025.09872	12556
1028.80796	12396.3
1032.51465	12492.5
1036.21877	12749.1
1039.92035	12937.1
1043.61937	13030.3
1047.31584	12918.4
1051.00976	12811.3
1054.70114	12744.3
1058.38998	12719.8
1062.07627	12829.2
1065.76003	13018.1
1069.44126	13222.3
1073.11995	13475.7
1076.79611	13767.2
1080.46974	13987.7
1084.14085	14458.3
1087.80943	14997.7
1091.47549	15243.3
1095.13903	14984.9
1098.80005	14264.2
1102.45857	13540.3
1106.11456	13121.7
1109.76805	13070.3
1113.41903	13380
1117.06751	13955.5
1120.71348	14735.2
1124.35696	15701.5
1127.99793	16522.9
1131.63641	16480.4
1135.2724	15484.4
1138.90589	14491.7
1142.5369	13955.8
1146.16542	13594.1
1149.79145	13402.1
1153.415	13416.6
1157.03607	13610.3
1160.65467	14024.4
1164.27079	14767.4
1167.88443	15884.4
1171.49561	17680.5
1175.10432	20658.1
1178.71056	24482.5
1182.31434	27075.5
1185.91565	27595.8
1189.51451	26741.6
1193.11091	24819.2
1196.70485	22439.2
1200.29634	20610.9
1203.88538	19234
1207.47197	17688.6
1211.05612	16404.6
1214.63782	15659.5
1218.21708	15403
1221.79391	15488.6
1225.36829	15712.3
1228.94024	15960.9
1232.50976	16134.8
1236.07685	16216.1
1239.6415	16145.7
1243.20374	16029.6
1246.76355	16017.4
1250.32093	16196.9
1253.8759	16643.6
1257.42845	17330.4
1260.97859	18056.9
1264.52631	18812.2
1268.07163	19603
1271.61453	20342
1275.15503	20908.1
1278.69312	21205.5
1282.22882	21456.5
1285.76211	22116.2
1289.29301	23049.6
1292.82151	23941.7
1296.34761	24863
1299.87133	26240.8
1303.39266	28667.6
1306.9116	32497.4
1310.42815	36909.3
1313.94233	39808.7
1317.45412	39398.9
1320.96354	36668.5
1324.47058	33507.1
1327.97525	30771.5
1331.47754	28960.3
1334.97747	28177.4
1338.47502	27993.8
1341.97022	28371.4
1345.46305	29195.9
1348.95352	30619.4
1352.44163	32849.3
1355.92738	36263.6
1359.41078	41964.9
1362.89183	47797.6
1366.37053	46858.4
1369.84688	39398.8
1373.32088	31816.6
1376.79254	26950.9
1380.26186	24514.4
1383.72883	23141.1
1387.19347	22134.8
1390.65578	21068.5
1394.11575	20291.6
1397.57339	19957.1
1401.0287	20088.1
1404.48168	20371.4
1407.93234	20702.7
1411.38068	20856.7
1414.82669	20678.6
1418.27039	20119.8
1421.71177	19474.2
1425.15083	18907.4
1428.58758	18486
1432.02203	18458
1435.45416	18607.4
1438.88399	18677.3
1442.31151	18717.8
1445.73673	18853.9
1449.15965	19036.4
1452.58027	19051.5
1455.9986	18864.4
1459.41463	18838.6
1462.82837	19097.5
1466.23982	19508.5
1469.64898	20037.4
1473.05586	20429.8
1476.46045	20705.5
1479.86276	21080.5
1483.26279	21670.5
1486.66054	22451.4
1490.05602	23437.6
1493.44922	24767.9
1496.84016	26836.5
1500.22882	29982
1503.61521	34103
1506.99934	38780.6
1510.38121	43239.6
1513.76081	45593.8
1517.13816	43668.5
1520.51324	38167.2
1523.88607	32383.2
1527.25665	28276.5
1530.62498	25806.4
1533.99105	24296
1537.35488	23223.7
1540.71647	22538.5
1544.07581	22111.5
1547.4329	21698.4
1550.78776	21445.8
1554.14038	21295.9
1557.49077	21537.1
1560.83892	22042.6
1564.18484	22876.5
1567.52853	23778.2
1570.86999	24394.5
1574.20922	24783.2
1577.54624	24587.9
1580.88103	23179.3
1584.2136	21301.2
1587.54395	20458.8
1590.87208	20922.2
1594.19801	22432.1
1597.52172	24240
1600.84321	24946.3
1604.16251	23723.1
1607.47959	21721.4
1610.79447	19668.8
1614.10715	17770.2
1617.41763	16262.7
1620.7259	15325
1624.03199	14932.1
1627.33587	14987.9
1630.63757	15470.1
1633.93707	16532.1
1637.23439	18258.7
1640.52951	20599.3
1643.82246	23713.9
1647.11321	27252.2
1650.40179	29934.8
1653.68819	29364
1656.97241	25179.3
1660.25446	20127.9
1663.53433	16364
1666.81203	14099.7
1670.08756	12802.3
1673.36092	12054.1
1676.63211	11548.2
1679.90115	11247.2
1683.16801	11015.3
1686.43272	10831.8
1689.69527	10721.5
1692.95567	10628.3
1696.2139	10542.4
1699.46999	10529.3
1702.72392	10479.3
1705.97571	10439.5
1709.22535	10422.2
1712.47284	10432.5
1715.71819	10432.7
1718.96139	10436.7
1722.20246	10406.8
1725.44139	10365.7
1728.67818	10261.3
1731.91284	10147.1
1735.14537	10025.3
1738.37576	9944.8
1741.60403	9915.3
1744.83017	9848.1
1748.05418	9799.9
1751.27607	9765.8
1754.49584	9725.6
1757.71349	9728.1
1760.92903	9690.3
1764.14244	9683.8
1767.35375	9657.3
1770.56294	9633.7
1773.77002	9569.9
1776.97499	9534.9
1780.17785	9489.4
1783.37861	9442.4
1786.57727	9432.6
1789.77382	9393.3
1792.96828	9396.3
1796.16064	9379.2
1799.3509	9355.6
1802.53907	9358.7
1805.72514	9304.3
1808.90913	9271.7
1812.09102	9238.6
1815.27083	9217
1818.44856	9188.9
1821.6242	9155.7
1824.79776	9154.8
1827.96924	9132.3
1831.13864	9128.9
1834.30597	9107.2
1837.47122	9104.8
1840.6344	9096.8
1843.7955	9104.2
1846.95454	9110.9
1850.11151	9114.8
1853.26642	9094.5
1856.41926	9121.3
1859.57004	9134.1
1862.71876	9142
1865.86542	9107.2
1869.01003	9167.1
1872.15258	9181.2
1875.29308	9193.8
1878.43152	9213.6
1881.56792	9237.2
1884.70227	9273.5
1887.83457	9263.8
1890.96482	9290.2
1894.09304	9300.6
1897.21921	9319.5
1900.34335	9321
1903.46544	9323.2
1906.58551	9330.9
1909.70353	9335.1
1912.81953	9334.5
1915.93349	9313.1
1919.04543	9303.8
1922.15534	9335.5
1925.26322	9279.8
1928.36908	9231.1
1931.47292	9157
1934.57473	9070.5
1937.67453	9009.2
1940.77232	8912.2
1943.86808	8855.9
1946.96184	8776.1
1950.05358	8716.9
1953.14331	8664.4
1956.23103	8627.5
1959.31675	8591.6
1962.40046	8540.7
1965.48217	8511.8
1968.56188	8501.2
1971.63959	8483.7
1974.7153	8422.7
1977.78901	8410.5
1980.86073	8369.9
1983.93046	8335.6
1986.99819	8308.6
1990.06394	8270
1993.1277	8242.2
1996.18947	8209.2
1999.24925	8162
2002.30706	8137.4
2005.36288	8117.9
2008.41672	8069.9
2011.46859	8057.1
2014.51848	8025.4
2017.56639	8008.9
2020.61233	7985.5
2023.6563	7952.2
2026.6983	7922.1
2029.73833	7893.2
2032.7764	7869.7
2035.8125	7863.5
2038.84664	7847.2
2041.87881	7829
2044.90903	7827.9
2047.93729	7817
2050.96359	7768
2053.98794	7782.6
2057.01034	7771.5
2060.03078	7751.4
2063.04927	7724.5
2066.06582	7730.2
2069.08042	7745.2
2072.09307	7689.7
2075.10378	7700.2
2078.11255	7683.2
2081.11938	7681.7
2084.12426	7666.3
2087.12722	7657.3
2090.12824	7681.1
2093.12732	7659.2
2096.12447	7659.6
2099.11969	7670.3
2102.11299	7667.4
2105.10435	7659.9
2108.09379	7646.7
2111.08131	7656.4
2114.0669	7644.4
2117.05057	7651.2
2120.03233	7667.4
2123.01216	7671.8
2125.99008	7673.1
2128.96609	7667.2
2131.94018	7675.4
2134.91236	7677.1
2137.88263	7691.5
2140.851	7665.6
2143.81746	7664.8
2146.78201	7654.4
2149.74466	7660.6
2152.7054	7635.2
2155.66425	7618.4
2158.6212	7601.3
2161.57625	7599.4
2164.52941	7598.8
2167.48067	7600.7
2170.43004	7601
2173.37752	7581.2
2176.32311	7592.3
2179.26681	7582.4
2182.20863	7569.1
2185.14856	7589.2
2188.08661	7576.8
2191.02278	7595.9
2193.95707	7589.6
2196.88948	7568.6
2199.82001	7544.4
2202.74867	7545.5
2205.67545	7528.7
2208.60037	7520.6
2211.52341	7517.6
2214.44458	7511.6
2217.36388	7481.2
2220.28132	7458.3
2223.1969	7412.7
2226.11061	7410.1
2229.02246	7410.2
2231.93245	7373.1
2234.84058	7377
2237.74686	7354.1
2240.65128	7343.9
2243.55385	7321.3
2246.45456	7327.7
2249.35343	7316.8
2252.25044	7304.4
2255.14561	7298.4
2258.03893	7321.4
2260.93041	7315.8
2263.82004	7299.9
2266.70783	7267.2
2269.59378	7266.4
2272.4779	7213.3
2275.36017	7194.9
2278.24061	7198.2
2281.11922	7160.2
2283.996	7169.3
2286.87094	7137.4
2289.74405	7122
2292.61534	7114
2295.4848	7082
2298.35243	7068.9
2301.21824	7062.5
2304.08223	7072.2
2306.94439	7071.8
2309.80474	7070.1
2312.66327	7064.7
2315.51999	7068.5
2318.37489	7056.8
2321.22797	7046.5
2324.07925	7050.3
2326.92871	7043.8
2329.77637	7039.1
2332.62222	7017.6
2335.46626	7005.6
2338.3085	7005.7
2341.14893	7017.2
2343.98756	7020.2
2346.8244	7033.8
2349.65943	7053.1
2352.49267	7043.2
2355.32411	7071.8
2358.15376	7076.6
2360.98161	7078.1
2363.80768	7110.3
2366.63195	7119
2369.45444	7111.5
2372.27514	7097.7
2375.09405	7090.5
2377.91118	7081.9
2380.72652	7029.3
2383.54009	6981.3
2386.35187	6961.9
2389.16188	6927.3
2391.97011	6902.7
2394.77657	6866.7
2397.58125	6846.4
2400.38416	6826.9
2403.18529	6795.7
2405.98466	6763
2408.78226	6767
2411.57809	6755
2414.37216	6756.3
2417.16446	6742.6
2419.955	6736.1
2422.74378	6733.3
2425.5308	6723.2
2428.31606	6737.2
2431.09956	6708.8
2433.88131	6724.1
2436.6613	6747.3
2439.43954	6728.9
2442.21603	6731
2444.99077	6725.2
2447.76377	6738.7
2450.53501	6712
2453.30451	6738.4
2456.07226	6721.1
2458.83827	6729.7
2461.60254	6748.7
2464.36507	6736.7
2467.12586	6711.7
2469.88492	6719.9
2472.64224	6733.5
2475.39782	6743.9
2478.15167	6769.2
2480.90379	6751.4
2483.65417	6797.7
2486.40283	6795
2489.14976	6808.1
2491.89497	6856.8
2494.63845	6864.1
2497.3802	6872.8
2500.12024	6850.6
2502.85855	6807.1
2505.59514	6808.8
2508.33002	6770.4
2511.06318	6741.6
2513.79462	6698.5
2516.52435	6669.7
2519.25237	6654.7
2521.97867	6625.7
2524.70327	6590.7
2527.42616	6573.2
2530.14734	6582.4
2532.86681	6580.6
2535.58458	6599.8
2538.30065	6576.2
2541.01501	6574.8
2543.72768	6597.2
2546.43864	6578.4
2549.14791	6570.8
2551.85548	6584.6
2554.56136	6559.4
2557.26554	6550
2559.96803	6543
2562.66883	6534.3
2565.36794	6525.2
2568.06536	6529.1
2570.7611	6502.4
2573.45514	6500.7
2576.14751	6496.2
2578.83819	6462.4
2581.52719	6476.6
2584.21451	6475
2586.90015	6463.2
2589.58411	6454.3
2592.2664	6460.2
2594.94701	6444.9
2597.62594	6447.9
2600.30321	6438.1
2602.9788	6437
2605.65273	6441.2
2608.32498	6460.2
2610.99557	6431.7
2613.66449	6448.1
2616.33175	6435.8
2618.99734	6442.7
2621.66128	6435
2624.32355	6445.4
2626.98416	6407.9
2629.64311	6405.7
2632.30041	6418.8
2634.95605	6409.2
2637.61004	6385.2
2640.26238	6360.3
2642.91306	6379
2645.56209	6356.1
2648.20948	6346.3
2650.85521	6343.5
2653.4993	6356.9
2656.14175	6340.1
2658.78255	6359.5
2661.42171	6345.2
2664.05923	6380.8
2666.6951	6366.7
2669.32934	6387
2671.96194	6404
2674.59291	6404.4
2677.22224	6418.8
2679.84993	6420.6
2682.476	6404.4
2685.10043	6417.2
2687.72324	6400
2690.34441	6388.5
2692.96396	6407.6
2695.58188	6384.1
2698.19818	6383.3
2700.81285	6400.1
2703.4259	6391.3
2706.03733	6441
2708.64714	6417.6
2711.25533	6406.1
2713.86191	6413.3
2716.46687	6415.7
2719.07021	6409
2721.67194	6435.8
2724.27206	6419.1
2726.87057	6406.9
2729.46747	6423.3
2732.06276	6433
2734.65644	6417.2
2737.24852	6380.5
2739.83899	6380.6
2742.42786	6366.4
2745.01513	6367.9
2747.60079	6348.7
2750.18486	6336.8
2752.76733	6330.3
2755.3482	6326.2
2757.92747	6315.1
2760.50515	6299.8
2763.08123	6316.2
2765.65573	6274.2
2768.22863	6289.9
2770.79994	6284.7
2773.36967	6272.3
2775.9378	6266
2778.50435	6276.5
2781.06932	6282.6
2783.6327	6269.5
2786.1945	6266
2788.75471	6278.7
2791.31335	6274
2793.87041	6274.5
2796.42589	6247.6
2798.97979	6255.5
2801.53212	6270.2
2804.08288	6259.9
2806.63206	6240.8
2809.17967	6268
2811.72571	6220.2
2814.27018	6246.6
2816.81308	6250.7
2819.35442	6264.9
2821.89419	6273.1
2824.43239	6304
2826.96904	6294.6
2829.50412	6309.4
2832.03763	6304.5
2834.56959	6304.3
2837.1	6313.1
2839.62884	6329.2
2842.15613	6371.5
2844.68186	6432.1
2847.20604	6505.5
2849.72867	6525.3
2852.24974	6563.8
2854.76927	6561.5
2857.28724	6556.4
2859.80367	6532.2
2862.31855	6512.7
2864.83189	6494.8
2867.34368	6481
2869.85393	6466.8
2872.36264	6456.1
2874.8698	6474.6
2877.37543	6456.6
2879.87952	6467
2882.38207	6443.2
2884.88308	6437.5
2887.38256	6432.9
2889.88051	6418
2892.37692	6421.9
2894.8718	6407.1
2897.36515	6407.9
2899.85698	6428.2
2902.34727	6427.7
2904.83604	6452.3
2907.32328	6464.1
2909.809	6445.6
2912.29319	6465.5
2914.77587	6441.2
2917.25702	6430.1
2919.73665	6416.2
2922.21476	6422.1
2924.69136	6384.2
2927.16644	6407.3
2929.64	6370.6
2932.11205	6349.2
2934.58258	6340
2937.05161	6309.7
2939.51912	6277.4
2941.98513	6256.1
2944.44962	6198.2
2946.91261	6157.6
2949.37409	6143.5
2951.83407	6120.7
2954.29254	6083.9
2956.74951	6067.1
2959.20498	6052.7
2961.65895	6029.2
2964.11142	6020.7
2966.56239	5996.8
2969.01186	5994.9
2971.45984	5944.3
2973.90632	5945.2
2976.35131	5920.9
2978.7948	5916.5
2981.23681	5894.3
2983.67732	5870.1
2986.11635	5848.2
2988.55388	5820.7
2990.98993	5825.6
2993.4245	5793.9
2995.85758	5788.2
2998.28917	5778.6
3000.71928	5752.4
3003.14791	5741.7
3005.57506	5743.7
3008.00073	5719.6
3010.42493	5725.8
3012.84764	5697.8
3015.26888	5719
3017.68865	5667.4
3020.10694	5677.1
3022.52376	5654.5
3024.9391	5639.1
3027.35298	5628.2
3029.76539	5622.9
3032.17632	5614.1
3034.5858	5608
3036.9938	5601.1
3039.40034	5586.5
3041.80542	5584.6
3044.20903	5576.1
3046.61118	5543.8
3049.01187	5539.3
3051.4111	5547.7
3053.80888	5523.8
3056.20519	5513
3058.60005	5494.4
3060.99345	5484
3063.3854	5468.9
3065.7759	5454.8
3068.16494	5439.8
3070.55254	5413.3
3072.93868	5402.8
3075.32338	5376.9
3077.70662	5360
3080.08842	5340.3
3082.46878	5325.4
3084.84769	5306.6
3087.22515	5294.9
3089.60118	5287
3091.97576	5278
3094.3489	5263.1
3096.72061	5261.7
3099.09087	5234
3101.4597	5256.1
3103.82709	5248.5
3106.19305	5234.6
3108.55757	5233.4
3110.92066	5221.5
3113.28232	5223.4
3115.64255	5205
3118.00134	5184.5
3120.35871	5183.3
3122.71466	5167.4
3125.06917	5155.5
3127.42226	5162.7
3129.77393	5148.6
3132.12417	5124.8
3134.47299	5143.1
3136.82039	5135.1
3139.16636	5121.2
3141.51092	5132.8
3143.85406	5134.4
3146.19579	5154.1
3148.53609	5130.4
3150.87499	5144.2
3153.21246	5153.8
3155.54853	5155
3157.88318	5152.8
3160.21642	5160
3162.54826	5153.6
3164.87868	5157.7
3167.2077	5149.4
3169.5353	5158.3
3171.86151	5147.4
3174.18631	5137.9
3176.5097	5159.2
3178.83169	5138.4
3181.15228	5145
3183.47147	5131
3185.78926	5131.7
3188.10565	5112.8
3190.42065	5115.2
3192.73424	5119.9
3195.04645	5119.8
3197.35725	5111.1
3199.66667	5131.7
3201.97469	5127.7
3204.28132	5122.8
3206.58656	5135.6
3208.8904	5126.6
3211.19287	5145.7
3213.49394	5138.9
3215.79363	5154.7
3218.09193	5152.5
3220.38884	5164.8
3222.68438	5184.2
3224.97853	5151
3227.2713	5149.2
3229.56269	5146.8
3231.8527	5154
3234.14133	5124.7
3236.42858	5109.7
3238.71446	5117.4
3240.99896	5115.6
3243.28209	5091.8
3245.56384	5093.5
3247.84423	5082.4
3250.12324	5082.7
3252.40088	5068.2
3254.67715	5046.4
3256.95205	5050
3259.22558	5060.6
3261.49775	5039.8
3263.76855	5046.5
3266.03799	5012.2
3268.30606	5018.8
3270.57277	5003.8
3272.83812	4986.6
3275.10211	4992.8
3277.36474	4964.8
3279.62601	4967.9
3281.88593	4974.1
3284.14448	4983.9
3286.40168	4969.2
3288.65753	4951.1
3290.91202	4967.6
3293.16516	4928.1
3295.41695	4931.1
3297.66738	4907.2
3299.91647	4883
3302.16421	4846.2
3304.4106	4800.4
3306.65564	4789.4
3308.89933	4742.2
3311.14169	4705.6
3313.38269	4671.2
3315.62236	4647.2
3317.86068	4596.9
3320.09766	4536.6
3322.3333	4522.4
3324.5676	4505.5
3326.80056	4435.4
3329.03219	4399
3331.26248	1.5
3333.49143	-0.4
3335.71905	-0.9
