Data from AgNPs_FTO_APTES_UA_5uM_CRN_2uM_R6G_10uM_NaF_0.1M_Addition_RamanShift__14__11-13-16-629.txt Node

Date: Mon Feb 07 11:13:16 GMT 2022
User: TCL
Spectrometer: QEP01345
Trigger mode: 4
Integration Time (sec): 7.000000E0
Scans to average: 10
Electric dark correction enabled: true
Nonlinearity correction enabled: false
Boxcar width: 0
XAxis mode: Raman Shifts
Number of Pixels in Spectrum: 1044
>>>>>Begin Spectral Data<<<<<
46.04893	-1.375
50.45542	-1.575
54.85868	-0.975
59.25871	-0.775
63.6555	108.125
68.04907	108.025
72.43941	114.525
76.82654	123.125
81.21044	123.825
85.59113	129.925
89.96862	135.925
94.34289	139.625
98.71396	139.425
103.08183	150.025
107.4465	152.225
111.80798	153.225
116.16626	159.525
120.52136	173.425
124.87327	177.325
129.222	189.525
133.56755	199.825
137.90993	222.125
142.24913	245.025
146.58517	281.125
150.91804	325.925
155.24774	390.425
159.57429	498.725
163.89768	638.825
168.21792	861.325
172.53501	1179.525
176.84895	1641.425
181.15975	2337.725
185.46741	3260.725
189.77193	4524.325
194.07331	6063.925
198.37157	7819.325
202.6667	9682.925
206.9587	11516.225
211.24758	13318.725
215.53334	15108.325
219.81599	16999.725
224.09553	19068.625
228.37195	21319.925
232.64527	23851.725
236.91549	26501.625
241.18261	29236.025
245.44663	31710.425
249.70755	34080.625
253.96539	36149.125
258.22014	37854.725
262.4718	39126.425
266.72039	39999.125
270.96589	40491.725
275.20832	40564.425
279.44768	40339.725
283.68397	40020.125
287.91719	39704.625
292.14735	39467.725
296.37445	39304.925
300.59849	39258.325
304.81948	39325.025
309.03742	39349.325
313.25231	39085.025
317.46415	38465.325
321.67296	37631.425
325.87872	36916.825
330.08145	36518.825
334.28114	36483.925
338.47781	36631.525
342.67145	37002.525
346.86207	37409.325
351.04966	37929.725
355.23424	38465.025
359.4158	39016.325
363.59435	39452.525
367.76989	39761.025
371.94243	39882.125
376.11196	39930.125
380.27849	39879.225
384.44203	39950.325
388.60257	40164.025
392.76012	40603.525
396.91468	41228.425
401.06626	42065.825
405.21485	42524.625
409.36047	42434.525
413.50311	41897.525
417.64277	41667.825
421.77947	41814.725
425.9132	42155.725
430.04396	42393.125
434.17176	42573.825
438.2966	42621.525
442.41849	42942.325
446.53742	43590.925
450.6534	44366.825
454.76644	44917.725
458.87653	45085.825
462.98368	45067.225
467.08789	44822.125
471.18916	44442.925
475.2875	44010.525
479.38291	43771.025
483.4754	43673.825
487.56496	43479.225
491.6516	43175.525
495.73531	42707.725
499.81612	42367.625
503.89401	42421.925
507.96899	42631.025
512.04106	42719.325
516.11023	42511.025
520.1765	42001.225
524.23987	41455.325
528.30034	40896.325
532.35792	40460.225
536.41261	39996.825
540.46441	39644.225
544.51333	39593.025
548.55936	40113.225
552.60252	40897.125
556.64279	41763.125
560.6802	42409.025
564.71473	42926.425
568.7464	43823.525
572.7752	45481.525
576.80114	47428.625
580.82422	49547.725
584.84444	51418.725
588.86181	53436.425
592.87633	55251.825
596.888	55137.125
600.89682	52467.825
604.9028	50747.825
608.90594	52031.025
612.90624	53759.625
616.90371	50555.825
620.89834	44193.725
624.89015	41570.525
628.87913	41463.125
632.86528	41993.325
636.84862	42084.725
640.82913	41291.725
644.80683	40171.025
648.78172	39380.525
652.75379	39215.025
656.72306	39568.925
660.68952	40037.125
664.65319	39906.425
668.61405	39440.825
672.57211	39317.225
676.52738	39437.925
680.47986	39352.225
684.42955	39030.825
688.37646	38937.625
692.32058	39087.825
696.26192	39513.025
700.20048	40065.125
704.13626	40504.625
708.06928	40771.425
711.99952	40784.025
715.927	40672.225
719.85171	40472.325
723.77365	40076.225
727.69284	39388.825
731.60928	38818.225
735.52295	38486.025
739.43388	38406.125
743.34206	38561.925
747.24749	38738.925
751.15017	39227.625
755.05012	39961.125
758.94733	41049.425
762.8418	42791.925
766.73354	45308.625
770.62254	47655.325
774.50882	47742.925
778.39237	45758.525
782.27321	43239.025
786.15132	41161.525
790.02671	39721.325
793.89938	38932.125
797.76935	38444.825
801.6366	38278.425
805.50115	38133.025
809.36299	37995.925
813.22213	37767.225
817.07857	37650.125
820.93231	37653.125
824.78336	37449.525
828.63172	37270.925
832.47738	37127.525
836.32036	37054.125
840.16066	37021.925
843.99827	36996.725
847.8332	37015.325
851.66546	37064.725
855.49504	37149.225
859.32195	37159.325
863.1462	37090.525
866.96777	37046.025
870.78668	37012.625
874.60293	37003.625
878.41652	36991.425
882.22745	37079.425
886.03573	37141.225
889.84136	37201.825
893.64433	37112.025
897.44466	37077.625
901.24235	37038.225
905.0374	36993.725
908.8298	36934.325
912.61957	37047.925
916.40671	37433.825
920.19121	38085.425
923.97308	38538.425
927.75233	38596.625
931.52895	38068.125
935.30295	37340.325
939.07433	36542.025
942.84309	35939.425
946.60924	35578.725
950.37278	35418.125
954.13371	35381.125
957.89203	35375.025
961.64774	35352.325
965.40086	35397.625
969.15137	35313.025
972.89929	35160.525
976.64461	34955.425
980.38733	34860.825
984.12747	34807.825
987.86502	34898.725
991.59999	35058.925
995.33237	35221.625
999.06217	35583.325
1002.78939	36063.125
1006.51404	36704.825
1010.23611	37397.425
1013.95561	37777.125
1017.67255	37832.425
1021.38692	37524.025
1025.09872	36894.825
1028.80796	36428.925
1032.51465	36244.725
1036.21877	36292.825
1039.92035	36489.425
1043.61937	36629.325
1047.31584	36786.825
1051.00976	36969.825
1054.70114	37172.125
1058.38998	37491.525
1062.07627	37947.125
1065.76003	38564.425
1069.44126	39142.325
1073.11995	39949.225
1076.79611	40536.925
1080.46974	40744.825
1084.14085	40899.025
1087.80943	41294.125
1091.47549	41807.325
1095.13903	42150.425
1098.80005	41724.825
1102.45857	40615.225
1106.11456	39498.225
1109.76805	38756.925
1113.41903	38546.925
1117.06751	38575.225
1120.71348	38810.025
1124.35696	39186.425
1127.99793	39621.625
1131.63641	39909.625
1135.2724	39973.525
1138.90589	39961.225
1142.5369	40109.025
1146.16542	40395.125
1149.79145	40770.825
1153.415	41318.825
1157.03607	41938.925
1160.65467	43108.525
1164.27079	44897.325
1167.88443	47078.725
1171.49561	49274.625
1175.10432	51780.925
1178.71056	54841.825
1182.31434	57688.525
1185.91565	59549.725
1189.51451	59971.825
1193.11091	59290.225
1196.70485	57638.525
1200.29634	55623.125
1203.88538	54203.525
1207.47197	53705.325
1211.05612	53560.925
1214.63782	52918.025
1218.21708	51437.225
1221.79391	49492.125
1225.36829	47948.925
1228.94024	47046.125
1232.50976	46585.225
1236.07685	46229.725
1239.6415	46030.025
1243.20374	46002.425
1246.76355	46169.825
1250.32093	46732.625
1253.8759	47650.625
1257.42845	48845.725
1260.97859	50299.625
1264.52631	51791.225
1268.07163	53285.025
1271.61453	54768.525
1275.15503	56361.325
1278.69312	58127.225
1282.22882	60071.725
1285.76211	62419.325
1289.29301	64868.025
1292.82151	67590.525
1296.34761	70726.725
1299.87133	74313.625
1303.39266	77806.225
1306.9116	80621.525
1310.42815	82374.725
1313.94233	82737.425
1317.45412	82003.025
1320.96354	81407.125
1324.47058	81374.625
1327.97525	81775.925
1331.47754	82058.925
1334.97747	82181.125
1338.47502	81790.225
1341.97022	81435.525
1345.46305	80909.225
1348.95352	80110.425
1352.44163	79004.825
1355.92738	78525.025
1359.41078	79359.925
1362.89183	80387.425
1366.37053	79391.025
1369.84688	75017.225
1373.32088	68540.525
1376.79254	63564.725
1380.26186	61571.425
1383.72883	61488.525
1387.19347	61424.025
1390.65578	60804.425
1394.11575	60256.425
1397.57339	60563.225
1401.0287	61416.425
1404.48168	62109.225
1407.93234	61788.925
1411.38068	60204.725
1414.82669	57937.125
1418.27039	55298.625
1421.71177	52859.025
1425.15083	51201.525
1428.58758	50501.825
1432.02203	51047.325
1435.45416	52308.625
1438.88399	53766.625
1442.31151	54894.725
1445.73673	55706.525
1449.15965	56391.325
1452.58027	56804.225
1455.9986	57053.825
1459.41463	57621.225
1462.82837	58485.025
1466.23982	59360.025
1469.64898	60285.725
1473.05586	60631.025
1476.46045	60540.025
1479.86276	60218.025
1483.26279	59989.425
1486.66054	60005.725
1490.05602	60407.725
1493.44922	61271.625
1496.84016	62712.525
1500.22882	64132.225
1503.61521	65735.025
1506.99934	67340.425
1510.38121	68357.425
1513.76081	68612.825
1517.13816	68034.425
1520.51324	67313.425
1523.88607	67013.425
1527.25665	67024.725
1530.62498	66817.325
1533.99105	66066.925
1537.35488	64449.625
1540.71647	62370.525
1544.07581	60071.025
1547.4329	57908.925
1550.78776	56230.425
1554.14038	55177.925
1557.49077	54654.825
1560.83892	54461.825
1564.18484	54420.625
1567.52853	54489.425
1570.86999	54873.125
1574.20922	55853.625
1577.54624	56939.125
1580.88103	57455.525
1584.2136	58219.425
1587.54395	59822.725
1590.87208	62452.625
1594.19801	65531.525
1597.52172	68002.925
1600.84321	67794.225
1604.16251	64127.525
1607.47959	59345.125
1610.79447	54517.525
1614.10715	50233.525
1617.41763	46709.125
1620.7259	44285.225
1624.03199	43006.825
1627.33587	42959.225
1630.63757	44268.625
1633.93707	47239.525
1637.23439	52247.025
1640.52951	59663.225
1643.82246	68517.325
1647.11321	75889.025
1650.40179	77573.325
1653.68819	72262.225
1656.97241	62628.725
1660.25446	53158.625
1663.53433	45790.025
1666.81203	40990.925
1670.08756	37937.825
1673.36092	36003.625
1676.63211	34875.825
1679.90115	34029.625
1683.16801	33433.525
1686.43272	32866.625
1689.69527	32499.525
1692.95567	32262.025
1696.2139	32001.225
1699.46999	31904.125
1702.72392	31718.525
1705.97571	31593.625
1709.22535	31466.125
1712.47284	31380.925
1715.71819	31322.125
1718.96139	31151.025
1722.20246	31072.025
1725.44139	30926.025
1728.67818	30739.225
1731.91284	30541.025
1735.14537	30328.625
1738.37576	30193.425
1741.60403	30071.825
1744.83017	29922.525
1748.05418	29813.725
1751.27607	29690.525
1754.49584	29666.025
1757.71349	29616.125
1760.92903	29553.425
1764.14244	29515.025
1767.35375	29484.925
1770.56294	29414.525
1773.77002	29328.825
1776.97499	29285.525
1780.17785	29184.525
1783.37861	29120.925
1786.57727	29026.625
1789.77382	28968.325
1792.96828	28919.025
1796.16064	28837.525
1799.3509	28785.025
1802.53907	28759.425
1805.72514	28608.025
1808.90913	28519.925
1812.09102	28470.425
1815.27083	28437.825
1818.44856	28409.225
1821.6242	28343.625
1824.79776	28306.325
1827.96924	28302.925
1831.13864	28293.025
1834.30597	28268.125
1837.47122	28241.125
1840.6344	28275.225
1843.7955	28291.125
1846.95454	28303.025
1850.11151	28331.625
1853.26642	28241.425
1856.41926	28283.825
1859.57004	28313.625
1862.71876	28222.525
1865.86542	28122.225
1869.01003	28089.425
1872.15258	27990.725
1875.29308	27931.525
1878.43152	27863.125
1881.56792	27824.025
1884.70227	27739.025
1887.83457	27713.925
1890.96482	27621.125
1894.09304	27605.225
1897.21921	27525.025
1900.34335	27503.025
1903.46544	27457.925
1906.58551	27424.825
1909.70353	27332.425
1912.81953	27217.325
1915.93349	27197.525
1919.04543	27126.625
1922.15534	27027.225
1925.26322	26932.525
1928.36908	26866.525
1931.47292	26824.125
1934.57473	26695.525
1937.67453	26607.725
1940.77232	26544.125
1943.86808	26417.625
1946.96184	26349.225
1950.05358	26291.825
1953.14331	26203.325
1956.23103	26080.425
1959.31675	25991.525
1962.40046	25913.825
1965.48217	25870.125
1968.56188	25765.325
1971.63959	25649.325
1974.7153	25520.725
1977.78901	25480.825
1980.86073	25325.425
1983.93046	25236.225
1986.99819	25188.525
1990.06394	25144.925
1993.1277	25080.125
1996.18947	24958.025
1999.24925	24868.525
2002.30706	24727.325
2005.36288	24679.425
2008.41672	24583.525
2011.46859	24521.625
2014.51848	24468.025
2017.56639	24388.225
2020.61233	24321.625
2023.6563	24205.425
2026.6983	24172.525
2029.73833	24105.225
2032.7764	24016.425
2035.8125	23938.525
2038.84664	23882.825
2041.87881	23872.725
2044.90903	23797.125
2047.93729	23717.125
2050.96359	23702.625
2053.98794	23666.325
2057.01034	23637.925
2060.03078	23601.525
2063.04927	23602.125
2066.06582	23569.825
2069.08042	23551.525
2072.09307	23512.025
2075.10378	23468.125
2078.11255	23449.425
2081.11938	23490.025
2084.12426	23435.125
2087.12722	23437.625
2090.12824	23363.225
2093.12732	23379.325
2096.12447	23399.325
2099.11969	23379.225
2102.11299	23354.225
2105.10435	23372.325
2108.09379	23350.125
2111.08131	23351.025
2114.0669	23337.225
2117.05057	23337.625
2120.03233	23340.325
2123.01216	23386.625
2125.99008	23428.025
2128.96609	23398.225
2131.94018	23383.825
2134.91236	23395.825
2137.88263	23413.325
2140.851	23425.625
2143.81746	23376.225
2146.78201	23345.925
2149.74466	23320.325
2152.7054	23302.925
2155.66425	23260.725
2158.6212	23258.325
2161.57625	23233.425
2164.52941	23201.525
2167.48067	23203.525
2170.43004	23204.425
2173.37752	23174.125
2176.32311	23173.725
2179.26681	23154.725
2182.20863	23139.525
2185.14856	23124.925
2188.08661	23133.425
2191.02278	23147.725
2193.95707	23119.725
2196.88948	23019.125
2199.82001	23013.425
2202.74867	22959.525
2205.67545	22921.225
2208.60037	22862.525
2211.52341	22804.825
2214.44458	22842.025
2217.36388	22761.025
2220.28132	22678.625
2223.1969	22637.625
2226.11061	22628.025
2229.02246	22565.925
2231.93245	22534.425
2234.84058	22490.525
2237.74686	22508.325
2240.65128	22502.025
2243.55385	22409.025
2246.45456	22343.825
2249.35343	22312.825
2252.25044	22258.625
2255.14561	22170.225
2258.03893	22114.825
2260.93041	22035.225
2263.82004	21981.625
2266.70783	21910.225
2269.59378	21839.325
2272.4779	21771.125
2275.36017	21710.725
2278.24061	21655.525
2281.11922	21609.525
2283.996	21552.225
2286.87094	21525.625
2289.74405	21504.625
2292.61534	21474.225
2295.4848	21411.025
2298.35243	21364.725
2301.21824	21369.025
2304.08223	21338.825
2306.94439	21339.825
2309.80474	21341.125
2312.66327	21374.125
2315.51999	21281.225
2318.37489	21208.325
2321.22797	21125.425
2324.07925	21195.325
2326.92871	21125.625
2329.77637	21103.525
2332.62222	21036.525
2335.46626	21070.725
2338.3085	21010.125
2341.14893	20977.425
2343.98756	20980.825
2346.8244	20978.325
2349.65943	20923.425
2352.49267	20908.425
2355.32411	20943.425
2358.15376	20911.825
2360.98161	20892.225
2363.80768	20890.225
2366.63195	20883.925
2369.45444	20887.625
2372.27514	20862.825
2375.09405	20820.425
2377.91118	20750.625
2380.72652	20686.825
2383.54009	20664.725
2386.35187	20599.425
2389.16188	20533.425
2391.97011	20482.725
2394.77657	20425.025
2397.58125	20390.025
2400.38416	20356.925
2403.18529	20320.725
2405.98466	20304.225
2408.78226	20257.325
2411.57809	20229.425
2414.37216	20212.925
2417.16446	20270.325
2419.955	20190.925
2422.74378	20162.025
2425.5308	20113.825
2428.31606	20086.025
2431.09956	20112.825
2433.88131	20098.025
2436.6613	20103.025
2439.43954	20104.725
2442.21603	20056.225
2444.99077	20024.525
2447.76377	20013.125
2450.53501	19969.225
2453.30451	19968.725
2456.07226	19892.525
2458.83827	19931.525
2461.60254	19917.925
2464.36507	19875.425
2467.12586	19826.325
2469.88492	19844.725
2472.64224	19815.025
2475.39782	19870.425
2478.15167	19880.725
2480.90379	19848.325
2483.65417	19829.125
2486.40283	19809.025
2489.14976	19808.725
2491.89497	19819.325
2494.63845	19780.825
2497.3802	19748.325
2500.12024	19792.925
2502.85855	19752.225
2505.59514	19707.525
2508.33002	19700.125
2511.06318	19681.625
2513.79462	19644.925
2516.52435	19623.325
2519.25237	19621.825
2521.97867	19584.625
2524.70327	19589.725
2527.42616	19549.425
2530.14734	19508.825
2532.86681	19509.325
2535.58458	19509.725
2538.30065	19450.925
2541.01501	19437.725
2543.72768	19428.825
2546.43864	19404.225
2549.14791	19401.925
2551.85548	19345.525
2554.56136	19288.925
2557.26554	19268.025
2559.96803	19234.425
2562.66883	19249.025
2565.36794	19207.725
2568.06536	19148.825
2570.7611	19128.925
2573.45514	19136.925
2576.14751	19093.925
2578.83819	19029.525
2581.52719	19032.825
2584.21451	19010.525
2586.90015	19020.325
2589.58411	18949.725
2592.2664	18935.225
2594.94701	18908.425
2597.62594	18871.225
2600.30321	18860.325
2602.9788	18837.525
2605.65273	18829.725
2608.32498	18889.725
2610.99557	18842.925
2613.66449	18857.225
2616.33175	18840.725
2618.99734	18826.925
2621.66128	18770.925
2624.32355	18718.525
2626.98416	18698.825
2629.64311	18696.425
2632.30041	18712.625
2634.95605	18679.325
2637.61004	18651.925
2640.26238	18584.525
2642.91306	18611.825
2645.56209	18618.225
2648.20948	18619.525
2650.85521	18614.725
2653.4993	18646.825
2656.14175	18636.425
2658.78255	18655.625
2661.42171	18622.825
2664.05923	18638.425
2666.6951	18633.425
2669.32934	18658.325
2671.96194	18662.125
2674.59291	18666.825
2677.22224	18686.925
2679.84993	18688.525
2682.476	18648.825
2685.10043	18651.625
2687.72324	18604.125
2690.34441	18628.825
2692.96396	18608.125
2695.58188	18599.325
2698.19818	18590.325
2700.81285	18570.325
2703.4259	18567.125
2706.03733	18632.525
2708.64714	18591.625
2711.25533	18561.925
2713.86191	18572.825
2716.46687	18612.025
2719.07021	18562.325
2721.67194	18629.225
2724.27206	18585.525
2726.87057	18597.625
2729.46747	18659.325
2732.06276	18661.725
2734.65644	18626.725
2737.24852	18617.225
2739.83899	18593.525
2742.42786	18572.225
2745.01513	18530.025
2747.60079	18559.125
2750.18486	18521.725
2752.76733	18491.225
2755.3482	18480.325
2757.92747	18473.625
2760.50515	18433.425
2763.08123	18392.925
2765.65573	18423.225
2768.22863	18349.425
2770.79994	18355.025
2773.36967	18381.325
2775.9378	18360.225
2778.50435	18337.925
2781.06932	18311.925
2783.6327	18308.725
2786.1945	18311.125
2788.75471	18300.225
2791.31335	18275.325
2793.87041	18257.925
2796.42589	18196.725
2798.97979	18188.625
2801.53212	18130.225
2804.08288	18107.725
2806.63206	18045.425
2809.17967	18041.925
2811.72571	17983.825
2814.27018	17955.525
2816.81308	17921.625
2819.35442	17877.925
2821.89419	17826.325
2824.43239	17835.825
2826.96904	17784.325
2829.50412	17796.925
2832.03763	17706.625
2834.56959	17680.525
2837.1	17727.825
2839.62884	17698.325
2842.15613	17684.825
2844.68186	17743.525
2847.20604	17714.925
2849.72867	17679.925
2852.24974	17717.025
2854.76927	17699.425
2857.28724	17674.525
2859.80367	17652.325
2862.31855	17631.225
2864.83189	17566.925
2867.34368	17482.625
2869.85393	17494.125
2872.36264	17457.725
2874.8698	17460.125
2877.37543	17447.025
2879.87952	17407.825
2882.38207	17388.825
2884.88308	17377.225
2887.38256	17403.025
2889.88051	17365.225
2892.37692	17362.425
2894.8718	17369.825
2897.36515	17367.825
2899.85698	17354.925
2902.34727	17379.225
2904.83604	17427.525
2907.32328	17456.725
2909.809	17433.225
2912.29319	17437.425
2914.77587	17423.525
2917.25702	17437.825
2919.73665	17412.325
2922.21476	17384.025
2924.69136	17377.525
2927.16644	17385.725
2929.64	17356.425
2932.11205	17327.325
2934.58258	17273.825
2937.05161	17284.025
2939.51912	17245.725
2941.98513	17245.425
2944.44962	17202.425
2946.91261	17123.125
2949.37409	17132.325
2951.83407	17085.125
2954.29254	17061.225
2956.74951	17060.125
2959.20498	17046.825
2961.65895	17033.525
2964.11142	17013.325
2966.56239	16959.225
2969.01186	16974.925
2971.45984	16911.125
2973.90632	16936.525
2976.35131	16839.525
2978.7948	16822.725
2981.23681	16785.625
2983.67732	16747.125
2986.11635	16737.425
2988.55388	16670.225
2990.98993	16597.925
2993.4245	16536.225
2995.85758	16485.725
2998.28917	16437.425
3000.71928	16415.025
3003.14791	16364.125
3005.57506	16333.525
3008.00073	16270.525
3010.42493	16276.025
3012.84764	16226.525
3015.26888	16206.425
3017.68865	16173.225
3020.10694	16116.525
3022.52376	16085.925
3024.9391	16045.825
3027.35298	16016.325
3029.76539	16021.725
3032.17632	15986.725
3034.5858	15941.525
3036.9938	15930.025
3039.40034	15917.825
3041.80542	15929.325
3044.20903	15883.425
3046.61118	15867.625
3049.01187	15824.525
3051.4111	15817.425
3053.80888	15776.225
3056.20519	15732.325
3058.60005	15690.025
3060.99345	15661.625
3063.3854	15591.025
3065.7759	15547.825
3068.16494	15492.325
3070.55254	15418.325
3072.93868	15395.825
3075.32338	15346.625
3077.70662	15289.225
3080.08842	15241.125
3082.46878	15192.125
3084.84769	15163.425
3087.22515	15138.725
3089.60118	15119.825
3091.97576	15123.625
3094.3489	15114.625
3096.72061	15114.525
3099.09087	15058.825
3101.4597	15052.825
3103.82709	15073.325
3106.19305	15027.625
3108.55757	15008.225
3110.92066	14923.725
3113.28232	14943.325
3115.64255	14898.325
3118.00134	14839.225
3120.35871	14822.625
3122.71466	14786.725
3125.06917	14734.525
3127.42226	14648.325
3129.77393	14660.225
3132.12417	14608.825
3134.47299	14622.725
3136.82039	14623.025
3139.16636	14599.425
3141.51092	14564.425
3143.85406	14559.325
3146.19579	14560.825
3148.53609	14541.425
3150.87499	14552.925
3153.21246	14524.025
3155.54853	14538.925
3157.88318	14464.425
3160.21642	14494.425
3162.54826	14516.325
3164.87868	14506.925
3167.2077	14493.925
3169.5353	14495.725
3171.86151	14488.825
3174.18631	14445.625
3176.5097	14433.725
3178.83169	14424.325
3181.15228	14388.025
3183.47147	14333.125
3185.78926	14285.125
3188.10565	14270.125
3190.42065	14244.525
3192.73424	14204.925
3195.04645	14213.625
3197.35725	14188.825
3199.66667	14170.725
3201.97469	14192.425
3204.28132	14146.625
3206.58656	14161.025
3208.8904	14136.425
3211.19287	14126.125
3213.49394	14163.125
3215.79363	14110.025
3218.09193	14119.425
3220.38884	14102.625
3222.68438	14144.525
3224.97853	14070.625
3227.2713	14063.825
3229.56269	14033.725
3231.8527	14030.425
3234.14133	14000.525
3236.42858	13924.525
3238.71446	13936.225
3240.99896	13886.525
3243.28209	13885.525
3245.56384	13872.625
3247.84423	13846.325
3250.12324	13830.825
3252.40088	13770.025
3254.67715	13753.325
3256.95205	13738.325
3259.22558	13727.525
3261.49775	13687.825
3263.76855	13661.225
3266.03799	13643.525
3268.30606	13612.125
3270.57277	13591.325
3272.83812	13527.525
3275.10211	13504.725
3277.36474	13499.225
3279.62601	13504.425
3281.88593	13458.525
3284.14448	13455.225
3286.40168	13467.725
3288.65753	13452.125
3290.91202	13440.825
3293.16516	13387.625
3295.41695	13366.025
3297.66738	13268.625
3299.91647	13212.325
3302.16421	13115.125
3304.4106	13018.025
3306.65564	12915.925
3308.89933	12809.525
3311.14169	12729.525
3313.38269	12612.425
3315.62236	12509.325
3317.86068	12418.625
3320.09766	12301.025
3322.3333	12202.525
3324.5676	12133.425
3326.80056	11937.225
3329.03219	11845.225
3331.26248	3.525
3333.49143	-1.075
3335.71905	0.125
