Data from AgNPs_FTO_APTES_UA_5uM_CRN_5uM_R6G_10uM_NaF_0.1M_Addition_RamanShift__14__12-01-06-685.txt Node

Date: Mon Feb 07 12:01:06 GMT 2022
User: TCL
Spectrometer: QEP01345
Trigger mode: 4
Integration Time (sec): 7.000000E0
Scans to average: 10
Electric dark correction enabled: true
Nonlinearity correction enabled: false
Boxcar width: 0
XAxis mode: Raman Shifts
Number of Pixels in Spectrum: 1044
>>>>>Begin Spectral Data<<<<<
46.04893	-0.4625
50.45542	-1.7625
54.85868	-0.8625
59.25871	-0.0625
63.6555	101.4375
68.04907	103.2375
72.43941	110.5375
76.82654	113.0375
81.21044	116.1375
85.59113	119.3375
89.96862	131.5375
94.34289	129.9375
98.71396	133.1375
103.08183	139.1375
107.4465	144.1375
111.80798	148.0375
116.16626	151.4375
120.52136	157.5375
124.87327	168.9375
129.222	179.2375
133.56755	192.3375
137.90993	209.7375
142.24913	228.7375
146.58517	264.0375
150.91804	312.2375
155.24774	371.9375
159.57429	475.1375
163.89768	610.7375
168.21792	819.1375
172.53501	1124.4375
176.84895	1568.7375
181.15975	2216.8375
185.46741	3111.2375
189.77193	4303.8375
194.07331	5759.8375
198.37157	7409.2375
202.6667	9147.4375
206.9587	10890.9375
211.24758	12569.5375
215.53334	14270.8375
219.81599	16047.6375
224.09553	18034.0375
228.37195	20162.2375
232.64527	22551.5375
236.91549	25022.0375
241.18261	27535.6375
245.44663	29905.4375
249.70755	32104.8375
253.96539	34001.3375
258.22014	35582.3375
262.4718	36848.9375
266.72039	37813.3375
270.96589	38340.0375
275.20832	38536.4375
279.44768	38413.3375
283.68397	38173.5375
287.91719	38018.1375
292.14735	37929.1375
296.37445	37885.7375
300.59849	37969.5375
304.81948	38060.6375
309.03742	37945.6375
313.25231	37520.8375
317.46415	36696.8375
321.67296	35730.0375
325.87872	34839.8375
330.08145	34436.3375
334.28114	34357.6375
338.47781	34533.7375
342.67145	34929.3375
346.86207	35339.3375
351.04966	35831.7375
355.23424	36388.0375
359.4158	36901.8375
363.59435	37228.4375
367.76989	37494.5375
371.94243	37698.3375
376.11196	37755.6375
380.27849	37803.1375
384.44203	37868.9375
388.60257	38140.6375
392.76012	38595.4375
396.91468	39165.3375
401.06626	39777.8375
405.21485	40193.9375
409.36047	40073.9375
413.50311	39627.8375
417.64277	39267.9375
421.77947	39342.1375
425.9132	39541.2375
430.04396	39677.7375
434.17176	39780.3375
438.2966	39972.5375
442.41849	40398.9375
446.53742	41127.8375
450.6534	42031.2375
454.76644	42752.0375
458.87653	43136.7375
462.98368	43189.4375
467.08789	43007.4375
471.18916	42573.3375
475.2875	42299.8375
479.38291	42224.1375
483.4754	42192.8375
487.56496	41909.6375
491.6516	41292.1375
495.73531	40594.6375
499.81612	40086.9375
503.89401	40160.4375
507.96899	40262.9375
512.04106	40411.4375
516.11023	40155.3375
520.1765	39676.4375
524.23987	39082.1375
528.30034	38486.7375
532.35792	38034.7375
536.41261	37693.1375
540.46441	37401.5375
544.51333	37490.5375
548.55936	38042.1375
552.60252	38833.3375
556.64279	39815.9375
560.6802	40498.9375
564.71473	41176.0375
568.7464	42103.6375
572.7752	43596.2375
576.80114	45394.4375
580.82422	46909.1375
584.84444	48050.1375
588.86181	48933.9375
592.87633	49397.0375
596.888	48702.9375
600.89682	47121.7375
604.9028	46883.3375
608.90594	48767.7375
612.90624	50973.4375
616.90371	47832.9375
620.89834	41494.4375
624.89015	38688.2375
628.87913	38497.7375
632.86528	38881.8375
636.84862	38955.8375
640.82913	38395.5375
644.80683	37457.3375
648.78172	36773.1375
652.75379	36586.8375
656.72306	36894.5375
660.68952	37318.7375
664.65319	37241.3375
668.61405	36813.6375
672.57211	36743.4375
676.52738	36796.9375
680.47986	36786.3375
684.42955	36526.9375
688.37646	36389.8375
692.32058	36559.7375
696.26192	36981.4375
700.20048	37385.1375
704.13626	37735.0375
708.06928	38000.0375
711.99952	37935.1375
715.927	37836.8375
719.85171	37762.4375
723.77365	37490.8375
727.69284	36983.9375
731.60928	36441.7375
735.52295	36150.8375
739.43388	36078.8375
743.34206	36093.9375
747.24749	36310.3375
751.15017	36727.2375
755.05012	37395.7375
758.94733	38537.3375
762.8418	40308.9375
766.73354	42938.9375
770.62254	45204.9375
774.50882	45366.8375
778.39237	43308.7375
782.27321	40634.7375
786.15132	38552.4375
790.02671	37133.0375
793.89938	36359.9375
797.76935	35968.1375
801.6366	35771.2375
805.50115	35719.8375
809.36299	35583.0375
813.22213	35374.6375
817.07857	35320.9375
820.93231	35264.7375
824.78336	35074.3375
828.63172	34886.1375
832.47738	34712.8375
836.32036	34628.0375
840.16066	34576.1375
843.99827	34640.2375
847.8332	34579.2375
851.66546	34593.6375
855.49504	34645.7375
859.32195	34681.7375
863.1462	34570.0375
866.96777	34545.3375
870.78668	34492.6375
874.60293	34446.2375
878.41652	34446.6375
882.22745	34509.2375
886.03573	34657.9375
889.84136	34650.2375
893.64433	34555.8375
897.44466	34453.6375
901.24235	34414.8375
905.0374	34313.8375
908.8298	34291.6375
912.61957	34422.5375
916.40671	34772.9375
920.19121	35377.5375
923.97308	35812.0375
927.75233	35608.0375
931.52895	35082.9375
935.30295	34500.8375
939.07433	33869.6375
942.84309	33387.0375
946.60924	33100.8375
950.37278	32984.5375
954.13371	32914.3375
957.89203	32921.7375
961.64774	32945.6375
965.40086	32980.3375
969.15137	32911.4375
972.89929	32776.0375
976.64461	32610.5375
980.38733	32517.4375
984.12747	32474.0375
987.86502	32606.5375
991.59999	32764.6375
995.33237	32979.1375
999.06217	33375.2375
1002.78939	33881.2375
1006.51404	34400.5375
1010.23611	34980.0375
1013.95561	35310.9375
1017.67255	35418.9375
1021.38692	35059.0375
1025.09872	34620.2375
1028.80796	34237.1375
1032.51465	34150.3375
1036.21877	34257.3375
1039.92035	34425.8375
1043.61937	34556.0375
1047.31584	34585.0375
1051.00976	34748.0375
1054.70114	34923.6375
1058.38998	35246.6375
1062.07627	35720.8375
1065.76003	36289.1375
1069.44126	36909.1375
1073.11995	37455.1375
1076.79611	37901.9375
1080.46974	38054.4375
1084.14085	38237.4375
1087.80943	38611.6375
1091.47549	39126.1375
1095.13903	39387.8375
1098.80005	39069.6375
1102.45857	38122.5375
1106.11456	37175.1375
1109.76805	36556.1375
1113.41903	36358.8375
1117.06751	36398.4375
1120.71348	36691.9375
1124.35696	36986.1375
1127.99793	37400.8375
1131.63641	37671.0375
1135.2724	37749.9375
1138.90589	37758.4375
1142.5369	37885.7375
1146.16542	38158.6375
1149.79145	38620.6375
1153.415	39152.3375
1157.03607	39865.0375
1160.65467	41043.9375
1164.27079	42803.6375
1167.88443	45022.0375
1171.49561	47390.1375
1175.10432	50057.5375
1178.71056	53324.5375
1182.31434	56523.0375
1185.91565	58417.7375
1189.51451	58991.3375
1193.11091	58338.6375
1196.70485	56742.7375
1200.29634	54674.6375
1203.88538	53156.2375
1207.47197	52450.3375
1211.05612	52045.6375
1214.63782	51261.9375
1218.21708	49700.4375
1221.79391	47913.1375
1225.36829	46417.4375
1228.94024	45507.5375
1232.50976	44864.4375
1236.07685	44427.9375
1239.6415	44299.1375
1243.20374	44263.8375
1246.76355	44606.7375
1250.32093	45220.1375
1253.8759	46162.8375
1257.42845	47336.1375
1260.97859	48728.0375
1264.52631	50169.4375
1268.07163	51591.3375
1271.61453	52968.9375
1275.15503	54444.8375
1278.69312	56122.4375
1282.22882	57799.1375
1285.76211	59751.8375
1289.29301	62129.9375
1292.82151	64930.4375
1296.34761	68247.5375
1299.87133	72000.8375
1303.39266	75559.4375
1306.9116	78472.2375
1310.42815	80441.6375
1313.94233	81185.6375
1317.45412	80968.7375
1320.96354	80611.9375
1324.47058	80731.1375
1327.97525	81177.7375
1331.47754	81589.3375
1334.97747	81815.7375
1338.47502	81878.4375
1341.97022	81662.2375
1345.46305	81142.9375
1348.95352	79968.8375
1352.44163	78277.3375
1355.92738	77014.4375
1359.41078	77025.2375
1362.89183	77557.2375
1366.37053	76147.3375
1369.84688	71672.2375
1373.32088	65793.2375
1376.79254	61404.0375
1380.26186	59789.0375
1383.72883	59950.0375
1387.19347	60351.3375
1390.65578	60191.3375
1394.11575	59965.7375
1397.57339	60316.5375
1401.0287	61031.8375
1404.48168	61559.5375
1407.93234	61229.3375
1411.38068	59745.0375
1414.82669	57323.9375
1418.27039	54521.7375
1421.71177	51941.7375
1425.15083	49977.3375
1428.58758	49153.8375
1432.02203	49540.2375
1435.45416	50849.5375
1438.88399	52419.4375
1442.31151	53800.7375
1445.73673	54766.7375
1449.15965	55557.1375
1452.58027	56160.0375
1455.9986	56517.0375
1459.41463	57048.8375
1462.82837	57831.1375
1466.23982	58617.5375
1469.64898	59191.3375
1473.05586	59432.0375
1476.46045	59149.2375
1479.86276	58621.5375
1483.26279	58046.8375
1486.66054	57872.9375
1490.05602	58079.4375
1493.44922	58740.2375
1496.84016	59754.9375
1500.22882	61175.1375
1503.61521	62936.0375
1506.99934	64817.6375
1510.38121	66233.9375
1513.76081	66533.2375
1517.13816	65837.9375
1520.51324	64893.1375
1523.88607	64267.4375
1527.25665	64067.8375
1530.62498	64104.4375
1533.99105	63622.2375
1537.35488	62679.8375
1540.71647	60978.5375
1544.07581	58892.3375
1547.4329	56911.4375
1550.78776	55352.7375
1554.14038	54330.3375
1557.49077	53779.7375
1560.83892	53484.2375
1564.18484	53406.2375
1567.52853	53486.5375
1570.86999	53994.8375
1574.20922	54989.8375
1577.54624	56226.6375
1580.88103	56816.4375
1584.2136	57494.4375
1587.54395	59055.7375
1590.87208	61439.3375
1594.19801	64189.9375
1597.52172	66453.6375
1600.84321	66298.7375
1604.16251	63011.3375
1607.47959	58485.5375
1610.79447	53912.7375
1614.10715	49564.4375
1617.41763	45904.7375
1620.7259	43255.8375
1624.03199	41789.6375
1627.33587	41659.3375
1630.63757	42782.5375
1633.93707	45541.0375
1637.23439	50372.2375
1640.52951	57040.9375
1643.82246	64861.0375
1647.11321	71019.7375
1650.40179	72301.7375
1653.68819	67679.3375
1656.97241	59285.2375
1660.25446	50643.9375
1663.53433	43831.4375
1666.81203	39056.3375
1670.08756	36010.2375
1673.36092	34076.6375
1676.63211	32838.0375
1679.90115	32037.3375
1683.16801	31326.4375
1686.43272	30910.5375
1689.69527	30476.0375
1692.95567	30225.6375
1696.2139	30016.4375
1699.46999	29807.2375
1702.72392	29707.8375
1705.97571	29577.6375
1709.22535	29471.2375
1712.47284	29400.2375
1715.71819	29334.8375
1718.96139	29256.6375
1722.20246	29079.4375
1725.44139	28960.9375
1728.67818	28745.1375
1731.91284	28570.2375
1735.14537	28377.0375
1738.37576	28223.6375
1741.60403	28130.8375
1744.83017	28006.2375
1748.05418	27920.5375
1751.27607	27805.8375
1754.49584	27733.1375
1757.71349	27757.7375
1760.92903	27685.5375
1764.14244	27605.6375
1767.35375	27594.2375
1770.56294	27511.8375
1773.77002	27408.1375
1776.97499	27378.1375
1780.17785	27280.0375
1783.37861	27229.5375
1786.57727	27156.3375
1789.77382	27082.0375
1792.96828	27089.5375
1796.16064	27020.4375
1799.3509	26976.8375
1802.53907	26863.6375
1805.72514	26784.1375
1808.90913	26710.5375
1812.09102	26633.2375
1815.27083	26618.1375
1818.44856	26554.1375
1821.6242	26518.2375
1824.79776	26516.5375
1827.96924	26464.9375
1831.13864	26415.2375
1834.30597	26421.3375
1837.47122	26403.3375
1840.6344	26417.4375
1843.7955	26456.6375
1846.95454	26457.1375
1850.11151	26441.6375
1853.26642	26389.9375
1856.41926	26331.7375
1859.57004	26380.9375
1862.71876	26309.8375
1865.86542	26221.5375
1869.01003	26172.4375
1872.15258	26080.2375
1875.29308	26034.2375
1878.43152	25978.0375
1881.56792	25975.4375
1884.70227	25925.1375
1887.83457	25837.7375
1890.96482	25780.4375
1894.09304	25744.1375
1897.21921	25687.9375
1900.34335	25652.5375
1903.46544	25584.3375
1906.58551	25591.8375
1909.70353	25524.3375
1912.81953	25415.1375
1915.93349	25381.1375
1919.04543	25316.6375
1922.15534	25226.4375
1925.26322	25189.0375
1928.36908	25077.2375
1931.47292	25083.6375
1934.57473	24992.1375
1937.67453	24904.5375
1940.77232	24826.5375
1943.86808	24740.6375
1946.96184	24661.5375
1950.05358	24611.5375
1953.14331	24539.2375
1956.23103	24420.9375
1959.31675	24333.7375
1962.40046	24290.1375
1965.48217	24164.5375
1968.56188	24161.9375
1971.63959	24054.8375
1974.7153	23936.1375
1977.78901	23869.4375
1980.86073	23735.8375
1983.93046	23690.7375
1986.99819	23625.2375
1990.06394	23552.1375
1993.1277	23480.8375
1996.18947	23432.7375
1999.24925	23367.4375
2002.30706	23238.9375
2005.36288	23149.7375
2008.41672	23058.9375
2011.46859	23009.7375
2014.51848	22917.1375
2017.56639	22889.4375
2020.61233	22789.6375
2023.6563	22760.2375
2026.6983	22677.2375
2029.73833	22603.8375
2032.7764	22541.9375
2035.8125	22538.2375
2038.84664	22420.8375
2041.87881	22388.1375
2044.90903	22337.1375
2047.93729	22280.7375
2050.96359	22247.3375
2053.98794	22192.8375
2057.01034	22212.2375
2060.03078	22199.8375
2063.04927	22181.0375
2066.06582	22215.0375
2069.08042	22181.7375
2072.09307	22151.0375
2075.10378	22061.8375
2078.11255	22064.7375
2081.11938	22073.5375
2084.12426	22045.9375
2087.12722	22042.0375
2090.12824	21986.3375
2093.12732	21974.8375
2096.12447	22013.3375
2099.11969	21971.9375
2102.11299	22004.6375
2105.10435	21970.0375
2108.09379	21964.4375
2111.08131	21981.3375
2114.0669	22004.9375
2117.05057	21968.7375
2120.03233	21985.4375
2123.01216	22011.4375
2125.99008	22038.4375
2128.96609	22007.7375
2131.94018	22002.9375
2134.91236	22008.4375
2137.88263	22013.4375
2140.851	22073.7375
2143.81746	22045.8375
2146.78201	22006.1375
2149.74466	21997.0375
2152.7054	21988.9375
2155.66425	21959.0375
2158.6212	21950.0375
2161.57625	21904.4375
2164.52941	21923.5375
2167.48067	21873.7375
2170.43004	21878.4375
2173.37752	21875.4375
2176.32311	21830.0375
2179.26681	21834.3375
2182.20863	21840.3375
2185.14856	21813.7375
2188.08661	21836.1375
2191.02278	21839.4375
2193.95707	21844.0375
2196.88948	21762.0375
2199.82001	21706.5375
2202.74867	21634.3375
2205.67545	21630.9375
2208.60037	21598.6375
2211.52341	21579.0375
2214.44458	21530.4375
2217.36388	21485.9375
2220.28132	21455.8375
2223.1969	21359.6375
2226.11061	21359.0375
2229.02246	21303.3375
2231.93245	21270.1375
2234.84058	21294.8375
2237.74686	21215.7375
2240.65128	21155.4375
2243.55385	21120.4375
2246.45456	21099.2375
2249.35343	21049.3375
2252.25044	21000.1375
2255.14561	20951.6375
2258.03893	20895.0375
2260.93041	20852.7375
2263.82004	20769.4375
2266.70783	20754.3375
2269.59378	20621.1375
2272.4779	20583.5375
2275.36017	20535.6375
2278.24061	20500.3375
2281.11922	20417.1375
2283.996	20414.3375
2286.87094	20391.7375
2289.74405	20331.0375
2292.61534	20298.7375
2295.4848	20289.0375
2298.35243	20265.7375
2301.21824	20223.2375
2304.08223	20231.0375
2306.94439	20220.8375
2309.80474	20199.9375
2312.66327	20227.8375
2315.51999	20174.8375
2318.37489	20124.3375
2321.22797	20094.0375
2324.07925	20049.9375
2326.92871	20044.9375
2329.77637	20007.0375
2332.62222	19931.1375
2335.46626	19911.6375
2338.3085	19893.1375
2341.14893	19897.5375
2343.98756	19918.6375
2346.8244	19909.9375
2349.65943	19868.6375
2352.49267	19852.7375
2355.32411	19888.4375
2358.15376	19893.8375
2360.98161	19849.4375
2363.80768	19821.7375
2366.63195	19820.2375
2369.45444	19805.6375
2372.27514	19796.0375
2375.09405	19750.1375
2377.91118	19734.8375
2380.72652	19655.9375
2383.54009	19624.1375
2386.35187	19584.0375
2389.16188	19492.6375
2391.97011	19491.3375
2394.77657	19477.6375
2397.58125	19420.5375
2400.38416	19376.9375
2403.18529	19340.7375
2405.98466	19303.8375
2408.78226	19275.2375
2411.57809	19259.9375
2414.37216	19245.4375
2417.16446	19241.0375
2419.955	19212.9375
2422.74378	19178.7375
2425.5308	19141.9375
2428.31606	19141.8375
2431.09956	19118.5375
2433.88131	19121.4375
2436.6613	19104.1375
2439.43954	19106.7375
2442.21603	19073.4375
2444.99077	19035.5375
2447.76377	19054.0375
2450.53501	19056.2375
2453.30451	19023.5375
2456.07226	18982.0375
2458.83827	18940.9375
2461.60254	18993.1375
2464.36507	18920.1375
2467.12586	18951.9375
2469.88492	18907.9375
2472.64224	18900.3375
2475.39782	18934.6375
2478.15167	18931.8375
2480.90379	18887.8375
2483.65417	18890.1375
2486.40283	18912.0375
2489.14976	18891.8375
2491.89497	18896.0375
2494.63845	18863.3375
2497.3802	18847.5375
2500.12024	18869.8375
2502.85855	18827.5375
2505.59514	18833.5375
2508.33002	18809.4375
2511.06318	18771.0375
2513.79462	18780.8375
2516.52435	18740.0375
2519.25237	18785.2375
2521.97867	18774.9375
2524.70327	18738.7375
2527.42616	18678.9375
2530.14734	18674.5375
2532.86681	18705.4375
2535.58458	18657.1375
2538.30065	18652.5375
2541.01501	18590.2375
2543.72768	18598.7375
2546.43864	18578.5375
2549.14791	18538.4375
2551.85548	18516.0375
2554.56136	18527.7375
2557.26554	18491.6375
2559.96803	18438.3375
2562.66883	18391.4375
2565.36794	18376.5375
2568.06536	18324.7375
2570.7611	18333.4375
2573.45514	18316.2375
2576.14751	18306.4375
2578.83819	18261.9375
2581.52719	18239.4375
2584.21451	18252.2375
2586.90015	18226.9375
2589.58411	18204.8375
2592.2664	18190.0375
2594.94701	18174.1375
2597.62594	18115.1375
2600.30321	18120.8375
2602.9788	18097.1375
2605.65273	18075.2375
2608.32498	18104.2375
2610.99557	18110.5375
2613.66449	18081.2375
2616.33175	18065.2375
2618.99734	18072.4375
2621.66128	18039.3375
2624.32355	17989.5375
2626.98416	17999.9375
2629.64311	17994.7375
2632.30041	17987.9375
2634.95605	17970.3375
2637.61004	17914.2375
2640.26238	17921.0375
2642.91306	17914.6375
2645.56209	17871.4375
2648.20948	17897.4375
2650.85521	17922.1375
2653.4993	17955.1375
2656.14175	17916.3375
2658.78255	17921.9375
2661.42171	17939.1375
2664.05923	17943.2375
2666.6951	17919.8375
2669.32934	17997.6375
2671.96194	17952.6375
2674.59291	17988.6375
2677.22224	17970.9375
2679.84993	17988.4375
2682.476	17963.5375
2685.10043	17958.8375
2687.72324	17950.6375
2690.34441	17886.3375
2692.96396	17919.4375
2695.58188	17923.0375
2698.19818	17898.3375
2700.81285	17898.6375
2703.4259	17898.2375
2706.03733	17945.7375
2708.64714	17896.9375
2711.25533	17889.2375
2713.86191	17849.1375
2716.46687	17888.8375
2719.07021	17892.8375
2721.67194	17954.3375
2724.27206	17931.9375
2726.87057	18011.3375
2729.46747	17971.9375
2732.06276	17970.8375
2734.65644	17990.2375
2737.24852	17958.8375
2739.83899	17921.7375
2742.42786	17917.8375
2745.01513	17876.8375
2747.60079	17888.3375
2750.18486	17896.9375
2752.76733	17866.2375
2755.3482	17846.2375
2757.92747	17813.4375
2760.50515	17769.2375
2763.08123	17801.0375
2765.65573	17781.4375
2768.22863	17793.7375
2770.79994	17746.7375
2773.36967	17791.9375
2775.9378	17758.4375
2778.50435	17720.9375
2781.06932	17729.2375
2783.6327	17715.3375
2786.1945	17704.8375
2788.75471	17714.9375
2791.31335	17687.3375
2793.87041	17637.5375
2796.42589	17572.6375
2798.97979	17563.7375
2801.53212	17557.6375
2804.08288	17506.6375
2806.63206	17424.1375
2809.17967	17429.0375
2811.72571	17403.9375
2814.27018	17379.6375
2816.81308	17312.3375
2819.35442	17301.1375
2821.89419	17234.7375
2824.43239	17232.3375
2826.96904	17226.6375
2829.50412	17227.3375
2832.03763	17178.3375
2834.56959	17157.4375
2837.1	17128.5375
2839.62884	17113.3375
2842.15613	17095.1375
2844.68186	17140.2375
2847.20604	17134.0375
2849.72867	17139.0375
2852.24974	17159.0375
2854.76927	17110.7375
2857.28724	17088.1375
2859.80367	17066.8375
2862.31855	17047.0375
2864.83189	17018.4375
2867.34368	16960.8375
2869.85393	16960.2375
2872.36264	16897.8375
2874.8698	16911.8375
2877.37543	16887.6375
2879.87952	16882.1375
2882.38207	16853.0375
2884.88308	16855.5375
2887.38256	16873.6375
2889.88051	16867.3375
2892.37692	16872.5375
2894.8718	16812.4375
2897.36515	16852.0375
2899.85698	16859.1375
2902.34727	16908.4375
2904.83604	16922.8375
2907.32328	16941.8375
2909.809	16905.5375
2912.29319	16920.9375
2914.77587	16926.3375
2917.25702	16911.2375
2919.73665	16898.6375
2922.21476	16922.6375
2924.69136	16858.0375
2927.16644	16892.9375
2929.64	16865.8375
2932.11205	16837.1375
2934.58258	16726.0375
2937.05161	16783.3375
2939.51912	16746.1375
2941.98513	16749.3375
2944.44962	16683.0375
2946.91261	16618.8375
2949.37409	16629.2375
2951.83407	16615.4375
2954.29254	16570.4375
2956.74951	16576.4375
2959.20498	16542.5375
2961.65895	16544.8375
2964.11142	16501.4375
2966.56239	16492.2375
2969.01186	16452.8375
2971.45984	16446.8375
2973.90632	16436.5375
2976.35131	16374.8375
2978.7948	16305.7375
2981.23681	16326.5375
2983.67732	16303.3375
2986.11635	16226.2375
2988.55388	16218.2375
2990.98993	16175.7375
2993.4245	16090.3375
2995.85758	16026.7375
2998.28917	15969.3375
3000.71928	15980.4375
3003.14791	15932.4375
3005.57506	15913.0375
3008.00073	15844.9375
3010.42493	15819.0375
3012.84764	15796.3375
3015.26888	15771.7375
3017.68865	15702.0375
3020.10694	15709.0375
3022.52376	15663.7375
3024.9391	15637.0375
3027.35298	15619.9375
3029.76539	15587.7375
3032.17632	15587.3375
3034.5858	15540.9375
3036.9938	15547.2375
3039.40034	15560.1375
3041.80542	15507.8375
3044.20903	15493.3375
3046.61118	15448.3375
3049.01187	15426.9375
3051.4111	15420.7375
3053.80888	15368.9375
3056.20519	15338.0375
3058.60005	15296.3375
3060.99345	15263.0375
3063.3854	15177.4375
3065.7759	15122.9375
3068.16494	15056.7375
3070.55254	15002.6375
3072.93868	14999.0375
3075.32338	14934.8375
3077.70662	14895.1375
3080.08842	14843.0375
3082.46878	14810.7375
3084.84769	14792.6375
3087.22515	14758.9375
3089.60118	14761.1375
3091.97576	14733.8375
3094.3489	14733.6375
3096.72061	14702.2375
3099.09087	14723.6375
3101.4597	14692.3375
3103.82709	14693.0375
3106.19305	14658.1375
3108.55757	14652.6375
3110.92066	14563.4375
3113.28232	14562.1375
3115.64255	14522.0375
3118.00134	14518.8375
3120.35871	14460.8375
3122.71466	14396.0375
3125.06917	14355.1375
3127.42226	14273.3375
3129.77393	14288.6375
3132.12417	14246.6375
3134.47299	14264.3375
3136.82039	14240.1375
3139.16636	14219.6375
3141.51092	14189.9375
3143.85406	14204.4375
3146.19579	14218.9375
3148.53609	14188.6375
3150.87499	14224.3375
3153.21246	14195.3375
3155.54853	14179.4375
3157.88318	14156.6375
3160.21642	14193.1375
3162.54826	14182.5375
3164.87868	14184.2375
3167.2077	14153.0375
3169.5353	14141.8375
3171.86151	14106.3375
3174.18631	14138.4375
3176.5097	14115.3375
3178.83169	14094.6375
3181.15228	14073.2375
3183.47147	14041.7375
3185.78926	14021.9375
3188.10565	13986.7375
3190.42065	13939.1375
3192.73424	13937.7375
3195.04645	13909.5375
3197.35725	13887.2375
3199.66667	13841.2375
3201.97469	13831.2375
3204.28132	13848.6375
3206.58656	13844.5375
3208.8904	13827.3375
3211.19287	13835.4375
3213.49394	13828.9375
3215.79363	13836.9375
3218.09193	13835.5375
3220.38884	13776.2375
3222.68438	13826.5375
3224.97853	13779.8375
3227.2713	13744.7375
3229.56269	13741.2375
3231.8527	13714.8375
3234.14133	13705.3375
3236.42858	13653.4375
3238.71446	13624.3375
3240.99896	13597.0375
3243.28209	13573.2375
3245.56384	13578.9375
3247.84423	13569.9375
3250.12324	13531.4375
3252.40088	13500.4375
3254.67715	13487.6375
3256.95205	13465.2375
3259.22558	13462.0375
3261.49775	13412.9375
3263.76855	13405.0375
3266.03799	13364.7375
3268.30606	13321.8375
3270.57277	13289.8375
3272.83812	13254.2375
3275.10211	13223.6375
3277.36474	13210.9375
3279.62601	13204.8375
3281.88593	13170.1375
3284.14448	13215.7375
3286.40168	13185.2375
3288.65753	13186.8375
3290.91202	13180.4375
3293.16516	13134.1375
3295.41695	13081.6375
3297.66738	13024.5375
3299.91647	12923.1375
3302.16421	12865.6375
3304.4106	12777.7375
3306.65564	12672.6375
3308.89933	12563.7375
3311.14169	12483.9375
3313.38269	12370.9375
3315.62236	12292.4375
3317.86068	12187.5375
3320.09766	12060.6375
3322.3333	11973.5375
3324.5676	11935.6375
3326.80056	11715.3375
3329.03219	11662.0375
3331.26248	4.1375
3333.49143	-1.4625
3335.71905	-0.3625
