Data from AgNPs_FTO_APTES_UA_5uM_CRN_200uM_R6G_10uM_NaF_0.1M_Addition_RamanShift__12__16-13-51-776.txt Node

Date: Mon Feb 07 16:13:51 GMT 2022
User: TCL
Spectrometer: QEP01345
Trigger mode: 4
Integration Time (sec): 7.000000E0
Scans to average: 10
Electric dark correction enabled: true
Nonlinearity correction enabled: false
Boxcar width: 0
XAxis mode: Raman Shifts
Number of Pixels in Spectrum: 1044
>>>>>Begin Spectral Data<<<<<
46.04893	-2.0625
50.45542	0.6375
54.85868	-0.5625
59.25871	-0.9625
63.6555	68.1375
68.04907	72.0375
72.43941	74.6375
76.82654	73.9375
81.21044	79.7375
85.59113	82.5375
89.96862	82.9375
94.34289	87.9375
98.71396	88.9375
103.08183	93.8375
107.4465	95.0375
111.80798	98.8375
116.16626	100.5375
120.52136	108.3375
124.87327	111.5375
129.222	122.7375
133.56755	127.6375
137.90993	138.3375
142.24913	153.8375
146.58517	176.0375
150.91804	204.8375
155.24774	249.5375
159.57429	314.6375
163.89768	402.8375
168.21792	543.8375
172.53501	739.8375
176.84895	1036.6375
181.15975	1461.3375
185.46741	2061.8375
189.77193	2843.8375
194.07331	3815.2375
198.37157	4931.1375
202.6667	6123.2375
206.9587	7260.8375
211.24758	8404.0375
215.53334	9562.2375
219.81599	10753.8375
224.09553	12050.7375
228.37195	13482.7375
232.64527	15073.6375
236.91549	16726.1375
241.18261	18408.4375
245.44663	19987.1375
249.70755	21455.8375
253.96539	22729.3375
258.22014	23772.8375
262.4718	24616.3375
266.72039	25204.8375
270.96589	25581.8375
275.20832	25718.7375
279.44768	25728.7375
283.68397	25612.7375
287.91719	25595.3375
292.14735	25623.1375
296.37445	25726.7375
300.59849	25861.7375
304.81948	25938.1375
309.03742	25838.6375
313.25231	25550.7375
317.46415	24920.6375
321.67296	24161.2375
325.87872	23542.4375
330.08145	23217.4375
334.28114	23197.9375
338.47781	23293.8375
342.67145	23505.7375
346.86207	23743.2375
351.04966	23997.7375
355.23424	24251.9375
359.4158	24411.9375
363.59435	24597.6375
367.76989	24692.4375
371.94243	24810.4375
376.11196	24863.9375
380.27849	24902.0375
384.44203	25017.5375
388.60257	25160.8375
392.76012	25443.8375
396.91468	25779.3375
401.06626	26203.5375
405.21485	26510.9375
409.36047	26395.7375
413.50311	26126.1375
417.64277	25825.3375
421.77947	25676.4375
425.9132	25643.5375
430.04396	25785.7375
434.17176	25941.8375
438.2966	26200.3375
442.41849	26486.0375
446.53742	26939.0375
450.6534	27511.8375
454.76644	27924.1375
458.87653	28153.1375
462.98368	28259.6375
467.08789	28252.6375
471.18916	28155.7375
475.2875	28068.4375
479.38291	28047.8375
483.4754	27976.8375
487.56496	27754.0375
491.6516	27300.0375
495.73531	26902.9375
499.81612	26584.3375
503.89401	26584.2375
507.96899	26609.4375
512.04106	26653.3375
516.11023	26608.2375
520.1765	26453.4375
524.23987	26270.2375
528.30034	25975.0375
532.35792	25825.7375
536.41261	25566.6375
540.46441	25433.7375
544.51333	25482.7375
548.55936	25856.5375
552.60252	26424.8375
556.64279	27037.4375
560.6802	27479.5375
564.71473	27742.1375
568.7464	28286.5375
572.7752	29184.0375
576.80114	30155.0375
580.82422	30877.1375
584.84444	31163.6375
588.86181	31088.7375
592.87633	30938.8375
596.888	30653.5375
600.89682	30338.5375
604.9028	30518.7375
608.90594	31639.6375
612.90624	33024.4375
616.90371	31312.6375
620.89834	27624.9375
624.89015	25991.3375
628.87913	25894.8375
632.86528	26174.4375
636.84862	26316.9375
640.82913	26084.8375
644.80683	25606.7375
648.78172	25245.3375
652.75379	25089.3375
656.72306	25184.1375
660.68952	25445.4375
664.65319	25445.4375
668.61405	25254.6375
672.57211	25180.8375
676.52738	25169.4375
680.47986	25226.1375
684.42955	25201.6375
688.37646	25158.0375
692.32058	25147.3375
696.26192	25314.5375
700.20048	25479.8375
704.13626	25722.8375
708.06928	25887.9375
711.99952	25875.1375
715.927	25781.7375
719.85171	25624.0375
723.77365	25492.6375
727.69284	25218.4375
731.60928	24979.8375
735.52295	24808.1375
739.43388	24756.0375
743.34206	24748.5375
747.24749	24883.7375
751.15017	25065.0375
755.05012	25459.5375
758.94733	26117.8375
762.8418	27269.0375
766.73354	28985.3375
770.62254	30562.4375
774.50882	30745.8375
778.39237	29495.7375
782.27321	27736.3375
786.15132	26283.8375
790.02671	25389.1375
793.89938	24845.1375
797.76935	24610.0375
801.6366	24458.2375
805.50115	24335.4375
809.36299	24247.3375
813.22213	24202.9375
817.07857	24230.6375
820.93231	24284.7375
824.78336	24233.4375
828.63172	24160.8375
832.47738	24112.9375
836.32036	24033.2375
840.16066	23980.0375
843.99827	23936.1375
847.8332	23939.3375
851.66546	23973.0375
855.49504	23964.7375
859.32195	23984.0375
863.1462	23931.8375
866.96777	23907.8375
870.78668	23844.3375
874.60293	23842.2375
878.41652	23835.5375
882.22745	23863.0375
886.03573	23890.7375
889.84136	23909.5375
893.64433	23913.6375
897.44466	23879.6375
901.24235	23830.0375
905.0374	23814.2375
908.8298	23826.5375
912.61957	23928.4375
916.40671	24202.2375
920.19121	24556.8375
923.97308	24652.8375
927.75233	24505.9375
931.52895	24255.2375
935.30295	23904.1375
939.07433	23561.9375
942.84309	23256.4375
946.60924	23010.8375
950.37278	22881.7375
954.13371	22843.8375
957.89203	22800.7375
961.64774	22814.7375
965.40086	22782.8375
969.15137	22732.8375
972.89929	22586.4375
976.64461	22471.2375
980.38733	22407.7375
984.12747	22404.0375
987.86502	22478.8375
991.59999	22531.1375
995.33237	22594.3375
999.06217	22721.1375
1002.78939	22915.0375
1006.51404	23074.2375
1010.23611	23344.2375
1013.95561	23501.1375
1017.67255	23583.9375
1021.38692	23541.2375
1025.09872	23357.1375
1028.80796	23175.8375
1032.51465	23173.1375
1036.21877	23160.9375
1039.92035	23246.4375
1043.61937	23405.6375
1047.31584	23534.2375
1051.00976	23654.6375
1054.70114	23818.6375
1058.38998	24017.0375
1062.07627	24366.4375
1065.76003	24743.9375
1069.44126	24956.7375
1073.11995	25283.4375
1076.79611	25452.9375
1080.46974	25536.8375
1084.14085	25565.1375
1087.80943	25625.2375
1091.47549	25812.5375
1095.13903	25962.7375
1098.80005	25791.4375
1102.45857	25363.4375
1106.11456	24812.2375
1109.76805	24435.5375
1113.41903	24340.5375
1117.06751	24477.1375
1120.71348	24667.2375
1124.35696	24927.0375
1127.99793	25319.0375
1131.63641	25504.8375
1135.2724	25346.0375
1138.90589	25166.2375
1142.5369	25172.8375
1146.16542	25295.8375
1149.79145	25510.1375
1153.415	25823.6375
1157.03607	26191.8375
1160.65467	26742.4375
1164.27079	27488.2375
1167.88443	28463.9375
1171.49561	29635.3375
1175.10432	31065.6375
1178.71056	32883.5375
1182.31434	34606.7375
1185.91565	35772.8375
1189.51451	36323.8375
1193.11091	36165.5375
1196.70485	35411.3375
1200.29634	34276.2375
1203.88538	33299.7375
1207.47197	32534.8375
1211.05612	32021.1375
1214.63782	31537.6375
1218.21708	30804.4375
1221.79391	29844.1375
1225.36829	29020.3375
1228.94024	28536.5375
1232.50976	28221.1375
1236.07685	28041.2375
1239.6415	28011.1375
1243.20374	28147.4375
1246.76355	28300.4375
1250.32093	28539.1375
1253.8759	28974.4375
1257.42845	29510.8375
1260.97859	30245.9375
1264.52631	30942.4375
1268.07163	31555.6375
1271.61453	32131.7375
1275.15503	32793.6375
1278.69312	33491.4375
1282.22882	34165.5375
1285.76211	35075.0375
1289.29301	36198.2375
1292.82151	37511.3375
1296.34761	39053.5375
1299.87133	40703.8375
1303.39266	42368.2375
1306.9116	43792.0375
1310.42815	44843.0375
1313.94233	45359.0375
1317.45412	45316.2375
1320.96354	45221.3375
1324.47058	45254.1375
1327.97525	45200.3375
1331.47754	45259.4375
1334.97747	45507.0375
1338.47502	45825.5375
1341.97022	46289.9375
1345.46305	46781.8375
1348.95352	46852.2375
1352.44163	46495.8375
1355.92738	45967.3375
1359.41078	45925.8375
1362.89183	45992.4375
1366.37053	44875.1375
1369.84688	42084.8375
1373.32088	38968.3375
1376.79254	36697.9375
1380.26186	35748.6375
1383.72883	35611.5375
1387.19347	35672.7375
1390.65578	35656.5375
1394.11575	35471.1375
1397.57339	35332.5375
1401.0287	35237.2375
1404.48168	34995.4375
1407.93234	34589.6375
1411.38068	33806.7375
1414.82669	32696.1375
1418.27039	31395.2375
1421.71177	30228.7375
1425.15083	29294.5375
1428.58758	28752.4375
1432.02203	28715.4375
1435.45416	29036.5375
1438.88399	29613.9375
1442.31151	30058.1375
1445.73673	30504.7375
1449.15965	31046.5375
1452.58027	31613.3375
1455.9986	32073.4375
1459.41463	32524.4375
1462.82837	32943.7375
1466.23982	33326.2375
1469.64898	33716.1375
1473.05586	33968.8375
1476.46045	33991.9375
1479.86276	33965.3375
1483.26279	33828.2375
1486.66054	33812.2375
1490.05602	34051.2375
1493.44922	34608.1375
1496.84016	35517.0375
1500.22882	36789.6375
1503.61521	38421.5375
1506.99934	40158.9375
1510.38121	41381.5375
1513.76081	41683.5375
1517.13816	41063.3375
1520.51324	40044.9375
1523.88607	39245.2375
1527.25665	38745.0375
1530.62498	38410.9375
1533.99105	37981.5375
1537.35488	37324.2375
1540.71647	36436.4375
1544.07581	35314.4375
1547.4329	34309.7375
1550.78776	33461.6375
1554.14038	32887.6375
1557.49077	32659.2375
1560.83892	32562.3375
1564.18484	32688.7375
1567.52853	32933.6375
1570.86999	33177.0375
1574.20922	33707.2375
1577.54624	34146.6375
1580.88103	34133.7375
1584.2136	33893.4375
1587.54395	33922.4375
1590.87208	34378.8375
1594.19801	35261.3375
1597.52172	36232.7375
1600.84321	36340.9375
1604.16251	35242.8375
1607.47959	33598.1375
1610.79447	31854.5375
1614.10715	30036.3375
1617.41763	28303.5375
1620.7259	26947.4375
1624.03199	26134.4375
1627.33587	25844.5375
1630.63757	26098.3375
1633.93707	27000.1375
1637.23439	28648.5375
1640.52951	31265.8375
1643.82246	34580.0375
1647.11321	37810.0375
1650.40179	39573.1375
1653.68819	38861.6375
1656.97241	35804.0375
1660.25446	31935.3375
1663.53433	28306.6375
1666.81203	25553.9375
1670.08756	23718.4375
1673.36092	22487.6375
1676.63211	21761.9375
1679.90115	21165.7375
1683.16801	20743.9375
1686.43272	20461.6375
1689.69527	20238.3375
1692.95567	20069.6375
1696.2139	19988.6375
1699.46999	19846.4375
1702.72392	19759.4375
1705.97571	19693.5375
1709.22535	19631.6375
1712.47284	19556.0375
1715.71819	19514.3375
1718.96139	19439.7375
1722.20246	19382.9375
1725.44139	19298.8375
1728.67818	19200.3375
1731.91284	19116.3375
1735.14537	18977.1375
1738.37576	18903.4375
1741.60403	18829.7375
1744.83017	18763.0375
1748.05418	18705.9375
1751.27607	18692.5375
1754.49584	18644.4375
1757.71349	18642.8375
1760.92903	18605.6375
1764.14244	18601.4375
1767.35375	18597.2375
1770.56294	18556.3375
1773.77002	18473.4375
1776.97499	18389.2375
1780.17785	18343.0375
1783.37861	18288.0375
1786.57727	18277.1375
1789.77382	18216.6375
1792.96828	18205.4375
1796.16064	18138.5375
1799.3509	18082.3375
1802.53907	18018.6375
1805.72514	17976.8375
1808.90913	17976.0375
1812.09102	17903.4375
1815.27083	17832.3375
1818.44856	17762.1375
1821.6242	17732.5375
1824.79776	17692.4375
1827.96924	17683.9375
1831.13864	17644.6375
1834.30597	17624.4375
1837.47122	17599.9375
1840.6344	17555.9375
1843.7955	17565.7375
1846.95454	17551.1375
1850.11151	17490.4375
1853.26642	17469.3375
1856.41926	17487.5375
1859.57004	17447.5375
1862.71876	17404.9375
1865.86542	17361.9375
1869.01003	17356.8375
1872.15258	17343.0375
1875.29308	17337.2375
1878.43152	17277.9375
1881.56792	17234.7375
1884.70227	17207.5375
1887.83457	17184.5375
1890.96482	17133.8375
1894.09304	17079.9375
1897.21921	17068.0375
1900.34335	17037.6375
1903.46544	16984.9375
1906.58551	16972.4375
1909.70353	16959.7375
1912.81953	16904.8375
1915.93349	16890.7375
1919.04543	16841.7375
1922.15534	16817.6375
1925.26322	16735.1375
1928.36908	16719.9375
1931.47292	16722.8375
1934.57473	16697.2375
1937.67453	16666.7375
1940.77232	16574.9375
1943.86808	16503.3375
1946.96184	16448.4375
1950.05358	16394.6375
1953.14331	16310.1375
1956.23103	16244.4375
1959.31675	16225.8375
1962.40046	16154.1375
1965.48217	16126.9375
1968.56188	16053.9375
1971.63959	16010.4375
1974.7153	15953.1375
1977.78901	15924.7375
1980.86073	15839.1375
1983.93046	15794.9375
1986.99819	15736.2375
1990.06394	15706.8375
1993.1277	15644.1375
1996.18947	15552.8375
1999.24925	15516.9375
2002.30706	15496.0375
2005.36288	15409.6375
2008.41672	15392.2375
2011.46859	15343.1375
2014.51848	15245.9375
2017.56639	15205.1375
2020.61233	15137.0375
2023.6563	15118.0375
2026.6983	15060.9375
2029.73833	14998.2375
2032.7764	14972.0375
2035.8125	14932.5375
2038.84664	14880.8375
2041.87881	14851.4375
2044.90903	14790.3375
2047.93729	14778.4375
2050.96359	14727.6375
2053.98794	14741.7375
2057.01034	14709.0375
2060.03078	14737.2375
2063.04927	14707.0375
2066.06582	14692.3375
2069.08042	14696.9375
2072.09307	14649.1375
2075.10378	14631.7375
2078.11255	14609.7375
2081.11938	14648.7375
2084.12426	14600.4375
2087.12722	14610.0375
2090.12824	14576.2375
2093.12732	14577.0375
2096.12447	14542.8375
2099.11969	14536.4375
2102.11299	14524.1375
2105.10435	14520.2375
2108.09379	14542.7375
2111.08131	14533.8375
2114.0669	14539.2375
2117.05057	14530.1375
2120.03233	14580.8375
2123.01216	14551.2375
2125.99008	14542.2375
2128.96609	14556.1375
2131.94018	14552.8375
2134.91236	14567.6375
2137.88263	14566.5375
2140.851	14580.6375
2143.81746	14592.9375
2146.78201	14560.3375
2149.74466	14564.5375
2152.7054	14559.5375
2155.66425	14506.8375
2158.6212	14502.2375
2161.57625	14463.5375
2164.52941	14495.5375
2167.48067	14471.9375
2170.43004	14460.5375
2173.37752	14419.3375
2176.32311	14453.7375
2179.26681	14430.6375
2182.20863	14412.2375
2185.14856	14419.0375
2188.08661	14399.6375
2191.02278	14425.0375
2193.95707	14391.6375
2196.88948	14319.1375
2199.82001	14286.0375
2202.74867	14281.8375
2205.67545	14263.3375
2208.60037	14235.2375
2211.52341	14189.8375
2214.44458	14178.2375
2217.36388	14118.5375
2220.28132	14095.5375
2223.1969	14058.4375
2226.11061	14054.7375
2229.02246	14063.1375
2231.93245	13991.7375
2234.84058	13933.9375
2237.74686	13953.2375
2240.65128	13932.0375
2243.55385	13899.9375
2246.45456	13917.6375
2249.35343	13864.8375
2252.25044	13830.8375
2255.14561	13794.5375
2258.03893	13735.2375
2260.93041	13696.4375
2263.82004	13684.6375
2266.70783	13623.5375
2269.59378	13587.9375
2272.4779	13521.4375
2275.36017	13493.4375
2278.24061	13473.8375
2281.11922	13437.9375
2283.996	13427.1375
2286.87094	13400.7375
2289.74405	13340.8375
2292.61534	13343.3375
2295.4848	13318.4375
2298.35243	13316.8375
2301.21824	13312.6375
2304.08223	13319.1375
2306.94439	13271.2375
2309.80474	13280.2375
2312.66327	13243.5375
2315.51999	13222.8375
2318.37489	13226.0375
2321.22797	13151.5375
2324.07925	13151.0375
2326.92871	13132.3375
2329.77637	13116.4375
2332.62222	13079.6375
2335.46626	13066.8375
2338.3085	13032.1375
2341.14893	13048.5375
2343.98756	12999.0375
2346.8244	12982.3375
2349.65943	12978.5375
2352.49267	12967.8375
2355.32411	12967.3375
2358.15376	12949.6375
2360.98161	12922.6375
2363.80768	12950.3375
2366.63195	12948.3375
2369.45444	12928.1375
2372.27514	12914.5375
2375.09405	12864.8375
2377.91118	12819.9375
2380.72652	12816.9375
2383.54009	12776.7375
2386.35187	12783.2375
2389.16188	12723.7375
2391.97011	12685.4375
2394.77657	12614.9375
2397.58125	12573.6375
2400.38416	12572.8375
2403.18529	12547.0375
2405.98466	12534.0375
2408.78226	12502.9375
2411.57809	12507.7375
2414.37216	12488.9375
2417.16446	12477.8375
2419.955	12464.8375
2422.74378	12463.7375
2425.5308	12448.3375
2428.31606	12436.1375
2431.09956	12386.9375
2433.88131	12386.5375
2436.6613	12383.6375
2439.43954	12388.7375
2442.21603	12354.3375
2444.99077	12347.8375
2447.76377	12337.5375
2450.53501	12306.0375
2453.30451	12267.7375
2456.07226	12273.1375
2458.83827	12238.0375
2461.60254	12217.4375
2464.36507	12218.9375
2467.12586	12214.0375
2469.88492	12205.6375
2472.64224	12198.1375
2475.39782	12184.7375
2478.15167	12177.5375
2480.90379	12139.2375
2483.65417	12146.9375
2486.40283	12153.0375
2489.14976	12125.2375
2491.89497	12124.4375
2494.63845	12166.3375
2497.3802	12135.0375
2500.12024	12125.0375
2502.85855	12071.2375
2505.59514	12059.4375
2508.33002	12046.6375
2511.06318	12056.0375
2513.79462	12017.3375
2516.52435	11998.8375
2519.25237	12002.9375
2521.97867	11955.1375
2524.70327	11937.6375
2527.42616	11924.4375
2530.14734	11908.6375
2532.86681	11927.0375
2535.58458	11914.1375
2538.30065	11888.4375
2541.01501	11845.0375
2543.72768	11824.2375
2546.43864	11811.8375
2549.14791	11795.7375
2551.85548	11771.9375
2554.56136	11733.3375
2557.26554	11701.8375
2559.96803	11718.3375
2562.66883	11662.5375
2565.36794	11635.4375
2568.06536	11654.8375
2570.7611	11634.9375
2573.45514	11610.7375
2576.14751	11567.9375
2578.83819	11526.4375
2581.52719	11528.7375
2584.21451	11515.6375
2586.90015	11498.7375
2589.58411	11469.3375
2592.2664	11459.5375
2594.94701	11447.6375
2597.62594	11423.3375
2600.30321	11395.0375
2602.9788	11374.1375
2605.65273	11350.4375
2608.32498	11382.8375
2610.99557	11373.6375
2613.66449	11358.3375
2616.33175	11309.3375
2618.99734	11320.0375
2621.66128	11287.4375
2624.32355	11277.6375
2626.98416	11265.0375
2629.64311	11243.9375
2632.30041	11219.4375
2634.95605	11198.4375
2637.61004	11190.1375
2640.26238	11180.4375
2642.91306	11137.4375
2645.56209	11133.6375
2648.20948	11161.1375
2650.85521	11151.2375
2653.4993	11128.6375
2656.14175	11149.5375
2658.78255	11170.5375
2661.42171	11121.1375
2664.05923	11128.2375
2666.6951	11096.4375
2669.32934	11112.0375
2671.96194	11119.8375
2674.59291	11118.9375
2677.22224	11106.1375
2679.84993	11101.7375
2682.476	11088.8375
2685.10043	11078.6375
2687.72324	11089.0375
2690.34441	11074.4375
2692.96396	11067.5375
2695.58188	11071.2375
2698.19818	11052.0375
2700.81285	11088.8375
2703.4259	11067.5375
2706.03733	11068.0375
2708.64714	11078.4375
2711.25533	11047.5375
2713.86191	11072.2375
2716.46687	11075.7375
2719.07021	11051.2375
2721.67194	11057.9375
2724.27206	11044.0375
2726.87057	11070.1375
2729.46747	11089.6375
2732.06276	11062.5375
2734.65644	11027.0375
2737.24852	11032.5375
2739.83899	11018.8375
2742.42786	11026.9375
2745.01513	10979.6375
2747.60079	10963.8375
2750.18486	10933.9375
2752.76733	10941.2375
2755.3482	10899.5375
2757.92747	10897.6375
2760.50515	10883.5375
2763.08123	10902.1375
2765.65573	10853.6375
2768.22863	10862.2375
2770.79994	10828.6375
2773.36967	10847.5375
2775.9378	10831.8375
2778.50435	10838.2375
2781.06932	10803.7375
2783.6327	10786.2375
2786.1945	10794.7375
2788.75471	10769.3375
2791.31335	10762.3375
2793.87041	10737.9375
2796.42589	10732.9375
2798.97979	10718.1375
2801.53212	10673.5375
2804.08288	10665.9375
2806.63206	10632.2375
2809.17967	10620.2375
2811.72571	10610.5375
2814.27018	10571.8375
2816.81308	10538.3375
2819.35442	10524.4375
2821.89419	10488.2375
2824.43239	10507.4375
2826.96904	10470.0375
2829.50412	10490.9375
2832.03763	10418.1375
2834.56959	10410.8375
2837.1	10424.1375
2839.62884	10447.4375
2842.15613	10447.5375
2844.68186	10494.5375
2847.20604	10512.9375
2849.72867	10566.7375
2852.24974	10538.0375
2854.76927	10490.7375
2857.28724	10510.1375
2859.80367	10473.3375
2862.31855	10426.1375
2864.83189	10421.2375
2867.34368	10384.1375
2869.85393	10388.8375
2872.36264	10357.3375
2874.8698	10385.9375
2877.37543	10367.2375
2879.87952	10352.0375
2882.38207	10350.6375
2884.88308	10326.7375
2887.38256	10334.9375
2889.88051	10318.5375
2892.37692	10312.8375
2894.8718	10305.3375
2897.36515	10314.1375
2899.85698	10318.0375
2902.34727	10356.4375
2904.83604	10351.3375
2907.32328	10338.9375
2909.809	10343.9375
2912.29319	10335.3375
2914.77587	10320.7375
2917.25702	10303.4375
2919.73665	10326.0375
2922.21476	10311.6375
2924.69136	10321.8375
2927.16644	10311.0375
2929.64	10287.3375
2932.11205	10293.3375
2934.58258	10241.7375
2937.05161	10263.9375
2939.51912	10201.2375
2941.98513	10201.6375
2944.44962	10178.7375
2946.91261	10142.0375
2949.37409	10146.1375
2951.83407	10106.0375
2954.29254	10076.8375
2956.74951	10086.7375
2959.20498	10058.0375
2961.65895	10035.6375
2964.11142	10016.6375
2966.56239	10031.8375
2969.01186	10042.1375
2971.45984	10015.7375
2973.90632	10014.9375
2976.35131	9978.4375
2978.7948	9938.3375
2981.23681	9916.7375
2983.67732	9913.7375
2986.11635	9892.1375
2988.55388	9846.5375
2990.98993	9814.4375
2993.4245	9784.4375
2995.85758	9768.6375
2998.28917	9730.2375
3000.71928	9701.9375
3003.14791	9682.8375
3005.57506	9678.3375
3008.00073	9644.4375
3010.42493	9619.5375
3012.84764	9628.3375
3015.26888	9612.0375
3017.68865	9575.8375
3020.10694	9548.8375
3022.52376	9531.7375
3024.9391	9499.1375
3027.35298	9491.0375
3029.76539	9481.8375
3032.17632	9483.0375
3034.5858	9461.0375
3036.9938	9443.1375
3039.40034	9456.6375
3041.80542	9425.4375
3044.20903	9402.1375
3046.61118	9398.6375
3049.01187	9384.8375
3051.4111	9379.4375
3053.80888	9359.6375
3056.20519	9327.4375
3058.60005	9296.3375
3060.99345	9280.9375
3063.3854	9264.9375
3065.7759	9231.9375
3068.16494	9163.9375
3070.55254	9152.8375
3072.93868	9128.3375
3075.32338	9111.6375
3077.70662	9087.3375
3080.08842	9079.0375
3082.46878	9034.2375
3084.84769	9027.0375
3087.22515	9029.0375
3089.60118	9041.6375
3091.97576	9008.7375
3094.3489	9021.8375
3096.72061	9032.2375
3099.09087	9004.0375
3101.4597	9003.8375
3103.82709	9001.9375
3106.19305	8971.1375
3108.55757	8987.3375
3110.92066	8961.5375
3113.28232	8930.2375
3115.64255	8905.2375
3118.00134	8868.3375
3120.35871	8870.4375
3122.71466	8854.9375
3125.06917	8845.1375
3127.42226	8810.7375
3129.77393	8810.3375
3132.12417	8776.8375
3134.47299	8798.0375
3136.82039	8796.7375
3139.16636	8806.1375
3141.51092	8779.8375
3143.85406	8790.2375
3146.19579	8783.1375
3148.53609	8782.0375
3150.87499	8766.8375
3153.21246	8787.0375
3155.54853	8782.0375
3157.88318	8791.4375
3160.21642	8814.5375
3162.54826	8791.4375
3164.87868	8787.4375
3167.2077	8782.4375
3169.5353	8804.5375
3171.86151	8817.1375
3174.18631	8829.9375
3176.5097	8791.8375
3178.83169	8749.2375
3181.15228	8744.8375
3183.47147	8748.2375
3185.78926	8706.1375
3188.10565	8696.8375
3190.42065	8701.6375
3192.73424	8684.6375
3195.04645	8646.2375
3197.35725	8662.2375
3199.66667	8644.2375
3201.97469	8647.2375
3204.28132	8638.6375
3206.58656	8636.9375
3208.8904	8655.3375
3211.19287	8671.8375
3213.49394	8666.8375
3215.79363	8668.7375
3218.09193	8657.2375
3220.38884	8648.3375
3222.68438	8629.7375
3224.97853	8632.7375
3227.2713	8616.2375
3229.56269	8598.3375
3231.8527	8582.8375
3234.14133	8571.1375
3236.42858	8563.1375
3238.71446	8523.5375
3240.99896	8531.6375
3243.28209	8493.4375
3245.56384	8497.0375
3247.84423	8497.4375
3250.12324	8491.0375
3252.40088	8472.3375
3254.67715	8457.9375
3256.95205	8438.0375
3259.22558	8401.2375
3261.49775	8426.8375
3263.76855	8395.2375
3266.03799	8383.8375
3268.30606	8365.3375
3270.57277	8356.8375
3272.83812	8318.0375
3275.10211	8308.6375
3277.36474	8302.8375
3279.62601	8294.5375
3281.88593	8291.0375
3284.14448	8276.6375
3286.40168	8284.7375
3288.65753	8260.7375
3290.91202	8259.4375
3293.16516	8248.0375
3295.41695	8228.7375
3297.66738	8169.0375
3299.91647	8113.6375
3302.16421	8052.9375
3304.4106	8004.7375
3306.65564	7963.7375
3308.89933	7909.1375
3311.14169	7865.8375
3313.38269	7784.0375
3315.62236	7746.8375
3317.86068	7679.4375
3320.09766	7615.0375
3322.3333	7541.3375
3324.5676	7531.2375
3326.80056	7425.0375
3329.03219	7339.3375
3331.26248	3.7375
3333.49143	0.0375
3335.71905	-1.5625
