Data from AgNPs_FTO_APTES_UA_5uM_CRN_5uM_R6G_10uM_NaF_0.1M_Addition_RamanShift__17__12-04-36-689.txt Node

Date: Mon Feb 07 12:04:36 GMT 2022
User: TCL
Spectrometer: QEP01345
Trigger mode: 4
Integration Time (sec): 7.000000E0
Scans to average: 10
Electric dark correction enabled: true
Nonlinearity correction enabled: false
Boxcar width: 0
XAxis mode: Raman Shifts
Number of Pixels in Spectrum: 1044
>>>>>Begin Spectral Data<<<<<
46.04893	-1.5625
50.45542	-1.5625
54.85868	-1.3625
59.25871	-0.2625
63.6555	93.0375
68.04907	96.6375
72.43941	98.8375
76.82654	108.4375
81.21044	110.1375
85.59113	114.4375
89.96862	120.1375
94.34289	120.0375
98.71396	128.0375
103.08183	130.7375
107.4465	133.0375
111.80798	136.0375
116.16626	141.3375
120.52136	150.7375
124.87327	152.7375
129.222	167.3375
133.56755	174.9375
137.90993	190.7375
142.24913	208.2375
146.58517	241.1375
150.91804	283.9375
155.24774	345.3375
159.57429	429.2375
163.89768	550.9375
168.21792	748.9375
172.53501	1024.1375
176.84895	1422.9375
181.15975	2005.0375
185.46741	2798.8375
189.77193	3864.1375
194.07331	5158.1375
198.37157	6658.7375
202.6667	8181.1375
206.9587	9677.1375
211.24758	11176.0375
215.53334	12717.7375
219.81599	14349.2375
224.09553	16103.7375
228.37195	18148.6375
232.64527	20359.3375
236.91549	22620.4375
241.18261	24885.4375
245.44663	26935.0375
249.70755	28794.7375
253.96539	30407.1375
258.22014	31803.9375
262.4718	32985.2375
266.72039	33853.2375
270.96589	34448.9375
275.20832	34629.8375
279.44768	34611.4375
283.68397	34541.8375
287.91719	34447.3375
292.14735	34531.5375
296.37445	34656.9375
300.59849	34810.0375
304.81948	34866.3375
309.03742	34705.4375
313.25231	34122.3375
317.46415	33119.2375
321.67296	31829.4375
325.87872	30713.2375
330.08145	30123.2375
334.28114	29960.8375
338.47781	30150.9375
342.67145	30456.1375
346.86207	30925.5375
351.04966	31537.3375
355.23424	32234.6375
359.4158	32750.8375
363.59435	33076.6375
367.76989	33200.5375
371.94243	33360.2375
376.11196	33479.2375
380.27849	33521.6375
384.44203	33745.5375
388.60257	33987.9375
392.76012	34353.1375
396.91468	34903.8375
401.06626	35475.0375
405.21485	35835.9375
409.36047	35632.1375
413.50311	34975.9375
417.64277	34551.0375
421.77947	34595.4375
425.9132	34769.6375
430.04396	34946.5375
434.17176	35063.6375
438.2966	35381.0375
442.41849	35832.9375
446.53742	36787.8375
450.6534	37888.6375
454.76644	38822.7375
458.87653	39259.5375
462.98368	39256.4375
467.08789	38886.3375
471.18916	38408.5375
475.2875	38081.7375
479.38291	38022.9375
483.4754	37979.3375
487.56496	37512.9375
491.6516	36654.9375
495.73531	35880.7375
499.81612	35442.7375
503.89401	35527.1375
507.96899	35591.1375
512.04106	35444.8375
516.11023	35002.4375
520.1765	34461.9375
524.23987	33797.7375
528.30034	33276.1375
532.35792	32826.3375
536.41261	32387.3375
540.46441	32071.2375
544.51333	32170.9375
548.55936	32810.6375
552.60252	33883.6375
556.64279	34986.3375
560.6802	35711.1375
564.71473	36282.7375
568.7464	37088.7375
572.7752	38411.6375
576.80114	39591.8375
580.82422	40462.7375
584.84444	41141.7375
588.86181	41586.8375
592.87633	41821.5375
596.888	41739.3375
600.89682	41447.1375
604.9028	42432.9375
608.90594	45758.4375
612.90624	48943.9375
616.90371	45188.8375
620.89834	37251.9375
624.89015	33833.2375
628.87913	33628.0375
632.86528	33825.2375
636.84862	33650.9375
640.82913	32920.9375
644.80683	31771.2375
648.78172	30927.9375
652.75379	30687.8375
656.72306	30973.5375
660.68952	31537.4375
664.65319	31376.8375
668.61405	30792.8375
672.57211	30583.3375
676.52738	30587.6375
680.47986	30576.7375
684.42955	30342.8375
688.37646	30229.9375
692.32058	30428.6375
696.26192	30815.1375
700.20048	31222.3375
704.13626	31543.5375
708.06928	31555.8375
711.99952	31330.9375
715.927	31266.0375
719.85171	31335.0375
723.77365	31185.5375
727.69284	30739.1375
731.60928	30280.8375
735.52295	30073.3375
739.43388	30054.0375
743.34206	30207.4375
747.24749	30455.5375
751.15017	30828.3375
755.05012	31619.6375
758.94733	32840.2375
762.8418	35031.8375
766.73354	38247.6375
770.62254	41177.8375
774.50882	41364.3375
778.39237	38807.5375
782.27321	35378.1375
786.15132	32758.3375
790.02671	31128.8375
793.89938	30365.1375
797.76935	30064.7375
801.6366	30025.3375
805.50115	29927.8375
809.36299	29728.9375
813.22213	29391.2375
817.07857	29282.3375
820.93231	29200.7375
824.78336	28974.5375
828.63172	28721.1375
832.47738	28626.6375
836.32036	28617.2375
840.16066	28744.2375
843.99827	28889.9375
847.8332	28778.4375
851.66546	28559.6375
855.49504	28534.6375
859.32195	28516.4375
863.1462	28363.2375
866.96777	28246.3375
870.78668	28201.9375
874.60293	28105.9375
878.41652	28089.7375
882.22745	28230.6375
886.03573	28298.4375
889.84136	28288.1375
893.64433	28179.9375
897.44466	28074.4375
901.24235	27937.2375
905.0374	27813.7375
908.8298	27745.9375
912.61957	27824.3375
916.40671	28176.6375
920.19121	28810.0375
923.97308	29323.4375
927.75233	29285.5375
931.52895	28965.3375
935.30295	28427.2375
939.07433	27657.2375
942.84309	27117.6375
946.60924	26873.2375
950.37278	26789.4375
954.13371	26709.3375
957.89203	26642.9375
961.64774	26633.8375
965.40086	26598.8375
969.15137	26504.8375
972.89929	26331.9375
976.64461	26206.4375
980.38733	26223.1375
984.12747	26271.7375
987.86502	26515.7375
991.59999	26906.9375
995.33237	27540.1375
999.06217	28481.7375
1002.78939	29643.0375
1006.51404	30349.2375
1010.23611	30779.2375
1013.95561	31059.4375
1017.67255	31087.3375
1021.38692	30691.4375
1025.09872	30159.3375
1028.80796	30301.4375
1032.51465	31163.2375
1036.21877	32037.2375
1039.92035	32229.0375
1043.61937	31732.9375
1047.31584	30967.3375
1051.00976	30181.1375
1054.70114	29822.9375
1058.38998	29936.9375
1062.07627	30296.9375
1065.76003	30649.6375
1069.44126	31050.8375
1073.11995	31494.9375
1076.79611	31908.7375
1080.46974	32206.6375
1084.14085	32543.4375
1087.80943	32963.6375
1091.47549	33415.3375
1095.13903	33581.1375
1098.80005	33177.8375
1102.45857	32242.0375
1106.11456	31330.4375
1109.76805	30837.5375
1113.41903	30844.5375
1117.06751	31098.1375
1120.71348	31374.4375
1124.35696	31808.9375
1127.99793	32252.1375
1131.63641	32549.2375
1135.2724	32571.0375
1138.90589	32453.0375
1142.5369	32437.7375
1146.16542	32601.0375
1149.79145	33020.9375
1153.415	33587.8375
1157.03607	34420.2375
1160.65467	35763.1375
1164.27079	37771.5375
1167.88443	40503.6375
1171.49561	43668.4375
1175.10432	47553.6375
1178.71056	52437.5375
1182.31434	56945.6375
1185.91565	59577.3375
1189.51451	59952.9375
1193.11091	58351.0375
1196.70485	55704.1375
1200.29634	52753.8375
1203.88538	50557.6375
1207.47197	49074.6375
1211.05612	48107.4375
1214.63782	46967.4375
1218.21708	45776.0375
1221.79391	44751.0375
1225.36829	44026.0375
1228.94024	43192.7375
1232.50976	42177.1375
1236.07685	41443.0375
1239.6415	40955.1375
1243.20374	40734.7375
1246.76355	40994.2375
1250.32093	41733.9375
1253.8759	42950.4375
1257.42845	44509.0375
1260.97859	46195.6375
1264.52631	47857.0375
1268.07163	49513.2375
1271.61453	51339.7375
1275.15503	53364.4375
1278.69312	55503.3375
1282.22882	57560.8375
1285.76211	59403.1375
1289.29301	61638.5375
1292.82151	64567.4375
1296.34761	68366.1375
1299.87133	73056.6375
1303.39266	78084.0375
1306.9116	83165.0375
1310.42815	87590.3375
1313.94233	90130.4375
1317.45412	90478.4375
1320.96354	89343.8375
1324.47058	88411.4375
1327.97525	87627.4375
1331.47754	87059.3375
1334.97747	86667.0375
1338.47502	86309.2375
1341.97022	85540.9375
1345.46305	83993.1375
1348.95352	81584.0375
1352.44163	79127.2375
1355.92738	78188.9375
1359.41078	79567.4375
1362.89183	81302.1375
1366.37053	79696.2375
1369.84688	73656.6375
1373.32088	66412.2375
1376.79254	61394.9375
1380.26186	59478.7375
1383.72883	59672.6375
1387.19347	60203.7375
1390.65578	60189.8375
1394.11575	60446.1375
1397.57339	61404.3375
1401.0287	62970.9375
1404.48168	64021.9375
1407.93234	64093.3375
1411.38068	62617.0375
1414.82669	59811.7375
1418.27039	56258.9375
1421.71177	52897.0375
1425.15083	50294.2375
1428.58758	48946.0375
1432.02203	49206.6375
1435.45416	50676.1375
1438.88399	52628.2375
1442.31151	54436.8375
1445.73673	55829.6375
1449.15965	57043.0375
1452.58027	58002.3375
1455.9986	58540.6375
1459.41463	59208.1375
1462.82837	60239.0375
1466.23982	61323.3375
1469.64898	62136.6375
1473.05586	62357.7375
1476.46045	61914.2375
1479.86276	60905.5375
1483.26279	59792.3375
1486.66054	59010.6375
1490.05602	58788.7375
1493.44922	58880.7375
1496.84016	59238.9375
1500.22882	60143.5375
1503.61521	61860.6375
1506.99934	64017.2375
1510.38121	65930.7375
1513.76081	66706.6375
1517.13816	65756.6375
1520.51324	63910.6375
1523.88607	62267.6375
1527.25665	61435.1375
1530.62498	61223.3375
1533.99105	61078.9375
1537.35488	60824.4375
1540.71647	59858.3375
1544.07581	58313.1375
1547.4329	56507.8375
1550.78776	54967.7375
1554.14038	53892.1375
1557.49077	53347.3375
1560.83892	52981.6375
1564.18484	52782.4375
1567.52853	52815.7375
1570.86999	53136.1375
1574.20922	54077.8375
1577.54624	55203.5375
1580.88103	55790.2375
1584.2136	56772.7375
1587.54395	58934.2375
1590.87208	62294.9375
1594.19801	66417.9375
1597.52172	70217.4375
1600.84321	70830.6375
1604.16251	67004.6375
1607.47959	60871.8375
1610.79447	54672.1375
1614.10715	49007.6375
1617.41763	44307.3375
1620.7259	40926.6375
1624.03199	39180.2375
1627.33587	39122.2375
1630.63757	40647.7375
1633.93707	44240.0375
1637.23439	49846.8375
1640.52951	57524.5375
1643.82246	65727.7375
1647.11321	71557.8375
1650.40179	71956.0375
1653.68819	66109.1375
1656.97241	56407.6375
1660.25446	46758.9375
1663.53433	39422.5375
1666.81203	34511.2375
1670.08756	31400.1375
1673.36092	29459.4375
1676.63211	28202.5375
1679.90115	27318.5375
1683.16801	26686.0375
1686.43272	26182.5375
1689.69527	25797.7375
1692.95567	25498.8375
1696.2139	25280.0375
1699.46999	25113.5375
1702.72392	24963.4375
1705.97571	24831.2375
1709.22535	24739.7375
1712.47284	24678.0375
1715.71819	24611.1375
1718.96139	24470.8375
1722.20246	24369.5375
1725.44139	24222.6375
1728.67818	24025.3375
1731.91284	23842.9375
1735.14537	23664.3375
1738.37576	23516.9375
1741.60403	23403.9375
1744.83017	23289.1375
1748.05418	23248.3375
1751.27607	23169.8375
1754.49584	23067.3375
1757.71349	23040.9375
1760.92903	23005.5375
1764.14244	22972.8375
1767.35375	22928.1375
1770.56294	22896.6375
1773.77002	22801.5375
1776.97499	22725.6375
1780.17785	22714.4375
1783.37861	22636.0375
1786.57727	22573.9375
1789.77382	22538.2375
1792.96828	22516.8375
1796.16064	22455.1375
1799.3509	22392.4375
1802.53907	22314.2375
1805.72514	22251.6375
1808.90913	22183.3375
1812.09102	22153.4375
1815.27083	22110.0375
1818.44856	22050.5375
1821.6242	22019.8375
1824.79776	22028.3375
1827.96924	22017.9375
1831.13864	21979.8375
1834.30597	22000.0375
1837.47122	21993.2375
1840.6344	22006.4375
1843.7955	22062.0375
1846.95454	22056.6375
1850.11151	22092.1375
1853.26642	22046.1375
1856.41926	22046.5375
1859.57004	22079.9375
1862.71876	22028.7375
1865.86542	22009.4375
1869.01003	21929.9375
1872.15258	21888.1375
1875.29308	21897.9375
1878.43152	21896.5375
1881.56792	21891.9375
1884.70227	21869.4375
1887.83457	21884.0375
1890.96482	21849.1375
1894.09304	21841.6375
1897.21921	21799.0375
1900.34335	21810.5375
1903.46544	21775.9375
1906.58551	21739.8375
1909.70353	21658.9375
1912.81953	21611.4375
1915.93349	21554.3375
1919.04543	21479.4375
1922.15534	21446.6375
1925.26322	21357.8375
1928.36908	21250.4375
1931.47292	21237.3375
1934.57473	21107.1375
1937.67453	21032.7375
1940.77232	20953.1375
1943.86808	20861.7375
1946.96184	20785.1375
1950.05358	20712.5375
1953.14331	20689.8375
1956.23103	20553.8375
1959.31675	20491.1375
1962.40046	20449.7375
1965.48217	20368.2375
1968.56188	20299.2375
1971.63959	20270.9375
1974.7153	20208.1375
1977.78901	20095.5375
1980.86073	20025.7375
1983.93046	19961.9375
1986.99819	19907.3375
1990.06394	19849.7375
1993.1277	19798.9375
1996.18947	19733.2375
1999.24925	19643.7375
2002.30706	19602.0375
2005.36288	19548.7375
2008.41672	19461.3375
2011.46859	19422.2375
2014.51848	19388.8375
2017.56639	19354.7375
2020.61233	19285.0375
2023.6563	19248.5375
2026.6983	19203.9375
2029.73833	19172.2375
2032.7764	19108.9375
2035.8125	19077.7375
2038.84664	19065.4375
2041.87881	19035.7375
2044.90903	19048.0375
2047.93729	18996.4375
2050.96359	18952.5375
2053.98794	18901.7375
2057.01034	18909.4375
2060.03078	18909.0375
2063.04927	18885.9375
2066.06582	18920.6375
2069.08042	18863.4375
2072.09307	18806.8375
2075.10378	18788.9375
2078.11255	18793.2375
2081.11938	18765.0375
2084.12426	18726.1375
2087.12722	18761.5375
2090.12824	18697.0375
2093.12732	18713.0375
2096.12447	18714.4375
2099.11969	18737.8375
2102.11299	18719.8375
2105.10435	18749.2375
2108.09379	18708.9375
2111.08131	18716.3375
2114.0669	18712.0375
2117.05057	18722.9375
2120.03233	18728.7375
2123.01216	18767.5375
2125.99008	18761.9375
2128.96609	18768.5375
2131.94018	18783.5375
2134.91236	18780.4375
2137.88263	18775.0375
2140.851	18780.1375
2143.81746	18787.0375
2146.78201	18798.9375
2149.74466	18806.2375
2152.7054	18749.7375
2155.66425	18777.4375
2158.6212	18787.3375
2161.57625	18737.9375
2164.52941	18737.7375
2167.48067	18699.8375
2170.43004	18747.7375
2173.37752	18710.1375
2176.32311	18694.2375
2179.26681	18684.2375
2182.20863	18716.5375
2185.14856	18721.2375
2188.08661	18709.0375
2191.02278	18739.9375
2193.95707	18742.2375
2196.88948	18716.0375
2199.82001	18679.2375
2202.74867	18684.7375
2205.67545	18681.8375
2208.60037	18606.5375
2211.52341	18610.9375
2214.44458	18583.7375
2217.36388	18565.7375
2220.28132	18534.5375
2223.1969	18511.8375
2226.11061	18466.6375
2229.02246	18448.0375
2231.93245	18411.5375
2234.84058	18378.4375
2237.74686	18319.5375
2240.65128	18273.9375
2243.55385	18245.4375
2246.45456	18245.3375
2249.35343	18159.6375
2252.25044	18156.9375
2255.14561	18101.0375
2258.03893	18117.1375
2260.93041	18056.4375
2263.82004	18012.7375
2266.70783	17964.9375
2269.59378	17878.9375
2272.4779	17843.1375
2275.36017	17808.5375
2278.24061	17762.1375
2281.11922	17711.7375
2283.996	17718.3375
2286.87094	17699.9375
2289.74405	17651.6375
2292.61534	17656.6375
2295.4848	17668.5375
2298.35243	17650.5375
2301.21824	17670.4375
2304.08223	17683.1375
2306.94439	17687.6375
2309.80474	17685.2375
2312.66327	17706.6375
2315.51999	17704.6375
2318.37489	17718.7375
2321.22797	17680.8375
2324.07925	17675.2375
2326.92871	17652.6375
2329.77637	17641.6375
2332.62222	17601.0375
2335.46626	17599.6375
2338.3085	17614.0375
2341.14893	17654.5375
2343.98756	17675.3375
2346.8244	17724.6375
2349.65943	17715.8375
2352.49267	17684.6375
2355.32411	17683.1375
2358.15376	17729.0375
2360.98161	17640.3375
2363.80768	17624.8375
2366.63195	17636.7375
2369.45444	17585.8375
2372.27514	17592.8375
2375.09405	17578.4375
2377.91118	17481.1375
2380.72652	17461.3375
2383.54009	17421.0375
2386.35187	17363.9375
2389.16188	17334.3375
2391.97011	17300.8375
2394.77657	17288.6375
2397.58125	17256.8375
2400.38416	17239.0375
2403.18529	17181.3375
2405.98466	17171.7375
2408.78226	17148.7375
2411.57809	17103.2375
2414.37216	17105.2375
2417.16446	17107.7375
2419.955	17078.6375
2422.74378	17028.9375
2425.5308	17001.1375
2428.31606	16999.1375
2431.09956	17007.8375
2433.88131	17013.7375
2436.6613	17050.7375
2439.43954	17026.2375
2442.21603	17012.4375
2444.99077	16966.1375
2447.76377	17004.8375
2450.53501	16987.7375
2453.30451	16985.6375
2456.07226	16963.6375
2458.83827	16967.0375
2461.60254	16995.0375
2464.36507	16972.8375
2467.12586	16988.6375
2469.88492	16983.4375
2472.64224	17023.5375
2475.39782	17062.6375
2478.15167	17076.8375
2480.90379	17064.2375
2483.65417	17083.9375
2486.40283	17108.6375
2489.14976	17138.6375
2491.89497	17140.1375
2494.63845	17176.0375
2497.3802	17157.2375
2500.12024	17191.5375
2502.85855	17127.4375
2505.59514	17161.6375
2508.33002	17113.1375
2511.06318	17120.4375
2513.79462	17112.8375
2516.52435	17075.4375
2519.25237	17101.8375
2521.97867	17076.5375
2524.70327	17074.6375
2527.42616	17036.6375
2530.14734	17064.2375
2532.86681	17081.0375
2535.58458	17108.0375
2538.30065	17069.3375
2541.01501	17073.3375
2543.72768	17053.7375
2546.43864	17058.1375
2549.14791	17034.5375
2551.85548	17015.2375
2554.56136	16997.5375
2557.26554	16960.1375
2559.96803	16948.0375
2562.66883	16962.8375
2565.36794	16957.4375
2568.06536	16901.6375
2570.7611	16918.0375
2573.45514	16915.4375
2576.14751	16924.5375
2578.83819	16884.0375
2581.52719	16928.4375
2584.21451	16921.8375
2586.90015	16915.2375
2589.58411	16929.7375
2592.2664	16959.9375
2594.94701	16921.2375
2597.62594	16963.5375
2600.30321	16922.1375
2602.9788	16928.1375
2605.65273	16939.4375
2608.32498	16976.2375
2610.99557	16989.0375
2613.66449	16978.6375
2616.33175	16968.3375
2618.99734	16995.0375
2621.66128	16999.7375
2624.32355	17021.1375
2626.98416	17001.9375
2629.64311	17032.7375
2632.30041	17050.3375
2634.95605	17038.9375
2637.61004	17035.7375
2640.26238	16992.1375
2642.91306	17015.6375
2645.56209	16930.6375
2648.20948	16964.7375
2650.85521	16994.2375
2653.4993	17003.2375
2656.14175	16984.7375
2658.78255	17010.8375
2661.42171	16993.9375
2664.05923	17005.4375
2666.6951	17045.5375
2669.32934	17068.0375
2671.96194	17095.1375
2674.59291	17075.9375
2677.22224	17099.8375
2679.84993	17086.8375
2682.476	17052.6375
2685.10043	17029.3375
2687.72324	16991.0375
2690.34441	16986.6375
2692.96396	16961.8375
2695.58188	16948.6375
2698.19818	16960.8375
2700.81285	16952.3375
2703.4259	16954.5375
2706.03733	16981.2375
2708.64714	16954.5375
2711.25533	16975.8375
2713.86191	16983.4375
2716.46687	17006.7375
2719.07021	17015.2375
2721.67194	17056.6375
2724.27206	17054.7375
2726.87057	17131.0375
2729.46747	17108.7375
2732.06276	17110.1375
2734.65644	17109.8375
2737.24852	17110.0375
2739.83899	17112.5375
2742.42786	17085.9375
2745.01513	17076.9375
2747.60079	17100.7375
2750.18486	17082.8375
2752.76733	17078.3375
2755.3482	17054.1375
2757.92747	17046.8375
2760.50515	17054.5375
2763.08123	17074.7375
2765.65573	17080.1375
2768.22863	17080.8375
2770.79994	17043.0375
2773.36967	17086.6375
2775.9378	17095.0375
2778.50435	17091.7375
2781.06932	17101.8375
2783.6327	17136.2375
2786.1945	17132.7375
2788.75471	17128.9375
2791.31335	17091.4375
2793.87041	17067.2375
2796.42589	17012.6375
2798.97979	17012.0375
2801.53212	16989.4375
2804.08288	16956.6375
2806.63206	16928.4375
2809.17967	16846.9375
2811.72571	16841.1375
2814.27018	16849.3375
2816.81308	16813.8375
2819.35442	16779.1375
2821.89419	16745.3375
2824.43239	16760.6375
2826.96904	16769.7375
2829.50412	16758.1375
2832.03763	16689.7375
2834.56959	16681.5375
2837.1	16675.6375
2839.62884	16666.8375
2842.15613	16653.5375
2844.68186	16682.9375
2847.20604	16689.5375
2849.72867	16709.3375
2852.24974	16703.1375
2854.76927	16707.4375
2857.28724	16705.9375
2859.80367	16699.0375
2862.31855	16668.2375
2864.83189	16643.6375
2867.34368	16623.8375
2869.85393	16631.2375
2872.36264	16620.3375
2874.8698	16597.3375
2877.37543	16582.9375
2879.87952	16565.4375
2882.38207	16560.9375
2884.88308	16565.5375
2887.38256	16583.4375
2889.88051	16623.9375
2892.37692	16599.9375
2894.8718	16635.1375
2897.36515	16649.5375
2899.85698	16669.9375
2902.34727	16726.5375
2904.83604	16744.5375
2907.32328	16796.7375
2909.809	16802.0375
2912.29319	16755.8375
2914.77587	16787.8375
2917.25702	16812.1375
2919.73665	16799.9375
2922.21476	16775.0375
2924.69136	16775.7375
2927.16644	16767.5375
2929.64	16706.5375
2932.11205	16680.8375
2934.58258	16626.5375
2937.05161	16634.9375
2939.51912	16622.1375
2941.98513	16566.7375
2944.44962	16534.0375
2946.91261	16510.7375
2949.37409	16502.1375
2951.83407	16478.5375
2954.29254	16458.3375
2956.74951	16427.2375
2959.20498	16439.9375
2961.65895	16404.8375
2964.11142	16399.4375
2966.56239	16349.1375
2969.01186	16373.4375
2971.45984	16280.0375
2973.90632	16283.5375
2976.35131	16250.7375
2978.7948	16170.2375
2981.23681	16182.3375
2983.67732	16122.2375
2986.11635	16083.8375
2988.55388	16085.2375
2990.98993	16032.4375
2993.4245	15941.0375
2995.85758	15874.2375
2998.28917	15866.7375
3000.71928	15826.2375
3003.14791	15790.1375
3005.57506	15772.6375
3008.00073	15728.4375
3010.42493	15670.9375
3012.84764	15678.4375
3015.26888	15657.2375
3017.68865	15619.5375
3020.10694	15572.3375
3022.52376	15569.8375
3024.9391	15553.9375
3027.35298	15552.4375
3029.76539	15522.0375
3032.17632	15492.1375
3034.5858	15495.4375
3036.9938	15506.6375
3039.40034	15495.5375
3041.80542	15463.1375
3044.20903	15442.5375
3046.61118	15440.0375
3049.01187	15374.1375
3051.4111	15394.0375
3053.80888	15346.2375
3056.20519	15350.2375
3058.60005	15301.0375
3060.99345	15243.4375
3063.3854	15225.5375
3065.7759	15128.8375
3068.16494	15076.1375
3070.55254	15050.0375
3072.93868	14991.1375
3075.32338	14960.3375
3077.70662	14896.4375
3080.08842	14890.6375
3082.46878	14862.3375
3084.84769	14787.8375
3087.22515	14799.3375
3089.60118	14805.2375
3091.97576	14774.0375
3094.3489	14772.7375
3096.72061	14753.8375
3099.09087	14761.0375
3101.4597	14740.1375
3103.82709	14761.5375
3106.19305	14750.7375
3108.55757	14686.9375
3110.92066	14651.9375
3113.28232	14652.0375
3115.64255	14615.2375
3118.00134	14568.8375
3120.35871	14576.1375
3122.71466	14507.0375
3125.06917	14469.0375
3127.42226	14395.1375
3129.77393	14410.7375
3132.12417	14375.4375
3134.47299	14372.3375
3136.82039	14359.5375
3139.16636	14353.9375
3141.51092	14356.3375
3143.85406	14342.1375
3146.19579	14344.9375
3148.53609	14365.0375
3150.87499	14376.2375
3153.21246	14336.5375
3155.54853	14344.4375
3157.88318	14343.3375
3160.21642	14341.1375
3162.54826	14361.9375
3164.87868	14341.0375
3167.2077	14333.4375
3169.5353	14334.3375
3171.86151	14326.0375
3174.18631	14321.3375
3176.5097	14322.4375
3178.83169	14290.4375
3181.15228	14280.2375
3183.47147	14245.7375
3185.78926	14267.2375
3188.10565	14237.9375
3190.42065	14219.9375
3192.73424	14202.6375
3195.04645	14199.4375
3197.35725	14201.2375
3199.66667	14182.4375
3201.97469	14168.2375
3204.28132	14158.7375
3206.58656	14194.1375
3208.8904	14174.8375
3211.19287	14205.3375
3213.49394	14172.2375
3215.79363	14176.6375
3218.09193	14205.2375
3220.38884	14168.9375
3222.68438	14197.8375
3224.97853	14129.1375
3227.2713	14142.4375
3229.56269	14131.5375
3231.8527	14140.7375
3234.14133	14094.3375
3236.42858	14099.7375
3238.71446	14064.5375
3240.99896	14089.0375
3243.28209	14038.0375
3245.56384	14007.7375
3247.84423	13975.7375
3250.12324	13970.3375
3252.40088	13926.9375
3254.67715	13922.8375
3256.95205	13886.9375
3259.22558	13886.4375
3261.49775	13840.7375
3263.76855	13822.2375
3266.03799	13823.6375
3268.30606	13807.4375
3270.57277	13748.5375
3272.83812	13750.5375
3275.10211	13714.1375
3277.36474	13733.2375
3279.62601	13709.3375
3281.88593	13706.8375
3284.14448	13682.8375
3286.40168	13697.7375
3288.65753	13704.2375
3290.91202	13702.4375
3293.16516	13664.0375
3295.41695	13632.2375
3297.66738	13564.6375
3299.91647	13481.2375
3302.16421	13383.2375
3304.4106	13300.7375
3306.65564	13231.8375
3308.89933	13118.9375
3311.14169	13039.6375
3313.38269	12918.4375
3315.62236	12833.7375
3317.86068	12730.5375
3320.09766	12613.2375
3322.3333	12535.6375
3324.5676	12474.7375
3326.80056	12279.9375
3329.03219	12201.5375
3331.26248	5.1375
3333.49143	-0.3625
3335.71905	-0.0625
