Data from AgNPs_FTO_APTES_UA_5uM_CRN_500uM_R6G_10uM_NaF_0.1M_Addition_RamanShift__9__16-51-11-821.txt Node

Date: Mon Feb 07 16:51:11 GMT 2022
User: TCL
Spectrometer: QEP01345
Trigger mode: 4
Integration Time (sec): 7.000000E0
Scans to average: 10
Electric dark correction enabled: true
Nonlinearity correction enabled: false
Boxcar width: 0
XAxis mode: Raman Shifts
Number of Pixels in Spectrum: 1044
>>>>>Begin Spectral Data<<<<<
46.04893	-1.3125
50.45542	-0.8125
54.85868	0.5875
59.25871	-0.2125
63.6555	67.5875
68.04907	71.9875
72.43941	74.7875
76.82654	78.2875
81.21044	78.1875
85.59113	79.2875
89.96862	84.4875
94.34289	84.4875
98.71396	87.6875
103.08183	91.5875
107.4465	96.7875
111.80798	97.3875
116.16626	101.0875
120.52136	109.3875
124.87327	111.6875
129.222	118.0875
133.56755	127.0875
137.90993	135.6875
142.24913	157.0875
146.58517	175.5875
150.91804	203.5875
155.24774	252.0875
159.57429	317.2875
163.89768	406.8875
168.21792	545.6875
172.53501	748.4875
176.84895	1054.4875
181.15975	1480.3875
185.46741	2087.2875
189.77193	2878.4875
194.07331	3848.0875
198.37157	4970.3875
202.6667	6142.5875
206.9587	7290.1875
211.24758	8426.1875
215.53334	9570.3875
219.81599	10768.7875
224.09553	12049.9875
228.37195	13519.0875
232.64527	15065.9875
236.91549	16711.8875
241.18261	18391.5875
245.44663	19972.1875
249.70755	21408.8875
253.96539	22679.2875
258.22014	23733.3875
262.4718	24584.5875
266.72039	25195.2875
270.96589	25568.2875
275.20832	25670.1875
279.44768	25633.5875
283.68397	25472.4875
287.91719	25400.0875
292.14735	25317.1875
296.37445	25436.8875
300.59849	25520.4875
304.81948	25624.9875
309.03742	25517.6875
313.25231	25265.1875
317.46415	24683.5875
321.67296	24055.4875
325.87872	23469.4875
330.08145	23181.3875
334.28114	23101.6875
338.47781	23152.0875
342.67145	23374.5875
346.86207	23631.5875
351.04966	23981.9875
355.23424	24261.6875
359.4158	24527.4875
363.59435	24783.1875
367.76989	24955.5875
371.94243	25067.1875
376.11196	25155.1875
380.27849	25203.8875
384.44203	25355.6875
388.60257	25579.7875
392.76012	25895.1875
396.91468	26220.8875
401.06626	26631.7875
405.21485	26834.3875
409.36047	26756.1875
413.50311	26425.4875
417.64277	26317.9875
421.77947	26358.8875
425.9132	26498.0875
430.04396	26672.3875
434.17176	26874.1875
438.2966	27008.4875
442.41849	27377.0875
446.53742	28130.6875
450.6534	28861.2875
454.76644	29416.7875
458.87653	29675.7875
462.98368	29617.1875
467.08789	29499.5875
471.18916	29327.7875
475.2875	29260.8875
479.38291	29372.5875
483.4754	29333.7875
487.56496	28925.1875
491.6516	28156.3875
495.73531	27397.6875
499.81612	26919.0875
503.89401	26859.8875
507.96899	26960.7875
512.04106	26992.1875
516.11023	26789.3875
520.1765	26449.4875
524.23987	26114.2875
528.30034	25848.9875
532.35792	25596.7875
536.41261	25341.7875
540.46441	25174.4875
544.51333	25253.2875
548.55936	25566.1875
552.60252	26241.3875
556.64279	27007.6875
560.6802	27633.1875
564.71473	28091.1875
568.7464	28834.9875
572.7752	29988.0875
576.80114	31128.3875
580.82422	31993.7875
584.84444	32806.3875
588.86181	33870.6875
592.87633	34727.8875
596.888	34195.1875
600.89682	32484.0875
604.9028	31549.6875
608.90594	32225.9875
612.90624	33141.9875
616.90371	31113.7875
620.89834	27151.0875
624.89015	25423.9875
628.87913	25352.6875
632.86528	25601.8875
636.84862	25634.5875
640.82913	25271.0875
644.80683	24776.8875
648.78172	24434.8875
652.75379	24298.1875
656.72306	24445.7875
660.68952	24686.2875
664.65319	24507.3875
668.61405	24209.5875
672.57211	24148.1875
676.52738	24224.1875
680.47986	24308.4875
684.42955	24212.3875
688.37646	24109.7875
692.32058	24198.5875
696.26192	24373.7875
700.20048	24657.6875
704.13626	24890.4875
708.06928	25022.7875
711.99952	25028.2875
715.927	25010.5875
719.85171	24981.0875
723.77365	24798.1875
727.69284	24471.1875
731.60928	24245.4875
735.52295	24073.4875
739.43388	24060.4875
743.34206	24052.4875
747.24749	24208.3875
751.15017	24491.6875
755.05012	24977.6875
758.94733	25695.1875
762.8418	26903.0875
766.73354	28476.6875
770.62254	29835.7875
774.50882	29862.3875
778.39237	28522.7875
782.27321	26726.6875
786.15132	25368.1875
790.02671	24474.2875
793.89938	23987.2875
797.76935	23761.3875
801.6366	23720.0875
805.50115	23618.7875
809.36299	23583.4875
813.22213	23431.8875
817.07857	23407.2875
820.93231	23391.7875
824.78336	23171.8875
828.63172	22981.8875
832.47738	22905.5875
836.32036	22824.9875
840.16066	22770.0875
843.99827	22761.2875
847.8332	22743.2875
851.66546	22771.6875
855.49504	22818.6875
859.32195	22805.0875
863.1462	22737.0875
866.96777	22661.6875
870.78668	22601.7875
874.60293	22620.8875
878.41652	22623.4875
882.22745	22650.3875
886.03573	22680.1875
889.84136	22650.9875
893.64433	22651.0875
897.44466	22602.2875
901.24235	22528.2875
905.0374	22465.2875
908.8298	22449.6875
912.61957	22551.5875
916.40671	22820.8875
920.19121	23230.7875
923.97308	23458.2875
927.75233	23285.2875
931.52895	22915.2875
935.30295	22435.6875
939.07433	22058.1875
942.84309	21750.1875
946.60924	21549.9875
950.37278	21429.9875
954.13371	21461.3875
957.89203	21535.3875
961.64774	21523.1875
965.40086	21485.1875
969.15137	21383.4875
972.89929	21157.8875
976.64461	20988.5875
980.38733	20900.4875
984.12747	20893.5875
987.86502	20951.7875
991.59999	21036.6875
995.33237	21149.2875
999.06217	21349.6875
1002.78939	21660.5875
1006.51404	22028.7875
1010.23611	22346.8875
1013.95561	22588.8875
1017.67255	22750.2875
1021.38692	22621.1875
1025.09872	22220.7875
1028.80796	21959.8875
1032.51465	21800.9875
1036.21877	21838.5875
1039.92035	21899.9875
1043.61937	21996.5875
1047.31584	22135.1875
1051.00976	22217.4875
1054.70114	22345.8875
1058.38998	22578.1875
1062.07627	22952.3875
1065.76003	23304.3875
1069.44126	23553.0875
1073.11995	23885.7875
1076.79611	24139.9875
1080.46974	24202.0875
1084.14085	24261.4875
1087.80943	24441.9875
1091.47549	24654.0875
1095.13903	24791.8875
1098.80005	24568.8875
1102.45857	24028.3875
1106.11456	23451.1875
1109.76805	23176.9875
1113.41903	23161.2875
1117.06751	23314.7875
1120.71348	23557.1875
1124.35696	23849.2875
1127.99793	24216.2875
1131.63641	24494.0875
1135.2724	24460.0875
1138.90589	24364.4875
1142.5369	24492.3875
1146.16542	24860.5875
1149.79145	25235.1875
1153.415	25745.2875
1157.03607	26293.4875
1160.65467	27195.7875
1164.27079	28592.9875
1167.88443	30293.1875
1171.49561	31923.1875
1175.10432	33854.0875
1178.71056	36157.5875
1182.31434	38309.4875
1185.91565	39350.4875
1189.51451	39235.0875
1193.11091	38442.2875
1196.70485	37345.0875
1200.29634	36130.6875
1203.88538	35396.0875
1207.47197	35155.9875
1211.05612	35048.6875
1214.63782	34462.1875
1218.21708	33204.1875
1221.79391	31751.2875
1225.36829	30697.7875
1228.94024	30024.4875
1232.50976	29514.7875
1236.07685	29125.3875
1239.6415	28871.0875
1243.20374	28857.5875
1246.76355	29150.0875
1250.32093	29547.8875
1253.8759	30053.3875
1257.42845	30773.3875
1260.97859	31696.5875
1264.52631	32520.3875
1268.07163	33373.4875
1271.61453	34313.3875
1275.15503	35367.5875
1278.69312	36621.4875
1282.22882	37989.3875
1285.76211	39753.9875
1289.29301	41948.6875
1292.82151	44590.8875
1296.34761	47714.8875
1299.87133	50891.6875
1303.39266	53749.6875
1306.9116	55839.3875
1310.42815	57023.0875
1313.94233	57504.3875
1317.45412	57259.1875
1320.96354	56695.6875
1324.47058	56379.1875
1327.97525	56190.2875
1331.47754	56096.0875
1334.97747	55776.4875
1338.47502	55053.1875
1341.97022	54119.0875
1345.46305	53179.8875
1348.95352	52154.2875
1352.44163	51405.0875
1355.92738	51507.0875
1359.41078	52494.7875
1362.89183	53262.3875
1366.37053	52143.5875
1369.84688	48574.7875
1373.32088	44077.2875
1376.79254	41051.1875
1380.26186	40319.0875
1383.72883	40942.7875
1387.19347	41535.7875
1390.65578	41703.6875
1394.11575	41819.6875
1397.57339	42376.6875
1401.0287	43078.0875
1404.48168	43399.0875
1407.93234	42806.0875
1411.38068	41279.5875
1414.82669	39125.6875
1418.27039	36783.5875
1421.71177	34677.0875
1425.15083	33066.7875
1428.58758	32317.0875
1432.02203	32647.4875
1435.45416	33707.5875
1438.88399	34962.4875
1442.31151	35987.2875
1445.73673	36623.6875
1449.15965	37193.4875
1452.58027	37656.1875
1455.9986	37954.5875
1459.41463	38304.3875
1462.82837	38735.4875
1466.23982	39132.0875
1469.64898	39484.5875
1473.05586	39604.2875
1476.46045	39389.2875
1479.86276	38834.0875
1483.26279	38199.3875
1486.66054	37822.7875
1490.05602	37786.9875
1493.44922	38056.6875
1496.84016	38462.6875
1500.22882	39121.6875
1503.61521	40147.7875
1506.99934	41228.7875
1510.38121	42210.2875
1513.76081	42502.1875
1517.13816	42151.8875
1520.51324	41692.2875
1523.88607	41661.7875
1527.25665	42055.9875
1530.62498	42477.2875
1533.99105	42427.0875
1537.35488	41738.3875
1540.71647	40565.6875
1544.07581	39011.6875
1547.4329	37427.2875
1550.78776	36140.2875
1554.14038	35228.3875
1557.49077	34693.5875
1560.83892	34350.9875
1564.18484	34301.2875
1567.52853	34498.9875
1570.86999	34986.2875
1574.20922	36102.4875
1577.54624	37238.2875
1580.88103	37995.1875
1584.2136	38779.4875
1587.54395	40042.5875
1590.87208	41777.2875
1594.19801	43772.7875
1597.52172	45449.5875
1600.84321	45409.1875
1604.16251	42940.3875
1607.47959	39207.4875
1610.79447	35448.9875
1614.10715	32253.4875
1617.41763	29611.1875
1620.7259	27898.8875
1624.03199	27019.3875
1627.33587	27115.4875
1630.63757	28121.1875
1633.93707	30267.7875
1637.23439	33812.4875
1640.52951	38894.3875
1643.82246	44811.9875
1647.11321	49504.1875
1650.40179	50097.7875
1653.68819	46085.6875
1656.97241	39431.1875
1660.25446	32970.6875
1663.53433	28120.1875
1666.81203	24812.6875
1670.08756	22784.1875
1673.36092	21523.1875
1676.63211	20715.5875
1679.90115	20146.1875
1683.16801	19665.8875
1686.43272	19362.9875
1689.69527	19130.0875
1692.95567	18942.5875
1696.2139	18778.0875
1699.46999	18636.1875
1702.72392	18513.5875
1705.97571	18458.0875
1709.22535	18355.1875
1712.47284	18288.9875
1715.71819	18255.4875
1718.96139	18193.4875
1722.20246	18146.8875
1725.44139	17988.5875
1728.67818	17874.7875
1731.91284	17766.3875
1735.14537	17630.7875
1738.37576	17529.7875
1741.60403	17456.2875
1744.83017	17384.1875
1748.05418	17308.0875
1751.27607	17293.0875
1754.49584	17266.4875
1757.71349	17232.2875
1760.92903	17184.5875
1764.14244	17162.5875
1767.35375	17179.0875
1770.56294	17106.7875
1773.77002	17030.0875
1776.97499	16969.6875
1780.17785	16891.8875
1783.37861	16870.0875
1786.57727	16887.0875
1789.77382	16806.5875
1792.96828	16742.5875
1796.16064	16684.5875
1799.3509	16670.8875
1802.53907	16617.3875
1805.72514	16581.3875
1808.90913	16484.9875
1812.09102	16494.5875
1815.27083	16391.8875
1818.44856	16350.0875
1821.6242	16331.5875
1824.79776	16294.8875
1827.96924	16273.1875
1831.13864	16248.3875
1834.30597	16235.6875
1837.47122	16212.2875
1840.6344	16210.9875
1843.7955	16191.0875
1846.95454	16160.2875
1850.11151	16167.2875
1853.26642	16138.2875
1856.41926	16096.9875
1859.57004	16105.4875
1862.71876	16051.2875
1865.86542	16018.5875
1869.01003	16011.5875
1872.15258	15952.8875
1875.29308	15952.2875
1878.43152	15902.3875
1881.56792	15862.2875
1884.70227	15869.3875
1887.83457	15831.7875
1890.96482	15808.1875
1894.09304	15719.3875
1897.21921	15735.0875
1900.34335	15698.0875
1903.46544	15665.4875
1906.58551	15654.4875
1909.70353	15618.8875
1912.81953	15568.5875
1915.93349	15509.5875
1919.04543	15506.6875
1922.15534	15447.3875
1925.26322	15406.0875
1928.36908	15369.1875
1931.47292	15363.4875
1934.57473	15324.8875
1937.67453	15276.6875
1940.77232	15207.8875
1943.86808	15176.6875
1946.96184	15087.4875
1950.05358	15075.4875
1953.14331	15004.8875
1956.23103	14904.8875
1959.31675	14893.4875
1962.40046	14820.6875
1965.48217	14796.4875
1968.56188	14707.4875
1971.63959	14666.2875
1974.7153	14636.4875
1977.78901	14570.9875
1980.86073	14513.9875
1983.93046	14455.7875
1986.99819	14424.3875
1990.06394	14372.0875
1993.1277	14342.0875
1996.18947	14260.2875
1999.24925	14225.7875
2002.30706	14179.5875
2005.36288	14120.2875
2008.41672	14062.3875
2011.46859	14034.1875
2014.51848	13966.5875
2017.56639	13937.9875
2020.61233	13875.7875
2023.6563	13835.2875
2026.6983	13769.0875
2029.73833	13748.9875
2032.7764	13710.7875
2035.8125	13716.8875
2038.84664	13642.2875
2041.87881	13596.6875
2044.90903	13566.8875
2047.93729	13521.3875
2050.96359	13519.4875
2053.98794	13511.2875
2057.01034	13500.7875
2060.03078	13496.1875
2063.04927	13466.9875
2066.06582	13464.1875
2069.08042	13464.4875
2072.09307	13448.0875
2075.10378	13408.0875
2078.11255	13375.1875
2081.11938	13373.2875
2084.12426	13346.0875
2087.12722	13335.0875
2090.12824	13320.2875
2093.12732	13325.2875
2096.12447	13312.9875
2099.11969	13313.9875
2102.11299	13267.3875
2105.10435	13280.9875
2108.09379	13290.5875
2111.08131	13276.1875
2114.0669	13281.2875
2117.05057	13263.8875
2120.03233	13302.7875
2123.01216	13291.8875
2125.99008	13300.9875
2128.96609	13276.0875
2131.94018	13278.5875
2134.91236	13255.8875
2137.88263	13269.9875
2140.851	13285.6875
2143.81746	13284.5875
2146.78201	13230.3875
2149.74466	13224.6875
2152.7054	13214.3875
2155.66425	13223.8875
2158.6212	13182.0875
2161.57625	13150.2875
2164.52941	13168.4875
2167.48067	13162.5875
2170.43004	13121.1875
2173.37752	13137.5875
2176.32311	13135.6875
2179.26681	13145.9875
2182.20863	13136.5875
2185.14856	13144.0875
2188.08661	13103.6875
2191.02278	13113.8875
2193.95707	13113.4875
2196.88948	13035.0875
2199.82001	13019.8875
2202.74867	12980.8875
2205.67545	12963.0875
2208.60037	12937.4875
2211.52341	12895.1875
2214.44458	12882.2875
2217.36388	12839.5875
2220.28132	12835.1875
2223.1969	12777.6875
2226.11061	12773.6875
2229.02246	12745.1875
2231.93245	12733.8875
2234.84058	12695.2875
2237.74686	12662.0875
2240.65128	12646.6875
2243.55385	12627.6875
2246.45456	12607.2875
2249.35343	12570.8875
2252.25044	12558.2875
2255.14561	12505.5875
2258.03893	12442.9875
2260.93041	12361.1875
2263.82004	12384.1875
2266.70783	12354.0875
2269.59378	12292.2875
2272.4779	12249.3875
2275.36017	12227.1875
2278.24061	12188.1875
2281.11922	12166.5875
2283.996	12179.3875
2286.87094	12144.0875
2289.74405	12118.2875
2292.61534	12063.0875
2295.4848	12036.9875
2298.35243	12041.0875
2301.21824	12026.1875
2304.08223	12053.2875
2306.94439	12041.9875
2309.80474	12000.1875
2312.66327	11988.7875
2315.51999	11970.6875
2318.37489	11965.5875
2321.22797	11923.5875
2324.07925	11904.2875
2326.92871	11878.4875
2329.77637	11872.7875
2332.62222	11843.0875
2335.46626	11821.9875
2338.3085	11825.9875
2341.14893	11796.2875
2343.98756	11800.5875
2346.8244	11768.7875
2349.65943	11756.2875
2352.49267	11728.1875
2355.32411	11763.6875
2358.15376	11763.4875
2360.98161	11748.9875
2363.80768	11755.5875
2366.63195	11741.5875
2369.45444	11725.8875
2372.27514	11709.1875
2375.09405	11664.7875
2377.91118	11620.6875
2380.72652	11609.6875
2383.54009	11581.3875
2386.35187	11574.0875
2389.16188	11554.2875
2391.97011	11506.2875
2394.77657	11443.3875
2397.58125	11427.8875
2400.38416	11420.2875
2403.18529	11409.6875
2405.98466	11363.3875
2408.78226	11385.3875
2411.57809	11362.5875
2414.37216	11361.9875
2417.16446	11333.5875
2419.955	11313.9875
2422.74378	11325.5875
2425.5308	11268.6875
2428.31606	11280.7875
2431.09956	11249.5875
2433.88131	11239.0875
2436.6613	11277.4875
2439.43954	11276.9875
2442.21603	11235.9875
2444.99077	11214.4875
2447.76377	11181.3875
2450.53501	11192.4875
2453.30451	11167.2875
2456.07226	11179.4875
2458.83827	11142.3875
2461.60254	11139.4875
2464.36507	11126.1875
2467.12586	11147.2875
2469.88492	11104.0875
2472.64224	11107.0875
2475.39782	11112.3875
2478.15167	11082.1875
2480.90379	11097.3875
2483.65417	11107.2875
2486.40283	11110.2875
2489.14976	11112.6875
2491.89497	11090.6875
2494.63845	11089.4875
2497.3802	11089.6875
2500.12024	11075.9875
2502.85855	11062.4875
2505.59514	11056.5875
2508.33002	11030.8875
2511.06318	11017.1875
2513.79462	11014.1875
2516.52435	11012.5875
2519.25237	10972.8875
2521.97867	10962.1875
2524.70327	10966.5875
2527.42616	10937.2875
2530.14734	10964.7875
2532.86681	10915.6875
2535.58458	10930.4875
2538.30065	10900.1875
2541.01501	10919.3875
2543.72768	10885.1875
2546.43864	10868.8875
2549.14791	10857.1875
2551.85548	10849.2875
2554.56136	10801.8875
2557.26554	10784.7875
2559.96803	10773.6875
2562.66883	10756.1875
2565.36794	10761.3875
2568.06536	10764.2875
2570.7611	10742.9875
2573.45514	10712.9875
2576.14751	10706.2875
2578.83819	10669.0875
2581.52719	10701.1875
2584.21451	10683.8875
2586.90015	10683.4875
2589.58411	10680.4875
2592.2664	10650.8875
2594.94701	10617.3875
2597.62594	10643.5875
2600.30321	10614.1875
2602.9788	10612.2875
2605.65273	10593.5875
2608.32498	10626.8875
2610.99557	10621.0875
2613.66449	10618.1875
2616.33175	10582.3875
2618.99734	10571.0875
2621.66128	10573.0875
2624.32355	10580.5875
2626.98416	10545.6875
2629.64311	10517.0875
2632.30041	10531.3875
2634.95605	10521.2875
2637.61004	10471.5875
2640.26238	10489.8875
2642.91306	10448.9875
2645.56209	10465.6875
2648.20948	10503.7875
2650.85521	10507.1875
2653.4993	10496.4875
2656.14175	10499.8875
2658.78255	10527.0875
2661.42171	10510.5875
2664.05923	10478.0875
2666.6951	10508.6875
2669.32934	10511.9875
2671.96194	10485.2875
2674.59291	10490.1875
2677.22224	10462.6875
2679.84993	10468.0875
2682.476	10466.2875
2685.10043	10468.8875
2687.72324	10465.2875
2690.34441	10443.9875
2692.96396	10420.0875
2695.58188	10445.1875
2698.19818	10438.2875
2700.81285	10452.9875
2703.4259	10454.8875
2706.03733	10419.5875
2708.64714	10440.0875
2711.25533	10449.3875
2713.86191	10465.8875
2716.46687	10492.7875
2719.07021	10466.2875
2721.67194	10484.6875
2724.27206	10477.5875
2726.87057	10474.7875
2729.46747	10494.8875
2732.06276	10498.7875
2734.65644	10459.7875
2737.24852	10489.1875
2739.83899	10483.1875
2742.42786	10495.0875
2745.01513	10468.4875
2747.60079	10457.5875
2750.18486	10435.1875
2752.76733	10422.7875
2755.3482	10387.8875
2757.92747	10425.2875
2760.50515	10379.2875
2763.08123	10385.5875
2765.65573	10404.8875
2768.22863	10366.0875
2770.79994	10367.1875
2773.36967	10378.9875
2775.9378	10403.2875
2778.50435	10382.2875
2781.06932	10352.0875
2783.6327	10363.5875
2786.1945	10345.1875
2788.75471	10341.7875
2791.31335	10335.5875
2793.87041	10316.5875
2796.42589	10293.5875
2798.97979	10318.8875
2801.53212	10274.4875
2804.08288	10267.4875
2806.63206	10244.6875
2809.17967	10191.2875
2811.72571	10210.1875
2814.27018	10181.1875
2816.81308	10146.3875
2819.35442	10110.5875
2821.89419	10094.4875
2824.43239	10102.1875
2826.96904	10094.9875
2829.50412	10104.8875
2832.03763	10064.1875
2834.56959	10054.4875
2837.1	10031.7875
2839.62884	10080.7875
2842.15613	10085.0875
2844.68186	10132.0875
2847.20604	10183.7875
2849.72867	10192.7875
2852.24974	10179.2875
2854.76927	10163.1875
2857.28724	10157.6875
2859.80367	10121.6875
2862.31855	10121.6875
2864.83189	10086.0875
2867.34368	10044.3875
2869.85393	10052.1875
2872.36264	10034.2875
2874.8698	10032.7875
2877.37543	10031.2875
2879.87952	10021.5875
2882.38207	10003.0875
2884.88308	9982.3875
2887.38256	9998.4875
2889.88051	9987.3875
2892.37692	9987.3875
2894.8718	9998.4875
2897.36515	9992.6875
2899.85698	9992.1875
2902.34727	10002.0875
2904.83604	10012.1875
2907.32328	10040.5875
2909.809	10040.9875
2912.29319	10031.1875
2914.77587	10012.4875
2917.25702	10015.2875
2919.73665	9986.1875
2922.21476	10005.8875
2924.69136	10005.1875
2927.16644	9990.4875
2929.64	9995.2875
2932.11205	9978.4875
2934.58258	9948.6875
2937.05161	9945.3875
2939.51912	9941.5875
2941.98513	9889.8875
2944.44962	9895.7875
2946.91261	9849.3875
2949.37409	9838.3875
2951.83407	9829.1875
2954.29254	9805.5875
2956.74951	9788.3875
2959.20498	9786.0875
2961.65895	9736.7875
2964.11142	9717.4875
2966.56239	9703.1875
2969.01186	9713.4875
2971.45984	9674.3875
2973.90632	9678.0875
2976.35131	9622.7875
2978.7948	9580.2875
2981.23681	9568.2875
2983.67732	9531.2875
2986.11635	9519.9875
2988.55388	9491.5875
2990.98993	9427.9875
2993.4245	9417.6875
2995.85758	9377.0875
2998.28917	9344.5875
3000.71928	9329.6875
3003.14791	9312.8875
3005.57506	9294.7875
3008.00073	9277.0875
3010.42493	9231.6875
3012.84764	9238.0875
3015.26888	9201.0875
3017.68865	9174.2875
3020.10694	9149.3875
3022.52376	9128.7875
3024.9391	9094.8875
3027.35298	9096.7875
3029.76539	9069.3875
3032.17632	9086.1875
3034.5858	9099.8875
3036.9938	9072.4875
3039.40034	9068.6875
3041.80542	9050.5875
3044.20903	9044.4875
3046.61118	9014.7875
3049.01187	8984.1875
3051.4111	8976.2875
3053.80888	8942.9875
3056.20519	8926.5875
3058.60005	8905.0875
3060.99345	8872.6875
3063.3854	8845.3875
3065.7759	8821.0875
3068.16494	8782.0875
3070.55254	8740.2875
3072.93868	8715.1875
3075.32338	8669.1875
3077.70662	8664.5875
3080.08842	8624.2875
3082.46878	8606.8875
3084.84769	8598.0875
3087.22515	8591.1875
3089.60118	8583.0875
3091.97576	8578.7875
3094.3489	8576.0875
3096.72061	8580.3875
3099.09087	8572.0875
3101.4597	8549.1875
3103.82709	8538.3875
3106.19305	8531.6875
3108.55757	8503.9875
3110.92066	8479.2875
3113.28232	8461.0875
3115.64255	8448.1875
3118.00134	8416.7875
3120.35871	8406.4875
3122.71466	8373.8875
3125.06917	8360.0875
3127.42226	8331.8875
3129.77393	8340.8875
3132.12417	8298.0875
3134.47299	8316.5875
3136.82039	8297.1875
3139.16636	8300.6875
3141.51092	8273.1875
3143.85406	8281.5875
3146.19579	8277.1875
3148.53609	8249.9875
3150.87499	8273.1875
3153.21246	8278.9875
3155.54853	8301.7875
3157.88318	8310.7875
3160.21642	8323.5875
3162.54826	8291.3875
3164.87868	8299.9875
3167.2077	8281.1875
3169.5353	8301.8875
3171.86151	8293.9875
3174.18631	8277.9875
3176.5097	8273.6875
3178.83169	8243.6875
3181.15228	8247.0875
3183.47147	8226.6875
3185.78926	8214.0875
3188.10565	8201.8875
3190.42065	8183.1875
3192.73424	8178.4875
3195.04645	8154.9875
3197.35725	8148.2875
3199.66667	8141.6875
3201.97469	8129.9875
3204.28132	8104.2875
3206.58656	8122.8875
3208.8904	8132.0875
3211.19287	8123.4875
3213.49394	8113.8875
3215.79363	8104.9875
3218.09193	8120.0875
3220.38884	8096.7875
3222.68438	8120.3875
3224.97853	8110.7875
3227.2713	8094.9875
3229.56269	8074.7875
3231.8527	8088.9875
3234.14133	8072.4875
3236.42858	8042.2875
3238.71446	8023.4875
3240.99896	8009.1875
3243.28209	7989.7875
3245.56384	7980.7875
3247.84423	7975.2875
3250.12324	7978.1875
3252.40088	7960.6875
3254.67715	7917.0875
3256.95205	7896.6875
3259.22558	7889.8875
3261.49775	7874.8875
3263.76855	7853.6875
3266.03799	7828.5875
3268.30606	7830.9875
3270.57277	7791.5875
3272.83812	7774.6875
3275.10211	7763.3875
3277.36474	7763.6875
3279.62601	7752.3875
3281.88593	7741.7875
3284.14448	7762.8875
3286.40168	7738.7875
3288.65753	7734.5875
3290.91202	7731.8875
3293.16516	7719.6875
3295.41695	7686.9875
3297.66738	7640.2875
3299.91647	7579.7875
3302.16421	7532.4875
3304.4106	7483.6875
3306.65564	7441.5875
3308.89933	7366.1875
3311.14169	7323.2875
3313.38269	7252.4875
3315.62236	7187.6875
3317.86068	7110.5875
3320.09766	7066.4875
3322.3333	7008.0875
3324.5676	6967.5875
3326.80056	6884.0875
3329.03219	6810.7875
3331.26248	2.2875
3333.49143	-0.1125
3335.71905	-0.7125
