Data from AgNPs_FTO_APTES_UA_5uM_CRN_10uM_R6G_10uM_NaF_0.1M_Addition_RamanShift__26__12-53-36-746.txt Node

Date: Mon Feb 07 12:53:36 GMT 2022
User: TCL
Spectrometer: QEP01345
Trigger mode: 4
Integration Time (sec): 7.000000E0
Scans to average: 10
Electric dark correction enabled: true
Nonlinearity correction enabled: false
Boxcar width: 0
XAxis mode: Raman Shifts
Number of Pixels in Spectrum: 1044
>>>>>Begin Spectral Data<<<<<
46.04893	-0.1125
50.45542	-0.8125
54.85868	-0.4125
59.25871	0.4875
63.6555	82.1875
68.04907	89.0875
72.43941	89.0875
76.82654	91.1875
81.21044	97.7875
85.59113	99.0875
89.96862	107.2875
94.34289	105.8875
98.71396	110.1875
103.08183	113.6875
107.4465	115.4875
111.80798	119.1875
116.16626	126.1875
120.52136	128.1875
124.87327	138.4875
129.222	147.8875
133.56755	157.8875
137.90993	172.6875
142.24913	188.5875
146.58517	216.1875
150.91804	251.9875
155.24774	309.0875
159.57429	382.4875
163.89768	497.6875
168.21792	673.2875
172.53501	924.5875
176.84895	1283.9875
181.15975	1807.4875
185.46741	2541.0875
189.77193	3498.5875
194.07331	4646.9875
198.37157	5978.4875
202.6667	7387.3875
206.9587	8756.7875
211.24758	10142.2875
215.53334	11574.6875
219.81599	13108.7875
224.09553	14897.1875
228.37195	16861.7875
232.64527	18984.9875
236.91549	21133.1875
241.18261	23197.7875
245.44663	24965.0875
249.70755	26429.3875
253.96539	27735.1875
258.22014	28918.9875
262.4718	29959.7875
266.72039	30679.0875
270.96589	31300.4875
275.20832	31540.1875
279.44768	31541.2875
283.68397	31397.8875
287.91719	31387.9875
292.14735	31609.7875
296.37445	32012.2875
300.59849	32627.0875
304.81948	33215.4875
309.03742	33459.4875
313.25231	33064.0875
317.46415	31605.1875
321.67296	29605.2875
325.87872	27951.4875
330.08145	27100.2875
334.28114	26991.5875
338.47781	27321.8875
342.67145	27901.1875
346.86207	28738.3875
351.04966	30006.9875
355.23424	31366.7875
359.4158	32423.8875
363.59435	32891.9875
367.76989	32944.6875
371.94243	32949.1875
376.11196	32879.3875
380.27849	32777.8875
384.44203	32571.4875
388.60257	32386.8875
392.76012	32487.1875
396.91468	32794.2875
401.06626	33639.9875
405.21485	34233.4875
409.36047	33759.8875
413.50311	32431.4875
417.64277	31252.2875
421.77947	30703.9875
425.9132	30606.3875
430.04396	30727.5875
434.17176	30907.6875
438.2966	31279.8875
442.41849	31924.9875
446.53742	32827.8875
450.6534	33901.3875
454.76644	34692.7875
458.87653	34922.4875
462.98368	34801.5875
467.08789	34415.5875
471.18916	33815.7875
475.2875	33312.1875
479.38291	32949.1875
483.4754	32586.4875
487.56496	32054.3875
491.6516	31413.3875
495.73531	30933.0875
499.81612	30775.9875
503.89401	30893.4875
507.96899	31117.7875
512.04106	31138.2875
516.11023	31180.2875
520.1765	31127.0875
524.23987	30780.4875
528.30034	30263.3875
532.35792	29782.2875
536.41261	29283.7875
540.46441	28789.7875
544.51333	28742.6875
548.55936	29223.4875
552.60252	30214.8875
556.64279	31218.4875
560.6802	31820.6875
564.71473	32306.1875
568.7464	33364.4875
572.7752	34420.2875
576.80114	34252.5875
580.82422	33758.5875
584.84444	33597.6875
588.86181	33564.0875
592.87633	33740.5875
596.888	34042.8875
600.89682	34745.7875
604.9028	37334.8875
608.90594	44296.8875
612.90624	53274.4875
616.90371	50600.6875
620.89834	37432.8875
624.89015	31364.3875
628.87913	30438.6875
632.86528	30597.6875
636.84862	30643.3875
640.82913	29926.2875
644.80683	28597.5875
648.78172	27683.8875
652.75379	27564.3875
656.72306	28372.2875
660.68952	29553.6875
664.65319	29446.2875
668.61405	28354.9875
672.57211	27830.9875
676.52738	27760.4875
680.47986	27772.1875
684.42955	27548.6875
688.37646	27478.5875
692.32058	27573.3875
696.26192	27926.2875
700.20048	28372.9875
704.13626	28660.4875
708.06928	28671.8875
711.99952	28415.9875
715.927	28249.9875
719.85171	28257.6875
723.77365	28134.6875
727.69284	27779.5875
731.60928	27433.5875
735.52295	27323.7875
739.43388	27307.6875
743.34206	27469.5875
747.24749	27676.7875
751.15017	28058.8875
755.05012	28710.2875
758.94733	30116.3875
762.8418	32910.9875
766.73354	37702.7875
770.62254	42457.9875
774.50882	44067.7875
778.39237	41369.6875
782.27321	36279.7875
786.15132	31784.5875
790.02671	29187.5875
793.89938	27970.8875
797.76935	27432.3875
801.6366	27225.0875
805.50115	27075.6875
809.36299	26896.4875
813.22213	26736.5875
817.07857	26678.7875
820.93231	26642.6875
824.78336	26652.1875
828.63172	26664.8875
832.47738	26703.3875
836.32036	26685.5875
840.16066	26672.2875
843.99827	26671.8875
847.8332	26539.2875
851.66546	26388.3875
855.49504	26364.1875
859.32195	26273.0875
863.1462	26058.2875
866.96777	25923.0875
870.78668	25894.7875
874.60293	25868.2875
878.41652	25851.1875
882.22745	26026.6875
886.03573	26150.6875
889.84136	26104.7875
893.64433	25922.1875
897.44466	25874.9875
901.24235	25791.3875
905.0374	25760.0875
908.8298	25718.2875
912.61957	25730.9875
916.40671	26069.2875
920.19121	26543.7875
923.97308	26859.9875
927.75233	27043.8875
931.52895	27006.8875
935.30295	26582.8875
939.07433	25855.6875
942.84309	25203.9875
946.60924	24830.7875
950.37278	24661.1875
954.13371	24496.5875
957.89203	24360.5875
961.64774	24347.0875
965.40086	24309.6875
969.15137	24230.5875
972.89929	24092.2875
976.64461	24008.8875
980.38733	24008.9875
984.12747	24114.4875
987.86502	24318.0875
991.59999	24662.7875
995.33237	25121.6875
999.06217	25989.8875
1002.78939	27043.4875
1006.51404	27817.6875
1010.23611	28325.4875
1013.95561	28719.1875
1017.67255	28675.0875
1021.38692	28210.1875
1025.09872	27798.1875
1028.80796	27869.3875
1032.51465	28513.8875
1036.21877	29190.8875
1039.92035	29356.0875
1043.61937	29033.0875
1047.31584	28383.9875
1051.00976	27726.9875
1054.70114	27408.7875
1058.38998	27447.3875
1062.07627	27712.9875
1065.76003	27992.1875
1069.44126	28204.0875
1073.11995	28458.4875
1076.79611	28754.7875
1080.46974	29009.9875
1084.14085	29474.7875
1087.80943	30124.7875
1091.47549	30519.7875
1095.13903	30251.1875
1098.80005	29555.2875
1102.45857	28633.7875
1106.11456	28029.6875
1109.76805	27948.2875
1113.41903	28319.8875
1117.06751	28970.7875
1120.71348	29764.3875
1124.35696	30687.8875
1127.99793	31444.3875
1131.63641	31500.6875
1135.2724	30692.7875
1138.90589	29839.7875
1142.5369	29256.1875
1146.16542	28979.4875
1149.79145	28965.0875
1153.415	29234.0875
1157.03607	29788.6875
1160.65467	30629.4875
1164.27079	31990.4875
1167.88443	33981.2875
1171.49561	36909.1875
1175.10432	41177.3875
1178.71056	46653.1875
1182.31434	51171.8875
1185.91565	53118.6875
1189.51451	52842.5875
1193.11091	50579.9875
1196.70485	47308.0875
1200.29634	44335.0875
1203.88538	41925.0875
1207.47197	39704.3875
1211.05612	37844.4875
1214.63782	36682.0875
1218.21708	36131.1875
1221.79391	36053.0875
1225.36829	36143.0875
1228.94024	36046.1875
1232.50976	35753.4875
1236.07685	35473.8875
1239.6415	35283.4875
1243.20374	35143.2875
1246.76355	35242.6875
1250.32093	35811.1875
1253.8759	36736.7875
1257.42845	38053.8875
1260.97859	39369.4875
1264.52631	40597.0875
1268.07163	41816.2875
1271.61453	43114.2875
1275.15503	44474.8875
1278.69312	45647.1875
1282.22882	46592.3875
1285.76211	47752.7875
1289.29301	49236.5875
1292.82151	50974.7875
1296.34761	53171.3875
1299.87133	56153.9875
1303.39266	60252.4875
1306.9116	65845.7875
1310.42815	72136.5875
1313.94233	76498.9875
1317.45412	76953.7875
1320.96354	74616.7875
1324.47058	71437.9875
1327.97525	68437.1875
1331.47754	66308.0875
1334.97747	65366.6875
1338.47502	65359.5875
1341.97022	65803.5875
1345.46305	66043.3875
1348.95352	65912.5875
1352.44163	66307.6875
1355.92738	68472.2875
1359.41078	73982.6875
1362.89183	80021.9875
1366.37053	78400.5875
1369.84688	68967.1875
1373.32088	59082.0875
1376.79254	52741.7875
1380.26186	49980.3875
1383.72883	49101.2875
1387.19347	48469.3875
1390.65578	47861.1875
1394.11575	47633.2875
1397.57339	48157.9875
1401.0287	49225.4875
1404.48168	50327.9875
1407.93234	50986.9875
1411.38068	50791.8875
1414.82669	49558.2875
1418.27039	47382.7875
1421.71177	44998.4875
1425.15083	43054.2875
1428.58758	41838.2875
1432.02203	41628.9875
1435.45416	42082.2875
1438.88399	42802.3875
1442.31151	43485.5875
1445.73673	44198.0875
1449.15965	45074.7875
1452.58027	45665.0875
1455.9986	45992.7875
1459.41463	46355.1875
1462.82837	47072.4875
1466.23982	47953.9875
1469.64898	48807.2875
1473.05586	49233.5875
1476.46045	49208.9875
1479.86276	49101.4875
1483.26279	49218.5875
1486.66054	49513.4875
1490.05602	50144.2875
1493.44922	51162.8875
1496.84016	52590.0875
1500.22882	55087.3875
1503.61521	58702.0875
1506.99934	63388.4875
1510.38121	68165.4875
1513.76081	71067.2875
1517.13816	69729.9875
1520.51324	64536.7875
1523.88607	58858.3875
1527.25665	54722.3875
1530.62498	52307.0875
1533.99105	50827.7875
1537.35488	49866.8875
1540.71647	49092.5875
1544.07581	48294.9875
1547.4329	47408.0875
1550.78776	46606.2875
1554.14038	46251.0875
1557.49077	46351.8875
1560.83892	46853.2875
1564.18484	47478.5875
1567.52853	47963.6875
1570.86999	48247.8875
1574.20922	48619.1875
1577.54624	48760.0875
1580.88103	47837.1875
1584.2136	46763.9875
1587.54395	47000.3875
1590.87208	48990.3875
1594.19801	52222.2875
1597.52172	55692.2875
1600.84321	56809.6875
1604.16251	54295.9875
1607.47959	49857.6875
1610.79447	45377.8875
1614.10715	41108.1875
1617.41763	37663.2875
1620.7259	35244.9875
1624.03199	34038.0875
1627.33587	33929.3875
1630.63757	34972.7875
1633.93707	37376.9875
1637.23439	41016.8875
1640.52951	45780.9875
1643.82246	51345.2875
1647.11321	56462.2875
1650.40179	59012.9875
1653.68819	56530.5875
1656.97241	49209.4875
1660.25446	40961.7875
1663.53433	34734.6875
1666.81203	30798.9875
1670.08756	28339.0875
1673.36092	26832.4875
1676.63211	25893.4875
1679.90115	25222.7875
1683.16801	24727.4875
1686.43272	24399.1875
1689.69527	24081.1875
1692.95567	23900.1875
1696.2139	23730.1875
1699.46999	23586.3875
1702.72392	23510.5875
1705.97571	23485.9875
1709.22535	23434.4875
1712.47284	23394.2875
1715.71819	23380.0875
1718.96139	23324.2875
1722.20246	23248.6875
1725.44139	23190.6875
1728.67818	23002.2875
1731.91284	22812.5875
1735.14537	22630.0875
1738.37576	22532.7875
1741.60403	22417.2875
1744.83017	22336.0875
1748.05418	22273.6875
1751.27607	22242.6875
1754.49584	22189.6875
1757.71349	22175.0875
1760.92903	22136.9875
1764.14244	22087.1875
1767.35375	22093.4875
1770.56294	22022.9875
1773.77002	22005.3875
1776.97499	21949.5875
1780.17785	21868.3875
1783.37861	21823.7875
1786.57727	21772.9875
1789.77382	21752.2875
1792.96828	21751.6875
1796.16064	21734.8875
1799.3509	21708.7875
1802.53907	21637.0875
1805.72514	21568.5875
1808.90913	21538.6875
1812.09102	21459.9875
1815.27083	21399.2875
1818.44856	21362.8875
1821.6242	21291.8875
1824.79776	21290.9875
1827.96924	21252.8875
1831.13864	21276.9875
1834.30597	21285.7875
1837.47122	21249.7875
1840.6344	21219.8875
1843.7955	21273.5875
1846.95454	21252.1875
1850.11151	21283.3875
1853.26642	21277.5875
1856.41926	21253.0875
1859.57004	21290.1875
1862.71876	21325.3875
1865.86542	21331.4875
1869.01003	21318.9875
1872.15258	21305.3875
1875.29308	21343.0875
1878.43152	21359.5875
1881.56792	21383.0875
1884.70227	21392.6875
1887.83457	21423.3875
1890.96482	21418.4875
1894.09304	21429.5875
1897.21921	21456.7875
1900.34335	21488.8875
1903.46544	21467.8875
1906.58551	21526.2875
1909.70353	21524.6875
1912.81953	21514.0875
1915.93349	21494.3875
1919.04543	21447.3875
1922.15534	21427.3875
1925.26322	21335.6875
1928.36908	21249.2875
1931.47292	21162.8875
1934.57473	21031.9875
1937.67453	20918.2875
1940.77232	20781.3875
1943.86808	20717.5875
1946.96184	20582.2875
1950.05358	20483.8875
1953.14331	20422.0875
1956.23103	20319.3875
1959.31675	20227.9875
1962.40046	20145.5875
1965.48217	20078.8875
1968.56188	20050.2875
1971.63959	19974.6875
1974.7153	19909.1875
1977.78901	19845.5875
1980.86073	19797.2875
1983.93046	19686.5875
1986.99819	19612.3875
1990.06394	19558.6875
1993.1277	19509.5875
1996.18947	19485.7875
1999.24925	19412.9875
2002.30706	19363.9875
2005.36288	19287.9875
2008.41672	19249.2875
2011.46859	19143.1875
2014.51848	19121.6875
2017.56639	19088.4875
2020.61233	19032.7875
2023.6563	18969.3875
2026.6983	18891.6875
2029.73833	18870.8875
2032.7764	18826.1875
2035.8125	18771.2875
2038.84664	18730.0875
2041.87881	18726.9875
2044.90903	18714.4875
2047.93729	18670.8875
2050.96359	18652.5875
2053.98794	18587.1875
2057.01034	18605.2875
2060.03078	18577.7875
2063.04927	18578.2875
2066.06582	18566.0875
2069.08042	18549.1875
2072.09307	18522.8875
2075.10378	18475.5875
2078.11255	18478.5875
2081.11938	18467.2875
2084.12426	18427.8875
2087.12722	18436.2875
2090.12824	18405.0875
2093.12732	18362.8875
2096.12447	18388.1875
2099.11969	18410.5875
2102.11299	18389.8875
2105.10435	18383.1875
2108.09379	18379.0875
2111.08131	18408.1875
2114.0669	18453.3875
2117.05057	18445.1875
2120.03233	18422.3875
2123.01216	18455.0875
2125.99008	18437.2875
2128.96609	18499.1875
2131.94018	18477.5875
2134.91236	18471.1875
2137.88263	18508.0875
2140.851	18497.2875
2143.81746	18538.8875
2146.78201	18497.0875
2149.74466	18492.6875
2152.7054	18472.4875
2155.66425	18483.0875
2158.6212	18436.8875
2161.57625	18439.0875
2164.52941	18457.0875
2167.48067	18397.5875
2170.43004	18424.0875
2173.37752	18388.9875
2176.32311	18442.9875
2179.26681	18418.7875
2182.20863	18409.8875
2185.14856	18416.9875
2188.08661	18422.0875
2191.02278	18462.6875
2193.95707	18414.8875
2196.88948	18399.7875
2199.82001	18397.6875
2202.74867	18381.6875
2205.67545	18370.2875
2208.60037	18346.9875
2211.52341	18337.2875
2214.44458	18337.1875
2217.36388	18330.1875
2220.28132	18261.1875
2223.1969	18198.2875
2226.11061	18214.1875
2229.02246	18142.9875
2231.93245	18106.5875
2234.84058	18052.2875
2237.74686	18028.2875
2240.65128	18028.0875
2243.55385	17958.7875
2246.45456	17943.2875
2249.35343	17946.9875
2252.25044	17916.2875
2255.14561	17876.1875
2258.03893	17889.8875
2260.93041	17870.0875
2263.82004	17822.9875
2266.70783	17802.8875
2269.59378	17739.4875
2272.4779	17673.7875
2275.36017	17616.2875
2278.24061	17604.8875
2281.11922	17578.2875
2283.996	17528.3875
2286.87094	17519.8875
2289.74405	17496.2875
2292.61534	17473.6875
2295.4848	17446.4875
2298.35243	17414.8875
2301.21824	17434.4875
2304.08223	17459.6875
2306.94439	17477.3875
2309.80474	17477.0875
2312.66327	17524.5875
2315.51999	17495.0875
2318.37489	17469.9875
2321.22797	17495.5875
2324.07925	17464.6875
2326.92871	17413.6875
2329.77637	17402.4875
2332.62222	17424.6875
2335.46626	17369.2875
2338.3085	17419.4875
2341.14893	17408.0875
2343.98756	17451.5875
2346.8244	17483.4875
2349.65943	17497.4875
2352.49267	17503.0875
2355.32411	17515.5875
2358.15376	17529.8875
2360.98161	17484.4875
2363.80768	17477.0875
2366.63195	17473.4875
2369.45444	17460.2875
2372.27514	17420.3875
2375.09405	17392.8875
2377.91118	17349.8875
2380.72652	17280.9875
2383.54009	17217.9875
2386.35187	17202.0875
2389.16188	17128.5875
2391.97011	17084.6875
2394.77657	17084.4875
2397.58125	17021.9875
2400.38416	17002.9875
2403.18529	16981.1875
2405.98466	16951.7875
2408.78226	16885.8875
2411.57809	16848.7875
2414.37216	16852.9875
2417.16446	16804.6875
2419.955	16796.8875
2422.74378	16792.7875
2425.5308	16725.2875
2428.31606	16747.6875
2431.09956	16733.2875
2433.88131	16739.9875
2436.6613	16772.8875
2439.43954	16757.2875
2442.21603	16712.0875
2444.99077	16724.4875
2447.76377	16733.9875
2450.53501	16741.0875
2453.30451	16707.3875
2456.07226	16721.0875
2458.83827	16703.5875
2461.60254	16690.7875
2464.36507	16687.8875
2467.12586	16686.7875
2469.88492	16704.2875
2472.64224	16698.0875
2475.39782	16752.7875
2478.15167	16798.5875
2480.90379	16768.1875
2483.65417	16814.2875
2486.40283	16844.1875
2489.14976	16862.2875
2491.89497	16889.5875
2494.63845	16890.5875
2497.3802	16887.8875
2500.12024	16891.0875
2502.85855	16871.8875
2505.59514	16839.1875
2508.33002	16824.9875
2511.06318	16826.8875
2513.79462	16758.7875
2516.52435	16734.9875
2519.25237	16723.3875
2521.97867	16690.9875
2524.70327	16660.2875
2527.42616	16652.1875
2530.14734	16625.0875
2532.86681	16633.4875
2535.58458	16661.2875
2538.30065	16634.2875
2541.01501	16635.7875
2543.72768	16604.3875
2546.43864	16616.5875
2549.14791	16585.7875
2551.85548	16590.9875
2554.56136	16575.0875
2557.26554	16537.1875
2559.96803	16518.8875
2562.66883	16510.6875
2565.36794	16457.9875
2568.06536	16448.0875
2570.7611	16434.4875
2573.45514	16440.8875
2576.14751	16456.0875
2578.83819	16397.3875
2581.52719	16438.7875
2584.21451	16418.2875
2586.90015	16460.3875
2589.58411	16475.2875
2592.2664	16460.3875
2594.94701	16443.4875
2597.62594	16443.9875
2600.30321	16406.9875
2602.9788	16441.5875
2605.65273	16406.2875
2608.32498	16448.5875
2610.99557	16424.3875
2613.66449	16448.3875
2616.33175	16479.2875
2618.99734	16462.9875
2621.66128	16470.6875
2624.32355	16443.7875
2626.98416	16476.1875
2629.64311	16461.3875
2632.30041	16488.7875
2634.95605	16468.4875
2637.61004	16422.5875
2640.26238	16421.0875
2642.91306	16372.2875
2645.56209	16326.3875
2648.20948	16348.9875
2650.85521	16336.1875
2653.4993	16333.7875
2656.14175	16311.6875
2658.78255	16328.3875
2661.42171	16367.8875
2664.05923	16387.9875
2666.6951	16390.7875
2669.32934	16456.7875
2671.96194	16468.4875
2674.59291	16461.7875
2677.22224	16491.8875
2679.84993	16492.5875
2682.476	16446.9875
2685.10043	16439.0875
2687.72324	16400.9875
2690.34441	16377.8875
2692.96396	16370.3875
2695.58188	16416.6875
2698.19818	16356.2875
2700.81285	16375.6875
2703.4259	16347.6875
2706.03733	16412.7875
2708.64714	16382.3875
2711.25533	16396.1875
2713.86191	16378.2875
2716.46687	16386.8875
2719.07021	16409.8875
2721.67194	16463.9875
2724.27206	16435.8875
2726.87057	16464.9875
2729.46747	16455.5875
2732.06276	16503.6875
2734.65644	16478.5875
2737.24852	16447.4875
2739.83899	16435.8875
2742.42786	16444.0875
2745.01513	16437.5875
2747.60079	16393.4875
2750.18486	16387.0875
2752.76733	16379.6875
2755.3482	16326.5875
2757.92747	16375.7875
2760.50515	16376.1875
2763.08123	16355.2875
2765.65573	16354.3875
2768.22863	16364.6875
2770.79994	16341.3875
2773.36967	16350.0875
2775.9378	16331.9875
2778.50435	16307.9875
2781.06932	16348.5875
2783.6327	16365.3875
2786.1945	16357.1875
2788.75471	16356.3875
2791.31335	16329.5875
2793.87041	16274.9875
2796.42589	16212.1875
2798.97979	16243.1875
2801.53212	16237.0875
2804.08288	16198.5875
2806.63206	16135.3875
2809.17967	16138.6875
2811.72571	16094.3875
2814.27018	16106.2875
2816.81308	16104.7875
2819.35442	16067.8875
2821.89419	16081.0875
2824.43239	16084.3875
2826.96904	16122.4875
2829.50412	16121.1875
2832.03763	16062.3875
2834.56959	16051.7875
2837.1	16019.7875
2839.62884	16040.8875
2842.15613	16027.2875
2844.68186	16086.3875
2847.20604	16143.9875
2849.72867	16144.6875
2852.24974	16132.3875
2854.76927	16107.4875
2857.28724	16130.5875
2859.80367	16117.0875
2862.31855	16068.6875
2864.83189	16058.3875
2867.34368	16037.3875
2869.85393	16076.0875
2872.36264	16006.1875
2874.8698	15996.0875
2877.37543	15989.4875
2879.87952	16013.1875
2882.38207	16013.5875
2884.88308	15952.3875
2887.38256	15994.1875
2889.88051	15973.9875
2892.37692	15979.7875
2894.8718	15985.0875
2897.36515	16003.5875
2899.85698	16036.8875
2902.34727	16049.8875
2904.83604	16059.8875
2907.32328	16120.7875
2909.809	16093.0875
2912.29319	16133.9875
2914.77587	16108.2875
2917.25702	16105.3875
2919.73665	16075.9875
2922.21476	16110.6875
2924.69136	16069.0875
2927.16644	16060.8875
2929.64	15985.3875
2932.11205	15958.3875
2934.58258	15905.5875
2937.05161	15866.4875
2939.51912	15886.4875
2941.98513	15874.3875
2944.44962	15795.8875
2946.91261	15754.3875
2949.37409	15764.1875
2951.83407	15739.5875
2954.29254	15717.8875
2956.74951	15705.7875
2959.20498	15665.6875
2961.65895	15667.3875
2964.11142	15668.2875
2966.56239	15625.2875
2969.01186	15594.9875
2971.45984	15584.1875
2973.90632	15535.0875
2976.35131	15497.4875
2978.7948	15472.8875
2981.23681	15411.2875
2983.67732	15393.1875
2986.11635	15338.4875
2988.55388	15335.1875
2990.98993	15304.3875
2993.4245	15227.6875
2995.85758	15166.1875
2998.28917	15152.1875
3000.71928	15164.3875
3003.14791	15121.4875
3005.57506	15114.6875
3008.00073	15077.9875
3010.42493	14942.3875
3012.84764	15032.6875
3015.26888	15019.3875
3017.68865	14965.7875
3020.10694	14952.0875
3022.52376	14891.0875
3024.9391	14869.3875
3027.35298	14871.7875
3029.76539	14834.7875
3032.17632	14804.1875
3034.5858	14816.0875
3036.9938	14780.9875
3039.40034	14766.1875
3041.80542	14775.9875
3044.20903	14723.7875
3046.61118	14700.7875
3049.01187	14677.7875
3051.4111	14680.2875
3053.80888	14622.5875
3056.20519	14618.6875
3058.60005	14562.6875
3060.99345	14537.3875
3063.3854	14479.4875
3065.7759	14423.8875
3068.16494	14395.2875
3070.55254	14326.0875
3072.93868	14268.3875
3075.32338	14246.8875
3077.70662	14209.2875
3080.08842	14150.3875
3082.46878	14123.5875
3084.84769	14126.3875
3087.22515	14099.1875
3089.60118	14113.2875
3091.97576	14068.7875
3094.3489	14060.8875
3096.72061	14037.2875
3099.09087	14036.9875
3101.4597	14035.8875
3103.82709	14031.8875
3106.19305	14035.8875
3108.55757	13984.3875
3110.92066	13930.0875
3113.28232	13935.9875
3115.64255	13888.7875
3118.00134	13860.2875
3120.35871	13832.9875
3122.71466	13805.2875
3125.06917	13763.8875
3127.42226	13754.3875
3129.77393	13732.5875
3132.12417	13655.4875
3134.47299	13690.1875
3136.82039	13702.4875
3139.16636	13713.9875
3141.51092	13654.0875
3143.85406	13663.9875
3146.19579	13643.6875
3148.53609	13651.3875
3150.87499	13633.2875
3153.21246	13653.1875
3155.54853	13651.7875
3157.88318	13642.0875
3160.21642	13661.0875
3162.54826	13649.5875
3164.87868	13675.0875
3167.2077	13655.0875
3169.5353	13636.2875
3171.86151	13634.8875
3174.18631	13614.0875
3176.5097	13629.4875
3178.83169	13604.7875
3181.15228	13600.0875
3183.47147	13544.1875
3185.78926	13568.2875
3188.10565	13563.7875
3190.42065	13547.6875
3192.73424	13539.5875
3195.04645	13506.4875
3197.35725	13513.0875
3199.66667	13483.4875
3201.97469	13493.0875
3204.28132	13492.9875
3206.58656	13518.0875
3208.8904	13482.4875
3211.19287	13526.3875
3213.49394	13521.3875
3215.79363	13525.3875
3218.09193	13520.1875
3220.38884	13495.7875
3222.68438	13521.4875
3224.97853	13498.5875
3227.2713	13477.4875
3229.56269	13486.0875
3231.8527	13459.1875
3234.14133	13443.4875
3236.42858	13427.3875
3238.71446	13380.9875
3240.99896	13349.6875
3243.28209	13335.2875
3245.56384	13336.6875
3247.84423	13291.4875
3250.12324	13307.6875
3252.40088	13270.0875
3254.67715	13259.4875
3256.95205	13264.0875
3259.22558	13244.5875
3261.49775	13258.1875
3263.76855	13240.9875
3266.03799	13166.5875
3268.30606	13157.5875
3270.57277	13153.5875
3272.83812	13109.2875
3275.10211	13098.6875
3277.36474	13065.6875
3279.62601	13066.5875
3281.88593	13031.3875
3284.14448	13057.5875
3286.40168	13016.6875
3288.65753	13026.3875
3290.91202	13049.8875
3293.16516	13010.6875
3295.41695	12953.4875
3297.66738	12899.1875
3299.91647	12859.9875
3302.16421	12774.0875
3304.4106	12725.7875
3306.65564	12612.1875
3308.89933	12507.7875
3311.14169	12430.0875
3313.38269	12332.0875
3315.62236	12254.3875
3317.86068	12176.4875
3320.09766	12047.0875
3322.3333	11960.8875
3324.5676	11911.1875
3326.80056	11710.4875
3329.03219	11634.3875
3331.26248	3.4875
3333.49143	-1.8125
3335.71905	-0.3125
