Data from AgNPs_FTO_APTES_UA_5uM_CRN_200uM_R6G_10uM_NaF_0.1M_Addition_RamanShift__6__16-06-51-768.txt Node

Date: Mon Feb 07 16:06:51 GMT 2022
User: TCL
Spectrometer: QEP01345
Trigger mode: 4
Integration Time (sec): 7.000000E0
Scans to average: 10
Electric dark correction enabled: true
Nonlinearity correction enabled: false
Boxcar width: 0
XAxis mode: Raman Shifts
Number of Pixels in Spectrum: 1044
>>>>>Begin Spectral Data<<<<<
46.04893	-0.8
50.45542	0.2
54.85868	0.7
59.25871	-0.9
63.6555	77.7
68.04907	82.2
72.43941	87.2
76.82654	86.4
81.21044	90.6
85.59113	92.4
89.96862	95.4
94.34289	100.2
98.71396	102.9
103.08183	108
107.4465	113.1
111.80798	116.6
116.16626	116
120.52136	127
124.87327	130.9
129.222	140.6
133.56755	148.3
137.90993	165.1
142.24913	186.8
146.58517	209.6
150.91804	247.1
155.24774	305.9
159.57429	384.3
163.89768	493.3
168.21792	667.6
172.53501	913.4
176.84895	1267.4
181.15975	1790.4
185.46741	2520.6
189.77193	3488.3
194.07331	4682.7
198.37157	6020.8
202.6667	7426.1
206.9587	8820
211.24758	10237.4
215.53334	11608.9
219.81599	13105.8
224.09553	14691.9
228.37195	16449.9
232.64527	18409.4
236.91549	20394.6
241.18261	22428.1
245.44663	24285.9
249.70755	25997.7
253.96539	27493.2
258.22014	28737.2
262.4718	29798
266.72039	30530.7
270.96589	30972.5
275.20832	31203.7
279.44768	31155.5
283.68397	30987.7
287.91719	30926.4
292.14735	30994.9
296.37445	31169
300.59849	31473.6
304.81948	31634.9
309.03742	31515.7
313.25231	31115.4
317.46415	30348.5
321.67296	29369.1
325.87872	28501.9
330.08145	28014.7
334.28114	27928.3
338.47781	28015.1
342.67145	28254.9
346.86207	28638.5
351.04966	29016.4
355.23424	29388.5
359.4158	29723.1
363.59435	29953.7
367.76989	30109.5
371.94243	30278.8
376.11196	30348.5
380.27849	30412.8
384.44203	30548
388.60257	30821.5
392.76012	31149.9
396.91468	31568.6
401.06626	32014.4
405.21485	32315.2
409.36047	32100.1
413.50311	31629.1
417.64277	31232.5
421.77947	31146.9
425.9132	31160.8
430.04396	31248.6
434.17176	31503.3
438.2966	31787.6
442.41849	32325.1
446.53742	33194.3
450.6534	34143.4
454.76644	34884.9
458.87653	35241.4
462.98368	35174.8
467.08789	35078.1
471.18916	34854.8
475.2875	34797.5
479.38291	34903.4
483.4754	34791.8
487.56496	34213.7
491.6516	33294.8
495.73531	32440.8
499.81612	31878
503.89401	31812.9
507.96899	31917.2
512.04106	31943.2
516.11023	31809.3
520.1765	31500.2
524.23987	31122.9
528.30034	30761.3
532.35792	30480.8
536.41261	30153.3
540.46441	29858.8
544.51333	29918.2
548.55936	30365.9
552.60252	31209.8
556.64279	32160
560.6802	32840
564.71473	33406.6
568.7464	34314.3
572.7752	35590.6
576.80114	36736.3
580.82422	37537.9
584.84444	38082.9
588.86181	38702.5
592.87633	39066.7
596.888	38558.9
600.89682	37482.7
604.9028	37243.9
608.90594	38851.5
612.90624	40801.1
616.90371	38282.2
620.89834	32683.4
624.89015	30276.1
628.87913	29982.8
632.86528	30288.4
636.84862	30366.6
640.82913	30027.1
644.80683	29420.9
648.78172	28878.2
652.75379	28758.4
656.72306	28955
660.68952	29299.1
664.65319	29063.3
668.61405	28668.7
672.57211	28520
676.52738	28610.2
680.47986	28689.5
684.42955	28562.4
688.37646	28447.7
692.32058	28503.6
696.26192	28767.7
700.20048	29039.9
704.13626	29331.5
708.06928	29474
711.99952	29433.8
715.927	29351.1
719.85171	29386.7
723.77365	29171.3
727.69284	28821.2
731.60928	28505.6
735.52295	28319.9
739.43388	28295.3
743.34206	28273.3
747.24749	28480.8
751.15017	28755.3
755.05012	29376
758.94733	30313.7
762.8418	31956.3
766.73354	34310.1
770.62254	36381
774.50882	36601.2
778.39237	34755.3
782.27321	32316.8
786.15132	30199.4
790.02671	28944.8
793.89938	28295.8
797.76935	28009.8
801.6366	27804.4
805.50115	27750.8
809.36299	27617.5
813.22213	27558.3
817.07857	27540.2
820.93231	27602.7
824.78336	27415.5
828.63172	27261.7
832.47738	27145.1
836.32036	27029.9
840.16066	26965.1
843.99827	26955.5
847.8332	26947.3
851.66546	26935.8
855.49504	26928
859.32195	26935.7
863.1462	26846.7
866.96777	26761
870.78668	26660.6
874.60293	26707.4
878.41652	26727.3
882.22745	26741.5
886.03573	26727.8
889.84136	26753.1
893.64433	26699.6
897.44466	26611
901.24235	26531.9
905.0374	26434.7
908.8298	26445
912.61957	26623.8
916.40671	26974.5
920.19121	27434.9
923.97308	27636.8
927.75233	27392.6
931.52895	27054
935.30295	26556.9
939.07433	26097.4
942.84309	25702.2
946.60924	25431.3
950.37278	25276.1
954.13371	25231.7
957.89203	25289.3
961.64774	25311.1
965.40086	25291.4
969.15137	25212.2
972.89929	24986.3
976.64461	24798.7
980.38733	24679.9
984.12747	24686
987.86502	24795.4
991.59999	24867.6
995.33237	25047.5
999.06217	25334.4
1002.78939	25696.3
1006.51404	26065
1010.23611	26415.5
1013.95561	26717.7
1017.67255	26789.8
1021.38692	26672.4
1025.09872	26258.5
1028.80796	25975.9
1032.51465	25997.9
1036.21877	26109.1
1039.92035	26222.4
1043.61937	26367.7
1047.31584	26396.5
1051.00976	26448
1054.70114	26562.8
1058.38998	26782.5
1062.07627	27206.9
1065.76003	27616.4
1069.44126	27934.9
1073.11995	28318
1076.79611	28568.1
1080.46974	28673.6
1084.14085	28773.2
1087.80943	28948.5
1091.47549	29227.6
1095.13903	29408
1098.80005	29162
1102.45857	28470.2
1106.11456	27874.1
1109.76805	27519.5
1113.41903	27566.8
1117.06751	27775.5
1120.71348	28112.1
1124.35696	28456.8
1127.99793	28946.9
1131.63641	29207.8
1135.2724	28993.7
1138.90589	28761.1
1142.5369	28855.7
1146.16542	29138.3
1149.79145	29589.2
1153.415	30126.8
1157.03607	30780.6
1160.65467	31744.7
1164.27079	33245.7
1167.88443	34954.2
1171.49561	37067.4
1175.10432	39577.7
1178.71056	42724.2
1182.31434	45459.7
1185.91565	46855.8
1189.51451	46869
1193.11091	46019.5
1196.70485	44609.3
1200.29634	42923
1203.88538	41674.1
1207.47197	40910.6
1211.05612	40511.6
1214.63782	39644.2
1218.21708	38386.6
1221.79391	36883.6
1225.36829	35674.3
1228.94024	34891.4
1232.50976	34297.8
1236.07685	33831.6
1239.6415	33580.6
1243.20374	33734.4
1246.76355	34045.5
1250.32093	34440.1
1253.8759	35066.7
1257.42845	35873.5
1260.97859	36849.2
1264.52631	37763.7
1268.07163	38813.2
1271.61453	39816
1275.15503	41034
1278.69312	42427.7
1282.22882	43811
1285.76211	45604.8
1289.29301	47856.7
1292.82151	50719.5
1296.34761	54085
1299.87133	57558.1
1303.39266	60761.2
1306.9116	63356.8
1310.42815	65221.7
1313.94233	66273.9
1317.45412	66228.2
1320.96354	65907.1
1324.47058	65553
1327.97525	65214.5
1331.47754	64769.2
1334.97747	64406.9
1338.47502	63827.1
1341.97022	63135
1345.46305	62496.4
1348.95352	61720.7
1352.44163	60852.7
1355.92738	60655.5
1359.41078	61581.7
1362.89183	62654.7
1366.37053	61277.9
1369.84688	56738.3
1373.32088	51316.2
1376.79254	47856.9
1380.26186	46858.2
1383.72883	47367.7
1387.19347	47963.3
1390.65578	48273.9
1394.11575	48534.9
1397.57339	48940.2
1401.0287	49431
1404.48168	49584
1407.93234	48780.6
1411.38068	47175.9
1414.82669	44726.8
1418.27039	42138.5
1421.71177	39814.6
1425.15083	38019
1428.58758	37089.6
1432.02203	37324.9
1435.45416	38324.1
1438.88399	39693.7
1442.31151	40842.7
1445.73673	41676.7
1449.15965	42559
1452.58027	43285.1
1455.9986	43875.6
1459.41463	44261.3
1462.82837	44710.9
1466.23982	45086.5
1469.64898	45490.8
1473.05586	45631
1476.46045	45449.3
1479.86276	44937
1483.26279	44348.1
1486.66054	43936.2
1490.05602	44038.9
1493.44922	44550.6
1496.84016	45408.9
1500.22882	46757.6
1503.61521	48644
1506.99934	50756.8
1510.38121	52543.9
1513.76081	53029.7
1517.13816	52106.7
1520.51324	50544.1
1523.88607	49435.2
1527.25665	49114.1
1530.62498	49109.5
1533.99105	48922.4
1537.35488	48284.1
1540.71647	47000.8
1544.07581	45335.5
1547.4329	43632.9
1550.78776	42294.9
1554.14038	41391.6
1557.49077	40944.7
1560.83892	40795.7
1564.18484	40866.2
1567.52853	41228.3
1570.86999	41899.1
1574.20922	42944.9
1577.54624	44130.1
1580.88103	44779.1
1584.2136	45270.2
1587.54395	46252.4
1590.87208	47825.2
1594.19801	49608.2
1597.52172	51242.2
1600.84321	51191.2
1604.16251	48770.5
1607.47959	45004.9
1610.79447	41205.8
1614.10715	37756.1
1617.41763	34855.3
1620.7259	32775.4
1624.03199	31638.7
1627.33587	31644.2
1630.63757	32624.4
1633.93707	34801.8
1637.23439	38512.3
1640.52951	43988
1643.82246	50344.8
1647.11321	55596.8
1650.40179	57034.6
1653.68819	53490.7
1656.97241	46562.7
1660.25446	39284.6
1663.53433	33505
1666.81203	29548.9
1670.08756	27063.5
1673.36092	25484.9
1676.63211	24483.8
1679.90115	23801.2
1683.16801	23322.6
1686.43272	22882.5
1689.69527	22584
1692.95567	22410.2
1696.2139	22229.2
1699.46999	22121.5
1702.72392	21997.8
1705.97571	21892.8
1709.22535	21763.7
1712.47284	21677.1
1715.71819	21633
1718.96139	21531.7
1722.20246	21467
1725.44139	21330.3
1728.67818	21188.3
1731.91284	21059.9
1735.14537	20927.3
1738.37576	20848.6
1741.60403	20737.6
1744.83017	20630.9
1748.05418	20550.8
1751.27607	20541.6
1754.49584	20526.3
1757.71349	20476.3
1760.92903	20459.3
1764.14244	20400.5
1767.35375	20351.3
1770.56294	20326.9
1773.77002	20237.4
1776.97499	20157.5
1780.17785	20101.4
1783.37861	20069.6
1786.57727	20021.1
1789.77382	19946.6
1792.96828	19930.1
1796.16064	19878.6
1799.3509	19806.5
1802.53907	19729.7
1805.72514	19684.4
1808.90913	19622.3
1812.09102	19567.9
1815.27083	19475.3
1818.44856	19450.6
1821.6242	19426.2
1824.79776	19398.7
1827.96924	19350
1831.13864	19324.7
1834.30597	19292.8
1837.47122	19261.5
1840.6344	19212.6
1843.7955	19234
1846.95454	19169.4
1850.11151	19142.8
1853.26642	19153
1856.41926	19115.2
1859.57004	19085.7
1862.71876	19083.6
1865.86542	19026.6
1869.01003	19012.1
1872.15258	18964.5
1875.29308	18951
1878.43152	18915.6
1881.56792	18927.4
1884.70227	18838.4
1887.83457	18831.7
1890.96482	18777.1
1894.09304	18747.9
1897.21921	18731.4
1900.34335	18650.2
1903.46544	18637.7
1906.58551	18632.6
1909.70353	18601.6
1912.81953	18525.1
1915.93349	18486.7
1919.04543	18439.6
1922.15534	18436.4
1925.26322	18388
1928.36908	18345.3
1931.47292	18314.4
1934.57473	18281.5
1937.67453	18216.7
1940.77232	18143.8
1943.86808	18062.8
1946.96184	18013.3
1950.05358	17967.4
1953.14331	17858.8
1956.23103	17798.2
1959.31675	17745
1962.40046	17694.1
1965.48217	17683.3
1968.56188	17557.4
1971.63959	17500
1974.7153	17474.2
1977.78901	17402.9
1980.86073	17308.6
1983.93046	17280
1986.99819	17209.5
1990.06394	17177.5
1993.1277	17098
1996.18947	17022.9
1999.24925	17007.5
2002.30706	16941.2
2005.36288	16883.3
2008.41672	16800.5
2011.46859	16753.1
2014.51848	16709.2
2017.56639	16653.5
2020.61233	16598.5
2023.6563	16525
2026.6983	16467.6
2029.73833	16443.3
2032.7764	16367.6
2035.8125	16349
2038.84664	16315.3
2041.87881	16318.4
2044.90903	16253.6
2047.93729	16226.9
2050.96359	16215
2053.98794	16199.7
2057.01034	16162.8
2060.03078	16143.7
2063.04927	16164.2
2066.06582	16138
2069.08042	16090
2072.09307	16047.1
2075.10378	16085.5
2078.11255	16053.3
2081.11938	16021.5
2084.12426	16034.8
2087.12722	15990.7
2090.12824	15979.7
2093.12732	15995.9
2096.12447	15966.8
2099.11969	15927.4
2102.11299	15957.1
2105.10435	15952.7
2108.09379	15940.5
2111.08131	15949.3
2114.0669	15949.5
2117.05057	15936.7
2120.03233	15972.2
2123.01216	15992
2125.99008	15980.5
2128.96609	16006.3
2131.94018	16005
2134.91236	15939.1
2137.88263	15977.5
2140.851	15966.7
2143.81746	15973.7
2146.78201	15923.4
2149.74466	15946.3
2152.7054	15918.2
2155.66425	15883.6
2158.6212	15883.8
2161.57625	15861.8
2164.52941	15828.8
2167.48067	15828.8
2170.43004	15806.4
2173.37752	15823.2
2176.32311	15845.5
2179.26681	15866.5
2182.20863	15830.5
2185.14856	15825.5
2188.08661	15831.8
2191.02278	15795.5
2193.95707	15748.5
2196.88948	15715.1
2199.82001	15687.9
2202.74867	15654.1
2205.67545	15634.7
2208.60037	15635.1
2211.52341	15593.2
2214.44458	15554.1
2217.36388	15535
2220.28132	15474.7
2223.1969	15442.2
2226.11061	15396.6
2229.02246	15407.2
2231.93245	15370.2
2234.84058	15314.1
2237.74686	15309
2240.65128	15274.2
2243.55385	15267.3
2246.45456	15236.4
2249.35343	15258
2252.25044	15178.1
2255.14561	15127
2258.03893	15077.7
2260.93041	15018.7
2263.82004	15002.8
2266.70783	14936.3
2269.59378	14919
2272.4779	14850.5
2275.36017	14787.6
2278.24061	14784.9
2281.11922	14762.1
2283.996	14749.9
2286.87094	14708.8
2289.74405	14602.9
2292.61534	14637.4
2295.4848	14622.9
2298.35243	14624.9
2301.21824	14647.8
2304.08223	14626.1
2306.94439	14630.4
2309.80474	14583.7
2312.66327	14574.8
2315.51999	14525.5
2318.37489	14523.6
2321.22797	14489.7
2324.07925	14460.2
2326.92871	14452.3
2329.77637	14438.5
2332.62222	14420.7
2335.46626	14407.8
2338.3085	14358.9
2341.14893	14344.7
2343.98756	14348.8
2346.8244	14322.2
2349.65943	14301.5
2352.49267	14324.1
2355.32411	14343.8
2358.15376	14317.4
2360.98161	14327.4
2363.80768	14313.9
2366.63195	14303.9
2369.45444	14286.1
2372.27514	14289
2375.09405	14222.4
2377.91118	14164.7
2380.72652	14137
2383.54009	14146.2
2386.35187	14119.5
2389.16188	14056.2
2391.97011	13984.9
2394.77657	13937.4
2397.58125	13919.7
2400.38416	13881.8
2403.18529	13866.3
2405.98466	13844.3
2408.78226	13855.7
2411.57809	13845.1
2414.37216	13845.6
2417.16446	13807.1
2419.955	13789.2
2422.74378	13772.1
2425.5308	13761
2428.31606	13765.8
2431.09956	13721.1
2433.88131	13704.9
2436.6613	13739
2439.43954	13717.8
2442.21603	13728.4
2444.99077	13652
2447.76377	13661.5
2450.53501	13667.2
2453.30451	13652.4
2456.07226	13614.9
2458.83827	13628.9
2461.60254	13584.5
2464.36507	13590
2467.12586	13600.9
2469.88492	13585.3
2472.64224	13573.6
2475.39782	13580.7
2478.15167	13548
2480.90379	13575.6
2483.65417	13553.7
2486.40283	13566.6
2489.14976	13600.7
2491.89497	13585.1
2494.63845	13608.1
2497.3802	13593
2500.12024	13565.7
2502.85855	13531.7
2505.59514	13535.5
2508.33002	13500.9
2511.06318	13489.8
2513.79462	13483.4
2516.52435	13478.3
2519.25237	13454.5
2521.97867	13409.2
2524.70327	13389.2
2527.42616	13376.9
2530.14734	13351.9
2532.86681	13352.3
2535.58458	13335.9
2538.30065	13345.2
2541.01501	13310.9
2543.72768	13291.2
2546.43864	13292.5
2549.14791	13277.7
2551.85548	13258.1
2554.56136	13239.4
2557.26554	13217.5
2559.96803	13202.1
2562.66883	13169.3
2565.36794	13171
2568.06536	13145.8
2570.7611	13123.2
2573.45514	13101.7
2576.14751	13104.2
2578.83819	13086.1
2581.52719	13082.9
2584.21451	13053.6
2586.90015	13044.7
2589.58411	13035.4
2592.2664	13013.9
2594.94701	12986.1
2597.62594	12963
2600.30321	12968.6
2602.9788	12965.6
2605.65273	12940.9
2608.32498	12971.8
2610.99557	12964.1
2613.66449	12958.5
2616.33175	12941.8
2618.99734	12944.5
2621.66128	12907.2
2624.32355	12912.2
2626.98416	12906.1
2629.64311	12855.7
2632.30041	12848
2634.95605	12836.2
2637.61004	12808.7
2640.26238	12824.6
2642.91306	12814.1
2645.56209	12810.5
2648.20948	12804.3
2650.85521	12814.9
2653.4993	12815.5
2656.14175	12803.2
2658.78255	12847.7
2661.42171	12834.3
2664.05923	12840.8
2666.6951	12777.7
2669.32934	12834.4
2671.96194	12831
2674.59291	12838.1
2677.22224	12822.6
2679.84993	12806.7
2682.476	12797.2
2685.10043	12787.5
2687.72324	12778.2
2690.34441	12770.4
2692.96396	12768
2695.58188	12758.3
2698.19818	12743.9
2700.81285	12800.5
2703.4259	12807.6
2706.03733	12796.3
2708.64714	12772.3
2711.25533	12784.7
2713.86191	12779.6
2716.46687	12799
2719.07021	12791.9
2721.67194	12808.6
2724.27206	12811.2
2726.87057	12830.6
2729.46747	12843
2732.06276	12817.4
2734.65644	12818.6
2737.24852	12794.2
2739.83899	12799.3
2742.42786	12790.2
2745.01513	12799
2747.60079	12747.6
2750.18486	12726.3
2752.76733	12733.4
2755.3482	12708.7
2757.92747	12675.2
2760.50515	12673.4
2763.08123	12674.8
2765.65573	12674.6
2768.22863	12663.7
2770.79994	12672.3
2773.36967	12679.2
2775.9378	12651.1
2778.50435	12681.7
2781.06932	12639.3
2783.6327	12648.6
2786.1945	12643.3
2788.75471	12617.9
2791.31335	12628.9
2793.87041	12600
2796.42589	12616.6
2798.97979	12585.7
2801.53212	12533.6
2804.08288	12522.3
2806.63206	12466.4
2809.17967	12461.6
2811.72571	12468
2814.27018	12459.2
2816.81308	12410.9
2819.35442	12359.6
2821.89419	12343.3
2824.43239	12355.8
2826.96904	12327
2829.50412	12336.4
2832.03763	12296.9
2834.56959	12267.8
2837.1	12289.4
2839.62884	12299.9
2842.15613	12322.6
2844.68186	12381.7
2847.20604	12381.2
2849.72867	12417.3
2852.24974	12411.4
2854.76927	12391
2857.28724	12352.1
2859.80367	12378.3
2862.31855	12302.5
2864.83189	12286.8
2867.34368	12265.7
2869.85393	12254.9
2872.36264	12269.7
2874.8698	12248.4
2877.37543	12238.3
2879.87952	12223.9
2882.38207	12203.3
2884.88308	12206.6
2887.38256	12212.8
2889.88051	12200.2
2892.37692	12214.7
2894.8718	12212.9
2897.36515	12222.7
2899.85698	12209.6
2902.34727	12224
2904.83604	12227
2907.32328	12274.9
2909.809	12250.2
2912.29319	12280.8
2914.77587	12252.8
2917.25702	12244.6
2919.73665	12226.1
2922.21476	12251.4
2924.69136	12263
2927.16644	12222.6
2929.64	12218
2932.11205	12202.8
2934.58258	12163
2937.05161	12161.9
2939.51912	12142.1
2941.98513	12116.4
2944.44962	12075.7
2946.91261	12051.4
2949.37409	12038.2
2951.83407	12005.7
2954.29254	11974.4
2956.74951	11964.1
2959.20498	11958.9
2961.65895	11939.3
2964.11142	11917.6
2966.56239	11913.1
2969.01186	11900.3
2971.45984	11867.5
2973.90632	11872.1
2976.35131	11811.3
2978.7948	11809.4
2981.23681	11773.9
2983.67732	11737.4
2986.11635	11736.1
2988.55388	11674.7
2990.98993	11643.5
2993.4245	11582.7
2995.85758	11556.9
2998.28917	11529.7
3000.71928	11503.5
3003.14791	11476.8
3005.57506	11467.3
3008.00073	11424.9
3010.42493	11403.7
3012.84764	11352.6
3015.26888	11367.4
3017.68865	11316
3020.10694	11266.9
3022.52376	11246.2
3024.9391	11234.8
3027.35298	11217.5
3029.76539	11216.1
3032.17632	11199.5
3034.5858	11186.1
3036.9938	11162.7
3039.40034	11220.1
3041.80542	11167.1
3044.20903	11124.4
3046.61118	11158.8
3049.01187	11118.4
3051.4111	11076.1
3053.80888	11077.3
3056.20519	11033.3
3058.60005	10990.7
3060.99345	10983.9
3063.3854	10949.5
3065.7759	10892.3
3068.16494	10825.2
3070.55254	10794.7
3072.93868	10768.4
3075.32338	10739.1
3077.70662	10706.5
3080.08842	10673.3
3082.46878	10639.6
3084.84769	10628.9
3087.22515	10634.4
3089.60118	10636.4
3091.97576	10598.7
3094.3489	10610.9
3096.72061	10643.6
3099.09087	10625.6
3101.4597	10580.7
3103.82709	10574.2
3106.19305	10547.9
3108.55757	10568.7
3110.92066	10519.8
3113.28232	10505.2
3115.64255	10427.1
3118.00134	10447.6
3120.35871	10425.2
3122.71466	10413.6
3125.06917	10362.2
3127.42226	10317.5
3129.77393	10348.9
3132.12417	10308.9
3134.47299	10302.2
3136.82039	10299.5
3139.16636	10292.1
3141.51092	10273.8
3143.85406	10259.7
3146.19579	10277.6
3148.53609	10273.7
3150.87499	10264.8
3153.21246	10277.4
3155.54853	10312.1
3157.88318	10283.6
3160.21642	10312
3162.54826	10298.2
3164.87868	10263.5
3167.2077	10279.5
3169.5353	10292
3171.86151	10269.8
3174.18631	10275.7
3176.5097	10251.1
3178.83169	10230.7
3181.15228	10227.3
3183.47147	10202.6
3185.78926	10199.2
3188.10565	10175.4
3190.42065	10174.1
3192.73424	10160.7
3195.04645	10126.9
3197.35725	10102.4
3199.66667	10105.8
3201.97469	10090.2
3204.28132	10083.3
3206.58656	10093.9
3208.8904	10080.8
3211.19287	10100.7
3213.49394	10098.5
3215.79363	10125.5
3218.09193	10103.9
3220.38884	10103.1
3222.68438	10099.6
3224.97853	10091.1
3227.2713	10086.7
3229.56269	10030.9
3231.8527	10038.6
3234.14133	10012.9
3236.42858	9973.4
3238.71446	9949.6
3240.99896	9944.5
3243.28209	9952.7
3245.56384	9919.7
3247.84423	9918.7
3250.12324	9903.6
3252.40088	9873.6
3254.67715	9866.1
3256.95205	9825.8
3259.22558	9826.1
3261.49775	9799.1
3263.76855	9783.8
3266.03799	9761.4
3268.30606	9732.7
3270.57277	9723.7
3272.83812	9705.6
3275.10211	9668.8
3277.36474	9676
3279.62601	9664.8
3281.88593	9658.2
3284.14448	9675.5
3286.40168	9683.1
3288.65753	9648.3
3290.91202	9645.1
3293.16516	9628.7
3295.41695	9578.7
3297.66738	9520.8
3299.91647	9451.3
3302.16421	9411.6
3304.4106	9363.4
3306.65564	9286.1
3308.89933	9230.6
3311.14169	9147.2
3313.38269	9075.6
3315.62236	9009.7
3317.86068	8943
3320.09766	8850.4
3322.3333	8783.5
3324.5676	8755.9
3326.80056	8606.3
3329.03219	8529.2
3331.26248	3.4
3333.49143	-1.2
3335.71905	-1.5
