Data from AgNPs_FTO_APTES_UA_5uM_CRN_500uM_R6G_10uM_NaF_0.1M_Addition_RamanShift__15__16-58-11-829.txt Node

Date: Mon Feb 07 16:58:11 GMT 2022
User: TCL
Spectrometer: QEP01345
Trigger mode: 4
Integration Time (sec): 7.000000E0
Scans to average: 10
Electric dark correction enabled: true
Nonlinearity correction enabled: false
Boxcar width: 0
XAxis mode: Raman Shifts
Number of Pixels in Spectrum: 1044
>>>>>Begin Spectral Data<<<<<
46.04893	-1.1125
50.45542	0.0875
54.85868	-0.2125
59.25871	-0.6125
63.6555	56.3875
68.04907	58.5875
72.43941	64.7875
76.82654	65.9875
81.21044	66.6875
85.59113	68.3875
89.96862	74.6875
94.34289	75.9875
98.71396	76.3875
103.08183	79.6875
107.4465	83.0875
111.80798	83.4875
116.16626	87.6875
120.52136	93.2875
124.87327	96.8875
129.222	102.0875
133.56755	108.3875
137.90993	117.7875
142.24913	129.1875
146.58517	149.6875
150.91804	173.8875
155.24774	209.2875
159.57429	262.1875
163.89768	336.9875
168.21792	453.5875
172.53501	618.8875
176.84895	864.7875
181.15975	1214.4875
185.46741	1719.4875
189.77193	2384.9875
194.07331	3196.5875
198.37157	4141.6875
202.6667	5126.3875
206.9587	6095.2875
211.24758	7063.6875
215.53334	8027.5875
219.81599	9026.3875
224.09553	10127.8875
228.37195	11328.6875
232.64527	12643.4875
236.91549	14043.4875
241.18261	15453.5875
245.44663	16733.9875
249.70755	17952.4875
253.96539	18973.8875
258.22014	19855.1875
262.4718	20584.3875
266.72039	21057.5875
270.96589	21383.5875
275.20832	21511.7875
279.44768	21470.2875
283.68397	21400.0875
287.91719	21301.8875
292.14735	21295.3875
296.37445	21347.8875
300.59849	21504.6875
304.81948	21573.7875
309.03742	21428.6875
313.25231	21150.6875
317.46415	20596.7875
321.67296	19997.8875
325.87872	19369.3875
330.08145	19107.3875
334.28114	19079.5875
338.47781	19169.1875
342.67145	19352.6875
346.86207	19623.1875
351.04966	19956.4875
355.23424	20219.7875
359.4158	20476.6875
363.59435	20642.0875
367.76989	20796.4875
371.94243	20908.0875
376.11196	20972.7875
380.27849	20999.7875
384.44203	21112.3875
388.60257	21291.0875
392.76012	21507.9875
396.91468	21695.2875
401.06626	22011.1875
405.21485	22231.7875
409.36047	22166.6875
413.50311	21815.7875
417.64277	21548.5875
421.77947	21472.9875
425.9132	21512.0875
430.04396	21553.9875
434.17176	21692.7875
438.2966	21855.4875
442.41849	22142.7875
446.53742	22541.3875
450.6534	23065.7875
454.76644	23440.5875
458.87653	23592.5875
462.98368	23658.6875
467.08789	23618.7875
471.18916	23534.1875
475.2875	23482.4875
479.38291	23445.4875
483.4754	23389.1875
487.56496	23132.8875
491.6516	22785.1875
495.73531	22404.1875
499.81612	22138.2875
503.89401	22200.4875
507.96899	22213.5875
512.04106	22220.4875
516.11023	22136.7875
520.1765	22049.5875
524.23987	21859.4875
528.30034	21608.1875
532.35792	21451.4875
536.41261	21256.0875
540.46441	21116.2875
544.51333	21176.3875
548.55936	21438.5875
552.60252	21909.3875
556.64279	22420.3875
560.6802	22810.8875
564.71473	23096.3875
568.7464	23526.8875
572.7752	24162.9875
576.80114	24726.3875
580.82422	25016.5875
584.84444	25212.9875
588.86181	25274.4875
592.87633	25192.3875
596.888	24960.9875
600.89682	24734.3875
604.9028	25106.9875
608.90594	26628.5875
612.90624	28327.5875
616.90371	26900.6875
620.89834	23153.7875
624.89015	21465.0875
628.87913	21310.9875
632.86528	21495.7875
636.84862	21652.8875
640.82913	21515.5875
644.80683	21084.0875
648.78172	20780.6875
652.75379	20665.7875
656.72306	20801.3875
660.68952	21040.0875
664.65319	20989.2875
668.61405	20736.2875
672.57211	20687.6875
676.52738	20775.3875
680.47986	20811.1875
684.42955	20754.4875
688.37646	20627.4875
692.32058	20647.9875
696.26192	20735.5875
700.20048	20904.1875
704.13626	21063.5875
708.06928	21119.4875
711.99952	21099.4875
715.927	21043.0875
719.85171	21034.4875
723.77365	20921.0875
727.69284	20734.4875
731.60928	20552.6875
735.52295	20447.5875
739.43388	20408.7875
743.34206	20401.2875
747.24749	20458.4875
751.15017	20632.8875
755.05012	20961.3875
758.94733	21465.4875
762.8418	22463.0875
766.73354	24023.1875
770.62254	25465.1875
774.50882	25870.3875
778.39237	24824.1875
782.27321	23204.8875
786.15132	21817.8875
790.02671	20948.9875
793.89938	20487.0875
797.76935	20315.2875
801.6366	20196.9875
805.50115	20111.7875
809.36299	20057.1875
813.22213	19937.6875
817.07857	19926.4875
820.93231	19943.2875
824.78336	19859.5875
828.63172	19798.1875
832.47738	19737.4875
836.32036	19665.6875
840.16066	19658.6875
843.99827	19648.1875
847.8332	19643.5875
851.66546	19630.4875
855.49504	19650.3875
859.32195	19635.3875
863.1462	19616.5875
866.96777	19578.9875
870.78668	19545.2875
874.60293	19563.2875
878.41652	19532.2875
882.22745	19578.1875
886.03573	19628.6875
889.84136	19601.3875
893.64433	19594.0875
897.44466	19555.2875
901.24235	19510.8875
905.0374	19450.2875
908.8298	19378.5875
912.61957	19416.9875
916.40671	19622.4875
920.19121	19824.6875
923.97308	19932.6875
927.75233	19917.1875
931.52895	19731.6875
935.30295	19456.9875
939.07433	19213.4875
942.84309	18939.8875
946.60924	18767.2875
950.37278	18650.8875
954.13371	18614.5875
957.89203	18603.2875
961.64774	18583.6875
965.40086	18591.4875
969.15137	18517.9875
972.89929	18400.3875
976.64461	18347.5875
980.38733	18289.3875
984.12747	18288.7875
987.86502	18337.5875
991.59999	18461.8875
995.33237	18556.8875
999.06217	18695.9875
1002.78939	18912.1875
1006.51404	19085.3875
1010.23611	19307.2875
1013.95561	19458.5875
1017.67255	19524.0875
1021.38692	19476.0875
1025.09872	19234.2875
1028.80796	19116.0875
1032.51465	19102.3875
1036.21877	19182.4875
1039.92035	19246.6875
1043.61937	19311.0875
1047.31584	19345.6875
1051.00976	19387.4875
1054.70114	19456.3875
1058.38998	19597.3875
1062.07627	19798.9875
1065.76003	20049.2875
1069.44126	20254.6875
1073.11995	20469.7875
1076.79611	20669.6875
1080.46974	20734.0875
1084.14085	20746.0875
1087.80943	20872.2875
1091.47549	21031.7875
1095.13903	21134.3875
1098.80005	21053.0875
1102.45857	20632.5875
1106.11456	20225.5875
1109.76805	20007.6875
1113.41903	20011.6875
1117.06751	20099.8875
1120.71348	20323.1875
1124.35696	20565.2875
1127.99793	20895.3875
1131.63641	21124.9875
1135.2724	20944.5875
1138.90589	20732.4875
1142.5369	20664.7875
1146.16542	20716.2875
1149.79145	20843.3875
1153.415	21092.0875
1157.03607	21385.2875
1160.65467	21871.0875
1164.27079	22601.6875
1167.88443	23549.9875
1171.49561	24672.5875
1175.10432	26156.7875
1178.71056	27962.1875
1182.31434	29624.2875
1185.91565	30637.2875
1189.51451	30961.6875
1193.11091	30646.6875
1196.70485	29755.1875
1200.29634	28650.0875
1203.88538	27751.1875
1207.47197	26980.1875
1211.05612	26458.0875
1214.63782	25970.6875
1218.21708	25340.9875
1221.79391	24706.9875
1225.36829	24188.2875
1228.94024	23809.9875
1232.50976	23524.6875
1236.07685	23349.0875
1239.6415	23245.3875
1243.20374	23244.8875
1246.76355	23327.8875
1250.32093	23610.5875
1253.8759	23967.7875
1257.42845	24472.2875
1260.97859	25046.2875
1264.52631	25610.6875
1268.07163	26155.5875
1271.61453	26693.6875
1275.15503	27296.4875
1278.69312	27910.9875
1282.22882	28539.2875
1285.76211	29331.1875
1289.29301	30328.0875
1292.82151	31560.2875
1296.34761	33039.0875
1299.87133	34647.4875
1303.39266	36318.8875
1306.9116	37848.1875
1310.42815	39052.6875
1313.94233	39777.3875
1317.45412	39664.4875
1320.96354	39310.2875
1324.47058	39055.7875
1327.97525	38827.0875
1331.47754	38708.5875
1334.97747	38738.2875
1338.47502	38735.1875
1341.97022	38907.2875
1345.46305	38983.6875
1348.95352	38918.3875
1352.44163	38567.1875
1355.92738	38466.2875
1359.41078	38880.1875
1362.89183	39499.7875
1366.37053	38719.8875
1369.84688	35999.9875
1373.32088	32874.6875
1376.79254	30768.1875
1380.26186	29826.7875
1383.72883	29710.1875
1387.19347	29765.3875
1390.65578	29788.0875
1394.11575	29741.3875
1397.57339	29847.2875
1401.0287	29925.1875
1404.48168	29899.9875
1407.93234	29637.4875
1411.38068	29010.9875
1414.82669	27977.3875
1418.27039	26832.9875
1421.71177	25782.4875
1425.15083	24870.3875
1428.58758	24454.5875
1432.02203	24445.6875
1435.45416	24803.0875
1438.88399	25386.6875
1442.31151	25847.0875
1445.73673	26236.0875
1449.15965	26614.5875
1452.58027	27023.3875
1455.9986	27431.1875
1459.41463	27689.7875
1462.82837	28049.5875
1466.23982	28346.0875
1469.64898	28573.5875
1473.05586	28629.6875
1476.46045	28524.9875
1479.86276	28357.2875
1483.26279	28166.0875
1486.66054	28176.0875
1490.05602	28331.4875
1493.44922	28749.8875
1496.84016	29402.1875
1500.22882	30509.6875
1503.61521	31934.7875
1506.99934	33514.1875
1510.38121	34776.9875
1513.76081	35156.3875
1517.13816	34401.6875
1520.51324	33123.8875
1523.88607	32052.3875
1527.25665	31399.3875
1530.62498	31050.8875
1533.99105	30829.8875
1537.35488	30441.4875
1540.71647	29821.6875
1544.07581	29027.5875
1547.4329	28255.3875
1550.78776	27618.1875
1554.14038	27208.9875
1557.49077	27050.7875
1560.83892	27021.4875
1564.18484	27151.3875
1567.52853	27303.9875
1570.86999	27673.1875
1574.20922	28134.5875
1577.54624	28484.5875
1580.88103	28466.8875
1584.2136	28403.8875
1587.54395	28562.6875
1590.87208	29169.4875
1594.19801	30068.5875
1597.52172	31072.1875
1600.84321	31321.1875
1604.16251	30272.7875
1607.47959	28615.2875
1610.79447	26854.5875
1614.10715	25050.4875
1617.41763	23453.3875
1620.7259	22254.8875
1624.03199	21532.5875
1627.33587	21339.5875
1630.63757	21609.9875
1633.93707	22536.0875
1637.23439	24189.7875
1640.52951	26621.3875
1643.82246	29554.2875
1647.11321	32216.5875
1650.40179	33367.2875
1653.68819	32257.2875
1656.97241	29205.5875
1660.25446	25722.9875
1663.53433	22710.9875
1666.81203	20555.4875
1670.08756	19125.9875
1673.36092	18202.6875
1676.63211	17619.3875
1679.90115	17247.4875
1683.16801	16934.5875
1686.43272	16684.4875
1689.69527	16502.3875
1692.95567	16388.6875
1696.2139	16279.7875
1699.46999	16212.6875
1702.72392	16101.0875
1705.97571	16063.7875
1709.22535	16010.1875
1712.47284	15988.4875
1715.71819	15948.1875
1718.96139	15913.1875
1722.20246	15831.6875
1725.44139	15770.2875
1728.67818	15693.7875
1731.91284	15592.4875
1735.14537	15497.6875
1738.37576	15473.3875
1741.60403	15423.1875
1744.83017	15346.7875
1748.05418	15333.4875
1751.27607	15327.7875
1754.49584	15268.3875
1757.71349	15281.0875
1760.92903	15253.2875
1764.14244	15242.7875
1767.35375	15208.1875
1770.56294	15136.2875
1773.77002	15042.7875
1776.97499	15022.8875
1780.17785	15008.1875
1783.37861	14954.8875
1786.57727	14966.0875
1789.77382	14930.0875
1792.96828	14854.3875
1796.16064	14842.7875
1799.3509	14813.9875
1802.53907	14750.8875
1805.72514	14724.7875
1808.90913	14696.2875
1812.09102	14625.0875
1815.27083	14587.6875
1818.44856	14537.1875
1821.6242	14517.0875
1824.79776	14498.7875
1827.96924	14462.8875
1831.13864	14463.5875
1834.30597	14471.2875
1837.47122	14399.9875
1840.6344	14414.6875
1843.7955	14411.9875
1846.95454	14382.6875
1850.11151	14356.7875
1853.26642	14344.2875
1856.41926	14349.9875
1859.57004	14310.2875
1862.71876	14310.5875
1865.86542	14261.0875
1869.01003	14239.0875
1872.15258	14211.5875
1875.29308	14228.6875
1878.43152	14175.3875
1881.56792	14180.6875
1884.70227	14143.6875
1887.83457	14119.8875
1890.96482	14084.9875
1894.09304	14050.5875
1897.21921	14056.9875
1900.34335	14021.5875
1903.46544	13987.8875
1906.58551	13957.0875
1909.70353	13935.6875
1912.81953	13889.7875
1915.93349	13887.5875
1919.04543	13860.7875
1922.15534	13832.2875
1925.26322	13786.4875
1928.36908	13771.3875
1931.47292	13749.5875
1934.57473	13712.6875
1937.67453	13703.7875
1940.77232	13639.2875
1943.86808	13592.8875
1946.96184	13548.1875
1950.05358	13492.4875
1953.14331	13462.3875
1956.23103	13387.9875
1959.31675	13337.8875
1962.40046	13321.9875
1965.48217	13279.8875
1968.56188	13223.7875
1971.63959	13183.2875
1974.7153	13148.5875
1977.78901	13124.2875
1980.86073	13064.4875
1983.93046	13013.4875
1986.99819	12978.8875
1990.06394	12963.5875
1993.1277	12891.5875
1996.18947	12845.3875
1999.24925	12831.2875
2002.30706	12752.1875
2005.36288	12725.1875
2008.41672	12700.0875
2011.46859	12627.7875
2014.51848	12615.9875
2017.56639	12568.2875
2020.61233	12538.9875
2023.6563	12493.9875
2026.6983	12435.6875
2029.73833	12413.3875
2032.7764	12396.4875
2035.8125	12361.3875
2038.84664	12303.8875
2041.87881	12307.4875
2044.90903	12261.5875
2047.93729	12215.7875
2050.96359	12224.6875
2053.98794	12213.2875
2057.01034	12199.0875
2060.03078	12166.3875
2063.04927	12172.7875
2066.06582	12162.2875
2069.08042	12164.4875
2072.09307	12146.6875
2075.10378	12134.6875
2078.11255	12117.4875
2081.11938	12097.1875
2084.12426	12081.3875
2087.12722	12076.3875
2090.12824	12054.7875
2093.12732	12051.2875
2096.12447	12073.1875
2099.11969	12060.5875
2102.11299	12029.1875
2105.10435	12027.1875
2108.09379	12055.3875
2111.08131	12042.6875
2114.0669	12053.8875
2117.05057	12066.8875
2120.03233	12086.5875
2123.01216	12065.9875
2125.99008	12080.2875
2128.96609	12072.1875
2131.94018	12078.3875
2134.91236	12100.0875
2137.88263	12090.7875
2140.851	12095.5875
2143.81746	12096.2875
2146.78201	12071.7875
2149.74466	12048.4875
2152.7054	12055.3875
2155.66425	12053.1875
2158.6212	12013.9875
2161.57625	12030.5875
2164.52941	12004.7875
2167.48067	11990.3875
2170.43004	12021.5875
2173.37752	11997.5875
2176.32311	12012.9875
2179.26681	12005.4875
2182.20863	11998.7875
2185.14856	11988.6875
2188.08661	12007.3875
2191.02278	11993.4875
2193.95707	11960.1875
2196.88948	11941.8875
2199.82001	11921.5875
2202.74867	11885.5875
2205.67545	11883.9875
2208.60037	11878.9875
2211.52341	11851.0875
2214.44458	11812.6875
2217.36388	11761.1875
2220.28132	11755.1875
2223.1969	11727.0875
2226.11061	11711.6875
2229.02246	11671.6875
2231.93245	11645.3875
2234.84058	11629.6875
2237.74686	11594.4875
2240.65128	11583.4875
2243.55385	11548.2875
2246.45456	11574.6875
2249.35343	11530.2875
2252.25044	11508.6875
2255.14561	11508.4875
2258.03893	11457.8875
2260.93041	11403.7875
2263.82004	11388.3875
2266.70783	11377.8875
2269.59378	11360.4875
2272.4779	11330.7875
2275.36017	11259.5875
2278.24061	11253.8875
2281.11922	11228.7875
2283.996	11233.4875
2286.87094	11183.1875
2289.74405	11183.9875
2292.61534	11144.1875
2295.4848	11134.0875
2298.35243	11144.4875
2301.21824	11127.0875
2304.08223	11150.5875
2306.94439	11119.9875
2309.80474	11087.5875
2312.66327	11090.3875
2315.51999	11090.0875
2318.37489	11090.6875
2321.22797	11048.6875
2324.07925	10997.2875
2326.92871	11015.3875
2329.77637	10999.5875
2332.62222	10962.7875
2335.46626	10975.5875
2338.3085	10952.5875
2341.14893	10928.7875
2343.98756	10920.3875
2346.8244	10896.9875
2349.65943	10884.1875
2352.49267	10869.0875
2355.32411	10896.8875
2358.15376	10887.4875
2360.98161	10881.7875
2363.80768	10872.5875
2366.63195	10878.6875
2369.45444	10860.7875
2372.27514	10834.0875
2375.09405	10829.9875
2377.91118	10769.3875
2380.72652	10778.6875
2383.54009	10733.7875
2386.35187	10721.3875
2389.16188	10664.4875
2391.97011	10661.7875
2394.77657	10631.8875
2397.58125	10596.2875
2400.38416	10573.6875
2403.18529	10540.5875
2405.98466	10536.8875
2408.78226	10507.9875
2411.57809	10526.4875
2414.37216	10522.4875
2417.16446	10513.3875
2419.955	10483.9875
2422.74378	10494.1875
2425.5308	10450.0875
2428.31606	10438.0875
2431.09956	10434.8875
2433.88131	10430.5875
2436.6613	10440.0875
2439.43954	10441.3875
2442.21603	10414.3875
2444.99077	10373.1875
2447.76377	10388.8875
2450.53501	10384.4875
2453.30451	10343.5875
2456.07226	10349.3875
2458.83827	10341.0875
2461.60254	10321.3875
2464.36507	10314.0875
2467.12586	10325.2875
2469.88492	10295.1875
2472.64224	10271.6875
2475.39782	10299.7875
2478.15167	10292.5875
2480.90379	10280.5875
2483.65417	10288.8875
2486.40283	10269.9875
2489.14976	10279.4875
2491.89497	10264.1875
2494.63845	10267.1875
2497.3802	10256.2875
2500.12024	10247.0875
2502.85855	10231.8875
2505.59514	10232.3875
2508.33002	10214.0875
2511.06318	10200.2875
2513.79462	10186.9875
2516.52435	10212.3875
2519.25237	10175.6875
2521.97867	10126.7875
2524.70327	10116.6875
2527.42616	10121.7875
2530.14734	10120.0875
2532.86681	10097.1875
2535.58458	10099.2875
2538.30065	10078.9875
2541.01501	10065.6875
2543.72768	10024.3875
2546.43864	10018.3875
2549.14791	10002.5875
2551.85548	9988.4875
2554.56136	9960.3875
2557.26554	9962.3875
2559.96803	9937.5875
2562.66883	9923.8875
2565.36794	9916.4875
2568.06536	9898.1875
2570.7611	9888.7875
2573.45514	9862.9875
2576.14751	9851.4875
2578.83819	9827.7875
2581.52719	9827.4875
2584.21451	9791.5875
2586.90015	9800.9875
2589.58411	9759.5875
2592.2664	9766.7875
2594.94701	9752.6875
2597.62594	9737.7875
2600.30321	9709.0875
2602.9788	9707.0875
2605.65273	9723.8875
2608.32498	9710.6875
2610.99557	9684.7875
2613.66449	9696.7875
2616.33175	9674.8875
2618.99734	9659.3875
2621.66128	9642.6875
2624.32355	9623.7875
2626.98416	9628.6875
2629.64311	9592.3875
2632.30041	9582.1875
2634.95605	9590.4875
2637.61004	9573.3875
2640.26238	9565.9875
2642.91306	9570.4875
2645.56209	9528.8875
2648.20948	9543.7875
2650.85521	9565.3875
2653.4993	9558.2875
2656.14175	9538.5875
2658.78255	9541.0875
2661.42171	9532.1875
2664.05923	9547.9875
2666.6951	9534.1875
2669.32934	9571.0875
2671.96194	9539.9875
2674.59291	9527.7875
2677.22224	9535.6875
2679.84993	9523.9875
2682.476	9498.5875
2685.10043	9475.0875
2687.72324	9481.2875
2690.34441	9492.0875
2692.96396	9485.5875
2695.58188	9497.0875
2698.19818	9488.6875
2700.81285	9488.5875
2703.4259	9486.0875
2706.03733	9509.0875
2708.64714	9477.2875
2711.25533	9497.6875
2713.86191	9498.2875
2716.46687	9520.7875
2719.07021	9509.2875
2721.67194	9517.2875
2724.27206	9522.1875
2726.87057	9502.7875
2729.46747	9528.6875
2732.06276	9517.7875
2734.65644	9489.3875
2737.24852	9497.6875
2739.83899	9483.9875
2742.42786	9470.4875
2745.01513	9468.0875
2747.60079	9456.7875
2750.18486	9423.9875
2752.76733	9427.2875
2755.3482	9401.7875
2757.92747	9393.1875
2760.50515	9384.8875
2763.08123	9392.5875
2765.65573	9363.6875
2768.22863	9352.8875
2770.79994	9373.5875
2773.36967	9359.0875
2775.9378	9359.8875
2778.50435	9343.9875
2781.06932	9332.3875
2783.6327	9301.9875
2786.1945	9297.2875
2788.75471	9304.0875
2791.31335	9285.4875
2793.87041	9288.7875
2796.42589	9232.9875
2798.97979	9262.2875
2801.53212	9218.4875
2804.08288	9223.4875
2806.63206	9204.6875
2809.17967	9161.6875
2811.72571	9138.5875
2814.27018	9144.0875
2816.81308	9132.4875
2819.35442	9102.2875
2821.89419	9086.1875
2824.43239	9103.0875
2826.96904	9051.3875
2829.50412	9076.1875
2832.03763	9061.2875
2834.56959	9048.0875
2837.1	9038.3875
2839.62884	9065.4875
2842.15613	9091.5875
2844.68186	9113.5875
2847.20604	9137.9875
2849.72867	9126.4875
2852.24974	9128.7875
2854.76927	9101.8875
2857.28724	9098.2875
2859.80367	9081.7875
2862.31855	9059.7875
2864.83189	9052.5875
2867.34368	9045.2875
2869.85393	9032.8875
2872.36264	9021.4875
2874.8698	9021.9875
2877.37543	9027.0875
2879.87952	8994.9875
2882.38207	9001.0875
2884.88308	9005.1875
2887.38256	9001.7875
2889.88051	8997.7875
2892.37692	9001.9875
2894.8718	8996.0875
2897.36515	9000.7875
2899.85698	8988.6875
2902.34727	9015.3875
2904.83604	9040.7875
2907.32328	9027.3875
2909.809	9022.2875
2912.29319	9028.7875
2914.77587	9010.3875
2917.25702	9011.3875
2919.73665	8997.0875
2922.21476	9022.8875
2924.69136	9008.5875
2927.16644	9014.6875
2929.64	9008.0875
2932.11205	8986.9875
2934.58258	8971.0875
2937.05161	8969.0875
2939.51912	8948.1875
2941.98513	8943.4875
2944.44962	8943.2875
2946.91261	8875.3875
2949.37409	8873.8875
2951.83407	8869.9875
2954.29254	8845.2875
2956.74951	8834.2875
2959.20498	8812.2875
2961.65895	8823.5875
2964.11142	8798.0875
2966.56239	8789.0875
2969.01186	8791.0875
2971.45984	8737.0875
2973.90632	8731.3875
2976.35131	8714.2875
2978.7948	8710.5875
2981.23681	8670.6875
2983.67732	8647.7875
2986.11635	8636.8875
2988.55388	8611.3875
2990.98993	8587.8875
2993.4245	8576.8875
2995.85758	8538.5875
2998.28917	8529.8875
3000.71928	8492.9875
3003.14791	8487.6875
3005.57506	8473.5875
3008.00073	8445.1875
3010.42493	8449.9875
3012.84764	8428.3875
3015.26888	8416.7875
3017.68865	8371.6875
3020.10694	8365.6875
3022.52376	8352.7875
3024.9391	8341.7875
3027.35298	8340.7875
3029.76539	8328.6875
3032.17632	8322.1875
3034.5858	8302.6875
3036.9938	8293.2875
3039.40034	8300.0875
3041.80542	8283.1875
3044.20903	8248.8875
3046.61118	8269.7875
3049.01187	8211.6875
3051.4111	8216.6875
3053.80888	8212.0875
3056.20519	8179.9875
3058.60005	8167.8875
3060.99345	8158.5875
3063.3854	8144.3875
3065.7759	8102.0875
3068.16494	8086.3875
3070.55254	8059.0875
3072.93868	8036.5875
3075.32338	8008.1875
3077.70662	8001.7875
3080.08842	7971.8875
3082.46878	7978.7875
3084.84769	7946.5875
3087.22515	7949.4875
3089.60118	7944.3875
3091.97576	7931.8875
3094.3489	7947.2875
3096.72061	7939.8875
3099.09087	7953.6875
3101.4597	7916.0875
3103.82709	7926.2875
3106.19305	7918.1875
3108.55757	7922.3875
3110.92066	7873.3875
3113.28232	7876.0875
3115.64255	7853.5875
3118.00134	7824.0875
3120.35871	7838.7875
3122.71466	7815.6875
3125.06917	7796.7875
3127.42226	7768.9875
3129.77393	7796.6875
3132.12417	7756.5875
3134.47299	7787.6875
3136.82039	7755.5875
3139.16636	7763.3875
3141.51092	7737.7875
3143.85406	7751.7875
3146.19579	7773.3875
3148.53609	7768.0875
3150.87499	7760.2875
3153.21246	7769.5875
3155.54853	7803.0875
3157.88318	7788.7875
3160.21642	7783.1875
3162.54826	7791.3875
3164.87868	7798.6875
3167.2077	7786.6875
3169.5353	7797.6875
3171.86151	7794.0875
3174.18631	7792.2875
3176.5097	7799.9875
3178.83169	7764.3875
3181.15228	7734.9875
3183.47147	7730.8875
3185.78926	7720.9875
3188.10565	7707.0875
3190.42065	7738.3875
3192.73424	7714.2875
3195.04645	7677.6875
3197.35725	7691.3875
3199.66667	7670.3875
3201.97469	7686.3875
3204.28132	7691.4875
3206.58656	7702.6875
3208.8904	7707.4875
3211.19287	7714.3875
3213.49394	7726.0875
3215.79363	7711.3875
3218.09193	7720.4875
3220.38884	7688.5875
3222.68438	7689.5875
3224.97853	7679.9875
3227.2713	7697.1875
3229.56269	7681.4875
3231.8527	7675.9875
3234.14133	7672.4875
3236.42858	7646.7875
3238.71446	7609.1875
3240.99896	7601.4875
3243.28209	7589.0875
3245.56384	7583.0875
3247.84423	7605.0875
3250.12324	7580.1875
3252.40088	7556.0875
3254.67715	7559.0875
3256.95205	7538.6875
3259.22558	7527.4875
3261.49775	7535.7875
3263.76855	7503.0875
3266.03799	7501.1875
3268.30606	7489.1875
3270.57277	7471.4875
3272.83812	7451.1875
3275.10211	7439.4875
3277.36474	7426.7875
3279.62601	7422.7875
3281.88593	7413.3875
3284.14448	7389.9875
3286.40168	7417.2875
3288.65753	7404.3875
3290.91202	7395.4875
3293.16516	7376.1875
3295.41695	7354.6875
3297.66738	7319.0875
3299.91647	7270.2875
3302.16421	7221.4875
3304.4106	7186.3875
3306.65564	7154.9875
3308.89933	7095.1875
3311.14169	7069.0875
3313.38269	7002.0875
3315.62236	6944.1875
3317.86068	6874.3875
3320.09766	6837.3875
3322.3333	6770.0875
3324.5676	6761.7875
3326.80056	6644.4875
3329.03219	6601.0875
3331.26248	3.4875
3333.49143	-0.9125
3335.71905	-0.8125
