Data from AgNPs_FTO_APTES_UA_5uM_CRN_10uM_R6G_10uM_NaF_0.1M_Addition_RamanShift__32__13-00-36-753.txt Node

Date: Mon Feb 07 13:00:36 GMT 2022
User: TCL
Spectrometer: QEP01345
Trigger mode: 4
Integration Time (sec): 7.000000E0
Scans to average: 10
Electric dark correction enabled: true
Nonlinearity correction enabled: false
Boxcar width: 0
XAxis mode: Raman Shifts
Number of Pixels in Spectrum: 1044
>>>>>Begin Spectral Data<<<<<
46.04893	0.2
50.45542	-0.6
54.85868	-1.4
59.25871	0.1
63.6555	46.1
68.04907	47
72.43941	50
76.82654	56.7
81.21044	56.8
85.59113	57.2
89.96862	66.7
94.34289	62.4
98.71396	65.9
103.08183	66.3
107.4465	69.7
111.80798	71.2
116.16626	73.1
120.52136	80.2
124.87327	77.7
129.222	85.6
133.56755	91.2
137.90993	96.7
142.24913	104
146.58517	117.8
150.91804	136.9
155.24774	162.4
159.57429	201.3
163.89768	261.7
168.21792	355.4
172.53501	475.5
176.84895	658.9
181.15975	922.8
185.46741	1290.4
189.77193	1770.3
194.07331	2378.6
198.37157	3036.6
202.6667	3758
206.9587	4469.6
211.24758	5185.6
215.53334	5936.5
219.81599	6815.7
224.09553	7823.7
228.37195	8962.8
232.64527	10145.7
236.91549	11317.6
241.18261	12335.6
245.44663	13134.9
249.70755	13644.4
253.96539	14141.5
258.22014	14531.2
262.4718	14972.6
266.72039	15278.6
270.96589	15543.9
275.20832	15605.8
279.44768	15498.3
283.68397	15385.7
287.91719	15306.9
292.14735	15498.2
296.37445	15942.3
300.59849	16691
304.81948	17640.5
309.03742	18327.3
313.25231	18363.1
317.46415	17253.9
321.67296	15523.5
325.87872	14007.7
330.08145	13255.9
334.28114	13114.9
338.47781	13371.2
342.67145	13877
346.86207	14609.4
351.04966	15710.1
355.23424	17055
359.4158	18014.7
363.59435	18403.7
367.76989	18372.4
371.94243	18145.7
376.11196	17899.9
380.27849	17644.7
384.44203	17296
388.60257	16891.1
392.76012	16697.9
396.91468	16886.7
401.06626	17456.9
405.21485	17914.9
409.36047	17477
413.50311	16211.7
417.64277	15001.8
421.77947	14303
425.9132	14009.5
430.04396	13901.9
434.17176	13934.4
438.2966	14110.6
442.41849	14398.4
446.53742	14877.6
450.6534	15356.5
454.76644	15593.8
458.87653	15612.2
462.98368	15466.6
467.08789	15165.2
471.18916	14769.2
475.2875	14342.1
479.38291	13996.2
483.4754	13691.6
487.56496	13467.5
491.6516	13289
495.73531	13292.7
499.81612	13357.8
503.89401	13619.5
507.96899	13867.6
512.04106	14150.8
516.11023	14423.1
520.1765	14582
524.23987	14471
528.30034	14019.8
532.35792	13598.8
536.41261	13147.6
540.46441	12724.3
544.51333	12526.2
548.55936	12668.7
552.60252	13188.2
556.64279	13754.9
560.6802	14024.2
564.71473	14354.6
568.7464	15227.9
572.7752	15839.7
576.80114	15308.1
580.82422	14477.1
584.84444	14119.7
588.86181	13898.1
592.87633	13742.4
596.888	13871.2
600.89682	14520
604.9028	16900.1
608.90594	23402.8
612.90624	32437.4
616.90371	31465.5
620.89834	19820.8
624.89015	14170.8
628.87913	13118.7
632.86528	13283.1
636.84862	13677
640.82913	13452.9
644.80683	12564.9
648.78172	11977.4
652.75379	12021.5
656.72306	12789.2
660.68952	13821.3
664.65319	13663.3
668.61405	12616.7
672.57211	12095
676.52738	12011.1
680.47986	12025.1
684.42955	11841.3
688.37646	11695.9
692.32058	11777.9
696.26192	11937.8
700.20048	12175.6
704.13626	12387.5
708.06928	12409
711.99952	12287.6
715.927	12199.5
719.85171	12208.6
723.77365	12199.1
727.69284	11995.1
731.60928	11799.3
735.52295	11711.4
739.43388	11766.4
743.34206	11823.1
747.24749	11922.9
751.15017	12092.6
755.05012	12467.2
758.94733	13393.8
762.8418	15591.4
766.73354	19475.2
770.62254	23581.3
774.50882	25474.4
778.39237	24015
782.27321	19918
786.15132	15869.4
790.02671	13540.2
793.89938	12454.6
797.76935	11999.5
801.6366	11798
805.50115	11667.6
809.36299	11552.3
813.22213	11476.1
817.07857	11441.3
820.93231	11413.1
824.78336	11437
828.63172	11555.5
832.47738	11568.8
836.32036	11513.3
840.16066	11377.2
843.99827	11287.9
847.8332	11249.7
851.66546	11198.7
855.49504	11188.6
859.32195	11140.2
863.1462	11048.4
866.96777	10978.1
870.78668	10986.7
874.60293	10984.5
878.41652	11031.1
882.22745	11124.6
886.03573	11190.5
889.84136	11158.3
893.64433	11044.2
897.44466	11034.1
901.24235	11059.2
905.0374	11004
908.8298	10968.5
912.61957	10963.2
916.40671	11058.5
920.19121	11263.1
923.97308	11397.4
927.75233	11561.3
931.52895	11659
935.30295	11444.8
939.07433	10929
942.84309	10469.7
946.60924	10208.4
950.37278	10082.7
954.13371	10022.2
957.89203	9950.9
961.64774	9932.2
965.40086	9933.2
969.15137	9860
972.89929	9819.3
976.64461	9803.5
980.38733	9779.4
984.12747	9806.9
987.86502	9846.7
991.59999	9907.5
995.33237	10045.5
999.06217	10300.6
1002.78939	10639.1
1006.51404	10980.3
1010.23611	11355.6
1013.95561	11608.6
1017.67255	11528.4
1021.38692	11231
1025.09872	10967.5
1028.80796	10831.2
1032.51465	10879.4
1036.21877	11042
1039.92035	11218.5
1043.61937	11348.9
1047.31584	11319.3
1051.00976	11301.9
1054.70114	11280
1058.38998	11289.1
1062.07627	11396
1065.76003	11543.6
1069.44126	11666.4
1073.11995	11830
1076.79611	12031
1080.46974	12307.2
1084.14085	12772.8
1087.80943	13335.2
1091.47549	13631.2
1095.13903	13337.3
1098.80005	12704.9
1102.45857	12047.1
1106.11456	11700.5
1109.76805	11710
1113.41903	12065.4
1117.06751	12617.7
1120.71348	13437
1124.35696	14332.3
1127.99793	15130.9
1131.63641	15108.1
1135.2724	14073.4
1138.90589	13098
1142.5369	12478.4
1146.16542	12129.9
1149.79145	11949.5
1153.415	11968.5
1157.03607	12160.8
1160.65467	12560.4
1164.27079	13220.5
1167.88443	14261.3
1171.49561	15950.6
1175.10432	18817.1
1178.71056	22536.1
1182.31434	25004.2
1185.91565	25261.6
1189.51451	24210.2
1193.11091	22230.5
1196.70485	19954.3
1200.29634	18315
1203.88538	17170.2
1207.47197	15757.9
1211.05612	14541.5
1214.63782	13829.9
1218.21708	13557.8
1221.79391	13568.7
1225.36829	13694.8
1228.94024	13871.3
1232.50976	13998.3
1236.07685	14040.9
1239.6415	14042.5
1243.20374	13974.8
1246.76355	14067.3
1250.32093	14252.1
1253.8759	14632.7
1257.42845	15254.2
1260.97859	15878.8
1264.52631	16615.3
1268.07163	17337.3
1271.61453	17983.6
1275.15503	18446.8
1278.69312	18572.2
1282.22882	18625.4
1285.76211	19096.4
1289.29301	19929.2
1292.82151	20692.4
1296.34761	21552.9
1299.87133	22865.9
1303.39266	25109.4
1306.9116	28787.1
1310.42815	33151
1313.94233	36045.8
1317.45412	35613.5
1320.96354	32813.4
1324.47058	29489.6
1327.97525	26638.6
1331.47754	24822.5
1334.97747	24022.9
1338.47502	23928.8
1341.97022	24389.7
1345.46305	25428.2
1348.95352	27133.4
1352.44163	29591.4
1355.92738	33247.6
1359.41078	39170.1
1362.89183	45367.2
1366.37053	44588.9
1369.84688	36752.3
1373.32088	28808.4
1376.79254	23849.5
1380.26186	21431.2
1383.72883	20257.5
1387.19347	19408.4
1390.65578	18417.2
1394.11575	17646.7
1397.57339	17247.7
1401.0287	17213.2
1404.48168	17417.3
1407.93234	17597.7
1411.38068	17655.6
1414.82669	17536.2
1418.27039	17144.4
1421.71177	16653.1
1425.15083	16148.2
1428.58758	15758.7
1432.02203	15755.9
1435.45416	15931.3
1438.88399	16025.9
1442.31151	16074.4
1445.73673	16228.5
1449.15965	16413.6
1452.58027	16460.7
1455.9986	16288.5
1459.41463	16257.8
1462.82837	16504.4
1466.23982	16908.2
1469.64898	17404.8
1473.05586	17760.6
1476.46045	18019.4
1479.86276	18392.5
1483.26279	18949.4
1486.66054	19635.2
1490.05602	20539.2
1493.44922	21750.1
1496.84016	23720.7
1500.22882	26895.1
1503.61521	31135.2
1506.99934	36046.9
1510.38121	40839.7
1513.76081	43658.4
1517.13816	41893.6
1520.51324	36308.9
1523.88607	30141.5
1527.25665	25778.7
1530.62498	23132.1
1533.99105	21598.8
1537.35488	20510.6
1540.71647	19848.4
1544.07581	19374.4
1547.4329	19086.5
1550.78776	18916
1554.14038	18894.8
1557.49077	19171.6
1560.83892	19812.5
1564.18484	20718.9
1567.52853	21661.8
1570.86999	22348.5
1574.20922	22735.6
1577.54624	22547.3
1580.88103	21135.3
1584.2136	19108.4
1587.54395	18057.1
1590.87208	18158.5
1594.19801	19313.9
1597.52172	20840.6
1600.84321	21432.5
1604.16251	20359.3
1607.47959	18663.1
1610.79447	17022.7
1614.10715	15442.4
1617.41763	14183.6
1620.7259	13357.9
1624.03199	12958.1
1627.33587	12941.1
1630.63757	13357.8
1633.93707	14221.6
1637.23439	15646.4
1640.52951	17666
1643.82246	20594.5
1647.11321	24210.2
1650.40179	27312.7
1653.68819	27171
1656.97241	23181.3
1660.25446	18251.1
1663.53433	14633
1666.81203	12486.2
1670.08756	11258.1
1673.36092	10531.8
1676.63211	10091.1
1679.90115	9802.3
1683.16801	9566.6
1686.43272	9389.9
1689.69527	9271.1
1692.95567	9179.9
1696.2139	9127.4
1699.46999	9067.1
1702.72392	9014
1705.97571	8987.5
1709.22535	8995
1712.47284	8993.8
1715.71819	9005.7
1718.96139	9038.4
1722.20246	8991.8
1725.44139	8952.1
1728.67818	8844.5
1731.91284	8731.9
1735.14537	8618.2
1738.37576	8538.2
1741.60403	8478.1
1744.83017	8463.4
1748.05418	8426.2
1751.27607	8398.2
1754.49584	8361.7
1757.71349	8347.6
1760.92903	8317.3
1764.14244	8298.5
1767.35375	8282.4
1770.56294	8219.3
1773.77002	8219.2
1776.97499	8169.9
1780.17785	8101
1783.37861	8090.4
1786.57727	8070.7
1789.77382	8029.4
1792.96828	8035.2
1796.16064	8013.9
1799.3509	8007.2
1802.53907	7958.1
1805.72514	7957.1
1808.90913	7899.6
1812.09102	7855.7
1815.27083	7842.8
1818.44856	7823.3
1821.6242	7796.5
1824.79776	7791.3
1827.96924	7781.4
1831.13864	7757.4
1834.30597	7775.1
1837.47122	7745.1
1840.6344	7730.6
1843.7955	7739.5
1846.95454	7716.9
1850.11151	7721.1
1853.26642	7717
1856.41926	7716.9
1859.57004	7745.1
1862.71876	7732.6
1865.86542	7741
1869.01003	7734.8
1872.15258	7725.2
1875.29308	7741.2
1878.43152	7753.3
1881.56792	7779.9
1884.70227	7777.7
1887.83457	7787.7
1890.96482	7798.6
1894.09304	7791.2
1897.21921	7797.9
1900.34335	7797.7
1903.46544	7815
1906.58551	7841.9
1909.70353	7830.4
1912.81953	7840.4
1915.93349	7839.5
1919.04543	7830.5
1922.15534	7831
1925.26322	7763.3
1928.36908	7744.8
1931.47292	7715.3
1934.57473	7624.6
1937.67453	7554.9
1940.77232	7507.6
1943.86808	7449.5
1946.96184	7394.3
1950.05358	7373.4
1953.14331	7334.4
1956.23103	7300.4
1959.31675	7249.4
1962.40046	7217.3
1965.48217	7194.4
1968.56188	7173.1
1971.63959	7158.8
1974.7153	7148
1977.78901	7113.9
1980.86073	7083.4
1983.93046	7050.4
1986.99819	7014.3
1990.06394	6977.8
1993.1277	6961.9
1996.18947	6941.5
1999.24925	6904.8
2002.30706	6894.6
2005.36288	6850.8
2008.41672	6840.1
2011.46859	6819.3
2014.51848	6780.9
2017.56639	6750.7
2020.61233	6748.5
2023.6563	6718.4
2026.6983	6693.7
2029.73833	6670.3
2032.7764	6646.7
2035.8125	6631
2038.84664	6620.2
2041.87881	6615.7
2044.90903	6586.3
2047.93729	6572
2050.96359	6566.4
2053.98794	6543.9
2057.01034	6530.5
2060.03078	6528.4
2063.04927	6508.6
2066.06582	6502.7
2069.08042	6500.9
2072.09307	6495.8
2075.10378	6477.3
2078.11255	6482.6
2081.11938	6469
2084.12426	6452.4
2087.12722	6470.8
2090.12824	6453.9
2093.12732	6449.3
2096.12447	6464.2
2099.11969	6452.7
2102.11299	6436.4
2105.10435	6452.9
2108.09379	6440.4
2111.08131	6439.8
2114.0669	6438.2
2117.05057	6462.7
2120.03233	6442.5
2123.01216	6467.3
2125.99008	6468.5
2128.96609	6464.8
2131.94018	6476.5
2134.91236	6477.4
2137.88263	6471.8
2140.851	6477.2
2143.81746	6462.3
2146.78201	6445.5
2149.74466	6440.8
2152.7054	6428.1
2155.66425	6418.5
2158.6212	6393.4
2161.57625	6391.1
2164.52941	6390.6
2167.48067	6405.7
2170.43004	6402.9
2173.37752	6396.8
2176.32311	6381.6
2179.26681	6390
2182.20863	6391.6
2185.14856	6372.6
2188.08661	6368.7
2191.02278	6393.4
2193.95707	6367.3
2196.88948	6345.5
2199.82001	6331.7
2202.74867	6332.4
2205.67545	6303.9
2208.60037	6322.2
2211.52341	6308.9
2214.44458	6325
2217.36388	6279
2220.28132	6274.2
2223.1969	6228.5
2226.11061	6210.2
2229.02246	6217.2
2231.93245	6179.8
2234.84058	6166.1
2237.74686	6171.8
2240.65128	6150
2243.55385	6138.9
2246.45456	6142.4
2249.35343	6136.4
2252.25044	6115.4
2255.14561	6134
2258.03893	6161.4
2260.93041	6147
2263.82004	6112.8
2266.70783	6120.2
2269.59378	6099.9
2272.4779	6067
2275.36017	6069.8
2278.24061	6055.4
2281.11922	6031.4
2283.996	6018
2286.87094	6000.3
2289.74405	5981.1
2292.61534	5973.9
2295.4848	5952.5
2298.35243	5929.4
2301.21824	5921.3
2304.08223	5931.2
2306.94439	5924.3
2309.80474	5920.9
2312.66327	5920.3
2315.51999	5922
2318.37489	5925.9
2321.22797	5916.2
2324.07925	5909.7
2326.92871	5898.1
2329.77637	5884.2
2332.62222	5870.7
2335.46626	5862.7
2338.3085	5870.1
2341.14893	5866.5
2343.98756	5865.6
2346.8244	5862.4
2349.65943	5900.5
2352.49267	5902.2
2355.32411	5927.7
2358.15376	5936.2
2360.98161	5974.3
2363.80768	5983.9
2366.63195	5997.8
2369.45444	6016.1
2372.27514	6001.4
2375.09405	5997.1
2377.91118	5966.5
2380.72652	5910.1
2383.54009	5883.8
2386.35187	5845.5
2389.16188	5808.2
2391.97011	5776.1
2394.77657	5751.9
2397.58125	5741.9
2400.38416	5725.6
2403.18529	5693
2405.98466	5692.2
2408.78226	5664.5
2411.57809	5663.1
2414.37216	5648
2417.16446	5659.5
2419.955	5645.6
2422.74378	5647
2425.5308	5636.9
2428.31606	5648.9
2431.09956	5628.8
2433.88131	5639.2
2436.6613	5632.6
2439.43954	5637.4
2442.21603	5639.6
2444.99077	5643.2
2447.76377	5653.7
2450.53501	5657.7
2453.30451	5659.2
2456.07226	5644.9
2458.83827	5653.9
2461.60254	5627.9
2464.36507	5629
2467.12586	5640.1
2469.88492	5644.5
2472.64224	5664.7
2475.39782	5670.5
2478.15167	5678.1
2480.90379	5672.4
2483.65417	5708.7
2486.40283	5727.7
2489.14976	5754.9
2491.89497	5761.1
2494.63845	5782.4
2497.3802	5770.1
2500.12024	5760.2
2502.85855	5742.9
2505.59514	5716.6
2508.33002	5693.7
2511.06318	5641.1
2513.79462	5606.5
2516.52435	5578.5
2519.25237	5554.6
2521.97867	5518.8
2524.70327	5518.2
2527.42616	5488
2530.14734	5501.2
2532.86681	5490.7
2535.58458	5503
2538.30065	5486.8
2541.01501	5489.5
2543.72768	5481.4
2546.43864	5489.7
2549.14791	5494.1
2551.85548	5507.9
2554.56136	5475.6
2557.26554	5466.1
2559.96803	5465.3
2562.66883	5465.5
2565.36794	5443
2568.06536	5436.5
2570.7611	5434.2
2573.45514	5412.3
2576.14751	5403.1
2578.83819	5394.7
2581.52719	5381.9
2584.21451	5388
2586.90015	5377.5
2589.58411	5367.8
2592.2664	5386.3
2594.94701	5368.1
2597.62594	5382.3
2600.30321	5354.2
2602.9788	5356.9
2605.65273	5349
2608.32498	5370
2610.99557	5366.6
2613.66449	5355.2
2616.33175	5360.8
2618.99734	5360
2621.66128	5350.6
2624.32355	5339.2
2626.98416	5345.3
2629.64311	5327.9
2632.30041	5325.4
2634.95605	5317.5
2637.61004	5307.3
2640.26238	5282.1
2642.91306	5262.2
2645.56209	5265.8
2648.20948	5249
2650.85521	5248.5
2653.4993	5275.1
2656.14175	5255.2
2658.78255	5278.7
2661.42171	5272
2664.05923	5277.4
2666.6951	5297
2669.32934	5306.4
2671.96194	5310.6
2674.59291	5328.2
2677.22224	5333.4
2679.84993	5344.3
2682.476	5322.4
2685.10043	5316.9
2687.72324	5311.1
2690.34441	5298.5
2692.96396	5306
2695.58188	5313.8
2698.19818	5304.7
2700.81285	5298.2
2703.4259	5315.5
2706.03733	5337.1
2708.64714	5335.6
2711.25533	5330.3
2713.86191	5317.7
2716.46687	5339.5
2719.07021	5335.8
2721.67194	5365.5
2724.27206	5327.5
2726.87057	5335.7
2729.46747	5333.2
2732.06276	5329.3
2734.65644	5307.9
2737.24852	5290.7
2739.83899	5296.5
2742.42786	5289.5
2745.01513	5273.9
2747.60079	5274.1
2750.18486	5271.2
2752.76733	5255.5
2755.3482	5235.8
2757.92747	5232.1
2760.50515	5231.1
2763.08123	5205.9
2765.65573	5215.8
2768.22863	5222.4
2770.79994	5197.6
2773.36967	5198.2
2775.9378	5186.4
2778.50435	5188.5
2781.06932	5198.4
2783.6327	5192.9
2786.1945	5195.6
2788.75471	5210.8
2791.31335	5194.9
2793.87041	5189.1
2796.42589	5166.1
2798.97979	5187.4
2801.53212	5167.2
2804.08288	5164.1
2806.63206	5169.5
2809.17967	5159.8
2811.72571	5160.7
2814.27018	5179.1
2816.81308	5171.8
2819.35442	5178.6
2821.89419	5197.4
2824.43239	5208.5
2826.96904	5238.2
2829.50412	5250.7
2832.03763	5221.5
2834.56959	5219.7
2837.1	5228.8
2839.62884	5250.9
2842.15613	5278.1
2844.68186	5340.2
2847.20604	5414.5
2849.72867	5440.4
2852.24974	5477.5
2854.76927	5469
2857.28724	5462.6
2859.80367	5463.5
2862.31855	5437.3
2864.83189	5420.7
2867.34368	5410.5
2869.85393	5431.9
2872.36264	5415.3
2874.8698	5410
2877.37543	5397.2
2879.87952	5388.4
2882.38207	5374.3
2884.88308	5367.1
2887.38256	5361
2889.88051	5348.7
2892.37692	5354.6
2894.8718	5357.9
2897.36515	5344.5
2899.85698	5357.2
2902.34727	5368.3
2904.83604	5371.3
2907.32328	5399.6
2909.809	5381
2912.29319	5377.6
2914.77587	5392.5
2917.25702	5390.6
2919.73665	5386
2922.21476	5370.8
2924.69136	5375.2
2927.16644	5357.3
2929.64	5331.1
2932.11205	5316.4
2934.58258	5297.5
2937.05161	5271.8
2939.51912	5252.7
2941.98513	5210.6
2944.44962	5175.5
2946.91261	5136.6
2949.37409	5105.5
2951.83407	5074.2
2954.29254	5065.5
2956.74951	5069.5
2959.20498	5047.4
2961.65895	5009
2964.11142	5015
2966.56239	5013.7
2969.01186	4978.9
2971.45984	4978.8
2973.90632	4959.7
2976.35131	4948.8
2978.7948	4918.2
2981.23681	4911.5
2983.67732	4896.6
2986.11635	4855.2
2988.55388	4861.5
2990.98993	4846.1
2993.4245	4840
2995.85758	4822.2
2998.28917	4817.5
3000.71928	4806.6
3003.14791	4788.5
3005.57506	4787.5
3008.00073	4784.9
3010.42493	4683.6
3012.84764	4752.6
3015.26888	4764.7
3017.68865	4742.6
3020.10694	4745.9
3022.52376	4742.2
3024.9391	4722.3
3027.35298	4708
3029.76539	4710.2
3032.17632	4698.9
3034.5858	4678.8
3036.9938	4665
3039.40034	4656.3
3041.80542	4642.7
3044.20903	4638.6
3046.61118	4640.7
3049.01187	4616.6
3051.4111	4638.2
3053.80888	4623.2
3056.20519	4635
3058.60005	4612.3
3060.99345	4589.2
3063.3854	4580.8
3065.7759	4573.1
3068.16494	4553.7
3070.55254	4549.6
3072.93868	4515.5
3075.32338	4515
3077.70662	4491.4
3080.08842	4467.3
3082.46878	4451.7
3084.84769	4433.4
3087.22515	4438.2
3089.60118	4422.3
3091.97576	4428.5
3094.3489	4418
3096.72061	4416.8
3099.09087	4400.3
3101.4597	4407.1
3103.82709	4392.7
3106.19305	4396.2
3108.55757	4379.8
3110.92066	4375
3113.28232	4373.5
3115.64255	4372.4
3118.00134	4344.1
3120.35871	4349.6
3122.71466	4347.7
3125.06917	4342.1
3127.42226	4328.7
3129.77393	4346.7
3132.12417	4327.2
3134.47299	4333.9
3136.82039	4332.2
3139.16636	4318
3141.51092	4328.5
3143.85406	4317.6
3146.19579	4327.2
3148.53609	4330
3150.87499	4340.9
3153.21246	4344.7
3155.54853	4357.6
3157.88318	4348.2
3160.21642	4352
3162.54826	4356.2
3164.87868	4349.7
3167.2077	4368.6
3169.5353	4362.6
3171.86151	4357.7
3174.18631	4354.5
3176.5097	4359.4
3178.83169	4353.9
3181.15228	4354.9
3183.47147	4355.6
3185.78926	4347.3
3188.10565	4341.3
3190.42065	4336.1
3192.73424	4326.7
3195.04645	4345.5
3197.35725	4353.6
3199.66667	4337.4
3201.97469	4347.3
3204.28132	4353
3206.58656	4342.7
3208.8904	4358.9
3211.19287	4363.2
3213.49394	4376.6
3215.79363	4387.3
3218.09193	4381.2
3220.38884	4389.6
3222.68438	4397.5
3224.97853	4378
3227.2713	4380.8
3229.56269	4373.1
3231.8527	4384.2
3234.14133	4358.1
3236.42858	4347.2
3238.71446	4342.6
3240.99896	4336.4
3243.28209	4324
3245.56384	4320.8
3247.84423	4314.9
3250.12324	4312.4
3252.40088	4300.5
3254.67715	4289.2
3256.95205	4305
3259.22558	4301.4
3261.49775	4289.5
3263.76855	4286.3
3266.03799	4260.8
3268.30606	4263.8
3270.57277	4253.1
3272.83812	4245.1
3275.10211	4244.8
3277.36474	4236.5
3279.62601	4248.7
3281.88593	4241.1
3284.14448	4237.2
3286.40168	4227.2
3288.65753	4232.4
3290.91202	4238.5
3293.16516	4224.5
3295.41695	4208
3297.66738	4182.2
3299.91647	4164.8
3302.16421	4139.9
3304.4106	4112
3306.65564	4089.3
3308.89933	4046.4
3311.14169	4032.3
3313.38269	3983.1
3315.62236	3972
3317.86068	3912.6
3320.09766	3875.8
3322.3333	3848.9
3324.5676	3833.6
3326.80056	3773.9
3329.03219	3748.3
3331.26248	2.2
3333.49143	-0.9
3335.71905	-0.4
