Data from AgNPs_FTO_APTES_UA_5uM_CRN_5uM_R6G_10uM_NaF_0.1M_Addition_RamanShift__31__12-20-56-708.txt Node

Date: Mon Feb 07 12:20:56 GMT 2022
User: TCL
Spectrometer: QEP01345
Trigger mode: 4
Integration Time (sec): 7.000000E0
Scans to average: 10
Electric dark correction enabled: true
Nonlinearity correction enabled: false
Boxcar width: 0
XAxis mode: Raman Shifts
Number of Pixels in Spectrum: 1044
>>>>>Begin Spectral Data<<<<<
46.04893	-0.5625
50.45542	-1.2625
54.85868	-0.9625
59.25871	1.1375
63.6555	50.7375
68.04907	53.6375
72.43941	59.8375
76.82654	59.6375
81.21044	60.7375
85.59113	64.8375
89.96862	72.0375
94.34289	66.8375
98.71396	72.0375
103.08183	75.4375
107.4465	77.0375
111.80798	78.9375
116.16626	77.1375
120.52136	85.2375
124.87327	90.3375
129.222	95.0375
133.56755	95.2375
137.90993	108.1375
142.24913	111.0375
146.58517	126.6375
150.91804	143.6375
155.24774	174.5375
159.57429	213.7375
163.89768	280.1375
168.21792	373.3375
172.53501	517.0375
176.84895	707.1375
181.15975	983.2375
185.46741	1387.3375
189.77193	1891.6375
194.07331	2527.5375
198.37157	3239.8375
202.6667	4000.3375
206.9587	4744.5375
211.24758	5528.5375
215.53334	6336.5375
219.81599	7293.1375
224.09553	8404.9375
228.37195	9608.1375
232.64527	10906.9375
236.91549	12167.2375
241.18261	13222.7375
245.44663	14052.6375
249.70755	14620.3375
253.96539	15092.6375
258.22014	15497.7375
262.4718	15939.6375
266.72039	16324.7375
270.96589	16523.8375
275.20832	16592.4375
279.44768	16456.9375
283.68397	16327.8375
287.91719	16264.6375
292.14735	16394.3375
296.37445	16903.6375
300.59849	17751.2375
304.81948	18839.3375
309.03742	19660.1375
313.25231	19716.2375
317.46415	18527.9375
321.67296	16600.2375
325.87872	14892.9375
330.08145	14089.7375
334.28114	13927.4375
338.47781	14212.0375
342.67145	14716.9375
346.86207	15570.7375
351.04966	16802.2375
355.23424	18265.5375
359.4158	19326.9375
363.59435	19755.2375
367.76989	19732.0375
371.94243	19482.6375
376.11196	19157.9375
380.27849	18860.3375
384.44203	18484.6375
388.60257	18029.5375
392.76012	17825.5375
396.91468	18014.0375
401.06626	18647.7375
405.21485	19145.8375
409.36047	18673.4375
413.50311	17259.6375
417.64277	15968.0375
421.77947	15197.7375
425.9132	14846.8375
430.04396	14772.8375
434.17176	14787.8375
438.2966	14912.9375
442.41849	15302.8375
446.53742	15776.1375
450.6534	16312.4375
454.76644	16596.6375
458.87653	16609.4375
462.98368	16416.3375
467.08789	16140.0375
471.18916	15662.3375
475.2875	15178.5375
479.38291	14775.7375
483.4754	14450.8375
487.56496	14161.9375
491.6516	13976.8375
495.73531	14008.3375
499.81612	14113.6375
503.89401	14372.5375
507.96899	14646.7375
512.04106	14954.1375
516.11023	15225.0375
520.1765	15435.7375
524.23987	15276.1375
528.30034	14873.9375
532.35792	14340.7375
536.41261	13860.2375
540.46441	13379.0375
544.51333	13157.4375
548.55936	13314.7375
552.60252	13830.9375
556.64279	14440.0375
560.6802	14778.6375
564.71473	15120.6375
568.7464	16108.4375
572.7752	16831.8375
576.80114	16244.3375
580.82422	15386.2375
584.84444	14976.7375
588.86181	14715.8375
592.87633	14526.6375
596.888	14658.5375
600.89682	15407.6375
604.9028	18030.1375
608.90594	25170.5375
612.90624	35062.3375
616.90371	33988.6375
620.89834	21277.9375
624.89015	15042.6375
628.87913	13854.2375
632.86528	14021.6375
636.84862	14442.8375
640.82913	14178.1375
644.80683	13205.0375
648.78172	12530.0375
652.75379	12606.9375
656.72306	13485.8375
660.68952	14612.5375
664.65319	14440.2375
668.61405	13313.3375
672.57211	12666.9375
676.52738	12605.8375
680.47986	12561.3375
684.42955	12373.3375
688.37646	12267.9375
692.32058	12337.1375
696.26192	12479.5375
700.20048	12760.8375
704.13626	12973.0375
708.06928	13022.8375
711.99952	12876.3375
715.927	12785.7375
719.85171	12792.7375
723.77365	12777.1375
727.69284	12530.4375
731.60928	12336.5375
735.52295	12272.6375
739.43388	12303.8375
743.34206	12406.1375
747.24749	12505.7375
751.15017	12680.4375
755.05012	13117.1375
758.94733	14135.5375
762.8418	16554.9375
766.73354	20799.7375
770.62254	25270.4375
774.50882	27326.5375
778.39237	25761.7375
782.27321	21273.3375
786.15132	16886.5375
790.02671	14297.0375
793.89938	13118.2375
797.76935	12608.1375
801.6366	12385.7375
805.50115	12214.0375
809.36299	12100.2375
813.22213	12028.6375
817.07857	11975.2375
820.93231	11968.7375
824.78336	11995.2375
828.63172	12113.9375
832.47738	12167.8375
836.32036	12124.2375
840.16066	11942.0375
843.99827	11834.3375
847.8332	11741.7375
851.66546	11726.3375
855.49504	11709.2375
859.32195	11670.6375
863.1462	11551.5375
866.96777	11496.8375
870.78668	11456.7375
874.60293	11475.7375
878.41652	11506.7375
882.22745	11631.0375
886.03573	11756.4375
889.84136	11687.9375
893.64433	11589.4375
897.44466	11543.7375
901.24235	11564.0375
905.0374	11516.5375
908.8298	11468.5375
912.61957	11431.3375
916.40671	11570.4375
920.19121	11761.0375
923.97308	11966.8375
927.75233	12117.7375
931.52895	12282.8375
935.30295	12029.5375
939.07433	11475.0375
942.84309	10996.4375
946.60924	10700.5375
950.37278	10527.4375
954.13371	10446.2375
957.89203	10372.1375
961.64774	10352.3375
965.40086	10332.1375
969.15137	10287.0375
972.89929	10226.4375
976.64461	10228.7375
980.38733	10219.7375
984.12747	10219.2375
987.86502	10279.0375
991.59999	10371.7375
995.33237	10513.0375
999.06217	10816.5375
1002.78939	11217.9375
1006.51404	11626.6375
1010.23611	12060.6375
1013.95561	12323.5375
1017.67255	12207.1375
1021.38692	11881.6375
1025.09872	11595.5375
1028.80796	11411.7375
1032.51465	11490.5375
1036.21877	11693.5375
1039.92035	11887.4375
1043.61937	11999.7375
1047.31584	11951.2375
1051.00976	11910.2375
1054.70114	11870.1375
1058.38998	11834.6375
1062.07627	11961.6375
1065.76003	12095.5375
1069.44126	12262.0375
1073.11995	12455.7375
1076.79611	12710.1375
1080.46974	12994.8375
1084.14085	13483.6375
1087.80943	14167.0375
1091.47549	14451.2375
1095.13903	14145.1375
1098.80005	13416.7375
1102.45857	12703.0375
1106.11456	12319.4375
1109.76805	12328.6375
1113.41903	12694.2375
1117.06751	13346.8375
1120.71348	14165.0375
1124.35696	15191.5375
1127.99793	16105.0375
1131.63641	16027.2375
1135.2724	14915.0375
1138.90589	13818.2375
1142.5369	13186.8375
1146.16542	12784.7375
1149.79145	12554.6375
1153.415	12568.1375
1157.03607	12775.8375
1160.65467	13233.0375
1164.27079	13977.5375
1167.88443	15101.8375
1171.49561	17011.3375
1175.10432	20120.0375
1178.71056	24224.0375
1182.31434	26960.2375
1185.91565	27284.7375
1189.51451	26207.4375
1193.11091	24049.2375
1196.70485	21497.0375
1200.29634	19661.3375
1203.88538	18376.9375
1207.47197	16802.0375
1211.05612	15448.7375
1214.63782	14652.4375
1218.21708	14351.4375
1221.79391	14394.2375
1225.36829	14584.7375
1228.94024	14761.8375
1232.50976	14924.3375
1236.07685	14983.7375
1239.6415	14946.4375
1243.20374	14860.6375
1246.76355	14904.9375
1250.32093	15109.3375
1253.8759	15555.4375
1257.42845	16213.8375
1260.97859	16969.0375
1264.52631	17756.3375
1268.07163	18521.8375
1271.61453	19223.9375
1275.15503	19788.0375
1278.69312	19975.1375
1282.22882	20066.0375
1285.76211	20659.4375
1289.29301	21578.8375
1292.82151	22434.6375
1296.34761	23371.4375
1299.87133	24820.6375
1303.39266	27373.3375
1306.9116	31473.7375
1310.42815	36276.3375
1313.94233	39473.9375
1317.45412	38928.1375
1320.96354	35809.5375
1324.47058	32189.6375
1327.97525	29083.9375
1331.47754	27052.7375
1334.97747	26138.7375
1338.47502	26013.2375
1341.97022	26447.6375
1345.46305	27546.6375
1348.95352	29400.0375
1352.44163	32085.4375
1355.92738	36012.2375
1359.41078	42478.2375
1362.89183	49342.0375
1366.37053	48490.4375
1369.84688	39959.1375
1373.32088	31254.2375
1376.79254	25880.0375
1380.26186	23252.0375
1383.72883	21927.0375
1387.19347	20924.4375
1390.65578	19842.1375
1394.11575	18950.0375
1397.57339	18557.1375
1401.0287	18544.6375
1404.48168	18727.9375
1407.93234	19014.7375
1411.38068	19141.2375
1414.82669	18985.4375
1418.27039	18567.8375
1421.71177	17984.7375
1425.15083	17428.2375
1428.58758	17026.9375
1432.02203	16971.9375
1435.45416	17146.2375
1438.88399	17249.9375
1442.31151	17316.9375
1445.73673	17468.8375
1449.15965	17643.9375
1452.58027	17658.0375
1455.9986	17471.4375
1459.41463	17485.2375
1462.82837	17678.7375
1466.23982	18121.2375
1469.64898	18680.7375
1473.05586	19075.0375
1476.46045	19342.6375
1479.86276	19772.2375
1483.26279	20358.0375
1486.66054	21212.0375
1490.05602	22122.1375
1493.44922	23551.5375
1496.84016	25747.0375
1500.22882	29155.3375
1503.61521	33806.7375
1506.99934	39143.7375
1510.38121	44497.1375
1513.76081	47433.3375
1517.13816	45479.3375
1520.51324	39320.8375
1523.88607	32645.0375
1527.25665	27871.3375
1530.62498	24972.8375
1533.99105	23247.0375
1537.35488	22053.7375
1540.71647	21344.5375
1544.07581	20829.2375
1547.4329	20494.0375
1550.78776	20259.8375
1554.14038	20248.5375
1557.49077	20538.3375
1560.83892	21203.1375
1564.18484	22204.0375
1567.52853	23245.1375
1570.86999	24002.1375
1574.20922	24407.5375
1577.54624	24175.2375
1580.88103	22622.1375
1584.2136	20447.3375
1587.54395	19380.3375
1590.87208	19591.5375
1594.19801	20893.8375
1597.52172	22664.0375
1600.84321	23270.5375
1604.16251	22048.0375
1607.47959	20186.2375
1610.79447	18326.8375
1614.10715	16532.3375
1617.41763	15096.4375
1620.7259	14190.4375
1624.03199	13786.7375
1627.33587	13827.4375
1630.63757	14290.0375
1633.93707	15283.5375
1637.23439	16902.0375
1640.52951	19186.5375
1643.82246	22377.8375
1647.11321	26364.8375
1650.40179	29642.7375
1653.68819	29371.5375
1656.97241	24920.1375
1660.25446	19511.7375
1663.53433	15558.0375
1666.81203	13210.1375
1670.08756	11896.1375
1673.36092	11090.8375
1676.63211	10599.4375
1679.90115	10285.7375
1683.16801	10064.3375
1686.43272	9866.5375
1689.69527	9735.0375
1692.95567	9641.5375
1696.2139	9572.3375
1699.46999	9520.0375
1702.72392	9463.7375
1705.97571	9459.4375
1709.22535	9465.8375
1712.47284	9446.8375
1715.71819	9479.4375
1718.96139	9463.1375
1722.20246	9456.6375
1725.44139	9387.8375
1728.67818	9322.3375
1731.91284	9185.8375
1735.14537	9060.6375
1738.37576	8978.3375
1741.60403	8932.7375
1744.83017	8893.6375
1748.05418	8832.8375
1751.27607	8781.4375
1754.49584	8768.9375
1757.71349	8719.7375
1760.92903	8715.9375
1764.14244	8692.7375
1767.35375	8671.9375
1770.56294	8635.6375
1773.77002	8583.1375
1776.97499	8537.3375
1780.17785	8493.9375
1783.37861	8465.6375
1786.57727	8444.6375
1789.77382	8423.1375
1792.96828	8420.0375
1796.16064	8387.9375
1799.3509	8382.2375
1802.53907	8382.9375
1805.72514	8336.1375
1808.90913	8289.9375
1812.09102	8257.9375
1815.27083	8207.2375
1818.44856	8208.8375
1821.6242	8177.1375
1824.79776	8179.5375
1827.96924	8172.0375
1831.13864	8128.1375
1834.30597	8154.1375
1837.47122	8119.2375
1840.6344	8099.6375
1843.7955	8115.9375
1846.95454	8112.6375
1850.11151	8121.1375
1853.26642	8107.7375
1856.41926	8114.4375
1859.57004	8116.7375
1862.71876	8146.4375
1865.86542	8134.3375
1869.01003	8150.6375
1872.15258	8141.7375
1875.29308	8184.4375
1878.43152	8196.2375
1881.56792	8204.9375
1884.70227	8221.5375
1887.83457	8235.1375
1890.96482	8242.9375
1894.09304	8250.2375
1897.21921	8238.0375
1900.34335	8271.0375
1903.46544	8280.1375
1906.58551	8263.6375
1909.70353	8284.7375
1912.81953	8305.9375
1915.93349	8292.5375
1919.04543	8283.3375
1922.15534	8296.9375
1925.26322	8231.9375
1928.36908	8193.6375
1931.47292	8123.6375
1934.57473	8042.6375
1937.67453	7960.3375
1940.77232	7890.1375
1943.86808	7835.9375
1946.96184	7788.6375
1950.05358	7731.3375
1953.14331	7676.7375
1956.23103	7649.4375
1959.31675	7618.0375
1962.40046	7580.8375
1965.48217	7546.7375
1968.56188	7550.1375
1971.63959	7541.7375
1974.7153	7500.4375
1977.78901	7484.1375
1980.86073	7438.2375
1983.93046	7397.6375
1986.99819	7371.1375
1990.06394	7332.4375
1993.1277	7305.4375
1996.18947	7285.9375
1999.24925	7268.4375
2002.30706	7241.9375
2005.36288	7189.7375
2008.41672	7161.7375
2011.46859	7134.0375
2014.51848	7125.6375
2017.56639	7078.8375
2020.61233	7059.6375
2023.6563	7044.6375
2026.6983	7021.0375
2029.73833	6970.9375
2032.7764	6983.9375
2035.8125	6953.2375
2038.84664	6929.6375
2041.87881	6935.2375
2044.90903	6908.1375
2047.93729	6886.5375
2050.96359	6890.0375
2053.98794	6849.5375
2057.01034	6861.9375
2060.03078	6839.8375
2063.04927	6841.8375
2066.06582	6835.5375
2069.08042	6829.4375
2072.09307	6802.7375
2075.10378	6793.8375
2078.11255	6774.8375
2081.11938	6781.0375
2084.12426	6780.4375
2087.12722	6763.5375
2090.12824	6756.4375
2093.12732	6743.2375
2096.12447	6747.3375
2099.11969	6760.5375
2102.11299	6762.8375
2105.10435	6756.7375
2108.09379	6754.6375
2111.08131	6733.3375
2114.0669	6751.4375
2117.05057	6778.3375
2120.03233	6747.9375
2123.01216	6780.3375
2125.99008	6777.4375
2128.96609	6786.7375
2131.94018	6768.4375
2134.91236	6780.2375
2137.88263	6771.9375
2140.851	6772.3375
2143.81746	6776.1375
2146.78201	6759.1375
2149.74466	6740.8375
2152.7054	6734.3375
2155.66425	6720.9375
2158.6212	6699.7375
2161.57625	6694.7375
2164.52941	6693.8375
2167.48067	6695.8375
2170.43004	6671.0375
2173.37752	6677.1375
2176.32311	6668.9375
2179.26681	6692.6375
2182.20863	6669.9375
2185.14856	6683.2375
2188.08661	6670.6375
2191.02278	6678.9375
2193.95707	6655.5375
2196.88948	6647.7375
2199.82001	6640.6375
2202.74867	6630.0375
2205.67545	6599.3375
2208.60037	6608.0375
2211.52341	6580.8375
2214.44458	6595.6375
2217.36388	6563.7375
2220.28132	6559.4375
2223.1969	6522.6375
2226.11061	6508.8375
2229.02246	6477.8375
2231.93245	6476.9375
2234.84058	6460.8375
2237.74686	6446.0375
2240.65128	6424.8375
2243.55385	6433.2375
2246.45456	6414.6375
2249.35343	6431.2375
2252.25044	6433.6375
2255.14561	6407.3375
2258.03893	6425.1375
2260.93041	6427.5375
2263.82004	6418.4375
2266.70783	6411.7375
2269.59378	6388.3375
2272.4779	6368.6375
2275.36017	6328.2375
2278.24061	6325.4375
2281.11922	6300.0375
2283.996	6282.8375
2286.87094	6271.1375
2289.74405	6239.9375
2292.61534	6248.4375
2295.4848	6236.8375
2298.35243	6216.6375
2301.21824	6195.5375
2304.08223	6199.2375
2306.94439	6184.9375
2309.80474	6200.9375
2312.66327	6203.4375
2315.51999	6202.3375
2318.37489	6195.6375
2321.22797	6164.4375
2324.07925	6199.2375
2326.92871	6187.8375
2329.77637	6180.5375
2332.62222	6134.9375
2335.46626	6145.5375
2338.3085	6144.8375
2341.14893	6156.7375
2343.98756	6161.4375
2346.8244	6148.9375
2349.65943	6198.2375
2352.49267	6178.9375
2355.32411	6218.2375
2358.15376	6224.9375
2360.98161	6232.3375
2363.80768	6245.3375
2366.63195	6271.1375
2369.45444	6287.2375
2372.27514	6276.3375
2375.09405	6278.0375
2377.91118	6241.5375
2380.72652	6191.4375
2383.54009	6165.7375
2386.35187	6116.7375
2389.16188	6087.7375
2391.97011	6042.6375
2394.77657	6024.0375
2397.58125	6018.8375
2400.38416	5976.7375
2403.18529	5957.0375
2405.98466	5958.1375
2408.78226	5929.7375
2411.57809	5929.4375
2414.37216	5914.5375
2417.16446	5907.5375
2419.955	5903.4375
2422.74378	5894.9375
2425.5308	5887.1375
2428.31606	5889.6375
2431.09956	5910.7375
2433.88131	5914.5375
2436.6613	5916.8375
2439.43954	5919.8375
2442.21603	5913.3375
2444.99077	5914.7375
2447.76377	5924.7375
2450.53501	5920.3375
2453.30451	5920.3375
2456.07226	5921.0375
2458.83827	5943.8375
2461.60254	5912.5375
2464.36507	5919.5375
2467.12586	5911.1375
2469.88492	5899.6375
2472.64224	5916.0375
2475.39782	5937.3375
2478.15167	5946.2375
2480.90379	5964.5375
2483.65417	5984.9375
2486.40283	6015.0375
2489.14976	6028.7375
2491.89497	6046.0375
2494.63845	6056.0375
2497.3802	6049.3375
2500.12024	6040.6375
2502.85855	6031.9375
2505.59514	6007.4375
2508.33002	5953.5375
2511.06318	5945.6375
2513.79462	5865.4375
2516.52435	5856.9375
2519.25237	5845.3375
2521.97867	5828.4375
2524.70327	5783.5375
2527.42616	5763.5375
2530.14734	5768.1375
2532.86681	5765.8375
2535.58458	5752.9375
2538.30065	5758.0375
2541.01501	5746.1375
2543.72768	5770.3375
2546.43864	5762.7375
2549.14791	5777.3375
2551.85548	5764.5375
2554.56136	5765.8375
2557.26554	5757.9375
2559.96803	5748.9375
2562.66883	5724.8375
2565.36794	5711.9375
2568.06536	5712.1375
2570.7611	5693.7375
2573.45514	5694.1375
2576.14751	5686.6375
2578.83819	5669.8375
2581.52719	5656.2375
2584.21451	5683.2375
2586.90015	5651.5375
2589.58411	5650.8375
2592.2664	5645.3375
2594.94701	5638.1375
2597.62594	5639.9375
2600.30321	5644.6375
2602.9788	5627.4375
2605.65273	5634.2375
2608.32498	5643.8375
2610.99557	5645.7375
2613.66449	5652.5375
2616.33175	5622.5375
2618.99734	5646.7375
2621.66128	5627.0375
2624.32355	5629.7375
2626.98416	5614.3375
2629.64311	5603.2375
2632.30041	5614.0375
2634.95605	5588.4375
2637.61004	5565.6375
2640.26238	5556.3375
2642.91306	5544.5375
2645.56209	5525.7375
2648.20948	5531.5375
2650.85521	5541.5375
2653.4993	5542.0375
2656.14175	5547.6375
2658.78255	5562.7375
2661.42171	5563.9375
2664.05923	5576.5375
2666.6951	5568.2375
2669.32934	5582.8375
2671.96194	5602.8375
2674.59291	5619.2375
2677.22224	5590.9375
2679.84993	5619.1375
2682.476	5584.3375
2685.10043	5611.8375
2687.72324	5592.4375
2690.34441	5586.9375
2692.96396	5613.4375
2695.58188	5607.8375
2698.19818	5588.2375
2700.81285	5576.3375
2703.4259	5589.4375
2706.03733	5608.5375
2708.64714	5569.8375
2711.25533	5604.9375
2713.86191	5583.3375
2716.46687	5613.5375
2719.07021	5609.4375
2721.67194	5634.5375
2724.27206	5615.9375
2726.87057	5614.1375
2729.46747	5612.0375
2732.06276	5601.9375
2734.65644	5610.5375
2737.24852	5585.8375
2739.83899	5564.9375
2742.42786	5570.3375
2745.01513	5556.8375
2747.60079	5552.0375
2750.18486	5540.8375
2752.76733	5522.9375
2755.3482	5519.7375
2757.92747	5504.5375
2760.50515	5506.1375
2763.08123	5494.8375
2765.65573	5477.9375
2768.22863	5482.9375
2770.79994	5458.4375
2773.36967	5473.1375
2775.9378	5449.9375
2778.50435	5461.0375
2781.06932	5463.8375
2783.6327	5472.3375
2786.1945	5465.0375
2788.75471	5454.6375
2791.31335	5460.8375
2793.87041	5468.5375
2796.42589	5454.8375
2798.97979	5443.0375
2801.53212	5435.2375
2804.08288	5445.4375
2806.63206	5430.2375
2809.17967	5423.3375
2811.72571	5438.5375
2814.27018	5464.8375
2816.81308	5456.4375
2819.35442	5478.9375
2821.89419	5478.5375
2824.43239	5501.6375
2826.96904	5537.1375
2829.50412	5512.1375
2832.03763	5507.2375
2834.56959	5500.2375
2837.1	5521.3375
2839.62884	5532.0375
2842.15613	5559.1375
2844.68186	5623.9375
2847.20604	5686.2375
2849.72867	5732.9375
2852.24974	5754.0375
2854.76927	5771.6375
2857.28724	5769.0375
2859.80367	5732.1375
2862.31855	5729.6375
2864.83189	5704.3375
2867.34368	5704.4375
2869.85393	5707.7375
2872.36264	5708.9375
2874.8698	5711.1375
2877.37543	5678.9375
2879.87952	5679.0375
2882.38207	5662.0375
2884.88308	5656.5375
2887.38256	5659.0375
2889.88051	5664.4375
2892.37692	5652.0375
2894.8718	5645.8375
2897.36515	5643.8375
2899.85698	5645.0375
2902.34727	5676.1375
2904.83604	5667.3375
2907.32328	5679.7375
2909.809	5692.2375
2912.29319	5674.4375
2914.77587	5687.7375
2917.25702	5673.9375
2919.73665	5669.3375
2922.21476	5662.5375
2924.69136	5635.4375
2927.16644	5648.5375
2929.64	5617.9375
2932.11205	5603.7375
2934.58258	5571.5375
2937.05161	5556.3375
2939.51912	5546.3375
2941.98513	5496.4375
2944.44962	5458.7375
2946.91261	5405.0375
2949.37409	5365.6375
2951.83407	5343.5375
2954.29254	5332.3375
2956.74951	5331.4375
2959.20498	5302.3375
2961.65895	5298.6375
2964.11142	5280.1375
2966.56239	5267.3375
2969.01186	5237.5375
2971.45984	5247.5375
2973.90632	5229.4375
2976.35131	5190.4375
2978.7948	5181.2375
2981.23681	5168.9375
2983.67732	5145.2375
2986.11635	5132.1375
2988.55388	5113.1375
2990.98993	5117.9375
2993.4245	5075.2375
2995.85758	5066.4375
2998.28917	5056.5375
3000.71928	5051.2375
3003.14791	5049.3375
3005.57506	5033.5375
3008.00073	5022.4375
3010.42493	4932.9375
3012.84764	5009.0375
3015.26888	5007.1375
3017.68865	4998.7375
3020.10694	4990.4375
3022.52376	4975.3375
3024.9391	4974.0375
3027.35298	4950.5375
3029.76539	4961.5375
3032.17632	4936.4375
3034.5858	4918.0375
3036.9938	4935.7375
3039.40034	4907.2375
3041.80542	4893.6375
3044.20903	4888.7375
3046.61118	4882.9375
3049.01187	4854.5375
3051.4111	4867.8375
3053.80888	4862.9375
3056.20519	4853.3375
3058.60005	4835.3375
3060.99345	4816.7375
3063.3854	4792.5375
3065.7759	4777.2375
3068.16494	4782.9375
3070.55254	4746.1375
3072.93868	4742.8375
3075.32338	4735.5375
3077.70662	4707.8375
3080.08842	4682.9375
3082.46878	4670.7375
3084.84769	4653.1375
3087.22515	4654.0375
3089.60118	4657.3375
3091.97576	4638.4375
3094.3489	4625.5375
3096.72061	4606.8375
3099.09087	4618.3375
3101.4597	4612.1375
3103.82709	4605.1375
3106.19305	4611.5375
3108.55757	4592.0375
3110.92066	4580.3375
3113.28232	4574.4375
3115.64255	4556.0375
3118.00134	4560.7375
3120.35871	4540.0375
3122.71466	4535.0375
3125.06917	4529.3375
3127.42226	4535.7375
3129.77393	4520.1375
3132.12417	4528.8375
3134.47299	4527.9375
3136.82039	4516.7375
3139.16636	4514.5375
3141.51092	4519.5375
3143.85406	4506.1375
3146.19579	4525.9375
3148.53609	4527.2375
3150.87499	4525.5375
3153.21246	4533.0375
3155.54853	4550.5375
3157.88318	4555.4375
3160.21642	4552.8375
3162.54826	4544.3375
3164.87868	4543.4375
3167.2077	4551.0375
3169.5353	4548.1375
3171.86151	4544.5375
3174.18631	4546.6375
3176.5097	4548.7375
3178.83169	4546.5375
3181.15228	4554.2375
3183.47147	4535.0375
3185.78926	4537.0375
3188.10565	4527.7375
3190.42065	4527.1375
3192.73424	4526.8375
3195.04645	4534.8375
3197.35725	4515.1375
3199.66667	4525.6375
3201.97469	4549.9375
3204.28132	4537.1375
3206.58656	4547.9375
3208.8904	4565.3375
3211.19287	4553.7375
3213.49394	4565.7375
3215.79363	4574.0375
3218.09193	4573.6375
3220.38884	4568.1375
3222.68438	4585.8375
3224.97853	4562.3375
3227.2713	4571.5375
3229.56269	4570.6375
3231.8527	4574.2375
3234.14133	4532.9375
3236.42858	4541.7375
3238.71446	4529.8375
3240.99896	4516.8375
3243.28209	4519.1375
3245.56384	4516.2375
3247.84423	4509.4375
3250.12324	4496.4375
3252.40088	4490.3375
3254.67715	4486.1375
3256.95205	4481.5375
3259.22558	4485.4375
3261.49775	4480.4375
3263.76855	4473.8375
3266.03799	4455.2375
3268.30606	4442.1375
3270.57277	4440.5375
3272.83812	4433.9375
3275.10211	4416.7375
3277.36474	4397.8375
3279.62601	4415.6375
3281.88593	4415.7375
3284.14448	4426.0375
3286.40168	4402.2375
3288.65753	4406.5375
3290.91202	4411.1375
3293.16516	4402.9375
3295.41695	4388.8375
3297.66738	4365.6375
3299.91647	4344.0375
3302.16421	4310.1375
3304.4106	4291.2375
3306.65564	4257.9375
3308.89933	4220.1375
3311.14169	4192.7375
3313.38269	4169.5375
3315.62236	4111.0375
3317.86068	4066.1375
3320.09766	4035.2375
3322.3333	4029.3375
3324.5676	4000.5375
3326.80056	3939.6375
3329.03219	3898.0375
3331.26248	2.1375
3333.49143	-0.8625
3335.71905	-0.4625
