Data from AgNPs_FTO_APTES_UA_5uM_CRN_100uM_R6G_10uM_NaF_0.1M_Addition_RamanShift__3__14-39-46-866.txt Node

Date: Mon Feb 07 14:39:46 GMT 2022
User: TCL
Spectrometer: QEP01345
Trigger mode: 4
Integration Time (sec): 7.000000E0
Scans to average: 10
Electric dark correction enabled: true
Nonlinearity correction enabled: false
Boxcar width: 0
XAxis mode: Raman Shifts
Number of Pixels in Spectrum: 1044
>>>>>Begin Spectral Data<<<<<
46.04893	0.9
50.45542	-1.8
54.85868	-0.4
59.25871	0.9
63.6555	67.1
68.04907	67
72.43941	72.8
76.82654	75.6
81.21044	79.9
85.59113	81
89.96862	84.1
94.34289	83.5
98.71396	86.8
103.08183	91.9
107.4465	94.6
111.80798	93.6
116.16626	100.6
120.52136	108.1
124.87327	108.9
129.222	117.4
133.56755	129.2
137.90993	144.7
142.24913	152.1
146.58517	177.7
150.91804	209.3
155.24774	251.5
159.57429	317.1
163.89768	409.3
168.21792	551.3
172.53501	753.6
176.84895	1055.1
181.15975	1503.4
185.46741	2104.7
189.77193	2899.2
194.07331	3883.7
198.37157	4990.3
202.6667	6178.9
206.9587	7322.6
211.24758	8450.3
215.53334	9599.2
219.81599	10824.6
224.09553	12132.3
228.37195	13593.6
232.64527	15151.2
236.91549	16794.6
241.18261	18436.1
245.44663	20006.9
249.70755	21443.3
253.96539	22672.9
258.22014	23771.9
262.4718	24648.6
266.72039	25243.6
270.96589	25647.9
275.20832	25757.6
279.44768	25702.1
283.68397	25608.1
287.91719	25490.5
292.14735	25502.6
296.37445	25579.5
300.59849	25716.2
304.81948	25817.5
309.03742	25733
313.25231	25398.8
317.46415	24793.2
321.67296	24086.3
325.87872	23480.6
330.08145	23094.9
334.28114	23017.9
338.47781	23076.2
342.67145	23224
346.86207	23541.7
351.04966	23905.2
355.23424	24317.3
359.4158	24618.4
363.59435	24898.1
367.76989	25072.3
371.94243	25213.7
376.11196	25272.1
380.27849	25344.2
384.44203	25432.8
388.60257	25622
392.76012	25922.9
396.91468	26311.3
401.06626	26725.3
405.21485	27001.3
409.36047	26932
413.50311	26638
417.64277	26472.1
421.77947	26524
425.9132	26664.6
430.04396	26804.8
434.17176	26917.6
438.2966	27058
442.41849	27465.9
446.53742	28170.8
450.6534	28985.6
454.76644	29554.6
458.87653	29853.3
462.98368	29751.3
467.08789	29500.6
471.18916	29179.5
475.2875	29045.9
479.38291	29045.2
483.4754	29016.1
487.56496	28689.7
491.6516	28048.6
495.73531	27332.5
499.81612	26868.7
503.89401	26876.2
507.96899	26974
512.04106	26980.9
516.11023	26734.6
520.1765	26259.1
524.23987	25808.9
528.30034	25422.3
532.35792	25160.7
536.41261	24877.9
540.46441	24696.3
544.51333	24762.5
548.55936	25166.9
552.60252	25823.4
556.64279	26513.7
560.6802	27128.2
564.71473	27585.1
568.7464	28387.1
572.7752	29544.8
576.80114	30781.2
580.82422	31895.6
584.84444	32856.6
588.86181	33930.7
592.87633	34555.8
596.888	33889.2
600.89682	32334.2
604.9028	31799
608.90594	32813.8
612.90624	34038.3
616.90371	31742.2
620.89834	27205.1
624.89015	25248.7
628.87913	25120.7
632.86528	25362
636.84862	25336.7
640.82913	24910
644.80683	24317
648.78172	23932.4
652.75379	23836.4
656.72306	24047.3
660.68952	24265.8
664.65319	24055.2
668.61405	23686.9
672.57211	23600.8
676.52738	23698
680.47986	23729.9
684.42955	23563.9
688.37646	23490.5
692.32058	23581.6
696.26192	23901.6
700.20048	24242.6
704.13626	24463.4
708.06928	24629.4
711.99952	24563.5
715.927	24537.5
719.85171	24560.3
723.77365	24413
727.69284	23995.9
731.60928	23654.1
735.52295	23508.2
739.43388	23489.5
743.34206	23507
747.24749	23638.2
751.15017	23927.2
755.05012	24512.5
758.94733	25341.7
762.8418	26655.9
766.73354	28421.2
770.62254	29985.1
774.50882	29910.8
778.39237	28331.6
782.27321	26348
786.15132	24836.9
790.02671	23910.5
793.89938	23454.7
797.76935	23222.2
801.6366	23224.1
805.50115	23173.6
809.36299	23058.6
813.22213	22905.4
817.07857	22867.7
820.93231	22774.1
824.78336	22535.6
828.63172	22349.8
832.47738	22240.8
836.32036	22201.3
840.16066	22263.8
843.99827	22272.5
847.8332	22188.8
851.66546	22207.7
855.49504	22185.9
859.32195	22182.6
863.1462	22134.9
866.96777	22045.2
870.78668	21968.7
874.60293	21948.8
878.41652	21883.3
882.22745	21954.7
886.03573	22026.3
889.84136	22026.5
893.64433	21941
897.44466	21859.7
901.24235	21808
905.0374	21739.9
908.8298	21745.9
912.61957	21845.9
916.40671	22148.9
920.19121	22575.5
923.97308	22871.9
927.75233	22729.7
931.52895	22354
935.30295	21936.7
939.07433	21445.8
942.84309	21160.8
946.60924	20942.8
950.37278	20872.8
954.13371	20837
957.89203	20846.3
961.64774	20874.5
965.40086	20898.3
969.15137	20745.5
972.89929	20596.9
976.64461	20449.9
980.38733	20373.3
984.12747	20370.2
987.86502	20488
991.59999	20606
995.33237	20852.8
999.06217	21178.5
1002.78939	21610.6
1006.51404	21994.7
1010.23611	22285.5
1013.95561	22527.1
1017.67255	22578.8
1021.38692	22401.3
1025.09872	22071.6
1028.80796	21891.2
1032.51465	22032
1036.21877	22294.8
1039.92035	22474.9
1043.61937	22502.1
1047.31584	22367.5
1051.00976	22270.9
1054.70114	22277.5
1058.38998	22412.9
1062.07627	22676.7
1065.76003	23017.4
1069.44126	23357.6
1073.11995	23691.9
1076.79611	23922.1
1080.46974	24038.3
1084.14085	24158.8
1087.80943	24389.1
1091.47549	24703.1
1095.13903	24856.8
1098.80005	24604.3
1102.45857	23987.2
1106.11456	23359.1
1109.76805	23043.6
1113.41903	23003.9
1117.06751	23158.2
1120.71348	23398.3
1124.35696	23630.4
1127.99793	23977.9
1131.63641	24209.5
1135.2724	24191.9
1138.90589	24165.2
1142.5369	24297.7
1146.16542	24640
1149.79145	25032.6
1153.415	25499.4
1157.03607	26132.7
1160.65467	27189
1164.27079	28843.9
1167.88443	30731.3
1171.49561	32555.1
1175.10432	34560.8
1178.71056	37016
1182.31434	39404.8
1185.91565	40545.5
1189.51451	40444.8
1193.11091	39608.9
1196.70485	38297.5
1200.29634	36945.2
1203.88538	36192
1207.47197	36030.1
1211.05612	35935.9
1214.63782	35266.3
1218.21708	33869.8
1221.79391	32321.2
1225.36829	31166.1
1228.94024	30332.7
1232.50976	29752.5
1236.07685	29305.3
1239.6415	29204.7
1243.20374	29235.2
1246.76355	29503.3
1250.32093	29984.5
1253.8759	30688.5
1257.42845	31553.6
1260.97859	32536.7
1264.52631	33420.9
1268.07163	34366.7
1271.61453	35451.9
1275.15503	36658.1
1278.69312	38005.3
1282.22882	39559.9
1285.76211	41324.2
1289.29301	43435
1292.82151	46228.8
1296.34761	49476.7
1299.87133	53187.4
1303.39266	56556.9
1306.9116	59100.3
1310.42815	60544.7
1313.94233	60862.2
1317.45412	60218.4
1320.96354	59541.2
1324.47058	59321.1
1327.97525	59362.6
1331.47754	59427.1
1334.97747	59162.7
1338.47502	58516.6
1341.97022	57638
1345.46305	56331.2
1348.95352	55123
1352.44163	54147.1
1355.92738	54305
1359.41078	55286.7
1362.89183	56212.4
1366.37053	55159.2
1369.84688	51280.2
1373.32088	46209.4
1376.79254	42626.7
1380.26186	41651.6
1383.72883	42265.2
1387.19347	42864.8
1390.65578	42981.6
1394.11575	43092.3
1397.57339	43745
1401.0287	44792.7
1404.48168	45424.9
1407.93234	45085.4
1411.38068	43644.8
1414.82669	41318.9
1418.27039	38726.9
1421.71177	36365.4
1425.15083	34569.2
1428.58758	33703.8
1432.02203	34004
1435.45416	35196.8
1438.88399	36637.8
1442.31151	37882.6
1445.73673	38713.5
1449.15965	39369
1452.58027	39779.6
1455.9986	39944
1459.41463	40198.2
1462.82837	40673.3
1466.23982	41257.8
1469.64898	41744.2
1473.05586	42066.6
1476.46045	41969.5
1479.86276	41457.9
1483.26279	40763.1
1486.66054	40357.2
1490.05602	40331.9
1493.44922	40538.8
1496.84016	40839.2
1500.22882	41447.3
1503.61521	42328.7
1506.99934	43357.5
1510.38121	44223.2
1513.76081	44617.4
1517.13816	44253.5
1520.51324	43719.4
1523.88607	43520.3
1527.25665	43825.6
1530.62498	44220.5
1533.99105	44159.4
1537.35488	43616.8
1540.71647	42392.6
1544.07581	40807.2
1547.4329	39219.6
1550.78776	37806.5
1554.14038	36849.1
1557.49077	36252.4
1560.83892	35924.1
1564.18484	35820.7
1567.52853	35868.9
1570.86999	36360.5
1574.20922	37397.9
1577.54624	38495.1
1580.88103	39334.2
1584.2136	40225.2
1587.54395	41889.8
1590.87208	44150.4
1594.19801	46714.3
1597.52172	48659.8
1600.84321	48638.4
1604.16251	45727.9
1607.47959	41532.9
1610.79447	37334.5
1614.10715	33704.7
1617.41763	30896.8
1620.7259	28905.4
1624.03199	27929.1
1627.33587	27941.2
1630.63757	28992.3
1633.93707	31279.6
1637.23439	35029.7
1640.52951	40532.5
1643.82246	46900.6
1647.11321	51966.9
1650.40179	52855.9
1653.68819	48741.9
1656.97241	41674.2
1660.25446	34677.2
1663.53433	29258.4
1666.81203	25675.2
1670.08756	23423.2
1673.36092	21973.8
1676.63211	21037.6
1679.90115	20419
1683.16801	19907
1686.43272	19575.2
1689.69527	19350.3
1692.95567	19133.5
1696.2139	18974.2
1699.46999	18824.4
1702.72392	18735.6
1705.97571	18615.5
1709.22535	18546.9
1712.47284	18470.7
1715.71819	18430.4
1718.96139	18342.7
1722.20246	18287.6
1725.44139	18137.2
1728.67818	18030.6
1731.91284	17904.9
1735.14537	17744.2
1738.37576	17619.6
1741.60403	17592.4
1744.83017	17521.3
1748.05418	17482.3
1751.27607	17426.8
1754.49584	17419.7
1757.71349	17381.7
1760.92903	17336.8
1764.14244	17301.6
1767.35375	17264.7
1770.56294	17224.8
1773.77002	17178.6
1776.97499	17144
1780.17785	17082.2
1783.37861	17039.2
1786.57727	16998.4
1789.77382	16967.7
1792.96828	16905.5
1796.16064	16880.5
1799.3509	16823.8
1802.53907	16756.9
1805.72514	16719.5
1808.90913	16690.8
1812.09102	16607.5
1815.27083	16578.2
1818.44856	16534.9
1821.6242	16514.3
1824.79776	16491.4
1827.96924	16466.5
1831.13864	16460.4
1834.30597	16453.1
1837.47122	16419.2
1840.6344	16395.6
1843.7955	16412
1846.95454	16392.2
1850.11151	16388
1853.26642	16362.6
1856.41926	16345.6
1859.57004	16326.5
1862.71876	16333.3
1865.86542	16303.7
1869.01003	16256.9
1872.15258	16217.8
1875.29308	16186.2
1878.43152	16158.1
1881.56792	16169.2
1884.70227	16123.3
1887.83457	16101.4
1890.96482	16079.4
1894.09304	16051.4
1897.21921	15998.4
1900.34335	15977.5
1903.46544	15975
1906.58551	15957.5
1909.70353	15927.9
1912.81953	15904
1915.93349	15859.4
1919.04543	15833.6
1922.15534	15808.4
1925.26322	15738.5
1928.36908	15667.8
1931.47292	15643.2
1934.57473	15602.2
1937.67453	15563.4
1940.77232	15521.9
1943.86808	15466.7
1946.96184	15449.9
1950.05358	15373
1953.14331	15354.3
1956.23103	15324.2
1959.31675	15247.3
1962.40046	15189.7
1965.48217	15144
1968.56188	15083
1971.63959	15017.2
1974.7153	14960.5
1977.78901	14909.8
1980.86073	14854
1983.93046	14820.2
1986.99819	14753.3
1990.06394	14731.6
1993.1277	14694
1996.18947	14639.9
1999.24925	14587.3
2002.30706	14539.1
2005.36288	14492.7
2008.41672	14475.2
2011.46859	14411.8
2014.51848	14354.4
2017.56639	14331
2020.61233	14291.1
2023.6563	14260
2026.6983	14187.3
2029.73833	14174.1
2032.7764	14144
2035.8125	14110.5
2038.84664	14073.9
2041.87881	14070.7
2044.90903	14022.3
2047.93729	14013.3
2050.96359	13989.1
2053.98794	13953.9
2057.01034	13952.5
2060.03078	13945.5
2063.04927	13929.8
2066.06582	13923.3
2069.08042	13912.7
2072.09307	13880.2
2075.10378	13860
2078.11255	13847.7
2081.11938	13853.5
2084.12426	13813.2
2087.12722	13822
2090.12824	13798.5
2093.12732	13822.3
2096.12447	13779.3
2099.11969	13775.6
2102.11299	13788.1
2105.10435	13773.6
2108.09379	13794.1
2111.08131	13792.9
2114.0669	13796.8
2117.05057	13818
2120.03233	13814.1
2123.01216	13827.7
2125.99008	13807.3
2128.96609	13808.5
2131.94018	13807.4
2134.91236	13794.3
2137.88263	13802.6
2140.851	13805.9
2143.81746	13825.8
2146.78201	13804.8
2149.74466	13800.9
2152.7054	13774.2
2155.66425	13760.4
2158.6212	13763.2
2161.57625	13740.1
2164.52941	13735.9
2167.48067	13705.8
2170.43004	13734.2
2173.37752	13732
2176.32311	13693.7
2179.26681	13709.3
2182.20863	13710.2
2185.14856	13692.1
2188.08661	13708.9
2191.02278	13711.9
2193.95707	13687.1
2196.88948	13657.7
2199.82001	13648.6
2202.74867	13593.6
2205.67545	13602.9
2208.60037	13564.6
2211.52341	13552
2214.44458	13546.5
2217.36388	13537.4
2220.28132	13494.7
2223.1969	13469.1
2226.11061	13466.4
2229.02246	13442.9
2231.93245	13400.7
2234.84058	13353.2
2237.74686	13345.5
2240.65128	13333.3
2243.55385	13278.6
2246.45456	13265.2
2249.35343	13234.4
2252.25044	13211.8
2255.14561	13183.7
2258.03893	13163.6
2260.93041	13140.2
2263.82004	13071.8
2266.70783	13051.5
2269.59378	12972.2
2272.4779	12943.2
2275.36017	12923.1
2278.24061	12900.2
2281.11922	12855.2
2283.996	12833.2
2286.87094	12833.7
2289.74405	12802.4
2292.61534	12788
2295.4848	12778.9
2298.35243	12780.2
2301.21824	12727.8
2304.08223	12745.3
2306.94439	12778
2309.80474	12761.5
2312.66327	12746.5
2315.51999	12741.6
2318.37489	12713.4
2321.22797	12701.8
2324.07925	12718.6
2326.92871	12661
2329.77637	12648
2332.62222	12639.3
2335.46626	12587.6
2338.3085	12623.6
2341.14893	12638.2
2343.98756	12624.1
2346.8244	12640.5
2349.65943	12593.1
2352.49267	12558
2355.32411	12615.4
2358.15376	12575.5
2360.98161	12569
2363.80768	12564.9
2366.63195	12568.9
2369.45444	12550.6
2372.27514	12534.5
2375.09405	12512.9
2377.91118	12498.7
2380.72652	12452.5
2383.54009	12405.6
2386.35187	12394.4
2389.16188	12381.2
2391.97011	12343.9
2394.77657	12310.7
2397.58125	12282.8
2400.38416	12286.2
2403.18529	12232.5
2405.98466	12227.1
2408.78226	12208.7
2411.57809	12201.2
2414.37216	12188.3
2417.16446	12164.3
2419.955	12177.6
2422.74378	12176.4
2425.5308	12144.4
2428.31606	12160.1
2431.09956	12157.5
2433.88131	12115.8
2436.6613	12121.3
2439.43954	12152.6
2442.21603	12103.6
2444.99077	12098.5
2447.76377	12103.6
2450.53501	12084.2
2453.30451	12091.1
2456.07226	12089.3
2458.83827	12059.8
2461.60254	12095.6
2464.36507	12039.7
2467.12586	12036.1
2469.88492	12040.3
2472.64224	12058.8
2475.39782	12070
2478.15167	12076.1
2480.90379	12050
2483.65417	12067.7
2486.40283	12074.5
2489.14976	12109.1
2491.89497	12093.9
2494.63845	12100.6
2497.3802	12078.9
2500.12024	12100.7
2502.85855	12075.2
2505.59514	12087.5
2508.33002	12055.9
2511.06318	12038.5
2513.79462	12032.8
2516.52435	12038.6
2519.25237	12028.3
2521.97867	11997.5
2524.70327	11996.9
2527.42616	11999
2530.14734	11992.1
2532.86681	11977.1
2535.58458	11984.5
2538.30065	11919
2541.01501	11958.2
2543.72768	11947.3
2546.43864	11954
2549.14791	11896.7
2551.85548	11888.9
2554.56136	11895.1
2557.26554	11895.7
2559.96803	11862.5
2562.66883	11881.2
2565.36794	11826.5
2568.06536	11846.5
2570.7611	11808.3
2573.45514	11839.2
2576.14751	11843.1
2578.83819	11808
2581.52719	11805.3
2584.21451	11787
2586.90015	11788
2589.58411	11786.7
2592.2664	11778.7
2594.94701	11761.5
2597.62594	11771
2600.30321	11777.5
2602.9788	11784.9
2605.65273	11770.7
2608.32498	11774.4
2610.99557	11732.4
2613.66449	11761.1
2616.33175	11757.4
2618.99734	11801.5
2621.66128	11766.3
2624.32355	11709.2
2626.98416	11736.4
2629.64311	11740.5
2632.30041	11743.3
2634.95605	11730.9
2637.61004	11702.8
2640.26238	11718
2642.91306	11692.9
2645.56209	11661.6
2648.20948	11692.3
2650.85521	11695.8
2653.4993	11689.6
2656.14175	11711
2658.78255	11744.7
2661.42171	11724.2
2664.05923	11744.5
2666.6951	11749.1
2669.32934	11775.5
2671.96194	11771.3
2674.59291	11751.9
2677.22224	11790
2679.84993	11772.6
2682.476	11740.5
2685.10043	11744.7
2687.72324	11733.8
2690.34441	11726.3
2692.96396	11699.9
2695.58188	11706.5
2698.19818	11734.9
2700.81285	11736.9
2703.4259	11757
2706.03733	11837.6
2708.64714	11777.9
2711.25533	11756.4
2713.86191	11791.8
2716.46687	11798.8
2719.07021	11789.8
2721.67194	11801.5
2724.27206	11796
2726.87057	11831.8
2729.46747	11831.9
2732.06276	11840.3
2734.65644	11815.2
2737.24852	11818.2
2739.83899	11805.7
2742.42786	11832.4
2745.01513	11795.2
2747.60079	11821.1
2750.18486	11795.8
2752.76733	11795.4
2755.3482	11777.7
2757.92747	11771.4
2760.50515	11823.2
2763.08123	11790.2
2765.65573	11782.1
2768.22863	11767.4
2770.79994	11752.5
2773.36967	11791.8
2775.9378	11780.5
2778.50435	11775.4
2781.06932	11772.4
2783.6327	11813.6
2786.1945	11811.5
2788.75471	11806.9
2791.31335	11765.2
2793.87041	11775.6
2796.42589	11727.7
2798.97979	11724.7
2801.53212	11721.2
2804.08288	11694.7
2806.63206	11651.1
2809.17967	11653.1
2811.72571	11607.2
2814.27018	11590
2816.81308	11552
2819.35442	11537.6
2821.89419	11525.9
2824.43239	11519.5
2826.96904	11523.8
2829.50412	11510
2832.03763	11481.5
2834.56959	11503
2837.1	11498.9
2839.62884	11498
2842.15613	11522
2844.68186	11577.5
2847.20604	11580.5
2849.72867	11573.9
2852.24974	11596.4
2854.76927	11579.3
2857.28724	11605.1
2859.80367	11559.4
2862.31855	11517.6
2864.83189	11498.3
2867.34368	11477.6
2869.85393	11472.8
2872.36264	11456.1
2874.8698	11451.5
2877.37543	11436.6
2879.87952	11434.7
2882.38207	11454.2
2884.88308	11438.7
2887.38256	11448.6
2889.88051	11429.8
2892.37692	11446.5
2894.8718	11448.8
2897.36515	11460.8
2899.85698	11482.6
2902.34727	11501.9
2904.83604	11491.3
2907.32328	11528.5
2909.809	11514.2
2912.29319	11498.3
2914.77587	11509.1
2917.25702	11543.6
2919.73665	11527.4
2922.21476	11523.9
2924.69136	11514.1
2927.16644	11492.6
2929.64	11509.8
2932.11205	11454.9
2934.58258	11456.3
2937.05161	11467.3
2939.51912	11479.2
2941.98513	11449.3
2944.44962	11415.7
2946.91261	11370.8
2949.37409	11359.9
2951.83407	11338.8
2954.29254	11315
2956.74951	11302.2
2959.20498	11311.4
2961.65895	11271.2
2964.11142	11304.5
2966.56239	11236.1
2969.01186	11246.1
2971.45984	11216.5
2973.90632	11200.8
2976.35131	11189.2
2978.7948	11165.6
2981.23681	11126.3
2983.67732	11121.8
2986.11635	11055.7
2988.55388	11021.6
2990.98993	10995.2
2993.4245	10979.4
2995.85758	10930.1
2998.28917	10899.6
3000.71928	10876.4
3003.14791	10871.3
3005.57506	10826.1
3008.00073	10781
3010.42493	10696.9
3012.84764	10754.2
3015.26888	10758.7
3017.68865	10697.3
3020.10694	10697.3
3022.52376	10700.1
3024.9391	10675.3
3027.35298	10662.2
3029.76539	10644.7
3032.17632	10659
3034.5858	10628.4
3036.9938	10643.6
3039.40034	10620
3041.80542	10629.8
3044.20903	10603.6
3046.61118	10575.3
3049.01187	10558.4
3051.4111	10570.2
3053.80888	10525.8
3056.20519	10508.8
3058.60005	10489.1
3060.99345	10442.5
3063.3854	10410.3
3065.7759	10371.7
3068.16494	10366.6
3070.55254	10318.4
3072.93868	10247.2
3075.32338	10231.1
3077.70662	10223.9
3080.08842	10187.4
3082.46878	10190.6
3084.84769	10149.7
3087.22515	10163.7
3089.60118	10153.4
3091.97576	10129.8
3094.3489	10122.7
3096.72061	10118
3099.09087	10119
3101.4597	10086.6
3103.82709	10102.3
3106.19305	10082.9
3108.55757	10078.7
3110.92066	10053.7
3113.28232	10061.3
3115.64255	10032.2
3118.00134	9993.5
3120.35871	9984.5
3122.71466	9965.5
3125.06917	9924.7
3127.42226	9908.4
3129.77393	9878.3
3132.12417	9867.4
3134.47299	9870
3136.82039	9865.1
3139.16636	9865.3
3141.51092	9838.3
3143.85406	9815
3146.19579	9806.8
3148.53609	9825.1
3150.87499	9830.4
3153.21246	9844
3155.54853	9850.4
3157.88318	9823.6
3160.21642	9840.4
3162.54826	9828.8
3164.87868	9835
3167.2077	9820.3
3169.5353	9816.6
3171.86151	9826.3
3174.18631	9823
3176.5097	9833.2
3178.83169	9806.7
3181.15228	9805.9
3183.47147	9792.2
3185.78926	9774.1
3188.10565	9765.3
3190.42065	9754.1
3192.73424	9748.3
3195.04645	9717.6
3197.35725	9687.4
3199.66667	9675.9
3201.97469	9693.9
3204.28132	9695.4
3206.58656	9706.7
3208.8904	9683.4
3211.19287	9679.9
3213.49394	9685.3
3215.79363	9693.5
3218.09193	9694.3
3220.38884	9693.1
3222.68438	9697.9
3224.97853	9686.8
3227.2713	9668.1
3229.56269	9636
3231.8527	9628
3234.14133	9624.3
3236.42858	9570.1
3238.71446	9596.2
3240.99896	9583.2
3243.28209	9591.9
3245.56384	9531.6
3247.84423	9547.7
3250.12324	9528.9
3252.40088	9519.4
3254.67715	9514.5
3256.95205	9478
3259.22558	9473.7
3261.49775	9454.5
3263.76855	9446.3
3266.03799	9424
3268.30606	9393.3
3270.57277	9372.5
3272.83812	9349.6
3275.10211	9326.6
3277.36474	9291.1
3279.62601	9316.7
3281.88593	9271.3
3284.14448	9324.7
3286.40168	9305.7
3288.65753	9313.3
3290.91202	9307.9
3293.16516	9283.8
3295.41695	9257.9
3297.66738	9233.2
3299.91647	9140.3
3302.16421	9106.8
3304.4106	9078.4
3306.65564	8976.3
3308.89933	8909
3311.14169	8855
3313.38269	8785.9
3315.62236	8729
3317.86068	8647.9
3320.09766	8585.4
3322.3333	8519.6
3324.5676	8475.1
3326.80056	8345.8
3329.03219	8285.1
3331.26248	2
3333.49143	-1.4
3335.71905	-0.4
