Data from AgNPs_FTO_APTES_UA_5uM_CRN_100uM_R6G_10uM_NaF_0.1M_Addition_RamanShift__27__15-07-46-899.txt Node

Date: Mon Feb 07 15:07:46 GMT 2022
User: TCL
Spectrometer: QEP01345
Trigger mode: 4
Integration Time (sec): 7.000000E0
Scans to average: 10
Electric dark correction enabled: true
Nonlinearity correction enabled: false
Boxcar width: 0
XAxis mode: Raman Shifts
Number of Pixels in Spectrum: 1044
>>>>>Begin Spectral Data<<<<<
46.04893	-0.8125
50.45542	-0.6125
54.85868	-1.4125
59.25871	0.0875
63.6555	73.4875
68.04907	74.8875
72.43941	82.5875
76.82654	82.4875
81.21044	84.1875
85.59113	88.3875
89.96862	92.7875
94.34289	91.8875
98.71396	97.4875
103.08183	98.0875
107.4465	100.2875
111.80798	105.5875
116.16626	109.9875
120.52136	115.8875
124.87327	119.5875
129.222	132.3875
133.56755	141.2875
137.90993	150.5875
142.24913	168.6875
146.58517	192.8875
150.91804	223.9875
155.24774	273.1875
159.57429	348.2875
163.89768	454.2875
168.21792	615.6875
172.53501	836.0875
176.84895	1167.5875
181.15975	1645.6875
185.46741	2315.1875
189.77193	3196.0875
194.07331	4290.2875
198.37157	5547.8875
202.6667	6854.4875
206.9587	8171.4875
211.24758	9464.2875
215.53334	10808.7875
219.81599	12282.5875
224.09553	13923.0875
228.37195	15689.8875
232.64527	17678.1875
236.91549	19633.9875
241.18261	21577.9875
245.44663	23246.1875
249.70755	24619.5875
253.96539	25863.8875
258.22014	26999.4875
262.4718	27958.5875
266.72039	28735.9875
270.96589	29228.9875
275.20832	29346.3875
279.44768	29220.1875
283.68397	29042.5875
287.91719	28891.0875
292.14735	29025.5875
296.37445	29372.3875
300.59849	30012.8875
304.81948	30699.6875
309.03742	31037.3875
313.25231	30615.3875
317.46415	29257.0875
321.67296	27479.0875
325.87872	25999.4875
330.08145	25257.0875
334.28114	25199.0875
338.47781	25453.8875
342.67145	25972.1875
346.86207	26838.0875
351.04966	27976.2875
355.23424	29305.4875
359.4158	30374.8875
363.59435	30873.9875
367.76989	30977.7875
371.94243	31000.7875
376.11196	30971.2875
380.27849	30955.2875
384.44203	30825.1875
388.60257	30577.2875
392.76012	30574.0875
396.91468	30862.1875
401.06626	31498.6875
405.21485	32054.2875
409.36047	31650.0875
413.50311	30412.2875
417.64277	29318.7875
421.77947	28707.6875
425.9132	28553.1875
430.04396	28645.7875
434.17176	28888.6875
438.2966	29303.1875
442.41849	29952.6875
446.53742	30910.9875
450.6534	31989.1875
454.76644	32613.3875
458.87653	32826.4875
462.98368	32621.2875
467.08789	32246.0875
471.18916	31874.7875
475.2875	31493.0875
479.38291	31273.6875
483.4754	30942.1875
487.56496	30426.4875
491.6516	29728.6875
495.73531	29157.0875
499.81612	28925.0875
503.89401	29011.7875
507.96899	29190.5875
512.04106	29323.0875
516.11023	29502.6875
520.1765	29479.2875
524.23987	29284.7875
528.30034	28801.5875
532.35792	28431.7875
536.41261	27979.6875
540.46441	27563.6875
544.51333	27492.8875
548.55936	27803.8875
552.60252	28552.8875
556.64279	29452.0875
560.6802	30003.1875
564.71473	30526.0875
568.7464	31625.2875
572.7752	32574.3875
576.80114	32194.7875
580.82422	31421.4875
584.84444	31104.8875
588.86181	31210.0875
592.87633	31561.2875
596.888	31916.2875
600.89682	32346.0875
604.9028	34498.0875
608.90594	40828.0875
612.90624	49279.9875
616.90371	47194.7875
620.89834	35064.1875
624.89015	29499.4875
628.87913	28644.4875
632.86528	28739.6875
636.84862	28945.1875
640.82913	28355.2875
644.80683	27211.7875
648.78172	26402.3875
652.75379	26317.2875
656.72306	26999.2875
660.68952	28010.8875
664.65319	27888.7875
668.61405	26923.2875
672.57211	26446.0875
676.52738	26387.9875
680.47986	26446.9875
684.42955	26245.6875
688.37646	26183.0875
692.32058	26248.5875
696.26192	26508.9875
700.20048	26799.8875
704.13626	27036.3875
708.06928	27006.0875
711.99952	26831.1875
715.927	26682.1875
719.85171	26733.5875
723.77365	26734.8875
727.69284	26492.0875
731.60928	26226.2875
735.52295	26168.6875
739.43388	26202.9875
743.34206	26263.4875
747.24749	26396.1875
751.15017	26660.4875
755.05012	27211.5875
758.94733	28347.0875
762.8418	30823.6875
766.73354	34951.7875
770.62254	39155.6875
774.50882	40926.2875
778.39237	38920.8875
782.27321	34337.0875
786.15132	30154.1875
790.02671	27736.0875
793.89938	26637.4875
797.76935	26163.3875
801.6366	26000.3875
805.50115	25879.2875
809.36299	25767.2875
813.22213	25676.6875
817.07857	25702.7875
820.93231	25702.5875
824.78336	25703.3875
828.63172	25736.9875
832.47738	25687.7875
836.32036	25632.9875
840.16066	25602.2875
843.99827	25527.9875
847.8332	25416.0875
851.66546	25301.4875
855.49504	25261.2875
859.32195	25242.3875
863.1462	25129.7875
866.96777	25039.7875
870.78668	25014.6875
874.60293	24974.4875
878.41652	25022.2875
882.22745	25126.2875
886.03573	25277.1875
889.84136	25193.0875
893.64433	25026.2875
897.44466	24970.9875
901.24235	24888.7875
905.0374	24880.5875
908.8298	24834.6875
912.61957	24854.0875
916.40671	25060.3875
920.19121	25345.3875
923.97308	25611.1875
927.75233	25716.4875
931.52895	25798.2875
935.30295	25523.1875
939.07433	24916.2875
942.84309	24350.7875
946.60924	24045.3875
950.37278	23831.3875
954.13371	23757.1875
957.89203	23674.7875
961.64774	23615.2875
965.40086	23594.2875
969.15137	23471.6875
972.89929	23384.1875
976.64461	23260.7875
980.38733	23239.5875
984.12747	23296.7875
987.86502	23465.0875
991.59999	23742.6875
995.33237	24058.9875
999.06217	24718.2875
1002.78939	25500.8875
1006.51404	26101.4875
1010.23611	26492.4875
1013.95561	26759.1875
1017.67255	26701.3875
1021.38692	26339.4875
1025.09872	26003.3875
1028.80796	25953.4875
1032.51465	26378.7875
1036.21877	26806.3875
1039.92035	26887.7875
1043.61937	26768.8875
1047.31584	26362.8875
1051.00976	25970.0875
1054.70114	25800.5875
1058.38998	25809.6875
1062.07627	26037.8875
1065.76003	26222.1875
1069.44126	26384.9875
1073.11995	26541.6875
1076.79611	26703.1875
1080.46974	27067.0875
1084.14085	27501.9875
1087.80943	28089.5875
1091.47549	28463.6875
1095.13903	28243.3875
1098.80005	27587.8875
1102.45857	26929.1875
1106.11456	26564.8875
1109.76805	26535.7875
1113.41903	26956.7875
1117.06751	27594.0875
1120.71348	28458.2875
1124.35696	29289.9875
1127.99793	30029.0875
1131.63641	29999.3875
1135.2724	29063.9875
1138.90589	28145.4875
1142.5369	27622.2875
1146.16542	27308.1875
1149.79145	27340.9875
1153.415	27583.8875
1157.03607	27951.7875
1160.65467	28648.6875
1164.27079	29801.0875
1167.88443	31464.4875
1171.49561	33948.5875
1175.10432	37602.4875
1178.71056	42214.6875
1182.31434	45969.4875
1185.91565	47303.9875
1189.51451	46758.9875
1193.11091	44727.0875
1196.70485	42124.7875
1200.29634	39910.0875
1203.88538	38169.9875
1207.47197	36354.2875
1211.05612	34935.5875
1214.63782	33875.1875
1218.21708	33367.1875
1221.79391	33129.0875
1225.36829	32897.1875
1228.94024	32561.0875
1232.50976	32142.7875
1236.07685	31876.3875
1239.6415	31803.2875
1243.20374	31961.9875
1246.76355	32139.7875
1250.32093	32681.0875
1253.8759	33485.5875
1257.42845	34508.8875
1260.97859	35484.6875
1264.52631	36386.6875
1268.07163	37324.9875
1271.61453	38337.4875
1275.15503	39237.0875
1278.69312	39927.6875
1282.22882	40621.2875
1285.76211	41626.9875
1289.29301	42941.6875
1292.82151	44675.9875
1296.34761	46786.1875
1299.87133	49507.3875
1303.39266	53268.3875
1306.9116	58183.2875
1310.42815	63647.4875
1313.94233	66989.0875
1317.45412	66796.3875
1320.96354	64334.1875
1324.47058	61400.2875
1327.97525	58785.0875
1331.47754	57001.2875
1334.97747	56309.5875
1338.47502	56527.7875
1341.97022	57133.1875
1345.46305	57422.1875
1348.95352	57640.5875
1352.44163	58249.5875
1355.92738	60506.7875
1359.41078	65684.0875
1362.89183	71290.7875
1366.37053	69614.1875
1369.84688	60717.8875
1373.32088	51760.5875
1376.79254	46287.5875
1380.26186	43976.1875
1383.72883	43294.3875
1387.19347	43182.3875
1390.65578	42906.8875
1394.11575	42812.2875
1397.57339	43389.8875
1401.0287	44442.4875
1404.48168	45521.9875
1407.93234	46112.1875
1411.38068	45906.5875
1414.82669	44743.7875
1418.27039	42767.9875
1421.71177	40633.1875
1425.15083	38735.2875
1428.58758	37610.5875
1432.02203	37454.1875
1435.45416	38026.9875
1438.88399	38662.9875
1442.31151	39294.9875
1445.73673	40025.8875
1449.15965	40893.0875
1452.58027	41512.2875
1455.9986	41931.7875
1459.41463	42339.3875
1462.82837	43025.2875
1466.23982	43784.1875
1469.64898	44344.5875
1473.05586	44505.4875
1476.46045	44380.1875
1479.86276	44183.9875
1483.26279	44116.1875
1486.66054	44238.6875
1490.05602	44716.9875
1493.44922	45468.6875
1496.84016	46652.6875
1500.22882	48809.8875
1503.61521	52139.9875
1506.99934	56596.6875
1510.38121	61030.0875
1513.76081	63484.1875
1517.13816	61635.9875
1520.51324	56452.1875
1523.88607	51021.1875
1527.25665	47339.0875
1530.62498	45303.7875
1533.99105	44175.3875
1537.35488	43596.8875
1540.71647	43143.5875
1544.07581	42700.4875
1547.4329	42134.0875
1550.78776	41561.5875
1554.14038	41270.9875
1557.49077	41393.9875
1560.83892	41754.3875
1564.18484	42290.3875
1567.52853	42894.5875
1570.86999	43329.5875
1574.20922	43763.9875
1577.54624	43986.1875
1580.88103	43182.2875
1584.2136	42272.0875
1587.54395	42390.9875
1590.87208	43881.4875
1594.19801	46539.5875
1597.52172	49381.0875
1600.84321	50403.2875
1604.16251	48517.9875
1607.47959	44874.1875
1610.79447	40816.7875
1614.10715	37107.5875
1617.41763	34082.0875
1620.7259	32031.0875
1624.03199	31023.5875
1627.33587	30905.6875
1630.63757	31712.3875
1633.93707	33532.3875
1637.23439	36508.2875
1640.52951	40632.4875
1643.82246	45705.9875
1647.11321	50745.7875
1650.40179	53456.1875
1653.68819	51290.6875
1656.97241	44705.7875
1660.25446	37396.1875
1663.53433	32001.3875
1666.81203	28578.9875
1670.08756	26511.6875
1673.36092	25247.0875
1676.63211	24397.7875
1679.90115	23829.7875
1683.16801	23418.4875
1686.43272	23084.1875
1689.69527	22884.7875
1692.95567	22717.5875
1696.2139	22558.8875
1699.46999	22469.5875
1702.72392	22389.3875
1705.97571	22328.2875
1709.22535	22261.1875
1712.47284	22276.4875
1715.71819	22249.8875
1718.96139	22182.3875
1722.20246	22144.7875
1725.44139	22054.8875
1728.67818	21869.3875
1731.91284	21771.3875
1735.14537	21627.7875
1738.37576	21533.0875
1741.60403	21411.3875
1744.83017	21367.9875
1748.05418	21335.4875
1751.27607	21278.1875
1754.49584	21259.6875
1757.71349	21227.8875
1760.92903	21196.7875
1764.14244	21167.1875
1767.35375	21137.9875
1770.56294	21078.8875
1773.77002	21030.6875
1776.97499	20957.4875
1780.17785	20892.0875
1783.37861	20902.7875
1786.57727	20835.9875
1789.77382	20830.0875
1792.96828	20842.4875
1796.16064	20779.5875
1799.3509	20777.0875
1802.53907	20693.0875
1805.72514	20620.6875
1808.90913	20589.5875
1812.09102	20500.6875
1815.27083	20482.6875
1818.44856	20456.2875
1821.6242	20390.8875
1824.79776	20363.2875
1827.96924	20317.8875
1831.13864	20322.9875
1834.30597	20314.6875
1837.47122	20259.2875
1840.6344	20247.5875
1843.7955	20263.1875
1846.95454	20274.0875
1850.11151	20229.4875
1853.26642	20227.9875
1856.41926	20251.4875
1859.57004	20276.6875
1862.71876	20244.5875
1865.86542	20240.6875
1869.01003	20231.9875
1872.15258	20240.0875
1875.29308	20242.2875
1878.43152	20250.0875
1881.56792	20253.9875
1884.70227	20232.8875
1887.83457	20215.3875
1890.96482	20217.5875
1894.09304	20206.4875
1897.21921	20209.0875
1900.34335	20189.3875
1903.46544	20177.3875
1906.58551	20179.6875
1909.70353	20187.0875
1912.81953	20148.5875
1915.93349	20167.1875
1919.04543	20102.1875
1922.15534	20099.5875
1925.26322	20018.5875
1928.36908	19926.1875
1931.47292	19909.8875
1934.57473	19843.7875
1937.67453	19797.4875
1940.77232	19696.1875
1943.86808	19646.3875
1946.96184	19556.4875
1950.05358	19518.5875
1953.14331	19457.3875
1956.23103	19411.2875
1959.31675	19308.4875
1962.40046	19285.9875
1965.48217	19223.8875
1968.56188	19172.1875
1971.63959	19126.3875
1974.7153	19042.5875
1977.78901	18945.6875
1980.86073	18883.5875
1983.93046	18841.8875
1986.99819	18755.4875
1990.06394	18690.7875
1993.1277	18672.6875
1996.18947	18586.3875
1999.24925	18534.3875
2002.30706	18488.7875
2005.36288	18435.5875
2008.41672	18385.3875
2011.46859	18340.8875
2014.51848	18290.9875
2017.56639	18263.2875
2020.61233	18197.5875
2023.6563	18168.7875
2026.6983	18091.3875
2029.73833	18038.2875
2032.7764	17987.2875
2035.8125	17991.1875
2038.84664	17946.7875
2041.87881	17932.1875
2044.90903	17910.0875
2047.93729	17838.5875
2050.96359	17804.8875
2053.98794	17823.3875
2057.01034	17820.2875
2060.03078	17785.1875
2063.04927	17765.0875
2066.06582	17781.6875
2069.08042	17721.5875
2072.09307	17713.0875
2075.10378	17669.7875
2078.11255	17677.5875
2081.11938	17673.3875
2084.12426	17646.4875
2087.12722	17641.8875
2090.12824	17622.5875
2093.12732	17607.8875
2096.12447	17634.0875
2099.11969	17581.7875
2102.11299	17596.7875
2105.10435	17594.4875
2108.09379	17604.9875
2111.08131	17607.8875
2114.0669	17621.7875
2117.05057	17644.6875
2120.03233	17639.6875
2123.01216	17675.8875
2125.99008	17694.9875
2128.96609	17689.1875
2131.94018	17695.7875
2134.91236	17690.8875
2137.88263	17712.5875
2140.851	17749.7875
2143.81746	17752.4875
2146.78201	17724.8875
2149.74466	17724.3875
2152.7054	17714.0875
2155.66425	17673.3875
2158.6212	17662.4875
2161.57625	17639.4875
2164.52941	17656.2875
2167.48067	17651.2875
2170.43004	17640.3875
2173.37752	17619.1875
2176.32311	17605.1875
2179.26681	17680.9875
2182.20863	17656.5875
2185.14856	17616.2875
2188.08661	17641.2875
2191.02278	17643.7875
2193.95707	17648.8875
2196.88948	17629.8875
2199.82001	17583.6875
2202.74867	17562.5875
2205.67545	17582.7875
2208.60037	17578.4875
2211.52341	17560.9875
2214.44458	17511.4875
2217.36388	17516.5875
2220.28132	17447.1875
2223.1969	17424.2875
2226.11061	17404.9875
2229.02246	17365.5875
2231.93245	17321.4875
2234.84058	17264.3875
2237.74686	17224.8875
2240.65128	17222.9875
2243.55385	17182.6875
2246.45456	17164.8875
2249.35343	17124.8875
2252.25044	17131.0875
2255.14561	17104.7875
2258.03893	17125.1875
2260.93041	17076.3875
2263.82004	17069.7875
2266.70783	17001.5875
2269.59378	16918.0875
2272.4779	16886.3875
2275.36017	16824.6875
2278.24061	16820.6875
2281.11922	16767.1875
2283.996	16778.5875
2286.87094	16729.0875
2289.74405	16719.3875
2292.61534	16713.2875
2295.4848	16661.6875
2298.35243	16662.4875
2301.21824	16662.0875
2304.08223	16682.9875
2306.94439	16644.3875
2309.80474	16643.7875
2312.66327	16711.0875
2315.51999	16694.6875
2318.37489	16640.2875
2321.22797	16614.9875
2324.07925	16633.7875
2326.92871	16584.2875
2329.77637	16568.2875
2332.62222	16546.2875
2335.46626	16554.2875
2338.3085	16525.4875
2341.14893	16579.4875
2343.98756	16600.0875
2346.8244	16590.9875
2349.65943	16589.2875
2352.49267	16592.2875
2355.32411	16595.3875
2358.15376	16595.9875
2360.98161	16565.7875
2363.80768	16603.6875
2366.63195	16597.7875
2369.45444	16567.1875
2372.27514	16560.4875
2375.09405	16498.1875
2377.91118	16468.0875
2380.72652	16407.6875
2383.54009	16354.0875
2386.35187	16338.6875
2389.16188	16267.3875
2391.97011	16233.9875
2394.77657	16187.2875
2397.58125	16161.3875
2400.38416	16109.5875
2403.18529	16078.0875
2405.98466	16044.2875
2408.78226	16024.0875
2411.57809	16016.3875
2414.37216	15972.9875
2417.16446	15972.7875
2419.955	15964.9875
2422.74378	15945.8875
2425.5308	15911.4875
2428.31606	15938.1875
2431.09956	15938.6875
2433.88131	15877.4875
2436.6613	15903.0875
2439.43954	15919.3875
2442.21603	15900.5875
2444.99077	15852.3875
2447.76377	15871.3875
2450.53501	15871.7875
2453.30451	15859.0875
2456.07226	15849.7875
2458.83827	15852.6875
2461.60254	15816.6875
2464.36507	15829.9875
2467.12586	15785.4875
2469.88492	15810.4875
2472.64224	15851.7875
2475.39782	15842.9875
2478.15167	15841.9875
2480.90379	15837.1875
2483.65417	15894.2875
2486.40283	15902.4875
2489.14976	15942.1875
2491.89497	15936.7875
2494.63845	15984.9875
2497.3802	15957.0875
2500.12024	15952.3875
2502.85855	15905.1875
2505.59514	15901.4875
2508.33002	15851.0875
2511.06318	15842.2875
2513.79462	15796.4875
2516.52435	15776.5875
2519.25237	15740.5875
2521.97867	15720.0875
2524.70327	15690.3875
2527.42616	15669.1875
2530.14734	15688.2875
2532.86681	15673.6875
2535.58458	15671.9875
2538.30065	15643.0875
2541.01501	15672.0875
2543.72768	15651.1875
2546.43864	15629.5875
2549.14791	15587.3875
2551.85548	15578.1875
2554.56136	15554.6875
2557.26554	15559.3875
2559.96803	15543.1875
2562.66883	15509.4875
2565.36794	15515.3875
2568.06536	15489.0875
2570.7611	15478.6875
2573.45514	15433.0875
2576.14751	15435.9875
2578.83819	15401.2875
2581.52719	15404.8875
2584.21451	15407.7875
2586.90015	15424.3875
2589.58411	15416.8875
2592.2664	15394.1875
2594.94701	15367.8875
2597.62594	15389.2875
2600.30321	15357.3875
2602.9788	15364.4875
2605.65273	15326.9875
2608.32498	15333.3875
2610.99557	15352.6875
2613.66449	15367.0875
2616.33175	15352.2875
2618.99734	15360.7875
2621.66128	15382.4875
2624.32355	15348.2875
2626.98416	15350.0875
2629.64311	15332.2875
2632.30041	15330.0875
2634.95605	15326.9875
2637.61004	15264.7875
2640.26238	15269.6875
2642.91306	15238.2875
2645.56209	15201.1875
2648.20948	15216.6875
2650.85521	15216.4875
2653.4993	15267.0875
2656.14175	15230.9875
2658.78255	15255.2875
2661.42171	15223.6875
2664.05923	15268.3875
2666.6951	15271.1875
2669.32934	15340.2875
2671.96194	15314.2875
2674.59291	15316.2875
2677.22224	15293.5875
2679.84993	15315.0875
2682.476	15278.6875
2685.10043	15281.6875
2687.72324	15239.9875
2690.34441	15269.4875
2692.96396	15202.2875
2695.58188	15246.7875
2698.19818	15210.7875
2700.81285	15238.1875
2703.4259	15252.6875
2706.03733	15316.9875
2708.64714	15296.6875
2711.25533	15325.3875
2713.86191	15279.4875
2716.46687	15319.2875
2719.07021	15309.5875
2721.67194	15345.5875
2724.27206	15296.2875
2726.87057	15323.7875
2729.46747	15308.1875
2732.06276	15335.6875
2734.65644	15320.9875
2737.24852	15310.3875
2739.83899	15274.9875
2742.42786	15318.9875
2745.01513	15239.5875
2747.60079	15272.4875
2750.18486	15234.7875
2752.76733	15231.5875
2755.3482	15236.3875
2757.92747	15228.1875
2760.50515	15240.7875
2763.08123	15242.2875
2765.65573	15198.8875
2768.22863	15215.8875
2770.79994	15179.1875
2773.36967	15175.8875
2775.9378	15194.1875
2778.50435	15159.5875
2781.06932	15162.6875
2783.6327	15194.9875
2786.1945	15216.6875
2788.75471	15219.0875
2791.31335	15152.1875
2793.87041	15163.4875
2796.42589	15104.6875
2798.97979	15119.6875
2801.53212	15066.0875
2804.08288	15050.2875
2806.63206	15008.7875
2809.17967	14975.9875
2811.72571	14962.4875
2814.27018	14938.3875
2816.81308	14889.6875
2819.35442	14897.2875
2821.89419	14889.5875
2824.43239	14919.2875
2826.96904	14899.6875
2829.50412	14897.2875
2832.03763	14847.5875
2834.56959	14841.7875
2837.1	14855.2875
2839.62884	14876.9875
2842.15613	14899.6875
2844.68186	14902.2875
2847.20604	14937.1875
2849.72867	14960.9875
2852.24974	14963.2875
2854.76927	14986.4875
2857.28724	14948.1875
2859.80367	14935.8875
2862.31855	14901.1875
2864.83189	14879.6875
2867.34368	14879.5875
2869.85393	14872.4875
2872.36264	14849.0875
2874.8698	14851.1875
2877.37543	14827.2875
2879.87952	14818.0875
2882.38207	14823.3875
2884.88308	14804.7875
2887.38256	14827.5875
2889.88051	14833.2875
2892.37692	14811.4875
2894.8718	14804.9875
2897.36515	14817.1875
2899.85698	14811.0875
2902.34727	14848.2875
2904.83604	14849.0875
2907.32328	14887.4875
2909.809	14872.2875
2912.29319	14912.8875
2914.77587	14901.2875
2917.25702	14885.7875
2919.73665	14894.9875
2922.21476	14887.8875
2924.69136	14867.1875
2927.16644	14849.6875
2929.64	14786.4875
2932.11205	14769.2875
2934.58258	14698.2875
2937.05161	14736.9875
2939.51912	14731.6875
2941.98513	14708.8875
2944.44962	14675.0875
2946.91261	14598.2875
2949.37409	14599.6875
2951.83407	14572.1875
2954.29254	14546.0875
2956.74951	14533.4875
2959.20498	14537.4875
2961.65895	14509.1875
2964.11142	14488.7875
2966.56239	14459.9875
2969.01186	14461.5875
2971.45984	14394.8875
2973.90632	14421.4875
2976.35131	14407.8875
2978.7948	14336.1875
2981.23681	14301.6875
2983.67732	14267.1875
2986.11635	14237.0875
2988.55388	14203.1875
2990.98993	14187.9875
2993.4245	14135.1875
2995.85758	14091.4875
2998.28917	14035.0875
3000.71928	14020.0875
3003.14791	14002.7875
3005.57506	13986.3875
3008.00073	13944.6875
3010.42493	13820.2875
3012.84764	13911.5875
3015.26888	13908.1875
3017.68865	13848.5875
3020.10694	13809.0875
3022.52376	13790.9875
3024.9391	13792.1875
3027.35298	13777.4875
3029.76539	13761.1875
3032.17632	13747.5875
3034.5858	13677.7875
3036.9938	13707.6875
3039.40034	13725.2875
3041.80542	13683.6875
3044.20903	13655.6875
3046.61118	13646.9875
3049.01187	13623.1875
3051.4111	13602.7875
3053.80888	13585.4875
3056.20519	13541.0875
3058.60005	13479.4875
3060.99345	13448.4875
3063.3854	13413.0875
3065.7759	13370.0875
3068.16494	13313.9875
3070.55254	13289.7875
3072.93868	13241.3875
3075.32338	13205.1875
3077.70662	13153.4875
3080.08842	13134.1875
3082.46878	13104.1875
3084.84769	13084.1875
3087.22515	13070.6875
3089.60118	13060.7875
3091.97576	13077.9875
3094.3489	13044.5875
3096.72061	13034.7875
3099.09087	13028.0875
3101.4597	12998.3875
3103.82709	13030.0875
3106.19305	13000.9875
3108.55757	12965.1875
3110.92066	12924.2875
3113.28232	12926.0875
3115.64255	12909.4875
3118.00134	12846.1875
3120.35871	12821.2875
3122.71466	12789.7875
3125.06917	12780.8875
3127.42226	12726.4875
3129.77393	12695.3875
3132.12417	12712.5875
3134.47299	12716.4875
3136.82039	12667.4875
3139.16636	12706.0875
3141.51092	12683.5875
3143.85406	12649.2875
3146.19579	12645.0875
3148.53609	12610.1875
3150.87499	12661.9875
3153.21246	12642.9875
3155.54853	12660.5875
3157.88318	12644.0875
3160.21642	12658.1875
3162.54826	12635.6875
3164.87868	12665.3875
3167.2077	12648.2875
3169.5353	12643.8875
3171.86151	12646.1875
3174.18631	12626.2875
3176.5097	12632.7875
3178.83169	12593.4875
3181.15228	12603.0875
3183.47147	12561.7875
3185.78926	12568.3875
3188.10565	12520.9875
3190.42065	12519.2875
3192.73424	12515.2875
3195.04645	12501.4875
3197.35725	12479.1875
3199.66667	12458.0875
3201.97469	12503.7875
3204.28132	12504.1875
3206.58656	12504.0875
3208.8904	12501.8875
3211.19287	12500.3875
3213.49394	12500.6875
3215.79363	12527.4875
3218.09193	12520.1875
3220.38884	12519.2875
3222.68438	12538.8875
3224.97853	12494.2875
3227.2713	12473.7875
3229.56269	12464.7875
3231.8527	12452.4875
3234.14133	12411.3875
3236.42858	12387.9875
3238.71446	12344.0875
3240.99896	12342.2875
3243.28209	12321.3875
3245.56384	12318.6875
3247.84423	12301.2875
3250.12324	12309.7875
3252.40088	12259.9875
3254.67715	12264.1875
3256.95205	12261.6875
3259.22558	12268.9875
3261.49775	12250.4875
3263.76855	12243.8875
3266.03799	12191.9875
3268.30606	12163.1875
3270.57277	12142.8875
3272.83812	12138.9875
3275.10211	12072.4875
3277.36474	12097.5875
3279.62601	12077.2875
3281.88593	12026.7875
3284.14448	12055.9875
3286.40168	12042.8875
3288.65753	12065.3875
3290.91202	12047.0875
3293.16516	12020.3875
3295.41695	11965.3875
3297.66738	11893.6875
3299.91647	11856.6875
3302.16421	11780.2875
3304.4106	11722.0875
3306.65564	11643.1875
3308.89933	11582.3875
3311.14169	11490.9875
3313.38269	11400.5875
3315.62236	11325.4875
3317.86068	11247.2875
3320.09766	11135.1875
3322.3333	11075.8875
3324.5676	11025.8875
3326.80056	10850.5875
3329.03219	10793.4875
3331.26248	3.0875
3333.49143	-0.7125
3335.71905	-0.0125
