Data from AgNPs_FTO_APTES_UA_5uM_CRN_20uM_R6G_10uM_NaF_0.1M_Addition_RamanShift__22__13-28-36-785.txt Node

Date: Mon Feb 07 13:28:36 GMT 2022
User: TCL
Spectrometer: QEP01345
Trigger mode: 4
Integration Time (sec): 7.000000E0
Scans to average: 10
Electric dark correction enabled: true
Nonlinearity correction enabled: false
Boxcar width: 0
XAxis mode: Raman Shifts
Number of Pixels in Spectrum: 1044
>>>>>Begin Spectral Data<<<<<
46.04893	-0.6625
50.45542	-1.5625
54.85868	-1.0625
59.25871	0.1375
63.6555	86.1375
68.04907	87.1375
72.43941	94.8375
76.82654	97.0375
81.21044	99.7375
85.59113	101.8375
89.96862	104.3375
94.34289	102.9375
98.71396	111.8375
103.08183	115.5375
107.4465	117.0375
111.80798	123.0375
116.16626	128.4375
120.52136	132.7375
124.87327	137.3375
129.222	152.4375
133.56755	158.8375
137.90993	176.1375
142.24913	197.8375
146.58517	225.5375
150.91804	263.7375
155.24774	319.9375
159.57429	400.7375
163.89768	525.9375
168.21792	703.4375
172.53501	964.9375
176.84895	1351.0375
181.15975	1902.6375
185.46741	2660.0375
189.77193	3668.2375
194.07331	4895.8375
198.37157	6297.1375
202.6667	7779.8375
206.9587	9243.2375
211.24758	10676.8375
215.53334	12130.8375
219.81599	13711.0375
224.09553	15461.7375
228.37195	17388.3375
232.64527	19448.1375
236.91549	21680.1375
241.18261	23808.0375
245.44663	25820.9375
249.70755	27575.2375
253.96539	29113.2375
258.22014	30441.3375
262.4718	31586.3375
266.72039	32474.4375
270.96589	33085.2375
275.20832	33303.3375
279.44768	33399.7375
283.68397	33348.6375
287.91719	33360.2375
292.14735	33452.5375
296.37445	33709.0375
300.59849	33951.3375
304.81948	34021.9375
309.03742	33713.7375
313.25231	33067.2375
317.46415	31996.2375
321.67296	30704.5375
325.87872	29627.9375
330.08145	29052.3375
334.28114	28951.4375
338.47781	29191.3375
342.67145	29558.5375
346.86207	30044.4375
351.04966	30779.8375
355.23424	31538.4375
359.4158	32112.5375
363.59435	32498.9375
367.76989	32630.6375
371.94243	32778.1375
376.11196	32891.3375
380.27849	32936.7375
384.44203	33120.2375
388.60257	33336.8375
392.76012	33698.5375
396.91468	34141.9375
401.06626	34707.1375
405.21485	35117.1375
409.36047	34867.0375
413.50311	34147.5375
417.64277	33586.3375
421.77947	33494.4375
425.9132	33663.3375
430.04396	33897.2375
434.17176	34229.2375
438.2966	34574.1375
442.41849	35322.5375
446.53742	36359.3375
450.6534	37606.6375
454.76644	38639.9375
458.87653	38969.9375
462.98368	38763.5375
467.08789	38395.5375
471.18916	37941.4375
475.2875	37683.6375
479.38291	37661.3375
483.4754	37474.8375
487.56496	36896.9375
491.6516	35973.3375
495.73531	35082.1375
499.81612	34586.5375
503.89401	34571.3375
507.96899	34639.8375
512.04106	34458.4375
516.11023	34126.4375
520.1765	33774.5375
524.23987	33227.0375
528.30034	32837.6375
532.35792	32489.7375
536.41261	32069.9375
540.46441	31787.3375
544.51333	31920.6375
548.55936	32478.8375
552.60252	33443.5375
556.64279	34537.3375
560.6802	35260.2375
564.71473	35796.3375
568.7464	36674.5375
572.7752	37710.7375
576.80114	38310.5375
580.82422	38673.3375
584.84444	39060.2375
588.86181	39449.1375
592.87633	40058.3375
596.888	40461.1375
600.89682	40539.6375
604.9028	41605.0375
608.90594	45181.9375
612.90624	48997.7375
616.90371	45694.1375
620.89834	37260.6375
624.89015	33683.4375
628.87913	33386.7375
632.86528	33588.3375
636.84862	33473.0375
640.82913	32724.2375
644.80683	31588.3375
648.78172	30650.9375
652.75379	30361.5375
656.72306	30684.3375
660.68952	31359.0375
664.65319	31237.4375
668.61405	30640.2375
672.57211	30389.5375
676.52738	30398.7375
680.47986	30403.7375
684.42955	30251.5375
688.37646	30122.6375
692.32058	30290.7375
696.26192	30597.5375
700.20048	30972.8375
704.13626	31303.6375
708.06928	31278.6375
711.99952	31034.8375
715.927	30871.2375
719.85171	30937.9375
723.77365	30767.9375
727.69284	30440.7375
731.60928	30181.2375
735.52295	30059.3375
739.43388	30093.2375
743.34206	30177.7375
747.24749	30396.2375
751.15017	30710.8375
755.05012	31497.2375
758.94733	32679.4375
762.8418	34862.0375
766.73354	38247.9375
770.62254	41318.4375
774.50882	41777.7375
778.39237	39276.6375
782.27321	35596.9375
786.15132	32743.3375
790.02671	31070.5375
793.89938	30227.6375
797.76935	29875.0375
801.6366	29800.1375
805.50115	29706.9375
809.36299	29578.5375
813.22213	29398.9375
817.07857	29359.2375
820.93231	29300.0375
824.78336	29156.7375
828.63172	29032.7375
832.47738	28963.5375
836.32036	28980.6375
840.16066	28985.4375
843.99827	29077.6375
847.8332	29031.4375
851.66546	28851.4375
855.49504	28753.0375
859.32195	28712.6375
863.1462	28546.6375
866.96777	28386.0375
870.78668	28315.7375
874.60293	28267.0375
878.41652	28265.1375
882.22745	28349.6375
886.03573	28439.6375
889.84136	28469.1375
893.64433	28304.6375
897.44466	28194.0375
901.24235	28096.4375
905.0374	27972.4375
908.8298	27953.1375
912.61957	28085.0375
916.40671	28449.7375
920.19121	28990.5375
923.97308	29346.3375
927.75233	29334.0375
931.52895	29096.5375
935.30295	28656.3375
939.07433	27957.9375
942.84309	27480.7375
946.60924	27273.9375
950.37278	27091.2375
954.13371	26989.5375
957.89203	26882.7375
961.64774	26866.1375
965.40086	26859.1375
969.15137	26714.2375
972.89929	26551.0375
976.64461	26347.3375
980.38733	26323.1375
984.12747	26466.2375
987.86502	26692.9375
991.59999	27092.2375
995.33237	27653.6375
999.06217	28630.6375
1002.78939	29764.3375
1006.51404	30546.4375
1010.23611	30975.7375
1013.95561	31274.7375
1017.67255	31268.5375
1021.38692	30899.5375
1025.09872	30442.8375
1028.80796	30590.4375
1032.51465	31405.1375
1036.21877	32251.6375
1039.92035	32351.9375
1043.61937	31948.0375
1047.31584	31133.6375
1051.00976	30274.7375
1054.70114	29949.1375
1058.38998	29988.5375
1062.07627	30283.9375
1065.76003	30578.9375
1069.44126	30924.9375
1073.11995	31208.3375
1076.79611	31476.1375
1080.46974	31649.9375
1084.14085	31909.1375
1087.80943	32350.7375
1091.47549	32688.3375
1095.13903	32648.1375
1098.80005	32284.5375
1102.45857	31468.1375
1106.11456	30856.2375
1109.76805	30661.6375
1113.41903	30759.7375
1117.06751	31107.0375
1120.71348	31551.1375
1124.35696	32034.1375
1127.99793	32484.7375
1131.63641	32706.0375
1135.2724	32490.3375
1138.90589	32204.5375
1142.5369	32080.7375
1146.16542	32143.0375
1149.79145	32468.4375
1153.415	32964.8375
1157.03607	33783.0375
1160.65467	34853.2375
1164.27079	36560.2375
1167.88443	38870.6375
1171.49561	41897.5375
1175.10432	45840.3375
1178.71056	50696.2375
1182.31434	55099.5375
1185.91565	57436.4375
1189.51451	57617.6375
1193.11091	56020.0375
1196.70485	53530.9375
1200.29634	50706.0375
1203.88538	48515.4375
1207.47197	46921.0375
1211.05612	45756.7375
1214.63782	44675.4375
1218.21708	43826.1375
1221.79391	43159.1375
1225.36829	42677.8375
1228.94024	42028.8375
1232.50976	41114.9375
1236.07685	40506.6375
1239.6415	40228.7375
1243.20374	40081.6375
1246.76355	40234.8375
1250.32093	40904.2375
1253.8759	41999.0375
1257.42845	43350.9375
1260.97859	44741.9375
1264.52631	46053.6375
1268.07163	47386.6375
1271.61453	48922.9375
1275.15503	50688.3375
1278.69312	52583.0375
1282.22882	54266.5375
1285.76211	55950.5375
1289.29301	57989.5375
1292.82151	60746.7375
1296.34761	64135.9375
1299.87133	68327.9375
1303.39266	72956.5375
1306.9116	77811.9375
1310.42815	82559.5375
1313.94233	85676.3375
1317.45412	86457.8375
1320.96354	85491.1375
1324.47058	84102.5375
1327.97525	82679.1375
1331.47754	81529.6375
1334.97747	80925.9375
1338.47502	80900.3375
1341.97022	80711.3375
1345.46305	79646.2375
1348.95352	77620.7375
1352.44163	75492.5375
1355.92738	75003.1375
1359.41078	76950.3375
1362.89183	79280.6375
1366.37053	77605.4375
1369.84688	71158.6375
1373.32088	63711.6375
1376.79254	58730.6375
1380.26186	56929.9375
1383.72883	57024.4375
1387.19347	57469.4375
1390.65578	57707.2375
1394.11575	58336.0375
1397.57339	59672.8375
1401.0287	61430.8375
1404.48168	62867.7375
1407.93234	63369.4375
1411.38068	62459.6375
1414.82669	60040.9375
1418.27039	56593.8375
1421.71177	53042.0375
1425.15083	50230.9375
1428.58758	48659.0375
1432.02203	48536.4375
1435.45416	49567.8375
1438.88399	51089.7375
1442.31151	52645.7375
1445.73673	53930.3375
1449.15965	55334.1375
1452.58027	56495.2375
1455.9986	57162.1375
1459.41463	57883.6375
1462.82837	58821.2375
1466.23982	59760.4375
1469.64898	60626.4375
1473.05586	60768.9375
1476.46045	60314.1375
1479.86276	59488.6375
1483.26279	58620.0375
1486.66054	58069.5375
1490.05602	57866.6375
1493.44922	57895.2375
1496.84016	58063.2375
1500.22882	58788.3375
1503.61521	60171.9375
1506.99934	62299.4375
1510.38121	64368.0375
1513.76081	65637.9375
1517.13816	64706.8375
1520.51324	62449.2375
1523.88607	60216.3375
1527.25665	58968.3375
1530.62498	58285.7375
1533.99105	58122.4375
1537.35488	57912.3375
1540.71647	57324.4375
1544.07581	56203.6375
1547.4329	54802.6375
1550.78776	53544.1375
1554.14038	52698.6375
1557.49077	52320.0375
1560.83892	52223.0375
1564.18484	52156.7375
1567.52853	52121.9375
1570.86999	52227.1375
1574.20922	52915.1375
1577.54624	53773.8375
1580.88103	54225.4375
1584.2136	54997.8375
1587.54395	56758.7375
1590.87208	59900.7375
1594.19801	63836.9375
1597.52172	67488.4375
1600.84321	68539.6375
1604.16251	65335.6375
1607.47959	59681.9375
1610.79447	53699.6375
1614.10715	48290.9375
1617.41763	43838.4375
1620.7259	40744.2375
1624.03199	39097.1375
1627.33587	38930.9375
1630.63757	40284.4375
1633.93707	43384.0375
1637.23439	48273.5375
1640.52951	54713.1375
1643.82246	61793.9375
1647.11321	67190.3375
1650.40179	68092.7375
1653.68819	63390.2375
1656.97241	54778.9375
1660.25446	45976.2375
1663.53433	39070.0375
1666.81203	34540.7375
1670.08756	31630.7375
1673.36092	29835.5375
1676.63211	28673.5375
1679.90115	27839.5375
1683.16801	27283.1375
1686.43272	26793.3375
1689.69527	26463.9375
1692.95567	26203.0375
1696.2139	26012.3375
1699.46999	25864.0375
1702.72392	25719.2375
1705.97571	25623.4375
1709.22535	25574.6375
1712.47284	25449.9375
1715.71819	25406.6375
1718.96139	25344.4375
1722.20246	25237.4375
1725.44139	25076.3375
1728.67818	24952.1375
1731.91284	24750.9375
1735.14537	24585.8375
1738.37576	24459.6375
1741.60403	24348.9375
1744.83017	24242.6375
1748.05418	24193.7375
1751.27607	24122.4375
1754.49584	24069.0375
1757.71349	24064.4375
1760.92903	24054.8375
1764.14244	23992.2375
1767.35375	23982.3375
1770.56294	23931.5375
1773.77002	23852.5375
1776.97499	23794.1375
1780.17785	23754.2375
1783.37861	23735.9375
1786.57727	23684.8375
1789.77382	23614.6375
1792.96828	23625.5375
1796.16064	23580.5375
1799.3509	23514.1375
1802.53907	23471.2375
1805.72514	23407.3375
1808.90913	23344.3375
1812.09102	23259.4375
1815.27083	23230.0375
1818.44856	23206.0375
1821.6242	23131.3375
1824.79776	23109.6375
1827.96924	23118.7375
1831.13864	23058.4375
1834.30597	23093.0375
1837.47122	23106.1375
1840.6344	23068.8375
1843.7955	23086.1375
1846.95454	23089.9375
1850.11151	23107.6375
1853.26642	23108.0375
1856.41926	23125.9375
1859.57004	23114.6375
1862.71876	23119.9375
1865.86542	23133.5375
1869.01003	23079.1375
1872.15258	23068.5375
1875.29308	23059.8375
1878.43152	23089.6375
1881.56792	23131.6375
1884.70227	23110.0375
1887.83457	23062.4375
1890.96482	23053.5375
1894.09304	23095.4375
1897.21921	23095.1375
1900.34335	23083.6375
1903.46544	23118.1375
1906.58551	23119.8375
1909.70353	23093.2375
1912.81953	23061.9375
1915.93349	23006.0375
1919.04543	22942.0375
1922.15534	22885.8375
1925.26322	22794.3375
1928.36908	22716.6375
1931.47292	22650.4375
1934.57473	22583.9375
1937.67453	22499.2375
1940.77232	22375.1375
1943.86808	22288.2375
1946.96184	22191.9375
1950.05358	22103.2375
1953.14331	22016.1375
1956.23103	21943.0375
1959.31675	21863.9375
1962.40046	21776.4375
1965.48217	21697.3375
1968.56188	21651.6375
1971.63959	21559.3375
1974.7153	21488.0375
1977.78901	21444.5375
1980.86073	21338.1375
1983.93046	21276.5375
1986.99819	21231.7375
1990.06394	21160.6375
1993.1277	21067.5375
1996.18947	21058.4375
1999.24925	20958.7375
2002.30706	20898.3375
2005.36288	20870.0375
2008.41672	20802.8375
2011.46859	20771.2375
2014.51848	20702.5375
2017.56639	20639.2375
2020.61233	20594.7375
2023.6563	20527.7375
2026.6983	20477.3375
2029.73833	20442.1375
2032.7764	20386.1375
2035.8125	20364.7375
2038.84664	20323.6375
2041.87881	20291.6375
2044.90903	20294.8375
2047.93729	20284.3375
2050.96359	20254.0375
2053.98794	20186.4375
2057.01034	20188.3375
2060.03078	20199.1375
2063.04927	20140.3375
2066.06582	20156.4375
2069.08042	20138.6375
2072.09307	20081.3375
2075.10378	20037.9375
2078.11255	20026.9375
2081.11938	20048.8375
2084.12426	20008.6375
2087.12722	20012.0375
2090.12824	19935.5375
2093.12732	19955.5375
2096.12447	19950.4375
2099.11969	19957.2375
2102.11299	19936.1375
2105.10435	19958.5375
2108.09379	19935.4375
2111.08131	19946.0375
2114.0669	19966.1375
2117.05057	19981.1375
2120.03233	19992.4375
2123.01216	20018.2375
2125.99008	20009.0375
2128.96609	20041.8375
2131.94018	20033.4375
2134.91236	20063.4375
2137.88263	20061.9375
2140.851	20071.6375
2143.81746	20121.3375
2146.78201	20065.0375
2149.74466	20075.0375
2152.7054	20047.9375
2155.66425	20038.9375
2158.6212	20025.1375
2161.57625	20028.5375
2164.52941	20035.1375
2167.48067	20011.8375
2170.43004	20004.7375
2173.37752	20002.4375
2176.32311	19963.4375
2179.26681	19977.8375
2182.20863	19987.4375
2185.14856	20029.0375
2188.08661	20017.5375
2191.02278	20037.1375
2193.95707	20020.8375
2196.88948	19986.3375
2199.82001	19986.4375
2202.74867	19969.8375
2205.67545	19949.1375
2208.60037	19949.9375
2211.52341	19943.7375
2214.44458	19928.6375
2217.36388	19887.7375
2220.28132	19835.8375
2223.1969	19815.3375
2226.11061	19783.5375
2229.02246	19728.4375
2231.93245	19662.5375
2234.84058	19615.7375
2237.74686	19586.6375
2240.65128	19577.4375
2243.55385	19547.8375
2246.45456	19530.3375
2249.35343	19512.0375
2252.25044	19466.2375
2255.14561	19417.5375
2258.03893	19399.2375
2260.93041	19402.4375
2263.82004	19294.0375
2266.70783	19276.0375
2269.59378	19230.1375
2272.4779	19139.5375
2275.36017	19116.2375
2278.24061	19064.9375
2281.11922	19019.1375
2283.996	18991.3375
2286.87094	18996.8375
2289.74405	18974.6375
2292.61534	18950.7375
2295.4848	18931.9375
2298.35243	18953.4375
2301.21824	18961.7375
2304.08223	18965.6375
2306.94439	18996.7375
2309.80474	19028.4375
2312.66327	19020.9375
2315.51999	19009.8375
2318.37489	19013.6375
2321.22797	18972.5375
2324.07925	18971.4375
2326.92871	18944.5375
2329.77637	18917.4375
2332.62222	18912.0375
2335.46626	18919.3375
2338.3085	18909.5375
2341.14893	18945.4375
2343.98756	18987.9375
2346.8244	18963.5375
2349.65943	18971.7375
2352.49267	18971.9375
2355.32411	18986.6375
2358.15376	18937.3375
2360.98161	18948.9375
2363.80768	18943.8375
2366.63195	18920.2375
2369.45444	18858.5375
2372.27514	18818.5375
2375.09405	18802.8375
2377.91118	18767.9375
2380.72652	18747.4375
2383.54009	18646.6375
2386.35187	18619.7375
2389.16188	18561.6375
2391.97011	18580.2375
2394.77657	18558.8375
2397.58125	18513.3375
2400.38416	18490.3375
2403.18529	18431.2375
2405.98466	18423.8375
2408.78226	18357.5375
2411.57809	18366.7375
2414.37216	18334.5375
2417.16446	18332.1375
2419.955	18278.3375
2422.74378	18250.8375
2425.5308	18208.1375
2428.31606	18168.7375
2431.09956	18225.9375
2433.88131	18223.5375
2436.6613	18236.4375
2439.43954	18254.3375
2442.21603	18252.6375
2444.99077	18191.6375
2447.76377	18199.1375
2450.53501	18200.4375
2453.30451	18169.9375
2456.07226	18179.5375
2458.83827	18164.5375
2461.60254	18203.1375
2464.36507	18160.4375
2467.12586	18168.1375
2469.88492	18188.5375
2472.64224	18197.3375
2475.39782	18230.8375
2478.15167	18252.6375
2480.90379	18240.1375
2483.65417	18252.6375
2486.40283	18290.1375
2489.14976	18298.2375
2491.89497	18348.1375
2494.63845	18387.3375
2497.3802	18376.0375
2500.12024	18394.7375
2502.85855	18353.5375
2505.59514	18356.5375
2508.33002	18307.8375
2511.06318	18321.7375
2513.79462	18286.0375
2516.52435	18243.7375
2519.25237	18281.1375
2521.97867	18254.9375
2524.70327	18256.2375
2527.42616	18246.9375
2530.14734	18219.7375
2532.86681	18263.3375
2535.58458	18233.7375
2538.30065	18245.4375
2541.01501	18214.2375
2543.72768	18188.7375
2546.43864	18208.3375
2549.14791	18163.8375
2551.85548	18195.3375
2554.56136	18157.5375
2557.26554	18111.2375
2559.96803	18108.2375
2562.66883	18082.0375
2565.36794	18057.1375
2568.06536	18076.8375
2570.7611	18076.4375
2573.45514	18041.8375
2576.14751	18071.5375
2578.83819	18025.8375
2581.52719	18066.7375
2584.21451	18034.8375
2586.90015	18093.7375
2589.58411	18076.9375
2592.2664	18101.4375
2594.94701	18096.4375
2597.62594	18088.5375
2600.30321	18090.9375
2602.9788	18076.2375
2605.65273	18066.1375
2608.32498	18142.6375
2610.99557	18081.4375
2613.66449	18126.5375
2616.33175	18106.6375
2618.99734	18120.0375
2621.66128	18142.2375
2624.32355	18169.5375
2626.98416	18161.1375
2629.64311	18162.0375
2632.30041	18205.3375
2634.95605	18154.3375
2637.61004	18156.9375
2640.26238	18118.9375
2642.91306	18124.8375
2645.56209	18056.0375
2648.20948	18090.5375
2650.85521	18095.2375
2653.4993	18104.5375
2656.14175	18087.4375
2658.78255	18091.3375
2661.42171	18142.1375
2664.05923	18178.1375
2666.6951	18138.6375
2669.32934	18206.2375
2671.96194	18214.3375
2674.59291	18207.1375
2677.22224	18191.4375
2679.84993	18215.9375
2682.476	18160.7375
2685.10043	18154.8375
2687.72324	18113.1375
2690.34441	18113.7375
2692.96396	18101.9375
2695.58188	18117.0375
2698.19818	18045.5375
2700.81285	18097.9375
2703.4259	18130.4375
2706.03733	18162.6375
2708.64714	18148.4375
2711.25533	18139.2375
2713.86191	18124.7375
2716.46687	18131.5375
2719.07021	18167.2375
2721.67194	18207.0375
2724.27206	18188.4375
2726.87057	18232.2375
2729.46747	18241.1375
2732.06276	18275.8375
2734.65644	18264.1375
2737.24852	18254.5375
2739.83899	18229.4375
2742.42786	18246.3375
2745.01513	18201.4375
2747.60079	18229.0375
2750.18486	18249.2375
2752.76733	18214.7375
2755.3482	18208.1375
2757.92747	18263.2375
2760.50515	18245.9375
2763.08123	18227.8375
2765.65573	18266.8375
2768.22863	18268.5375
2770.79994	18219.3375
2773.36967	18247.2375
2775.9378	18253.9375
2778.50435	18268.1375
2781.06932	18222.2375
2783.6327	18244.8375
2786.1945	18272.0375
2788.75471	18267.6375
2791.31335	18208.9375
2793.87041	18209.4375
2796.42589	18147.5375
2798.97979	18167.1375
2801.53212	18120.5375
2804.08288	18106.1375
2806.63206	18005.3375
2809.17967	18029.7375
2811.72571	17988.6375
2814.27018	17992.2375
2816.81308	17945.0375
2819.35442	17908.5375
2821.89419	17890.4375
2824.43239	17941.7375
2826.96904	17914.2375
2829.50412	17894.1375
2832.03763	17865.5375
2834.56959	17846.6375
2837.1	17821.0375
2839.62884	17838.4375
2842.15613	17821.9375
2844.68186	17861.4375
2847.20604	17873.0375
2849.72867	17874.8375
2852.24974	17891.0375
2854.76927	17897.6375
2857.28724	17883.6375
2859.80367	17836.0375
2862.31855	17850.1375
2864.83189	17781.6375
2867.34368	17773.9375
2869.85393	17800.8375
2872.36264	17757.2375
2874.8698	17716.3375
2877.37543	17730.7375
2879.87952	17724.8375
2882.38207	17742.0375
2884.88308	17751.6375
2887.38256	17721.1375
2889.88051	17745.0375
2892.37692	17751.6375
2894.8718	17787.7375
2897.36515	17819.1375
2899.85698	17815.2375
2902.34727	17837.8375
2904.83604	17849.3375
2907.32328	17909.2375
2909.809	17906.4375
2912.29319	17910.3375
2914.77587	17944.6375
2917.25702	17924.9375
2919.73665	17901.1375
2922.21476	17908.8375
2924.69136	17881.2375
2927.16644	17851.8375
2929.64	17799.7375
2932.11205	17763.8375
2934.58258	17727.1375
2937.05161	17718.8375
2939.51912	17773.7375
2941.98513	17700.0375
2944.44962	17709.4375
2946.91261	17616.8375
2949.37409	17629.3375
2951.83407	17590.6375
2954.29254	17556.4375
2956.74951	17564.2375
2959.20498	17551.1375
2961.65895	17505.8375
2964.11142	17542.0375
2966.56239	17475.0375
2969.01186	17462.7375
2971.45984	17440.6375
2973.90632	17420.1375
2976.35131	17351.6375
2978.7948	17339.6375
2981.23681	17321.1375
2983.67732	17271.5375
2986.11635	17210.9375
2988.55388	17169.5375
2990.98993	17129.1375
2993.4245	17076.3375
2995.85758	17023.8375
2998.28917	16966.7375
3000.71928	16929.4375
3003.14791	16935.7375
3005.57506	16886.2375
3008.00073	16829.0375
3010.42493	16695.1375
3012.84764	16767.3375
3015.26888	16781.0375
3017.68865	16695.5375
3020.10694	16657.3375
3022.52376	16631.5375
3024.9391	16636.8375
3027.35298	16621.6375
3029.76539	16575.1375
3032.17632	16527.5375
3034.5858	16555.3375
3036.9938	16533.7375
3039.40034	16556.7375
3041.80542	16555.3375
3044.20903	16528.5375
3046.61118	16523.4375
3049.01187	16471.8375
3051.4111	16455.5375
3053.80888	16430.7375
3056.20519	16388.4375
3058.60005	16330.8375
3060.99345	16303.3375
3063.3854	16263.8375
3065.7759	16191.2375
3068.16494	16109.4375
3070.55254	16032.0375
3072.93868	16050.6375
3075.32338	15976.9375
3077.70662	15908.2375
3080.08842	15901.9375
3082.46878	15858.9375
3084.84769	15812.7375
3087.22515	15836.7375
3089.60118	15803.7375
3091.97576	15789.1375
3094.3489	15776.1375
3096.72061	15744.6375
3099.09087	15734.3375
3101.4597	15747.0375
3103.82709	15769.0375
3106.19305	15714.9375
3108.55757	15702.4375
3110.92066	15663.6375
3113.28232	15635.9375
3115.64255	15581.9375
3118.00134	15545.2375
3120.35871	15548.1375
3122.71466	15502.3375
3125.06917	15445.3375
3127.42226	15402.0375
3129.77393	15378.2375
3132.12417	15331.6375
3134.47299	15336.5375
3136.82039	15314.9375
3139.16636	15335.5375
3141.51092	15296.1375
3143.85406	15289.2375
3146.19579	15284.8375
3148.53609	15309.3375
3150.87499	15312.8375
3153.21246	15269.9375
3155.54853	15310.0375
3157.88318	15281.9375
3160.21642	15283.2375
3162.54826	15301.2375
3164.87868	15309.6375
3167.2077	15284.2375
3169.5353	15336.4375
3171.86151	15280.2375
3174.18631	15291.1375
3176.5097	15292.2375
3178.83169	15267.2375
3181.15228	15261.1375
3183.47147	15218.2375
3185.78926	15225.7375
3188.10565	15180.9375
3190.42065	15166.2375
3192.73424	15153.5375
3195.04645	15144.8375
3197.35725	15139.7375
3199.66667	15128.3375
3201.97469	15118.2375
3204.28132	15144.9375
3206.58656	15147.1375
3208.8904	15100.8375
3211.19287	15132.2375
3213.49394	15152.1375
3215.79363	15144.2375
3218.09193	15131.4375
3220.38884	15138.5375
3222.68438	15137.8375
3224.97853	15096.2375
3227.2713	15109.3375
3229.56269	15079.4375
3231.8527	15072.9375
3234.14133	15029.9375
3236.42858	15024.8375
3238.71446	15004.0375
3240.99896	14961.6375
3243.28209	14956.3375
3245.56384	14932.6375
3247.84423	14919.9375
3250.12324	14882.1375
3252.40088	14844.5375
3254.67715	14853.3375
3256.95205	14855.1375
3259.22558	14859.1375
3261.49775	14817.9375
3263.76855	14801.4375
3266.03799	14779.0375
3268.30606	14713.1375
3270.57277	14702.3375
3272.83812	14650.6375
3275.10211	14624.5375
3277.36474	14630.4375
3279.62601	14640.7375
3281.88593	14618.6375
3284.14448	14609.7375
3286.40168	14625.2375
3288.65753	14622.3375
3290.91202	14613.4375
3293.16516	14565.4375
3295.41695	14523.3375
3297.66738	14479.3375
3299.91647	14378.0375
3302.16421	14284.7375
3304.4106	14209.1375
3306.65564	14103.2375
3308.89933	14007.3375
3311.14169	13909.7375
3313.38269	13796.0375
3315.62236	13694.9375
3317.86068	13604.9375
3320.09766	13477.8375
3322.3333	13389.2375
3324.5676	13338.4375
3326.80056	13119.9375
3329.03219	13039.6375
3331.26248	3.8375
3333.49143	-1.5625
3335.71905	0.0375
