Data from AgNPs_FTO_APTES_UA_5uM_CRN_200uM_R6G_10uM_NaF_0.1M_Addition_RamanShift__18__16-20-51-785.txt Node

Date: Mon Feb 07 16:20:51 GMT 2022
User: TCL
Spectrometer: QEP01345
Trigger mode: 4
Integration Time (sec): 7.000000E0
Scans to average: 10
Electric dark correction enabled: true
Nonlinearity correction enabled: false
Boxcar width: 0
XAxis mode: Raman Shifts
Number of Pixels in Spectrum: 1044
>>>>>Begin Spectral Data<<<<<
46.04893	-2.0625
50.45542	-0.6625
54.85868	-1.2625
59.25871	-0.2625
63.6555	64.9375
68.04907	70.9375
72.43941	74.8375
76.82654	77.2375
81.21044	76.1375
85.59113	76.8375
89.96862	83.7375
94.34289	87.7375
98.71396	87.2375
103.08183	93.9375
107.4465	94.9375
111.80798	98.5375
116.16626	98.6375
120.52136	109.0375
124.87327	113.6375
129.222	118.5375
133.56755	122.2375
137.90993	137.1375
142.24913	155.7375
146.58517	171.7375
150.91804	197.7375
155.24774	245.2375
159.57429	304.4375
163.89768	394.5375
168.21792	532.8375
172.53501	728.5375
176.84895	1017.1375
181.15975	1429.0375
185.46741	2004.1375
189.77193	2772.1375
194.07331	3707.1375
198.37157	4775.8375
202.6667	5892.2375
206.9587	6994.2375
211.24758	8106.2375
215.53334	9186.9375
219.81599	10355.6375
224.09553	11633.6375
228.37195	13038.0375
232.64527	14564.9375
236.91549	16202.4375
241.18261	17799.3375
245.44663	19310.1375
249.70755	20670.0375
253.96539	21933.5375
258.22014	22949.1375
262.4718	23773.6375
266.72039	24413.3375
270.96589	24821.5375
275.20832	25001.0375
279.44768	25012.2375
283.68397	24969.4375
287.91719	24904.1375
292.14735	25006.9375
296.37445	25169.1375
300.59849	25273.6375
304.81948	25254.7375
309.03742	25025.2375
313.25231	24529.9375
317.46415	23849.4375
321.67296	23046.8375
325.87872	22438.3375
330.08145	22039.3375
334.28114	21970.0375
338.47781	22094.7375
342.67145	22275.7375
346.86207	22540.0375
351.04966	22846.7375
355.23424	23193.0375
359.4158	23434.2375
363.59435	23624.5375
367.76989	23773.9375
371.94243	23898.4375
376.11196	24072.3375
380.27849	24124.3375
384.44203	24323.3375
388.60257	24581.5375
392.76012	24818.8375
396.91468	25130.1375
401.06626	25504.9375
405.21485	25690.6375
409.36047	25569.7375
413.50311	25231.2375
417.64277	24928.7375
421.77947	24869.6375
425.9132	25000.0375
430.04396	25130.3375
434.17176	25337.4375
438.2966	25642.7375
442.41849	26144.4375
446.53742	26846.1375
450.6534	27736.2375
454.76644	28375.6375
458.87653	28646.3375
462.98368	28660.7375
467.08789	28516.2375
471.18916	28389.3375
475.2875	28420.4375
479.38291	28549.2375
483.4754	28471.6375
487.56496	27909.0375
491.6516	27088.3375
495.73531	26383.0375
499.81612	25918.4375
503.89401	25846.5375
507.96899	25898.1375
512.04106	25752.0375
516.11023	25553.4375
520.1765	25270.0375
524.23987	25004.3375
528.30034	24845.4375
532.35792	24604.5375
536.41261	24401.1375
540.46441	24273.0375
544.51333	24363.3375
548.55936	24775.8375
552.60252	25468.9375
556.64279	26225.5375
560.6802	26790.2375
564.71473	27212.5375
568.7464	27762.8375
572.7752	28576.5375
576.80114	29131.4375
580.82422	29347.8375
584.84444	29524.2375
588.86181	29855.9375
592.87633	30215.4375
596.888	30327.2375
600.89682	30115.8375
604.9028	30246.4375
608.90594	31628.8375
612.90624	33060.4375
616.90371	30867.1375
620.89834	26475.2375
624.89015	24642.8375
628.87913	24523.8375
632.86528	24789.4375
636.84862	24871.7375
640.82913	24576.4375
644.80683	24060.7375
648.78172	23496.8375
652.75379	23301.6375
656.72306	23395.4375
660.68952	23624.0375
664.65319	23487.8375
668.61405	23198.9375
672.57211	23136.0375
676.52738	23197.6375
680.47986	23200.5375
684.42955	23178.9375
688.37646	23083.7375
692.32058	23085.1375
696.26192	23244.3375
700.20048	23497.3375
704.13626	23634.3375
708.06928	23649.4375
711.99952	23587.8375
715.927	23545.5375
719.85171	23558.5375
723.77365	23495.4375
727.69284	23262.6375
731.60928	23064.8375
735.52295	22986.2375
739.43388	22974.4375
743.34206	22953.2375
747.24749	23042.6375
751.15017	23305.0375
755.05012	23758.1375
758.94733	24473.8375
762.8418	25765.4375
766.73354	27597.3375
770.62254	29214.8375
774.50882	29421.7375
778.39237	27991.6375
782.27321	25910.6375
786.15132	24301.1375
790.02671	23320.8375
793.89938	22814.7375
797.76935	22608.3375
801.6366	22577.6375
805.50115	22520.3375
809.36299	22381.9375
813.22213	22288.2375
817.07857	22298.7375
820.93231	22306.8375
824.78336	22165.3375
828.63172	22055.3375
832.47738	21945.9375
836.32036	21931.5375
840.16066	21914.2375
843.99827	21917.6375
847.8332	21894.5375
851.66546	21840.8375
855.49504	21780.8375
859.32195	21786.0375
863.1462	21771.2375
866.96777	21687.0375
870.78668	21640.1375
874.60293	21659.3375
878.41652	21620.1375
882.22745	21670.4375
886.03573	21633.5375
889.84136	21681.7375
893.64433	21626.6375
897.44466	21536.7375
901.24235	21463.6375
905.0374	21338.6375
908.8298	21339.1375
912.61957	21417.7375
916.40671	21709.1375
920.19121	22034.9375
923.97308	22197.9375
927.75233	22076.4375
931.52895	21858.7375
935.30295	21595.4375
939.07433	21197.5375
942.84309	20864.7375
946.60924	20681.9375
950.37278	20568.0375
954.13371	20550.3375
957.89203	20554.3375
961.64774	20563.0375
965.40086	20499.2375
969.15137	20438.1375
972.89929	20239.0375
976.64461	20146.0375
980.38733	20080.5375
984.12747	20109.5375
987.86502	20219.8375
991.59999	20393.8375
995.33237	20658.3375
999.06217	21082.4375
1002.78939	21585.4375
1006.51404	21866.4375
1010.23611	22071.2375
1013.95561	22240.8375
1017.67255	22283.0375
1021.38692	22164.3375
1025.09872	21847.5375
1028.80796	21751.5375
1032.51465	21975.6375
1036.21877	22253.0375
1039.92035	22326.2375
1043.61937	22257.0375
1047.31584	22095.6375
1051.00976	21921.7375
1054.70114	21916.7375
1058.38998	22066.7375
1062.07627	22318.4375
1065.76003	22594.1375
1069.44126	22830.7375
1073.11995	23003.6375
1076.79611	23187.9375
1080.46974	23286.8375
1084.14085	23364.1375
1087.80943	23547.9375
1091.47549	23791.4375
1095.13903	23855.6375
1098.80005	23734.4375
1102.45857	23296.9375
1106.11456	22833.1375
1109.76805	22622.5375
1113.41903	22651.7375
1117.06751	22857.7375
1120.71348	23125.0375
1124.35696	23405.2375
1127.99793	23726.4375
1131.63641	23930.5375
1135.2724	23830.6375
1138.90589	23700.4375
1142.5369	23662.5375
1146.16542	23868.9375
1149.79145	24218.3375
1153.415	24647.4375
1157.03607	25216.1375
1160.65467	26001.2375
1164.27079	27142.8375
1167.88443	28594.7375
1171.49561	30450.5375
1175.10432	32677.5375
1178.71056	35437.9375
1182.31434	38010.6375
1185.91565	39399.5375
1189.51451	39551.6375
1193.11091	38809.9375
1196.70485	37618.5375
1200.29634	36083.7375
1203.88538	34823.5375
1207.47197	33924.2375
1211.05612	33287.6375
1214.63782	32608.8375
1218.21708	31824.7375
1221.79391	31051.0375
1225.36829	30448.8375
1228.94024	29807.2375
1232.50976	29158.1375
1236.07685	28621.7375
1239.6415	28379.7375
1243.20374	28411.3375
1246.76355	28660.6375
1250.32093	29021.0375
1253.8759	29598.8375
1257.42845	30351.9375
1260.97859	31102.3375
1264.52631	31918.6375
1268.07163	32691.9375
1271.61453	33572.5375
1275.15503	34592.1375
1278.69312	35718.7375
1282.22882	36835.6375
1285.76211	38133.3375
1289.29301	39818.7375
1292.82151	41981.0375
1296.34761	44644.6375
1299.87133	47531.6375
1303.39266	50319.1375
1306.9116	52794.1375
1310.42815	54958.1375
1313.94233	56321.5375
1317.45412	56717.9375
1320.96354	56558.2375
1324.47058	56313.0375
1327.97525	56008.4375
1331.47754	55675.9375
1334.97747	55381.6375
1338.47502	55111.1375
1341.97022	54707.8375
1345.46305	53852.0375
1348.95352	52531.0375
1352.44163	51160.6375
1355.92738	50475.6375
1359.41078	50918.6375
1362.89183	51534.3375
1366.37053	50437.5375
1369.84688	46893.6375
1373.32088	42813.9375
1376.79254	40176.3375
1380.26186	39409.1375
1383.72883	39878.2375
1387.19347	40578.1375
1390.65578	41061.2375
1394.11575	41543.2375
1397.57339	42296.6375
1401.0287	43198.0375
1404.48168	43610.5375
1407.93234	43341.5375
1411.38068	42025.2375
1414.82669	39897.7375
1418.27039	37481.6375
1421.71177	35291.7375
1425.15083	33512.8375
1428.58758	32559.4375
1432.02203	32609.1375
1435.45416	33406.9375
1438.88399	34610.4375
1442.31151	35774.4375
1445.73673	36677.6375
1449.15965	37602.5375
1452.58027	38461.7375
1455.9986	39163.4375
1459.41463	39730.6375
1462.82837	40213.7375
1466.23982	40549.4375
1469.64898	40811.6375
1473.05586	40736.3375
1476.46045	40388.8375
1479.86276	39719.8375
1483.26279	38976.8375
1486.66054	38243.1375
1490.05602	38038.6375
1493.44922	38048.3375
1496.84016	38234.2375
1500.22882	38793.7375
1503.61521	39843.9375
1506.99934	41144.3375
1510.38121	42400.4375
1513.76081	42874.6375
1517.13816	42327.2375
1520.51324	41345.5375
1523.88607	40430.9375
1527.25665	40195.1375
1530.62498	40193.7375
1533.99105	40309.9375
1537.35488	40117.8375
1540.71647	39518.8375
1544.07581	38473.3375
1547.4329	37331.1375
1550.78776	36357.1375
1554.14038	35728.5375
1557.49077	35387.5375
1560.83892	35274.9375
1564.18484	35266.2375
1567.52853	35374.6375
1570.86999	35708.9375
1574.20922	36468.1375
1577.54624	37334.1375
1580.88103	37942.1375
1584.2136	38538.7375
1587.54395	39635.6375
1590.87208	41187.1375
1594.19801	43042.6375
1597.52172	44853.4375
1600.84321	45113.5375
1604.16251	43070.5375
1607.47959	39815.8375
1610.79447	36318.1375
1614.10715	33143.0375
1617.41763	30338.7375
1620.7259	28415.6375
1624.03199	27339.8375
1627.33587	27282.8375
1630.63757	28058.7375
1633.93707	29912.0375
1637.23439	33050.2375
1640.52951	37442.6375
1643.82246	42406.8375
1647.11321	46214.9375
1650.40179	46928.2375
1653.68819	43950.4375
1656.97241	38391.8375
1660.25446	32633.2375
1663.53433	28071.3375
1666.81203	24947.7375
1670.08756	22967.1375
1673.36092	21713.6375
1676.63211	20903.5375
1679.90115	20320.8375
1683.16801	19872.5375
1686.43272	19554.5375
1689.69527	19301.8375
1692.95567	19146.2375
1696.2139	18972.7375
1699.46999	18831.5375
1702.72392	18736.1375
1705.97571	18671.7375
1709.22535	18596.7375
1712.47284	18517.1375
1715.71819	18469.9375
1718.96139	18437.9375
1722.20246	18315.3375
1725.44139	18212.7375
1728.67818	18109.3375
1731.91284	18018.0375
1735.14537	17930.2375
1738.37576	17851.0375
1741.60403	17767.5375
1744.83017	17701.2375
1748.05418	17652.9375
1751.27607	17622.1375
1754.49584	17622.7375
1757.71349	17594.3375
1760.92903	17571.9375
1764.14244	17550.3375
1767.35375	17476.9375
1770.56294	17425.5375
1773.77002	17386.9375
1776.97499	17299.0375
1780.17785	17304.9375
1783.37861	17283.9375
1786.57727	17224.2375
1789.77382	17176.6375
1792.96828	17123.6375
1796.16064	17116.1375
1799.3509	17066.6375
1802.53907	16984.6375
1805.72514	16959.1375
1808.90913	16950.2375
1812.09102	16859.3375
1815.27083	16828.6375
1818.44856	16759.1375
1821.6242	16750.8375
1824.79776	16710.5375
1827.96924	16693.5375
1831.13864	16708.0375
1834.30597	16657.2375
1837.47122	16619.9375
1840.6344	16614.2375
1843.7955	16591.2375
1846.95454	16588.9375
1850.11151	16579.3375
1853.26642	16537.8375
1856.41926	16557.8375
1859.57004	16542.7375
1862.71876	16515.2375
1865.86542	16468.7375
1869.01003	16461.1375
1872.15258	16473.4375
1875.29308	16473.9375
1878.43152	16459.5375
1881.56792	16394.0375
1884.70227	16436.6375
1887.83457	16386.3375
1890.96482	16347.7375
1894.09304	16325.6375
1897.21921	16336.8375
1900.34335	16283.6375
1903.46544	16282.4375
1906.58551	16211.2375
1909.70353	16230.2375
1912.81953	16195.9375
1915.93349	16179.5375
1919.04543	16164.8375
1922.15534	16116.3375
1925.26322	16080.2375
1928.36908	16051.2375
1931.47292	16033.6375
1934.57473	16022.5375
1937.67453	15987.9375
1940.77232	15900.0375
1943.86808	15833.5375
1946.96184	15772.5375
1950.05358	15762.5375
1953.14331	15693.5375
1956.23103	15635.1375
1959.31675	15563.0375
1962.40046	15551.5375
1965.48217	15479.9375
1968.56188	15423.1375
1971.63959	15364.5375
1974.7153	15333.2375
1977.78901	15295.7375
1980.86073	15265.6375
1983.93046	15227.6375
1986.99819	15158.5375
1990.06394	15105.4375
1993.1277	15059.2375
1996.18947	15003.6375
1999.24925	14976.6375
2002.30706	14925.2375
2005.36288	14884.5375
2008.41672	14852.9375
2011.46859	14772.7375
2014.51848	14742.9375
2017.56639	14696.0375
2020.61233	14654.5375
2023.6563	14607.6375
2026.6983	14562.7375
2029.73833	14531.8375
2032.7764	14486.7375
2035.8125	14503.1375
2038.84664	14453.3375
2041.87881	14433.5375
2044.90903	14409.2375
2047.93729	14405.4375
2050.96359	14353.7375
2053.98794	14362.7375
2057.01034	14319.9375
2060.03078	14317.5375
2063.04927	14332.0375
2066.06582	14320.9375
2069.08042	14307.9375
2072.09307	14271.8375
2075.10378	14270.7375
2078.11255	14248.5375
2081.11938	14245.6375
2084.12426	14230.4375
2087.12722	14208.6375
2090.12824	14231.8375
2093.12732	14208.1375
2096.12447	14214.6375
2099.11969	14167.5375
2102.11299	14178.6375
2105.10435	14199.4375
2108.09379	14206.1375
2111.08131	14202.7375
2114.0669	14212.0375
2117.05057	14224.3375
2120.03233	14234.4375
2123.01216	14236.2375
2125.99008	14252.2375
2128.96609	14239.9375
2131.94018	14244.8375
2134.91236	14224.5375
2137.88263	14265.9375
2140.851	14261.4375
2143.81746	14274.3375
2146.78201	14244.3375
2149.74466	14258.1375
2152.7054	14258.9375
2155.66425	14255.4375
2158.6212	14214.1375
2161.57625	14199.7375
2164.52941	14193.3375
2167.48067	14182.9375
2170.43004	14176.1375
2173.37752	14194.9375
2176.32311	14203.7375
2179.26681	14225.7375
2182.20863	14192.6375
2185.14856	14197.7375
2188.08661	14191.1375
2191.02278	14184.9375
2193.95707	14170.4375
2196.88948	14155.7375
2199.82001	14104.3375
2202.74867	14101.2375
2205.67545	14071.3375
2208.60037	14087.8375
2211.52341	14053.8375
2214.44458	14044.4375
2217.36388	13994.2375
2220.28132	13983.9375
2223.1969	13905.3375
2226.11061	13956.1375
2229.02246	13914.7375
2231.93245	13892.0375
2234.84058	13833.1375
2237.74686	13796.4375
2240.65128	13776.2375
2243.55385	13764.7375
2246.45456	13769.1375
2249.35343	13755.6375
2252.25044	13723.1375
2255.14561	13674.4375
2258.03893	13633.7375
2260.93041	13614.5375
2263.82004	13584.2375
2266.70783	13549.7375
2269.59378	13493.7375
2272.4779	13462.4375
2275.36017	13438.8375
2278.24061	13400.8375
2281.11922	13391.5375
2283.996	13369.3375
2286.87094	13339.7375
2289.74405	13296.2375
2292.61534	13297.6375
2295.4848	13282.4375
2298.35243	13298.3375
2301.21824	13322.7375
2304.08223	13294.4375
2306.94439	13340.8375
2309.80474	13307.7375
2312.66327	13270.6375
2315.51999	13283.4375
2318.37489	13257.2375
2321.22797	13249.3375
2324.07925	13224.2375
2326.92871	13212.5375
2329.77637	13184.7375
2332.62222	13158.6375
2335.46626	13175.1375
2338.3085	13168.8375
2341.14893	13169.4375
2343.98756	13163.9375
2346.8244	13141.9375
2349.65943	13158.7375
2352.49267	13145.1375
2355.32411	13170.6375
2358.15376	13123.0375
2360.98161	13141.7375
2363.80768	13122.6375
2366.63195	13121.9375
2369.45444	13118.4375
2372.27514	13066.3375
2375.09405	13040.2375
2377.91118	13025.5375
2380.72652	12976.2375
2383.54009	12975.2375
2386.35187	12925.8375
2389.16188	12909.6375
2391.97011	12862.4375
2394.77657	12825.5375
2397.58125	12810.0375
2400.38416	12819.0375
2403.18529	12770.4375
2405.98466	12788.2375
2408.78226	12745.2375
2411.57809	12745.3375
2414.37216	12758.3375
2417.16446	12756.1375
2419.955	12756.0375
2422.74378	12712.1375
2425.5308	12675.7375
2428.31606	12662.4375
2431.09956	12656.9375
2433.88131	12655.4375
2436.6613	12690.7375
2439.43954	12678.1375
2442.21603	12659.4375
2444.99077	12600.4375
2447.76377	12625.4375
2450.53501	12625.2375
2453.30451	12593.6375
2456.07226	12584.3375
2458.83827	12595.2375
2461.60254	12578.7375
2464.36507	12594.4375
2467.12586	12581.5375
2469.88492	12582.2375
2472.64224	12588.6375
2475.39782	12572.1375
2478.15167	12572.1375
2480.90379	12582.5375
2483.65417	12587.4375
2486.40283	12604.5375
2489.14976	12594.7375
2491.89497	12603.4375
2494.63845	12644.1375
2497.3802	12571.8375
2500.12024	12634.2375
2502.85855	12611.6375
2505.59514	12572.7375
2508.33002	12553.4375
2511.06318	12559.6375
2513.79462	12562.9375
2516.52435	12530.2375
2519.25237	12558.1375
2521.97867	12496.7375
2524.70327	12496.8375
2527.42616	12491.7375
2530.14734	12501.1375
2532.86681	12514.5375
2535.58458	12512.9375
2538.30065	12503.0375
2541.01501	12477.2375
2543.72768	12451.9375
2546.43864	12439.3375
2549.14791	12428.6375
2551.85548	12397.1375
2554.56136	12373.9375
2557.26554	12351.9375
2559.96803	12355.2375
2562.66883	12348.2375
2565.36794	12321.2375
2568.06536	12339.0375
2570.7611	12313.3375
2573.45514	12334.9375
2576.14751	12291.8375
2578.83819	12274.9375
2581.52719	12290.3375
2584.21451	12278.6375
2586.90015	12289.5375
2589.58411	12275.5375
2592.2664	12281.8375
2594.94701	12269.1375
2597.62594	12239.0375
2600.30321	12228.3375
2602.9788	12214.9375
2605.65273	12225.7375
2608.32498	12233.9375
2610.99557	12236.4375
2613.66449	12252.3375
2616.33175	12228.6375
2618.99734	12216.8375
2621.66128	12220.4375
2624.32355	12239.0375
2626.98416	12204.5375
2629.64311	12202.5375
2632.30041	12191.8375
2634.95605	12175.5375
2637.61004	12176.7375
2640.26238	12175.7375
2642.91306	12160.5375
2645.56209	12134.9375
2648.20948	12164.1375
2650.85521	12172.0375
2653.4993	12166.7375
2656.14175	12148.4375
2658.78255	12211.6375
2661.42171	12184.7375
2664.05923	12158.3375
2666.6951	12185.6375
2669.32934	12190.6375
2671.96194	12193.0375
2674.59291	12197.8375
2677.22224	12191.1375
2679.84993	12195.0375
2682.476	12169.1375
2685.10043	12181.5375
2687.72324	12142.2375
2690.34441	12156.1375
2692.96396	12153.5375
2695.58188	12145.0375
2698.19818	12138.9375
2700.81285	12174.2375
2703.4259	12160.8375
2706.03733	12165.6375
2708.64714	12171.8375
2711.25533	12191.1375
2713.86191	12169.7375
2716.46687	12207.1375
2719.07021	12205.7375
2721.67194	12230.2375
2724.27206	12217.8375
2726.87057	12222.1375
2729.46747	12253.3375
2732.06276	12240.1375
2734.65644	12247.1375
2737.24852	12253.2375
2739.83899	12206.9375
2742.42786	12237.5375
2745.01513	12196.8375
2747.60079	12202.2375
2750.18486	12183.1375
2752.76733	12204.8375
2755.3482	12169.2375
2757.92747	12152.9375
2760.50515	12196.4375
2763.08123	12187.0375
2765.65573	12167.3375
2768.22863	12157.1375
2770.79994	12172.7375
2773.36967	12175.6375
2775.9378	12169.9375
2778.50435	12152.9375
2781.06932	12182.5375
2783.6327	12186.2375
2786.1945	12160.8375
2788.75471	12154.8375
2791.31335	12172.7375
2793.87041	12163.8375
2796.42589	12150.2375
2798.97979	12139.5375
2801.53212	12119.2375
2804.08288	12075.2375
2806.63206	12030.8375
2809.17967	12020.3375
2811.72571	11986.6375
2814.27018	11989.2375
2816.81308	11971.7375
2819.35442	11964.9375
2821.89419	11913.3375
2824.43239	11884.9375
2826.96904	11903.8375
2829.50412	11904.6375
2832.03763	11848.5375
2834.56959	11858.7375
2837.1	11853.5375
2839.62884	11879.4375
2842.15613	11881.0375
2844.68186	11936.0375
2847.20604	11932.0375
2849.72867	11960.8375
2852.24974	11946.1375
2854.76927	11924.2375
2857.28724	11916.9375
2859.80367	11895.7375
2862.31855	11888.0375
2864.83189	11827.7375
2867.34368	11842.9375
2869.85393	11841.0375
2872.36264	11846.5375
2874.8698	11864.4375
2877.37543	11819.9375
2879.87952	11832.5375
2882.38207	11834.9375
2884.88308	11818.7375
2887.38256	11826.9375
2889.88051	11837.7375
2892.37692	11836.4375
2894.8718	11851.3375
2897.36515	11862.3375
2899.85698	11880.7375
2902.34727	11903.8375
2904.83604	11893.2375
2907.32328	11941.1375
2909.809	11924.0375
2912.29319	11935.4375
2914.77587	11914.7375
2917.25702	11913.5375
2919.73665	11908.4375
2922.21476	11929.1375
2924.69136	11914.0375
2927.16644	11925.8375
2929.64	11919.8375
2932.11205	11916.4375
2934.58258	11863.0375
2937.05161	11865.0375
2939.51912	11846.3375
2941.98513	11841.4375
2944.44962	11803.8375
2946.91261	11768.0375
2949.37409	11773.2375
2951.83407	11748.2375
2954.29254	11717.0375
2956.74951	11702.6375
2959.20498	11717.7375
2961.65895	11690.9375
2964.11142	11670.2375
2966.56239	11658.9375
2969.01186	11667.5375
2971.45984	11633.6375
2973.90632	11615.7375
2976.35131	11560.4375
2978.7948	11561.1375
2981.23681	11555.2375
2983.67732	11496.7375
2986.11635	11471.7375
2988.55388	11457.4375
2990.98993	11429.9375
2993.4245	11387.4375
2995.85758	11345.5375
2998.28917	11314.9375
3000.71928	11325.7375
3003.14791	11282.2375
3005.57506	11262.5375
3008.00073	11231.3375
3010.42493	11204.8375
3012.84764	11181.1375
3015.26888	11189.7375
3017.68865	11149.0375
3020.10694	11130.3375
3022.52376	11101.6375
3024.9391	11086.8375
3027.35298	11088.9375
3029.76539	11076.9375
3032.17632	11093.3375
3034.5858	11069.5375
3036.9938	11048.2375
3039.40034	11047.5375
3041.80542	11050.8375
3044.20903	11012.0375
3046.61118	11043.8375
3049.01187	10980.4375
3051.4111	10977.4375
3053.80888	10968.3375
3056.20519	10965.0375
3058.60005	10913.1375
3060.99345	10869.5375
3063.3854	10862.6375
3065.7759	10823.8375
3068.16494	10774.8375
3070.55254	10730.2375
3072.93868	10705.4375
3075.32338	10683.8375
3077.70662	10669.1375
3080.08842	10633.4375
3082.46878	10614.6375
3084.84769	10586.7375
3087.22515	10619.7375
3089.60118	10612.8375
3091.97576	10598.1375
3094.3489	10608.6375
3096.72061	10593.3375
3099.09087	10598.2375
3101.4597	10578.5375
3103.82709	10595.9375
3106.19305	10558.5375
3108.55757	10566.8375
3110.92066	10502.4375
3113.28232	10498.4375
3115.64255	10467.9375
3118.00134	10427.8375
3120.35871	10437.8375
3122.71466	10403.9375
3125.06917	10383.2375
3127.42226	10365.2375
3129.77393	10354.4375
3132.12417	10343.7375
3134.47299	10335.6375
3136.82039	10332.1375
3139.16636	10330.1375
3141.51092	10321.2375
3143.85406	10322.9375
3146.19579	10316.0375
3148.53609	10312.5375
3150.87499	10327.4375
3153.21246	10324.8375
3155.54853	10340.5375
3157.88318	10341.9375
3160.21642	10361.9375
3162.54826	10355.1375
3164.87868	10331.8375
3167.2077	10361.4375
3169.5353	10381.8375
3171.86151	10369.0375
3174.18631	10376.0375
3176.5097	10350.1375
3178.83169	10325.1375
3181.15228	10329.8375
3183.47147	10319.9375
3185.78926	10287.8375
3188.10565	10284.3375
3190.42065	10283.9375
3192.73424	10266.8375
3195.04645	10260.1375
3197.35725	10274.8375
3199.66667	10254.1375
3201.97469	10277.8375
3204.28132	10253.5375
3206.58656	10280.6375
3208.8904	10250.5375
3211.19287	10251.1375
3213.49394	10254.3375
3215.79363	10282.3375
3218.09193	10295.9375
3220.38884	10293.9375
3222.68438	10291.0375
3224.97853	10260.1375
3227.2713	10280.7375
3229.56269	10243.3375
3231.8527	10266.2375
3234.14133	10221.5375
3236.42858	10189.6375
3238.71446	10164.9375
3240.99896	10161.6375
3243.28209	10145.9375
3245.56384	10172.4375
3247.84423	10148.0375
3250.12324	10113.7375
3252.40088	10109.0375
3254.67715	10103.6375
3256.95205	10076.7375
3259.22558	10071.2375
3261.49775	10050.8375
3263.76855	10055.7375
3266.03799	9987.8375
3268.30606	10003.5375
3270.57277	9982.0375
3272.83812	9961.6375
3275.10211	9963.9375
3277.36474	9923.2375
3279.62601	9947.8375
3281.88593	9946.4375
3284.14448	9943.5375
3286.40168	9932.3375
3288.65753	9929.2375
3290.91202	9934.2375
3293.16516	9888.0375
3295.41695	9876.6375
3297.66738	9804.0375
3299.91647	9761.7375
3302.16421	9691.6375
3304.4106	9648.6375
3306.65564	9586.6375
3308.89933	9520.8375
3311.14169	9469.9375
3313.38269	9374.6375
3315.62236	9323.5375
3317.86068	9232.0375
3320.09766	9171.8375
3322.3333	9086.3375
3324.5676	9072.2375
3326.80056	8913.6375
3329.03219	8844.0375
3331.26248	3.3375
3333.49143	0.8375
3335.71905	-1.0625
