Data from AgNPs_FTO_APTES_UA_5uM_CRN_1000uM_R6G_10uM_NaF_0.1M_Addition_RamanShift__1__17-25-01-861.txt Node

Date: Mon Feb 07 17:25:01 GMT 2022
User: TCL
Spectrometer: QEP01345
Trigger mode: 4
Integration Time (sec): 7.000000E0
Scans to average: 10
Electric dark correction enabled: true
Nonlinearity correction enabled: false
Boxcar width: 0
XAxis mode: Raman Shifts
Number of Pixels in Spectrum: 1044
>>>>>Begin Spectral Data<<<<<
46.04893	-1.5
50.45542	-1
54.85868	0.2
59.25871	-1.4
63.6555	57.3
68.04907	61.6
72.43941	61.8
76.82654	66.6
81.21044	67.7
85.59113	65.2
89.96862	72.3
94.34289	78
98.71396	74
103.08183	74.7
107.4465	81.7
111.80798	86.1
116.16626	85.9
120.52136	88.5
124.87327	95.3
129.222	100.3
133.56755	104.4
137.90993	115.5
142.24913	126.7
146.58517	147.9
150.91804	171.4
155.24774	209.1
159.57429	258.8
163.89768	329.4
168.21792	444.7
172.53501	610.8
176.84895	851.5
181.15975	1194.3
185.46741	1686
189.77193	2323.4
194.07331	3108.8
198.37157	4011.5
202.6667	4959.4
206.9587	5893
211.24758	6831
215.53334	7759.8
219.81599	8750.6
224.09553	9844.2
228.37195	11032.1
232.64527	12326.9
236.91549	13694.7
241.18261	15030
245.44663	16323.8
249.70755	17397.1
253.96539	18407.9
258.22014	19200.9
262.4718	19864
266.72039	20355
270.96589	20658.3
275.20832	20690.5
279.44768	20602.3
283.68397	20443
287.91719	20295.6
292.14735	20199.6
296.37445	20231.7
300.59849	20332.4
304.81948	20436.2
309.03742	20439.8
313.25231	20282.5
317.46415	19906.1
321.67296	19426
325.87872	19003.4
330.08145	18759.2
334.28114	18679.8
338.47781	18730.7
342.67145	18912.8
346.86207	19174.8
351.04966	19523.1
355.23424	19869.1
359.4158	20134.3
363.59435	20321.6
367.76989	20482.7
371.94243	20555
376.11196	20638
380.27849	20685.8
384.44203	20791.5
388.60257	20967.3
392.76012	21199.6
396.91468	21470.8
401.06626	21796.4
405.21485	21968.6
409.36047	21823
413.50311	21467.8
417.64277	21279.5
421.77947	21246.6
425.9132	21333.4
430.04396	21490.8
434.17176	21659.8
438.2966	21899.2
442.41849	22323
446.53742	22994.1
450.6534	23736.8
454.76644	24223
458.87653	24317.9
462.98368	24161.6
467.08789	23935.3
471.18916	23692.4
475.2875	23521.4
479.38291	23475.7
483.4754	23422.1
487.56496	23145.2
491.6516	22642.3
495.73531	22064
499.81612	21681.1
503.89401	21630.2
507.96899	21610.9
512.04106	21554.4
516.11023	21405.5
520.1765	21221.4
524.23987	21036.1
528.30034	20874.4
532.35792	20748
536.41261	20534
540.46441	20295.8
544.51333	20284
548.55936	20557.7
552.60252	21024.7
556.64279	21692.1
560.6802	22263.2
564.71473	22606.1
568.7464	23128
572.7752	23908.9
576.80114	24521.2
580.82422	24922.4
584.84444	25487.7
588.86181	26473.2
592.87633	27421.1
596.888	27432.9
600.89682	26391.6
604.9028	25883
608.90594	26945.5
612.90624	28461.2
616.90371	26759.1
620.89834	22614
624.89015	20681.2
628.87913	20500.9
632.86528	20708.6
636.84862	20785.9
640.82913	20448.8
644.80683	19994.1
648.78172	19665.8
652.75379	19647.6
656.72306	19831.8
660.68952	20045.4
664.65319	19880
668.61405	19538.7
672.57211	19438.1
676.52738	19517.7
680.47986	19606.7
684.42955	19534.7
688.37646	19400.1
692.32058	19431.6
696.26192	19599.3
700.20048	19838.1
704.13626	20004.8
708.06928	20104
711.99952	20078.7
715.927	20044.4
719.85171	20073.1
723.77365	19966.7
727.69284	19758.4
731.60928	19575.5
735.52295	19520.9
739.43388	19491.3
743.34206	19536.1
747.24749	19641.9
751.15017	19857.2
755.05012	20179
758.94733	20756.8
762.8418	21790.4
766.73354	23375.9
770.62254	24830.2
774.50882	25135.8
778.39237	24006.7
782.27321	22246.1
786.15132	20786.5
790.02671	19882.2
793.89938	19474.1
797.76935	19294
801.6366	19210.5
805.50115	19150.7
809.36299	19085.5
813.22213	18945.5
817.07857	18920.8
820.93231	18874.8
824.78336	18779.6
828.63172	18654.9
832.47738	18605.1
836.32036	18552.3
840.16066	18572.8
843.99827	18562.3
847.8332	18502.8
851.66546	18534
855.49504	18508.5
859.32195	18501.2
863.1462	18458.5
866.96777	18416.7
870.78668	18330
874.60293	18341.6
878.41652	18406.3
882.22745	18477.4
886.03573	18541.3
889.84136	18478.6
893.64433	18441.8
897.44466	18401.1
901.24235	18319.9
905.0374	18244.1
908.8298	18183.2
912.61957	18221
916.40671	18404.2
920.19121	18706.6
923.97308	18900.2
927.75233	18894.5
931.52895	18667.5
935.30295	18348.6
939.07433	17988
942.84309	17680.1
946.60924	17536.8
950.37278	17485.7
954.13371	17443.1
957.89203	17457
961.64774	17454.8
965.40086	17451
969.15137	17388
972.89929	17221.6
976.64461	17136.6
980.38733	17074.2
984.12747	17086.4
987.86502	17121.6
991.59999	17249.8
995.33237	17394.9
999.06217	17622.8
1002.78939	17967.6
1006.51404	18258.1
1010.23611	18588.8
1013.95561	18776.4
1017.67255	18848.8
1021.38692	18709.5
1025.09872	18314.7
1028.80796	18070
1032.51465	17996.8
1036.21877	18037.7
1039.92035	18145.1
1043.61937	18244.3
1047.31584	18256.6
1051.00976	18282.7
1054.70114	18342.3
1058.38998	18434.9
1062.07627	18611.6
1065.76003	18829.9
1069.44126	19002.9
1073.11995	19268.4
1076.79611	19450.6
1080.46974	19554.8
1084.14085	19675.5
1087.80943	19875.3
1091.47549	20085.1
1095.13903	20157.2
1098.80005	19953.2
1102.45857	19510.3
1106.11456	19097.8
1109.76805	18936.3
1113.41903	18970.6
1117.06751	19148.7
1120.71348	19475.9
1124.35696	19741.8
1127.99793	20140.8
1131.63641	20346.9
1135.2724	20168.5
1138.90589	19987.6
1142.5369	20001.1
1146.16542	20223.6
1149.79145	20477.9
1153.415	20759.8
1157.03607	21169.5
1160.65467	21854.5
1164.27079	22883.9
1167.88443	24126.1
1171.49561	25606.9
1175.10432	27373.5
1178.71056	29581.8
1182.31434	31525.5
1185.91565	32304.6
1189.51451	31959.8
1193.11091	30987.2
1196.70485	29885.9
1200.29634	28803.6
1203.88538	28138.6
1207.47197	27702.8
1211.05612	27259.3
1214.63782	26713.9
1218.21708	25961.5
1221.79391	25340.1
1225.36829	24941.6
1228.94024	24574.2
1232.50976	24153.9
1236.07685	23679.9
1239.6415	23418.4
1243.20374	23357
1246.76355	23490.9
1250.32093	23814.1
1253.8759	24217.5
1257.42845	24777.8
1260.97859	25483.5
1264.52631	26145.9
1268.07163	26843.6
1271.61453	27509.7
1275.15503	28264.8
1278.69312	29130.8
1282.22882	30184.9
1285.76211	31569.1
1289.29301	33258.5
1292.82151	35203.6
1296.34761	37456.3
1299.87133	39883.8
1303.39266	42191.1
1306.9116	44142.8
1310.42815	45763.1
1313.94233	46685
1317.45412	46544.9
1320.96354	45732.6
1324.47058	44829.4
1327.97525	43958.6
1331.47754	43299.6
1334.97747	42701.6
1338.47502	42129.4
1341.97022	41480.4
1345.46305	40731.6
1348.95352	40196.2
1352.44163	40292.8
1355.92738	41255.4
1359.41078	43135.1
1362.89183	44805.2
1366.37053	44266.7
1369.84688	40714.2
1373.32088	36186.3
1376.79254	33126.1
1380.26186	32214.8
1383.72883	32405.8
1387.19347	32639.2
1390.65578	32599.2
1394.11575	32728
1397.57339	33232.9
1401.0287	33855.8
1404.48168	34236.7
1407.93234	33876.6
1411.38068	32902.4
1414.82669	31398.1
1418.27039	29721.8
1421.71177	28221
1425.15083	26972.1
1428.58758	26335.9
1432.02203	26551.2
1435.45416	27323.7
1438.88399	28221.1
1442.31151	28905.8
1445.73673	29388
1449.15965	29780.4
1452.58027	30063.4
1455.9986	30133.3
1459.41463	30246.8
1462.82837	30604.6
1466.23982	31050
1469.64898	31486.3
1473.05586	31683.5
1476.46045	31633.5
1479.86276	31412.8
1483.26279	31061.2
1486.66054	30821.1
1490.05602	30900.9
1493.44922	31175.8
1496.84016	31576.5
1500.22882	32206.7
1503.61521	33112.5
1506.99934	34303.9
1510.38121	35334.7
1513.76081	35676.1
1517.13816	34955.4
1520.51324	33891.1
1523.88607	33120.6
1527.25665	32931.8
1530.62498	32998.9
1533.99105	32874.2
1537.35488	32449.3
1540.71647	31617
1544.07581	30556
1547.4329	29488.5
1550.78776	28576.5
1554.14038	27905.5
1557.49077	27487.8
1560.83892	27359.9
1564.18484	27421.1
1567.52853	27627.7
1570.86999	28113.2
1574.20922	28885.3
1577.54624	29559.6
1580.88103	29890.5
1584.2136	30200.4
1587.54395	31003
1590.87208	32406.1
1594.19801	34195.8
1597.52172	35709.8
1600.84321	36058.3
1604.16251	34271.1
1607.47959	31279.8
1610.79447	28194.9
1614.10715	25510.5
1617.41763	23513.5
1620.7259	22222.7
1624.03199	21667.8
1627.33587	21745.8
1630.63757	22562.2
1633.93707	24187.6
1637.23439	26936.5
1640.52951	30885.9
1643.82246	35705.2
1647.11321	39511.1
1650.40179	40263.9
1653.68819	37072.6
1656.97241	31633.4
1660.25446	26373.7
1663.53433	22511.4
1666.81203	20015.5
1670.08756	18477.6
1673.36092	17557
1676.63211	16952.1
1679.90115	16566.1
1683.16801	16235.7
1686.43272	15955.7
1689.69527	15810.1
1692.95567	15659
1696.2139	15527.5
1699.46999	15438.2
1702.72392	15354.3
1705.97571	15273.9
1709.22535	15251.1
1712.47284	15195.6
1715.71819	15200.6
1718.96139	15136.2
1722.20246	15060.5
1725.44139	14990.2
1728.67818	14908.6
1731.91284	14812.1
1735.14537	14718.7
1738.37576	14628.9
1741.60403	14570.1
1744.83017	14514.2
1748.05418	14485.2
1751.27607	14459.3
1754.49584	14424.7
1757.71349	14382.8
1760.92903	14374.2
1764.14244	14367.8
1767.35375	14345.5
1770.56294	14312.1
1773.77002	14241.3
1776.97499	14242.8
1780.17785	14199.7
1783.37861	14135.3
1786.57727	14144.9
1789.77382	14097.7
1792.96828	14051.2
1796.16064	13996.6
1799.3509	13963.4
1802.53907	13947
1805.72514	13896.1
1808.90913	13890.4
1812.09102	13822.9
1815.27083	13792.4
1818.44856	13756.3
1821.6242	13713.8
1824.79776	13700.4
1827.96924	13673
1831.13864	13651.7
1834.30597	13639.3
1837.47122	13614.8
1840.6344	13595.4
1843.7955	13596.8
1846.95454	13606.4
1850.11151	13563.9
1853.26642	13556.4
1856.41926	13501
1859.57004	13517.7
1862.71876	13502.2
1865.86542	13455
1869.01003	13466.2
1872.15258	13450.2
1875.29308	13419
1878.43152	13395.6
1881.56792	13392.6
1884.70227	13359.2
1887.83457	13373.7
1890.96482	13318.9
1894.09304	13317.6
1897.21921	13294.6
1900.34335	13274.2
1903.46544	13277.5
1906.58551	13231.8
1909.70353	13215.3
1912.81953	13187.8
1915.93349	13146.3
1919.04543	13112.5
1922.15534	13105.8
1925.26322	13078.3
1928.36908	13045.4
1931.47292	13025.6
1934.57473	12984.6
1937.67453	12957.7
1940.77232	12909.3
1943.86808	12865.1
1946.96184	12838.6
1950.05358	12788.6
1953.14331	12719
1956.23103	12677.6
1959.31675	12644.9
1962.40046	12608.9
1965.48217	12627.8
1968.56188	12530.4
1971.63959	12463.8
1974.7153	12415.8
1977.78901	12407.5
1980.86073	12360.1
1983.93046	12296
1986.99819	12291.9
1990.06394	12270.8
1993.1277	12183.2
1996.18947	12139.4
1999.24925	12126.2
2002.30706	12087.9
2005.36288	12024
2008.41672	12003.7
2011.46859	11961.8
2014.51848	11946.2
2017.56639	11913
2020.61233	11884.8
2023.6563	11811.1
2026.6983	11779.2
2029.73833	11753.3
2032.7764	11726.3
2035.8125	11703.2
2038.84664	11683.4
2041.87881	11666.8
2044.90903	11633.2
2047.93729	11597.6
2050.96359	11613
2053.98794	11579.1
2057.01034	11573.4
2060.03078	11537.9
2063.04927	11539.1
2066.06582	11506.5
2069.08042	11546
2072.09307	11535.9
2075.10378	11484.3
2078.11255	11490
2081.11938	11484.9
2084.12426	11471.3
2087.12722	11458.3
2090.12824	11468.1
2093.12732	11450.4
2096.12447	11472
2099.11969	11451.9
2102.11299	11437.6
2105.10435	11396.8
2108.09379	11418.5
2111.08131	11410.5
2114.0669	11410.4
2117.05057	11448.6
2120.03233	11435.3
2123.01216	11451.6
2125.99008	11459
2128.96609	11454.5
2131.94018	11421.4
2134.91236	11467.9
2137.88263	11454.9
2140.851	11459.3
2143.81746	11462
2146.78201	11438.6
2149.74466	11449.8
2152.7054	11413.4
2155.66425	11401.5
2158.6212	11372.8
2161.57625	11383.1
2164.52941	11371.6
2167.48067	11363.4
2170.43004	11352
2173.37752	11350
2176.32311	11349.6
2179.26681	11368.3
2182.20863	11319.3
2185.14856	11356.9
2188.08661	11348.4
2191.02278	11318.4
2193.95707	11328.3
2196.88948	11283.4
2199.82001	11262.6
2202.74867	11251.7
2205.67545	11238.8
2208.60037	11217.4
2211.52341	11184.7
2214.44458	11188.4
2217.36388	11125.8
2220.28132	11133.5
2223.1969	11084.5
2226.11061	11070.8
2229.02246	11063
2231.93245	11030.8
2234.84058	10996.5
2237.74686	10991
2240.65128	10981.5
2243.55385	10949.1
2246.45456	10965.6
2249.35343	10930.3
2252.25044	10895.8
2255.14561	10863.8
2258.03893	10849.2
2260.93041	10802.8
2263.82004	10796.2
2266.70783	10766.1
2269.59378	10724.6
2272.4779	10702.5
2275.36017	10668.6
2278.24061	10634.4
2281.11922	10609.7
2283.996	10589.4
2286.87094	10566.8
2289.74405	10526
2292.61534	10521
2295.4848	10517.7
2298.35243	10531.8
2301.21824	10523.7
2304.08223	10519.8
2306.94439	10526.7
2309.80474	10491.3
2312.66327	10502
2315.51999	10469.3
2318.37489	10477.1
2321.22797	10447.8
2324.07925	10404.6
2326.92871	10413.6
2329.77637	10390.3
2332.62222	10376.1
2335.46626	10378.3
2338.3085	10372.1
2341.14893	10349.6
2343.98756	10351.7
2346.8244	10340.5
2349.65943	10301.2
2352.49267	10310
2355.32411	10299.6
2358.15376	10284
2360.98161	10307.2
2363.80768	10326.5
2366.63195	10274.8
2369.45444	10300.9
2372.27514	10264.7
2375.09405	10251.7
2377.91118	10230.8
2380.72652	10191.6
2383.54009	10182.2
2386.35187	10165
2389.16188	10133.7
2391.97011	10093.9
2394.77657	10080.6
2397.58125	10061.6
2400.38416	10045.9
2403.18529	10018.6
2405.98466	10016
2408.78226	10007.5
2411.57809	9984.3
2414.37216	9969.3
2417.16446	9980.5
2419.955	9936.6
2422.74378	9948.9
2425.5308	9927.7
2428.31606	9902.3
2431.09956	9915
2433.88131	9865.5
2436.6613	9892.3
2439.43954	9903.2
2442.21603	9886.7
2444.99077	9862
2447.76377	9857.7
2450.53501	9879.2
2453.30451	9872.7
2456.07226	9867.4
2458.83827	9828.6
2461.60254	9815.8
2464.36507	9817.5
2467.12586	9797.2
2469.88492	9829.2
2472.64224	9835.6
2475.39782	9795.2
2478.15167	9819.3
2480.90379	9805.4
2483.65417	9815.2
2486.40283	9808.5
2489.14976	9833.2
2491.89497	9830.5
2494.63845	9832.1
2497.3802	9793.5
2500.12024	9793.5
2502.85855	9769.9
2505.59514	9772.9
2508.33002	9769
2511.06318	9748.2
2513.79462	9722.6
2516.52435	9730
2519.25237	9713.6
2521.97867	9697.1
2524.70327	9682
2527.42616	9645.3
2530.14734	9646.3
2532.86681	9661.8
2535.58458	9651.5
2538.30065	9638.5
2541.01501	9640.6
2543.72768	9624.9
2546.43864	9619.5
2549.14791	9584.4
2551.85548	9585.6
2554.56136	9564.4
2557.26554	9574.2
2559.96803	9540.6
2562.66883	9558.5
2565.36794	9526.2
2568.06536	9528.5
2570.7611	9512.9
2573.45514	9483.4
2576.14751	9480.8
2578.83819	9491.3
2581.52719	9459.6
2584.21451	9480.7
2586.90015	9457.6
2589.58411	9440.8
2592.2664	9432
2594.94701	9405.2
2597.62594	9402.5
2600.30321	9391.9
2602.9788	9407.6
2605.65273	9390.3
2608.32498	9389.3
2610.99557	9396.8
2613.66449	9378
2616.33175	9390.8
2618.99734	9382.2
2621.66128	9341
2624.32355	9342.3
2626.98416	9306.1
2629.64311	9297.6
2632.30041	9306.1
2634.95605	9294.3
2637.61004	9309.2
2640.26238	9300
2642.91306	9267.7
2645.56209	9253.4
2648.20948	9273.8
2650.85521	9272.8
2653.4993	9282.3
2656.14175	9282.7
2658.78255	9286.4
2661.42171	9285.6
2664.05923	9291.6
2666.6951	9285.1
2669.32934	9324.1
2671.96194	9312.7
2674.59291	9305.2
2677.22224	9287.4
2679.84993	9311.4
2682.476	9265.8
2685.10043	9254.8
2687.72324	9256.3
2690.34441	9238.2
2692.96396	9255.2
2695.58188	9254
2698.19818	9251.5
2700.81285	9272.8
2703.4259	9277.8
2706.03733	9285.7
2708.64714	9276
2711.25533	9254.5
2713.86191	9294.4
2716.46687	9286.1
2719.07021	9266.5
2721.67194	9304.9
2724.27206	9289.2
2726.87057	9317.9
2729.46747	9328.7
2732.06276	9307.1
2734.65644	9299.1
2737.24852	9288.3
2739.83899	9254
2742.42786	9286.2
2745.01513	9273.6
2747.60079	9259.6
2750.18486	9249.1
2752.76733	9234.9
2755.3482	9227.9
2757.92747	9232.1
2760.50515	9232.9
2763.08123	9211.4
2765.65573	9172.7
2768.22863	9187.5
2770.79994	9188.9
2773.36967	9175.4
2775.9378	9165
2778.50435	9178.3
2781.06932	9172.6
2783.6327	9167.8
2786.1945	9161.8
2788.75471	9176.6
2791.31335	9153.7
2793.87041	9149.4
2796.42589	9121.8
2798.97979	9125.7
2801.53212	9080.6
2804.08288	9105
2806.63206	9053.6
2809.17967	9055.5
2811.72571	9033.7
2814.27018	9011.5
2816.81308	8993
2819.35442	8976.4
2821.89419	8951.5
2824.43239	8963.6
2826.96904	8961.9
2829.50412	8960.8
2832.03763	8921.5
2834.56959	8923.2
2837.1	8929.6
2839.62884	8964.1
2842.15613	8973.5
2844.68186	9013
2847.20604	9054.1
2849.72867	9084.5
2852.24974	9070.7
2854.76927	9068.6
2857.28724	9059.9
2859.80367	9032.8
2862.31855	8994.2
2864.83189	8970.8
2867.34368	8983.9
2869.85393	8963.9
2872.36264	8955.7
2874.8698	8968.8
2877.37543	8957.3
2879.87952	8927.4
2882.38207	8932.5
2884.88308	8932.4
2887.38256	8926.9
2889.88051	8930.6
2892.37692	8928.5
2894.8718	8932.7
2897.36515	8951.5
2899.85698	8936.7
2902.34727	8949.9
2904.83604	8974.2
2907.32328	8988.4
2909.809	8979.8
2912.29319	8961.6
2914.77587	8978.5
2917.25702	8966.9
2919.73665	8940.2
2922.21476	8954.1
2924.69136	8947.2
2927.16644	8953.2
2929.64	8926.7
2932.11205	8918.5
2934.58258	8888.7
2937.05161	8896.5
2939.51912	8885.6
2941.98513	8847.8
2944.44962	8829
2946.91261	8778
2949.37409	8793.7
2951.83407	8746.8
2954.29254	8740.1
2956.74951	8719.9
2959.20498	8717.1
2961.65895	8708.8
2964.11142	8700.2
2966.56239	8658.4
2969.01186	8660.9
2971.45984	8624.8
2973.90632	8638.4
2976.35131	8591.9
2978.7948	8574.7
2981.23681	8554
2983.67732	8494.9
2986.11635	8496.4
2988.55388	8486.9
2990.98993	8436.9
2993.4245	8422
2995.85758	8398.7
2998.28917	8382.3
3000.71928	8372.6
3003.14791	8347.7
3005.57506	8332
3008.00073	8309.9
3010.42493	8280.7
3012.84764	8270.3
3015.26888	8253.9
3017.68865	8238.2
3020.10694	8197
3022.52376	8184
3024.9391	8180.9
3027.35298	8169
3029.76539	8162.4
3032.17632	8124.9
3034.5858	8135.2
3036.9938	8125.3
3039.40034	8122.8
3041.80542	8111.5
3044.20903	8119.2
3046.61118	8099.8
3049.01187	8063.6
3051.4111	8066.8
3053.80888	8047.4
3056.20519	8023.8
3058.60005	7998.7
3060.99345	7983.2
3063.3854	7986
3065.7759	7933.4
3068.16494	7911.1
3070.55254	7896.5
3072.93868	7852.8
3075.32338	7840.2
3077.70662	7837.2
3080.08842	7780.8
3082.46878	7768.9
3084.84769	7763.5
3087.22515	7759.9
3089.60118	7776.8
3091.97576	7754.8
3094.3489	7766.4
3096.72061	7749.7
3099.09087	7759.1
3101.4597	7738.6
3103.82709	7727.8
3106.19305	7721.2
3108.55757	7721.3
3110.92066	7695.8
3113.28232	7683.6
3115.64255	7647
3118.00134	7629.3
3120.35871	7624.7
3122.71466	7617.5
3125.06917	7593.1
3127.42226	7552.2
3129.77393	7569.9
3132.12417	7555.8
3134.47299	7561.1
3136.82039	7542.1
3139.16636	7549.8
3141.51092	7534
3143.85406	7534.2
3146.19579	7528.5
3148.53609	7524.8
3150.87499	7531.1
3153.21246	7530.6
3155.54853	7527.7
3157.88318	7525.6
3160.21642	7553.5
3162.54826	7526.9
3164.87868	7539.6
3167.2077	7535
3169.5353	7532.3
3171.86151	7533.1
3174.18631	7525.2
3176.5097	7533.2
3178.83169	7502.5
3181.15228	7518.7
3183.47147	7485.8
3185.78926	7483.5
3188.10565	7473.3
3190.42065	7470.2
3192.73424	7459.2
3195.04645	7444.3
3197.35725	7426
3199.66667	7421
3201.97469	7420.7
3204.28132	7425.2
3206.58656	7422.1
3208.8904	7416.8
3211.19287	7420.3
3213.49394	7422.3
3215.79363	7450.1
3218.09193	7427.2
3220.38884	7426.2
3222.68438	7428.7
3224.97853	7411.1
3227.2713	7409.9
3229.56269	7408.7
3231.8527	7410.6
3234.14133	7392.9
3236.42858	7370
3238.71446	7361.7
3240.99896	7336.8
3243.28209	7340.6
3245.56384	7331.6
3247.84423	7306
3250.12324	7286.8
3252.40088	7277.4
3254.67715	7269.4
3256.95205	7252.4
3259.22558	7244.4
3261.49775	7218.1
3263.76855	7214.7
3266.03799	7216.5
3268.30606	7199.5
3270.57277	7179.7
3272.83812	7172.9
3275.10211	7172.1
3277.36474	7151.4
3279.62601	7147.2
3281.88593	7140.6
3284.14448	7154
3286.40168	7135
3288.65753	7134.7
3290.91202	7129.6
3293.16516	7112.8
3295.41695	7085.2
3297.66738	7045.7
3299.91647	6992.3
3302.16421	6935.8
3304.4106	6892.6
3306.65564	6844.7
3308.89933	6820.4
3311.14169	6779.7
3313.38269	6713.2
3315.62236	6658.3
3317.86068	6591.5
3320.09766	6554.2
3322.3333	6517.1
3324.5676	6467.9
3326.80056	6360.3
3329.03219	6313.5
3331.26248	3.8
3333.49143	0.4
3335.71905	-0.7
