Data from AgNPs_FTO_APTES_UA_5uM_CRN_50uM_R6G_10uM_NaF_0.1M_Addition_RamanShift__23__14-09-26-832.txt Node

Date: Mon Feb 07 14:09:26 GMT 2022
User: TCL
Spectrometer: QEP01345
Trigger mode: 4
Integration Time (sec): 7.000000E0
Scans to average: 10
Electric dark correction enabled: true
Nonlinearity correction enabled: false
Boxcar width: 0
XAxis mode: Raman Shifts
Number of Pixels in Spectrum: 1044
>>>>>Begin Spectral Data<<<<<
46.04893	-1.6625
50.45542	-1.5625
54.85868	-0.7625
59.25871	0.7375
63.6555	73.1375
68.04907	78.1375
72.43941	82.1375
76.82654	87.7375
81.21044	88.8375
85.59113	91.8375
89.96862	101.3375
94.34289	95.7375
98.71396	100.8375
103.08183	105.4375
107.4465	107.5375
111.80798	107.8375
116.16626	115.0375
120.52136	119.7375
124.87327	125.3375
129.222	134.5375
133.56755	142.5375
137.90993	161.8375
142.24913	172.3375
146.58517	198.8375
150.91804	234.2375
155.24774	276.4375
159.57429	348.8375
163.89768	458.1375
168.21792	604.8375
172.53501	837.4375
176.84895	1162.7375
181.15975	1642.1375
185.46741	2306.9375
189.77193	3157.9375
194.07331	4217.9375
198.37157	5444.5375
202.6667	6703.9375
206.9587	7983.8375
211.24758	9222.0375
215.53334	10471.3375
219.81599	11794.2375
224.09553	13265.3375
228.37195	14904.1375
232.64527	16685.0375
236.91549	18547.5375
241.18261	20392.6375
245.44663	22200.1375
249.70755	23771.3375
253.96539	25132.8375
258.22014	26342.3375
262.4718	27358.4375
266.72039	28140.9375
270.96589	28654.0375
275.20832	28849.0375
279.44768	28909.2375
283.68397	28788.8375
287.91719	28724.8375
292.14735	28769.3375
296.37445	28914.9375
300.59849	29041.0375
304.81948	29042.0375
309.03742	28824.8375
313.25231	28240.0375
317.46415	27376.1375
321.67296	26394.2375
325.87872	25611.1375
330.08145	25255.6375
334.28114	25190.9375
338.47781	25324.2375
342.67145	25645.3375
346.86207	26038.2375
351.04966	26577.8375
355.23424	27124.6375
359.4158	27595.2375
363.59435	27918.4375
367.76989	28066.8375
371.94243	28200.4375
376.11196	28338.1375
380.27849	28469.9375
384.44203	28643.3375
388.60257	28832.6375
392.76012	29126.9375
396.91468	29526.9375
401.06626	30020.3375
405.21485	30358.8375
409.36047	30192.2375
413.50311	29745.8375
417.64277	29355.2375
421.77947	29244.4375
425.9132	29364.8375
430.04396	29609.9375
434.17176	29886.8375
438.2966	30196.2375
442.41849	30791.6375
446.53742	31703.1375
450.6534	32740.6375
454.76644	33546.6375
458.87653	33899.5375
462.98368	33861.8375
467.08789	33514.6375
471.18916	33183.6375
475.2875	33009.9375
479.38291	33063.1375
483.4754	32952.3375
487.56496	32452.4375
491.6516	31674.7375
495.73531	30982.9375
499.81612	30468.1375
503.89401	30472.9375
507.96899	30476.1375
512.04106	30327.6375
516.11023	30049.9375
520.1765	29726.1375
524.23987	29359.3375
528.30034	29049.9375
532.35792	28806.6375
536.41261	28508.5375
540.46441	28279.4375
544.51333	28375.1375
548.55936	28841.4375
552.60252	29592.6375
556.64279	30411.1375
560.6802	31007.3375
564.71473	31413.6375
568.7464	32013.4375
572.7752	32868.4375
576.80114	33415.7375
580.82422	33769.2375
584.84444	34126.0375
588.86181	34515.7375
592.87633	35100.7375
596.888	35556.6375
600.89682	35653.6375
604.9028	36299.5375
608.90594	38558.9375
612.90624	41052.1375
616.90371	38380.6375
620.89834	32312.2375
624.89015	29699.0375
628.87913	29551.2375
632.86528	29831.4375
636.84862	29861.1375
640.82913	29315.0375
644.80683	28444.5375
648.78172	27740.1375
652.75379	27417.4375
656.72306	27592.1375
660.68952	27997.1375
664.65319	27977.1375
668.61405	27530.2375
672.57211	27343.8375
676.52738	27393.2375
680.47986	27367.1375
684.42955	27243.2375
688.37646	27213.6375
692.32058	27294.6375
696.26192	27566.5375
700.20048	27809.2375
704.13626	28060.7375
708.06928	28061.9375
711.99952	27845.8375
715.927	27742.9375
719.85171	27775.2375
723.77365	27723.1375
727.69284	27497.5375
731.60928	27283.6375
735.52295	27171.3375
739.43388	27201.3375
743.34206	27306.2375
747.24749	27423.4375
751.15017	27686.4375
755.05012	28239.0375
758.94733	29188.8375
762.8418	30785.1375
766.73354	33219.5375
770.62254	35393.4375
774.50882	35707.8375
778.39237	33824.7375
782.27321	31106.5375
786.15132	28971.3375
790.02671	27726.0375
793.89938	27156.6375
797.76935	26921.7375
801.6366	26903.7375
805.50115	26841.2375
809.36299	26754.7375
813.22213	26628.8375
817.07857	26591.0375
820.93231	26525.9375
824.78336	26472.0375
828.63172	26312.9375
832.47738	26215.4375
836.32036	26197.1375
840.16066	26254.2375
843.99827	26333.4375
847.8332	26262.1375
851.66546	26143.3375
855.49504	26072.0375
859.32195	26052.3375
863.1462	25980.2375
866.96777	25846.1375
870.78668	25769.2375
874.60293	25753.7375
878.41652	25741.1375
882.22745	25852.0375
886.03573	25883.7375
889.84136	25890.6375
893.64433	25766.6375
897.44466	25662.6375
901.24235	25570.8375
905.0374	25531.5375
908.8298	25505.4375
912.61957	25604.9375
916.40671	25909.3375
920.19121	26330.6375
923.97308	26590.2375
927.75233	26553.5375
931.52895	26312.7375
935.30295	25982.2375
939.07433	25487.1375
942.84309	25101.7375
946.60924	24949.6375
950.37278	24813.8375
954.13371	24737.1375
957.89203	24677.1375
961.64774	24665.5375
965.40086	24622.7375
969.15137	24495.1375
972.89929	24322.9375
976.64461	24204.5375
980.38733	24169.4375
984.12747	24238.9375
987.86502	24450.0375
991.59999	24720.4375
995.33237	25153.7375
999.06217	25883.3375
1002.78939	26656.0375
1006.51404	27188.4375
1010.23611	27460.9375
1013.95561	27695.0375
1017.67255	27752.9375
1021.38692	27496.6375
1025.09872	27175.9375
1028.80796	27262.4375
1032.51465	27818.6375
1036.21877	28441.1375
1039.92035	28542.7375
1043.61937	28245.9375
1047.31584	27652.1375
1051.00976	27124.2375
1054.70114	26856.3375
1058.38998	26973.8375
1062.07627	27242.5375
1065.76003	27551.9375
1069.44126	27770.0375
1073.11995	28000.7375
1076.79611	28171.1375
1080.46974	28273.0375
1084.14085	28426.6375
1087.80943	28788.7375
1091.47549	29101.8375
1095.13903	29133.4375
1098.80005	28870.1375
1102.45857	28320.7375
1106.11456	27827.5375
1109.76805	27664.8375
1113.41903	27775.1375
1117.06751	28034.2375
1120.71348	28393.9375
1124.35696	28713.2375
1127.99793	29075.3375
1131.63641	29231.4375
1135.2724	29083.8375
1138.90589	28820.4375
1142.5369	28784.1375
1146.16542	28890.0375
1149.79145	29118.4375
1153.415	29581.7375
1157.03607	30210.4375
1160.65467	31118.0375
1164.27079	32592.8375
1167.88443	34427.1375
1171.49561	36759.3375
1175.10432	39663.5375
1178.71056	43252.6375
1182.31434	46500.3375
1185.91565	48288.8375
1189.51451	48341.5375
1193.11091	47266.7375
1196.70485	45460.5375
1200.29634	43484.5375
1203.88538	41950.1375
1207.47197	40910.0375
1211.05612	40017.4375
1214.63782	39211.4375
1218.21708	38347.1375
1221.79391	37622.7375
1225.36829	37113.6375
1228.94024	36579.4375
1232.50976	35848.6375
1236.07685	35305.4375
1239.6415	35097.5375
1243.20374	35087.7375
1246.76355	35370.7375
1250.32093	35925.3375
1253.8759	36752.8375
1257.42845	37782.3375
1260.97859	38789.9375
1264.52631	39658.0375
1268.07163	40648.2375
1271.61453	41791.0375
1275.15503	43152.2375
1278.69312	44680.0375
1282.22882	45969.6375
1285.76211	47385.9375
1289.29301	49001.3375
1292.82151	51343.2375
1296.34761	54242.4375
1299.87133	57640.2375
1303.39266	61259.1375
1306.9116	65039.8375
1310.42815	68447.4375
1313.94233	70683.0375
1317.45412	71145.7375
1320.96354	70537.8375
1324.47058	69808.2375
1327.97525	68986.0375
1331.47754	68362.9375
1334.97747	68165.5375
1338.47502	68222.2375
1341.97022	68096.9375
1345.46305	67096.6375
1348.95352	65321.6375
1352.44163	63421.0375
1355.92738	62801.3375
1359.41078	63827.5375
1362.89183	65284.5375
1366.37053	64004.5375
1369.84688	59187.5375
1373.32088	53549.4375
1376.79254	49698.4375
1380.26186	48363.3375
1383.72883	48652.5375
1387.19347	49169.3375
1390.65578	49530.7375
1394.11575	50027.1375
1397.57339	51218.9375
1401.0287	52872.2375
1404.48168	54178.7375
1407.93234	54603.1375
1411.38068	53784.0375
1414.82669	51730.6375
1418.27039	48854.4375
1421.71177	45914.2375
1425.15083	43436.3375
1428.58758	42045.9375
1432.02203	41803.7375
1435.45416	42645.3375
1438.88399	43974.5375
1442.31151	45334.0375
1445.73673	46541.2375
1449.15965	47762.2375
1452.58027	48770.3375
1455.9986	49457.7375
1459.41463	50081.0375
1462.82837	50906.7375
1466.23982	51750.9375
1469.64898	52401.5375
1473.05586	52547.7375
1476.46045	52322.3375
1479.86276	51591.7375
1483.26279	50709.5375
1486.66054	50045.8375
1490.05602	49646.2375
1493.44922	49511.0375
1496.84016	49472.2375
1500.22882	49836.4375
1503.61521	50663.6375
1506.99934	52024.2375
1510.38121	53533.3375
1513.76081	54291.2375
1517.13816	53691.1375
1520.51324	52119.1375
1523.88607	50599.3375
1527.25665	49840.8375
1530.62498	49634.0375
1533.99105	49614.2375
1537.35488	49594.0375
1540.71647	49144.5375
1544.07581	48236.4375
1547.4329	47100.7375
1550.78776	46099.8375
1554.14038	45344.6375
1557.49077	44969.4375
1560.83892	44865.2375
1564.18484	44820.9375
1567.52853	44829.9375
1570.86999	44975.2375
1574.20922	45579.6375
1577.54624	46368.6375
1580.88103	46923.6375
1584.2136	47524.8375
1587.54395	49106.6375
1590.87208	51577.5375
1594.19801	54647.2375
1597.52172	57507.3375
1600.84321	58291.9375
1604.16251	55799.4375
1607.47959	51417.5375
1610.79447	46604.1375
1614.10715	42319.3375
1617.41763	38692.2375
1620.7259	36257.0375
1624.03199	34832.1375
1627.33587	34689.6375
1630.63757	35648.2375
1633.93707	38084.3375
1637.23439	41935.5375
1640.52951	47202.0375
1643.82246	52959.2375
1647.11321	57520.8375
1650.40179	58351.5375
1653.68819	54562.4375
1656.97241	47720.6375
1660.25446	40573.9375
1663.53433	34928.5375
1666.81203	31191.8375
1670.08756	28808.4375
1673.36092	27254.6375
1676.63211	26261.9375
1679.90115	25562.1375
1683.16801	25065.0375
1686.43272	24655.6375
1689.69527	24377.6375
1692.95567	24170.8375
1696.2139	23960.5375
1699.46999	23906.9375
1702.72392	23775.8375
1705.97571	23661.4375
1709.22535	23574.9375
1712.47284	23530.9375
1715.71819	23472.3375
1718.96139	23381.2375
1722.20246	23306.2375
1725.44139	23199.2375
1728.67818	23091.6375
1731.91284	22956.2375
1735.14537	22795.7375
1738.37576	22657.2375
1741.60403	22592.3375
1744.83017	22535.4375
1748.05418	22508.2375
1751.27607	22412.5375
1754.49584	22404.1375
1757.71349	22414.5375
1760.92903	22387.4375
1764.14244	22360.4375
1767.35375	22347.3375
1770.56294	22269.7375
1773.77002	22229.6375
1776.97499	22196.7375
1780.17785	22126.2375
1783.37861	22110.7375
1786.57727	22026.4375
1789.77382	21984.8375
1792.96828	21983.7375
1796.16064	21945.8375
1799.3509	21898.3375
1802.53907	21842.5375
1805.72514	21806.2375
1808.90913	21754.2375
1812.09102	21691.5375
1815.27083	21624.5375
1818.44856	21627.5375
1821.6242	21605.4375
1824.79776	21560.8375
1827.96924	21572.5375
1831.13864	21517.1375
1834.30597	21506.3375
1837.47122	21516.5375
1840.6344	21490.2375
1843.7955	21492.5375
1846.95454	21467.8375
1850.11151	21538.5375
1853.26642	21451.6375
1856.41926	21495.7375
1859.57004	21535.6375
1862.71876	21488.3375
1865.86542	21440.5375
1869.01003	21437.6375
1872.15258	21420.4375
1875.29308	21426.1375
1878.43152	21384.6375
1881.56792	21424.3375
1884.70227	21420.7375
1887.83457	21397.3375
1890.96482	21394.2375
1894.09304	21363.6375
1897.21921	21386.6375
1900.34335	21390.8375
1903.46544	21347.3375
1906.58551	21351.7375
1909.70353	21326.6375
1912.81953	21306.5375
1915.93349	21268.6375
1919.04543	21204.9375
1922.15534	21182.4375
1925.26322	21134.0375
1928.36908	21061.5375
1931.47292	21019.1375
1934.57473	20961.2375
1937.67453	20892.5375
1940.77232	20785.7375
1943.86808	20754.4375
1946.96184	20680.5375
1950.05358	20667.7375
1953.14331	20586.9375
1956.23103	20466.0375
1959.31675	20416.0375
1962.40046	20345.6375
1965.48217	20282.8375
1968.56188	20257.6375
1971.63959	20155.9375
1974.7153	20066.8375
1977.78901	20063.6375
1980.86073	19961.6375
1983.93046	19928.8375
1986.99819	19882.8375
1990.06394	19775.8375
1993.1277	19734.5375
1996.18947	19712.9375
1999.24925	19654.3375
2002.30706	19591.7375
2005.36288	19569.1375
2008.41672	19520.6375
2011.46859	19429.9375
2014.51848	19345.8375
2017.56639	19295.9375
2020.61233	19233.6375
2023.6563	19204.6375
2026.6983	19195.8375
2029.73833	19134.5375
2032.7764	19107.2375
2035.8125	19069.5375
2038.84664	19030.8375
2041.87881	19045.0375
2044.90903	18998.1375
2047.93729	18971.6375
2050.96359	18945.8375
2053.98794	18920.9375
2057.01034	18902.3375
2060.03078	18914.5375
2063.04927	18864.3375
2066.06582	18863.0375
2069.08042	18852.5375
2072.09307	18809.9375
2075.10378	18798.3375
2078.11255	18764.1375
2081.11938	18788.4375
2084.12426	18756.4375
2087.12722	18748.2375
2090.12824	18731.3375
2093.12732	18705.4375
2096.12447	18714.0375
2099.11969	18700.1375
2102.11299	18712.5375
2105.10435	18732.0375
2108.09379	18741.7375
2111.08131	18693.0375
2114.0669	18770.4375
2117.05057	18785.6375
2120.03233	18778.9375
2123.01216	18780.2375
2125.99008	18794.0375
2128.96609	18813.5375
2131.94018	18818.4375
2134.91236	18841.8375
2137.88263	18834.8375
2140.851	18850.8375
2143.81746	18890.8375
2146.78201	18856.7375
2149.74466	18861.6375
2152.7054	18825.1375
2155.66425	18810.8375
2158.6212	18811.9375
2161.57625	18836.2375
2164.52941	18812.0375
2167.48067	18783.8375
2170.43004	18794.2375
2173.37752	18796.1375
2176.32311	18788.5375
2179.26681	18796.2375
2182.20863	18756.3375
2185.14856	18797.4375
2188.08661	18795.5375
2191.02278	18824.8375
2193.95707	18818.3375
2196.88948	18811.3375
2199.82001	18779.8375
2202.74867	18758.8375
2205.67545	18788.3375
2208.60037	18739.6375
2211.52341	18694.6375
2214.44458	18721.4375
2217.36388	18709.2375
2220.28132	18626.1375
2223.1969	18590.6375
2226.11061	18586.4375
2229.02246	18546.9375
2231.93245	18499.7375
2234.84058	18449.7375
2237.74686	18408.9375
2240.65128	18381.4375
2243.55385	18388.4375
2246.45456	18324.9375
2249.35343	18319.6375
2252.25044	18294.1375
2255.14561	18239.5375
2258.03893	18238.3375
2260.93041	18197.6375
2263.82004	18171.7375
2266.70783	18140.7375
2269.59378	18063.5375
2272.4779	17995.2375
2275.36017	17963.4375
2278.24061	17923.1375
2281.11922	17891.6375
2283.996	17859.3375
2286.87094	17859.2375
2289.74405	17816.5375
2292.61534	17805.7375
2295.4848	17801.4375
2298.35243	17798.8375
2301.21824	17804.3375
2304.08223	17820.4375
2306.94439	17834.5375
2309.80474	17867.2375
2312.66327	17832.5375
2315.51999	17843.1375
2318.37489	17850.9375
2321.22797	17818.5375
2324.07925	17764.3375
2326.92871	17737.7375
2329.77637	17718.6375
2332.62222	17726.1375
2335.46626	17704.5375
2338.3085	17731.9375
2341.14893	17701.0375
2343.98756	17712.2375
2346.8244	17724.4375
2349.65943	17736.6375
2352.49267	17738.5375
2355.32411	17754.8375
2358.15376	17726.9375
2360.98161	17691.4375
2363.80768	17701.0375
2366.63195	17716.5375
2369.45444	17648.1375
2372.27514	17638.6375
2375.09405	17603.0375
2377.91118	17528.9375
2380.72652	17488.0375
2383.54009	17476.5375
2386.35187	17459.6375
2389.16188	17408.3375
2391.97011	17369.0375
2394.77657	17352.3375
2397.58125	17318.3375
2400.38416	17287.3375
2403.18529	17275.5375
2405.98466	17263.5375
2408.78226	17215.6375
2411.57809	17194.0375
2414.37216	17153.6375
2417.16446	17172.7375
2419.955	17156.2375
2422.74378	17086.3375
2425.5308	17051.3375
2428.31606	17108.9375
2431.09956	17078.1375
2433.88131	17046.4375
2436.6613	17083.4375
2439.43954	17097.2375
2442.21603	17042.8375
2444.99077	17028.8375
2447.76377	17060.1375
2450.53501	17034.2375
2453.30451	17038.4375
2456.07226	17003.5375
2458.83827	17003.9375
2461.60254	17011.9375
2464.36507	17022.3375
2467.12586	16983.8375
2469.88492	17019.8375
2472.64224	17031.6375
2475.39782	17060.0375
2478.15167	17060.6375
2480.90379	17061.3375
2483.65417	17054.3375
2486.40283	17058.2375
2489.14976	17109.8375
2491.89497	17122.2375
2494.63845	17159.4375
2497.3802	17149.3375
2500.12024	17130.4375
2502.85855	17117.6375
2505.59514	17095.2375
2508.33002	17100.8375
2511.06318	17100.0375
2513.79462	17080.0375
2516.52435	17064.5375
2519.25237	17047.3375
2521.97867	17035.8375
2524.70327	17043.7375
2527.42616	17033.0375
2530.14734	17024.5375
2532.86681	17035.2375
2535.58458	17011.2375
2538.30065	16995.6375
2541.01501	16987.7375
2543.72768	16981.4375
2546.43864	17007.6375
2549.14791	16955.4375
2551.85548	16983.4375
2554.56136	16931.7375
2557.26554	16898.1375
2559.96803	16881.4375
2562.66883	16831.7375
2565.36794	16835.1375
2568.06536	16828.3375
2570.7611	16813.0375
2573.45514	16834.1375
2576.14751	16801.4375
2578.83819	16774.5375
2581.52719	16785.2375
2584.21451	16789.6375
2586.90015	16826.4375
2589.58411	16815.2375
2592.2664	16836.7375
2594.94701	16793.0375
2597.62594	16790.2375
2600.30321	16752.5375
2602.9788	16778.3375
2605.65273	16791.9375
2608.32498	16810.4375
2610.99557	16797.8375
2613.66449	16813.7375
2616.33175	16805.9375
2618.99734	16815.6375
2621.66128	16816.0375
2624.32355	16828.6375
2626.98416	16817.0375
2629.64311	16811.2375
2632.30041	16813.1375
2634.95605	16824.8375
2637.61004	16819.7375
2640.26238	16824.9375
2642.91306	16810.0375
2645.56209	16766.7375
2648.20948	16818.0375
2650.85521	16784.1375
2653.4993	16806.5375
2656.14175	16785.2375
2658.78255	16806.9375
2661.42171	16794.4375
2664.05923	16840.6375
2666.6951	16852.0375
2669.32934	16829.3375
2671.96194	16857.6375
2674.59291	16875.1375
2677.22224	16865.9375
2679.84993	16873.1375
2682.476	16831.3375
2685.10043	16850.3375
2687.72324	16794.8375
2690.34441	16804.9375
2692.96396	16785.4375
2695.58188	16777.4375
2698.19818	16775.4375
2700.81285	16812.4375
2703.4259	16819.7375
2706.03733	16863.8375
2708.64714	16822.9375
2711.25533	16853.2375
2713.86191	16830.7375
2716.46687	16875.5375
2719.07021	16866.5375
2721.67194	16915.7375
2724.27206	16880.9375
2726.87057	16934.1375
2729.46747	16934.9375
2732.06276	16967.4375
2734.65644	16985.0375
2737.24852	16952.1375
2739.83899	16916.6375
2742.42786	16940.6375
2745.01513	16894.0375
2747.60079	16919.6375
2750.18486	16947.3375
2752.76733	16924.1375
2755.3482	16900.2375
2757.92747	16928.7375
2760.50515	16924.6375
2763.08123	16907.9375
2765.65573	16929.7375
2768.22863	16931.2375
2770.79994	16917.4375
2773.36967	16942.1375
2775.9378	16917.0375
2778.50435	16917.2375
2781.06932	16907.0375
2783.6327	16947.6375
2786.1945	16932.4375
2788.75471	16930.6375
2791.31335	16886.3375
2793.87041	16854.1375
2796.42589	16823.9375
2798.97979	16805.2375
2801.53212	16797.6375
2804.08288	16771.9375
2806.63206	16716.5375
2809.17967	16712.7375
2811.72571	16681.3375
2814.27018	16633.0375
2816.81308	16647.9375
2819.35442	16607.6375
2821.89419	16546.5375
2824.43239	16605.3375
2826.96904	16572.3375
2829.50412	16546.4375
2832.03763	16510.0375
2834.56959	16541.1375
2837.1	16505.4375
2839.62884	16522.6375
2842.15613	16540.1375
2844.68186	16553.7375
2847.20604	16554.6375
2849.72867	16554.5375
2852.24974	16570.8375
2854.76927	16575.1375
2857.28724	16503.6375
2859.80367	16495.1375
2862.31855	16473.5375
2864.83189	16489.6375
2867.34368	16460.2375
2869.85393	16460.6375
2872.36264	16446.5375
2874.8698	16410.0375
2877.37543	16409.0375
2879.87952	16431.6375
2882.38207	16405.5375
2884.88308	16422.6375
2887.38256	16432.7375
2889.88051	16454.6375
2892.37692	16441.1375
2894.8718	16436.1375
2897.36515	16483.3375
2899.85698	16440.5375
2902.34727	16519.0375
2904.83604	16543.1375
2907.32328	16575.4375
2909.809	16574.1375
2912.29319	16594.4375
2914.77587	16576.5375
2917.25702	16573.8375
2919.73665	16568.0375
2922.21476	16569.7375
2924.69136	16556.7375
2927.16644	16521.1375
2929.64	16500.6375
2932.11205	16523.1375
2934.58258	16443.3375
2937.05161	16484.8375
2939.51912	16463.2375
2941.98513	16421.4375
2944.44962	16415.0375
2946.91261	16334.9375
2949.37409	16341.2375
2951.83407	16340.2375
2954.29254	16317.7375
2956.74951	16301.3375
2959.20498	16287.4375
2961.65895	16255.0375
2964.11142	16225.8375
2966.56239	16221.2375
2969.01186	16173.8375
2971.45984	16183.3375
2973.90632	16190.1375
2976.35131	16143.3375
2978.7948	16110.3375
2981.23681	16080.5375
2983.67732	16050.6375
2986.11635	16018.8375
2988.55388	15958.3375
2990.98993	15934.9375
2993.4245	15881.9375
2995.85758	15815.8375
2998.28917	15801.9375
3000.71928	15793.3375
3003.14791	15729.9375
3005.57506	15726.9375
3008.00073	15670.1375
3010.42493	15559.0375
3012.84764	15608.8375
3015.26888	15587.0375
3017.68865	15528.7375
3020.10694	15534.1375
3022.52376	15504.5375
3024.9391	15495.6375
3027.35298	15464.9375
3029.76539	15465.2375
3032.17632	15417.9375
3034.5858	15379.3375
3036.9938	15389.6375
3039.40034	15438.3375
3041.80542	15434.2375
3044.20903	15362.8375
3046.61118	15370.7375
3049.01187	15345.4375
3051.4111	15364.5375
3053.80888	15333.9375
3056.20519	15287.3375
3058.60005	15245.3375
3060.99345	15192.0375
3063.3854	15146.1375
3065.7759	15091.2375
3068.16494	15048.4375
3070.55254	14983.1375
3072.93868	14947.4375
3075.32338	14899.7375
3077.70662	14895.4375
3080.08842	14832.9375
3082.46878	14832.6375
3084.84769	14775.4375
3087.22515	14781.6375
3089.60118	14777.1375
3091.97576	14787.9375
3094.3489	14770.4375
3096.72061	14774.6375
3099.09087	14734.8375
3101.4597	14748.5375
3103.82709	14738.0375
3106.19305	14699.6375
3108.55757	14698.9375
3110.92066	14672.1375
3113.28232	14669.3375
3115.64255	14616.5375
3118.00134	14593.0375
3120.35871	14567.4375
3122.71466	14527.3375
3125.06917	14484.1375
3127.42226	14435.9375
3129.77393	14402.7375
3132.12417	14371.2375
3134.47299	14408.7375
3136.82039	14370.2375
3139.16636	14347.5375
3141.51092	14347.2375
3143.85406	14349.8375
3146.19579	14333.5375
3148.53609	14315.4375
3150.87499	14333.9375
3153.21246	14352.6375
3155.54853	14341.6375
3157.88318	14364.8375
3160.21642	14383.5375
3162.54826	14327.8375
3164.87868	14342.4375
3167.2077	14372.5375
3169.5353	14358.6375
3171.86151	14342.9375
3174.18631	14340.0375
3176.5097	14327.2375
3178.83169	14313.6375
3181.15228	14278.0375
3183.47147	14286.3375
3185.78926	14263.3375
3188.10565	14225.6375
3190.42065	14239.0375
3192.73424	14223.8375
3195.04645	14234.9375
3197.35725	14187.7375
3199.66667	14162.4375
3201.97469	14194.3375
3204.28132	14191.5375
3206.58656	14211.2375
3208.8904	14222.5375
3211.19287	14188.0375
3213.49394	14215.5375
3215.79363	14250.0375
3218.09193	14217.7375
3220.38884	14194.2375
3222.68438	14215.0375
3224.97853	14172.7375
3227.2713	14176.9375
3229.56269	14145.0375
3231.8527	14170.2375
3234.14133	14119.5375
3236.42858	14100.2375
3238.71446	14081.9375
3240.99896	14043.3375
3243.28209	14046.0375
3245.56384	14012.4375
3247.84423	14033.6375
3250.12324	14011.2375
3252.40088	13977.9375
3254.67715	13993.7375
3256.95205	13967.1375
3259.22558	13981.1375
3261.49775	13937.8375
3263.76855	13923.5375
3266.03799	13882.5375
3268.30606	13866.9375
3270.57277	13831.3375
3272.83812	13811.0375
3275.10211	13770.1375
3277.36474	13736.9375
3279.62601	13733.7375
3281.88593	13723.5375
3284.14448	13756.1375
3286.40168	13758.9375
3288.65753	13763.6375
3290.91202	13747.1375
3293.16516	13709.1375
3295.41695	13673.5375
3297.66738	13585.0375
3299.91647	13530.4375
3302.16421	13446.1375
3304.4106	13376.5375
3306.65564	13285.4375
3308.89933	13203.2375
3311.14169	13108.7375
3313.38269	13016.4375
3315.62236	12932.0375
3317.86068	12819.8375
3320.09766	12708.6375
3322.3333	12626.1375
3324.5676	12592.9375
3326.80056	12378.0375
3329.03219	12297.5375
3331.26248	3.6375
3333.49143	-0.3625
3335.71905	0.0375
