Data from AgNPs_FTO_APTES_UA_5uM_CRN_10uM_R6G_10uM_NaF_0.1M_Addition_RamanShift__2__12-25-36-713.txt Node

Date: Mon Feb 07 12:25:36 GMT 2022
User: TCL
Spectrometer: QEP01345
Trigger mode: 4
Integration Time (sec): 7.000000E0
Scans to average: 10
Electric dark correction enabled: true
Nonlinearity correction enabled: false
Boxcar width: 0
XAxis mode: Raman Shifts
Number of Pixels in Spectrum: 1044
>>>>>Begin Spectral Data<<<<<
46.04893	-1.2125
50.45542	-0.7125
54.85868	-1.8125
59.25871	1.1875
63.6555	97.0875
68.04907	99.1875
72.43941	106.0875
76.82654	106.0875
81.21044	114.8875
85.59113	114.7875
89.96862	119.8875
94.34289	118.7875
98.71396	122.3875
103.08183	129.3875
107.4465	133.3875
111.80798	137.0875
116.16626	144.9875
120.52136	148.5875
124.87327	156.6875
129.222	166.2875
133.56755	181.2875
137.90993	194.9875
142.24913	213.0875
146.58517	242.6875
150.91804	283.5875
155.24774	345.1875
159.57429	436.7875
163.89768	554.2875
168.21792	755.1875
172.53501	1023.2875
176.84895	1436.7875
181.15975	2011.6875
185.46741	2836.9875
189.77193	3899.9875
194.07331	5196.4875
198.37157	6721.5875
202.6667	8274.7875
206.9587	9805.1875
211.24758	11358.4875
215.53334	12882.5875
219.81599	14563.2875
224.09553	16403.5875
228.37195	18436.6875
232.64527	20595.3875
236.91549	22841.9875
241.18261	25097.3875
245.44663	27207.9875
249.70755	28958.7875
253.96539	30590.2875
258.22014	31935.6875
262.4718	33054.6875
266.72039	33868.0875
270.96589	34327.2875
275.20832	34366.3875
279.44768	34153.9875
283.68397	33869.1875
287.91719	33616.9875
292.14735	33549.4875
296.37445	33564.6875
300.59849	33768.2875
304.81948	33961.5875
309.03742	34028.7875
313.25231	33790.8875
317.46415	33212.9875
321.67296	32403.1875
325.87872	31673.0875
330.08145	31283.6875
334.28114	31179.5875
338.47781	31336.4875
342.67145	31728.1875
346.86207	32226.7875
351.04966	32841.8875
355.23424	33593.5875
359.4158	34184.5875
363.59435	34653.5875
367.76989	34897.9875
371.94243	35060.3875
376.11196	35217.4875
380.27849	35324.0875
384.44203	35521.1875
388.60257	35778.8875
392.76012	36184.5875
396.91468	36641.9875
401.06626	37269.7875
405.21485	37653.1875
409.36047	37551.9875
413.50311	37045.5875
417.64277	36907.5875
421.77947	37004.7875
425.9132	37168.6875
430.04396	37308.4875
434.17176	37541.4875
438.2966	37801.1875
442.41849	38587.5875
446.53742	39919.1875
450.6534	41477.1875
454.76644	42450.8875
458.87653	42616.1875
462.98368	42177.3875
467.08789	41344.6875
471.18916	40479.8875
475.2875	39709.2875
479.38291	39341.3875
483.4754	39050.2875
487.56496	38700.9875
491.6516	38028.5875
495.73531	37314.7875
499.81612	36887.3875
503.89401	36972.5875
507.96899	37073.9875
512.04106	36969.7875
516.11023	36557.6875
520.1765	36099.2875
524.23987	35702.6875
528.30034	35416.3875
532.35792	35113.0875
536.41261	34617.7875
540.46441	34112.4875
544.51333	34005.4875
548.55936	34401.3875
552.60252	35268.9875
556.64279	36411.5875
560.6802	37346.9875
564.71473	37953.1875
568.7464	38749.9875
572.7752	40114.1875
576.80114	41343.0875
580.82422	42696.5875
584.84444	44444.9875
588.86181	46850.7875
592.87633	48804.9875
596.888	48591.1875
600.89682	46058.3875
604.9028	44956.2875
608.90594	47494.8875
612.90624	50722.4875
616.90371	47499.5875
620.89834	39682.8875
624.89015	36175.3875
628.87913	35705.0875
632.86528	35711.1875
636.84862	35369.5875
640.82913	34543.4875
644.80683	33558.6875
648.78172	32986.4875
652.75379	33031.2875
656.72306	33457.9875
660.68952	34070.6875
664.65319	33749.8875
668.61405	33089.8875
672.57211	32969.8875
676.52738	33105.8875
680.47986	33032.6875
684.42955	32698.9875
688.37646	32560.5875
692.32058	32886.4875
696.26192	33515.7875
700.20048	34176.7875
704.13626	34507.3875
708.06928	34471.3875
711.99952	34212.8875
715.927	34260.3875
719.85171	34566.0875
723.77365	34456.3875
727.69284	33829.5875
731.60928	33245.9875
735.52295	33043.5875
739.43388	33054.4875
743.34206	33203.6875
747.24749	33471.0875
751.15017	33850.6875
755.05012	34609.1875
758.94733	35717.6875
762.8418	37590.7875
766.73354	40266.7875
770.62254	42713.6875
774.50882	42940.1875
778.39237	40877.7875
782.27321	37972.4875
786.15132	35548.1875
790.02671	34095.0875
793.89938	33384.2875
797.76935	33134.0875
801.6366	33106.0875
805.50115	32985.8875
809.36299	32808.3875
813.22213	32544.6875
817.07857	32363.7875
820.93231	32193.5875
824.78336	32010.3875
828.63172	31893.9875
832.47738	31895.6875
836.32036	31954.9875
840.16066	32220.0875
843.99827	32347.0875
847.8332	32209.2875
851.66546	32027.5875
855.49504	31954.3875
859.32195	31946.9875
863.1462	31798.1875
866.96777	31604.4875
870.78668	31551.2875
874.60293	31510.5875
878.41652	31513.7875
882.22745	31688.7875
886.03573	31761.6875
889.84136	31730.1875
893.64433	31591.9875
897.44466	31400.0875
901.24235	31327.3875
905.0374	31196.8875
908.8298	31252.7875
912.61957	31324.5875
916.40671	31704.5875
920.19121	32305.2875
923.97308	32851.7875
927.75233	32990.7875
931.52895	32700.1875
935.30295	32099.6875
939.07433	31420.1875
942.84309	30987.1875
946.60924	30802.4875
950.37278	30720.9875
954.13371	30639.1875
957.89203	30503.9875
961.64774	30477.6875
965.40086	30480.8875
969.15137	30475.6875
972.89929	30272.9875
976.64461	30315.6875
980.38733	30341.7875
984.12747	30568.9875
987.86502	30806.6875
991.59999	31215.0875
995.33237	31841.9875
999.06217	32825.0875
1002.78939	34014.2875
1006.51404	34864.0875
1010.23611	35418.7875
1013.95561	35768.0875
1017.67255	35730.8875
1021.38692	35187.9875
1025.09872	34567.0875
1028.80796	34609.8875
1032.51465	35669.3875
1036.21877	36791.2875
1039.92035	37170.9875
1043.61937	36723.8875
1047.31584	35834.3875
1051.00976	34754.0875
1054.70114	34207.8875
1058.38998	34101.6875
1062.07627	34169.2875
1065.76003	34338.1875
1069.44126	34655.3875
1073.11995	35183.6875
1076.79611	35689.0875
1080.46974	35979.1875
1084.14085	36398.3875
1087.80943	36848.8875
1091.47549	37303.7875
1095.13903	37268.4875
1098.80005	36752.1875
1102.45857	35828.6875
1106.11456	35163.6875
1109.76805	34880.1875
1113.41903	34938.8875
1117.06751	35143.0875
1120.71348	35389.3875
1124.35696	35766.6875
1127.99793	36155.9875
1131.63641	36457.9875
1135.2724	36389.8875
1138.90589	36301.2875
1142.5369	36446.9875
1146.16542	36775.7875
1149.79145	37215.0875
1153.415	37754.4875
1157.03607	38566.8875
1160.65467	40179.9875
1164.27079	42552.4875
1167.88443	45338.7875
1171.49561	48144.3875
1175.10432	51655.9875
1178.71056	56196.5875
1182.31434	60435.6875
1185.91565	62119.8875
1189.51451	61253.5875
1193.11091	58940.2875
1196.70485	56525.6875
1200.29634	54363.3875
1203.88538	53185.1875
1207.47197	52682.6875
1211.05612	52075.1875
1214.63782	50991.4875
1218.21708	49581.8875
1221.79391	48357.2875
1225.36829	47390.4875
1228.94024	46485.6875
1232.50976	45343.2875
1236.07685	44297.9875
1239.6415	43714.9875
1243.20374	43758.0875
1246.76355	44227.9875
1250.32093	45153.5875
1253.8759	46311.8875
1257.42845	47759.0875
1260.97859	49304.1875
1264.52631	50957.5875
1268.07163	52759.6875
1271.61453	54589.7875
1275.15503	56594.5875
1278.69312	58787.1875
1282.22882	60901.6875
1285.76211	63291.6875
1289.29301	66304.6875
1292.82151	69847.7875
1296.34761	74370.5875
1299.87133	79827.2875
1303.39266	85662.7875
1306.9116	90956.4875
1310.42815	94780.8875
1313.94233	96244.5875
1317.45412	95070.6875
1320.96354	92608.8875
1324.47058	90206.9875
1327.97525	88446.9875
1331.47754	87159.4875
1334.97747	86142.7875
1338.47502	84684.7875
1341.97022	82436.1875
1345.46305	79880.7875
1348.95352	78173.8875
1352.44163	78351.5875
1355.92738	80969.1875
1359.41078	85448.4875
1362.89183	89018.9875
1366.37053	87888.9875
1369.84688	80712.8875
1373.32088	71048.5875
1376.79254	64377.3875
1380.26186	62291.5875
1383.72883	62860.3875
1387.19347	63387.6875
1390.65578	62811.4875
1394.11575	62569.7875
1397.57339	63714.2875
1401.0287	65413.6875
1404.48168	66821.8875
1407.93234	67034.4875
1411.38068	65613.7875
1414.82669	63067.5875
1418.27039	60009.0875
1421.71177	56724.1875
1425.15083	54045.8875
1428.58758	52831.1875
1432.02203	53419.8875
1435.45416	55380.7875
1438.88399	57663.0875
1442.31151	59356.3875
1445.73673	60379.8875
1449.15965	60933.1875
1452.58027	61002.8875
1455.9986	60517.3875
1459.41463	60289.7875
1462.82837	61048.7875
1466.23982	62392.8875
1469.64898	63825.4875
1473.05586	64807.3875
1476.46045	65069.9875
1479.86276	64715.6875
1483.26279	63804.0875
1486.66054	63283.4875
1490.05602	63352.2875
1493.44922	63578.3875
1496.84016	63685.9875
1500.22882	64075.3875
1503.61521	64930.1875
1506.99934	66368.1875
1510.38121	67632.1875
1513.76081	68116.5875
1517.13816	67048.8875
1520.51324	65252.2875
1523.88607	63890.0875
1527.25665	63650.3875
1530.62498	63933.0875
1533.99105	64024.9875
1537.35488	63367.7875
1540.71647	61926.7875
1544.07581	59976.0875
1547.4329	57946.5875
1550.78776	56196.8875
1554.14038	54875.2875
1557.49077	54121.1875
1560.83892	53622.4875
1564.18484	53361.7875
1567.52853	53499.5875
1570.86999	54081.7875
1574.20922	55265.6875
1577.54624	56524.6875
1580.88103	57447.0875
1584.2136	58840.0875
1587.54395	61856.3875
1590.87208	66593.6875
1594.19801	71836.5875
1597.52172	76225.5875
1600.84321	76830.8875
1604.16251	72300.0875
1607.47959	64648.4875
1610.79447	57015.6875
1614.10715	50639.3875
1617.41763	46087.1875
1620.7259	43372.7875
1624.03199	42305.4875
1627.33587	42795.5875
1630.63757	44717.7875
1633.93707	48513.4875
1637.23439	54492.9875
1640.52951	63042.4875
1643.82246	73176.7875
1647.11321	80850.0875
1650.40179	81419.0875
1653.68819	73718.7875
1656.97241	61713.2875
1660.25446	50885.8875
1663.53433	43231.7875
1666.81203	38487.7875
1670.08756	35602.1875
1673.36092	33813.4875
1676.63211	32676.0875
1679.90115	31874.1875
1683.16801	31290.9875
1686.43272	30794.4875
1689.69527	30493.0875
1692.95567	30237.7875
1696.2139	30054.3875
1699.46999	29892.4875
1702.72392	29750.2875
1705.97571	29704.7875
1709.22535	29621.7875
1712.47284	29546.6875
1715.71819	29522.5875
1718.96139	29419.7875
1722.20246	29283.0875
1725.44139	29203.0875
1728.67818	29014.9875
1731.91284	28851.3875
1735.14537	28628.1875
1738.37576	28475.4875
1741.60403	28416.8875
1744.83017	28258.0875
1748.05418	28191.3875
1751.27607	28113.4875
1754.49584	28051.4875
1757.71349	28011.1875
1760.92903	28000.2875
1764.14244	27954.1875
1767.35375	27988.1875
1770.56294	27888.5875
1773.77002	27839.1875
1776.97499	27772.0875
1780.17785	27739.4875
1783.37861	27686.9875
1786.57727	27659.1875
1789.77382	27617.6875
1792.96828	27629.7875
1796.16064	27511.0875
1799.3509	27510.8875
1802.53907	27447.4875
1805.72514	27303.7875
1808.90913	27256.6875
1812.09102	27197.3875
1815.27083	27197.8875
1818.44856	27110.1875
1821.6242	27046.7875
1824.79776	27033.5875
1827.96924	27053.6875
1831.13864	27037.5875
1834.30597	27039.1875
1837.47122	27042.6875
1840.6344	27021.5875
1843.7955	27043.6875
1846.95454	27020.4875
1850.11151	27019.6875
1853.26642	27003.4875
1856.41926	27015.7875
1859.57004	27014.6875
1862.71876	26974.7875
1865.86542	26908.9875
1869.01003	26902.6875
1872.15258	26836.7875
1875.29308	26853.6875
1878.43152	26845.6875
1881.56792	26829.8875
1884.70227	26823.7875
1887.83457	26803.7875
1890.96482	26780.6875
1894.09304	26762.6875
1897.21921	26730.8875
1900.34335	26719.7875
1903.46544	26650.6875
1906.58551	26618.6875
1909.70353	26618.4875
1912.81953	26582.6875
1915.93349	26556.5875
1919.04543	26516.0875
1922.15534	26453.1875
1925.26322	26364.3875
1928.36908	26273.2875
1931.47292	26259.4875
1934.57473	26089.7875
1937.67453	26046.4875
1940.77232	26031.7875
1943.86808	25951.9875
1946.96184	25909.1875
1950.05358	25831.5875
1953.14331	25772.7875
1956.23103	25671.2875
1959.31675	25608.9875
1962.40046	25498.3875
1965.48217	25454.2875
1968.56188	25394.1875
1971.63959	25339.1875
1974.7153	25269.7875
1977.78901	25181.8875
1980.86073	25082.2875
1983.93046	25013.9875
1986.99819	24937.5875
1990.06394	24867.2875
1993.1277	24830.5875
1996.18947	24768.7875
1999.24925	24719.6875
2002.30706	24636.1875
2005.36288	24542.8875
2008.41672	24516.7875
2011.46859	24431.6875
2014.51848	24411.3875
2017.56639	24323.5875
2020.61233	24273.5875
2023.6563	24183.9875
2026.6983	24133.8875
2029.73833	24104.1875
2032.7764	24078.6875
2035.8125	24032.9875
2038.84664	23990.7875
2041.87881	23983.9875
2044.90903	23961.5875
2047.93729	23939.3875
2050.96359	23916.5875
2053.98794	23851.0875
2057.01034	23844.3875
2060.03078	23895.5875
2063.04927	23798.6875
2066.06582	23884.1875
2069.08042	23851.2875
2072.09307	23838.6875
2075.10378	23775.1875
2078.11255	23770.6875
2081.11938	23774.7875
2084.12426	23717.7875
2087.12722	23751.5875
2090.12824	23677.5875
2093.12732	23692.3875
2096.12447	23723.7875
2099.11969	23720.5875
2102.11299	23747.8875
2105.10435	23694.0875
2108.09379	23701.0875
2111.08131	23737.4875
2114.0669	23755.4875
2117.05057	23812.3875
2120.03233	23805.0875
2123.01216	23822.9875
2125.99008	23821.7875
2128.96609	23884.3875
2131.94018	23879.7875
2134.91236	23880.4875
2137.88263	23900.0875
2140.851	23924.9875
2143.81746	23942.0875
2146.78201	23931.4875
2149.74466	23917.2875
2152.7054	23954.8875
2155.66425	23906.4875
2158.6212	23917.2875
2161.57625	23901.2875
2164.52941	23904.6875
2167.48067	23909.1875
2170.43004	23910.7875
2173.37752	23915.6875
2176.32311	23903.1875
2179.26681	23913.0875
2182.20863	23933.0875
2185.14856	23952.5875
2188.08661	23963.5875
2191.02278	23980.0875
2193.95707	23988.7875
2196.88948	23932.3875
2199.82001	23927.4875
2202.74867	23874.9875
2205.67545	23875.6875
2208.60037	23835.0875
2211.52341	23845.6875
2214.44458	23867.5875
2217.36388	23818.2875
2220.28132	23738.6875
2223.1969	23723.6875
2226.11061	23697.6875
2229.02246	23673.3875
2231.93245	23651.0875
2234.84058	23637.6875
2237.74686	23579.2875
2240.65128	23568.8875
2243.55385	23499.6875
2246.45456	23492.1875
2249.35343	23434.5875
2252.25044	23371.1875
2255.14561	23285.4875
2258.03893	23291.2875
2260.93041	23240.3875
2263.82004	23227.4875
2266.70783	23176.0875
2269.59378	23087.6875
2272.4779	23045.3875
2275.36017	23003.4875
2278.24061	22980.8875
2281.11922	22954.4875
2283.996	22915.8875
2286.87094	22854.8875
2289.74405	22831.8875
2292.61534	22856.6875
2295.4848	22877.0875
2298.35243	22833.0875
2301.21824	22932.2875
2304.08223	22937.9875
2306.94439	22924.0875
2309.80474	22953.0875
2312.66327	22976.8875
2315.51999	22985.0875
2318.37489	22946.9875
2321.22797	22901.8875
2324.07925	22906.1875
2326.92871	22893.0875
2329.77637	22886.7875
2332.62222	22812.4875
2335.46626	22838.7875
2338.3085	22833.5875
2341.14893	22875.1875
2343.98756	22884.4875
2346.8244	22880.0875
2349.65943	22876.5875
2352.49267	22860.2875
2355.32411	22895.7875
2358.15376	22886.1875
2360.98161	22866.7875
2363.80768	22817.3875
2366.63195	22822.3875
2369.45444	22800.6875
2372.27514	22714.1875
2375.09405	22736.5875
2377.91118	22691.5875
2380.72652	22614.5875
2383.54009	22570.3875
2386.35187	22559.8875
2389.16188	22510.4875
2391.97011	22476.8875
2394.77657	22435.0875
2397.58125	22446.5875
2400.38416	22412.6875
2403.18529	22404.5875
2405.98466	22384.1875
2408.78226	22321.2875
2411.57809	22313.2875
2414.37216	22270.7875
2417.16446	22256.9875
2419.955	22188.6875
2422.74378	22230.9875
2425.5308	22197.3875
2428.31606	22180.0875
2431.09956	22186.8875
2433.88131	22141.3875
2436.6613	22175.4875
2439.43954	22187.9875
2442.21603	22141.0875
2444.99077	22153.8875
2447.76377	22199.3875
2450.53501	22202.6875
2453.30451	22122.3875
2456.07226	22137.4875
2458.83827	22177.8875
2461.60254	22186.1875
2464.36507	22178.5875
2467.12586	22197.0875
2469.88492	22216.9875
2472.64224	22218.1875
2475.39782	22248.9875
2478.15167	22253.4875
2480.90379	22272.8875
2483.65417	22298.1875
2486.40283	22299.1875
2489.14976	22347.5875
2491.89497	22315.6875
2494.63845	22326.1875
2497.3802	22348.4875
2500.12024	22386.6875
2502.85855	22357.3875
2505.59514	22304.1875
2508.33002	22287.8875
2511.06318	22312.5875
2513.79462	22290.8875
2516.52435	22262.0875
2519.25237	22298.9875
2521.97867	22312.3875
2524.70327	22246.6875
2527.42616	22238.0875
2530.14734	22299.9875
2532.86681	22299.0875
2535.58458	22280.1875
2538.30065	22274.6875
2541.01501	22275.6875
2543.72768	22229.5875
2546.43864	22256.1875
2549.14791	22196.3875
2551.85548	22206.8875
2554.56136	22177.0875
2557.26554	22163.2875
2559.96803	22173.0875
2562.66883	22162.1875
2565.36794	22140.3875
2568.06536	22144.2875
2570.7611	22177.2875
2573.45514	22141.0875
2576.14751	22162.9875
2578.83819	22150.2875
2581.52719	22142.2875
2584.21451	22164.9875
2586.90015	22187.9875
2589.58411	22186.8875
2592.2664	22146.0875
2594.94701	22156.4875
2597.62594	22130.8875
2600.30321	22128.4875
2602.9788	22120.7875
2605.65273	22083.5875
2608.32498	22159.6875
2610.99557	22146.6875
2613.66449	22149.7875
2616.33175	22165.6875
2618.99734	22152.3875
2621.66128	22159.0875
2624.32355	22126.5875
2626.98416	22134.3875
2629.64311	22173.5875
2632.30041	22144.7875
2634.95605	22140.2875
2637.61004	22082.1875
2640.26238	22070.3875
2642.91306	22107.4875
2645.56209	22041.7875
2648.20948	22065.1875
2650.85521	22111.9875
2653.4993	22129.6875
2656.14175	22093.9875
2658.78255	22124.7875
2661.42171	22159.4875
2664.05923	22206.2875
2666.6951	22210.3875
2669.32934	22260.5875
2671.96194	22269.6875
2674.59291	22250.2875
2677.22224	22257.5875
2679.84993	22233.7875
2682.476	22258.2875
2685.10043	22250.9875
2687.72324	22212.9875
2690.34441	22224.7875
2692.96396	22186.3875
2695.58188	22216.4875
2698.19818	22143.0875
2700.81285	22231.8875
2703.4259	22222.1875
2706.03733	22270.4875
2708.64714	22272.3875
2711.25533	22260.0875
2713.86191	22245.3875
2716.46687	22299.6875
2719.07021	22287.5875
2721.67194	22351.1875
2724.27206	22382.4875
2726.87057	22427.4875
2729.46747	22461.3875
2732.06276	22501.3875
2734.65644	22437.4875
2737.24852	22457.2875
2739.83899	22433.2875
2742.42786	22442.7875
2745.01513	22389.7875
2747.60079	22437.0875
2750.18486	22410.7875
2752.76733	22388.6875
2755.3482	22399.1875
2757.92747	22402.7875
2760.50515	22411.4875
2763.08123	22419.9875
2765.65573	22429.8875
2768.22863	22479.2875
2770.79994	22408.1875
2773.36967	22400.9875
2775.9378	22425.9875
2778.50435	22456.5875
2781.06932	22475.6875
2783.6327	22472.3875
2786.1945	22459.0875
2788.75471	22484.6875
2791.31335	22424.7875
2793.87041	22415.1875
2796.42589	22351.6875
2798.97979	22357.1875
2801.53212	22317.5875
2804.08288	22282.8875
2806.63206	22240.6875
2809.17967	22145.6875
2811.72571	22136.3875
2814.27018	22118.5875
2816.81308	22110.0875
2819.35442	22059.3875
2821.89419	22033.7875
2824.43239	22046.6875
2826.96904	22064.2875
2829.50412	22027.5875
2832.03763	21996.8875
2834.56959	22016.3875
2837.1	21968.8875
2839.62884	21983.1875
2842.15613	21964.3875
2844.68186	22050.4875
2847.20604	22052.6875
2849.72867	22045.2875
2852.24974	22038.2875
2854.76927	22008.0875
2857.28724	22049.2875
2859.80367	22007.3875
2862.31855	21954.7875
2864.83189	21932.4875
2867.34368	21888.7875
2869.85393	21953.5875
2872.36264	21903.0875
2874.8698	21850.3875
2877.37543	21878.6875
2879.87952	21878.5875
2882.38207	21895.1875
2884.88308	21882.2875
2887.38256	21919.4875
2889.88051	21944.4875
2892.37692	21947.3875
2894.8718	22019.8875
2897.36515	21985.4875
2899.85698	22014.4875
2902.34727	22087.1875
2904.83604	22097.1875
2907.32328	22150.2875
2909.809	22114.0875
2912.29319	22149.7875
2914.77587	22141.0875
2917.25702	22158.3875
2919.73665	22106.4875
2922.21476	22117.7875
2924.69136	22118.0875
2927.16644	22119.8875
2929.64	22051.3875
2932.11205	22015.3875
2934.58258	21971.1875
2937.05161	21998.0875
2939.51912	21986.6875
2941.98513	21995.5875
2944.44962	21967.5875
2946.91261	21901.6875
2949.37409	21880.9875
2951.83407	21874.5875
2954.29254	21896.9875
2956.74951	21846.1875
2959.20498	21841.0875
2961.65895	21859.6875
2964.11142	21854.0875
2966.56239	21825.6875
2969.01186	21819.0875
2971.45984	21779.8875
2973.90632	21750.9875
2976.35131	21724.6875
2978.7948	21638.2875
2981.23681	21594.4875
2983.67732	21564.2875
2986.11635	21510.2875
2988.55388	21473.2875
2990.98993	21444.1875
2993.4245	21369.2875
2995.85758	21309.4875
2998.28917	21275.7875
3000.71928	21306.8875
3003.14791	21255.9875
3005.57506	21228.9875
3008.00073	21180.6875
3010.42493	21036.6875
3012.84764	21086.4875
3015.26888	21090.6875
3017.68865	21052.1875
3020.10694	21028.9875
3022.52376	20973.2875
3024.9391	20935.9875
3027.35298	20913.8875
3029.76539	20910.2875
3032.17632	20882.3875
3034.5858	20856.4875
3036.9938	20879.7875
3039.40034	20889.0875
3041.80542	20873.8875
3044.20903	20837.7875
3046.61118	20850.1875
3049.01187	20749.7875
3051.4111	20800.3875
3053.80888	20789.2875
3056.20519	20776.4875
3058.60005	20698.4875
3060.99345	20620.4875
3063.3854	20588.3875
3065.7759	20479.2875
3068.16494	20468.1875
3070.55254	20396.3875
3072.93868	20381.5875
3075.32338	20285.6875
3077.70662	20292.9875
3080.08842	20237.5875
3082.46878	20212.1875
3084.84769	20172.0875
3087.22515	20164.4875
3089.60118	20145.9875
3091.97576	20170.1875
3094.3489	20139.2875
3096.72061	20117.9875
3099.09087	20165.2875
3101.4597	20143.1875
3103.82709	20138.1875
3106.19305	20144.0875
3108.55757	20073.7875
3110.92066	20003.1875
3113.28232	20016.0875
3115.64255	19957.6875
3118.00134	19888.5875
3120.35871	19853.7875
3122.71466	19857.4875
3125.06917	19806.8875
3127.42226	19736.0875
3129.77393	19772.9875
3132.12417	19708.9875
3134.47299	19709.4875
3136.82039	19718.5875
3139.16636	19732.4875
3141.51092	19657.1875
3143.85406	19652.8875
3146.19579	19654.1875
3148.53609	19676.1875
3150.87499	19681.0875
3153.21246	19680.1875
3155.54853	19718.6875
3157.88318	19678.4875
3160.21642	19700.0875
3162.54826	19685.4875
3164.87868	19666.7875
3167.2077	19668.1875
3169.5353	19690.2875
3171.86151	19685.5875
3174.18631	19695.3875
3176.5097	19639.0875
3178.83169	19606.5875
3181.15228	19649.7875
3183.47147	19592.8875
3185.78926	19597.2875
3188.10565	19517.4875
3190.42065	19527.4875
3192.73424	19489.9875
3195.04645	19462.5875
3197.35725	19446.2875
3199.66667	19415.9875
3201.97469	19496.8875
3204.28132	19435.3875
3206.58656	19450.5875
3208.8904	19467.9875
3211.19287	19461.5875
3213.49394	19471.4875
3215.79363	19482.1875
3218.09193	19472.3875
3220.38884	19447.6875
3222.68438	19477.2875
3224.97853	19432.9875
3227.2713	19418.3875
3229.56269	19425.3875
3231.8527	19433.5875
3234.14133	19406.6875
3236.42858	19356.5875
3238.71446	19317.9875
3240.99896	19281.1875
3243.28209	19298.5875
3245.56384	19238.7875
3247.84423	19260.7875
3250.12324	19226.0875
3252.40088	19185.9875
3254.67715	19163.5875
3256.95205	19187.9875
3259.22558	19169.5875
3261.49775	19162.1875
3263.76855	19108.8875
3266.03799	19064.4875
3268.30606	19017.4875
3270.57277	18984.6875
3272.83812	18982.0875
3275.10211	18949.9875
3277.36474	18922.0875
3279.62601	18938.1875
3281.88593	18925.0875
3284.14448	18946.2875
3286.40168	18953.8875
3288.65753	18962.2875
3290.91202	18963.7875
3293.16516	18886.9875
3295.41695	18860.9875
3297.66738	18734.5875
3299.91647	18652.3875
3302.16421	18518.6875
3304.4106	18459.4875
3306.65564	18336.5875
3308.89933	18178.3875
3311.14169	18088.7875
3313.38269	17923.4875
3315.62236	17836.5875
3317.86068	17679.2875
3320.09766	17595.4875
3322.3333	17431.7875
3324.5676	17355.5875
3326.80056	17057.4875
3329.03219	16998.4875
3331.26248	4.0875
3333.49143	-1.8125
3335.71905	-0.7125
