Data from AgNPs_FTO_APTES_UA_5uM_CRN_20uM_R6G_10uM_NaF_0.1M_Addition_RamanShift__12__13-16-56-772.txt Node

Date: Mon Feb 07 13:16:56 GMT 2022
User: TCL
Spectrometer: QEP01345
Trigger mode: 4
Integration Time (sec): 7.000000E0
Scans to average: 10
Electric dark correction enabled: true
Nonlinearity correction enabled: false
Boxcar width: 0
XAxis mode: Raman Shifts
Number of Pixels in Spectrum: 1044
>>>>>Begin Spectral Data<<<<<
46.04893	-0.3875
50.45542	-0.4875
54.85868	-0.0875
59.25871	0.1125
63.6555	81.6125
68.04907	80.9125
72.43941	88.3125
76.82654	90.1125
81.21044	91.9125
85.59113	97.4125
89.96862	105.5125
94.34289	102.4125
98.71396	107.0125
103.08183	110.2125
107.4465	114.7125
111.80798	112.9125
116.16626	120.4125
120.52136	129.6125
124.87327	137.7125
129.222	142.2125
133.56755	151.9125
137.90993	169.4125
142.24913	188.4125
146.58517	215.7125
150.91804	254.3125
155.24774	314.9125
159.57429	391.5125
163.89768	507.2125
168.21792	688.7125
172.53501	933.0125
176.84895	1306.0125
181.15975	1844.9125
185.46741	2607.0125
189.77193	3586.5125
194.07331	4793.7125
198.37157	6192.1125
202.6667	7647.3125
206.9587	9101.4125
211.24758	10522.3125
215.53334	11888.5125
219.81599	13401.5125
224.09553	14980.0125
228.37195	16761.6125
232.64527	18722.0125
236.91549	20718.9125
241.18261	22826.7125
245.44663	24771.9125
249.70755	26543.5125
253.96539	28123.9125
258.22014	29429.9125
262.4718	30510.1125
266.72039	31230.3125
270.96589	31625.5125
275.20832	31755.8125
279.44768	31700.9125
283.68397	31582.6125
287.91719	31414.5125
292.14735	31366.6125
296.37445	31378.4125
300.59849	31506.9125
304.81948	31591.2125
309.03742	31574.5125
313.25231	31284.2125
317.46415	30668.3125
321.67296	29896.7125
325.87872	29211.5125
330.08145	28840.5125
334.28114	28765.4125
338.47781	28895.7125
342.67145	29182.1125
346.86207	29438.6125
351.04966	29826.0125
355.23424	30133.4125
359.4158	30468.8125
363.59435	30678.7125
367.76989	30855.3125
371.94243	30974.5125
376.11196	31026.7125
380.27849	31047.9125
384.44203	31048.1125
388.60257	31183.6125
392.76012	31599.7125
396.91468	32183.8125
401.06626	32770.9125
405.21485	33139.9125
409.36047	33012.1125
413.50311	32590.4125
417.64277	32388.4125
421.77947	32469.6125
425.9132	32603.3125
430.04396	32751.8125
434.17176	32897.5125
438.2966	33083.9125
442.41849	33406.7125
446.53742	34074.7125
450.6534	34752.6125
454.76644	35252.4125
458.87653	35542.6125
462.98368	35587.4125
467.08789	35419.5125
471.18916	35161.7125
475.2875	34975.0125
479.38291	34974.2125
483.4754	34968.0125
487.56496	34720.2125
491.6516	34175.5125
495.73531	33557.2125
499.81612	33066.9125
503.89401	33008.0125
507.96899	33148.1125
512.04106	33206.3125
516.11023	33066.8125
520.1765	32695.5125
524.23987	32289.4125
528.30034	31779.8125
532.35792	31423.9125
536.41261	31134.0125
540.46441	30897.5125
544.51333	30964.8125
548.55936	31413.0125
552.60252	32113.2125
556.64279	32804.8125
560.6802	33398.7125
564.71473	33982.6125
568.7464	34908.9125
572.7752	36389.3125
576.80114	38195.8125
580.82422	39709.3125
584.84444	40730.0125
588.86181	41604.2125
592.87633	42345.9125
596.888	42028.0125
600.89682	40359.5125
604.9028	39394.2125
608.90594	40083.8125
612.90624	40968.3125
616.90371	38316.7125
620.89834	33810.4125
624.89015	31944.6125
628.87913	31954.0125
632.86528	32368.2125
636.84862	32387.2125
640.82913	31815.8125
644.80683	31016.4125
648.78172	30467.2125
652.75379	30294.3125
656.72306	30475.3125
660.68952	30784.3125
664.65319	30732.1125
668.61405	30439.8125
672.57211	30350.3125
676.52738	30441.9125
680.47986	30404.0125
684.42955	30202.9125
688.37646	30131.6125
692.32058	30205.9125
696.26192	30550.3125
700.20048	30857.5125
704.13626	31240.1125
708.06928	31504.4125
711.99952	31526.5125
715.927	31386.8125
719.85171	31250.0125
723.77365	30905.0125
727.69284	30437.8125
731.60928	29976.2125
735.52295	29744.9125
739.43388	29651.4125
743.34206	29713.9125
747.24749	29864.0125
751.15017	30272.2125
755.05012	30878.9125
758.94733	31817.1125
762.8418	33194.9125
766.73354	35198.2125
770.62254	36904.5125
774.50882	36852.3125
778.39237	35164.4125
782.27321	33088.6125
786.15132	31483.8125
790.02671	30476.0125
793.89938	29805.6125
797.76935	29403.0125
801.6366	29287.8125
805.50115	29209.9125
809.36299	29087.2125
813.22213	28978.3125
817.07857	28965.0125
820.93231	28944.2125
824.78336	28862.1125
828.63172	28665.4125
832.47738	28529.7125
836.32036	28412.8125
840.16066	28386.9125
843.99827	28425.3125
847.8332	28412.5125
851.66546	28412.5125
855.49504	28492.3125
859.32195	28439.2125
863.1462	28354.7125
866.96777	28330.2125
870.78668	28252.6125
874.60293	28235.8125
878.41652	28204.8125
882.22745	28265.1125
886.03573	28321.4125
889.84136	28326.8125
893.64433	28284.6125
897.44466	28193.7125
901.24235	28171.4125
905.0374	28183.6125
908.8298	28163.2125
912.61957	28327.9125
916.40671	28714.7125
920.19121	29264.5125
923.97308	29593.6125
927.75233	29377.8125
931.52895	28865.1125
935.30295	28331.6125
939.07433	27757.8125
942.84309	27350.3125
946.60924	27050.0125
950.37278	26933.1125
954.13371	26907.6125
957.89203	26874.8125
961.64774	26949.8125
965.40086	26940.9125
969.15137	26876.6125
972.89929	26745.4125
976.64461	26550.5125
980.38733	26468.9125
984.12747	26388.5125
987.86502	26458.7125
991.59999	26540.5125
995.33237	26694.8125
999.06217	26960.9125
1002.78939	27303.9125
1006.51404	27697.6125
1010.23611	28131.5125
1013.95561	28398.6125
1017.67255	28479.0125
1021.38692	28267.8125
1025.09872	27945.1125
1028.80796	27583.9125
1032.51465	27480.5125
1036.21877	27516.1125
1039.92035	27657.5125
1043.61937	27832.4125
1047.31584	27969.7125
1051.00976	28118.2125
1054.70114	28330.6125
1058.38998	28718.9125
1062.07627	29142.3125
1065.76003	29713.9125
1069.44126	30212.7125
1073.11995	30677.7125
1076.79611	31004.1125
1080.46974	31067.4125
1084.14085	31106.2125
1087.80943	31384.2125
1091.47549	31735.3125
1095.13903	32017.3125
1098.80005	31752.9125
1102.45857	30909.3125
1106.11456	30051.7125
1109.76805	29476.0125
1113.41903	29335.0125
1117.06751	29407.7125
1120.71348	29636.5125
1124.35696	29934.4125
1127.99793	30293.9125
1131.63641	30541.2125
1135.2724	30593.1125
1138.90589	30621.0125
1142.5369	30802.5125
1146.16542	31119.3125
1149.79145	31560.6125
1153.415	32067.7125
1157.03607	32669.4125
1160.65467	33639.7125
1164.27079	34984.9125
1167.88443	36690.2125
1171.49561	38477.3125
1175.10432	40492.5125
1178.71056	42887.7125
1182.31434	45127.1125
1185.91565	46533.4125
1189.51451	46916.6125
1193.11091	46536.8125
1196.70485	45387.7125
1200.29634	43812.0125
1203.88538	42685.8125
1207.47197	42369.5125
1211.05612	42439.2125
1214.63782	42044.3125
1218.21708	40735.7125
1221.79391	39024.9125
1225.36829	37602.1125
1228.94024	36693.5125
1232.50976	36163.0125
1236.07685	35908.4125
1239.6415	35853.7125
1243.20374	35909.4125
1246.76355	36164.1125
1250.32093	36651.6125
1253.8759	37391.0125
1257.42845	38385.2125
1260.97859	39511.2125
1264.52631	40647.5125
1268.07163	41788.7125
1271.61453	42901.9125
1275.15503	44032.0125
1278.69312	45393.0125
1282.22882	46976.6125
1285.76211	48757.4125
1289.29301	50797.9125
1292.82151	53175.5125
1296.34761	55994.4125
1299.87133	59043.0125
1303.39266	61736.3125
1306.9116	63712.1125
1310.42815	64818.4125
1313.94233	64978.1125
1317.45412	64609.7125
1320.96354	64406.5125
1324.47058	64518.8125
1327.97525	64992.8125
1331.47754	65336.2125
1334.97747	65614.1125
1338.47502	65638.2125
1341.97022	65550.6125
1345.46305	65259.7125
1348.95352	64466.0125
1352.44163	63248.2125
1355.92738	62223.3125
1359.41078	62028.7125
1362.89183	62135.4125
1366.37053	60959.0125
1369.84688	57602.5125
1373.32088	53100.7125
1376.79254	49637.3125
1380.26186	48583.1125
1383.72883	48834.9125
1387.19347	49391.1125
1390.65578	49232.3125
1394.11575	48981.4125
1397.57339	49111.3125
1401.0287	49485.9125
1404.48168	49680.7125
1407.93234	49113.9125
1411.38068	47675.8125
1414.82669	45602.1125
1418.27039	43291.8125
1421.71177	41321.2125
1425.15083	39869.0125
1428.58758	39196.1125
1432.02203	39410.7125
1435.45416	40394.3125
1438.88399	41689.5125
1442.31151	42684.6125
1445.73673	43484.0125
1449.15965	44258.2125
1452.58027	44926.8125
1455.9986	45332.8125
1459.41463	45861.0125
1462.82837	46449.0125
1466.23982	47082.7125
1469.64898	47719.0125
1473.05586	47939.3125
1476.46045	47828.2125
1479.86276	47510.5125
1483.26279	47148.6125
1486.66054	47035.2125
1490.05602	47246.6125
1493.44922	47844.8125
1496.84016	48710.9125
1500.22882	49843.3125
1503.61521	51112.4125
1506.99934	52373.1125
1510.38121	53241.4125
1513.76081	53592.7125
1517.13816	53278.3125
1520.51324	53041.8125
1523.88607	53069.6125
1527.25665	53272.9125
1530.62498	53276.5125
1533.99105	52671.5125
1537.35488	51600.8125
1540.71647	49890.0125
1544.07581	47970.1125
1547.4329	46214.9125
1550.78776	44888.8125
1554.14038	43933.8125
1557.49077	43432.2125
1560.83892	43250.7125
1564.18484	43133.2125
1567.52853	43198.6125
1570.86999	43598.7125
1574.20922	44548.6125
1577.54624	45554.1125
1580.88103	46236.7125
1584.2136	46741.6125
1587.54395	47900.0125
1590.87208	49653.1125
1594.19801	51629.8125
1597.52172	53133.7125
1600.84321	52843.8125
1604.16251	50185.8125
1607.47959	46518.2125
1610.79447	42962.5125
1614.10715	39783.0125
1617.41763	36983.7125
1620.7259	34942.8125
1624.03199	33870.3125
1627.33587	33760.5125
1630.63757	34685.2125
1633.93707	36925.8125
1637.23439	40799.1125
1640.52951	46261.9125
1643.82246	52751.4125
1647.11321	58289.8125
1650.40179	59826.8125
1653.68819	56426.4125
1656.97241	49577.6125
1660.25446	42302.5125
1663.53433	36372.7125
1666.81203	32254.2125
1670.08756	29595.0125
1673.36092	27934.9125
1676.63211	26893.8125
1679.90115	26163.9125
1683.16801	25594.6125
1686.43272	25185.2125
1689.69527	24841.2125
1692.95567	24627.2125
1696.2139	24413.8125
1699.46999	24307.4125
1702.72392	24114.7125
1705.97571	24029.9125
1709.22535	23948.7125
1712.47284	23883.9125
1715.71819	23766.1125
1718.96139	23673.1125
1722.20246	23600.7125
1725.44139	23479.8125
1728.67818	23349.2125
1731.91284	23163.8125
1735.14537	23017.9125
1738.37576	22872.7125
1741.60403	22816.1125
1744.83017	22727.3125
1748.05418	22633.0125
1751.27607	22571.4125
1754.49584	22526.1125
1757.71349	22512.2125
1760.92903	22488.4125
1764.14244	22424.4125
1767.35375	22380.8125
1770.56294	22346.5125
1773.77002	22274.3125
1776.97499	22217.6125
1780.17785	22101.8125
1783.37861	22079.8125
1786.57727	22019.1125
1789.77382	21974.3125
1792.96828	21938.9125
1796.16064	21893.4125
1799.3509	21824.0125
1802.53907	21754.4125
1805.72514	21675.6125
1808.90913	21573.9125
1812.09102	21537.4125
1815.27083	21467.2125
1818.44856	21438.7125
1821.6242	21402.5125
1824.79776	21385.5125
1827.96924	21339.4125
1831.13864	21329.5125
1834.30597	21347.0125
1837.47122	21321.3125
1840.6344	21302.2125
1843.7955	21321.0125
1846.95454	21299.9125
1850.11151	21282.8125
1853.26642	21277.1125
1856.41926	21267.4125
1859.57004	21230.7125
1862.71876	21195.8125
1865.86542	21158.4125
1869.01003	21066.6125
1872.15258	21025.0125
1875.29308	21016.0125
1878.43152	20941.4125
1881.56792	20873.7125
1884.70227	20832.0125
1887.83457	20777.2125
1890.96482	20756.3125
1894.09304	20733.5125
1897.21921	20719.9125
1900.34335	20696.5125
1903.46544	20611.3125
1906.58551	20642.4125
1909.70353	20572.7125
1912.81953	20513.0125
1915.93349	20491.3125
1919.04543	20410.8125
1922.15534	20347.3125
1925.26322	20295.7125
1928.36908	20247.9125
1931.47292	20198.6125
1934.57473	20152.7125
1937.67453	20066.8125
1940.77232	20028.5125
1943.86808	19939.7125
1946.96184	19911.5125
1950.05358	19851.5125
1953.14331	19775.9125
1956.23103	19691.9125
1959.31675	19632.0125
1962.40046	19570.9125
1965.48217	19516.3125
1968.56188	19402.9125
1971.63959	19367.3125
1974.7153	19306.9125
1977.78901	19247.7125
1980.86073	19143.6125
1983.93046	19086.7125
1986.99819	18986.1125
1990.06394	18951.2125
1993.1277	18897.2125
1996.18947	18860.3125
1999.24925	18822.6125
2002.30706	18717.0125
2005.36288	18675.4125
2008.41672	18613.1125
2011.46859	18535.2125
2014.51848	18479.6125
2017.56639	18452.0125
2020.61233	18380.5125
2023.6563	18305.0125
2026.6983	18255.6125
2029.73833	18167.6125
2032.7764	18141.0125
2035.8125	18079.7125
2038.84664	18057.6125
2041.87881	18020.8125
2044.90903	17959.4125
2047.93729	17950.8125
2050.96359	17915.7125
2053.98794	17866.6125
2057.01034	17850.9125
2060.03078	17813.1125
2063.04927	17782.1125
2066.06582	17804.3125
2069.08042	17777.9125
2072.09307	17745.2125
2075.10378	17713.7125
2078.11255	17722.8125
2081.11938	17715.2125
2084.12426	17652.5125
2087.12722	17703.9125
2090.12824	17649.5125
2093.12732	17665.4125
2096.12447	17642.3125
2099.11969	17627.4125
2102.11299	17647.9125
2105.10435	17627.0125
2108.09379	17619.9125
2111.08131	17593.1125
2114.0669	17626.8125
2117.05057	17631.9125
2120.03233	17675.1125
2123.01216	17638.6125
2125.99008	17663.0125
2128.96609	17679.1125
2131.94018	17679.4125
2134.91236	17668.5125
2137.88263	17649.6125
2140.851	17678.9125
2143.81746	17654.6125
2146.78201	17660.0125
2149.74466	17615.3125
2152.7054	17569.8125
2155.66425	17572.3125
2158.6212	17566.4125
2161.57625	17547.0125
2164.52941	17538.9125
2167.48067	17542.2125
2170.43004	17493.0125
2173.37752	17487.2125
2176.32311	17469.9125
2179.26681	17495.5125
2182.20863	17489.7125
2185.14856	17494.1125
2188.08661	17463.0125
2191.02278	17481.3125
2193.95707	17450.0125
2196.88948	17408.3125
2199.82001	17367.4125
2202.74867	17312.7125
2205.67545	17324.4125
2208.60037	17299.1125
2211.52341	17258.3125
2214.44458	17248.9125
2217.36388	17193.6125
2220.28132	17160.5125
2223.1969	17081.3125
2226.11061	17073.6125
2229.02246	17001.0125
2231.93245	17021.6125
2234.84058	16967.0125
2237.74686	16936.7125
2240.65128	16921.2125
2243.55385	16888.1125
2246.45456	16871.2125
2249.35343	16802.2125
2252.25044	16765.6125
2255.14561	16734.5125
2258.03893	16704.7125
2260.93041	16644.3125
2263.82004	16579.9125
2266.70783	16543.9125
2269.59378	16480.7125
2272.4779	16431.1125
2275.36017	16405.4125
2278.24061	16365.6125
2281.11922	16304.1125
2283.996	16248.2125
2286.87094	16259.2125
2289.74405	16228.0125
2292.61534	16181.4125
2295.4848	16160.9125
2298.35243	16175.2125
2301.21824	16138.5125
2304.08223	16120.6125
2306.94439	16106.7125
2309.80474	16099.9125
2312.66327	16110.5125
2315.51999	16047.3125
2318.37489	16028.0125
2321.22797	15986.5125
2324.07925	15971.8125
2326.92871	15906.1125
2329.77637	15904.2125
2332.62222	15888.2125
2335.46626	15851.2125
2338.3085	15829.3125
2341.14893	15835.2125
2343.98756	15819.1125
2346.8244	15829.2125
2349.65943	15782.4125
2352.49267	15799.5125
2355.32411	15813.8125
2358.15376	15795.2125
2360.98161	15784.8125
2363.80768	15760.2125
2366.63195	15757.2125
2369.45444	15744.3125
2372.27514	15716.7125
2375.09405	15708.1125
2377.91118	15668.2125
2380.72652	15613.6125
2383.54009	15577.1125
2386.35187	15561.0125
2389.16188	15508.8125
2391.97011	15499.7125
2394.77657	15436.5125
2397.58125	15420.2125
2400.38416	15415.5125
2403.18529	15364.9125
2405.98466	15357.2125
2408.78226	15300.0125
2411.57809	15318.1125
2414.37216	15292.1125
2417.16446	15287.6125
2419.955	15253.8125
2422.74378	15219.3125
2425.5308	15176.8125
2428.31606	15200.1125
2431.09956	15190.1125
2433.88131	15165.4125
2436.6613	15185.0125
2439.43954	15143.4125
2442.21603	15139.3125
2444.99077	15138.9125
2447.76377	15103.0125
2450.53501	15077.9125
2453.30451	15089.2125
2456.07226	15053.3125
2458.83827	15049.5125
2461.60254	15014.3125
2464.36507	15000.3125
2467.12586	14965.4125
2469.88492	14997.7125
2472.64224	14990.1125
2475.39782	15010.9125
2478.15167	15020.0125
2480.90379	14977.8125
2483.65417	14979.2125
2486.40283	14961.7125
2489.14976	15001.2125
2491.89497	14949.2125
2494.63845	14994.9125
2497.3802	14963.1125
2500.12024	14955.4125
2502.85855	14920.4125
2505.59514	14905.4125
2508.33002	14885.7125
2511.06318	14876.4125
2513.79462	14859.1125
2516.52435	14834.6125
2519.25237	14860.5125
2521.97867	14838.0125
2524.70327	14788.6125
2527.42616	14805.3125
2530.14734	14798.9125
2532.86681	14791.5125
2535.58458	14782.3125
2538.30065	14753.6125
2541.01501	14734.8125
2543.72768	14705.0125
2546.43864	14680.0125
2549.14791	14665.4125
2551.85548	14660.0125
2554.56136	14615.2125
2557.26554	14591.0125
2559.96803	14584.2125
2562.66883	14551.5125
2565.36794	14546.1125
2568.06536	14500.8125
2570.7611	14484.9125
2573.45514	14458.3125
2576.14751	14454.2125
2578.83819	14420.3125
2581.52719	14435.3125
2584.21451	14416.4125
2586.90015	14415.1125
2589.58411	14385.4125
2592.2664	14363.0125
2594.94701	14339.1125
2597.62594	14356.0125
2600.30321	14289.5125
2602.9788	14321.2125
2605.65273	14295.3125
2608.32498	14304.7125
2610.99557	14301.4125
2613.66449	14302.8125
2616.33175	14257.8125
2618.99734	14279.5125
2621.66128	14239.8125
2624.32355	14240.1125
2626.98416	14207.0125
2629.64311	14190.5125
2632.30041	14214.9125
2634.95605	14155.4125
2637.61004	14177.0125
2640.26238	14143.9125
2642.91306	14175.5125
2645.56209	14125.6125
2648.20948	14162.2125
2650.85521	14141.4125
2653.4993	14156.8125
2656.14175	14139.5125
2658.78255	14168.9125
2661.42171	14182.8125
2664.05923	14164.9125
2666.6951	14152.2125
2669.32934	14200.5125
2671.96194	14162.9125
2674.59291	14221.5125
2677.22224	14216.0125
2679.84993	14193.4125
2682.476	14160.1125
2685.10043	14153.1125
2687.72324	14134.2125
2690.34441	14156.1125
2692.96396	14128.4125
2695.58188	14152.5125
2698.19818	14136.6125
2700.81285	14144.0125
2703.4259	14165.3125
2706.03733	14185.6125
2708.64714	14163.2125
2711.25533	14189.7125
2713.86191	14154.0125
2716.46687	14177.2125
2719.07021	14176.1125
2721.67194	14174.3125
2724.27206	14158.8125
2726.87057	14208.6125
2729.46747	14197.4125
2732.06276	14199.4125
2734.65644	14194.1125
2737.24852	14179.5125
2739.83899	14165.0125
2742.42786	14165.3125
2745.01513	14141.8125
2747.60079	14133.3125
2750.18486	14115.9125
2752.76733	14099.6125
2755.3482	14074.6125
2757.92747	14092.4125
2760.50515	14059.9125
2763.08123	14070.7125
2765.65573	14065.1125
2768.22863	14060.3125
2770.79994	14018.3125
2773.36967	14032.5125
2775.9378	14004.0125
2778.50435	13995.1125
2781.06932	14003.1125
2783.6327	14004.1125
2786.1945	13982.4125
2788.75471	13962.0125
2791.31335	13948.2125
2793.87041	13953.5125
2796.42589	13896.9125
2798.97979	13902.9125
2801.53212	13854.0125
2804.08288	13815.4125
2806.63206	13790.4125
2809.17967	13755.9125
2811.72571	13742.2125
2814.27018	13717.0125
2816.81308	13657.5125
2819.35442	13640.6125
2821.89419	13616.0125
2824.43239	13647.6125
2826.96904	13624.6125
2829.50412	13621.1125
2832.03763	13545.2125
2834.56959	13566.2125
2837.1	13541.7125
2839.62884	13544.9125
2842.15613	13533.5125
2844.68186	13569.5125
2847.20604	13552.2125
2849.72867	13579.6125
2852.24974	13552.0125
2854.76927	13555.2125
2857.28724	13581.1125
2859.80367	13518.2125
2862.31855	13511.1125
2864.83189	13479.5125
2867.34368	13460.6125
2869.85393	13430.9125
2872.36264	13365.1125
2874.8698	13362.7125
2877.37543	13334.7125
2879.87952	13328.6125
2882.38207	13360.4125
2884.88308	13306.7125
2887.38256	13304.1125
2889.88051	13299.9125
2892.37692	13316.6125
2894.8718	13314.6125
2897.36515	13333.7125
2899.85698	13316.5125
2902.34727	13348.6125
2904.83604	13340.2125
2907.32328	13352.7125
2909.809	13368.4125
2912.29319	13371.3125
2914.77587	13375.5125
2917.25702	13368.7125
2919.73665	13344.9125
2922.21476	13368.8125
2924.69136	13321.3125
2927.16644	13344.7125
2929.64	13272.8125
2932.11205	13286.4125
2934.58258	13259.2125
2937.05161	13270.7125
2939.51912	13243.9125
2941.98513	13240.9125
2944.44962	13189.4125
2946.91261	13130.6125
2949.37409	13152.7125
2951.83407	13126.2125
2954.29254	13091.3125
2956.74951	13091.1125
2959.20498	13068.1125
2961.65895	13057.9125
2964.11142	13029.8125
2966.56239	13022.0125
2969.01186	13025.5125
2971.45984	13018.9125
2973.90632	13002.1125
2976.35131	12986.4125
2978.7948	12948.9125
2981.23681	12905.1125
2983.67732	12883.2125
2986.11635	12830.0125
2988.55388	12814.5125
2990.98993	12774.2125
2993.4245	12716.0125
2995.85758	12658.4125
2998.28917	12634.2125
3000.71928	12600.5125
3003.14791	12580.1125
3005.57506	12546.2125
3008.00073	12506.5125
3010.42493	12409.9125
3012.84764	12452.4125
3015.26888	12462.8125
3017.68865	12407.9125
3020.10694	12380.1125
3022.52376	12373.4125
3024.9391	12352.6125
3027.35298	12294.7125
3029.76539	12282.7125
3032.17632	12238.3125
3034.5858	12269.1125
3036.9938	12241.5125
3039.40034	12227.8125
3041.80542	12234.9125
3044.20903	12197.0125
3046.61118	12197.7125
3049.01187	12140.0125
3051.4111	12150.9125
3053.80888	12116.4125
3056.20519	12099.6125
3058.60005	12046.2125
3060.99345	12031.3125
3063.3854	11970.3125
3065.7759	11936.5125
3068.16494	11864.9125
3070.55254	11830.7125
3072.93868	11788.3125
3075.32338	11771.2125
3077.70662	11714.2125
3080.08842	11709.1125
3082.46878	11683.3125
3084.84769	11666.6125
3087.22515	11643.1125
3089.60118	11635.0125
3091.97576	11622.6125
3094.3489	11590.3125
3096.72061	11593.8125
3099.09087	11570.1125
3101.4597	11567.9125
3103.82709	11583.3125
3106.19305	11564.3125
3108.55757	11535.5125
3110.92066	11478.1125
3113.28232	11476.3125
3115.64255	11443.4125
3118.00134	11453.6125
3120.35871	11438.0125
3122.71466	11413.5125
3125.06917	11333.9125
3127.42226	11279.0125
3129.77393	11281.8125
3132.12417	11243.1125
3134.47299	11274.0125
3136.82039	11249.4125
3139.16636	11237.9125
3141.51092	11228.7125
3143.85406	11211.1125
3146.19579	11188.7125
3148.53609	11193.7125
3150.87499	11201.4125
3153.21246	11187.4125
3155.54853	11203.8125
3157.88318	11196.4125
3160.21642	11173.4125
3162.54826	11203.9125
3164.87868	11212.2125
3167.2077	11167.7125
3169.5353	11178.1125
3171.86151	11175.7125
3174.18631	11150.9125
3176.5097	11159.3125
3178.83169	11129.2125
3181.15228	11137.6125
3183.47147	11103.8125
3185.78926	11076.8125
3188.10565	11025.0125
3190.42065	11014.8125
3192.73424	10993.4125
3195.04645	10972.5125
3197.35725	10969.2125
3199.66667	10948.9125
3201.97469	10937.7125
3204.28132	10941.5125
3206.58656	10908.3125
3208.8904	10928.2125
3211.19287	10913.3125
3213.49394	10911.2125
3215.79363	10931.1125
3218.09193	10923.8125
3220.38884	10899.8125
3222.68438	10909.9125
3224.97853	10883.2125
3227.2713	10874.5125
3229.56269	10854.2125
3231.8527	10848.5125
3234.14133	10827.6125
3236.42858	10779.0125
3238.71446	10781.1125
3240.99896	10751.9125
3243.28209	10742.9125
3245.56384	10702.3125
3247.84423	10689.9125
3250.12324	10677.1125
3252.40088	10633.3125
3254.67715	10628.5125
3256.95205	10626.6125
3259.22558	10622.6125
3261.49775	10594.6125
3263.76855	10574.7125
3266.03799	10533.8125
3268.30606	10525.3125
3270.57277	10512.5125
3272.83812	10442.1125
3275.10211	10441.2125
3277.36474	10448.2125
3279.62601	10438.4125
3281.88593	10411.8125
3284.14448	10418.2125
3286.40168	10416.0125
3288.65753	10405.0125
3290.91202	10404.7125
3293.16516	10384.3125
3295.41695	10315.2125
3297.66738	10275.0125
3299.91647	10218.9125
3302.16421	10148.2125
3304.4106	10091.3125
3306.65564	10011.8125
3308.89933	9933.2125
3311.14169	9867.3125
3313.38269	9761.4125
3315.62236	9702.9125
3317.86068	9589.2125
3320.09766	9500.4125
3322.3333	9453.7125
3324.5676	9399.3125
3326.80056	9250.5125
3329.03219	9175.7125
3331.26248	2.2125
3333.49143	-2.2875
3335.71905	-0.5875
