Data from AgNPs_FTO_APTES_UA_5uM_CRN_2uM_R6G_10uM_NaF_0.1M_Addition_RamanShift__5__11-02-46-617.txt Node

Date: Mon Feb 07 11:02:46 GMT 2022
User: TCL
Spectrometer: QEP01345
Trigger mode: 4
Integration Time (sec): 7.000000E0
Scans to average: 10
Electric dark correction enabled: true
Nonlinearity correction enabled: false
Boxcar width: 0
XAxis mode: Raman Shifts
Number of Pixels in Spectrum: 1044
>>>>>Begin Spectral Data<<<<<
46.04893	-1.0125
50.45542	-1.9125
54.85868	-0.9125
59.25871	0.4875
63.6555	102.5875
68.04907	110.1875
72.43941	116.6875
76.82654	116.2875
81.21044	123.2875
85.59113	124.7875
89.96862	130.8875
94.34289	132.1875
98.71396	134.7875
103.08183	144.8875
107.4465	148.2875
111.80798	150.1875
116.16626	150.3875
120.52136	161.1875
124.87327	166.6875
129.222	179.0875
133.56755	190.0875
137.90993	207.1875
142.24913	224.6875
146.58517	258.7875
150.91804	300.7875
155.24774	360.2875
159.57429	456.2875
163.89768	586.7875
168.21792	779.2875
172.53501	1068.1875
176.84895	1481.7875
181.15975	2079.2875
185.46741	2912.8875
189.77193	4008.3875
194.07331	5369.1875
198.37157	6883.8875
202.6667	8530.1875
206.9587	10112.1875
211.24758	11702.2875
215.53334	13315.0875
219.81599	15013.9875
224.09553	16984.8875
228.37195	19092.3875
232.64527	21338.6875
236.91549	23718.5875
241.18261	26016.9875
245.44663	28122.4875
249.70755	29965.9875
253.96539	31576.5875
258.22014	32941.5875
262.4718	34087.2875
266.72039	34870.3875
270.96589	35232.5875
275.20832	35228.6875
279.44768	34961.1875
283.68397	34623.5875
287.91719	34360.4875
292.14735	34239.5875
296.37445	34220.4875
300.59849	34366.0875
304.81948	34631.1875
309.03742	34753.6875
313.25231	34587.6875
317.46415	34082.5875
321.67296	33383.3875
325.87872	32704.8875
330.08145	32325.1875
334.28114	32206.5875
338.47781	32363.9875
342.67145	32718.7875
346.86207	33242.3875
351.04966	33854.8875
355.23424	34629.0875
359.4158	35286.1875
363.59435	35812.2875
367.76989	36156.2875
371.94243	36396.1875
376.11196	36512.7875
380.27849	36636.1875
384.44203	36807.4875
388.60257	37213.8875
392.76012	37634.8875
396.91468	38129.4875
401.06626	38728.0875
405.21485	39319.2875
409.36047	39207.5875
413.50311	39049.3875
417.64277	39176.1875
421.77947	39651.8875
425.9132	40003.5875
430.04396	40259.4875
434.17176	40342.4875
438.2966	40406.8875
442.41849	40953.9875
446.53742	42274.5875
450.6534	43877.3875
454.76644	44843.4875
458.87653	44953.5875
462.98368	44295.5875
467.08789	43286.1875
471.18916	42229.9875
475.2875	41028.9875
479.38291	40387.6875
483.4754	40147.5875
487.56496	39794.7875
491.6516	39331.0875
495.73531	38881.4875
499.81612	38637.7875
503.89401	38956.3875
507.96899	39122.6875
512.04106	38952.2875
516.11023	38418.2875
520.1765	37759.1875
524.23987	37271.5875
528.30034	36933.6875
532.35792	36544.0875
536.41261	35924.3875
540.46441	35219.1875
544.51333	35050.8875
548.55936	35464.4875
552.60252	36406.9875
556.64279	37627.9875
560.6802	38641.8875
564.71473	39217.5875
568.7464	40022.8875
572.7752	41573.2875
576.80114	43548.1875
580.82422	45812.0875
584.84444	48935.6875
588.86181	52646.6875
592.87633	55452.5875
596.888	54397.2875
600.89682	50115.2875
604.9028	47896.3875
608.90594	50331.4875
612.90624	53316.7875
616.90371	49647.9875
620.89834	41527.3875
624.89015	37812.5875
628.87913	37356.5875
632.86528	37287.7875
636.84862	36745.2875
640.82913	35703.2875
644.80683	34564.8875
648.78172	34041.0875
652.75379	34163.1875
656.72306	34748.4875
660.68952	35221.4875
664.65319	34835.0875
668.61405	34117.6875
672.57211	34026.2875
676.52738	34326.0875
680.47986	34246.1875
684.42955	33776.2875
688.37646	33558.9875
692.32058	34009.1875
696.26192	34871.7875
700.20048	35737.6875
704.13626	36174.7875
708.06928	36054.5875
711.99952	35760.8875
715.927	35949.9875
719.85171	36324.0875
723.77365	36172.1875
727.69284	35306.4875
731.60928	34508.5875
735.52295	34241.1875
739.43388	34233.0875
743.34206	34445.2875
747.24749	34801.0875
751.15017	35249.5875
755.05012	36063.3875
758.94733	37192.8875
762.8418	39191.4875
766.73354	41922.4875
770.62254	44193.2875
774.50882	44229.6875
778.39237	41945.8875
782.27321	39031.9875
786.15132	36697.0875
790.02671	35240.7875
793.89938	34658.0875
797.76935	34481.8875
801.6366	34610.8875
805.50115	34552.2875
809.36299	34379.0875
813.22213	33922.9875
817.07857	33579.8875
820.93231	33266.5875
824.78336	32997.5875
828.63172	32788.0875
832.47738	32729.1875
836.32036	32882.1875
840.16066	33116.3875
843.99827	33352.0875
847.8332	33301.5875
851.66546	33048.7875
855.49504	32976.1875
859.32195	32894.5875
863.1462	32783.6875
866.96777	32595.1875
870.78668	32470.5875
874.60293	32391.1875
878.41652	32447.7875
882.22745	32637.3875
886.03573	32822.3875
889.84136	32801.0875
893.64433	32551.2875
897.44466	32365.4875
901.24235	32265.8875
905.0374	32136.5875
908.8298	32125.3875
912.61957	32185.1875
916.40671	32602.0875
920.19121	33350.2875
923.97308	34094.4875
927.75233	34506.3875
931.52895	34126.0875
935.30295	33354.9875
939.07433	32509.8875
942.84309	31957.8875
946.60924	31766.5875
950.37278	31711.4875
954.13371	31728.7875
957.89203	31561.8875
961.64774	31486.4875
965.40086	31531.1875
969.15137	31551.1875
972.89929	31287.8875
976.64461	31250.9875
980.38733	31286.8875
984.12747	31468.7875
987.86502	31817.7875
991.59999	32221.6875
995.33237	33076.1875
999.06217	34468.5875
1002.78939	36067.6875
1006.51404	37278.4875
1010.23611	38041.6875
1013.95561	38490.1875
1017.67255	38409.1875
1021.38692	37608.2875
1025.09872	36877.7875
1028.80796	37113.4875
1032.51465	38647.6875
1036.21877	40382.7875
1039.92035	40794.6875
1043.61937	40198.5875
1047.31584	38785.9875
1051.00976	37166.6875
1054.70114	36209.3875
1058.38998	35873.4875
1062.07627	35852.8875
1065.76003	36057.5875
1069.44126	36476.1875
1073.11995	37259.1875
1076.79611	37981.4875
1080.46974	38399.7875
1084.14085	38808.8875
1087.80943	39425.3875
1091.47549	39821.2875
1095.13903	39714.9875
1098.80005	38964.2875
1102.45857	37719.2875
1106.11456	36848.0875
1109.76805	36452.2875
1113.41903	36424.0875
1117.06751	36472.7875
1120.71348	36739.8875
1124.35696	37125.1875
1127.99793	37649.7875
1131.63641	38042.7875
1135.2724	38164.0875
1138.90589	38183.2875
1142.5369	38478.3875
1146.16542	38897.0875
1149.79145	39416.3875
1153.415	39913.3875
1157.03607	40877.2875
1160.65467	42783.5875
1164.27079	45907.2875
1167.88443	49353.3875
1171.49561	52530.6875
1175.10432	56189.8875
1178.71056	61210.4875
1182.31434	66107.8875
1185.91565	68425.3875
1189.51451	67345.4875
1193.11091	64509.5875
1196.70485	61573.7875
1200.29634	59199.2875
1203.88538	58049.6875
1207.47197	57944.0875
1211.05612	57696.1875
1214.63782	56447.3875
1218.21708	54653.4875
1221.79391	52868.9875
1225.36829	51647.2875
1228.94024	50459.1875
1232.50976	48987.8875
1236.07685	47580.8875
1239.6415	46780.2875
1243.20374	46745.5875
1246.76355	47284.2875
1250.32093	48486.5875
1253.8759	50120.7875
1257.42845	51913.8875
1260.97859	53901.2875
1264.52631	55980.2875
1268.07163	58246.2875
1271.61453	60645.9875
1275.15503	63257.1875
1278.69312	66000.2875
1282.22882	68832.0875
1285.76211	71985.8875
1289.29301	75528.3875
1292.82151	79753.2875
1296.34761	85281.9875
1299.87133	92202.9875
1303.39266	99741.2875
1306.9116	106343.2875
1310.42815	110598.0875
1313.94233	111384.0875
1317.45412	109072.9875
1320.96354	105276.1875
1324.47058	102190.9875
1327.97525	100370.9875
1331.47754	99442.4875
1334.97747	98330.4875
1338.47502	95954.7875
1341.97022	92484.9875
1345.46305	88659.2875
1348.95352	86276.7875
1352.44163	86771.7875
1355.92738	90880.3875
1359.41078	97335.1875
1362.89183	101950.8875
1366.37053	101222.4875
1369.84688	93226.2875
1373.32088	81371.2875
1376.79254	72557.7875
1380.26186	69774.2875
1383.72883	70321.6875
1387.19347	70528.3875
1390.65578	69414.3875
1394.11575	68915.2875
1397.57339	70320.1875
1401.0287	72715.5875
1404.48168	75056.7875
1407.93234	75742.0875
1411.38068	74225.7875
1414.82669	71153.2875
1418.27039	67304.6875
1421.71177	63378.9875
1425.15083	60271.9875
1428.58758	58988.1875
1432.02203	60158.7875
1435.45416	62868.9875
1438.88399	65783.0875
1442.31151	67734.9875
1445.73673	68631.0875
1449.15965	68918.1875
1452.58027	68367.5875
1455.9986	67441.5875
1459.41463	67144.4875
1462.82837	68110.5875
1466.23982	70060.2875
1469.64898	72128.9875
1473.05586	73428.7875
1476.46045	73870.4875
1479.86276	73293.7875
1483.26279	72214.4875
1486.66054	71442.1875
1490.05602	71438.7875
1493.44922	71525.5875
1496.84016	71319.2875
1500.22882	71207.4875
1503.61521	71390.5875
1506.99934	72167.6875
1510.38121	73039.8875
1513.76081	72990.3875
1517.13816	72102.3875
1520.51324	70892.6875
1523.88607	70455.3875
1527.25665	71126.7875
1530.62498	72245.3875
1533.99105	72566.8875
1537.35488	71651.6875
1540.71647	69924.6875
1544.07581	67564.0875
1547.4329	64993.6875
1550.78776	62708.9875
1554.14038	60840.5875
1557.49077	59554.5875
1560.83892	58490.2875
1564.18484	57872.2875
1567.52853	57731.0875
1570.86999	58179.7875
1574.20922	59376.2875
1577.54624	60909.1875
1580.88103	62232.8875
1584.2136	64300.1875
1587.54395	68827.5875
1590.87208	75528.6875
1594.19801	83174.9875
1597.52172	89423.9875
1600.84321	90466.7875
1604.16251	84173.9875
1607.47959	73902.5875
1610.79447	63603.0875
1614.10715	55420.4875
1617.41763	49730.1875
1620.7259	46558.7875
1624.03199	45333.9875
1627.33587	45952.0875
1630.63757	48281.2875
1633.93707	52889.8875
1637.23439	60338.3875
1640.52951	71213.2875
1643.82246	84294.8875
1647.11321	94333.8875
1650.40179	94538.9875
1653.68819	83801.5875
1656.97241	68481.5875
1660.25446	55303.3875
1663.53433	46343.3875
1666.81203	40930.4875
1670.08756	37678.7875
1673.36092	35608.8875
1676.63211	34298.1875
1679.90115	33437.7875
1683.16801	32728.8875
1686.43272	32204.5875
1689.69527	31850.8875
1692.95567	31596.9875
1696.2139	31401.0875
1699.46999	31281.3875
1702.72392	31128.2875
1705.97571	31034.2875
1709.22535	30944.8875
1712.47284	30782.1875
1715.71819	30798.0875
1718.96139	30707.5875
1722.20246	30588.0875
1725.44139	30449.5875
1728.67818	30217.3875
1731.91284	29996.0875
1735.14537	29775.0875
1738.37576	29659.6875
1741.60403	29516.5875
1744.83017	29347.6875
1748.05418	29292.7875
1751.27607	29160.0875
1754.49584	29132.2875
1757.71349	29033.1875
1760.92903	29031.6875
1764.14244	29034.5875
1767.35375	29038.4875
1770.56294	28950.8875
1773.77002	28909.0875
1776.97499	28805.8875
1780.17785	28767.1875
1783.37861	28736.5875
1786.57727	28674.8875
1789.77382	28671.0875
1792.96828	28601.5875
1796.16064	28518.2875
1799.3509	28474.3875
1802.53907	28436.1875
1805.72514	28356.3875
1808.90913	28254.7875
1812.09102	28243.4875
1815.27083	28217.7875
1818.44856	28134.3875
1821.6242	28108.7875
1824.79776	28124.8875
1827.96924	28113.6875
1831.13864	28090.7875
1834.30597	28082.2875
1837.47122	28093.3875
1840.6344	28084.5875
1843.7955	28140.4875
1846.95454	28173.8875
1850.11151	28172.3875
1853.26642	28114.2875
1856.41926	28118.7875
1859.57004	28140.1875
1862.71876	28154.1875
1865.86542	28059.8875
1869.01003	28062.7875
1872.15258	27991.9875
1875.29308	28010.9875
1878.43152	27996.1875
1881.56792	27971.1875
1884.70227	27974.2875
1887.83457	27952.7875
1890.96482	27896.4875
1894.09304	27886.7875
1897.21921	27876.4875
1900.34335	27825.4875
1903.46544	27744.6875
1906.58551	27749.2875
1909.70353	27652.3875
1912.81953	27633.9875
1915.93349	27608.2875
1919.04543	27559.1875
1922.15534	27476.8875
1925.26322	27387.8875
1928.36908	27344.6875
1931.47292	27241.0875
1934.57473	27172.6875
1937.67453	27119.8875
1940.77232	27003.6875
1943.86808	26898.5875
1946.96184	26882.7875
1950.05358	26811.8875
1953.14331	26745.9875
1956.23103	26694.1875
1959.31675	26599.9875
1962.40046	26534.7875
1965.48217	26484.8875
1968.56188	26421.9875
1971.63959	26354.7875
1974.7153	26203.4875
1977.78901	26160.5875
1980.86073	26045.2875
1983.93046	25984.8875
1986.99819	25905.9875
1990.06394	25865.0875
1993.1277	25822.0875
1996.18947	25745.6875
1999.24925	25667.7875
2002.30706	25534.5875
2005.36288	25482.8875
2008.41672	25427.2875
2011.46859	25401.3875
2014.51848	25329.4875
2017.56639	25314.9875
2020.61233	25216.3875
2023.6563	25232.2875
2026.6983	25159.9875
2029.73833	25163.8875
2032.7764	25136.3875
2035.8125	25055.7875
2038.84664	25037.0875
2041.87881	25039.1875
2044.90903	24998.8875
2047.93729	24938.6875
2050.96359	24924.8875
2053.98794	24938.7875
2057.01034	24901.7875
2060.03078	24922.7875
2063.04927	24906.5875
2066.06582	24902.2875
2069.08042	24865.3875
2072.09307	24862.2875
2075.10378	24819.8875
2078.11255	24757.0875
2081.11938	24750.6875
2084.12426	24743.3875
2087.12722	24711.2875
2090.12824	24692.0875
2093.12732	24700.6875
2096.12447	24721.1875
2099.11969	24714.5875
2102.11299	24740.6875
2105.10435	24691.1875
2108.09379	24715.4875
2111.08131	24755.0875
2114.0669	24727.1875
2117.05057	24758.3875
2120.03233	24799.9875
2123.01216	24808.1875
2125.99008	24811.9875
2128.96609	24860.0875
2131.94018	24892.1875
2134.91236	24844.6875
2137.88263	24904.5875
2140.851	24935.5875
2143.81746	24962.7875
2146.78201	24961.5875
2149.74466	24945.8875
2152.7054	24887.2875
2155.66425	24899.6875
2158.6212	24837.1875
2161.57625	24833.8875
2164.52941	24863.3875
2167.48067	24848.0875
2170.43004	24866.1875
2173.37752	24862.5875
2176.32311	24859.1875
2179.26681	24887.4875
2182.20863	24805.6875
2185.14856	24890.8875
2188.08661	24932.8875
2191.02278	24959.3875
2193.95707	24939.6875
2196.88948	24938.4875
2199.82001	24902.6875
2202.74867	24934.1875
2205.67545	24867.0875
2208.60037	24843.6875
2211.52341	24840.3875
2214.44458	24837.2875
2217.36388	24814.9875
2220.28132	24796.5875
2223.1969	24710.7875
2226.11061	24754.5875
2229.02246	24693.5875
2231.93245	24722.0875
2234.84058	24671.6875
2237.74686	24643.4875
2240.65128	24617.9875
2243.55385	24552.4875
2246.45456	24516.5875
2249.35343	24447.1875
2252.25044	24394.6875
2255.14561	24333.3875
2258.03893	24254.1875
2260.93041	24215.0875
2263.82004	24154.9875
2266.70783	24124.7875
2269.59378	24040.3875
2272.4779	23975.2875
2275.36017	23908.7875
2278.24061	23867.2875
2281.11922	23852.7875
2283.996	23859.8875
2286.87094	23895.0875
2289.74405	23857.2875
2292.61534	23841.6875
2295.4848	23855.0875
2298.35243	23898.2875
2301.21824	23896.9875
2304.08223	23917.2875
2306.94439	23982.3875
2309.80474	24063.0875
2312.66327	24065.4875
2315.51999	24065.0875
2318.37489	23968.8875
2321.22797	24003.2875
2324.07925	24028.9875
2326.92871	24000.0875
2329.77637	23955.5875
2332.62222	23953.3875
2335.46626	23953.9875
2338.3085	23941.6875
2341.14893	23985.8875
2343.98756	24030.3875
2346.8244	24037.0875
2349.65943	24015.0875
2352.49267	23970.7875
2355.32411	23995.5875
2358.15376	23973.7875
2360.98161	23917.2875
2363.80768	23887.1875
2366.63195	23900.3875
2369.45444	23853.9875
2372.27514	23777.8875
2375.09405	23779.0875
2377.91118	23691.9875
2380.72652	23640.8875
2383.54009	23613.0875
2386.35187	23612.3875
2389.16188	23518.0875
2391.97011	23560.2875
2394.77657	23536.7875
2397.58125	23442.6875
2400.38416	23468.0875
2403.18529	23431.8875
2405.98466	23436.8875
2408.78226	23333.5875
2411.57809	23339.5875
2414.37216	23337.0875
2417.16446	23305.4875
2419.955	23274.9875
2422.74378	23257.2875
2425.5308	23218.7875
2428.31606	23220.1875
2431.09956	23236.4875
2433.88131	23191.2875
2436.6613	23247.3875
2439.43954	23277.5875
2442.21603	23240.9875
2444.99077	23217.4875
2447.76377	23234.1875
2450.53501	23212.9875
2453.30451	23200.3875
2456.07226	23172.0875
2458.83827	23215.1875
2461.60254	23229.0875
2464.36507	23252.4875
2467.12586	23233.0875
2469.88492	23254.5875
2472.64224	23282.8875
2475.39782	23364.2875
2478.15167	23398.8875
2480.90379	23383.0875
2483.65417	23407.2875
2486.40283	23433.0875
2489.14976	23454.1875
2491.89497	23453.4875
2494.63845	23498.0875
2497.3802	23493.0875
2500.12024	23507.0875
2502.85855	23463.8875
2505.59514	23463.4875
2508.33002	23442.5875
2511.06318	23440.5875
2513.79462	23423.0875
2516.52435	23356.7875
2519.25237	23447.1875
2521.97867	23416.1875
2524.70327	23450.0875
2527.42616	23423.5875
2530.14734	23404.5875
2532.86681	23471.0875
2535.58458	23457.2875
2538.30065	23446.0875
2541.01501	23451.7875
2543.72768	23425.2875
2546.43864	23445.1875
2549.14791	23393.7875
2551.85548	23399.4875
2554.56136	23377.5875
2557.26554	23402.8875
2559.96803	23375.9875
2562.66883	23396.2875
2565.36794	23400.7875
2568.06536	23383.6875
2570.7611	23445.4875
2573.45514	23439.9875
2576.14751	23431.0875
2578.83819	23413.8875
2581.52719	23442.9875
2584.21451	23454.8875
2586.90015	23482.5875
2589.58411	23460.3875
2592.2664	23404.6875
2594.94701	23403.9875
2597.62594	23420.5875
2600.30321	23389.1875
2602.9788	23439.5875
2605.65273	23463.5875
2608.32498	23476.0875
2610.99557	23506.6875
2613.66449	23519.1875
2616.33175	23491.4875
2618.99734	23511.7875
2621.66128	23514.6875
2624.32355	23467.5875
2626.98416	23496.3875
2629.64311	23493.5875
2632.30041	23496.2875
2634.95605	23474.9875
2637.61004	23440.5875
2640.26238	23418.4875
2642.91306	23417.4875
2645.56209	23368.2875
2648.20948	23411.2875
2650.85521	23461.7875
2653.4993	23483.7875
2656.14175	23410.3875
2658.78255	23494.9875
2661.42171	23505.6875
2664.05923	23526.2875
2666.6951	23575.8875
2669.32934	23623.8875
2671.96194	23621.4875
2674.59291	23643.2875
2677.22224	23624.1875
2679.84993	23656.0875
2682.476	23604.9875
2685.10043	23580.8875
2687.72324	23523.0875
2690.34441	23464.7875
2692.96396	23493.5875
2695.58188	23554.3875
2698.19818	23495.5875
2700.81285	23527.9875
2703.4259	23541.3875
2706.03733	23575.5875
2708.64714	23537.0875
2711.25533	23562.0875
2713.86191	23586.1875
2716.46687	23612.9875
2719.07021	23619.2875
2721.67194	23691.5875
2724.27206	23677.1875
2726.87057	23729.8875
2729.46747	23767.1875
2732.06276	23779.6875
2734.65644	23785.4875
2737.24852	23817.5875
2739.83899	23775.2875
2742.42786	23789.3875
2745.01513	23804.3875
2747.60079	23800.2875
2750.18486	23781.2875
2752.76733	23769.5875
2755.3482	23765.0875
2757.92747	23801.9875
2760.50515	23752.3875
2763.08123	23795.3875
2765.65573	23788.2875
2768.22863	23821.2875
2770.79994	23758.8875
2773.36967	23846.5875
2775.9378	23853.3875
2778.50435	23886.1875
2781.06932	23850.4875
2783.6327	23864.2875
2786.1945	23900.0875
2788.75471	23940.5875
2791.31335	23851.7875
2793.87041	23873.5875
2796.42589	23767.4875
2798.97979	23780.1875
2801.53212	23770.6875
2804.08288	23717.0875
2806.63206	23670.4875
2809.17967	23653.5875
2811.72571	23595.4875
2814.27018	23594.1875
2816.81308	23506.2875
2819.35442	23480.3875
2821.89419	23438.2875
2824.43239	23429.1875
2826.96904	23449.6875
2829.50412	23458.6875
2832.03763	23417.6875
2834.56959	23365.8875
2837.1	23337.6875
2839.62884	23361.1875
2842.15613	23384.2875
2844.68186	23470.2875
2847.20604	23446.8875
2849.72867	23471.7875
2852.24974	23473.3875
2854.76927	23437.9875
2857.28724	23426.1875
2859.80367	23445.6875
2862.31855	23425.3875
2864.83189	23365.5875
2867.34368	23336.5875
2869.85393	23314.1875
2872.36264	23258.6875
2874.8698	23253.9875
2877.37543	23298.2875
2879.87952	23304.4875
2882.38207	23298.2875
2884.88308	23318.4875
2887.38256	23311.2875
2889.88051	23353.9875
2892.37692	23392.5875
2894.8718	23460.4875
2897.36515	23456.8875
2899.85698	23455.9875
2902.34727	23527.1875
2904.83604	23538.1875
2907.32328	23597.1875
2909.809	23618.5875
2912.29319	23626.7875
2914.77587	23619.8875
2917.25702	23605.4875
2919.73665	23566.4875
2922.21476	23570.7875
2924.69136	23537.0875
2927.16644	23548.8875
2929.64	23499.3875
2932.11205	23451.7875
2934.58258	23384.1875
2937.05161	23420.9875
2939.51912	23422.9875
2941.98513	23428.8875
2944.44962	23360.7875
2946.91261	23309.1875
2949.37409	23370.4875
2951.83407	23325.8875
2954.29254	23299.9875
2956.74951	23262.6875
2959.20498	23249.1875
2961.65895	23231.7875
2964.11142	23213.0875
2966.56239	23123.5875
2969.01186	23155.1875
2971.45984	23122.3875
2973.90632	23077.9875
2976.35131	23003.8875
2978.7948	22952.0875
2981.23681	22894.1875
2983.67732	22884.3875
2986.11635	22834.4875
2988.55388	22786.6875
2990.98993	22717.0875
2993.4245	22606.4875
2995.85758	22603.6875
2998.28917	22565.3875
3000.71928	22514.7875
3003.14791	22463.1875
3005.57506	22478.2875
3008.00073	22392.5875
3010.42493	22377.4875
3012.84764	22350.0875
3015.26888	22349.3875
3017.68865	22271.7875
3020.10694	22246.9875
3022.52376	22165.9875
3024.9391	22159.3875
3027.35298	22188.8875
3029.76539	22136.7875
3032.17632	22131.0875
3034.5858	22089.6875
3036.9938	22074.8875
3039.40034	22087.9875
3041.80542	22083.1875
3044.20903	22051.2875
3046.61118	22071.8875
3049.01187	22003.4875
3051.4111	21996.6875
3053.80888	21970.5875
3056.20519	21952.2875
3058.60005	21900.5875
3060.99345	21845.2875
3063.3854	21763.7875
3065.7759	21721.5875
3068.16494	21618.0875
3070.55254	21557.6875
3072.93868	21519.0875
3075.32338	21466.9875
3077.70662	21422.2875
3080.08842	21379.9875
3082.46878	21355.3875
3084.84769	21303.3875
3087.22515	21266.0875
3089.60118	21267.6875
3091.97576	21264.6875
3094.3489	21276.8875
3096.72061	21229.5875
3099.09087	21235.8875
3101.4597	21183.0875
3103.82709	21204.8875
3106.19305	21145.1875
3108.55757	21117.3875
3110.92066	21079.6875
3113.28232	21098.9875
3115.64255	20993.9875
3118.00134	20975.6875
3120.35871	20951.5875
3122.71466	20913.9875
3125.06917	20829.0875
3127.42226	20798.3875
3129.77393	20811.9875
3132.12417	20778.3875
3134.47299	20731.3875
3136.82039	20755.4875
3139.16636	20709.6875
3141.51092	20701.6875
3143.85406	20683.2875
3146.19579	20691.8875
3148.53609	20705.8875
3150.87499	20674.0875
3153.21246	20677.2875
3155.54853	20696.6875
3157.88318	20641.6875
3160.21642	20690.0875
3162.54826	20672.1875
3164.87868	20678.6875
3167.2077	20666.7875
3169.5353	20617.9875
3171.86151	20659.3875
3174.18631	20629.2875
3176.5097	20640.4875
3178.83169	20629.6875
3181.15228	20634.3875
3183.47147	20558.8875
3185.78926	20549.6875
3188.10565	20507.8875
3190.42065	20473.6875
3192.73424	20492.4875
3195.04645	20491.5875
3197.35725	20496.4875
3199.66667	20402.6875
3201.97469	20427.3875
3204.28132	20380.6875
3206.58656	20399.0875
3208.8904	20369.3875
3211.19287	20418.4875
3213.49394	20432.5875
3215.79363	20435.1875
3218.09193	20366.5875
3220.38884	20419.4875
3222.68438	20424.7875
3224.97853	20369.5875
3227.2713	20391.1875
3229.56269	20358.0875
3231.8527	20367.1875
3234.14133	20294.9875
3236.42858	20299.0875
3238.71446	20302.3875
3240.99896	20274.0875
3243.28209	20274.9875
3245.56384	20245.1875
3247.84423	20223.7875
3250.12324	20180.1875
3252.40088	20130.9875
3254.67715	20095.6875
3256.95205	20079.2875
3259.22558	20078.7875
3261.49775	20029.9875
3263.76855	20011.2875
3266.03799	19961.3875
3268.30606	19895.9875
3270.57277	19858.7875
3272.83812	19859.5875
3275.10211	19821.6875
3277.36474	19834.8875
3279.62601	19795.8875
3281.88593	19767.2875
3284.14448	19802.1875
3286.40168	19815.1875
3288.65753	19814.6875
3290.91202	19781.0875
3293.16516	19753.4875
3295.41695	19705.3875
3297.66738	19603.3875
3299.91647	19535.4875
3302.16421	19398.1875
3304.4106	19272.4875
3306.65564	19136.9875
3308.89933	18990.1875
3311.14169	18840.1875
3313.38269	18698.2875
3315.62236	18638.0875
3317.86068	18483.7875
3320.09766	18315.6875
3322.3333	18188.2875
3324.5676	18118.3875
3326.80056	17824.4875
3329.03219	17719.8875
3331.26248	4.4875
3333.49143	-1.3125
3335.71905	-0.4125
