Data from AgNPs_FTO_APTES_UA_5uM_CRN_200uM_R6G_10uM_NaF_0.1M_Addition_RamanShift__22__16-25-31-790.txt Node

Date: Mon Feb 07 16:25:31 GMT 2022
User: TCL
Spectrometer: QEP01345
Trigger mode: 4
Integration Time (sec): 7.000000E0
Scans to average: 10
Electric dark correction enabled: true
Nonlinearity correction enabled: false
Boxcar width: 0
XAxis mode: Raman Shifts
Number of Pixels in Spectrum: 1044
>>>>>Begin Spectral Data<<<<<
46.04893	-1.5625
50.45542	-0.7625
54.85868	-0.6625
59.25871	-0.8625
63.6555	73.5375
68.04907	79.0375
72.43941	86.2375
76.82654	86.3375
81.21044	87.3375
85.59113	84.0375
89.96862	96.0375
94.34289	97.3375
98.71396	96.5375
103.08183	105.4375
107.4465	104.9375
111.80798	109.9375
116.16626	110.0375
120.52136	115.4375
124.87327	120.9375
129.222	132.6375
133.56755	135.0375
137.90993	152.4375
142.24913	169.7375
146.58517	191.4375
150.91804	223.9375
155.24774	277.1375
159.57429	343.4375
163.89768	441.5375
168.21792	598.3375
172.53501	804.8375
176.84895	1145.4375
181.15975	1598.1375
185.46741	2232.5375
189.77193	3093.4375
194.07331	4150.6375
198.37157	5349.7375
202.6667	6588.7375
206.9587	7836.9375
211.24758	9089.6375
215.53334	10318.9375
219.81599	11629.3375
224.09553	13102.8375
228.37195	14701.3375
232.64527	16416.4375
236.91549	18258.9375
241.18261	20135.6375
245.44663	21780.0375
249.70755	23319.2375
253.96539	24676.7375
258.22014	25902.0375
262.4718	26825.9375
266.72039	27546.7375
270.96589	28060.1375
275.20832	28204.1375
279.44768	28238.5375
283.68397	28092.9375
287.91719	28056.3375
292.14735	28118.7375
296.37445	28340.0375
300.59849	28466.1375
304.81948	28482.1375
309.03742	28252.7375
313.25231	27701.5375
317.46415	26848.0375
321.67296	25939.4375
325.87872	25148.6375
330.08145	24799.0375
334.28114	24744.4375
338.47781	24880.6375
342.67145	25148.4375
346.86207	25512.5375
351.04966	25964.9375
355.23424	26472.4375
359.4158	26920.4375
363.59435	27167.7375
367.76989	27387.3375
371.94243	27557.8375
376.11196	27691.4375
380.27849	27822.6375
384.44203	28034.8375
388.60257	28255.9375
392.76012	28550.5375
396.91468	28821.4375
401.06626	29261.2375
405.21485	29507.0375
409.36047	29409.4375
413.50311	28956.4375
417.64277	28603.9375
421.77947	28453.5375
425.9132	28577.9375
430.04396	28814.6375
434.17176	29160.3375
438.2966	29578.5375
442.41849	30289.3375
446.53742	31214.6375
450.6534	32247.0375
454.76644	33091.7375
458.87653	33448.1375
462.98368	33259.2375
467.08789	32986.6375
471.18916	32727.8375
475.2875	32717.6375
479.38291	32799.4375
483.4754	32650.5375
487.56496	32060.5375
491.6516	31139.6375
495.73531	30325.4375
499.81612	29777.6375
503.89401	29707.4375
507.96899	29670.0375
512.04106	29514.2375
516.11023	29307.5375
520.1765	28996.1375
524.23987	28736.5375
528.30034	28533.6375
532.35792	28309.5375
536.41261	28093.4375
540.46441	27927.1375
544.51333	27944.7375
548.55936	28405.3375
552.60252	29152.6375
556.64279	30021.8375
560.6802	30684.8375
564.71473	31165.4375
568.7464	31916.9375
572.7752	32709.9375
576.80114	33060.0375
580.82422	33147.9375
584.84444	33334.7375
588.86181	33873.0375
592.87633	34619.9375
596.888	35090.6375
600.89682	34947.0375
604.9028	35215.6375
608.90594	37008.8375
612.90624	39106.8375
616.90371	36711.7375
620.89834	31108.8375
624.89015	28668.0375
628.87913	28444.1375
632.86528	28769.5375
636.84862	28864.3375
640.82913	28490.5375
644.80683	27757.9375
648.78172	27109.8375
652.75379	26837.8375
656.72306	26993.5375
660.68952	27309.7375
664.65319	27183.2375
668.61405	26766.5375
672.57211	26664.3375
676.52738	26683.5375
680.47986	26756.8375
684.42955	26673.9375
688.37646	26591.4375
692.32058	26631.5375
696.26192	26824.1375
700.20048	27050.5375
704.13626	27241.1375
708.06928	27267.5375
711.99952	27167.1375
715.927	27020.2375
719.85171	27068.2375
723.77365	27033.0375
727.69284	26831.6375
731.60928	26677.2375
735.52295	26585.0375
739.43388	26599.9375
743.34206	26642.6375
747.24749	26732.8375
751.15017	27010.3375
755.05012	27496.2375
758.94733	28353.2375
762.8418	29861.1375
766.73354	32112.6375
770.62254	34103.7375
774.50882	34483.9375
778.39237	32822.5375
782.27321	30245.9375
786.15132	28185.1375
790.02671	26970.3375
793.89938	26385.8375
797.76935	26158.7375
801.6366	26094.2375
805.50115	26087.7375
809.36299	25965.1375
813.22213	25909.9375
817.07857	25898.9375
820.93231	25945.2375
824.78336	25798.9375
828.63172	25692.3375
832.47738	25603.7375
836.32036	25528.6375
840.16066	25515.0375
843.99827	25516.9375
847.8332	25493.2375
851.66546	25347.4375
855.49504	25384.4375
859.32195	25346.9375
863.1462	25341.4375
866.96777	25245.4375
870.78668	25168.7375
874.60293	25177.9375
878.41652	25191.3375
882.22745	25213.1375
886.03573	25259.5375
889.84136	25246.3375
893.64433	25161.0375
897.44466	25054.6375
901.24235	24967.2375
905.0374	24861.9375
908.8298	24838.5375
912.61957	24950.0375
916.40671	25202.7375
920.19121	25556.5375
923.97308	25737.5375
927.75233	25675.2375
931.52895	25473.0375
935.30295	25151.8375
939.07433	24746.3375
942.84309	24402.4375
946.60924	24196.5375
950.37278	24051.9375
954.13371	24029.9375
957.89203	24028.9375
961.64774	24009.9375
965.40086	23986.4375
969.15137	23860.9375
972.89929	23669.7375
976.64461	23484.2375
980.38733	23420.0375
984.12747	23505.1375
987.86502	23648.2375
991.59999	23941.5375
995.33237	24243.3375
999.06217	24802.6375
1002.78939	25458.0375
1006.51404	25938.9375
1010.23611	26190.6375
1013.95561	26380.2375
1017.67255	26398.0375
1021.38692	26124.5375
1025.09872	25777.6375
1028.80796	25620.7375
1032.51465	25941.2375
1036.21877	26222.5375
1039.92035	26320.4375
1043.61937	26174.4375
1047.31584	25924.3375
1051.00976	25669.0375
1054.70114	25639.3375
1058.38998	25732.9375
1062.07627	25978.9375
1065.76003	26300.5375
1069.44126	26454.8375
1073.11995	26713.1375
1076.79611	26900.4375
1080.46974	27051.7375
1084.14085	27181.4375
1087.80943	27438.8375
1091.47549	27651.3375
1095.13903	27755.6375
1098.80005	27505.6375
1102.45857	27033.0375
1106.11456	26605.6375
1109.76805	26481.3375
1113.41903	26679.8375
1117.06751	26933.8375
1120.71348	27296.3375
1124.35696	27693.7375
1127.99793	28085.2375
1131.63641	28276.7375
1135.2724	28011.6375
1138.90589	27792.3375
1142.5369	27692.3375
1146.16542	27849.3375
1149.79145	28175.3375
1153.415	28598.6375
1157.03607	29164.9375
1160.65467	30061.8375
1164.27079	31381.8375
1167.88443	33064.5375
1171.49561	35229.7375
1175.10432	37967.5375
1178.71056	41309.0375
1182.31434	44290.4375
1185.91565	45892.0375
1189.51451	45990.6375
1193.11091	45071.4375
1196.70485	43618.8375
1200.29634	42018.4375
1203.88538	40529.9375
1207.47197	39445.3375
1211.05612	38615.3375
1214.63782	37778.7375
1218.21708	36986.7375
1221.79391	36330.8375
1225.36829	35642.9375
1228.94024	34943.9375
1232.50976	34109.7375
1236.07685	33487.1375
1239.6415	33219.1375
1243.20374	33324.1375
1246.76355	33626.5375
1250.32093	34045.7375
1253.8759	34673.3375
1257.42845	35574.4375
1260.97859	36501.4375
1264.52631	37311.6375
1268.07163	38209.9375
1271.61453	39179.0375
1275.15503	40360.3375
1278.69312	41628.6375
1282.22882	42789.6375
1285.76211	44171.8375
1289.29301	45992.6375
1292.82151	48403.4375
1296.34761	51455.6375
1299.87133	54885.5375
1303.39266	58315.9375
1306.9116	61664.2375
1310.42815	64647.0375
1313.94233	66649.5375
1317.45412	67210.5375
1320.96354	66839.5375
1324.47058	66267.5375
1327.97525	65481.8375
1331.47754	64931.3375
1334.97747	64725.7375
1338.47502	64688.3375
1341.97022	64459.1375
1345.46305	63429.6375
1348.95352	61771.5375
1352.44163	60078.9375
1355.92738	59453.6375
1359.41078	60365.7375
1362.89183	61606.6375
1366.37053	60330.7375
1369.84688	55784.2375
1373.32088	50465.6375
1376.79254	47040.1375
1380.26186	45964.0375
1383.72883	46341.6375
1387.19347	47120.2375
1390.65578	47703.3375
1394.11575	48585.5375
1397.57339	49825.0375
1401.0287	51417.4375
1404.48168	52629.8375
1407.93234	52906.7375
1411.38068	51947.2375
1414.82669	49636.3375
1418.27039	46641.5375
1421.71177	43655.5375
1425.15083	41169.4375
1428.58758	39746.8375
1432.02203	39679.7375
1435.45416	40522.6375
1438.88399	41800.2375
1442.31151	43187.6375
1445.73673	44300.3375
1449.15965	45462.8375
1452.58027	46593.4375
1455.9986	47455.9375
1459.41463	48144.0375
1462.82837	48866.4375
1466.23982	49513.6375
1469.64898	49968.0375
1473.05586	49956.2375
1476.46045	49579.0375
1479.86276	48795.8375
1483.26279	47798.1375
1486.66054	46852.6375
1490.05602	46399.9375
1493.44922	46180.0375
1496.84016	45971.1375
1500.22882	46257.9375
1503.61521	47125.9375
1506.99934	48483.6375
1510.38121	49964.7375
1513.76081	50536.6375
1517.13816	49742.2375
1520.51324	48166.4375
1523.88607	46809.2375
1527.25665	46236.2375
1530.62498	46259.9375
1533.99105	46415.9375
1537.35488	46588.8375
1540.71647	46142.1375
1544.07581	45299.0375
1547.4329	44230.6375
1550.78776	43170.5375
1554.14038	42457.7375
1557.49077	42071.2375
1560.83892	41890.8375
1564.18484	41843.0375
1567.52853	41939.5375
1570.86999	42210.9375
1574.20922	42940.5375
1577.54624	43895.8375
1580.88103	44372.6375
1584.2136	45188.2375
1587.54395	46663.1375
1590.87208	48936.8375
1594.19801	51711.9375
1597.52172	54265.6375
1600.84321	55030.2375
1604.16251	52784.4375
1607.47959	48637.8375
1610.79447	44051.5375
1614.10715	39786.4375
1617.41763	36305.4375
1620.7259	33866.3375
1624.03199	32619.5375
1627.33587	32396.8375
1630.63757	33364.4375
1633.93707	35551.5375
1637.23439	39233.6375
1640.52951	44444.2375
1643.82246	50304.8375
1647.11321	54909.4375
1650.40179	55884.9375
1653.68819	52272.2375
1656.97241	45519.2375
1660.25446	38594.1375
1663.53433	33173.2375
1666.81203	29482.5375
1670.08756	27179.3375
1673.36092	25725.8375
1676.63211	24813.0375
1679.90115	24151.8375
1683.16801	23664.6375
1686.43272	23271.7375
1689.69527	22992.9375
1692.95567	22822.6375
1696.2139	22629.3375
1699.46999	22504.7375
1702.72392	22366.5375
1705.97571	22274.1375
1709.22535	22210.7375
1712.47284	22142.3375
1715.71819	22076.0375
1718.96139	22022.0375
1722.20246	21913.9375
1725.44139	21821.8375
1728.67818	21723.4375
1731.91284	21603.7375
1735.14537	21457.9375
1738.37576	21361.9375
1741.60403	21275.3375
1744.83017	21196.4375
1748.05418	21143.9375
1751.27607	21156.3375
1754.49584	21151.1375
1757.71349	21078.2375
1760.92903	21020.2375
1764.14244	20982.4375
1767.35375	20966.6375
1770.56294	20914.0375
1773.77002	20858.5375
1776.97499	20804.4375
1780.17785	20778.7375
1783.37861	20746.9375
1786.57727	20741.2375
1789.77382	20646.9375
1792.96828	20640.6375
1796.16064	20614.8375
1799.3509	20540.8375
1802.53907	20496.0375
1805.72514	20451.4375
1808.90913	20382.8375
1812.09102	20354.8375
1815.27083	20292.0375
1818.44856	20236.2375
1821.6242	20201.6375
1824.79776	20170.9375
1827.96924	20126.4375
1831.13864	20137.3375
1834.30597	20138.0375
1837.47122	20085.3375
1840.6344	20074.8375
1843.7955	20071.8375
1846.95454	20052.4375
1850.11151	20001.3375
1853.26642	19978.8375
1856.41926	19988.0375
1859.57004	19997.8375
1862.71876	19975.8375
1865.86542	19968.9375
1869.01003	19978.8375
1872.15258	19956.9375
1875.29308	19929.7375
1878.43152	19931.8375
1881.56792	19921.8375
1884.70227	19905.7375
1887.83457	19874.6375
1890.96482	19871.9375
1894.09304	19797.3375
1897.21921	19843.4375
1900.34335	19805.9375
1903.46544	19752.1375
1906.58551	19731.0375
1909.70353	19730.9375
1912.81953	19697.0375
1915.93349	19700.8375
1919.04543	19683.9375
1922.15534	19621.5375
1925.26322	19582.2375
1928.36908	19537.9375
1931.47292	19517.9375
1934.57473	19490.3375
1937.67453	19434.5375
1940.77232	19365.3375
1943.86808	19280.7375
1946.96184	19206.8375
1950.05358	19152.2375
1953.14331	19109.4375
1956.23103	19007.9375
1959.31675	18934.9375
1962.40046	18919.0375
1965.48217	18861.4375
1968.56188	18763.3375
1971.63959	18712.5375
1974.7153	18673.5375
1977.78901	18618.3375
1980.86073	18576.4375
1983.93046	18508.9375
1986.99819	18424.9375
1990.06394	18415.2375
1993.1277	18320.2375
1996.18947	18243.4375
1999.24925	18252.8375
2002.30706	18189.0375
2005.36288	18135.4375
2008.41672	18066.6375
2011.46859	17998.5375
2014.51848	17957.7375
2017.56639	17920.2375
2020.61233	17865.7375
2023.6563	17785.3375
2026.6983	17767.2375
2029.73833	17727.7375
2032.7764	17667.4375
2035.8125	17697.9375
2038.84664	17655.8375
2041.87881	17622.2375
2044.90903	17586.2375
2047.93729	17534.7375
2050.96359	17539.1375
2053.98794	17516.7375
2057.01034	17514.8375
2060.03078	17511.9375
2063.04927	17489.0375
2066.06582	17504.3375
2069.08042	17461.6375
2072.09307	17454.3375
2075.10378	17423.8375
2078.11255	17417.8375
2081.11938	17390.2375
2084.12426	17379.6375
2087.12722	17366.0375
2090.12824	17336.1375
2093.12732	17354.9375
2096.12447	17339.3375
2099.11969	17333.6375
2102.11299	17321.2375
2105.10435	17326.4375
2108.09379	17322.2375
2111.08131	17355.7375
2114.0669	17333.8375
2117.05057	17350.6375
2120.03233	17350.5375
2123.01216	17359.4375
2125.99008	17385.6375
2128.96609	17399.3375
2131.94018	17376.6375
2134.91236	17367.5375
2137.88263	17401.4375
2140.851	17423.4375
2143.81746	17400.7375
2146.78201	17403.6375
2149.74466	17420.0375
2152.7054	17379.8375
2155.66425	17359.9375
2158.6212	17369.1375
2161.57625	17339.5375
2164.52941	17344.3375
2167.48067	17350.2375
2170.43004	17325.6375
2173.37752	17308.6375
2176.32311	17369.2375
2179.26681	17352.2375
2182.20863	17349.4375
2185.14856	17333.2375
2188.08661	17362.8375
2191.02278	17349.3375
2193.95707	17295.9375
2196.88948	17294.2375
2199.82001	17265.8375
2202.74867	17247.0375
2205.67545	17246.9375
2208.60037	17237.8375
2211.52341	17164.9375
2214.44458	17177.3375
2217.36388	17163.1375
2220.28132	17112.4375
2223.1969	17064.6375
2226.11061	17053.9375
2229.02246	17018.7375
2231.93245	16963.7375
2234.84058	16926.4375
2237.74686	16891.3375
2240.65128	16872.6375
2243.55385	16891.9375
2246.45456	16870.1375
2249.35343	16849.1375
2252.25044	16794.5375
2255.14561	16747.3375
2258.03893	16706.1375
2260.93041	16654.8375
2263.82004	16615.4375
2266.70783	16592.8375
2269.59378	16528.9375
2272.4779	16489.3375
2275.36017	16421.0375
2278.24061	16420.1375
2281.11922	16379.4375
2283.996	16364.5375
2286.87094	16348.5375
2289.74405	16297.4375
2292.61534	16282.4375
2295.4848	16286.8375
2298.35243	16278.6375
2301.21824	16286.9375
2304.08223	16312.0375
2306.94439	16341.4375
2309.80474	16305.3375
2312.66327	16288.3375
2315.51999	16270.2375
2318.37489	16275.3375
2321.22797	16207.3375
2324.07925	16197.3375
2326.92871	16205.3375
2329.77637	16205.7375
2332.62222	16148.0375
2335.46626	16154.1375
2338.3085	16162.5375
2341.14893	16148.0375
2343.98756	16156.7375
2346.8244	16128.7375
2349.65943	16127.1375
2352.49267	16155.2375
2355.32411	16161.7375
2358.15376	16111.4375
2360.98161	16129.4375
2363.80768	16132.6375
2366.63195	16067.1375
2369.45444	16047.5375
2372.27514	16049.2375
2375.09405	15989.1375
2377.91118	15940.8375
2380.72652	15931.6375
2383.54009	15912.2375
2386.35187	15888.6375
2389.16188	15831.8375
2391.97011	15814.1375
2394.77657	15747.9375
2397.58125	15718.5375
2400.38416	15699.3375
2403.18529	15678.9375
2405.98466	15663.0375
2408.78226	15648.7375
2411.57809	15625.4375
2414.37216	15623.3375
2417.16446	15662.8375
2419.955	15559.0375
2422.74378	15583.0375
2425.5308	15524.4375
2428.31606	15556.0375
2431.09956	15516.9375
2433.88131	15479.9375
2436.6613	15521.7375
2439.43954	15529.3375
2442.21603	15495.5375
2444.99077	15482.1375
2447.76377	15522.8375
2450.53501	15464.2375
2453.30451	15472.1375
2456.07226	15484.4375
2458.83827	15430.8375
2461.60254	15423.3375
2464.36507	15440.5375
2467.12586	15432.4375
2469.88492	15452.6375
2472.64224	15438.8375
2475.39782	15419.0375
2478.15167	15445.0375
2480.90379	15430.1375
2483.65417	15461.4375
2486.40283	15468.7375
2489.14976	15474.5375
2491.89497	15498.1375
2494.63845	15507.2375
2497.3802	15517.0375
2500.12024	15498.5375
2502.85855	15453.5375
2505.59514	15467.4375
2508.33002	15471.0375
2511.06318	15461.3375
2513.79462	15445.8375
2516.52435	15405.6375
2519.25237	15388.6375
2521.97867	15395.1375
2524.70327	15387.6375
2527.42616	15350.7375
2530.14734	15375.2375
2532.86681	15333.3375
2535.58458	15345.1375
2538.30065	15353.2375
2541.01501	15363.0375
2543.72768	15309.4375
2546.43864	15289.0375
2549.14791	15283.2375
2551.85548	15251.5375
2554.56136	15228.4375
2557.26554	15208.9375
2559.96803	15166.5375
2562.66883	15192.4375
2565.36794	15164.3375
2568.06536	15146.9375
2570.7611	15168.5375
2573.45514	15136.4375
2576.14751	15139.0375
2578.83819	15098.5375
2581.52719	15129.6375
2584.21451	15119.5375
2586.90015	15136.4375
2589.58411	15117.1375
2592.2664	15112.4375
2594.94701	15079.9375
2597.62594	15072.4375
2600.30321	15065.7375
2602.9788	15077.7375
2605.65273	15067.4375
2608.32498	15067.0375
2610.99557	15100.8375
2613.66449	15105.0375
2616.33175	15096.3375
2618.99734	15064.9375
2621.66128	15062.8375
2624.32355	15106.4375
2626.98416	15037.0375
2629.64311	15005.5375
2632.30041	15038.8375
2634.95605	15054.7375
2637.61004	15053.6375
2640.26238	15040.0375
2642.91306	15016.8375
2645.56209	15007.5375
2648.20948	14996.7375
2650.85521	15010.8375
2653.4993	15000.9375
2656.14175	15023.9375
2658.78255	15061.7375
2661.42171	15051.6375
2664.05923	15034.5375
2666.6951	15056.6375
2669.32934	15059.5375
2671.96194	15062.8375
2674.59291	15034.9375
2677.22224	15036.7375
2679.84993	15058.4375
2682.476	15014.0375
2685.10043	15021.3375
2687.72324	15008.3375
2690.34441	15005.5375
2692.96396	14984.5375
2695.58188	14973.8375
2698.19818	14989.6375
2700.81285	15010.9375
2703.4259	15030.9375
2706.03733	15019.2375
2708.64714	15041.0375
2711.25533	15032.2375
2713.86191	15028.5375
2716.46687	15099.0375
2719.07021	15033.3375
2721.67194	15101.9375
2724.27206	15078.6375
2726.87057	15139.3375
2729.46747	15098.0375
2732.06276	15113.4375
2734.65644	15110.6375
2737.24852	15110.4375
2739.83899	15095.8375
2742.42786	15139.9375
2745.01513	15088.9375
2747.60079	15072.4375
2750.18486	15053.6375
2752.76733	15068.1375
2755.3482	15077.7375
2757.92747	15059.1375
2760.50515	15044.0375
2763.08123	15062.6375
2765.65573	15056.8375
2768.22863	15063.9375
2770.79994	15050.9375
2773.36967	15031.9375
2775.9378	15060.3375
2778.50435	15075.3375
2781.06932	15061.2375
2783.6327	15061.8375
2786.1945	15078.6375
2788.75471	15071.7375
2791.31335	15077.2375
2793.87041	15028.9375
2796.42589	15028.8375
2798.97979	15047.7375
2801.53212	14971.7375
2804.08288	14956.8375
2806.63206	14904.5375
2809.17967	14900.3375
2811.72571	14877.2375
2814.27018	14887.7375
2816.81308	14832.6375
2819.35442	14761.6375
2821.89419	14734.7375
2824.43239	14741.8375
2826.96904	14742.1375
2829.50412	14733.9375
2832.03763	14662.1375
2834.56959	14649.0375
2837.1	14633.1375
2839.62884	14688.4375
2842.15613	14706.9375
2844.68186	14732.2375
2847.20604	14746.2375
2849.72867	14773.0375
2852.24974	14748.8375
2854.76927	14731.6375
2857.28724	14729.8375
2859.80367	14698.9375
2862.31855	14674.2375
2864.83189	14665.7375
2867.34368	14609.1375
2869.85393	14644.8375
2872.36264	14652.1375
2874.8698	14625.9375
2877.37543	14635.2375
2879.87952	14617.7375
2882.38207	14621.5375
2884.88308	14610.7375
2887.38256	14634.3375
2889.88051	14625.8375
2892.37692	14640.8375
2894.8718	14686.9375
2897.36515	14674.2375
2899.85698	14661.6375
2902.34727	14705.1375
2904.83604	14727.1375
2907.32328	14741.7375
2909.809	14761.8375
2912.29319	14745.7375
2914.77587	14740.0375
2917.25702	14722.1375
2919.73665	14694.9375
2922.21476	14727.7375
2924.69136	14747.3375
2927.16644	14705.8375
2929.64	14713.4375
2932.11205	14694.1375
2934.58258	14643.0375
2937.05161	14645.4375
2939.51912	14620.5375
2941.98513	14650.2375
2944.44962	14591.9375
2946.91261	14510.3375
2949.37409	14545.8375
2951.83407	14501.2375
2954.29254	14479.5375
2956.74951	14457.7375
2959.20498	14491.5375
2961.65895	14436.8375
2964.11142	14407.4375
2966.56239	14399.3375
2969.01186	14386.5375
2971.45984	14348.5375
2973.90632	14354.7375
2976.35131	14291.2375
2978.7948	14276.7375
2981.23681	14259.0375
2983.67732	14187.9375
2986.11635	14196.9375
2988.55388	14117.6375
2990.98993	14103.2375
2993.4245	14071.9375
2995.85758	13993.1375
2998.28917	13978.7375
3000.71928	13971.5375
3003.14791	13929.8375
3005.57506	13915.4375
3008.00073	13859.7375
3010.42493	13876.7375
3012.84764	13830.2375
3015.26888	13805.7375
3017.68865	13745.7375
3020.10694	13687.7375
3022.52376	13691.7375
3024.9391	13680.2375
3027.35298	13674.2375
3029.76539	13685.8375
3032.17632	13649.3375
3034.5858	13642.2375
3036.9938	13631.9375
3039.40034	13634.2375
3041.80542	13639.6375
3044.20903	13590.0375
3046.61118	13617.5375
3049.01187	13572.2375
3051.4111	13553.2375
3053.80888	13549.5375
3056.20519	13499.7375
3058.60005	13453.9375
3060.99345	13391.8375
3063.3854	13367.0375
3065.7759	13323.5375
3068.16494	13262.3375
3070.55254	13217.7375
3072.93868	13168.9375
3075.32338	13151.0375
3077.70662	13132.1375
3080.08842	13061.0375
3082.46878	13050.7375
3084.84769	13027.6375
3087.22515	13023.3375
3089.60118	13024.5375
3091.97576	13005.3375
3094.3489	13016.5375
3096.72061	13031.7375
3099.09087	13044.6375
3101.4597	13000.3375
3103.82709	12986.3375
3106.19305	12948.3375
3108.55757	12982.6375
3110.92066	12911.0375
3113.28232	12888.8375
3115.64255	12814.7375
3118.00134	12812.4375
3120.35871	12821.5375
3122.71466	12790.9375
3125.06917	12726.3375
3127.42226	12686.9375
3129.77393	12719.7375
3132.12417	12657.0375
3134.47299	12652.3375
3136.82039	12640.8375
3139.16636	12658.6375
3141.51092	12648.0375
3143.85406	12602.7375
3146.19579	12630.4375
3148.53609	12608.6375
3150.87499	12615.8375
3153.21246	12611.3375
3155.54853	12682.9375
3157.88318	12624.6375
3160.21642	12630.0375
3162.54826	12627.5375
3164.87868	12622.3375
3167.2077	12630.0375
3169.5353	12647.3375
3171.86151	12659.8375
3174.18631	12644.1375
3176.5097	12596.4375
3178.83169	12588.2375
3181.15228	12593.1375
3183.47147	12560.0375
3185.78926	12536.3375
3188.10565	12513.3375
3190.42065	12538.4375
3192.73424	12520.0375
3195.04645	12488.7375
3197.35725	12478.5375
3199.66667	12460.2375
3201.97469	12495.9375
3204.28132	12452.2375
3206.58656	12474.6375
3208.8904	12455.0375
3211.19287	12488.2375
3213.49394	12493.7375
3215.79363	12499.4375
3218.09193	12499.7375
3220.38884	12476.9375
3222.68438	12487.1375
3224.97853	12448.7375
3227.2713	12484.5375
3229.56269	12456.6375
3231.8527	12425.0375
3234.14133	12414.5375
3236.42858	12399.0375
3238.71446	12378.1375
3240.99896	12340.3375
3243.28209	12333.2375
3245.56384	12321.3375
3247.84423	12307.5375
3250.12324	12304.3375
3252.40088	12279.9375
3254.67715	12234.7375
3256.95205	12242.4375
3259.22558	12231.8375
3261.49775	12206.4375
3263.76855	12185.0375
3266.03799	12114.8375
3268.30606	12104.8375
3270.57277	12111.0375
3272.83812	12076.0375
3275.10211	12049.1375
3277.36474	12052.6375
3279.62601	12062.2375
3281.88593	12034.6375
3284.14448	12044.9375
3286.40168	12026.4375
3288.65753	12042.1375
3290.91202	12037.2375
3293.16516	11992.1375
3295.41695	11974.1375
3297.66738	11904.0375
3299.91647	11817.5375
3302.16421	11715.2375
3304.4106	11676.7375
3306.65564	11619.6375
3308.89933	11518.9375
3311.14169	11422.6375
3313.38269	11366.8375
3315.62236	11296.3375
3317.86068	11168.0375
3320.09766	11108.2375
3322.3333	10996.0375
3324.5676	10976.1375
3326.80056	10770.4375
3329.03219	10733.9375
3331.26248	4.0375
3333.49143	-0.5625
3335.71905	0.9375
