Data from AgNPs_FTO_APTES_UA_5uM_CRN_500uM_R6G_10uM_NaF_0.1M_Addition_RamanShift__25__17-09-51-843.txt Node

Date: Mon Feb 07 17:09:51 GMT 2022
User: TCL
Spectrometer: QEP01345
Trigger mode: 4
Integration Time (sec): 7.000000E0
Scans to average: 10
Electric dark correction enabled: true
Nonlinearity correction enabled: false
Boxcar width: 0
XAxis mode: Raman Shifts
Number of Pixels in Spectrum: 1044
>>>>>Begin Spectral Data<<<<<
46.04893	-1.4125
50.45542	0.1875
54.85868	-0.1125
59.25871	0.4875
63.6555	72.1875
68.04907	74.9875
72.43941	82.7875
76.82654	82.0875
81.21044	83.3875
85.59113	86.9875
89.96862	91.1875
94.34289	94.4875
98.71396	96.6875
103.08183	99.1875
107.4465	103.9875
111.80798	105.8875
116.16626	108.2875
120.52136	111.8875
124.87327	119.3875
129.222	129.6875
133.56755	136.4875
137.90993	145.6875
142.24913	167.9875
146.58517	188.4875
150.91804	220.9875
155.24774	276.3875
159.57429	343.6875
163.89768	444.0875
168.21792	599.3875
172.53501	816.3875
176.84895	1148.6875
181.15975	1614.3875
185.46741	2269.8875
189.77193	3130.1875
194.07331	4222.4875
198.37157	5432.9875
202.6667	6727.5875
206.9587	8008.6875
211.24758	9292.6875
215.53334	10613.3875
219.81599	12087.0875
224.09553	13700.8875
228.37195	15486.6875
232.64527	17368.1875
236.91549	19359.2875
241.18261	21216.5875
245.44663	22829.9875
249.70755	24277.2875
253.96539	25508.7875
258.22014	26584.6875
262.4718	27495.4875
266.72039	28171.6875
270.96589	28525.8875
275.20832	28596.2875
279.44768	28447.3875
283.68397	28181.2875
287.91719	28014.5875
292.14735	28131.7875
296.37445	28587.8875
300.59849	29208.9875
304.81948	29874.5875
309.03742	30150.4875
313.25231	29833.4875
317.46415	28581.0875
321.67296	26841.6875
325.87872	25409.1875
330.08145	24702.7875
334.28114	24681.2875
338.47781	24995.4875
342.67145	25523.4875
346.86207	26322.2875
351.04966	27463.1875
355.23424	28734.5875
359.4158	29656.2875
363.59435	30145.6875
367.76989	30299.0875
371.94243	30317.6875
376.11196	30248.6875
380.27849	30181.5875
384.44203	30114.6875
388.60257	29992.5875
392.76012	29917.2875
396.91468	30133.1875
401.06626	30770.1875
405.21485	31238.3875
409.36047	30840.3875
413.50311	29652.6875
417.64277	28576.0875
421.77947	28050.9875
425.9132	27871.7875
430.04396	28026.7875
434.17176	28285.2875
438.2966	28723.6875
442.41849	29442.7875
446.53742	30412.2875
450.6534	31472.6875
454.76644	32135.6875
458.87653	32278.0875
462.98368	31982.6875
467.08789	31593.9875
471.18916	31231.5875
475.2875	30913.5875
479.38291	30773.9875
483.4754	30398.6875
487.56496	29859.8875
491.6516	29133.9875
495.73531	28626.0875
499.81612	28338.0875
503.89401	28447.0875
507.96899	28561.4875
512.04106	28648.7875
516.11023	28770.0875
520.1765	28783.6875
524.23987	28633.5875
528.30034	28337.1875
532.35792	27940.1875
536.41261	27535.7875
540.46441	27136.7875
544.51333	26987.0875
548.55936	27338.8875
552.60252	28027.7875
556.64279	28945.6875
560.6802	29638.7875
564.71473	30292.7875
568.7464	31420.4875
572.7752	32284.3875
576.80114	31782.8875
580.82422	30960.5875
584.84444	30513.3875
588.86181	30671.0875
592.87633	31156.1875
596.888	31542.7875
600.89682	31796.2875
604.9028	33666.1875
608.90594	39548.5875
612.90624	47494.2875
616.90371	45323.3875
620.89834	33874.6875
624.89015	28556.3875
628.87913	27666.2875
632.86528	27900.7875
636.84862	28090.8875
640.82913	27596.9875
644.80683	26551.2875
648.78172	25787.3875
652.75379	25639.3875
656.72306	26279.2875
660.68952	27254.4875
664.65319	27137.6875
668.61405	26223.1875
672.57211	25772.4875
676.52738	25778.6875
680.47986	25768.7875
684.42955	25644.2875
688.37646	25528.9875
692.32058	25607.3875
696.26192	25725.1875
700.20048	26090.4875
704.13626	26268.4875
708.06928	26267.1875
711.99952	26080.0875
715.927	25947.7875
719.85171	26004.1875
723.77365	26026.3875
727.69284	25817.0875
731.60928	25582.6875
735.52295	25536.3875
739.43388	25546.5875
743.34206	25626.2875
747.24749	25726.6875
751.15017	25963.6875
755.05012	26454.6875
758.94733	27547.5875
762.8418	29906.9875
766.73354	33903.9875
770.62254	37837.0875
774.50882	39608.3875
778.39237	37747.1875
782.27321	33343.7875
786.15132	29217.8875
790.02671	26858.7875
793.89938	25812.1875
797.76935	25370.7875
801.6366	25201.7875
805.50115	25080.6875
809.36299	24971.4875
813.22213	24862.2875
817.07857	24864.4875
820.93231	24885.9875
824.78336	24882.1875
828.63172	24902.8875
832.47738	24901.2875
836.32036	24801.7875
840.16066	24734.5875
843.99827	24636.4875
847.8332	24564.3875
851.66546	24494.6875
855.49504	24464.2875
859.32195	24419.9875
863.1462	24375.1875
866.96777	24302.3875
870.78668	24245.4875
874.60293	24254.7875
878.41652	24270.1875
882.22745	24419.5875
886.03573	24443.9875
889.84136	24455.0875
893.64433	24316.2875
897.44466	24233.8875
901.24235	24198.9875
905.0374	24063.6875
908.8298	23984.5875
912.61957	23975.0875
916.40671	24192.7875
920.19121	24435.2875
923.97308	24645.7875
927.75233	24737.9875
931.52895	24868.3875
935.30295	24567.1875
939.07433	24024.4875
942.84309	23475.0875
946.60924	23156.0875
950.37278	22988.4875
954.13371	22916.2875
957.89203	22850.2875
961.64774	22819.7875
965.40086	22795.0875
969.15137	22724.8875
972.89929	22546.1875
976.64461	22454.9875
980.38733	22406.0875
984.12747	22469.9875
987.86502	22603.9875
991.59999	22836.9875
995.33237	23142.3875
999.06217	23751.7875
1002.78939	24453.2875
1006.51404	24987.2875
1010.23611	25430.5875
1013.95561	25622.0875
1017.67255	25595.4875
1021.38692	25212.4875
1025.09872	24797.0875
1028.80796	24618.7875
1032.51465	24850.5875
1036.21877	25123.3875
1039.92035	25221.5875
1043.61937	25139.0875
1047.31584	24940.2875
1051.00976	24752.6875
1054.70114	24572.9875
1058.38998	24643.1875
1062.07627	24848.2875
1065.76003	25060.3875
1069.44126	25137.6875
1073.11995	25352.1875
1076.79611	25574.4875
1080.46974	25878.2875
1084.14085	26336.7875
1087.80943	26864.0875
1091.47549	27157.0875
1095.13903	26967.0875
1098.80005	26395.8875
1102.45857	25759.8875
1106.11456	25415.2875
1109.76805	25418.8875
1113.41903	25884.6875
1117.06751	26582.3875
1120.71348	27419.3875
1124.35696	28352.2875
1127.99793	29140.8875
1131.63641	29015.3875
1135.2724	28033.8875
1138.90589	27111.8875
1142.5369	26603.7875
1146.16542	26406.8875
1149.79145	26387.4875
1153.415	26563.4875
1157.03607	26911.9875
1160.65467	27573.5875
1164.27079	28638.3875
1167.88443	30293.1875
1171.49561	32624.7875
1175.10432	36016.9875
1178.71056	40535.7875
1182.31434	44149.6875
1185.91565	45461.7875
1189.51451	44828.3875
1193.11091	42949.1875
1196.70485	40562.3875
1200.29634	38581.1875
1203.88538	36945.8875
1207.47197	35256.0875
1211.05612	33779.3875
1214.63782	32906.2875
1218.21708	32445.1875
1221.79391	32186.6875
1225.36829	31904.3875
1228.94024	31461.3875
1232.50976	30935.8875
1236.07685	30570.9875
1239.6415	30455.4875
1243.20374	30499.3875
1246.76355	30772.6875
1250.32093	31236.9875
1253.8759	31897.5875
1257.42845	32840.6875
1260.97859	33799.5875
1264.52631	34684.0875
1268.07163	35597.5875
1271.61453	36559.8875
1275.15503	37440.1875
1278.69312	38120.9875
1282.22882	38780.9875
1285.76211	39749.9875
1289.29301	41160.7875
1292.82151	43027.1875
1296.34761	45265.1875
1299.87133	47949.2875
1303.39266	51699.1875
1306.9116	56616.2875
1310.42815	61771.6875
1313.94233	64826.6875
1317.45412	64344.0875
1320.96354	61773.7875
1324.47058	58885.7875
1327.97525	56234.1875
1331.47754	54559.3875
1334.97747	53951.1875
1338.47502	54186.9875
1341.97022	54710.1875
1345.46305	55210.2875
1348.95352	55380.8875
1352.44163	56101.1875
1355.92738	58553.9875
1359.41078	63634.9875
1362.89183	68701.1875
1366.37053	66581.0875
1369.84688	57914.9875
1373.32088	49532.5875
1376.79254	44393.4875
1380.26186	42163.3875
1383.72883	41451.6875
1387.19347	41204.1875
1390.65578	40967.5875
1394.11575	41100.4875
1397.57339	41820.0875
1401.0287	42911.8875
1404.48168	44044.3875
1407.93234	44680.7875
1411.38068	44511.5875
1414.82669	43324.3875
1418.27039	41389.1875
1421.71177	39178.2875
1425.15083	37220.7875
1428.58758	36148.3875
1432.02203	36012.6875
1435.45416	36457.9875
1438.88399	37115.9875
1442.31151	37731.2875
1445.73673	38437.7875
1449.15965	39194.2875
1452.58027	39846.8875
1455.9986	40266.8875
1459.41463	40739.5875
1462.82837	41410.8875
1466.23982	42216.7875
1469.64898	42854.1875
1473.05586	43098.1875
1476.46045	42908.8875
1479.86276	42663.8875
1483.26279	42456.1875
1486.66054	42437.4875
1490.05602	42778.7875
1493.44922	43441.4875
1496.84016	44424.8875
1500.22882	46401.8875
1503.61521	49728.2875
1506.99934	54086.7875
1510.38121	58396.5875
1513.76081	60201.6875
1517.13816	57827.9875
1520.51324	52601.8875
1523.88607	47564.5875
1527.25665	44301.7875
1530.62498	42675.1875
1533.99105	41833.2875
1537.35488	41442.6875
1540.71647	41093.2875
1544.07581	40688.6875
1547.4329	40156.1875
1550.78776	39672.2875
1554.14038	39379.9875
1557.49077	39304.2875
1560.83892	39513.8875
1564.18484	40080.2875
1567.52853	40628.5875
1570.86999	41125.1875
1574.20922	41597.0875
1577.54624	41757.6875
1580.88103	40970.0875
1584.2136	39954.9875
1587.54395	40204.9875
1590.87208	41690.8875
1594.19801	44334.3875
1597.52172	47278.2875
1600.84321	48481.4875
1604.16251	46764.0875
1607.47959	43163.3875
1610.79447	39068.9875
1614.10715	35272.0875
1617.41763	32250.4875
1620.7259	30188.8875
1624.03199	29197.2875
1627.33587	29102.3875
1630.63757	29848.0875
1633.93707	31642.1875
1637.23439	34536.3875
1640.52951	38788.5875
1643.82246	44085.5875
1647.11321	49184.5875
1650.40179	51790.8875
1653.68819	49304.7875
1656.97241	42654.3875
1660.25446	35515.0875
1663.53433	30299.2875
1666.81203	26978.2875
1670.08756	24966.1875
1673.36092	23809.2875
1676.63211	23053.9875
1679.90115	22490.2875
1683.16801	22063.1875
1686.43272	21746.8875
1689.69527	21534.1875
1692.95567	21343.7875
1696.2139	21232.2875
1699.46999	21117.8875
1702.72392	21012.7875
1705.97571	20966.1875
1709.22535	20948.9875
1712.47284	20920.3875
1715.71819	20886.5875
1718.96139	20826.0875
1722.20246	20822.3875
1725.44139	20708.6875
1728.67818	20583.3875
1731.91284	20423.4875
1735.14537	20255.0875
1738.37576	20205.9875
1741.60403	20133.4875
1744.83017	20045.2875
1748.05418	20011.8875
1751.27607	19973.8875
1754.49584	19948.4875
1757.71349	19902.3875
1760.92903	19869.0875
1764.14244	19855.0875
1767.35375	19823.0875
1770.56294	19747.3875
1773.77002	19710.2875
1776.97499	19629.2875
1780.17785	19585.9875
1783.37861	19579.5875
1786.57727	19588.9875
1789.77382	19560.3875
1792.96828	19503.3875
1796.16064	19437.9875
1799.3509	19414.1875
1802.53907	19408.6875
1805.72514	19316.5875
1808.90913	19284.3875
1812.09102	19223.3875
1815.27083	19180.6875
1818.44856	19131.7875
1821.6242	19114.2875
1824.79776	19076.4875
1827.96924	19015.2875
1831.13864	19019.6875
1834.30597	18978.7875
1837.47122	18995.0875
1840.6344	18951.7875
1843.7955	18960.9875
1846.95454	18921.8875
1850.11151	18906.7875
1853.26642	18891.2875
1856.41926	18901.3875
1859.57004	18911.7875
1862.71876	18903.8875
1865.86542	18860.7875
1869.01003	18891.4875
1872.15258	18863.4875
1875.29308	18866.9875
1878.43152	18863.7875
1881.56792	18862.9875
1884.70227	18874.4875
1887.83457	18859.9875
1890.96482	18837.9875
1894.09304	18803.2875
1897.21921	18794.6875
1900.34335	18809.0875
1903.46544	18798.0875
1906.58551	18813.6875
1909.70353	18801.3875
1912.81953	18753.9875
1915.93349	18751.6875
1919.04543	18720.3875
1922.15534	18680.3875
1925.26322	18604.1875
1928.36908	18592.9875
1931.47292	18544.6875
1934.57473	18514.6875
1937.67453	18447.5875
1940.77232	18358.5875
1943.86808	18250.5875
1946.96184	18192.7875
1950.05358	18138.9875
1953.14331	18027.8875
1956.23103	17960.9875
1959.31675	17919.2875
1962.40046	17875.2875
1965.48217	17837.8875
1968.56188	17759.5875
1971.63959	17725.4875
1974.7153	17676.2875
1977.78901	17641.0875
1980.86073	17551.5875
1983.93046	17502.9875
1986.99819	17443.4875
1990.06394	17401.0875
1993.1277	17321.2875
1996.18947	17295.1875
1999.24925	17204.1875
2002.30706	17185.2875
2005.36288	17111.6875
2008.41672	17054.8875
2011.46859	17029.9875
2014.51848	16974.4875
2017.56639	16922.8875
2020.61233	16883.1875
2023.6563	16795.0875
2026.6983	16741.9875
2029.73833	16715.1875
2032.7764	16677.1875
2035.8125	16676.7875
2038.84664	16639.8875
2041.87881	16616.8875
2044.90903	16565.4875
2047.93729	16500.2875
2050.96359	16502.1875
2053.98794	16483.1875
2057.01034	16459.9875
2060.03078	16458.8875
2063.04927	16453.5875
2066.06582	16446.4875
2069.08042	16449.5875
2072.09307	16428.9875
2075.10378	16383.1875
2078.11255	16361.8875
2081.11938	16382.7875
2084.12426	16355.8875
2087.12722	16344.5875
2090.12824	16306.2875
2093.12732	16301.9875
2096.12447	16329.5875
2099.11969	16294.7875
2102.11299	16257.4875
2105.10435	16295.8875
2108.09379	16292.1875
2111.08131	16303.0875
2114.0669	16270.0875
2117.05057	16336.9875
2120.03233	16332.1875
2123.01216	16336.8875
2125.99008	16359.4875
2128.96609	16357.7875
2131.94018	16380.0875
2134.91236	16373.4875
2137.88263	16382.2875
2140.851	16404.2875
2143.81746	16403.9875
2146.78201	16385.0875
2149.74466	16381.3875
2152.7054	16373.2875
2155.66425	16319.1875
2158.6212	16302.7875
2161.57625	16314.0875
2164.52941	16284.7875
2167.48067	16267.8875
2170.43004	16254.7875
2173.37752	16270.1875
2176.32311	16294.4875
2179.26681	16281.1875
2182.20863	16284.5875
2185.14856	16324.0875
2188.08661	16283.8875
2191.02278	16308.5875
2193.95707	16260.0875
2196.88948	16229.3875
2199.82001	16198.1875
2202.74867	16172.6875
2205.67545	16167.4875
2208.60037	16176.2875
2211.52341	16133.1875
2214.44458	16124.3875
2217.36388	16062.1875
2220.28132	16042.2875
2223.1969	16011.4875
2226.11061	16001.7875
2229.02246	15971.3875
2231.93245	15910.1875
2234.84058	15857.1875
2237.74686	15826.4875
2240.65128	15837.5875
2243.55385	15784.3875
2246.45456	15812.9875
2249.35343	15795.9875
2252.25044	15737.1875
2255.14561	15753.3875
2258.03893	15697.1875
2260.93041	15641.2875
2263.82004	15636.3875
2266.70783	15614.5875
2269.59378	15552.8875
2272.4779	15511.0875
2275.36017	15468.6875
2278.24061	15446.7875
2281.11922	15432.0875
2283.996	15395.4875
2286.87094	15377.7875
2289.74405	15307.5875
2292.61534	15297.1875
2295.4848	15292.1875
2298.35243	15305.9875
2301.21824	15289.1875
2304.08223	15323.2875
2306.94439	15320.0875
2309.80474	15333.8875
2312.66327	15291.6875
2315.51999	15288.2875
2318.37489	15274.8875
2321.22797	15242.0875
2324.07925	15223.8875
2326.92871	15193.1875
2329.77637	15172.0875
2332.62222	15173.6875
2335.46626	15137.6875
2338.3085	15166.0875
2341.14893	15150.7875
2343.98756	15165.6875
2346.8244	15146.9875
2349.65943	15148.6875
2352.49267	15114.3875
2355.32411	15140.8875
2358.15376	15159.9875
2360.98161	15122.8875
2363.80768	15172.4875
2366.63195	15153.6875
2369.45444	15146.5875
2372.27514	15134.5875
2375.09405	15048.6875
2377.91118	15036.9875
2380.72652	14988.3875
2383.54009	14964.6875
2386.35187	14923.9875
2389.16188	14863.6875
2391.97011	14845.8875
2394.77657	14790.9875
2397.58125	14764.5875
2400.38416	14721.1875
2403.18529	14671.9875
2405.98466	14663.4875
2408.78226	14621.5875
2411.57809	14600.8875
2414.37216	14632.8875
2417.16446	14603.4875
2419.955	14569.2875
2422.74378	14553.3875
2425.5308	14551.0875
2428.31606	14520.8875
2431.09956	14474.4875
2433.88131	14472.4875
2436.6613	14494.1875
2439.43954	14510.1875
2442.21603	14512.2875
2444.99077	14487.5875
2447.76377	14485.8875
2450.53501	14466.8875
2453.30451	14462.5875
2456.07226	14456.2875
2458.83827	14460.7875
2461.60254	14433.7875
2464.36507	14418.3875
2467.12586	14394.9875
2469.88492	14421.7875
2472.64224	14395.0875
2475.39782	14426.4875
2478.15167	14435.5875
2480.90379	14463.6875
2483.65417	14485.0875
2486.40283	14478.4875
2489.14976	14510.9875
2491.89497	14493.3875
2494.63845	14540.6875
2497.3802	14506.8875
2500.12024	14537.4875
2502.85855	14483.8875
2505.59514	14479.6875
2508.33002	14446.8875
2511.06318	14414.7875
2513.79462	14362.1875
2516.52435	14347.0875
2519.25237	14315.9875
2521.97867	14279.9875
2524.70327	14253.3875
2527.42616	14247.3875
2530.14734	14249.0875
2532.86681	14239.5875
2535.58458	14253.5875
2538.30065	14222.7875
2541.01501	14215.1875
2543.72768	14195.1875
2546.43864	14190.9875
2549.14791	14168.5875
2551.85548	14142.1875
2554.56136	14144.1875
2557.26554	14123.5875
2559.96803	14082.1875
2562.66883	14087.3875
2565.36794	14071.5875
2568.06536	14074.3875
2570.7611	14053.1875
2573.45514	14012.0875
2576.14751	13982.5875
2578.83819	13983.5875
2581.52719	13983.1875
2584.21451	13976.3875
2586.90015	13981.9875
2589.58411	13983.2875
2592.2664	13975.7875
2594.94701	13932.3875
2597.62594	13942.8875
2600.30321	13912.8875
2602.9788	13927.4875
2605.65273	13911.4875
2608.32498	13927.5875
2610.99557	13918.8875
2613.66449	13927.0875
2616.33175	13896.6875
2618.99734	13892.0875
2621.66128	13892.3875
2624.32355	13906.8875
2626.98416	13897.9875
2629.64311	13871.9875
2632.30041	13873.3875
2634.95605	13841.2875
2637.61004	13830.5875
2640.26238	13825.4875
2642.91306	13793.6875
2645.56209	13790.0875
2648.20948	13803.4875
2650.85521	13784.4875
2653.4993	13780.9875
2656.14175	13778.4875
2658.78255	13807.9875
2661.42171	13799.0875
2664.05923	13808.6875
2666.6951	13819.4875
2669.32934	13841.2875
2671.96194	13828.1875
2674.59291	13844.9875
2677.22224	13829.8875
2679.84993	13828.3875
2682.476	13778.1875
2685.10043	13788.0875
2687.72324	13773.0875
2690.34441	13772.5875
2692.96396	13742.4875
2695.58188	13783.2875
2698.19818	13787.8875
2700.81285	13778.1875
2703.4259	13775.6875
2706.03733	13792.9875
2708.64714	13779.5875
2711.25533	13793.0875
2713.86191	13814.3875
2716.46687	13837.8875
2719.07021	13841.5875
2721.67194	13829.7875
2724.27206	13833.7875
2726.87057	13852.5875
2729.46747	13878.5875
2732.06276	13847.1875
2734.65644	13810.0875
2737.24852	13821.2875
2739.83899	13776.1875
2742.42786	13794.8875
2745.01513	13781.5875
2747.60079	13770.2875
2750.18486	13773.5875
2752.76733	13728.4875
2755.3482	13700.0875
2757.92747	13741.2875
2760.50515	13691.5875
2763.08123	13688.4875
2765.65573	13694.1875
2768.22863	13678.9875
2770.79994	13677.0875
2773.36967	13705.1875
2775.9378	13706.6875
2778.50435	13667.8875
2781.06932	13665.4875
2783.6327	13685.8875
2786.1945	13665.6875
2788.75471	13669.9875
2791.31335	13657.0875
2793.87041	13639.2875
2796.42589	13617.2875
2798.97979	13619.9875
2801.53212	13573.7875
2804.08288	13569.6875
2806.63206	13509.2875
2809.17967	13529.8875
2811.72571	13483.5875
2814.27018	13508.7875
2816.81308	13459.6875
2819.35442	13438.6875
2821.89419	13460.1875
2824.43239	13436.1875
2826.96904	13463.8875
2829.50412	13417.3875
2832.03763	13387.5875
2834.56959	13387.0875
2837.1	13364.9875
2839.62884	13382.9875
2842.15613	13382.8875
2844.68186	13442.6875
2847.20604	13514.7875
2849.72867	13531.9875
2852.24974	13525.3875
2854.76927	13475.3875
2857.28724	13478.5875
2859.80367	13462.8875
2862.31855	13431.4875
2864.83189	13398.9875
2867.34368	13408.2875
2869.85393	13416.0875
2872.36264	13405.8875
2874.8698	13404.9875
2877.37543	13382.8875
2879.87952	13397.1875
2882.38207	13358.4875
2884.88308	13369.5875
2887.38256	13365.6875
2889.88051	13383.4875
2892.37692	13390.1875
2894.8718	13386.3875
2897.36515	13405.0875
2899.85698	13364.5875
2902.34727	13412.4875
2904.83604	13397.4875
2907.32328	13435.4875
2909.809	13419.8875
2912.29319	13401.0875
2914.77587	13380.5875
2917.25702	13413.1875
2919.73665	13358.7875
2922.21476	13387.9875
2924.69136	13374.3875
2927.16644	13394.9875
2929.64	13370.0875
2932.11205	13284.9875
2934.58258	13285.2875
2937.05161	13304.8875
2939.51912	13260.6875
2941.98513	13193.9875
2944.44962	13166.8875
2946.91261	13101.3875
2949.37409	13129.5875
2951.83407	13092.0875
2954.29254	13101.4875
2956.74951	13093.9875
2959.20498	13058.5875
2961.65895	13022.7875
2964.11142	13003.5875
2966.56239	13005.2875
2969.01186	12983.4875
2971.45984	12933.5875
2973.90632	12918.7875
2976.35131	12896.9875
2978.7948	12860.0875
2981.23681	12828.2875
2983.67732	12784.3875
2986.11635	12785.3875
2988.55388	12723.5875
2990.98993	12698.2875
2993.4245	12671.6875
2995.85758	12649.1875
2998.28917	12600.7875
3000.71928	12599.8875
3003.14791	12545.0875
3005.57506	12556.0875
3008.00073	12504.9875
3010.42493	12516.0875
3012.84764	12459.6875
3015.26888	12452.3875
3017.68865	12422.3875
3020.10694	12372.9875
3022.52376	12334.8875
3024.9391	12320.1875
3027.35298	12314.0875
3029.76539	12304.0875
3032.17632	12298.1875
3034.5858	12277.9875
3036.9938	12265.5875
3039.40034	12265.6875
3041.80542	12233.9875
3044.20903	12213.3875
3046.61118	12220.1875
3049.01187	12180.7875
3051.4111	12151.7875
3053.80888	12111.2875
3056.20519	12090.8875
3058.60005	12073.1875
3060.99345	12038.1875
3063.3854	11976.2875
3065.7759	11939.9875
3068.16494	11936.8875
3070.55254	11861.1875
3072.93868	11831.8875
3075.32338	11795.1875
3077.70662	11751.9875
3080.08842	11753.4875
3082.46878	11708.6875
3084.84769	11669.6875
3087.22515	11691.4875
3089.60118	11674.8875
3091.97576	11671.5875
3094.3489	11668.6875
3096.72061	11667.0875
3099.09087	11645.4875
3101.4597	11627.4875
3103.82709	11625.2875
3106.19305	11600.3875
3108.55757	11586.5875
3110.92066	11529.5875
3113.28232	11518.6875
3115.64255	11481.2875
3118.00134	11462.1875
3120.35871	11453.0875
3122.71466	11445.8875
3125.06917	11415.0875
3127.42226	11389.3875
3129.77393	11387.0875
3132.12417	11347.6875
3134.47299	11357.1875
3136.82039	11326.3875
3139.16636	11325.8875
3141.51092	11304.5875
3143.85406	11302.5875
3146.19579	11316.5875
3148.53609	11294.2875
3150.87499	11292.5875
3153.21246	11282.6875
3155.54853	11309.7875
3157.88318	11307.1875
3160.21642	11325.2875
3162.54826	11304.0875
3164.87868	11320.5875
3167.2077	11315.5875
3169.5353	11311.0875
3171.86151	11317.5875
3174.18631	11290.3875
3176.5097	11289.9875
3178.83169	11264.4875
3181.15228	11279.9875
3183.47147	11232.5875
3185.78926	11209.4875
3188.10565	11180.8875
3190.42065	11204.6875
3192.73424	11189.9875
3195.04645	11182.0875
3197.35725	11173.8875
3199.66667	11137.9875
3201.97469	11182.3875
3204.28132	11146.6875
3206.58656	11168.6875
3208.8904	11185.7875
3211.19287	11198.0875
3213.49394	11214.1875
3215.79363	11194.6875
3218.09193	11191.8875
3220.38884	11174.2875
3222.68438	11175.0875
3224.97853	11170.9875
3227.2713	11180.6875
3229.56269	11174.6875
3231.8527	11129.0875
3234.14133	11125.7875
3236.42858	11119.5875
3238.71446	11057.6875
3240.99896	11054.1875
3243.28209	11024.2875
3245.56384	11013.7875
3247.84423	11005.4875
3250.12324	11012.6875
3252.40088	10991.4875
3254.67715	10986.2875
3256.95205	10949.2875
3259.22558	10931.7875
3261.49775	10901.5875
3263.76855	10891.9875
3266.03799	10888.9875
3268.30606	10865.7875
3270.57277	10828.2875
3272.83812	10814.0875
3275.10211	10790.7875
3277.36474	10779.6875
3279.62601	10801.9875
3281.88593	10781.5875
3284.14448	10777.4875
3286.40168	10770.4875
3288.65753	10788.1875
3290.91202	10751.6875
3293.16516	10745.8875
3295.41695	10702.5875
3297.66738	10627.4875
3299.91647	10575.5875
3302.16421	10498.8875
3304.4106	10428.0875
3306.65564	10360.0875
3308.89933	10307.2875
3311.14169	10237.8875
3313.38269	10118.6875
3315.62236	10076.4875
3317.86068	9980.1875
3320.09766	9929.0875
3322.3333	9834.5875
3324.5676	9775.2875
3326.80056	9635.6875
3329.03219	9579.0875
3331.26248	3.5875
3333.49143	-1.3125
3335.71905	-0.7125
