Data from AgNPs_FTO_APTES_UA_5uM_CRN_1000uM_R6G_10uM_NaF_0.1M_Addition_RamanShift__17__17-43-41-883.txt Node

Date: Mon Feb 07 17:43:41 GMT 2022
User: TCL
Spectrometer: QEP01345
Trigger mode: 4
Integration Time (sec): 7.000000E0
Scans to average: 10
Electric dark correction enabled: true
Nonlinearity correction enabled: false
Boxcar width: 0
XAxis mode: Raman Shifts
Number of Pixels in Spectrum: 1044
>>>>>Begin Spectral Data<<<<<
46.04893	-1.2625
50.45542	0.4375
54.85868	-0.8625
59.25871	-0.5625
63.6555	46.6375
68.04907	50.1375
72.43941	53.9375
76.82654	52.7375
81.21044	55.1375
85.59113	55.0375
89.96862	60.1375
94.34289	63.1375
98.71396	61.0375
103.08183	63.4375
107.4465	66.3375
111.80798	69.7375
116.16626	73.6375
120.52136	72.2375
124.87327	75.2375
129.222	84.3375
133.56755	88.7375
137.90993	94.4375
142.24913	104.4375
146.58517	114.8375
150.91804	136.4375
155.24774	167.9375
159.57429	209.4375
163.89768	267.0375
168.21792	355.6375
172.53501	490.8375
176.84895	674.4375
181.15975	958.6375
185.46741	1331.0375
189.77193	1856.4375
194.07331	2494.6375
198.37157	3211.4375
202.6667	3961.8375
206.9587	4709.5375
211.24758	5447.1375
215.53334	6212.9375
219.81599	6984.5375
224.09553	7853.7375
228.37195	8796.6375
232.64527	9831.5375
236.91549	10899.1375
241.18261	11986.3375
245.44663	13012.7375
249.70755	13916.8375
253.96539	14692.8375
258.22014	15356.1375
262.4718	15874.7375
266.72039	16291.8375
270.96589	16500.8375
275.20832	16547.0375
279.44768	16498.2375
283.68397	16397.7375
287.91719	16282.2375
292.14735	16295.8375
296.37445	16363.6375
300.59849	16421.9375
304.81948	16500.0375
309.03742	16404.2375
313.25231	16173.2375
317.46415	15805.0375
321.67296	15345.1375
325.87872	14950.8375
330.08145	14698.5375
334.28114	14666.6375
338.47781	14728.8375
342.67145	14898.4375
346.86207	15083.9375
351.04966	15361.7375
355.23424	15607.8375
359.4158	15835.2375
363.59435	15972.8375
367.76989	16062.7375
371.94243	16109.9375
376.11196	16213.9375
380.27849	16260.3375
384.44203	16397.8375
388.60257	16534.5375
392.76012	16705.9375
396.91468	16883.9375
401.06626	17107.5375
405.21485	17253.8375
409.36047	17185.2375
413.50311	16920.0375
417.64277	16708.2375
421.77947	16736.4375
425.9132	16812.9375
430.04396	16939.8375
434.17176	17075.3375
438.2966	17245.6375
442.41849	17583.6375
446.53742	18106.5375
450.6534	18673.4375
454.76644	19070.9375
458.87653	19186.8375
462.98368	19094.9375
467.08789	18861.8375
471.18916	18670.4375
475.2875	18548.0375
479.38291	18615.8375
483.4754	18517.7375
487.56496	18329.8375
491.6516	17930.5375
495.73531	17500.2375
499.81612	17229.7375
503.89401	17210.0375
507.96899	17204.2375
512.04106	17141.4375
516.11023	16992.0375
520.1765	16800.8375
524.23987	16613.0375
528.30034	16533.4375
532.35792	16427.0375
536.41261	16296.3375
540.46441	16134.4375
544.51333	16155.1375
548.55936	16348.5375
552.60252	16752.0375
556.64279	17244.6375
560.6802	17654.9375
564.71473	17923.4375
568.7464	18340.1375
572.7752	18916.1375
576.80114	19374.2375
580.82422	19583.9375
584.84444	19755.9375
588.86181	20121.4375
592.87633	20540.6375
596.888	20515.0375
600.89682	20030.5375
604.9028	20045.3375
608.90594	21169.0375
612.90624	22491.5375
616.90371	21036.7375
620.89834	17769.4375
624.89015	16285.2375
628.87913	16130.4375
632.86528	16327.8375
636.84862	16412.7375
640.82913	16263.1375
644.80683	15875.8375
648.78172	15510.2375
652.75379	15414.7375
656.72306	15524.1375
660.68952	15716.5375
664.65319	15651.1375
668.61405	15405.2375
672.57211	15377.4375
676.52738	15468.1375
680.47986	15516.9375
684.42955	15461.3375
688.37646	15365.8375
692.32058	15319.9375
696.26192	15409.0375
700.20048	15583.3375
704.13626	15658.1375
708.06928	15695.3375
711.99952	15630.5375
715.927	15631.8375
719.85171	15642.8375
723.77365	15596.4375
727.69284	15477.2375
731.60928	15368.4375
735.52295	15289.4375
739.43388	15294.3375
743.34206	15303.7375
747.24749	15344.4375
751.15017	15456.9375
755.05012	15709.0375
758.94733	16128.4375
762.8418	16999.7375
766.73354	18284.0375
770.62254	19568.6375
774.50882	19842.9375
778.39237	18966.6375
782.27321	17511.8375
786.15132	16310.7375
790.02671	15559.3375
793.89938	15226.4375
797.76935	15055.5375
801.6366	15016.6375
805.50115	14948.2375
809.36299	14879.8375
813.22213	14764.2375
817.07857	14705.4375
820.93231	14675.4375
824.78336	14625.4375
828.63172	14532.0375
832.47738	14467.7375
836.32036	14431.9375
840.16066	14395.8375
843.99827	14427.9375
847.8332	14370.0375
851.66546	14357.2375
855.49504	14352.2375
859.32195	14372.2375
863.1462	14366.4375
866.96777	14370.0375
870.78668	14315.8375
874.60293	14336.1375
878.41652	14324.4375
882.22745	14350.0375
886.03573	14372.4375
889.84136	14357.0375
893.64433	14351.0375
897.44466	14272.6375
901.24235	14217.8375
905.0374	14132.0375
908.8298	14040.7375
912.61957	14060.2375
916.40671	14204.2375
920.19121	14390.8375
923.97308	14526.2375
927.75233	14521.1375
931.52895	14347.0375
935.30295	14139.5375
939.07433	13902.1375
942.84309	13698.0375
946.60924	13540.2375
950.37278	13488.3375
954.13371	13456.9375
957.89203	13460.4375
961.64774	13423.2375
965.40086	13372.5375
969.15137	13346.8375
972.89929	13259.4375
976.64461	13175.3375
980.38733	13120.1375
984.12747	13114.9375
987.86502	13176.5375
991.59999	13289.1375
995.33237	13428.3375
999.06217	13654.5375
1002.78939	13963.1375
1006.51404	14216.0375
1010.23611	14386.8375
1013.95561	14512.6375
1017.67255	14576.2375
1021.38692	14468.4375
1025.09872	14155.1375
1028.80796	13965.5375
1032.51465	14030.7375
1036.21877	14081.4375
1039.92035	14156.7375
1043.61937	14144.5375
1047.31584	14112.0375
1051.00976	14089.0375
1054.70114	14113.3375
1058.38998	14194.1375
1062.07627	14337.9375
1065.76003	14501.2375
1069.44126	14612.9375
1073.11995	14758.9375
1076.79611	14912.7375
1080.46974	14971.4375
1084.14085	15036.1375
1087.80943	15177.8375
1091.47549	15313.5375
1095.13903	15413.5375
1098.80005	15279.4375
1102.45857	14942.6375
1106.11456	14650.5375
1109.76805	14518.5375
1113.41903	14559.3375
1117.06751	14686.4375
1120.71348	14881.0375
1124.35696	15110.5375
1127.99793	15396.4375
1131.63641	15577.0375
1135.2724	15489.5375
1138.90589	15333.4375
1142.5369	15297.6375
1146.16542	15362.1375
1149.79145	15485.1375
1153.415	15694.3375
1157.03607	15972.0375
1160.65467	16466.0375
1164.27079	17229.3375
1167.88443	18189.7375
1171.49561	19339.5375
1175.10432	20836.3375
1178.71056	22613.8375
1182.31434	24310.6375
1185.91565	25105.0375
1189.51451	25049.9375
1193.11091	24469.4375
1196.70485	23564.6375
1200.29634	22559.3375
1203.88538	21746.2375
1207.47197	21184.6375
1211.05612	20714.0375
1214.63782	20295.7375
1218.21708	19870.8375
1221.79391	19518.3375
1225.36829	19271.6375
1228.94024	18923.4375
1232.50976	18441.3375
1236.07685	18053.0375
1239.6415	17828.7375
1243.20374	17809.5375
1246.76355	17873.2375
1250.32093	18076.6375
1253.8759	18484.6375
1257.42845	18923.6375
1260.97859	19460.6375
1264.52631	19998.0375
1268.07163	20547.8375
1271.61453	21084.7375
1275.15503	21717.8375
1278.69312	22352.2375
1282.22882	23010.9375
1285.76211	23864.4375
1289.29301	24983.0375
1292.82151	26298.9375
1296.34761	27928.6375
1299.87133	29763.7375
1303.39266	31530.6375
1306.9116	33235.2375
1310.42815	34689.6375
1313.94233	35649.1375
1317.45412	35726.6375
1320.96354	35236.2375
1324.47058	34730.5375
1327.97525	34095.7375
1331.47754	33676.8375
1334.97747	33427.5375
1338.47502	33184.1375
1341.97022	32922.1375
1345.46305	32484.4375
1348.95352	31967.6375
1352.44163	31710.1375
1355.92738	31905.6375
1359.41078	32720.7375
1362.89183	33471.5375
1366.37053	32943.4375
1369.84688	30476.3375
1373.32088	27303.2375
1376.79254	25176.8375
1380.26186	24396.5375
1383.72883	24460.9375
1387.19347	24672.7375
1390.65578	24723.2375
1394.11575	24902.3375
1397.57339	25359.7375
1401.0287	25999.9375
1404.48168	26361.7375
1407.93234	26281.8375
1411.38068	25653.5375
1414.82669	24594.1375
1418.27039	23231.2375
1421.71177	21965.6375
1425.15083	20910.5375
1428.58758	20320.9375
1432.02203	20394.1375
1435.45416	20916.7375
1438.88399	21653.1375
1442.31151	22241.7375
1445.73673	22780.1375
1449.15965	23187.0375
1452.58027	23591.4375
1455.9986	23797.8375
1459.41463	24010.7375
1462.82837	24313.9375
1466.23982	24604.6375
1469.64898	24849.8375
1473.05586	24964.2375
1476.46045	24857.8375
1479.86276	24525.0375
1483.26279	24175.4375
1486.66054	23926.0375
1490.05602	23864.2375
1493.44922	24004.7375
1496.84016	24154.9375
1500.22882	24526.2375
1503.61521	25212.3375
1506.99934	26122.6375
1510.38121	26998.4375
1513.76081	27288.3375
1517.13816	26753.0375
1520.51324	25817.7375
1523.88607	25016.8375
1527.25665	24641.7375
1530.62498	24570.6375
1533.99105	24573.3375
1537.35488	24411.1375
1540.71647	23994.5375
1544.07581	23388.0375
1547.4329	22722.7375
1550.78776	22125.6375
1554.14038	21664.3375
1557.49077	21440.8375
1560.83892	21344.7375
1564.18484	21362.8375
1567.52853	21474.4375
1570.86999	21724.6375
1574.20922	22171.0375
1577.54624	22604.1375
1580.88103	22812.8375
1584.2136	22981.6375
1587.54395	23558.3375
1590.87208	24574.6375
1594.19801	25889.1375
1597.52172	27198.9375
1600.84321	27677.9375
1604.16251	26587.1375
1607.47959	24491.3375
1610.79447	22217.2375
1614.10715	20043.4375
1617.41763	18279.3375
1620.7259	17117.8375
1624.03199	16479.9375
1627.33587	16395.5375
1630.63757	16854.9375
1633.93707	17986.9375
1637.23439	19890.7375
1640.52951	22738.3375
1643.82246	26082.5375
1647.11321	28844.4375
1650.40179	29511.1375
1653.68819	27507.5375
1656.97241	23803.7375
1660.25446	20018.1375
1663.53433	17144.8375
1666.81203	15252.4375
1670.08756	14082.6375
1673.36092	13332.9375
1676.63211	12880.0375
1679.90115	12554.0375
1683.16801	12290.9375
1686.43272	12092.5375
1689.69527	11928.3375
1692.95567	11798.1375
1696.2139	11723.3375
1699.46999	11661.9375
1702.72392	11589.5375
1705.97571	11531.8375
1709.22535	11534.3375
1712.47284	11466.5375
1715.71819	11414.1375
1718.96139	11380.4375
1722.20246	11323.3375
1725.44139	11265.4375
1728.67818	11193.1375
1731.91284	11127.8375
1735.14537	11061.7375
1738.37576	11012.3375
1741.60403	10953.5375
1744.83017	10927.7375
1748.05418	10907.2375
1751.27607	10908.6375
1754.49584	10882.5375
1757.71349	10847.5375
1760.92903	10835.3375
1764.14244	10803.8375
1767.35375	10792.2375
1770.56294	10742.5375
1773.77002	10697.6375
1776.97499	10666.6375
1780.17785	10667.8375
1783.37861	10649.5375
1786.57727	10601.2375
1789.77382	10592.7375
1792.96828	10525.8375
1796.16064	10507.6375
1799.3509	10473.6375
1802.53907	10449.7375
1805.72514	10404.7375
1808.90913	10369.3375
1812.09102	10364.0375
1815.27083	10328.4375
1818.44856	10308.8375
1821.6242	10277.6375
1824.79776	10258.9375
1827.96924	10228.5375
1831.13864	10217.2375
1834.30597	10212.7375
1837.47122	10189.3375
1840.6344	10173.5375
1843.7955	10172.2375
1846.95454	10161.7375
1850.11151	10159.4375
1853.26642	10126.2375
1856.41926	10122.8375
1859.57004	10131.5375
1862.71876	10128.8375
1865.86542	10104.4375
1869.01003	10088.6375
1872.15258	10091.7375
1875.29308	10069.1375
1878.43152	10049.3375
1881.56792	10044.2375
1884.70227	10030.9375
1887.83457	10027.0375
1890.96482	10026.3375
1894.09304	9980.3375
1897.21921	9977.9375
1900.34335	9954.1375
1903.46544	9938.3375
1906.58551	9942.9375
1909.70353	9906.0375
1912.81953	9901.8375
1915.93349	9861.9375
1919.04543	9849.1375
1922.15534	9808.5375
1925.26322	9803.9375
1928.36908	9783.0375
1931.47292	9753.7375
1934.57473	9743.7375
1937.67453	9723.9375
1940.77232	9672.2375
1943.86808	9634.7375
1946.96184	9586.2375
1950.05358	9569.2375
1953.14331	9549.6375
1956.23103	9480.7375
1959.31675	9476.6375
1962.40046	9465.0375
1965.48217	9437.0375
1968.56188	9371.7375
1971.63959	9349.9375
1974.7153	9314.9375
1977.78901	9286.8375
1980.86073	9265.8375
1983.93046	9232.4375
1986.99819	9198.7375
1990.06394	9171.3375
1993.1277	9152.5375
1996.18947	9083.3375
1999.24925	9060.9375
2002.30706	9055.2375
2005.36288	8995.8375
2008.41672	8995.8375
2011.46859	8941.0375
2014.51848	8926.6375
2017.56639	8910.5375
2020.61233	8897.4375
2023.6563	8834.7375
2026.6983	8817.7375
2029.73833	8803.2375
2032.7764	8776.8375
2035.8125	8773.3375
2038.84664	8782.9375
2041.87881	8739.6375
2044.90903	8704.2375
2047.93729	8679.2375
2050.96359	8677.4375
2053.98794	8687.9375
2057.01034	8671.4375
2060.03078	8646.7375
2063.04927	8647.8375
2066.06582	8647.7375
2069.08042	8659.5375
2072.09307	8633.8375
2075.10378	8625.0375
2078.11255	8600.3375
2081.11938	8584.2375
2084.12426	8582.3375
2087.12722	8574.5375
2090.12824	8563.9375
2093.12732	8567.8375
2096.12447	8594.7375
2099.11969	8561.5375
2102.11299	8543.6375
2105.10435	8527.9375
2108.09379	8574.2375
2111.08131	8546.4375
2114.0669	8562.1375
2117.05057	8553.1375
2120.03233	8564.3375
2123.01216	8558.0375
2125.99008	8567.6375
2128.96609	8554.9375
2131.94018	8557.4375
2134.91236	8580.5375
2137.88263	8579.6375
2140.851	8576.7375
2143.81746	8598.7375
2146.78201	8561.2375
2149.74466	8554.3375
2152.7054	8575.9375
2155.66425	8529.0375
2158.6212	8549.0375
2161.57625	8536.4375
2164.52941	8513.1375
2167.48067	8490.6375
2170.43004	8512.3375
2173.37752	8504.0375
2176.32311	8515.8375
2179.26681	8527.0375
2182.20863	8508.8375
2185.14856	8504.1375
2188.08661	8495.6375
2191.02278	8515.2375
2193.95707	8463.3375
2196.88948	8452.0375
2199.82001	8461.5375
2202.74867	8428.4375
2205.67545	8421.7375
2208.60037	8410.4375
2211.52341	8400.8375
2214.44458	8386.0375
2217.36388	8360.6375
2220.28132	8328.3375
2223.1969	8330.8375
2226.11061	8296.9375
2229.02246	8308.1375
2231.93245	8283.1375
2234.84058	8240.2375
2237.74686	8230.0375
2240.65128	8230.7375
2243.55385	8201.8375
2246.45456	8200.5375
2249.35343	8190.5375
2252.25044	8187.9375
2255.14561	8145.7375
2258.03893	8106.4375
2260.93041	8086.0375
2263.82004	8074.8375
2266.70783	8043.1375
2269.59378	8030.6375
2272.4779	8019.7375
2275.36017	7972.4375
2278.24061	7964.9375
2281.11922	7948.1375
2283.996	7938.4375
2286.87094	7965.0375
2289.74405	7912.0375
2292.61534	7902.2375
2295.4848	7894.0375
2298.35243	7887.5375
2301.21824	7867.4375
2304.08223	7863.5375
2306.94439	7883.1375
2309.80474	7874.5375
2312.66327	7870.4375
2315.51999	7852.3375
2318.37489	7848.0375
2321.22797	7840.9375
2324.07925	7822.4375
2326.92871	7806.6375
2329.77637	7811.2375
2332.62222	7800.7375
2335.46626	7801.6375
2338.3085	7772.3375
2341.14893	7774.0375
2343.98756	7762.7375
2346.8244	7772.0375
2349.65943	7735.6375
2352.49267	7722.3375
2355.32411	7750.1375
2358.15376	7748.9375
2360.98161	7738.5375
2363.80768	7743.3375
2366.63195	7736.2375
2369.45444	7732.8375
2372.27514	7710.3375
2375.09405	7696.7375
2377.91118	7664.5375
2380.72652	7660.3375
2383.54009	7623.5375
2386.35187	7604.8375
2389.16188	7594.1375
2391.97011	7593.4375
2394.77657	7572.1375
2397.58125	7565.8375
2400.38416	7536.9375
2403.18529	7501.7375
2405.98466	7509.8375
2408.78226	7503.4375
2411.57809	7498.4375
2414.37216	7491.7375
2417.16446	7461.6375
2419.955	7449.9375
2422.74378	7453.6375
2425.5308	7435.9375
2428.31606	7421.7375
2431.09956	7413.7375
2433.88131	7405.8375
2436.6613	7391.1375
2439.43954	7405.9375
2442.21603	7394.0375
2444.99077	7373.3375
2447.76377	7392.7375
2450.53501	7386.7375
2453.30451	7382.1375
2456.07226	7374.4375
2458.83827	7347.2375
2461.60254	7371.6375
2464.36507	7361.3375
2467.12586	7362.3375
2469.88492	7342.8375
2472.64224	7360.9375
2475.39782	7340.8375
2478.15167	7356.5375
2480.90379	7356.8375
2483.65417	7338.2375
2486.40283	7346.0375
2489.14976	7340.5375
2491.89497	7327.2375
2494.63845	7350.0375
2497.3802	7335.5375
2500.12024	7339.5375
2502.85855	7336.4375
2505.59514	7329.6375
2508.33002	7316.4375
2511.06318	7293.7375
2513.79462	7304.9375
2516.52435	7303.5375
2519.25237	7298.4375
2521.97867	7248.3375
2524.70327	7278.2375
2527.42616	7254.5375
2530.14734	7240.8375
2532.86681	7240.3375
2535.58458	7253.2375
2538.30065	7233.1375
2541.01501	7243.1375
2543.72768	7219.6375
2546.43864	7200.3375
2549.14791	7173.7375
2551.85548	7185.5375
2554.56136	7183.7375
2557.26554	7160.0375
2559.96803	7147.7375
2562.66883	7147.4375
2565.36794	7145.3375
2568.06536	7147.6375
2570.7611	7120.4375
2573.45514	7104.8375
2576.14751	7100.9375
2578.83819	7106.9375
2581.52719	7080.5375
2584.21451	7086.8375
2586.90015	7095.7375
2589.58411	7079.5375
2592.2664	7074.7375
2594.94701	7047.1375
2597.62594	7047.5375
2600.30321	7045.1375
2602.9788	7050.9375
2605.65273	7059.4375
2608.32498	7040.1375
2610.99557	7051.0375
2613.66449	7052.9375
2616.33175	7027.4375
2618.99734	7020.2375
2621.66128	7033.3375
2624.32355	7008.0375
2626.98416	6996.1375
2629.64311	6996.1375
2632.30041	6985.3375
2634.95605	7001.8375
2637.61004	6990.0375
2640.26238	6982.1375
2642.91306	6967.5375
2645.56209	6977.4375
2648.20948	6969.0375
2650.85521	6974.1375
2653.4993	6971.9375
2656.14175	6990.9375
2658.78255	6996.9375
2661.42171	6985.7375
2664.05923	6976.8375
2666.6951	6966.5375
2669.32934	6985.8375
2671.96194	6990.4375
2674.59291	6979.6375
2677.22224	6989.6375
2679.84993	6972.2375
2682.476	6952.7375
2685.10043	6945.3375
2687.72324	6948.4375
2690.34441	6940.2375
2692.96396	6942.1375
2695.58188	6940.3375
2698.19818	6918.1375
2700.81285	6948.7375
2703.4259	6945.5375
2706.03733	6959.1375
2708.64714	6967.0375
2711.25533	6958.6375
2713.86191	6966.5375
2716.46687	6977.0375
2719.07021	6965.0375
2721.67194	7003.2375
2724.27206	6966.3375
2726.87057	6983.2375
2729.46747	6993.5375
2732.06276	6982.9375
2734.65644	6961.0375
2737.24852	6961.5375
2739.83899	6958.6375
2742.42786	6951.5375
2745.01513	6936.7375
2747.60079	6943.4375
2750.18486	6920.8375
2752.76733	6921.3375
2755.3482	6929.9375
2757.92747	6942.8375
2760.50515	6907.9375
2763.08123	6913.7375
2765.65573	6898.3375
2768.22863	6911.0375
2770.79994	6888.6375
2773.36967	6913.8375
2775.9378	6905.1375
2778.50435	6904.7375
2781.06932	6912.3375
2783.6327	6888.9375
2786.1945	6894.7375
2788.75471	6905.0375
2791.31335	6886.2375
2793.87041	6891.9375
2796.42589	6857.0375
2798.97979	6875.6375
2801.53212	6839.1375
2804.08288	6826.8375
2806.63206	6819.7375
2809.17967	6800.9375
2811.72571	6794.4375
2814.27018	6771.6375
2816.81308	6781.1375
2819.35442	6778.7375
2821.89419	6759.7375
2824.43239	6746.4375
2826.96904	6739.9375
2829.50412	6757.7375
2832.03763	6733.1375
2834.56959	6736.6375
2837.1	6711.1375
2839.62884	6721.8375
2842.15613	6743.8375
2844.68186	6769.1375
2847.20604	6783.0375
2849.72867	6795.2375
2852.24974	6785.9375
2854.76927	6791.8375
2857.28724	6784.8375
2859.80367	6783.0375
2862.31855	6745.9375
2864.83189	6756.0375
2867.34368	6739.2375
2869.85393	6707.8375
2872.36264	6737.1375
2874.8698	6733.6375
2877.37543	6743.3375
2879.87952	6726.8375
2882.38207	6713.6375
2884.88308	6713.7375
2887.38256	6714.3375
2889.88051	6725.4375
2892.37692	6737.1375
2894.8718	6740.1375
2897.36515	6745.8375
2899.85698	6733.1375
2902.34727	6763.5375
2904.83604	6756.2375
2907.32328	6771.8375
2909.809	6779.3375
2912.29319	6761.9375
2914.77587	6781.1375
2917.25702	6771.9375
2919.73665	6754.6375
2922.21476	6751.5375
2924.69136	6777.5375
2927.16644	6768.1375
2929.64	6779.6375
2932.11205	6748.9375
2934.58258	6731.2375
2937.05161	6727.8375
2939.51912	6742.3375
2941.98513	6702.3375
2944.44962	6691.4375
2946.91261	6662.2375
2949.37409	6668.3375
2951.83407	6654.3375
2954.29254	6639.0375
2956.74951	6615.6375
2959.20498	6600.8375
2961.65895	6588.3375
2964.11142	6591.7375
2966.56239	6575.0375
2969.01186	6560.6375
2971.45984	6541.6375
2973.90632	6535.4375
2976.35131	6523.3375
2978.7948	6494.6375
2981.23681	6466.5375
2983.67732	6441.7375
2986.11635	6438.1375
2988.55388	6421.2375
2990.98993	6394.7375
2993.4245	6378.0375
2995.85758	6372.3375
2998.28917	6345.6375
3000.71928	6342.7375
3003.14791	6317.0375
3005.57506	6312.3375
3008.00073	6272.1375
3010.42493	6291.1375
3012.84764	6284.3375
3015.26888	6291.1375
3017.68865	6241.7375
3020.10694	6231.0375
3022.52376	6208.2375
3024.9391	6223.5375
3027.35298	6205.2375
3029.76539	6193.0375
3032.17632	6172.9375
3034.5858	6177.9375
3036.9938	6169.1375
3039.40034	6181.7375
3041.80542	6164.1375
3044.20903	6165.8375
3046.61118	6161.1375
3049.01187	6135.3375
3051.4111	6124.6375
3053.80888	6117.4375
3056.20519	6097.8375
3058.60005	6084.4375
3060.99345	6088.5375
3063.3854	6065.0375
3065.7759	6047.2375
3068.16494	6019.7375
3070.55254	5998.4375
3072.93868	5988.6375
3075.32338	5967.5375
3077.70662	5981.1375
3080.08842	5936.4375
3082.46878	5941.5375
3084.84769	5918.1375
3087.22515	5913.7375
3089.60118	5909.9375
3091.97576	5915.1375
3094.3489	5911.9375
3096.72061	5912.5375
3099.09087	5899.9375
3101.4597	5898.4375
3103.82709	5920.7375
3106.19305	5908.8375
3108.55757	5902.8375
3110.92066	5841.8375
3113.28232	5870.5375
3115.64255	5852.3375
3118.00134	5847.2375
3120.35871	5849.3375
3122.71466	5832.4375
3125.06917	5799.4375
3127.42226	5809.2375
3129.77393	5786.5375
3132.12417	5784.5375
3134.47299	5791.0375
3136.82039	5774.1375
3139.16636	5779.2375
3141.51092	5770.2375
3143.85406	5757.0375
3146.19579	5776.7375
3148.53609	5774.8375
3150.87499	5765.2375
3153.21246	5779.9375
3155.54853	5801.1375
3157.88318	5799.6375
3160.21642	5793.8375
3162.54826	5804.3375
3164.87868	5804.6375
3167.2077	5800.7375
3169.5353	5800.2375
3171.86151	5805.4375
3174.18631	5801.7375
3176.5097	5777.8375
3178.83169	5776.3375
3181.15228	5798.5375
3183.47147	5775.7375
3185.78926	5756.5375
3188.10565	5744.0375
3190.42065	5747.3375
3192.73424	5759.8375
3195.04645	5755.7375
3197.35725	5747.4375
3199.66667	5734.3375
3201.97469	5762.2375
3204.28132	5741.7375
3206.58656	5762.5375
3208.8904	5756.3375
3211.19287	5759.5375
3213.49394	5750.3375
3215.79363	5756.2375
3218.09193	5749.9375
3220.38884	5747.2375
3222.68438	5733.4375
3224.97853	5751.0375
3227.2713	5752.1375
3229.56269	5729.8375
3231.8527	5724.9375
3234.14133	5737.0375
3236.42858	5711.4375
3238.71446	5710.9375
3240.99896	5705.5375
3243.28209	5679.7375
3245.56384	5686.0375
3247.84423	5669.8375
3250.12324	5669.5375
3252.40088	5652.3375
3254.67715	5652.8375
3256.95205	5640.8375
3259.22558	5619.1375
3261.49775	5607.2375
3263.76855	5613.3375
3266.03799	5582.3375
3268.30606	5602.0375
3270.57277	5574.1375
3272.83812	5564.4375
3275.10211	5546.7375
3277.36474	5556.0375
3279.62601	5548.9375
3281.88593	5540.9375
3284.14448	5558.6375
3286.40168	5552.2375
3288.65753	5553.1375
3290.91202	5562.8375
3293.16516	5533.3375
3295.41695	5522.5375
3297.66738	5472.9375
3299.91647	5434.1375
3302.16421	5398.4375
3304.4106	5365.9375
3306.65564	5337.1375
3308.89933	5300.2375
3311.14169	5260.1375
3313.38269	5223.5375
3315.62236	5200.5375
3317.86068	5141.7375
3320.09766	5092.9375
3322.3333	5087.2375
3324.5676	5040.6375
3326.80056	4953.7375
3329.03219	4941.5375
3331.26248	1.7375
3333.49143	-0.3625
3335.71905	-0.1625
