Data from AgNPs_FTO_APTES_UA_5uM_CRN_2uM_R6G_10uM_NaF_0.1M_Addition_RamanShift__10__11-08-36-623.txt Node

Date: Mon Feb 07 11:08:36 GMT 2022
User: TCL
Spectrometer: QEP01345
Trigger mode: 4
Integration Time (sec): 7.000000E0
Scans to average: 10
Electric dark correction enabled: true
Nonlinearity correction enabled: false
Boxcar width: 0
XAxis mode: Raman Shifts
Number of Pixels in Spectrum: 1044
>>>>>Begin Spectral Data<<<<<
46.04893	-0.3625
50.45542	-2.0625
54.85868	-0.7625
59.25871	0.3375
63.6555	107.3375
68.04907	109.0375
72.43941	115.9375
76.82654	122.4375
81.21044	121.1375
85.59113	124.2375
89.96862	134.1375
94.34289	131.9375
98.71396	140.0375
103.08183	146.1375
107.4465	153.0375
111.80798	151.3375
116.16626	157.1375
120.52136	168.0375
124.87327	175.4375
129.222	185.5375
133.56755	198.7375
137.90993	215.0375
142.24913	237.5375
146.58517	278.0375
150.91804	320.2375
155.24774	391.2375
159.57429	493.8375
163.89768	628.6375
168.21792	852.8375
172.53501	1167.1375
176.84895	1617.0375
181.15975	2283.8375
185.46741	3208.6375
189.77193	4419.6375
194.07331	5935.2375
198.37157	7621.5375
202.6667	9440.7375
206.9587	11207.7375
211.24758	12990.6375
215.53334	14703.1375
219.81599	16615.3375
224.09553	18627.0375
228.37195	20925.6375
232.64527	23296.5375
236.91549	25882.7375
241.18261	28465.9375
245.44663	30882.3375
249.70755	33026.4375
253.96539	34861.5375
258.22014	36459.9375
262.4718	37652.7375
266.72039	38514.1375
270.96589	38957.3375
275.20832	38935.9375
279.44768	38690.4375
283.68397	38327.1375
287.91719	38076.2375
292.14735	37919.6375
296.37445	37796.5375
300.59849	37854.8375
304.81948	38132.6375
309.03742	38214.8375
313.25231	38079.9375
317.46415	37514.5375
321.67296	36757.2375
325.87872	36045.2375
330.08145	35591.3375
334.28114	35490.9375
338.47781	35646.6375
342.67145	35918.5375
346.86207	36485.1375
351.04966	37069.5375
355.23424	37746.0375
359.4158	38313.0375
363.59435	38846.0375
367.76989	39155.0375
371.94243	39289.6375
376.11196	39240.0375
380.27849	39208.6375
384.44203	39295.7375
388.60257	39555.1375
392.76012	40096.8375
396.91468	40691.5375
401.06626	41544.2375
405.21485	41982.9375
409.36047	41870.7375
413.50311	41419.1375
417.64277	41408.7375
421.77947	41848.7375
425.9132	42265.0375
430.04396	42497.5375
434.17176	42604.1375
438.2966	42583.0375
442.41849	42861.9375
446.53742	43804.0375
450.6534	44937.7375
454.76644	45635.6375
458.87653	45837.7375
462.98368	45603.4375
467.08789	45014.2375
471.18916	44291.0375
475.2875	43548.2375
479.38291	43144.2375
483.4754	42918.3375
487.56496	42640.5375
491.6516	42142.0375
495.73531	41430.5375
499.81612	41030.1375
503.89401	41250.7375
507.96899	41477.1375
512.04106	41566.7375
516.11023	41150.3375
520.1765	40462.9375
524.23987	39701.7375
528.30034	39108.5375
532.35792	38554.9375
536.41261	37980.2375
540.46441	37548.5375
544.51333	37545.2375
548.55936	37976.3375
552.60252	38893.9375
556.64279	39940.5375
560.6802	40840.6375
564.71473	41548.9375
568.7464	42628.7375
572.7752	44605.1375
576.80114	47073.1375
580.82422	49818.2375
584.84444	52979.7375
588.86181	57069.7375
592.87633	60658.2375
596.888	59847.1375
600.89682	54726.3375
604.9028	51284.4375
608.90594	52098.1375
612.90624	53773.4375
616.90371	49992.2375
620.89834	42625.0375
624.89015	39534.3375
628.87913	39446.0375
632.86528	39957.8375
636.84862	39805.6375
640.82913	38801.4375
644.80683	37591.9375
648.78172	36884.4375
652.75379	36983.5375
656.72306	37425.7375
660.68952	37773.5375
664.65319	37412.3375
668.61405	36739.5375
672.57211	36640.6375
676.52738	36835.3375
680.47986	36826.6375
684.42955	36437.2375
688.37646	36205.7375
692.32058	36540.5375
696.26192	37230.1375
700.20048	37936.8375
704.13626	38456.0375
708.06928	38714.6375
711.99952	38720.4375
715.927	38708.2375
719.85171	38741.9375
723.77365	38315.3375
727.69284	37369.5375
731.60928	36585.8375
735.52295	36192.8375
739.43388	36139.8375
743.34206	36345.1375
747.24749	36684.3375
751.15017	37273.8375
755.05012	38171.9375
758.94733	39450.6375
762.8418	41449.3375
766.73354	44262.6375
770.62254	46528.3375
774.50882	46363.0375
778.39237	43923.0375
782.27321	41042.5375
786.15132	38802.0375
790.02671	37281.7375
793.89938	36508.7375
797.76935	36168.6375
801.6366	36053.3375
805.50115	36004.6375
809.36299	35814.8375
813.22213	35503.3375
817.07857	35301.2375
820.93231	35077.4375
824.78336	34792.8375
828.63172	34460.5375
832.47738	34350.1375
836.32036	34267.3375
840.16066	34264.1375
843.99827	34315.8375
847.8332	34313.7375
851.66546	34379.9375
855.49504	34447.6375
859.32195	34478.1375
863.1462	34344.0375
866.96777	34236.8375
870.78668	34190.3375
874.60293	34205.9375
878.41652	34154.5375
882.22745	34252.9375
886.03573	34373.6375
889.84136	34363.3375
893.64433	34232.3375
897.44466	34136.0375
901.24235	34039.6375
905.0374	33967.3375
908.8298	33955.3375
912.61957	34031.0375
916.40671	34484.2375
920.19121	35227.2375
923.97308	35867.8375
927.75233	36049.2375
931.52895	35411.9375
935.30295	34479.5375
939.07433	33553.9375
942.84309	32868.4375
946.60924	32568.2375
950.37278	32437.7375
954.13371	32485.6375
957.89203	32527.8375
961.64774	32567.0375
965.40086	32633.3375
969.15137	32560.0375
972.89929	32370.3375
976.64461	32144.4375
980.38733	32045.5375
984.12747	32033.7375
987.86502	32136.6375
991.59999	32285.3375
995.33237	32643.4375
999.06217	33121.6375
1002.78939	33899.7375
1006.51404	34789.1375
1010.23611	35699.6375
1013.95561	36205.3375
1017.67255	36297.2375
1021.38692	35761.6375
1025.09872	34913.3375
1028.80796	34289.8375
1032.51465	34183.2375
1036.21877	34408.8375
1039.92035	34604.9375
1043.61937	34741.6375
1047.31584	34706.3375
1051.00976	34747.5375
1054.70114	34819.9375
1058.38998	35159.4375
1062.07627	35625.6375
1065.76003	36222.3375
1069.44126	36993.9375
1073.11995	37870.1375
1076.79611	38614.4375
1080.46974	38920.7375
1084.14085	39179.2375
1087.80943	39784.7375
1091.47549	40421.0375
1095.13903	40657.3375
1098.80005	39961.2375
1102.45857	38503.7375
1106.11456	37306.0375
1109.76805	36650.6375
1113.41903	36509.8375
1117.06751	36604.8375
1120.71348	36911.7375
1124.35696	37316.0375
1127.99793	37815.9375
1131.63641	38187.3375
1135.2724	38331.8375
1138.90589	38470.7375
1142.5369	38771.7375
1146.16542	39305.0375
1149.79145	39887.3375
1153.415	40524.7375
1157.03607	41475.8375
1160.65467	43192.9375
1164.27079	45899.3375
1167.88443	48984.9375
1171.49561	51662.1375
1175.10432	54592.1375
1178.71056	58341.5375
1182.31434	61977.7375
1185.91565	63746.5375
1189.51451	63271.8375
1193.11091	61730.8375
1196.70485	59572.6375
1200.29634	57464.2375
1203.88538	56348.2375
1207.47197	56505.3375
1211.05612	56947.7375
1214.63782	56220.6375
1218.21708	54114.8375
1221.79391	51577.8375
1225.36829	49573.6375
1228.94024	48389.9375
1232.50976	47503.6375
1236.07685	46747.9375
1239.6415	46209.0375
1243.20374	46101.5375
1246.76355	46410.3375
1250.32093	47254.0375
1253.8759	48553.4375
1257.42845	50059.5375
1260.97859	51897.2375
1264.52631	53812.4375
1268.07163	55731.7375
1271.61453	57674.3375
1275.15503	59748.6375
1278.69312	62129.7375
1282.22882	65009.1375
1285.76211	68317.9375
1289.29301	72214.6375
1292.82151	76328.7375
1296.34761	81266.2375
1299.87133	86926.0375
1303.39266	92412.6375
1306.9116	96588.2375
1310.42815	98740.9375
1313.94233	99004.0375
1317.45412	97427.1375
1320.96354	95711.4375
1324.47058	94878.0375
1327.97525	94900.5375
1331.47754	95076.0375
1334.97747	94474.9375
1338.47502	92801.5375
1341.97022	90582.2375
1345.46305	88420.5375
1348.95352	86416.8375
1352.44163	85422.3375
1355.92738	86563.9375
1359.41078	89937.1375
1362.89183	92980.1375
1366.37053	92590.0375
1369.84688	86554.6375
1373.32088	76902.6375
1376.79254	69639.6375
1380.26186	67186.2375
1383.72883	67795.4375
1387.19347	68289.4375
1390.65578	67544.8375
1394.11575	67073.0375
1397.57339	68152.8375
1401.0287	70139.3375
1404.48168	71771.0375
1407.93234	71718.9375
1411.38068	69536.1375
1414.82669	65996.3375
1418.27039	62221.9375
1421.71177	58681.9375
1425.15083	56148.2375
1428.58758	55291.4375
1432.02203	56353.9375
1435.45416	58624.3375
1438.88399	61152.5375
1442.31151	62794.3375
1445.73673	63577.0375
1449.15965	63933.1375
1452.58027	63899.7375
1455.9986	63654.6375
1459.41463	63878.3375
1462.82837	64906.0375
1466.23982	66310.1375
1469.64898	67681.2375
1473.05586	68316.3375
1476.46045	68195.0375
1479.86276	67589.8375
1483.26279	66824.0375
1486.66054	66500.6375
1490.05602	66848.2375
1493.44922	67546.7375
1496.84016	68456.8375
1500.22882	69278.1375
1503.61521	70271.9375
1506.99934	71399.2375
1510.38121	72159.1375
1513.76081	72283.4375
1517.13816	71806.7375
1520.51324	71486.8375
1523.88607	71870.4375
1527.25665	72770.0375
1530.62498	73376.1375
1533.99105	72849.0375
1537.35488	71101.0375
1540.71647	68512.9375
1544.07581	65520.0375
1547.4329	62669.4375
1550.78776	60299.8375
1554.14038	58705.5375
1557.49077	57780.8375
1560.83892	57096.0375
1564.18484	56768.4375
1567.52853	56675.7375
1570.86999	57231.1375
1574.20922	58707.5375
1577.54624	60316.5375
1580.88103	61445.6375
1584.2136	63247.8375
1587.54395	66656.9375
1590.87208	71703.9375
1594.19801	77219.9375
1597.52172	81297.5375
1600.84321	81052.3375
1604.16251	75322.7375
1607.47959	67188.0375
1610.79447	59525.3375
1614.10715	53137.1375
1617.41763	48345.1375
1620.7259	45278.3375
1624.03199	43895.1375
1627.33587	44091.5375
1630.63757	46126.8375
1633.93707	50415.0375
1637.23439	57691.3375
1640.52951	68502.4375
1643.82246	81599.0375
1647.11321	91921.6375
1650.40179	93181.6375
1653.68819	83846.7375
1656.97241	69452.8375
1660.25446	56272.9375
1663.53433	46930.0375
1666.81203	41052.6375
1670.08756	37435.1375
1673.36092	35242.8375
1676.63211	33822.8375
1679.90115	32888.5375
1683.16801	32166.8375
1686.43272	31567.2375
1689.69527	31136.7375
1692.95567	30821.8375
1696.2139	30624.6375
1699.46999	30448.9375
1702.72392	30260.1375
1705.97571	30120.8375
1709.22535	30002.2375
1712.47284	29867.6375
1715.71819	29870.6375
1718.96139	29704.1375
1722.20246	29578.6375
1725.44139	29408.9375
1728.67818	29192.0375
1731.91284	28972.7375
1735.14537	28729.8375
1738.37576	28512.6375
1741.60403	28422.8375
1744.83017	28273.9375
1748.05418	28138.3375
1751.27607	28067.0375
1754.49584	27988.9375
1757.71349	27963.2375
1760.92903	27883.1375
1764.14244	27841.8375
1767.35375	27836.1375
1770.56294	27747.4375
1773.77002	27690.3375
1776.97499	27583.1375
1780.17785	27468.5375
1783.37861	27432.1375
1786.57727	27379.3375
1789.77382	27297.2375
1792.96828	27258.1375
1796.16064	27151.0375
1799.3509	27099.1375
1802.53907	27071.3375
1805.72514	26988.9375
1808.90913	26882.3375
1812.09102	26800.4375
1815.27083	26772.1375
1818.44856	26706.4375
1821.6242	26669.5375
1824.79776	26645.0375
1827.96924	26625.8375
1831.13864	26598.7375
1834.30597	26633.6375
1837.47122	26608.4375
1840.6344	26596.2375
1843.7955	26632.4375
1846.95454	26610.6375
1850.11151	26644.0375
1853.26642	26517.9375
1856.41926	26503.0375
1859.57004	26507.7375
1862.71876	26502.1375
1865.86542	26427.6375
1869.01003	26393.3375
1872.15258	26288.7375
1875.29308	26224.6375
1878.43152	26193.8375
1881.56792	26180.6375
1884.70227	26111.6375
1887.83457	26124.4375
1890.96482	26030.5375
1894.09304	25990.0375
1897.21921	25979.7375
1900.34335	25940.6375
1903.46544	25854.4375
1906.58551	25864.4375
1909.70353	25811.7375
1912.81953	25696.2375
1915.93349	25654.3375
1919.04543	25556.0375
1922.15534	25459.5375
1925.26322	25416.2375
1928.36908	25315.4375
1931.47292	25308.4375
1934.57473	25182.6375
1937.67453	25102.1375
1940.77232	24998.1375
1943.86808	24936.5375
1946.96184	24868.8375
1950.05358	24790.4375
1953.14331	24748.9375
1956.23103	24656.5375
1959.31675	24580.6375
1962.40046	24431.0375
1965.48217	24446.4375
1968.56188	24315.4375
1971.63959	24225.2375
1974.7153	24120.4375
1977.78901	24062.0375
1980.86073	23945.2375
1983.93046	23853.1375
1986.99819	23802.0375
1990.06394	23775.6375
1993.1277	23697.2375
1996.18947	23592.3375
1999.24925	23507.8375
2002.30706	23419.6375
2005.36288	23360.6375
2008.41672	23259.5375
2011.46859	23231.8375
2014.51848	23130.6375
2017.56639	23063.3375
2020.61233	23039.5375
2023.6563	22944.4375
2026.6983	22875.8375
2029.73833	22850.5375
2032.7764	22793.2375
2035.8125	22763.9375
2038.84664	22666.0375
2041.87881	22666.8375
2044.90903	22582.2375
2047.93729	22542.2375
2050.96359	22523.8375
2053.98794	22477.9375
2057.01034	22472.1375
2060.03078	22452.8375
2063.04927	22460.4375
2066.06582	22438.3375
2069.08042	22405.3375
2072.09307	22376.9375
2075.10378	22340.3375
2078.11255	22302.3375
2081.11938	22313.2375
2084.12426	22267.0375
2087.12722	22240.6375
2090.12824	22239.3375
2093.12732	22216.2375
2096.12447	22272.8375
2099.11969	22248.2375
2102.11299	22231.3375
2105.10435	22224.3375
2108.09379	22230.4375
2111.08131	22218.9375
2114.0669	22211.9375
2117.05057	22231.2375
2120.03233	22220.3375
2123.01216	22238.9375
2125.99008	22241.5375
2128.96609	22307.2375
2131.94018	22285.4375
2134.91236	22247.3375
2137.88263	22235.1375
2140.851	22251.9375
2143.81746	22246.6375
2146.78201	22182.0375
2149.74466	22175.2375
2152.7054	22156.4375
2155.66425	22138.0375
2158.6212	22116.6375
2161.57625	22089.6375
2164.52941	22085.4375
2167.48067	22056.9375
2170.43004	22071.1375
2173.37752	22073.0375
2176.32311	22085.7375
2179.26681	22028.1375
2182.20863	22018.3375
2185.14856	22036.5375
2188.08661	22058.7375
2191.02278	22093.8375
2193.95707	21999.3375
2196.88948	21948.7375
2199.82001	21891.5375
2202.74867	21885.9375
2205.67545	21810.8375
2208.60037	21795.3375
2211.52341	21775.3375
2214.44458	21752.6375
2217.36388	21711.7375
2220.28132	21651.0375
2223.1969	21643.3375
2226.11061	21620.8375
2229.02246	21569.3375
2231.93245	21620.4375
2234.84058	21560.3375
2237.74686	21517.4375
2240.65128	21507.1375
2243.55385	21414.4375
2246.45456	21403.9375
2249.35343	21336.1375
2252.25044	21259.2375
2255.14561	21150.1375
2258.03893	21125.0375
2260.93041	21060.0375
2263.82004	20965.5375
2266.70783	20918.2375
2269.59378	20865.2375
2272.4779	20794.8375
2275.36017	20750.5375
2278.24061	20691.0375
2281.11922	20636.9375
2283.996	20627.6375
2286.87094	20572.0375
2289.74405	20576.0375
2292.61534	20510.3375
2295.4848	20528.5375
2298.35243	20476.4375
2301.21824	20470.8375
2304.08223	20469.6375
2306.94439	20485.4375
2309.80474	20488.8375
2312.66327	20488.9375
2315.51999	20417.8375
2318.37489	20397.7375
2321.22797	20326.9375
2324.07925	20323.5375
2326.92871	20309.1375
2329.77637	20290.0375
2332.62222	20209.3375
2335.46626	20240.7375
2338.3085	20211.1375
2341.14893	20233.0375
2343.98756	20219.4375
2346.8244	20214.7375
2349.65943	20180.0375
2352.49267	20205.5375
2355.32411	20210.2375
2358.15376	20150.0375
2360.98161	20121.3375
2363.80768	20143.0375
2366.63195	20195.7375
2369.45444	20148.5375
2372.27514	20105.0375
2375.09405	20062.3375
2377.91118	20039.8375
2380.72652	19961.1375
2383.54009	19904.1375
2386.35187	19893.6375
2389.16188	19808.6375
2391.97011	19790.5375
2394.77657	19744.1375
2397.58125	19697.6375
2400.38416	19658.1375
2403.18529	19629.9375
2405.98466	19646.2375
2408.78226	19607.1375
2411.57809	19588.0375
2414.37216	19577.3375
2417.16446	19591.0375
2419.955	19569.4375
2422.74378	19524.1375
2425.5308	19474.4375
2428.31606	19486.0375
2431.09956	19503.1375
2433.88131	19460.1375
2436.6613	19462.1375
2439.43954	19474.6375
2442.21603	19458.5375
2444.99077	19440.8375
2447.76377	19457.9375
2450.53501	19412.5375
2453.30451	19370.1375
2456.07226	19364.7375
2458.83827	19387.4375
2461.60254	19394.0375
2464.36507	19365.9375
2467.12586	19357.5375
2469.88492	19340.4375
2472.64224	19339.2375
2475.39782	19406.3375
2478.15167	19377.7375
2480.90379	19365.3375
2483.65417	19343.2375
2486.40283	19376.3375
2489.14976	19357.1375
2491.89497	19362.4375
2494.63845	19362.9375
2497.3802	19367.2375
2500.12024	19366.9375
2502.85855	19323.1375
2505.59514	19293.8375
2508.33002	19312.0375
2511.06318	19278.7375
2513.79462	19263.1375
2516.52435	19220.4375
2519.25237	19236.7375
2521.97867	19245.4375
2524.70327	19217.6375
2527.42616	19158.9375
2530.14734	19197.2375
2532.86681	19229.4375
2535.58458	19198.6375
2538.30065	19196.9375
2541.01501	19161.9375
2543.72768	19151.5375
2546.43864	19140.2375
2549.14791	19083.1375
2551.85548	19079.7375
2554.56136	19077.4375
2557.26554	19038.0375
2559.96803	18999.5375
2562.66883	19026.5375
2565.36794	19002.5375
2568.06536	18990.6375
2570.7611	18943.4375
2573.45514	18965.0375
2576.14751	18935.1375
2578.83819	18906.7375
2581.52719	18919.5375
2584.21451	18904.6375
2586.90015	18917.6375
2589.58411	18893.4375
2592.2664	18895.0375
2594.94701	18846.0375
2597.62594	18837.5375
2600.30321	18801.2375
2602.9788	18797.7375
2605.65273	18813.9375
2608.32498	18899.6375
2610.99557	18863.7375
2613.66449	18853.8375
2616.33175	18824.7375
2618.99734	18852.6375
2621.66128	18826.1375
2624.32355	18761.0375
2626.98416	18757.1375
2629.64311	18763.2375
2632.30041	18752.6375
2634.95605	18721.4375
2637.61004	18721.0375
2640.26238	18691.7375
2642.91306	18721.1375
2645.56209	18706.5375
2648.20948	18724.0375
2650.85521	18734.7375
2653.4993	18789.8375
2656.14175	18764.1375
2658.78255	18777.6375
2661.42171	18787.4375
2664.05923	18833.9375
2666.6951	18852.8375
2669.32934	18843.1375
2671.96194	18831.0375
2674.59291	18848.3375
2677.22224	18853.0375
2679.84993	18872.4375
2682.476	18814.2375
2685.10043	18805.7375
2687.72324	18798.3375
2690.34441	18792.1375
2692.96396	18795.5375
2695.58188	18798.9375
2698.19818	18813.0375
2700.81285	18796.1375
2703.4259	18830.8375
2706.03733	18840.2375
2708.64714	18808.2375
2711.25533	18846.5375
2713.86191	18825.9375
2716.46687	18829.6375
2719.07021	18834.5375
2721.67194	18891.6375
2724.27206	18884.9375
2726.87057	18927.7375
2729.46747	18945.2375
2732.06276	18962.9375
2734.65644	18946.9375
2737.24852	18953.1375
2739.83899	18922.9375
2742.42786	18937.3375
2745.01513	18922.0375
2747.60079	18868.0375
2750.18486	18879.6375
2752.76733	18850.8375
2755.3482	18846.1375
2757.92747	18845.2375
2760.50515	18822.9375
2763.08123	18825.3375
2765.65573	18813.6375
2768.22863	18794.7375
2770.79994	18778.7375
2773.36967	18811.3375
2775.9378	18843.1375
2778.50435	18842.2375
2781.06932	18835.9375
2783.6327	18809.1375
2786.1945	18820.5375
2788.75471	18847.5375
2791.31335	18756.4375
2793.87041	18721.4375
2796.42589	18708.7375
2798.97979	18714.3375
2801.53212	18683.0375
2804.08288	18689.0375
2806.63206	18614.6375
2809.17967	18566.9375
2811.72571	18516.4375
2814.27018	18511.9375
2816.81308	18442.7375
2819.35442	18419.0375
2821.89419	18356.3375
2824.43239	18414.6375
2826.96904	18341.7375
2829.50412	18295.6375
2832.03763	18274.6375
2834.56959	18274.6375
2837.1	18255.4375
2839.62884	18245.7375
2842.15613	18249.4375
2844.68186	18322.3375
2847.20604	18286.4375
2849.72867	18299.5375
2852.24974	18302.9375
2854.76927	18286.1375
2857.28724	18258.5375
2859.80367	18252.2375
2862.31855	18203.7375
2864.83189	18171.8375
2867.34368	18125.6375
2869.85393	18091.6375
2872.36264	18056.0375
2874.8698	18048.8375
2877.37543	18044.6375
2879.87952	18051.5375
2882.38207	18042.8375
2884.88308	18024.4375
2887.38256	18055.1375
2889.88051	18060.2375
2892.37692	18034.3375
2894.8718	18043.9375
2897.36515	18046.8375
2899.85698	18056.3375
2902.34727	18125.4375
2904.83604	18136.2375
2907.32328	18139.4375
2909.809	18100.5375
2912.29319	18163.1375
2914.77587	18134.4375
2917.25702	18122.2375
2919.73665	18101.0375
2922.21476	18103.7375
2924.69136	18101.1375
2927.16644	18116.9375
2929.64	18094.8375
2932.11205	18064.4375
2934.58258	17993.5375
2937.05161	17994.4375
2939.51912	17998.1375
2941.98513	18003.2375
2944.44962	17917.6375
2946.91261	17832.4375
2949.37409	17898.0375
2951.83407	17843.8375
2954.29254	17831.0375
2956.74951	17831.4375
2959.20498	17802.5375
2961.65895	17750.8375
2964.11142	17747.3375
2966.56239	17680.2375
2969.01186	17695.5375
2971.45984	17611.3375
2973.90632	17616.8375
2976.35131	17565.0375
2978.7948	17490.7375
2981.23681	17440.7375
2983.67732	17460.5375
2986.11635	17419.9375
2988.55388	17326.8375
2990.98993	17260.1375
2993.4245	17189.4375
2995.85758	17128.9375
2998.28917	17099.0375
3000.71928	17085.2375
3003.14791	17028.2375
3005.57506	16994.0375
3008.00073	16954.1375
3010.42493	16898.3375
3012.84764	16861.6375
3015.26888	16908.4375
3017.68865	16828.8375
3020.10694	16771.1375
3022.52376	16740.4375
3024.9391	16709.8375
3027.35298	16662.3375
3029.76539	16667.0375
3032.17632	16703.0375
3034.5858	16620.9375
3036.9938	16589.3375
3039.40034	16604.9375
3041.80542	16590.0375
3044.20903	16555.1375
3046.61118	16553.8375
3049.01187	16486.4375
3051.4111	16499.2375
3053.80888	16433.7375
3056.20519	16426.6375
3058.60005	16354.7375
3060.99345	16319.2375
3063.3854	16231.1375
3065.7759	16182.6375
3068.16494	16092.1375
3070.55254	16050.0375
3072.93868	16024.3375
3075.32338	15948.1375
3077.70662	15915.1375
3080.08842	15848.0375
3082.46878	15794.0375
3084.84769	15783.5375
3087.22515	15768.3375
3089.60118	15707.7375
3091.97576	15745.6375
3094.3489	15713.8375
3096.72061	15693.0375
3099.09087	15691.9375
3101.4597	15657.8375
3103.82709	15645.7375
3106.19305	15642.7375
3108.55757	15577.1375
3110.92066	15558.4375
3113.28232	15526.1375
3115.64255	15464.5375
3118.00134	15437.2375
3120.35871	15417.4375
3122.71466	15317.3375
3125.06917	15283.2375
3127.42226	15261.7375
3129.77393	15224.2375
3132.12417	15173.7375
3134.47299	15174.9375
3136.82039	15172.0375
3139.16636	15145.4375
3141.51092	15139.3375
3143.85406	15109.8375
3146.19579	15116.5375
3148.53609	15097.2375
3150.87499	15097.0375
3153.21246	15064.2375
3155.54853	15062.3375
3157.88318	15055.4375
3160.21642	15069.8375
3162.54826	15035.4375
3164.87868	15049.7375
3167.2077	15031.4375
3169.5353	15016.7375
3171.86151	15000.1375
3174.18631	14989.9375
3176.5097	14981.7375
3178.83169	14952.1375
3181.15228	14971.3375
3183.47147	14877.4375
3185.78926	14868.9375
3188.10565	14811.3375
3190.42065	14787.8375
3192.73424	14780.0375
3195.04645	14751.2375
3197.35725	14745.1375
3199.66667	14687.3375
3201.97469	14683.0375
3204.28132	14670.2375
3206.58656	14657.5375
3208.8904	14601.2375
3211.19287	14635.9375
3213.49394	14661.6375
3215.79363	14640.8375
3218.09193	14614.3375
3220.38884	14597.1375
3222.68438	14598.1375
3224.97853	14591.5375
3227.2713	14587.9375
3229.56269	14547.7375
3231.8527	14564.2375
3234.14133	14522.5375
3236.42858	14487.8375
3238.71446	14491.8375
3240.99896	14470.7375
3243.28209	14452.1375
3245.56384	14419.2375
3247.84423	14380.2375
3250.12324	14372.0375
3252.40088	14302.8375
3254.67715	14289.3375
3256.95205	14259.2375
3259.22558	14223.1375
3261.49775	14193.6375
3263.76855	14170.0375
3266.03799	14114.2375
3268.30606	14085.8375
3270.57277	14066.8375
3272.83812	14044.9375
3275.10211	14003.9375
3277.36474	13999.8375
3279.62601	13985.4375
3281.88593	13963.2375
3284.14448	13985.2375
3286.40168	13969.9375
3288.65753	13989.6375
3290.91202	13975.0375
3293.16516	13931.7375
3295.41695	13906.1375
3297.66738	13841.4375
3299.91647	13734.7375
3302.16421	13633.2375
3304.4106	13530.6375
3306.65564	13435.8375
3308.89933	13306.5375
3311.14169	13217.2375
3313.38269	13086.7375
3315.62236	13004.9375
3317.86068	12881.1375
3320.09766	12755.9375
3322.3333	12674.3375
3324.5676	12598.4375
3326.80056	12392.8375
3329.03219	12306.2375
3331.26248	5.1375
3333.49143	-1.3625
3335.71905	-1.4625
