Data from AgNPs_FTO_APTES_UA_5uM_CRN_1uM_R6G_10uM_NaF_0.1M_Addition_RamanShift__32__10-54-36-607.txt Node

Date: Mon Feb 07 10:54:36 GMT 2022
User: TCL
Spectrometer: QEP01345
Trigger mode: 4
Integration Time (sec): 7.000000E0
Scans to average: 10
Electric dark correction enabled: true
Nonlinearity correction enabled: false
Boxcar width: 0
XAxis mode: Raman Shifts
Number of Pixels in Spectrum: 1044
>>>>>Begin Spectral Data<<<<<
46.04893	0.025
50.45542	-0.675
54.85868	-0.275
59.25871	0.725
63.6555	51.525
68.04907	55.825
72.43941	61.325
76.82654	61.725
81.21044	65.625
85.59113	66.125
89.96862	72.225
94.34289	75.125
98.71396	76.325
103.08183	79.425
107.4465	81.525
111.80798	80.425
116.16626	82.225
120.52136	89.225
124.87327	89.125
129.222	90.125
133.56755	94.025
137.90993	101.725
142.24913	113.425
146.58517	122.525
150.91804	139.525
155.24774	162.325
159.57429	202.525
163.89768	256.725
168.21792	343.925
172.53501	456.625
176.84895	631.825
181.15975	884.125
185.46741	1229.625
189.77193	1683.425
194.07331	2247.825
198.37157	2904.625
202.6667	3572.725
206.9587	4238.925
211.24758	4941.125
215.53334	5677.125
219.81599	6546.525
224.09553	7510.925
228.37195	8601.625
232.64527	9772.925
236.91549	10868.125
241.18261	11848.225
245.44663	12547.425
249.70755	13057.325
253.96539	13475.325
258.22014	13800.525
262.4718	14162.025
266.72039	14419.225
270.96589	14583.025
275.20832	14561.825
279.44768	14398.625
283.68397	14215.625
287.91719	14159.225
292.14735	14287.325
296.37445	14739.425
300.59849	15538.425
304.81948	16540.325
309.03742	17362.425
313.25231	17450.425
317.46415	16436.325
321.67296	14674.025
325.87872	13100.525
330.08145	12333.925
334.28114	12173.025
338.47781	12453.825
342.67145	12896.425
346.86207	13685.925
351.04966	14868.325
355.23424	16241.525
359.4158	17250.525
363.59435	17720.225
367.76989	17612.525
371.94243	17360.025
376.11196	17023.025
380.27849	16732.525
384.44203	16314.825
388.60257	15882.025
392.76012	15656.025
396.91468	15837.825
401.06626	16470.225
405.21485	16953.625
409.36047	16566.725
413.50311	15269.425
417.64277	14089.425
421.77947	13349.425
425.9132	13023.825
430.04396	12907.225
434.17176	12906.425
438.2966	13053.425
442.41849	13440.925
446.53742	13898.125
450.6534	14352.925
454.76644	14585.525
458.87653	14625.625
462.98368	14400.225
467.08789	14065.125
471.18916	13657.325
475.2875	13204.725
479.38291	12812.225
483.4754	12515.725
487.56496	12308.125
491.6516	12194.625
495.73531	12200.325
499.81612	12299.725
503.89401	12526.825
507.96899	12780.225
512.04106	13054.925
516.11023	13339.025
520.1765	13480.325
524.23987	13399.025
528.30034	12969.825
532.35792	12570.425
536.41261	12086.125
540.46441	11594.725
544.51333	11326.525
548.55936	11404.525
552.60252	11850.625
556.64279	12394.225
560.6802	12651.325
564.71473	12986.025
568.7464	13925.625
572.7752	14664.725
576.80114	14141.125
580.82422	13401.525
584.84444	13098.625
588.86181	12864.725
592.87633	12719.625
596.888	12805.125
600.89682	13438.925
604.9028	15782.625
608.90594	22264.925
612.90624	31380.325
616.90371	30677.925
620.89834	18995.525
624.89015	13148.625
628.87913	12000.725
632.86528	12172.025
636.84862	12564.425
640.82913	12305.225
644.80683	11415.025
648.78172	10761.625
652.75379	10849.525
656.72306	11693.125
660.68952	12735.125
664.65319	12619.625
668.61405	11550.625
672.57211	10941.525
676.52738	10846.325
680.47986	10788.725
684.42955	10598.425
688.37646	10475.125
692.32058	10523.925
696.26192	10721.925
700.20048	10941.325
704.13626	11168.225
708.06928	11248.625
711.99952	11094.425
715.927	10927.625
719.85171	10943.225
723.77365	10925.525
727.69284	10696.825
731.60928	10526.325
735.52295	10476.525
739.43388	10551.025
743.34206	10639.725
747.24749	10743.025
751.15017	10916.625
755.05012	11277.625
758.94733	12167.125
762.8418	14345.425
766.73354	18199.525
770.62254	22172.925
774.50882	24133.925
778.39237	22953.225
782.27321	19082.125
786.15132	14965.525
790.02671	12488.925
793.89938	11369.425
797.76935	10919.625
801.6366	10695.125
805.50115	10537.225
809.36299	10417.225
813.22213	10314.625
817.07857	10268.325
820.93231	10242.025
824.78336	10316.425
828.63172	10409.625
832.47738	10496.425
836.32036	10425.025
840.16066	10272.525
843.99827	10160.425
847.8332	10084.925
851.66546	10081.825
855.49504	10090.625
859.32195	10014.725
863.1462	9932.125
866.96777	9853.625
870.78668	9809.025
874.60293	9859.625
878.41652	9891.225
882.22745	10000.425
886.03573	10079.525
889.84136	10031.825
893.64433	9956.225
897.44466	9944.525
901.24235	9942.525
905.0374	9916.025
908.8298	9831.325
912.61957	9806.825
916.40671	9873.925
920.19121	10061.825
923.97308	10255.325
927.75233	10461.225
931.52895	10644.525
935.30295	10455.325
939.07433	9888.725
942.84309	9415.025
946.60924	9153.625
950.37278	8993.125
954.13371	8911.225
957.89203	8865.725
961.64774	8831.025
965.40086	8796.125
969.15137	8754.125
972.89929	8731.725
976.64461	8731.625
980.38733	8710.625
984.12747	8749.125
987.86502	8781.925
991.59999	8830.625
995.33237	8991.425
999.06217	9257.225
1002.78939	9609.325
1006.51404	9975.325
1010.23611	10342.325
1013.95561	10589.225
1017.67255	10492.525
1021.38692	10263.225
1025.09872	9947.525
1028.80796	9788.825
1032.51465	9830.025
1036.21877	10026.325
1039.92035	10217.025
1043.61937	10339.725
1047.31584	10309.725
1051.00976	10276.025
1054.70114	10182.525
1058.38998	10114.925
1062.07627	10185.525
1065.76003	10283.525
1069.44126	10478.525
1073.11995	10758.725
1076.79611	10995.525
1080.46974	11280.025
1084.14085	11777.725
1087.80943	12387.825
1091.47549	12601.325
1095.13903	12287.925
1098.80005	11580.725
1102.45857	10916.825
1106.11456	10546.925
1109.76805	10527.425
1113.41903	10828.325
1117.06751	11388.025
1120.71348	12236.425
1124.35696	13208.725
1127.99793	14107.125
1131.63641	14036.725
1135.2724	12971.025
1138.90589	11955.525
1142.5369	11354.525
1146.16542	11002.525
1149.79145	10759.525
1153.415	10736.225
1157.03607	10924.025
1160.65467	11294.625
1164.27079	11922.425
1167.88443	12938.325
1171.49561	14640.525
1175.10432	17479.525
1178.71056	21208.625
1182.31434	23702.325
1185.91565	24104.425
1189.51451	23132.425
1193.11091	21247.825
1196.70485	18947.425
1200.29634	17256.425
1203.88538	15966.425
1207.47197	14507.625
1211.05612	13220.825
1214.63782	12561.025
1218.21708	12293.225
1221.79391	12342.725
1225.36829	12470.425
1228.94024	12639.025
1232.50976	12777.025
1236.07685	12810.925
1239.6415	12842.025
1243.20374	12773.825
1246.76355	12796.825
1250.32093	12945.325
1253.8759	13333.825
1257.42845	13859.625
1260.97859	14513.425
1264.52631	15290.025
1268.07163	15993.225
1271.61453	16685.025
1275.15503	17165.425
1278.69312	17306.225
1282.22882	17420.025
1285.76211	17943.325
1289.29301	18800.325
1292.82151	19628.625
1296.34761	20424.925
1299.87133	21737.825
1303.39266	23927.225
1306.9116	27541.125
1310.42815	31901.325
1313.94233	34701.025
1317.45412	34251.125
1320.96354	31453.225
1324.47058	28186.725
1327.97525	25349.225
1331.47754	23551.825
1334.97747	22776.025
1338.47502	22486.025
1341.97022	22881.325
1345.46305	23778.325
1348.95352	25499.525
1352.44163	27964.025
1355.92738	31621.425
1359.41078	37392.525
1362.89183	43504.225
1366.37053	42863.025
1369.84688	35550.125
1373.32088	27916.725
1376.79254	22954.125
1380.26186	20384.725
1383.72883	19035.125
1387.19347	18045.125
1390.65578	17022.825
1394.11575	16163.525
1397.57339	15818.625
1401.0287	15817.125
1404.48168	15982.325
1407.93234	16201.425
1411.38068	16348.525
1414.82669	16200.825
1418.27039	15869.125
1421.71177	15405.125
1425.15083	14954.125
1428.58758	14605.125
1432.02203	14610.925
1435.45416	14760.225
1438.88399	14840.525
1442.31151	14860.925
1445.73673	14937.025
1449.15965	15113.425
1452.58027	15115.325
1455.9986	14958.925
1459.41463	14927.625
1462.82837	15118.025
1466.23982	15531.925
1469.64898	15982.825
1473.05586	16297.625
1476.46045	16515.025
1479.86276	16940.025
1483.26279	17482.125
1486.66054	18154.925
1490.05602	19066.425
1493.44922	20361.525
1496.84016	22391.425
1500.22882	25632.225
1503.61521	29829.825
1506.99934	34598.125
1510.38121	39334.525
1513.76081	41905.325
1517.13816	40104.325
1520.51324	34494.725
1523.88607	28446.025
1527.25665	24119.425
1530.62498	21554.125
1533.99105	20034.925
1537.35488	18959.825
1540.71647	18301.725
1544.07581	17876.225
1547.4329	17612.625
1550.78776	17414.925
1554.14038	17356.725
1557.49077	17564.425
1560.83892	18063.325
1564.18484	18916.725
1567.52853	19860.325
1570.86999	20610.725
1574.20922	21081.925
1577.54624	20957.725
1580.88103	19519.925
1584.2136	17551.325
1587.54395	16369.325
1590.87208	16530.725
1594.19801	17719.725
1597.52172	19400.725
1600.84321	20112.625
1604.16251	19204.225
1607.47959	17553.225
1610.79447	15804.725
1614.10715	14126.425
1617.41763	12805.425
1620.7259	11992.625
1624.03199	11651.525
1627.33587	11618.225
1630.63757	12007.725
1633.93707	12836.125
1637.23439	14202.525
1640.52951	16260.425
1643.82246	19122.325
1647.11321	22767.225
1650.40179	25801.225
1653.68819	25688.425
1656.97241	21855.025
1660.25446	17102.425
1663.53433	13478.525
1666.81203	11325.025
1670.08756	10100.925
1673.36092	9395.525
1676.63211	8965.625
1679.90115	8673.725
1683.16801	8483.025
1686.43272	8317.425
1689.69527	8228.625
1692.95567	8139.625
1696.2139	8098.825
1699.46999	8068.725
1702.72392	8014.525
1705.97571	7991.925
1709.22535	7982.825
1712.47284	7985.025
1715.71819	7986.025
1718.96139	7992.925
1722.20246	7989.025
1725.44139	7943.425
1728.67818	7837.725
1731.91284	7738.025
1735.14537	7630.725
1738.37576	7550.525
1741.60403	7511.425
1744.83017	7462.225
1748.05418	7404.525
1751.27607	7374.325
1754.49584	7340.125
1757.71349	7341.325
1760.92903	7319.625
1764.14244	7313.025
1767.35375	7299.925
1770.56294	7258.325
1773.77002	7204.625
1776.97499	7183.325
1780.17785	7130.925
1783.37861	7106.825
1786.57727	7063.625
1789.77382	7047.425
1792.96828	7033.025
1796.16064	7017.425
1799.3509	6998.025
1802.53907	6986.425
1805.72514	6942.925
1808.90913	6915.825
1812.09102	6912.725
1815.27083	6870.025
1818.44856	6849.225
1821.6242	6837.925
1824.79776	6829.025
1827.96924	6811.525
1831.13864	6795.425
1834.30597	6774.425
1837.47122	6764.225
1840.6344	6764.025
1843.7955	6759.425
1846.95454	6794.425
1850.11151	6746.825
1853.26642	6757.425
1856.41926	6751.225
1859.57004	6749.525
1862.71876	6756.425
1865.86542	6754.425
1869.01003	6775.525
1872.15258	6790.525
1875.29308	6797.625
1878.43152	6796.725
1881.56792	6817.425
1884.70227	6824.325
1887.83457	6836.925
1890.96482	6837.025
1894.09304	6846.425
1897.21921	6836.625
1900.34335	6848.225
1903.46544	6837.925
1906.58551	6847.825
1909.70353	6837.725
1912.81953	6853.225
1915.93349	6857.425
1919.04543	6859.825
1922.15534	6830.325
1925.26322	6808.725
1928.36908	6785.025
1931.47292	6742.925
1934.57473	6667.825
1937.67453	6602.125
1940.77232	6562.525
1943.86808	6504.525
1946.96184	6455.125
1950.05358	6421.025
1953.14331	6397.825
1956.23103	6355.725
1959.31675	6319.225
1962.40046	6301.925
1965.48217	6301.025
1968.56188	6283.425
1971.63959	6263.625
1974.7153	6248.625
1977.78901	6206.725
1980.86073	6190.425
1983.93046	6149.725
1986.99819	6129.725
1990.06394	6109.525
1993.1277	6078.025
1996.18947	6055.925
1999.24925	6012.025
2002.30706	5984.725
2005.36288	5979.525
2008.41672	5969.225
2011.46859	5934.925
2014.51848	5922.325
2017.56639	5896.725
2020.61233	5871.525
2023.6563	5855.425
2026.6983	5825.925
2029.73833	5811.525
2032.7764	5811.425
2035.8125	5777.925
2038.84664	5764.125
2041.87881	5772.425
2044.90903	5750.325
2047.93729	5736.825
2050.96359	5717.125
2053.98794	5714.725
2057.01034	5711.625
2060.03078	5685.225
2063.04927	5700.925
2066.06582	5681.425
2069.08042	5661.425
2072.09307	5659.525
2075.10378	5652.125
2078.11255	5635.125
2081.11938	5658.025
2084.12426	5646.025
2087.12722	5635.025
2090.12824	5614.925
2093.12732	5615.325
2096.12447	5610.825
2099.11969	5616.625
2102.11299	5622.425
2105.10435	5630.425
2108.09379	5617.425
2111.08131	5622.925
2114.0669	5609.225
2117.05057	5625.425
2120.03233	5630.825
2123.01216	5615.525
2125.99008	5614.525
2128.96609	5637.025
2131.94018	5641.025
2134.91236	5620.825
2137.88263	5625.725
2140.851	5626.725
2143.81746	5631.225
2146.78201	5617.225
2149.74466	5603.125
2152.7054	5587.725
2155.66425	5578.025
2158.6212	5582.925
2161.57625	5566.925
2164.52941	5553.125
2167.48067	5544.025
2170.43004	5558.525
2173.37752	5529.025
2176.32311	5563.925
2179.26681	5536.625
2182.20863	5527.525
2185.14856	5547.425
2188.08661	5550.625
2191.02278	5520.425
2193.95707	5538.325
2196.88948	5510.425
2199.82001	5495.625
2202.74867	5475.425
2205.67545	5484.325
2208.60037	5489.925
2211.52341	5470.625
2214.44458	5462.025
2217.36388	5458.625
2220.28132	5436.625
2223.1969	5415.425
2226.11061	5391.025
2229.02246	5399.225
2231.93245	5366.325
2234.84058	5366.025
2237.74686	5339.525
2240.65128	5340.025
2243.55385	5328.125
2246.45456	5325.925
2249.35343	5329.625
2252.25044	5318.825
2255.14561	5308.125
2258.03893	5329.225
2260.93041	5344.825
2263.82004	5320.825
2266.70783	5315.725
2269.59378	5300.725
2272.4779	5278.225
2275.36017	5253.625
2278.24061	5251.125
2281.11922	5249.525
2283.996	5240.025
2286.87094	5210.425
2289.74405	5171.625
2292.61534	5176.625
2295.4848	5170.025
2298.35243	5149.725
2301.21824	5154.525
2304.08223	5138.025
2306.94439	5139.125
2309.80474	5115.725
2312.66327	5138.525
2315.51999	5121.925
2318.37489	5113.125
2321.22797	5132.125
2324.07925	5125.525
2326.92871	5121.825
2329.77637	5099.925
2332.62222	5096.425
2335.46626	5096.725
2338.3085	5083.725
2341.14893	5100.025
2343.98756	5101.325
2346.8244	5116.225
2349.65943	5138.925
2352.49267	5126.725
2355.32411	5151.925
2358.15376	5166.425
2360.98161	5179.925
2363.80768	5197.225
2366.63195	5219.325
2369.45444	5216.725
2372.27514	5223.125
2375.09405	5203.125
2377.91118	5178.625
2380.72652	5153.025
2383.54009	5111.625
2386.35187	5093.825
2389.16188	5031.325
2391.97011	5023.025
2394.77657	5003.025
2397.58125	4986.625
2400.38416	4958.025
2403.18529	4954.325
2405.98466	4926.725
2408.78226	4920.025
2411.57809	4906.125
2414.37216	4911.725
2417.16446	4895.825
2419.955	4901.025
2422.74378	4885.025
2425.5308	4885.325
2428.31606	4891.425
2431.09956	4901.525
2433.88131	4879.925
2436.6613	4898.225
2439.43954	4915.725
2442.21603	4902.525
2444.99077	4903.425
2447.76377	4912.525
2450.53501	4898.325
2453.30451	4913.025
2456.07226	4917.825
2458.83827	4919.525
2461.60254	4917.325
2464.36507	4924.025
2467.12586	4908.525
2469.88492	4903.525
2472.64224	4899.825
2475.39782	4944.325
2478.15167	4949.325
2480.90379	4958.025
2483.65417	4975.425
2486.40283	4989.825
2489.14976	5021.225
2491.89497	5015.025
2494.63845	5050.125
2497.3802	5024.725
2500.12024	5016.225
2502.85855	4992.425
2505.59514	4985.925
2508.33002	4950.325
2511.06318	4915.925
2513.79462	4882.725
2516.52435	4863.825
2519.25237	4839.725
2521.97867	4798.725
2524.70327	4806.625
2527.42616	4774.225
2530.14734	4774.525
2532.86681	4776.725
2535.58458	4763.325
2538.30065	4766.925
2541.01501	4768.725
2543.72768	4768.525
2546.43864	4759.625
2549.14791	4780.625
2551.85548	4776.425
2554.56136	4779.825
2557.26554	4766.225
2559.96803	4756.625
2562.66883	4759.425
2565.36794	4748.525
2568.06536	4723.725
2570.7611	4723.525
2573.45514	4723.225
2576.14751	4714.325
2578.83819	4698.325
2581.52719	4688.625
2584.21451	4693.525
2586.90015	4701.425
2589.58411	4672.425
2592.2664	4669.325
2594.94701	4671.825
2597.62594	4668.425
2600.30321	4658.725
2602.9788	4675.325
2605.65273	4657.425
2608.32498	4673.825
2610.99557	4678.525
2613.66449	4679.125
2616.33175	4672.125
2618.99734	4685.225
2621.66128	4673.725
2624.32355	4659.925
2626.98416	4665.325
2629.64311	4647.925
2632.30041	4657.825
2634.95605	4622.525
2637.61004	4608.525
2640.26238	4601.325
2642.91306	4581.825
2645.56209	4596.725
2648.20948	4575.525
2650.85521	4595.125
2653.4993	4582.525
2656.14175	4585.325
2658.78255	4589.325
2661.42171	4602.625
2664.05923	4610.625
2666.6951	4607.625
2669.32934	4624.925
2671.96194	4641.825
2674.59291	4655.225
2677.22224	4646.425
2679.84993	4656.525
2682.476	4656.525
2685.10043	4654.525
2687.72324	4639.225
2690.34441	4639.325
2692.96396	4629.625
2695.58188	4628.225
2698.19818	4617.925
2700.81285	4637.825
2703.4259	4655.125
2706.03733	4689.825
2708.64714	4657.325
2711.25533	4658.925
2713.86191	4656.525
2716.46687	4684.625
2719.07021	4663.325
2721.67194	4688.325
2724.27206	4675.225
2726.87057	4673.025
2729.46747	4680.525
2732.06276	4659.825
2734.65644	4650.125
2737.24852	4650.625
2739.83899	4655.425
2742.42786	4630.825
2745.01513	4623.825
2747.60079	4617.125
2750.18486	4610.525
2752.76733	4598.425
2755.3482	4589.825
2757.92747	4573.325
2760.50515	4567.125
2763.08123	4564.825
2765.65573	4559.425
2768.22863	4559.925
2770.79994	4557.725
2773.36967	4555.625
2775.9378	4551.725
2778.50435	4558.325
2781.06932	4555.425
2783.6327	4554.625
2786.1945	4567.325
2788.75471	4576.525
2791.31335	4582.625
2793.87041	4576.825
2796.42589	4566.025
2798.97979	4577.925
2801.53212	4569.025
2804.08288	4566.825
2806.63206	4577.725
2809.17967	4591.325
2811.72571	4582.825
2814.27018	4590.225
2816.81308	4609.725
2819.35442	4612.925
2821.89419	4621.825
2824.43239	4639.925
2826.96904	4661.425
2829.50412	4656.625
2832.03763	4666.525
2834.56959	4680.725
2837.1	4686.625
2839.62884	4721.725
2842.15613	4747.925
2844.68186	4830.825
2847.20604	4901.625
2849.72867	4965.825
2852.24974	4998.525
2854.76927	5001.625
2857.28724	4991.625
2859.80367	4998.425
2862.31855	4947.625
2864.83189	4958.325
2867.34368	4929.825
2869.85393	4924.725
2872.36264	4910.625
2874.8698	4922.625
2877.37543	4912.425
2879.87952	4920.125
2882.38207	4892.625
2884.88308	4887.825
2887.38256	4882.125
2889.88051	4884.625
2892.37692	4869.825
2894.8718	4866.225
2897.36515	4877.925
2899.85698	4883.025
2902.34727	4912.725
2904.83604	4890.725
2907.32328	4903.125
2909.809	4901.925
2912.29319	4893.825
2914.77587	4899.125
2917.25702	4885.625
2919.73665	4883.225
2922.21476	4873.325
2924.69136	4854.425
2927.16644	4849.725
2929.64	4836.425
2932.11205	4801.125
2934.58258	4775.425
2937.05161	4760.725
2939.51912	4743.925
2941.98513	4688.025
2944.44962	4647.625
2946.91261	4594.925
2949.37409	4565.925
2951.83407	4552.925
2954.29254	4495.425
2956.74951	4483.925
2959.20498	4474.825
2961.65895	4470.425
2964.11142	4452.125
2966.56239	4429.425
2969.01186	4418.225
2971.45984	4386.825
2973.90632	4379.125
2976.35131	4355.925
2978.7948	4357.725
2981.23681	4340.725
2983.67732	4312.225
2986.11635	4296.225
2988.55388	4290.925
2990.98993	4273.525
2993.4245	4251.425
2995.85758	4232.325
2998.28917	4223.425
3000.71928	4219.325
3003.14791	4200.525
3005.57506	4206.025
3008.00073	4177.625
3010.42493	4202.625
3012.84764	4185.625
3015.26888	4177.625
3017.68865	4158.725
3020.10694	4162.825
3022.52376	4145.125
3024.9391	4138.825
3027.35298	4147.325
3029.76539	4148.525
3032.17632	4132.925
3034.5858	4122.225
3036.9938	4106.125
3039.40034	4107.225
3041.80542	4088.725
3044.20903	4074.125
3046.61118	4084.325
3049.01187	4065.525
3051.4111	4059.925
3053.80888	4057.325
3056.20519	4042.225
3058.60005	4029.325
3060.99345	4044.225
3063.3854	4008.225
3065.7759	4011.725
3068.16494	4007.625
3070.55254	3996.925
3072.93868	3977.025
3075.32338	3972.825
3077.70662	3948.225
3080.08842	3926.125
3082.46878	3920.525
3084.84769	3901.225
3087.22515	3887.025
3089.60118	3874.425
3091.97576	3882.825
3094.3489	3883.125
3096.72061	3879.325
3099.09087	3878.525
3101.4597	3870.325
3103.82709	3861.025
3106.19305	3862.225
3108.55757	3855.325
3110.92066	3837.125
3113.28232	3838.825
3115.64255	3814.725
3118.00134	3815.425
3120.35871	3821.525
3122.71466	3797.825
3125.06917	3809.125
3127.42226	3806.125
3129.77393	3803.125
3132.12417	3788.025
3134.47299	3794.825
3136.82039	3808.025
3139.16636	3795.425
3141.51092	3797.625
3143.85406	3828.425
3146.19579	3812.025
3148.53609	3810.425
3150.87499	3819.525
3153.21246	3831.725
3155.54853	3834.325
3157.88318	3833.425
3160.21642	3841.525
3162.54826	3832.825
3164.87868	3841.425
3167.2077	3831.225
3169.5353	3838.525
3171.86151	3838.125
3174.18631	3831.925
3176.5097	3855.725
3178.83169	3836.325
3181.15228	3843.025
3183.47147	3836.125
3185.78926	3825.325
3188.10565	3836.225
3190.42065	3832.225
3192.73424	3846.625
3195.04645	3839.525
3197.35725	3846.425
3199.66667	3836.125
3201.97469	3842.825
3204.28132	3851.525
3206.58656	3861.425
3208.8904	3869.825
3211.19287	3869.725
3213.49394	3878.025
3215.79363	3876.725
3218.09193	3882.325
3220.38884	3900.625
3222.68438	3896.825
3224.97853	3887.125
3227.2713	3876.825
3229.56269	3877.225
3231.8527	3890.525
3234.14133	3869.125
3236.42858	3870.325
3238.71446	3843.025
3240.99896	3841.825
3243.28209	3861.025
3245.56384	3837.525
3247.84423	3826.225
3250.12324	3839.625
3252.40088	3830.225
3254.67715	3827.625
3256.95205	3830.325
3259.22558	3828.825
3261.49775	3809.425
3263.76855	3808.725
3266.03799	3807.725
3268.30606	3792.525
3270.57277	3784.725
3272.83812	3764.425
3275.10211	3783.925
3277.36474	3766.725
3279.62601	3763.225
3281.88593	3745.525
3284.14448	3759.225
3286.40168	3770.125
3288.65753	3761.225
3290.91202	3757.225
3293.16516	3760.325
3295.41695	3740.925
3297.66738	3718.425
3299.91647	3706.925
3302.16421	3697.825
3304.4106	3664.325
3306.65564	3643.725
3308.89933	3608.425
3311.14169	3581.125
3313.38269	3555.925
3315.62236	3530.325
3317.86068	3490.925
3320.09766	3456.125
3322.3333	3435.925
3324.5676	3419.825
3326.80056	3370.125
3329.03219	3352.425
3331.26248	1.125
3333.49143	-1.575
3335.71905	-0.275
