Data from AgNPs_FTO_APTES_UA_5uM_CRN_20uM_R6G_10uM_NaF_0.1M_Addition_RamanShift__30__13-37-56-796.txt Node

Date: Mon Feb 07 13:37:56 GMT 2022
User: TCL
Spectrometer: QEP01345
Trigger mode: 4
Integration Time (sec): 7.000000E0
Scans to average: 10
Electric dark correction enabled: true
Nonlinearity correction enabled: false
Boxcar width: 0
XAxis mode: Raman Shifts
Number of Pixels in Spectrum: 1044
>>>>>Begin Spectral Data<<<<<
46.04893	0.6875
50.45542	-0.7125
54.85868	-0.0125
59.25871	1.1875
63.6555	44.5875
68.04907	48.5875
72.43941	53.8875
76.82654	50.2875
81.21044	57.1875
85.59113	61.0875
89.96862	63.4875
94.34289	59.3875
98.71396	68.1875
103.08183	69.2875
107.4465	70.7875
111.80798	71.2875
116.16626	72.3875
120.52136	77.5875
124.87327	80.4875
129.222	86.8875
133.56755	90.1875
137.90993	102.9875
142.24913	106.2875
146.58517	121.9875
150.91804	136.1875
155.24774	167.0875
159.57429	212.2875
163.89768	274.5875
168.21792	364.1875
172.53501	494.0875
176.84895	683.8875
181.15975	962.5875
185.46741	1338.7875
189.77193	1852.7875
194.07331	2477.4875
198.37157	3165.1875
202.6667	3930.1875
206.9587	4650.3875
211.24758	5410.4875
215.53334	6196.7875
219.81599	7081.9875
224.09553	8121.2875
228.37195	9234.9875
232.64527	10457.6875
236.91549	11671.6875
241.18261	12735.4875
245.44663	13632.1875
249.70755	14269.9875
253.96539	14811.9875
258.22014	15322.3875
262.4718	15822.1875
266.72039	16198.9875
270.96589	16473.6875
275.20832	16601.3875
279.44768	16530.5875
283.68397	16452.2875
287.91719	16475.2875
292.14735	16638.8875
296.37445	17080.0875
300.59849	17714.8875
304.81948	18429.0875
309.03742	18919.6875
313.25231	18828.5875
317.46415	17791.6875
321.67296	16217.8875
325.87872	14918.7875
330.08145	14239.4875
334.28114	14112.4875
338.47781	14327.2875
342.67145	14752.4875
346.86207	15455.6875
351.04966	16474.9875
355.23424	17626.1875
359.4158	18471.8875
363.59435	18809.4875
367.76989	18790.9875
371.94243	18600.7875
376.11196	18364.8875
380.27849	18149.2875
384.44203	17893.8875
388.60257	17547.2875
392.76012	17461.0875
396.91468	17651.6875
401.06626	18208.7875
405.21485	18668.6875
409.36047	18316.8875
413.50311	17177.0875
417.64277	16128.9875
421.77947	15539.7875
425.9132	15295.7875
430.04396	15286.4875
434.17176	15346.1875
438.2966	15475.2875
442.41849	15802.3875
446.53742	16257.5875
450.6534	16730.7875
454.76644	17023.8875
458.87653	17001.1875
462.98368	16857.3875
467.08789	16635.1875
471.18916	16277.2875
475.2875	15868.2875
479.38291	15540.1875
483.4754	15275.4875
487.56496	15005.1875
491.6516	14850.0875
495.73531	14799.4875
499.81612	14885.4875
503.89401	15142.1875
507.96899	15340.6875
512.04106	15516.6875
516.11023	15721.1875
520.1765	15847.2875
524.23987	15674.4875
528.30034	15284.4875
532.35792	14899.7875
536.41261	14522.7875
540.46441	14136.1875
544.51333	14005.8875
548.55936	14226.4875
552.60252	14733.8875
556.64279	15299.8875
560.6802	15564.9875
564.71473	15838.8875
568.7464	16609.3875
572.7752	17211.3875
576.80114	16788.6875
580.82422	16152.6875
584.84444	15879.3875
588.86181	15626.4875
592.87633	15512.7875
596.888	15635.5875
600.89682	16226.8875
604.9028	18456.1875
608.90594	24314.5875
612.90624	32312.9875
616.90371	31134.0875
620.89834	20669.8875
624.89015	15621.5875
628.87913	14692.1875
632.86528	14815.0875
636.84862	15145.7875
640.82913	14878.6875
644.80683	14059.0875
648.78172	13477.9875
652.75379	13539.1875
656.72306	14246.1875
660.68952	15188.4875
664.65319	15037.9875
668.61405	14127.9875
672.57211	13655.7875
676.52738	13633.0875
680.47986	13611.8875
684.42955	13445.5875
688.37646	13365.7875
692.32058	13424.9875
696.26192	13586.1875
700.20048	13811.5875
704.13626	14051.7875
708.06928	14091.6875
711.99952	13951.9875
715.927	13821.9875
719.85171	13860.3875
723.77365	13796.3875
727.69284	13565.5875
731.60928	13392.8875
735.52295	13277.2875
739.43388	13345.0875
743.34206	13427.5875
747.24749	13521.3875
751.15017	13703.9875
755.05012	14104.5875
758.94733	15016.9875
762.8418	17137.5875
766.73354	20780.1875
770.62254	24563.4875
774.50882	26168.5875
778.39237	24565.6875
782.27321	20741.4875
786.15132	17048.5875
790.02671	14936.1875
793.89938	13992.5875
797.76935	13525.1875
801.6366	13346.9875
805.50115	13207.5875
809.36299	13121.9875
813.22213	13073.7875
817.07857	12996.4875
820.93231	12982.6875
824.78336	13034.6875
828.63172	13094.4875
832.47738	13165.8875
836.32036	13102.9875
840.16066	12996.3875
843.99827	12896.0875
847.8332	12844.8875
851.66546	12804.8875
855.49504	12800.0875
859.32195	12766.7875
863.1462	12639.3875
866.96777	12601.3875
870.78668	12581.1875
874.60293	12568.3875
878.41652	12602.1875
882.22745	12680.1875
886.03573	12771.7875
889.84136	12765.4875
893.64433	12673.1875
897.44466	12620.9875
901.24235	12640.6875
905.0374	12614.3875
908.8298	12552.3875
912.61957	12578.8875
916.40671	12713.3875
920.19121	12919.8875
923.97308	13036.2875
927.75233	13136.3875
931.52895	13207.2875
935.30295	12995.4875
939.07433	12527.8875
942.84309	12092.6875
946.60924	11854.1875
950.37278	11741.2875
954.13371	11642.8875
957.89203	11588.6875
961.64774	11542.5875
965.40086	11536.2875
969.15137	11476.1875
972.89929	11420.3875
976.64461	11397.0875
980.38733	11404.9875
984.12747	11423.1875
987.86502	11476.5875
991.59999	11560.6875
995.33237	11674.2875
999.06217	11971.4875
1002.78939	12346.6875
1006.51404	12703.3875
1010.23611	13050.7875
1013.95561	13292.7875
1017.67255	13204.4875
1021.38692	12953.7875
1025.09872	12701.4875
1028.80796	12546.9875
1032.51465	12596.2875
1036.21877	12804.3875
1039.92035	12958.7875
1043.61937	13053.2875
1047.31584	13051.8875
1051.00976	13019.9875
1054.70114	13021.9875
1058.38998	13098.7875
1062.07627	13228.9875
1065.76003	13406.5875
1069.44126	13560.7875
1073.11995	13709.2875
1076.79611	13887.2875
1080.46974	14110.6875
1084.14085	14498.2875
1087.80943	14993.1875
1091.47549	15253.9875
1095.13903	15014.1875
1098.80005	14423.7875
1102.45857	13780.4875
1106.11456	13406.7875
1109.76805	13397.5875
1113.41903	13674.2875
1117.06751	14178.5875
1120.71348	14873.4875
1124.35696	15685.0875
1127.99793	16422.9875
1131.63641	16369.7875
1135.2724	15495.1875
1138.90589	14628.0875
1142.5369	14128.3875
1146.16542	13798.7875
1149.79145	13649.3875
1153.415	13655.5875
1157.03607	13884.0875
1160.65467	14300.6875
1164.27079	14965.7875
1167.88443	15985.7875
1171.49561	17669.2875
1175.10432	20338.3875
1178.71056	23816.5875
1182.31434	26153.4875
1185.91565	26541.6875
1189.51451	25603.2875
1193.11091	23894.1875
1196.70485	21800.8875
1200.29634	20196.1875
1203.88538	19016.5875
1207.47197	17684.7875
1211.05612	16487.9875
1214.63782	15822.4875
1218.21708	15575.9875
1221.79391	15548.3875
1225.36829	15725.6875
1228.94024	15853.3875
1232.50976	16015.8875
1236.07685	16078.9875
1239.6415	16054.1875
1243.20374	15998.0875
1246.76355	16052.0875
1250.32093	16271.4875
1253.8759	16722.8875
1257.42845	17295.8875
1260.97859	17960.6875
1264.52631	18632.9875
1268.07163	19273.3875
1271.61453	19879.1875
1275.15503	20417.8875
1278.69312	20597.7875
1282.22882	20758.1875
1285.76211	21264.3875
1289.29301	22022.0875
1292.82151	22854.4875
1296.34761	23725.5875
1299.87133	24944.7875
1303.39266	27134.5875
1306.9116	30488.6875
1310.42815	34538.2875
1313.94233	37223.6875
1317.45412	36943.7875
1320.96354	34607.1875
1324.47058	31754.4875
1327.97525	29333.7875
1331.47754	27738.2875
1334.97747	27057.3875
1338.47502	26944.4875
1341.97022	27442.8875
1345.46305	28289.5875
1348.95352	29622.3875
1352.44163	31552.2875
1355.92738	34653.1875
1359.41078	39858.3875
1362.89183	45316.8875
1366.37053	44363.1875
1369.84688	37320.1875
1373.32088	30204.7875
1376.79254	25739.0875
1380.26186	23575.3875
1383.72883	22487.9875
1387.19347	21733.6875
1390.65578	20865.0875
1394.11575	20137.4875
1397.57339	19759.4875
1401.0287	19872.2875
1404.48168	20074.0875
1407.93234	20273.6875
1411.38068	20355.2875
1414.82669	20116.0875
1418.27039	19603.2875
1421.71177	18968.7875
1425.15083	18367.1875
1428.58758	17948.1875
1432.02203	17905.0875
1435.45416	18056.0875
1438.88399	18184.9875
1442.31151	18251.6875
1445.73673	18423.5875
1449.15965	18654.3875
1452.58027	18699.4875
1455.9986	18598.3875
1459.41463	18624.1875
1462.82837	18888.7875
1466.23982	19302.4875
1469.64898	19809.2875
1473.05586	20135.0875
1476.46045	20408.2875
1479.86276	20786.6875
1483.26279	21299.7875
1486.66054	21990.6875
1490.05602	22759.3875
1493.44922	23910.5875
1496.84016	25707.3875
1500.22882	28529.2875
1503.61521	32321.1875
1506.99934	36649.3875
1510.38121	40918.5875
1513.76081	43343.1875
1517.13816	41844.1875
1520.51324	36880.2875
1523.88607	31514.3875
1527.25665	27705.5875
1530.62498	25386.2875
1533.99105	23941.6875
1537.35488	22988.5875
1540.71647	22328.8875
1544.07581	21895.0875
1547.4329	21535.8875
1550.78776	21260.9875
1554.14038	21171.3875
1557.49077	21394.1875
1560.83892	21980.1875
1564.18484	22790.6875
1567.52853	23600.9875
1570.86999	24156.7875
1574.20922	24470.8875
1577.54624	24259.1875
1580.88103	22949.2875
1584.2136	21227.8875
1587.54395	20326.3875
1590.87208	20609.1875
1594.19801	21799.6875
1597.52172	23372.6875
1600.84321	23963.1875
1604.16251	22865.4875
1607.47959	21076.9875
1610.79447	19354.6875
1614.10715	17697.8875
1617.41763	16351.3875
1620.7259	15467.9875
1624.03199	15032.3875
1627.33587	15001.4875
1630.63757	15391.4875
1633.93707	16328.7875
1637.23439	17767.9875
1640.52951	19816.8875
1643.82246	22649.0875
1647.11321	25968.1875
1650.40179	28594.2875
1653.68819	28228.0875
1656.97241	24415.1875
1660.25446	19784.5875
1663.53433	16336.6875
1666.81203	14220.0875
1670.08756	12980.8875
1673.36092	12255.1875
1676.63211	11795.9875
1679.90115	11496.7875
1683.16801	11265.3875
1686.43272	11095.2875
1689.69527	10947.7875
1692.95567	10841.3875
1696.2139	10801.1875
1699.46999	10748.7875
1702.72392	10704.7875
1705.97571	10651.6875
1709.22535	10635.3875
1712.47284	10632.2875
1715.71819	10634.3875
1718.96139	10607.7875
1722.20246	10617.3875
1725.44139	10571.1875
1728.67818	10465.7875
1731.91284	10343.0875
1735.14537	10280.1875
1738.37576	10162.6875
1741.60403	10138.1875
1744.83017	10083.9875
1748.05418	10020.4875
1751.27607	10027.7875
1754.49584	9979.1875
1757.71349	9945.7875
1760.92903	9954.5875
1764.14244	9936.7875
1767.35375	9918.2875
1770.56294	9873.7875
1773.77002	9819.6875
1776.97499	9793.2875
1780.17785	9754.1875
1783.37861	9722.1875
1786.57727	9671.1875
1789.77382	9679.3875
1792.96828	9643.6875
1796.16064	9635.9875
1799.3509	9619.8875
1802.53907	9588.1875
1805.72514	9548.4875
1808.90913	9496.7875
1812.09102	9467.9875
1815.27083	9426.9875
1818.44856	9425.9875
1821.6242	9404.6875
1824.79776	9387.7875
1827.96924	9371.2875
1831.13864	9345.8875
1834.30597	9369.3875
1837.47122	9374.4875
1840.6344	9339.0875
1843.7955	9331.2875
1846.95454	9325.9875
1850.11151	9312.5875
1853.26642	9305.7875
1856.41926	9317.9875
1859.57004	9345.6875
1862.71876	9336.1875
1865.86542	9343.0875
1869.01003	9342.7875
1872.15258	9336.6875
1875.29308	9337.6875
1878.43152	9333.3875
1881.56792	9358.5875
1884.70227	9361.9875
1887.83457	9373.4875
1890.96482	9336.2875
1894.09304	9381.1875
1897.21921	9378.7875
1900.34335	9400.9875
1903.46544	9429.0875
1906.58551	9433.2875
1909.70353	9453.6875
1912.81953	9454.2875
1915.93349	9429.0875
1919.04543	9424.5875
1922.15534	9417.0875
1925.26322	9388.9875
1928.36908	9376.8875
1931.47292	9297.8875
1934.57473	9236.4875
1937.67453	9166.9875
1940.77232	9094.5875
1943.86808	9027.8875
1946.96184	8964.7875
1950.05358	8907.8875
1953.14331	8884.9875
1956.23103	8811.5875
1959.31675	8814.1875
1962.40046	8767.5875
1965.48217	8716.4875
1968.56188	8714.4875
1971.63959	8682.6875
1974.7153	8663.3875
1977.78901	8609.7875
1980.86073	8594.2875
1983.93046	8537.9875
1986.99819	8505.1875
1990.06394	8476.7875
1993.1277	8440.9875
1996.18947	8421.5875
1999.24925	8394.6875
2002.30706	8368.8875
2005.36288	8340.7875
2008.41672	8319.9875
2011.46859	8290.8875
2014.51848	8258.1875
2017.56639	8219.5875
2020.61233	8202.4875
2023.6563	8186.1875
2026.6983	8137.9875
2029.73833	8117.1875
2032.7764	8098.5875
2035.8125	8071.6875
2038.84664	8054.1875
2041.87881	8039.5875
2044.90903	8019.0875
2047.93729	8026.9875
2050.96359	8012.7875
2053.98794	7984.5875
2057.01034	7965.4875
2060.03078	7960.1875
2063.04927	7956.1875
2066.06582	7965.4875
2069.08042	7945.6875
2072.09307	7919.3875
2075.10378	7905.4875
2078.11255	7896.4875
2081.11938	7895.2875
2084.12426	7860.8875
2087.12722	7886.7875
2090.12824	7850.3875
2093.12732	7871.9875
2096.12447	7855.6875
2099.11969	7872.8875
2102.11299	7881.5875
2105.10435	7858.1875
2108.09379	7865.6875
2111.08131	7855.6875
2114.0669	7873.5875
2117.05057	7892.7875
2120.03233	7886.0875
2123.01216	7888.6875
2125.99008	7884.7875
2128.96609	7895.3875
2131.94018	7891.9875
2134.91236	7898.0875
2137.88263	7912.7875
2140.851	7913.0875
2143.81746	7912.3875
2146.78201	7876.1875
2149.74466	7867.0875
2152.7054	7844.9875
2155.66425	7868.9875
2158.6212	7843.5875
2161.57625	7842.3875
2164.52941	7829.0875
2167.48067	7840.8875
2170.43004	7815.2875
2173.37752	7818.8875
2176.32311	7835.4875
2179.26681	7807.8875
2182.20863	7831.3875
2185.14856	7815.3875
2188.08661	7804.7875
2191.02278	7803.6875
2193.95707	7819.7875
2196.88948	7788.8875
2199.82001	7767.6875
2202.74867	7760.1875
2205.67545	7737.0875
2208.60037	7730.2875
2211.52341	7717.9875
2214.44458	7726.2875
2217.36388	7710.6875
2220.28132	7687.9875
2223.1969	7665.2875
2226.11061	7639.9875
2229.02246	7622.1875
2231.93245	7588.9875
2234.84058	7568.0875
2237.74686	7564.8875
2240.65128	7547.1875
2243.55385	7527.1875
2246.45456	7536.3875
2249.35343	7532.2875
2252.25044	7533.2875
2255.14561	7533.5875
2258.03893	7521.0875
2260.93041	7525.5875
2263.82004	7524.6875
2266.70783	7510.2875
2269.59378	7447.1875
2272.4779	7426.0875
2275.36017	7424.0875
2278.24061	7409.3875
2281.11922	7375.3875
2283.996	7382.7875
2286.87094	7347.2875
2289.74405	7336.5875
2292.61534	7310.7875
2295.4848	7323.1875
2298.35243	7312.9875
2301.21824	7288.2875
2304.08223	7307.4875
2306.94439	7298.7875
2309.80474	7286.6875
2312.66327	7304.2875
2315.51999	7266.4875
2318.37489	7278.9875
2321.22797	7260.0875
2324.07925	7250.4875
2326.92871	7238.2875
2329.77637	7240.4875
2332.62222	7214.1875
2335.46626	7206.6875
2338.3085	7220.1875
2341.14893	7224.9875
2343.98756	7226.1875
2346.8244	7222.6875
2349.65943	7229.3875
2352.49267	7243.9875
2355.32411	7258.1875
2358.15376	7275.0875
2360.98161	7300.9875
2363.80768	7287.3875
2366.63195	7306.3875
2369.45444	7322.5875
2372.27514	7310.5875
2375.09405	7290.4875
2377.91118	7278.1875
2380.72652	7224.7875
2383.54009	7188.9875
2386.35187	7163.1875
2389.16188	7106.0875
2391.97011	7077.3875
2394.77657	7068.2875
2397.58125	7039.7875
2400.38416	7024.7875
2403.18529	7002.7875
2405.98466	6981.4875
2408.78226	6967.8875
2411.57809	6963.9875
2414.37216	6960.9875
2417.16446	6949.9875
2419.955	6955.8875
2422.74378	6951.2875
2425.5308	6916.9875
2428.31606	6929.4875
2431.09956	6936.9875
2433.88131	6936.1875
2436.6613	6932.8875
2439.43954	6936.4875
2442.21603	6942.7875
2444.99077	6920.0875
2447.76377	6932.4875
2450.53501	6922.1875
2453.30451	6933.5875
2456.07226	6908.8875
2458.83827	6932.3875
2461.60254	6920.3875
2464.36507	6921.3875
2467.12586	6909.5875
2469.88492	6905.9875
2472.64224	6924.0875
2475.39782	6932.1875
2478.15167	6951.2875
2480.90379	6932.4875
2483.65417	6965.9875
2486.40283	6973.9875
2489.14976	6983.6875
2491.89497	7015.3875
2494.63845	7030.1875
2497.3802	7020.7875
2500.12024	7005.8875
2502.85855	7009.2875
2505.59514	6955.7875
2508.33002	6925.4875
2511.06318	6892.0875
2513.79462	6878.1875
2516.52435	6846.4875
2519.25237	6829.8875
2521.97867	6813.8875
2524.70327	6792.2875
2527.42616	6767.1875
2530.14734	6772.9875
2532.86681	6775.1875
2535.58458	6764.4875
2538.30065	6738.8875
2541.01501	6738.4875
2543.72768	6746.8875
2546.43864	6743.3875
2549.14791	6735.7875
2551.85548	6744.0875
2554.56136	6725.4875
2557.26554	6707.4875
2559.96803	6716.6875
2562.66883	6695.2875
2565.36794	6691.0875
2568.06536	6686.0875
2570.7611	6651.5875
2573.45514	6665.3875
2576.14751	6653.4875
2578.83819	6610.9875
2581.52719	6617.2875
2584.21451	6638.4875
2586.90015	6625.8875
2589.58411	6608.8875
2592.2664	6604.4875
2594.94701	6595.6875
2597.62594	6594.2875
2600.30321	6579.2875
2602.9788	6578.5875
2605.65273	6575.7875
2608.32498	6575.9875
2610.99557	6563.9875
2613.66449	6609.7875
2616.33175	6574.7875
2618.99734	6570.1875
2621.66128	6580.7875
2624.32355	6558.5875
2626.98416	6539.9875
2629.64311	6553.8875
2632.30041	6543.1875
2634.95605	6523.0875
2637.61004	6497.2875
2640.26238	6501.4875
2642.91306	6491.7875
2645.56209	6480.9875
2648.20948	6481.7875
2650.85521	6498.7875
2653.4993	6483.6875
2656.14175	6469.3875
2658.78255	6494.1875
2661.42171	6487.6875
2664.05923	6498.1875
2666.6951	6508.8875
2669.32934	6518.4875
2671.96194	6534.1875
2674.59291	6539.9875
2677.22224	6544.7875
2679.84993	6536.0875
2682.476	6513.7875
2685.10043	6530.2875
2687.72324	6498.8875
2690.34441	6516.0875
2692.96396	6509.0875
2695.58188	6508.1875
2698.19818	6497.6875
2700.81285	6519.7875
2703.4259	6527.1875
2706.03733	6562.8875
2708.64714	6545.6875
2711.25533	6538.1875
2713.86191	6517.9875
2716.46687	6535.5875
2719.07021	6523.2875
2721.67194	6553.5875
2724.27206	6540.0875
2726.87057	6542.0875
2729.46747	6546.2875
2732.06276	6541.0875
2734.65644	6530.9875
2737.24852	6504.7875
2739.83899	6495.2875
2742.42786	6503.4875
2745.01513	6454.9875
2747.60079	6471.7875
2750.18486	6463.2875
2752.76733	6454.9875
2755.3482	6441.2875
2757.92747	6437.9875
2760.50515	6427.4875
2763.08123	6446.4875
2765.65573	6414.3875
2768.22863	6398.0875
2770.79994	6406.9875
2773.36967	6401.2875
2775.9378	6389.7875
2778.50435	6376.6875
2781.06932	6379.4875
2783.6327	6384.4875
2786.1945	6395.0875
2788.75471	6395.1875
2791.31335	6388.6875
2793.87041	6380.3875
2796.42589	6360.9875
2798.97979	6346.7875
2801.53212	6343.9875
2804.08288	6356.0875
2806.63206	6309.7875
2809.17967	6328.4875
2811.72571	6326.5875
2814.27018	6349.9875
2816.81308	6334.7875
2819.35442	6333.9875
2821.89419	6350.4875
2824.43239	6357.9875
2826.96904	6365.2875
2829.50412	6384.5875
2832.03763	6373.0875
2834.56959	6376.7875
2837.1	6346.6875
2839.62884	6381.4875
2842.15613	6432.6875
2844.68186	6477.0875
2847.20604	6541.4875
2849.72867	6591.8875
2852.24974	6626.5875
2854.76927	6622.8875
2857.28724	6609.9875
2859.80367	6590.3875
2862.31855	6563.8875
2864.83189	6547.5875
2867.34368	6543.8875
2869.85393	6530.4875
2872.36264	6506.5875
2874.8698	6526.9875
2877.37543	6507.2875
2879.87952	6495.1875
2882.38207	6491.7875
2884.88308	6502.8875
2887.38256	6480.1875
2889.88051	6472.9875
2892.37692	6479.1875
2894.8718	6482.8875
2897.36515	6480.0875
2899.85698	6468.4875
2902.34727	6489.9875
2904.83604	6506.3875
2907.32328	6518.6875
2909.809	6507.1875
2912.29319	6507.9875
2914.77587	6513.5875
2917.25702	6505.1875
2919.73665	6503.0875
2922.21476	6497.3875
2924.69136	6489.1875
2927.16644	6469.3875
2929.64	6446.1875
2932.11205	6437.6875
2934.58258	6406.7875
2937.05161	6393.6875
2939.51912	6371.7875
2941.98513	6356.7875
2944.44962	6296.8875
2946.91261	6254.4875
2949.37409	6204.4875
2951.83407	6177.0875
2954.29254	6182.6875
2956.74951	6150.9875
2959.20498	6159.8875
2961.65895	6144.7875
2964.11142	6121.0875
2966.56239	6120.3875
2969.01186	6088.3875
2971.45984	6071.5875
2973.90632	6071.6875
2976.35131	6051.1875
2978.7948	6027.9875
2981.23681	6019.5875
2983.67732	6010.1875
2986.11635	5970.1875
2988.55388	5956.1875
2990.98993	5962.9875
2993.4245	5907.9875
2995.85758	5913.6875
2998.28917	5897.1875
3000.71928	5890.2875
3003.14791	5874.4875
3005.57506	5861.9875
3008.00073	5842.4875
3010.42493	5744.8875
3012.84764	5827.4875
3015.26888	5845.4875
3017.68865	5813.4875
3020.10694	5816.2875
3022.52376	5790.6875
3024.9391	5789.4875
3027.35298	5781.4875
3029.76539	5761.1875
3032.17632	5739.0875
3034.5858	5742.3875
3036.9938	5728.2875
3039.40034	5716.2875
3041.80542	5726.9875
3044.20903	5698.9875
3046.61118	5707.0875
3049.01187	5667.0875
3051.4111	5693.3875
3053.80888	5666.4875
3056.20519	5646.3875
3058.60005	5629.1875
3060.99345	5631.6875
3063.3854	5608.7875
3065.7759	5601.2875
3068.16494	5577.9875
3070.55254	5564.2875
3072.93868	5530.8875
3075.32338	5520.0875
3077.70662	5503.5875
3080.08842	5491.1875
3082.46878	5481.4875
3084.84769	5448.5875
3087.22515	5442.9875
3089.60118	5428.4875
3091.97576	5425.2875
3094.3489	5429.7875
3096.72061	5435.0875
3099.09087	5421.1875
3101.4597	5397.7875
3103.82709	5394.2875
3106.19305	5410.0875
3108.55757	5405.6875
3110.92066	5381.2875
3113.28232	5370.1875
3115.64255	5362.8875
3118.00134	5346.5875
3120.35871	5354.4875
3122.71466	5339.1875
3125.06917	5326.8875
3127.42226	5324.4875
3129.77393	5303.7875
3132.12417	5290.0875
3134.47299	5306.9875
3136.82039	5300.4875
3139.16636	5312.1875
3141.51092	5305.5875
3143.85406	5311.2875
3146.19579	5296.8875
3148.53609	5302.6875
3150.87499	5333.4875
3153.21246	5310.7875
3155.54853	5329.5875
3157.88318	5311.5875
3160.21642	5322.7875
3162.54826	5330.6875
3164.87868	5327.6875
3167.2077	5305.7875
3169.5353	5339.6875
3171.86151	5340.0875
3174.18631	5329.4875
3176.5097	5320.0875
3178.83169	5323.4875
3181.15228	5311.0875
3183.47147	5334.5875
3185.78926	5303.5875
3188.10565	5302.5875
3190.42065	5286.0875
3192.73424	5297.5875
3195.04645	5293.5875
3197.35725	5293.6875
3199.66667	5278.0875
3201.97469	5302.3875
3204.28132	5282.1875
3206.58656	5305.2875
3208.8904	5310.0875
3211.19287	5307.8875
3213.49394	5318.8875
3215.79363	5316.9875
3218.09193	5326.8875
3220.38884	5327.2875
3222.68438	5356.7875
3224.97853	5324.9875
3227.2713	5316.1875
3229.56269	5301.3875
3231.8527	5313.4875
3234.14133	5279.1875
3236.42858	5279.1875
3238.71446	5276.9875
3240.99896	5257.3875
3243.28209	5238.2875
3245.56384	5245.1875
3247.84423	5248.5875
3250.12324	5230.3875
3252.40088	5221.0875
3254.67715	5222.5875
3256.95205	5217.1875
3259.22558	5218.6875
3261.49775	5196.5875
3263.76855	5193.8875
3266.03799	5192.8875
3268.30606	5189.7875
3270.57277	5168.1875
3272.83812	5168.0875
3275.10211	5133.3875
3277.36474	5134.5875
3279.62601	5126.6875
3281.88593	5108.3875
3284.14448	5134.7875
3286.40168	5134.1875
3288.65753	5117.4875
3290.91202	5113.3875
3293.16516	5103.0875
3295.41695	5082.6875
3297.66738	5077.8875
3299.91647	5045.5875
3302.16421	5006.1875
3304.4106	4974.5875
3306.65564	4928.8875
3308.89933	4907.2875
3311.14169	4863.2875
3313.38269	4812.4875
3315.62236	4778.8875
3317.86068	4730.2875
3320.09766	4713.3875
3322.3333	4665.3875
3324.5676	4642.2875
3326.80056	4581.9875
3329.03219	4540.0875
3331.26248	1.1875
3333.49143	-2.1125
3335.71905	-0.9125
