Data from AgNPs_FTO_APTES_UA_5uM_CRN_1uM_R6G_10uM_NaF_0.1M_Addition_RamanShift__1__10-18-26-565.txt Node

Date: Mon Feb 07 10:18:26 GMT 2022
User: TCL
Spectrometer: QEP01345
Trigger mode: 4
Integration Time (sec): 7.000000E0
Scans to average: 10
Electric dark correction enabled: true
Nonlinearity correction enabled: false
Boxcar width: 0
XAxis mode: Raman Shifts
Number of Pixels in Spectrum: 1044
>>>>>Begin Spectral Data<<<<<
46.04893	-0.175
50.45542	-2.675
54.85868	-0.775
59.25871	-0.075
63.6555	82.225
68.04907	85.825
72.43941	93.725
76.82654	93.225
81.21044	97.225
85.59113	101.125
89.96862	108.125
94.34289	107.125
98.71396	110.325
103.08183	112.625
107.4465	117.825
111.80798	118.325
116.16626	120.625
120.52136	127.325
124.87327	132.525
129.222	141.725
133.56755	148.325
137.90993	160.925
142.24913	178.025
146.58517	201.525
150.91804	226.325
155.24774	273.025
159.57429	342.625
163.89768	445.625
168.21792	589.925
172.53501	793.325
176.84895	1103.325
181.15975	1561.425
185.46741	2189.925
189.77193	3029.725
194.07331	4060.825
198.37157	5227.525
202.6667	6480.925
206.9587	7674.125
211.24758	8921.725
215.53334	10166.925
219.81599	11494.625
224.09553	12967.625
228.37195	14612.225
232.64527	16342.925
236.91549	18185.125
241.18261	19964.725
245.44663	21557.925
249.70755	23006.325
253.96539	24193.925
258.22014	25268.725
262.4718	26181.125
266.72039	26742.825
270.96589	27089.925
275.20832	27116.525
279.44768	26842.425
283.68397	26519.325
287.91719	26267.725
292.14735	26168.125
296.37445	26186.525
300.59849	26339.525
304.81948	26717.225
309.03742	26887.325
313.25231	26846.525
317.46415	26379.125
321.67296	25637.925
325.87872	24985.125
330.08145	24659.325
334.28114	24610.825
338.47781	24764.725
342.67145	25074.325
346.86207	25486.325
351.04966	26053.725
355.23424	26692.825
359.4158	27291.825
363.59435	27725.225
367.76989	28046.525
371.94243	28192.525
376.11196	28301.725
380.27849	28364.225
384.44203	28506.325
388.60257	28558.925
392.76012	28781.325
396.91468	29026.825
401.06626	29533.725
405.21485	30027.625
409.36047	30055.825
413.50311	29703.725
417.64277	29457.825
421.77947	29466.925
425.9132	29506.625
430.04396	29654.325
434.17176	29824.825
438.2966	30034.025
442.41849	30566.225
446.53742	31584.225
450.6534	32775.525
454.76644	33638.925
458.87653	33787.625
462.98368	33277.125
467.08789	32517.525
471.18916	31744.925
475.2875	31001.125
479.38291	30539.225
483.4754	30281.025
487.56496	30057.525
491.6516	29816.725
495.73531	29617.625
499.81612	29555.625
503.89401	29718.625
507.96899	29747.725
512.04106	29587.325
516.11023	29316.125
520.1765	29088.425
524.23987	28946.425
528.30034	28849.125
532.35792	28638.725
536.41261	28166.325
540.46441	27606.025
544.51333	27394.125
548.55936	27588.125
552.60252	28206.025
556.64279	28908.125
560.6802	29455.725
564.71473	29854.525
568.7464	30504.625
572.7752	31421.125
576.80114	31906.125
580.82422	32550.525
584.84444	33669.825
588.86181	35147.025
592.87633	36589.625
596.888	36931.225
600.89682	35834.625
604.9028	35897.325
608.90594	39261.025
612.90624	43301.825
616.90371	41243.825
620.89834	34086.625
624.89015	30711.925
628.87913	30219.925
632.86528	30020.525
636.84862	29485.425
640.82913	28711.025
644.80683	27804.725
648.78172	27192.925
652.75379	27219.825
656.72306	27785.025
660.68952	28456.125
664.65319	28377.125
668.61405	27866.225
672.57211	27681.425
676.52738	27749.125
680.47986	27652.525
684.42955	27314.225
688.37646	27285.925
692.32058	27535.125
696.26192	28068.825
700.20048	28658.625
704.13626	28882.225
708.06928	28620.625
711.99952	28313.925
715.927	28348.425
719.85171	28593.125
723.77365	28572.025
727.69284	28053.925
731.60928	27509.325
735.52295	27379.325
739.43388	27464.725
743.34206	27605.625
747.24749	27819.925
751.15017	28049.125
755.05012	28524.625
758.94733	29362.225
762.8418	30801.125
766.73354	33065.625
770.62254	35460.625
774.50882	36188.725
778.39237	34907.825
782.27321	32568.925
786.15132	30286.025
790.02671	28954.525
793.89938	28305.125
797.76935	28129.225
801.6366	28102.325
805.50115	28007.225
809.36299	27898.625
813.22213	27643.925
817.07857	27488.425
820.93231	27331.325
824.78336	27313.125
828.63172	27407.025
832.47738	27456.125
836.32036	27730.125
840.16066	27967.025
843.99827	28221.525
847.8332	28064.025
851.66546	27760.725
855.49504	27663.425
859.32195	27622.325
863.1462	27474.125
866.96777	27259.125
870.78668	27109.025
874.60293	27108.325
878.41652	27098.425
882.22745	27240.225
886.03573	27381.425
889.84136	27356.025
893.64433	27178.425
897.44466	27041.325
901.24235	26932.925
905.0374	26850.325
908.8298	26840.325
912.61957	26890.225
916.40671	27237.325
920.19121	27671.625
923.97308	28249.425
927.75233	28713.425
931.52895	28835.825
935.30295	28423.225
939.07433	27749.425
942.84309	27194.425
946.60924	27076.425
950.37278	26994.425
954.13371	26822.425
957.89203	26558.125
961.64774	26460.525
965.40086	26381.825
969.15137	26346.025
972.89929	26334.625
976.64461	26384.025
980.38733	26544.625
984.12747	26813.525
987.86502	27164.925
991.59999	27677.425
995.33237	28500.425
999.06217	29785.725
1002.78939	31224.625
1006.51404	32032.825
1010.23611	32302.825
1013.95561	32417.825
1017.67255	32305.925
1021.38692	31773.325
1025.09872	31605.925
1028.80796	32504.925
1032.51465	34565.025
1036.21877	36481.625
1039.92035	36870.425
1043.61937	35901.625
1047.31584	34133.625
1051.00976	32254.825
1054.70114	31140.725
1058.38998	30624.025
1062.07627	30331.825
1065.76003	30191.625
1069.44126	30274.625
1073.11995	30723.125
1076.79611	31273.425
1080.46974	31667.325
1084.14085	32058.425
1087.80943	32492.125
1091.47549	32627.125
1095.13903	32364.325
1098.80005	31701.825
1102.45857	30969.025
1106.11456	30505.325
1109.76805	30324.925
1113.41903	30403.125
1117.06751	30526.825
1120.71348	30755.325
1124.35696	31061.525
1127.99793	31415.325
1131.63641	31697.825
1135.2724	31548.225
1138.90589	31173.425
1142.5369	31026.225
1146.16542	31013.025
1149.79145	31161.825
1153.415	31327.625
1157.03607	31706.025
1160.65467	32537.225
1164.27079	34018.125
1167.88443	35943.325
1171.49561	38092.025
1175.10432	40922.525
1178.71056	44806.425
1182.31434	48663.325
1185.91565	50645.225
1189.51451	50290.325
1193.11091	48149.825
1196.70485	45594.925
1200.29634	43544.225
1203.88538	42368.525
1207.47197	41591.225
1211.05612	40743.825
1214.63782	39880.725
1218.21708	39363.225
1221.79391	39212.125
1225.36829	39090.325
1228.94024	38432.525
1232.50976	37069.325
1236.07685	35920.425
1239.6415	35359.325
1243.20374	35359.825
1246.76355	35781.125
1250.32093	36626.225
1253.8759	37680.425
1257.42845	38924.025
1260.97859	40283.525
1264.52631	41567.525
1268.07163	42979.925
1271.61453	44575.325
1275.15503	46411.225
1278.69312	48215.625
1282.22882	49750.625
1285.76211	51121.125
1289.29301	52653.825
1292.82151	54581.925
1296.34761	57395.025
1299.87133	61368.725
1303.39266	66383.825
1306.9116	71715.025
1310.42815	75918.125
1313.94233	77576.325
1317.45412	75867.725
1320.96354	72256.725
1324.47058	68726.225
1327.97525	65732.525
1331.47754	63824.925
1334.97747	62596.325
1338.47502	61433.625
1341.97022	59964.025
1345.46305	58275.725
1348.95352	57677.325
1352.44163	58805.325
1355.92738	62162.925
1359.41078	67315.225
1362.89183	71893.925
1366.37053	71644.325
1369.84688	65611.225
1373.32088	57433.125
1376.79254	51503.825
1380.26186	48994.625
1383.72883	48457.425
1387.19347	47935.425
1390.65578	47026.225
1394.11575	46531.025
1397.57339	46923.825
1401.0287	47989.125
1404.48168	48962.725
1407.93234	49203.025
1411.38068	48535.625
1414.82669	47168.725
1418.27039	45280.525
1421.71177	43360.025
1425.15083	41816.925
1428.58758	41052.725
1432.02203	41503.225
1435.45416	42697.925
1438.88399	43941.325
1442.31151	44853.825
1445.73673	45412.525
1449.15965	45738.725
1452.58027	45654.225
1455.9986	45077.425
1459.41463	44797.525
1462.82837	45279.725
1466.23982	46426.125
1469.64898	47782.325
1473.05586	48786.925
1476.46045	49303.125
1479.86276	49515.225
1483.26279	49365.025
1486.66054	49143.325
1490.05602	49207.025
1493.44922	49538.525
1496.84016	49746.225
1500.22882	50169.525
1503.61521	51138.725
1506.99934	52755.225
1510.38121	54454.825
1513.76081	55247.025
1517.13816	54392.125
1520.51324	52259.825
1523.88607	50238.225
1527.25665	49210.825
1530.62498	48942.225
1533.99105	48655.125
1537.35488	48204.225
1540.71647	47362.925
1544.07581	46379.325
1547.4329	45241.825
1550.78776	44181.925
1554.14038	43390.025
1557.49077	42749.625
1560.83892	42303.925
1564.18484	42054.225
1567.52853	42239.625
1570.86999	42597.325
1574.20922	43202.225
1577.54624	43638.325
1580.88103	43716.825
1584.2136	44129.625
1587.54395	46009.425
1590.87208	49767.325
1594.19801	54370.025
1597.52172	58608.825
1600.84321	59852.525
1604.16251	56761.625
1607.47959	50805.925
1610.79447	44678.625
1614.10715	39836.425
1617.41763	36627.925
1620.7259	34761.825
1624.03199	34105.925
1627.33587	34505.025
1630.63757	35822.725
1633.93707	38085.825
1637.23439	41558.625
1640.52951	46679.925
1643.82246	53101.025
1647.11321	58674.725
1650.40179	59765.425
1653.68819	55189.625
1656.97241	47247.325
1660.25446	39830.325
1663.53433	34712.925
1666.81203	31622.225
1670.08756	29776.925
1673.36092	28602.425
1676.63211	27932.225
1679.90115	27451.125
1683.16801	27023.325
1686.43272	26739.125
1689.69527	26559.125
1692.95567	26453.425
1696.2139	26334.725
1699.46999	26237.225
1702.72392	26151.825
1705.97571	26126.525
1709.22535	26062.725
1712.47284	26066.925
1715.71819	26071.025
1718.96139	26009.725
1722.20246	25939.925
1725.44139	25869.625
1728.67818	25724.225
1731.91284	25601.025
1735.14537	25424.925
1738.37576	25338.125
1741.60403	25228.925
1744.83017	25229.525
1748.05418	25118.125
1751.27607	25061.025
1754.49584	25024.025
1757.71349	25017.225
1760.92903	24994.125
1764.14244	25004.925
1767.35375	24992.525
1770.56294	24961.025
1773.77002	24944.925
1776.97499	24888.325
1780.17785	24887.825
1783.37861	24877.325
1786.57727	24832.125
1789.77382	24834.925
1792.96828	24802.625
1796.16064	24755.525
1799.3509	24697.325
1802.53907	24641.525
1805.72514	24583.225
1808.90913	24526.425
1812.09102	24506.125
1815.27083	24456.525
1818.44856	24435.925
1821.6242	24392.625
1824.79776	24384.125
1827.96924	24331.325
1831.13864	24316.925
1834.30597	24288.725
1837.47122	24307.025
1840.6344	24261.425
1843.7955	24244.225
1846.95454	24285.625
1850.11151	24257.325
1853.26642	24205.625
1856.41926	24212.825
1859.57004	24245.825
1862.71876	24265.425
1865.86542	24218.125
1869.01003	24202.625
1872.15258	24180.825
1875.29308	24197.625
1878.43152	24171.425
1881.56792	24164.525
1884.70227	24143.825
1887.83457	24189.725
1890.96482	24093.225
1894.09304	24110.525
1897.21921	24111.825
1900.34335	24117.225
1903.46544	24040.025
1906.58551	24066.025
1909.70353	24053.225
1912.81953	24058.225
1915.93349	24031.525
1919.04543	24018.725
1922.15534	23992.825
1925.26322	23971.225
1928.36908	23929.725
1931.47292	23888.425
1934.57473	23808.225
1937.67453	23769.825
1940.77232	23701.825
1943.86808	23629.325
1946.96184	23573.325
1950.05358	23500.025
1953.14331	23448.925
1956.23103	23406.525
1959.31675	23327.825
1962.40046	23302.625
1965.48217	23264.125
1968.56188	23245.525
1971.63959	23151.125
1974.7153	23084.225
1977.78901	23013.125
1980.86073	22927.225
1983.93046	22892.125
1986.99819	22831.725
1990.06394	22752.825
1993.1277	22708.725
1996.18947	22660.225
1999.24925	22607.825
2002.30706	22499.725
2005.36288	22465.325
2008.41672	22434.825
2011.46859	22384.625
2014.51848	22309.125
2017.56639	22301.925
2020.61233	22251.325
2023.6563	22224.325
2026.6983	22176.925
2029.73833	22120.325
2032.7764	22134.425
2035.8125	22118.325
2038.84664	22094.025
2041.87881	22071.525
2044.90903	22041.825
2047.93729	22003.825
2050.96359	21998.125
2053.98794	21968.525
2057.01034	21979.325
2060.03078	21962.225
2063.04927	21972.725
2066.06582	21966.125
2069.08042	21934.925
2072.09307	21940.025
2075.10378	21897.925
2078.11255	21895.425
2081.11938	21886.325
2084.12426	21833.725
2087.12722	21896.925
2090.12824	21865.725
2093.12732	21829.825
2096.12447	21854.425
2099.11969	21887.025
2102.11299	21890.825
2105.10435	21905.525
2108.09379	21859.325
2111.08131	21923.225
2114.0669	21920.325
2117.05057	21951.425
2120.03233	21968.125
2123.01216	22018.025
2125.99008	22020.625
2128.96609	22090.325
2131.94018	22056.525
2134.91236	22062.025
2137.88263	22113.925
2140.851	22110.125
2143.81746	22154.525
2146.78201	22168.625
2149.74466	22196.725
2152.7054	22224.025
2155.66425	22181.425
2158.6212	22167.325
2161.57625	22148.625
2164.52941	22161.425
2167.48067	22157.225
2170.43004	22161.325
2173.37752	22151.425
2176.32311	22190.825
2179.26681	22148.125
2182.20863	22176.825
2185.14856	22210.925
2188.08661	22202.925
2191.02278	22283.025
2193.95707	22243.825
2196.88948	22249.025
2199.82001	22296.925
2202.74867	22256.225
2205.67545	22286.425
2208.60037	22242.225
2211.52341	22262.825
2214.44458	22294.825
2217.36388	22234.025
2220.28132	22196.625
2223.1969	22141.225
2226.11061	22160.325
2229.02246	22138.625
2231.93245	22071.625
2234.84058	22051.525
2237.74686	22038.725
2240.65128	22062.925
2243.55385	22000.825
2246.45456	21969.525
2249.35343	21931.825
2252.25044	21880.025
2255.14561	21849.525
2258.03893	21842.925
2260.93041	21783.725
2263.82004	21748.425
2266.70783	21730.825
2269.59378	21623.325
2272.4779	21581.025
2275.36017	21542.625
2278.24061	21567.625
2281.11922	21496.525
2283.996	21481.625
2286.87094	21504.125
2289.74405	21531.625
2292.61534	21491.325
2295.4848	21499.025
2298.35243	21530.325
2301.21824	21529.125
2304.08223	21582.025
2306.94439	21634.025
2309.80474	21649.725
2312.66327	21730.325
2315.51999	21689.325
2318.37489	21664.425
2321.22797	21703.125
2324.07925	21660.925
2326.92871	21653.225
2329.77637	21626.325
2332.62222	21623.725
2335.46626	21661.025
2338.3085	21646.025
2341.14893	21690.425
2343.98756	21713.425
2346.8244	21735.025
2349.65943	21692.425
2352.49267	21712.325
2355.32411	21664.425
2358.15376	21645.125
2360.98161	21596.125
2363.80768	21557.125
2366.63195	21562.925
2369.45444	21506.025
2372.27514	21458.625
2375.09405	21423.425
2377.91118	21409.225
2380.72652	21354.925
2383.54009	21324.925
2386.35187	21284.125
2389.16188	21240.625
2391.97011	21270.325
2394.77657	21251.925
2397.58125	21231.325
2400.38416	21203.125
2403.18529	21140.525
2405.98466	21141.725
2408.78226	21078.625
2411.57809	21044.525
2414.37216	21037.925
2417.16446	21052.025
2419.955	20964.625
2422.74378	20932.825
2425.5308	20906.225
2428.31606	20936.025
2431.09956	20901.025
2433.88131	20910.925
2436.6613	20965.625
2439.43954	20952.025
2442.21603	20917.425
2444.99077	20932.525
2447.76377	20900.725
2450.53501	20908.625
2453.30451	20914.325
2456.07226	20879.325
2458.83827	20858.825
2461.60254	20898.825
2464.36507	20891.625
2467.12586	20925.325
2469.88492	20924.625
2472.64224	20930.025
2475.39782	20987.425
2478.15167	21026.625
2480.90379	21050.125
2483.65417	21111.225
2486.40283	21105.525
2489.14976	21131.625
2491.89497	21103.225
2494.63845	21140.225
2497.3802	21172.425
2500.12024	21163.225
2502.85855	21109.425
2505.59514	21117.325
2508.33002	21060.325
2511.06318	21049.325
2513.79462	21036.625
2516.52435	21026.025
2519.25237	21020.825
2521.97867	21000.525
2524.70327	20998.425
2527.42616	21003.925
2530.14734	20964.425
2532.86681	20995.625
2535.58458	20981.625
2538.30065	20949.725
2541.01501	20985.425
2543.72768	20966.925
2546.43864	20970.925
2549.14791	20892.925
2551.85548	20926.425
2554.56136	20903.725
2557.26554	20880.225
2559.96803	20892.525
2562.66883	20928.725
2565.36794	20888.325
2568.06536	20968.025
2570.7611	20916.225
2573.45514	20904.725
2576.14751	20901.025
2578.83819	20847.125
2581.52719	20881.925
2584.21451	20877.725
2586.90015	20889.525
2589.58411	20877.425
2592.2664	20917.425
2594.94701	20854.525
2597.62594	20864.125
2600.30321	20844.325
2602.9788	20870.925
2605.65273	20807.625
2608.32498	20855.225
2610.99557	20874.125
2613.66449	20880.325
2616.33175	20873.425
2618.99734	20875.725
2621.66128	20819.625
2624.32355	20838.225
2626.98416	20828.625
2629.64311	20836.125
2632.30041	20862.225
2634.95605	20853.925
2637.61004	20805.925
2640.26238	20777.725
2642.91306	20758.825
2645.56209	20700.025
2648.20948	20701.625
2650.85521	20716.525
2653.4993	20725.725
2656.14175	20714.625
2658.78255	20716.325
2661.42171	20753.125
2664.05923	20777.525
2666.6951	20812.125
2669.32934	20822.425
2671.96194	20812.225
2674.59291	20875.825
2677.22224	20873.925
2679.84993	20865.725
2682.476	20839.425
2685.10043	20799.125
2687.72324	20736.225
2690.34441	20741.925
2692.96396	20709.225
2695.58188	20701.425
2698.19818	20700.425
2700.81285	20703.125
2703.4259	20727.025
2706.03733	20734.325
2708.64714	20741.325
2711.25533	20779.625
2713.86191	20748.425
2716.46687	20804.825
2719.07021	20786.125
2721.67194	20842.225
2724.27206	20805.825
2726.87057	20859.225
2729.46747	20855.425
2732.06276	20885.925
2734.65644	20883.025
2737.24852	20895.625
2739.83899	20867.025
2742.42786	20848.225
2745.01513	20810.125
2747.60079	20782.025
2750.18486	20805.925
2752.76733	20758.625
2755.3482	20738.525
2757.92747	20800.425
2760.50515	20767.825
2763.08123	20818.025
2765.65573	20820.825
2768.22863	20780.325
2770.79994	20784.425
2773.36967	20808.725
2775.9378	20828.325
2778.50435	20821.925
2781.06932	20824.125
2783.6327	20820.025
2786.1945	20837.725
2788.75471	20858.425
2791.31335	20807.025
2793.87041	20789.625
2796.42589	20697.925
2798.97979	20687.725
2801.53212	20679.425
2804.08288	20635.325
2806.63206	20555.125
2809.17967	20545.625
2811.72571	20532.625
2814.27018	20546.425
2816.81308	20479.025
2819.35442	20465.825
2821.89419	20442.825
2824.43239	20494.625
2826.96904	20477.825
2829.50412	20522.325
2832.03763	20453.125
2834.56959	20485.825
2837.1	20461.225
2839.62884	20450.325
2842.15613	20449.425
2844.68186	20547.425
2847.20604	20565.325
2849.72867	20589.325
2852.24974	20636.725
2854.76927	20590.825
2857.28724	20625.725
2859.80367	20601.625
2862.31855	20571.025
2864.83189	20546.025
2867.34368	20489.025
2869.85393	20497.325
2872.36264	20486.525
2874.8698	20523.025
2877.37543	20538.125
2879.87952	20541.025
2882.38207	20559.525
2884.88308	20552.225
2887.38256	20581.525
2889.88051	20617.325
2892.37692	20634.825
2894.8718	20654.925
2897.36515	20677.525
2899.85698	20681.525
2902.34727	20750.025
2904.83604	20733.425
2907.32328	20791.825
2909.809	20773.825
2912.29319	20801.925
2914.77587	20787.625
2917.25702	20785.725
2919.73665	20745.425
2922.21476	20754.725
2924.69136	20714.525
2927.16644	20742.225
2929.64	20681.225
2932.11205	20621.625
2934.58258	20598.925
2937.05161	20604.525
2939.51912	20583.725
2941.98513	20571.125
2944.44962	20528.325
2946.91261	20468.925
2949.37409	20485.825
2951.83407	20417.325
2954.29254	20407.625
2956.74951	20356.625
2959.20498	20366.925
2961.65895	20373.925
2964.11142	20388.025
2966.56239	20350.425
2969.01186	20333.425
2971.45984	20321.425
2973.90632	20271.825
2976.35131	20243.125
2978.7948	20180.025
2981.23681	20129.225
2983.67732	20132.825
2986.11635	20108.225
2988.55388	20029.025
2990.98993	19990.325
2993.4245	19917.625
2995.85758	19847.825
2998.28917	19833.525
3000.71928	19804.525
3003.14791	19823.825
3005.57506	19781.325
3008.00073	19700.125
3010.42493	19754.225
3012.84764	19708.425
3015.26888	19692.125
3017.68865	19666.225
3020.10694	19676.425
3022.52376	19612.625
3024.9391	19604.625
3027.35298	19577.625
3029.76539	19625.925
3032.17632	19595.125
3034.5858	19579.825
3036.9938	19554.425
3039.40034	19521.725
3041.80542	19502.725
3044.20903	19485.225
3046.61118	19523.625
3049.01187	19478.125
3051.4111	19470.425
3053.80888	19446.225
3056.20519	19395.525
3058.60005	19370.725
3060.99345	19357.125
3063.3854	19296.025
3065.7759	19260.625
3068.16494	19229.325
3070.55254	19172.025
3072.93868	19159.225
3075.32338	19098.125
3077.70662	19081.925
3080.08842	18999.525
3082.46878	19008.225
3084.84769	19004.325
3087.22515	18988.625
3089.60118	19001.525
3091.97576	19067.225
3094.3489	19053.625
3096.72061	19041.125
3099.09087	19039.125
3101.4597	19044.225
3103.82709	19022.225
3106.19305	18990.125
3108.55757	18952.525
3110.92066	18936.725
3113.28232	18909.625
3115.64255	18883.825
3118.00134	18871.125
3120.35871	18854.825
3122.71466	18801.325
3125.06917	18735.625
3127.42226	18691.825
3129.77393	18747.725
3132.12417	18691.225
3134.47299	18719.425
3136.82039	18743.225
3139.16636	18732.225
3141.51092	18717.825
3143.85406	18751.325
3146.19579	18721.825
3148.53609	18747.425
3150.87499	18713.825
3153.21246	18734.525
3155.54853	18687.725
3157.88318	18715.225
3160.21642	18757.025
3162.54826	18739.925
3164.87868	18761.825
3167.2077	18749.225
3169.5353	18777.525
3171.86151	18753.825
3174.18631	18714.425
3176.5097	18712.925
3178.83169	18706.225
3181.15228	18716.725
3183.47147	18656.825
3185.78926	18663.725
3188.10565	18640.725
3190.42065	18648.725
3192.73424	18620.425
3195.04645	18642.825
3197.35725	18640.425
3199.66667	18657.125
3201.97469	18628.925
3204.28132	18593.925
3206.58656	18652.925
3208.8904	18655.425
3211.19287	18633.625
3213.49394	18664.125
3215.79363	18688.425
3218.09193	18670.025
3220.38884	18670.125
3222.68438	18677.725
3224.97853	18631.725
3227.2713	18664.825
3229.56269	18652.025
3231.8527	18638.825
3234.14133	18639.225
3236.42858	18594.325
3238.71446	18594.625
3240.99896	18555.825
3243.28209	18565.225
3245.56384	18570.325
3247.84423	18610.025
3250.12324	18527.225
3252.40088	18474.225
3254.67715	18470.825
3256.95205	18477.825
3259.22558	18484.625
3261.49775	18471.425
3263.76855	18442.925
3266.03799	18435.525
3268.30606	18420.025
3270.57277	18377.825
3272.83812	18372.225
3275.10211	18313.625
3277.36474	18306.525
3279.62601	18297.225
3281.88593	18251.125
3284.14448	18279.825
3286.40168	18282.225
3288.65753	18286.625
3290.91202	18258.225
3293.16516	18275.725
3295.41695	18228.825
3297.66738	18154.025
3299.91647	18064.325
3302.16421	17996.525
3304.4106	17918.625
3306.65564	17750.225
3308.89933	17651.525
3311.14169	17533.325
3313.38269	17425.825
3315.62236	17334.925
3317.86068	17165.725
3320.09766	17038.225
3322.3333	16918.925
3324.5676	16853.425
3326.80056	16559.925
3329.03219	16552.325
3331.26248	4.825
3333.49143	-1.075
3335.71905	-0.675
