Data from AgNPs_FTO_APTES_UA_5uM_CRN_500uM_R6G_10uM_NaF_0.1M_Addition_RamanShift__14__16-57-01-828.txt Node

Date: Mon Feb 07 16:57:01 GMT 2022
User: TCL
Spectrometer: QEP01345
Trigger mode: 4
Integration Time (sec): 7.000000E0
Scans to average: 10
Electric dark correction enabled: true
Nonlinearity correction enabled: false
Boxcar width: 0
XAxis mode: Raman Shifts
Number of Pixels in Spectrum: 1044
>>>>>Begin Spectral Data<<<<<
46.04893	-1.3125
50.45542	-0.9125
54.85868	1.1875
59.25871	-0.4125
63.6555	53.8875
68.04907	58.6875
72.43941	60.8875
76.82654	63.3875
81.21044	63.2875
85.59113	66.3875
89.96862	69.7875
94.34289	72.8875
98.71396	73.5875
103.08183	79.8875
107.4465	79.8875
111.80798	80.7875
116.16626	83.7875
120.52136	86.0875
124.87327	92.1875
129.222	98.1875
133.56755	101.2875
137.90993	111.3875
142.24913	125.5875
146.58517	136.2875
150.91804	162.3875
155.24774	199.3875
159.57429	243.1875
163.89768	316.6875
168.21792	422.9875
172.53501	579.4875
176.84895	803.9875
181.15975	1134.5875
185.46741	1598.0875
189.77193	2218.7875
194.07331	2992.4875
198.37157	3869.4875
202.6667	4792.3875
206.9587	5705.3875
211.24758	6629.5875
215.53334	7491.7875
219.81599	8449.8875
224.09553	9477.4875
228.37195	10575.9875
232.64527	11809.1875
236.91549	13109.0875
241.18261	14443.6875
245.44663	15674.9875
249.70755	16858.7875
253.96539	17896.8875
258.22014	18751.4875
262.4718	19361.5875
266.72039	19849.5875
270.96589	20113.5875
275.20832	20186.0875
279.44768	20161.8875
283.68397	20063.0875
287.91719	19986.2875
292.14735	19906.9875
296.37445	19971.8875
300.59849	19996.4875
304.81948	20036.1875
309.03742	19949.7875
313.25231	19734.9875
317.46415	19300.1875
321.67296	18796.4875
325.87872	18369.7875
330.08145	18177.8875
334.28114	18142.8875
338.47781	18226.1875
342.67145	18405.5875
346.86207	18633.7875
351.04966	18845.9875
355.23424	19064.3875
359.4158	19273.6875
363.59435	19404.5875
367.76989	19553.2875
371.94243	19645.3875
376.11196	19697.8875
380.27849	19698.5875
384.44203	19810.5875
388.60257	19956.2875
392.76012	20118.9875
396.91468	20426.1875
401.06626	20724.6875
405.21485	20910.1875
409.36047	20882.0875
413.50311	20679.8875
417.64277	20469.9875
421.77947	20412.0875
425.9132	20445.3875
430.04396	20535.0875
434.17176	20671.0875
438.2966	20801.4875
442.41849	21024.0875
446.53742	21360.5875
450.6534	21782.6875
454.76644	22035.6875
458.87653	22196.2875
462.98368	22285.8875
467.08789	22240.3875
471.18916	22198.5875
475.2875	22085.3875
479.38291	22031.4875
483.4754	21951.7875
487.56496	21843.5875
491.6516	21584.0875
495.73531	21339.1875
499.81612	21155.7875
503.89401	21107.8875
507.96899	21164.4875
512.04106	21171.1875
516.11023	21175.7875
520.1765	21060.1875
524.23987	20905.2875
528.30034	20705.2875
532.35792	20566.5875
536.41261	20434.1875
540.46441	20316.6875
544.51333	20342.5875
548.55936	20586.0875
552.60252	20975.1875
556.64279	21438.0875
560.6802	21685.7875
564.71473	21918.2875
568.7464	22272.3875
572.7752	22852.7875
576.80114	23464.0875
580.82422	23959.8875
584.84444	24294.8875
588.86181	24411.1875
592.87633	24416.5875
596.888	24299.9875
600.89682	24045.6875
604.9028	24077.6875
608.90594	25016.4875
612.90624	26163.0875
616.90371	24907.1875
620.89834	22079.7875
624.89015	20824.4875
628.87913	20724.3875
632.86528	20964.6875
636.84862	21108.0875
640.82913	20902.0875
644.80683	20538.2875
648.78172	20270.0875
652.75379	20145.5875
656.72306	20272.7875
660.68952	20484.7875
664.65319	20459.6875
668.61405	20295.4875
672.57211	20271.8875
676.52738	20315.9875
680.47986	20322.1875
684.42955	20289.2875
688.37646	20245.2875
692.32058	20230.8875
696.26192	20320.8875
700.20048	20470.9875
704.13626	20639.5875
708.06928	20743.3875
711.99952	20745.6875
715.927	20671.3875
719.85171	20623.2875
723.77365	20493.5875
727.69284	20344.5875
731.60928	20124.2875
735.52295	19994.0875
739.43388	19965.1875
743.34206	19985.0875
747.24749	20031.5875
751.15017	20200.1875
755.05012	20477.5875
758.94733	20911.8875
762.8418	21733.4875
766.73354	22956.4875
770.62254	24146.4875
774.50882	24429.2875
778.39237	23536.7875
782.27321	22282.0875
786.15132	21172.8875
790.02671	20479.6875
793.89938	20101.6875
797.76935	19886.9875
801.6366	19770.2875
805.50115	19722.6875
809.36299	19621.6875
813.22213	19562.8875
817.07857	19563.9875
820.93231	19601.3875
824.78336	19548.0875
828.63172	19488.9875
832.47738	19439.3875
836.32036	19421.6875
840.16066	19389.0875
843.99827	19379.3875
847.8332	19347.1875
851.66546	19372.6875
855.49504	19370.7875
859.32195	19366.3875
863.1462	19351.5875
866.96777	19301.7875
870.78668	19306.6875
874.60293	19338.5875
878.41652	19350.7875
882.22745	19358.8875
886.03573	19380.7875
889.84136	19368.7875
893.64433	19398.3875
897.44466	19362.6875
901.24235	19363.1875
905.0374	19321.1875
908.8298	19265.0875
912.61957	19337.1875
916.40671	19501.7875
920.19121	19731.4875
923.97308	19869.5875
927.75233	19793.6875
931.52895	19613.7875
935.30295	19375.2875
939.07433	19092.5875
942.84309	18882.1875
946.60924	18669.4875
950.37278	18595.1875
954.13371	18556.0875
957.89203	18535.7875
961.64774	18521.2875
965.40086	18509.7875
969.15137	18427.4875
972.89929	18342.6875
976.64461	18280.2875
980.38733	18273.7875
984.12747	18255.1875
987.86502	18267.0875
991.59999	18343.3875
995.33237	18378.0875
999.06217	18489.9875
1002.78939	18598.3875
1006.51404	18781.6875
1010.23611	18969.7875
1013.95561	19125.1875
1017.67255	19178.7875
1021.38692	19133.3875
1025.09872	18985.7875
1028.80796	18878.4875
1032.51465	18824.2875
1036.21877	18791.4875
1039.92035	18897.5875
1043.61937	18966.1875
1047.31584	19047.2875
1051.00976	19160.8875
1054.70114	19236.8875
1058.38998	19342.5875
1062.07627	19584.9875
1065.76003	19865.3875
1069.44126	20037.3875
1073.11995	20252.7875
1076.79611	20437.0875
1080.46974	20448.2875
1084.14085	20495.0875
1087.80943	20513.1875
1091.47549	20686.5875
1095.13903	20800.7875
1098.80005	20693.1875
1102.45857	20367.0875
1106.11456	19975.9875
1109.76805	19714.6875
1113.41903	19667.1875
1117.06751	19738.5875
1120.71348	19887.7875
1124.35696	20113.0875
1127.99793	20394.2875
1131.63641	20565.3875
1135.2724	20405.5875
1138.90589	20244.2875
1142.5369	20200.4875
1146.16542	20276.5875
1149.79145	20430.2875
1153.415	20590.6875
1157.03607	20848.0875
1160.65467	21228.0875
1164.27079	21784.6875
1167.88443	22547.8875
1171.49561	23391.1875
1175.10432	24399.4875
1178.71056	25717.1875
1182.31434	27003.7875
1185.91565	27834.2875
1189.51451	28195.5875
1193.11091	28010.3875
1196.70485	27460.5875
1200.29634	26712.1875
1203.88538	25960.0875
1207.47197	25394.9875
1211.05612	25002.1875
1214.63782	24667.6875
1218.21708	24123.3875
1221.79391	23465.2875
1225.36829	22949.4875
1228.94024	22585.7875
1232.50976	22419.4875
1236.07685	22296.7875
1239.6415	22290.1875
1243.20374	22267.8875
1246.76355	22420.0875
1250.32093	22601.5875
1253.8759	22839.6875
1257.42845	23292.7875
1260.97859	23799.8875
1264.52631	24294.7875
1268.07163	24711.4875
1271.61453	25184.2875
1275.15503	25622.6875
1278.69312	26197.3875
1282.22882	26679.3875
1285.76211	27293.8875
1289.29301	28038.5875
1292.82151	28916.4875
1296.34761	30045.3875
1299.87133	31217.5875
1303.39266	32346.5875
1306.9116	33468.3875
1310.42815	34327.3875
1313.94233	34740.7875
1317.45412	34576.3875
1320.96354	34350.1875
1324.47058	34201.3875
1327.97525	34096.2875
1331.47754	34097.0875
1334.97747	34252.5875
1338.47502	34495.9875
1341.97022	34862.0875
1345.46305	35152.2875
1348.95352	35310.8875
1352.44163	35111.8875
1355.92738	34880.6875
1359.41078	35035.5875
1362.89183	35274.7875
1366.37053	34564.3875
1369.84688	32468.1875
1373.32088	30046.8875
1376.79254	28326.4875
1380.26186	27498.9875
1383.72883	27266.0875
1387.19347	27245.5875
1390.65578	27139.8875
1394.11575	26981.4875
1397.57339	26915.2875
1401.0287	26893.2875
1404.48168	26803.7875
1407.93234	26649.3875
1411.38068	26124.9875
1414.82669	25353.6875
1418.27039	24518.0875
1421.71177	23694.6875
1425.15083	22995.9875
1428.58758	22606.9875
1432.02203	22569.5875
1435.45416	22835.0875
1438.88399	23178.5875
1442.31151	23515.9875
1445.73673	23760.3875
1449.15965	24138.0875
1452.58027	24444.5875
1455.9986	24728.4875
1459.41463	25031.1875
1462.82837	25349.6875
1466.23982	25647.2875
1469.64898	25928.9875
1473.05586	26149.5875
1476.46045	26175.7875
1479.86276	26121.6875
1483.26279	26137.4875
1486.66054	26189.9875
1490.05602	26387.0875
1493.44922	26820.8875
1496.84016	27436.8875
1500.22882	28398.2875
1503.61521	29635.9875
1506.99934	30806.1875
1510.38121	31678.8875
1513.76081	31906.7875
1517.13816	31333.9875
1520.51324	30508.3875
1523.88607	29825.6875
1527.25665	29391.8875
1530.62498	29126.9875
1533.99105	28771.9875
1537.35488	28369.5875
1540.71647	27680.9875
1544.07581	26948.9875
1547.4329	26314.1875
1550.78776	25727.1875
1554.14038	25323.9875
1557.49077	25152.3875
1560.83892	25115.5875
1564.18484	25195.6875
1567.52853	25363.7875
1570.86999	25556.4875
1574.20922	25925.7875
1577.54624	26186.6875
1580.88103	26091.8875
1584.2136	25909.1875
1587.54395	25991.1875
1590.87208	26358.3875
1594.19801	27059.5875
1597.52172	27848.8875
1600.84321	28027.7875
1604.16251	27313.8875
1607.47959	26075.3875
1610.79447	24739.5875
1614.10715	23402.7875
1617.41763	22098.4875
1620.7259	21122.9875
1624.03199	20512.6875
1627.33587	20301.6875
1630.63757	20495.0875
1633.93707	21120.9875
1637.23439	22316.4875
1640.52951	24144.2875
1643.82246	26543.0875
1647.11321	28747.1875
1650.40179	30069.5875
1653.68819	29518.8875
1656.97241	27300.5875
1660.25446	24546.5875
1663.53433	21995.1875
1666.81203	20078.0875
1670.08756	18758.7875
1673.36092	17904.9875
1676.63211	17343.2875
1679.90115	16984.0875
1683.16801	16679.6875
1686.43272	16499.4875
1689.69527	16294.9875
1692.95567	16224.8875
1696.2139	16042.8875
1699.46999	16017.1875
1702.72392	15940.9875
1705.97571	15900.5875
1709.22535	15864.0875
1712.47284	15818.6875
1715.71819	15789.6875
1718.96139	15775.8875
1722.20246	15695.7875
1725.44139	15671.3875
1728.67818	15552.7875
1731.91284	15467.9875
1735.14537	15404.3875
1738.37576	15336.7875
1741.60403	15270.5875
1744.83017	15224.4875
1748.05418	15205.0875
1751.27607	15158.6875
1754.49584	15161.0875
1757.71349	15148.1875
1760.92903	15101.3875
1764.14244	15109.8875
1767.35375	15097.3875
1770.56294	15039.4875
1773.77002	15004.3875
1776.97499	14942.5875
1780.17785	14913.7875
1783.37861	14877.1875
1786.57727	14875.4875
1789.77382	14812.3875
1792.96828	14782.3875
1796.16064	14722.0875
1799.3509	14719.2875
1802.53907	14665.4875
1805.72514	14630.2875
1808.90913	14547.6875
1812.09102	14539.7875
1815.27083	14494.7875
1818.44856	14469.0875
1821.6242	14450.6875
1824.79776	14412.4875
1827.96924	14397.5875
1831.13864	14363.0875
1834.30597	14376.0875
1837.47122	14332.7875
1840.6344	14314.5875
1843.7955	14333.6875
1846.95454	14299.5875
1850.11151	14266.8875
1853.26642	14257.3875
1856.41926	14257.0875
1859.57004	14224.2875
1862.71876	14204.1875
1865.86542	14168.1875
1869.01003	14150.9875
1872.15258	14119.0875
1875.29308	14120.0875
1878.43152	14056.7875
1881.56792	14044.2875
1884.70227	14019.8875
1887.83457	14005.9875
1890.96482	13966.1875
1894.09304	13928.0875
1897.21921	13933.1875
1900.34335	13892.9875
1903.46544	13887.3875
1906.58551	13848.7875
1909.70353	13833.4875
1912.81953	13781.2875
1915.93349	13767.7875
1919.04543	13785.1875
1922.15534	13722.1875
1925.26322	13672.4875
1928.36908	13624.8875
1931.47292	13642.7875
1934.57473	13592.1875
1937.67453	13572.3875
1940.77232	13499.4875
1943.86808	13448.6875
1946.96184	13374.8875
1950.05358	13403.2875
1953.14331	13328.0875
1956.23103	13278.2875
1959.31675	13202.0875
1962.40046	13201.4875
1965.48217	13142.4875
1968.56188	13101.4875
1971.63959	13071.9875
1974.7153	13010.7875
1977.78901	12963.9875
1980.86073	12922.3875
1983.93046	12897.2875
1986.99819	12829.4875
1990.06394	12811.9875
1993.1277	12750.6875
1996.18947	12696.6875
1999.24925	12682.0875
2002.30706	12646.1875
2005.36288	12581.7875
2008.41672	12537.2875
2011.46859	12511.2875
2014.51848	12450.3875
2017.56639	12406.9875
2020.61233	12369.9875
2023.6563	12329.0875
2026.6983	12298.7875
2029.73833	12244.6875
2032.7764	12200.7875
2035.8125	12205.7875
2038.84664	12158.9875
2041.87881	12135.1875
2044.90903	12109.0875
2047.93729	12063.6875
2050.96359	12047.0875
2053.98794	12027.1875
2057.01034	12006.3875
2060.03078	12017.9875
2063.04927	11997.7875
2066.06582	12009.1875
2069.08042	11985.0875
2072.09307	11982.9875
2075.10378	11921.2875
2078.11255	11927.9875
2081.11938	11940.8875
2084.12426	11907.4875
2087.12722	11874.7875
2090.12824	11910.9875
2093.12732	11876.8875
2096.12447	11871.3875
2099.11969	11881.6875
2102.11299	11863.1875
2105.10435	11866.1875
2108.09379	11868.4875
2111.08131	11878.7875
2114.0669	11859.6875
2117.05057	11878.8875
2120.03233	11879.2875
2123.01216	11875.4875
2125.99008	11901.3875
2128.96609	11891.9875
2131.94018	11888.4875
2134.91236	11856.4875
2137.88263	11890.4875
2140.851	11888.3875
2143.81746	11895.2875
2146.78201	11894.9875
2149.74466	11856.4875
2152.7054	11866.3875
2155.66425	11854.4875
2158.6212	11860.3875
2161.57625	11817.9875
2164.52941	11817.6875
2167.48067	11817.6875
2170.43004	11788.4875
2173.37752	11775.5875
2176.32311	11805.0875
2179.26681	11789.7875
2182.20863	11818.4875
2185.14856	11783.3875
2188.08661	11763.2875
2191.02278	11780.2875
2193.95707	11771.2875
2196.88948	11737.9875
2199.82001	11699.4875
2202.74867	11691.6875
2205.67545	11675.2875
2208.60037	11667.6875
2211.52341	11624.1875
2214.44458	11580.3875
2217.36388	11528.8875
2220.28132	11525.3875
2223.1969	11483.0875
2226.11061	11488.3875
2229.02246	11452.2875
2231.93245	11438.3875
2234.84058	11397.8875
2237.74686	11372.5875
2240.65128	11346.9875
2243.55385	11351.4875
2246.45456	11369.1875
2249.35343	11324.3875
2252.25044	11308.8875
2255.14561	11259.3875
2258.03893	11236.8875
2260.93041	11209.4875
2263.82004	11180.5875
2266.70783	11155.3875
2269.59378	11125.3875
2272.4779	11083.5875
2275.36017	11011.3875
2278.24061	11034.0875
2281.11922	10991.7875
2283.996	10994.5875
2286.87094	10967.5875
2289.74405	10931.3875
2292.61534	10922.8875
2295.4848	10891.0875
2298.35243	10907.1875
2301.21824	10865.4875
2304.08223	10894.6875
2306.94439	10882.9875
2309.80474	10879.6875
2312.66327	10827.8875
2315.51999	10830.6875
2318.37489	10804.2875
2321.22797	10797.1875
2324.07925	10761.4875
2326.92871	10757.0875
2329.77637	10721.3875
2332.62222	10698.8875
2335.46626	10689.4875
2338.3085	10678.3875
2341.14893	10677.5875
2343.98756	10647.2875
2346.8244	10629.1875
2349.65943	10601.4875
2352.49267	10595.2875
2355.32411	10583.6875
2358.15376	10594.1875
2360.98161	10595.1875
2363.80768	10562.5875
2366.63195	10561.1875
2369.45444	10567.1875
2372.27514	10538.9875
2375.09405	10540.8875
2377.91118	10518.1875
2380.72652	10479.9875
2383.54009	10471.3875
2386.35187	10438.7875
2389.16188	10394.9875
2391.97011	10370.9875
2394.77657	10356.9875
2397.58125	10320.7875
2400.38416	10294.6875
2403.18529	10264.6875
2405.98466	10280.1875
2408.78226	10238.1875
2411.57809	10235.4875
2414.37216	10229.7875
2417.16446	10229.9875
2419.955	10201.9875
2422.74378	10160.6875
2425.5308	10176.2875
2428.31606	10145.3875
2431.09956	10106.2875
2433.88131	10112.0875
2436.6613	10139.7875
2439.43954	10114.7875
2442.21603	10108.6875
2444.99077	10105.4875
2447.76377	10070.0875
2450.53501	10034.0875
2453.30451	10030.7875
2456.07226	10040.3875
2458.83827	10003.3875
2461.60254	9989.3875
2464.36507	9992.6875
2467.12586	9992.4875
2469.88492	9985.8875
2472.64224	9950.0875
2475.39782	9980.1875
2478.15167	9968.7875
2480.90379	9955.8875
2483.65417	9926.3875
2486.40283	9932.3875
2489.14976	9922.3875
2491.89497	9916.2875
2494.63845	9910.8875
2497.3802	9897.1875
2500.12024	9883.0875
2502.85855	9870.6875
2505.59514	9854.2875
2508.33002	9838.8875
2511.06318	9845.0875
2513.79462	9847.8875
2516.52435	9805.7875
2519.25237	9781.3875
2521.97867	9760.9875
2524.70327	9758.5875
2527.42616	9711.6875
2530.14734	9724.5875
2532.86681	9725.3875
2535.58458	9715.1875
2538.30065	9703.6875
2541.01501	9706.1875
2543.72768	9669.9875
2546.43864	9638.8875
2549.14791	9619.4875
2551.85548	9607.6875
2554.56136	9590.0875
2557.26554	9571.7875
2559.96803	9572.0875
2562.66883	9516.3875
2565.36794	9530.6875
2568.06536	9484.7875
2570.7611	9491.3875
2573.45514	9479.1875
2576.14751	9450.2875
2578.83819	9400.8875
2581.52719	9421.8875
2584.21451	9390.3875
2586.90015	9387.1875
2589.58411	9367.4875
2592.2664	9365.8875
2594.94701	9345.4875
2597.62594	9321.2875
2600.30321	9302.4875
2602.9788	9289.7875
2605.65273	9280.7875
2608.32498	9301.0875
2610.99557	9264.9875
2613.66449	9253.7875
2616.33175	9225.6875
2618.99734	9211.1875
2621.66128	9197.3875
2624.32355	9183.2875
2626.98416	9168.1875
2629.64311	9156.3875
2632.30041	9141.7875
2634.95605	9127.6875
2637.61004	9115.3875
2640.26238	9108.0875
2642.91306	9090.3875
2645.56209	9067.1875
2648.20948	9075.9875
2650.85521	9093.1875
2653.4993	9090.0875
2656.14175	9071.4875
2658.78255	9078.9875
2661.42171	9085.0875
2664.05923	9044.7875
2666.6951	9053.4875
2669.32934	9044.2875
2671.96194	9064.2875
2674.59291	9043.4875
2677.22224	9043.0875
2679.84993	9025.2875
2682.476	9006.7875
2685.10043	9041.5875
2687.72324	8995.4875
2690.34441	9011.9875
2692.96396	8992.3875
2695.58188	9008.6875
2698.19818	9011.4875
2700.81285	9020.5875
2703.4259	8995.4875
2706.03733	9001.8875
2708.64714	8991.9875
2711.25533	8994.5875
2713.86191	9000.5875
2716.46687	9009.1875
2719.07021	9020.5875
2721.67194	8997.6875
2724.27206	9000.8875
2726.87057	9007.9875
2729.46747	9022.8875
2732.06276	9004.4875
2734.65644	8970.5875
2737.24852	8969.7875
2739.83899	8947.1875
2742.42786	8969.1875
2745.01513	8944.6875
2747.60079	8930.7875
2750.18486	8910.9875
2752.76733	8888.0875
2755.3482	8887.1875
2757.92747	8869.8875
2760.50515	8861.4875
2763.08123	8871.3875
2765.65573	8841.1875
2768.22863	8828.7875
2770.79994	8822.7875
2773.36967	8834.0875
2775.9378	8809.1875
2778.50435	8807.4875
2781.06932	8785.9875
2783.6327	8763.1875
2786.1945	8746.2875
2788.75471	8749.1875
2791.31335	8716.8875
2793.87041	8755.8875
2796.42589	8695.3875
2798.97979	8699.6875
2801.53212	8655.2875
2804.08288	8647.6875
2806.63206	8639.7875
2809.17967	8616.5875
2811.72571	8598.4875
2814.27018	8593.3875
2816.81308	8552.2875
2819.35442	8528.6875
2821.89419	8509.4875
2824.43239	8509.2875
2826.96904	8513.1875
2829.50412	8497.3875
2832.03763	8478.1875
2834.56959	8477.6875
2837.1	8472.8875
2839.62884	8490.1875
2842.15613	8488.0875
2844.68186	8499.4875
2847.20604	8546.4875
2849.72867	8566.7875
2852.24974	8546.4875
2854.76927	8539.1875
2857.28724	8530.4875
2859.80367	8513.2875
2862.31855	8485.6875
2864.83189	8469.9875
2867.34368	8452.8875
2869.85393	8443.7875
2872.36264	8449.9875
2874.8698	8438.3875
2877.37543	8423.9875
2879.87952	8397.2875
2882.38207	8399.3875
2884.88308	8400.6875
2887.38256	8400.9875
2889.88051	8392.3875
2892.37692	8380.5875
2894.8718	8388.8875
2897.36515	8384.6875
2899.85698	8356.9875
2902.34727	8400.5875
2904.83604	8375.9875
2907.32328	8402.7875
2909.809	8392.0875
2912.29319	8410.0875
2914.77587	8391.4875
2917.25702	8370.9875
2919.73665	8378.9875
2922.21476	8362.4875
2924.69136	8377.3875
2927.16644	8369.3875
2929.64	8348.7875
2932.11205	8356.5875
2934.58258	8331.4875
2937.05161	8306.9875
2939.51912	8308.5875
2941.98513	8271.1875
2944.44962	8270.1875
2946.91261	8222.2875
2949.37409	8240.3875
2951.83407	8216.8875
2954.29254	8216.1875
2956.74951	8203.2875
2959.20498	8192.8875
2961.65895	8161.5875
2964.11142	8156.3875
2966.56239	8130.4875
2969.01186	8147.7875
2971.45984	8124.6875
2973.90632	8112.5875
2976.35131	8079.0875
2978.7948	8070.0875
2981.23681	8039.1875
2983.67732	8014.1875
2986.11635	8014.9875
2988.55388	7997.8875
2990.98993	7955.9875
2993.4245	7958.4875
2995.85758	7915.3875
2998.28917	7885.1875
3000.71928	7874.0875
3003.14791	7866.1875
3005.57506	7849.3875
3008.00073	7830.7875
3010.42493	7827.1875
3012.84764	7801.0875
3015.26888	7796.7875
3017.68865	7741.7875
3020.10694	7776.0875
3022.52376	7748.0875
3024.9391	7723.7875
3027.35298	7715.4875
3029.76539	7699.0875
3032.17632	7683.9875
3034.5858	7675.0875
3036.9938	7682.3875
3039.40034	7665.7875
3041.80542	7666.2875
3044.20903	7627.6875
3046.61118	7645.5875
3049.01187	7608.4875
3051.4111	7611.3875
3053.80888	7584.0875
3056.20519	7577.1875
3058.60005	7550.5875
3060.99345	7542.7875
3063.3854	7531.2875
3065.7759	7488.5875
3068.16494	7468.6875
3070.55254	7434.3875
3072.93868	7432.2875
3075.32338	7433.0875
3077.70662	7402.4875
3080.08842	7362.6875
3082.46878	7378.9875
3084.84769	7353.4875
3087.22515	7342.7875
3089.60118	7358.2875
3091.97576	7348.8875
3094.3489	7363.7875
3096.72061	7349.3875
3099.09087	7349.4875
3101.4597	7338.9875
3103.82709	7343.5875
3106.19305	7313.7875
3108.55757	7323.4875
3110.92066	7274.0875
3113.28232	7269.9875
3115.64255	7270.3875
3118.00134	7241.7875
3120.35871	7228.8875
3122.71466	7206.0875
3125.06917	7207.4875
3127.42226	7200.8875
3129.77393	7199.2875
3132.12417	7153.5875
3134.47299	7174.7875
3136.82039	7173.3875
3139.16636	7150.6875
3141.51092	7170.6875
3143.85406	7163.4875
3146.19579	7157.7875
3148.53609	7165.7875
3150.87499	7166.7875
3153.21246	7172.3875
3155.54853	7199.1875
3157.88318	7191.3875
3160.21642	7192.6875
3162.54826	7192.8875
3164.87868	7199.2875
3167.2077	7196.8875
3169.5353	7171.3875
3171.86151	7191.3875
3174.18631	7185.5875
3176.5097	7173.9875
3178.83169	7153.0875
3181.15228	7155.0875
3183.47147	7146.3875
3185.78926	7118.9875
3188.10565	7123.7875
3190.42065	7114.0875
3192.73424	7085.9875
3195.04645	7088.8875
3197.35725	7088.7875
3199.66667	7072.0875
3201.97469	7079.0875
3204.28132	7091.9875
3206.58656	7081.8875
3208.8904	7093.8875
3211.19287	7080.1875
3213.49394	7096.7875
3215.79363	7099.0875
3218.09193	7102.8875
3220.38884	7065.5875
3222.68438	7080.1875
3224.97853	7075.5875
3227.2713	7064.2875
3229.56269	7060.6875
3231.8527	7063.4875
3234.14133	7040.5875
3236.42858	7026.1875
3238.71446	7007.3875
3240.99896	6981.0875
3243.28209	6982.5875
3245.56384	6965.2875
3247.84423	6955.1875
3250.12324	6958.7875
3252.40088	6940.9875
3254.67715	6938.6875
3256.95205	6930.8875
3259.22558	6912.1875
3261.49775	6887.7875
3263.76855	6887.8875
3266.03799	6868.3875
3268.30606	6883.9875
3270.57277	6850.5875
3272.83812	6828.6875
3275.10211	6813.8875
3277.36474	6803.4875
3279.62601	6807.4875
3281.88593	6784.6875
3284.14448	6780.0875
3286.40168	6789.1875
3288.65753	6775.7875
3290.91202	6769.6875
3293.16516	6767.3875
3295.41695	6724.3875
3297.66738	6717.4875
3299.91647	6677.9875
3302.16421	6591.3875
3304.4106	6572.5875
3306.65564	6543.0875
3308.89933	6505.0875
3311.14169	6462.2875
3313.38269	6401.8875
3315.62236	6363.9875
3317.86068	6300.7875
3320.09766	6251.5875
3322.3333	6209.5875
3324.5676	6171.6875
3326.80056	6078.2875
3329.03219	6025.4875
3331.26248	0.6875
3333.49143	0.5875
3335.71905	-1.0125
