Data from AgNPs_FTO_APTES_UA_5uM_CRN_0uM_R6G_10uM_NaF_0.1M_Addition_RamanShift__15__09-56-16-539.txt Node

Date: Mon Feb 07 09:56:16 GMT 2022
User: TCL
Spectrometer: QEP01345
Trigger mode: 4
Integration Time (sec): 7.000000E0
Scans to average: 10
Electric dark correction enabled: true
Nonlinearity correction enabled: false
Boxcar width: 0
XAxis mode: Raman Shifts
Number of Pixels in Spectrum: 1044
>>>>>Begin Spectral Data<<<<<
46.04893	-0.7625
50.45542	-1.3625
54.85868	0.1375
59.25871	0.9375
63.6555	80.6375
68.04907	85.9375
72.43941	91.6375
76.82654	92.7375
81.21044	94.0375
85.59113	99.2375
89.96862	99.7375
94.34289	102.7375
98.71396	107.5375
103.08183	111.0375
107.4465	117.4375
111.80798	118.3375
116.16626	123.8375
120.52136	126.5375
124.87327	135.8375
129.222	145.7375
133.56755	158.9375
137.90993	177.1375
142.24913	189.9375
146.58517	223.0375
150.91804	261.3375
155.24774	317.6375
159.57429	401.1375
163.89768	523.0375
168.21792	708.1375
172.53501	978.3375
176.84895	1358.7375
181.15975	1919.3375
185.46741	2693.3375
189.77193	3724.1375
194.07331	4967.6375
198.37157	6396.3375
202.6667	7917.0375
206.9587	9370.0375
211.24758	10848.9375
215.53334	12352.8375
219.81599	13973.5375
224.09553	15752.1375
228.37195	17740.2375
232.64527	19908.2375
236.91549	22128.8375
241.18261	24363.3375
245.44663	26388.6375
249.70755	28188.2375
253.96539	29827.9375
258.22014	31203.3375
262.4718	32412.7375
266.72039	33190.5375
270.96589	33690.4375
275.20832	33766.2375
279.44768	33700.3375
283.68397	33593.5375
287.91719	33545.3375
292.14735	33569.9375
296.37445	33551.6375
300.59849	33575.9375
304.81948	33702.8375
309.03742	33704.8375
313.25231	33322.0375
317.46415	32345.2375
321.67296	30947.4375
325.87872	29616.3375
330.08145	28847.8375
334.28114	28637.1375
338.47781	28762.9375
342.67145	29086.5375
346.86207	29510.6375
351.04966	30110.9375
355.23424	30830.1375
359.4158	31436.4375
363.59435	31869.5375
367.76989	32085.8375
371.94243	32149.7375
376.11196	32142.2375
380.27849	32052.8375
384.44203	31965.6375
388.60257	32114.9375
392.76012	32455.9375
396.91468	33044.1375
401.06626	33743.4375
405.21485	34223.0375
409.36047	33998.9375
413.50311	33405.5375
417.64277	32938.0375
421.77947	32836.2375
425.9132	32941.4375
430.04396	32944.9375
434.17176	32849.4375
438.2966	32751.5375
442.41849	32864.5375
446.53742	33388.8375
450.6534	34188.4375
454.76644	34875.3375
458.87653	35355.1375
462.98368	35439.7375
467.08789	35296.0375
471.18916	35067.5375
475.2875	34858.1375
479.38291	34967.5375
483.4754	35319.0375
487.56496	35386.8375
491.6516	35147.0375
495.73531	34626.1375
499.81612	34303.6375
503.89401	34337.1375
507.96899	34340.3375
512.04106	33926.2375
516.11023	33306.7375
520.1765	32390.9375
524.23987	31624.5375
528.30034	31019.1375
532.35792	30498.5375
536.41261	30001.1375
540.46441	29671.9375
544.51333	29778.3375
548.55936	30367.8375
552.60252	31465.7375
556.64279	32593.1375
560.6802	33251.6375
564.71473	33745.3375
568.7464	34740.0375
572.7752	36297.7375
576.80114	37950.5375
580.82422	39495.1375
584.84444	40858.3375
588.86181	41598.8375
592.87633	41370.3375
596.888	40025.1375
600.89682	38725.2375
604.9028	39409.2375
608.90594	43093.2375
612.90624	46849.9375
616.90371	43647.5375
620.89834	35310.3375
624.89015	31275.9375
628.87913	30786.0375
632.86528	31275.1375
636.84862	31573.2375
640.82913	31120.2375
644.80683	29995.9375
648.78172	29164.8375
652.75379	28947.8375
656.72306	29293.6375
660.68952	29840.5375
664.65319	29709.2375
668.61405	29191.8375
672.57211	29036.1375
676.52738	29096.3375
680.47986	28961.0375
684.42955	28585.7375
688.37646	28348.9375
692.32058	28542.7375
696.26192	29015.2375
700.20048	29571.6375
704.13626	30071.0375
708.06928	30317.4375
711.99952	30253.2375
715.927	30101.1375
719.85171	30042.9375
723.77365	29961.8375
727.69284	29422.8375
731.60928	28783.3375
735.52295	28446.2375
739.43388	28384.0375
743.34206	28522.8375
747.24749	28744.4375
751.15017	29170.1375
755.05012	29945.1375
758.94733	31168.8375
762.8418	33434.7375
766.73354	36856.8375
770.62254	39865.6375
774.50882	39971.1375
778.39237	37255.6375
782.27321	33947.9375
786.15132	31364.7375
790.02671	29684.1375
793.89938	28723.3375
797.76935	28295.2375
801.6366	28175.2375
805.50115	28104.2375
809.36299	27946.2375
813.22213	27744.7375
817.07857	27685.1375
820.93231	27560.1375
824.78336	27380.8375
828.63172	27152.5375
832.47738	26990.5375
836.32036	26902.2375
840.16066	26940.3375
843.99827	27000.2375
847.8332	27001.0375
851.66546	26920.6375
855.49504	26980.2375
859.32195	26995.3375
863.1462	26880.9375
866.96777	26826.2375
870.78668	26776.7375
874.60293	26689.4375
878.41652	26623.6375
882.22745	26678.5375
886.03573	26782.2375
889.84136	26834.1375
893.64433	26833.8375
897.44466	26793.9375
901.24235	26764.6375
905.0374	26623.2375
908.8298	26498.2375
912.61957	26533.2375
916.40671	26816.8375
920.19121	27467.0375
923.97308	28097.9375
927.75233	28254.5375
931.52895	27850.0375
935.30295	27117.9375
939.07433	26282.7375
942.84309	25633.4375
946.60924	25262.2375
950.37278	25142.6375
954.13371	25211.1375
957.89203	25259.5375
961.64774	25277.2375
965.40086	25278.7375
969.15137	25286.5375
972.89929	25195.2375
976.64461	25012.2375
980.38733	24860.7375
984.12747	24813.9375
987.86502	24920.8375
991.59999	25055.0375
995.33237	25292.4375
999.06217	25699.4375
1002.78939	26171.9375
1006.51404	26645.9375
1010.23611	27077.9375
1013.95561	27463.7375
1017.67255	27651.4375
1021.38692	27419.8375
1025.09872	27011.0375
1028.80796	26802.0375
1032.51465	27065.1375
1036.21877	27450.6375
1039.92035	27606.2375
1043.61937	27552.7375
1047.31584	27367.0375
1051.00976	27192.6375
1054.70114	27235.0375
1058.38998	27470.8375
1062.07627	27846.6375
1065.76003	28366.2375
1069.44126	29069.2375
1073.11995	29957.0375
1076.79611	30831.8375
1080.46974	31111.8375
1084.14085	31223.8375
1087.80943	31635.8375
1091.47549	32208.6375
1095.13903	32566.7375
1098.80005	32158.7375
1102.45857	30907.9375
1106.11456	29465.6375
1109.76805	28496.7375
1113.41903	28084.4375
1117.06751	28011.6375
1120.71348	28284.5375
1124.35696	28647.7375
1127.99793	29246.3375
1131.63641	29640.0375
1135.2724	29803.0375
1138.90589	29660.0375
1142.5369	29678.0375
1146.16542	29834.7375
1149.79145	30079.6375
1153.415	30468.9375
1157.03607	31180.2375
1160.65467	32468.1375
1164.27079	34353.5375
1167.88443	36798.8375
1171.49561	39538.3375
1175.10432	42815.3375
1178.71056	46726.9375
1182.31434	50496.3375
1185.91565	52581.7375
1189.51451	52810.2375
1193.11091	51628.2375
1196.70485	49185.2375
1200.29634	46492.0375
1203.88538	44573.2375
1207.47197	43607.6375
1211.05612	42820.2375
1214.63782	41874.4375
1218.21708	40449.4375
1221.79391	38928.8375
1225.36829	37616.1375
1228.94024	36777.8375
1232.50976	36070.7375
1236.07685	35550.0375
1239.6415	35274.4375
1243.20374	35259.4375
1246.76355	35554.1375
1250.32093	36111.6375
1253.8759	37048.5375
1257.42845	38546.7375
1260.97859	40151.0375
1264.52631	41733.1375
1268.07163	43365.4375
1271.61453	44949.0375
1275.15503	46626.6375
1278.69312	48456.2375
1282.22882	50158.0375
1285.76211	52138.4375
1289.29301	54638.3375
1292.82151	57529.7375
1296.34761	60942.3375
1299.87133	65039.0375
1303.39266	69197.4375
1306.9116	72954.7375
1310.42815	75687.8375
1313.94233	76866.3375
1317.45412	76482.6375
1320.96354	76113.0375
1324.47058	76398.3375
1327.97525	77111.0375
1331.47754	77572.2375
1334.97747	77128.6375
1338.47502	75952.2375
1341.97022	74471.2375
1345.46305	72710.1375
1348.95352	70557.6375
1352.44163	68264.3375
1355.92738	67101.1375
1359.41078	68158.2375
1362.89183	70430.6375
1366.37053	70568.0375
1369.84688	66661.9375
1373.32088	60464.4375
1376.79254	55064.7375
1380.26186	52171.5375
1383.72883	51280.3375
1387.19347	51192.4375
1390.65578	51065.7375
1394.11575	50971.5375
1397.57339	51560.3375
1401.0287	52618.6375
1404.48168	53425.6375
1407.93234	52934.6375
1411.38068	51080.2375
1414.82669	48292.7375
1418.27039	45209.3375
1421.71177	42413.3375
1425.15083	40295.0375
1428.58758	39196.7375
1432.02203	39313.1375
1435.45416	40437.7375
1438.88399	41954.8375
1442.31151	43347.8375
1445.73673	44456.9375
1449.15965	45481.0375
1452.58027	46250.8375
1455.9986	46663.5375
1459.41463	47058.1375
1462.82837	47883.0375
1466.23982	48919.5375
1469.64898	49846.3375
1473.05586	50178.3375
1476.46045	50178.8375
1479.86276	49727.7375
1483.26279	49394.8375
1486.66054	49394.9375
1490.05602	49889.4375
1493.44922	50860.7375
1496.84016	52146.4375
1500.22882	54081.7375
1503.61521	56497.1375
1506.99934	59303.1375
1510.38121	61871.5375
1513.76081	63044.8375
1517.13816	62298.7375
1520.51324	60488.2375
1523.88607	58590.1375
1527.25665	57242.6375
1530.62498	56320.3375
1533.99105	55348.6375
1537.35488	54169.8375
1540.71647	52413.2375
1544.07581	50351.5375
1547.4329	48216.9375
1550.78776	46424.8375
1554.14038	45313.4375
1557.49077	44925.8375
1560.83892	45053.1375
1564.18484	45383.4375
1567.52853	45683.6375
1570.86999	45962.1375
1574.20922	46587.8375
1577.54624	47282.8375
1580.88103	47401.1375
1584.2136	47665.5375
1587.54395	49128.1375
1590.87208	51819.9375
1594.19801	55107.6375
1597.52172	57624.8375
1600.84321	57467.3375
1604.16251	53700.8375
1607.47959	48568.3375
1610.79447	43870.7375
1614.10715	39545.2375
1617.41763	35935.8375
1620.7259	33455.5375
1624.03199	32134.7375
1627.33587	32003.7375
1630.63757	33005.8375
1633.93707	35525.0375
1637.23439	39771.9375
1640.52951	46085.1375
1643.82246	54041.9375
1647.11321	61152.7375
1650.40179	64264.4375
1653.68819	61074.0375
1656.97241	53077.4375
1660.25446	43929.3375
1663.53433	36381.2375
1666.81203	31241.3375
1670.08756	28103.4375
1673.36092	26174.7375
1676.63211	24973.0375
1679.90115	24145.5375
1683.16801	23508.9375
1686.43272	23084.5375
1689.69527	22734.3375
1692.95567	22505.0375
1696.2139	22307.1375
1699.46999	22147.0375
1702.72392	22023.9375
1705.97571	21909.9375
1709.22535	21813.4375
1712.47284	21689.5375
1715.71819	21631.4375
1718.96139	21558.9375
1722.20246	21397.2375
1725.44139	21258.0375
1728.67818	21088.9375
1731.91284	20916.5375
1735.14537	20759.2375
1738.37576	20642.6375
1741.60403	20535.1375
1744.83017	20429.9375
1748.05418	20367.2375
1751.27607	20292.2375
1754.49584	20245.2375
1757.71349	20211.7375
1760.92903	20111.9375
1764.14244	20107.0375
1767.35375	20069.3375
1770.56294	20046.5375
1773.77002	19985.4375
1776.97499	19903.6375
1780.17785	19847.4375
1783.37861	19786.9375
1786.57727	19783.3375
1789.77382	19718.1375
1792.96828	19672.0375
1796.16064	19654.8375
1799.3509	19596.6375
1802.53907	19532.0375
1805.72514	19423.5375
1808.90913	19401.7375
1812.09102	19309.9375
1815.27083	19269.5375
1818.44856	19250.7375
1821.6242	19207.5375
1824.79776	19150.6375
1827.96924	19137.3375
1831.13864	19130.1375
1834.30597	19143.3375
1837.47122	19137.0375
1840.6344	19118.1375
1843.7955	19109.9375
1846.95454	19103.6375
1850.11151	19081.8375
1853.26642	19089.3375
1856.41926	19054.1375
1859.57004	19013.3375
1862.71876	19012.5375
1865.86542	18999.9375
1869.01003	18925.8375
1872.15258	18887.8375
1875.29308	18795.2375
1878.43152	18745.5375
1881.56792	18728.5375
1884.70227	18701.6375
1887.83457	18648.0375
1890.96482	18693.2375
1894.09304	18664.6375
1897.21921	18575.2375
1900.34335	18544.3375
1903.46544	18529.2375
1906.58551	18462.7375
1909.70353	18465.7375
1912.81953	18396.3375
1915.93349	18380.7375
1919.04543	18343.5375
1922.15534	18282.3375
1925.26322	18219.0375
1928.36908	18183.2375
1931.47292	18150.8375
1934.57473	18049.3375
1937.67453	18012.1375
1940.77232	17914.3375
1943.86808	17838.4375
1946.96184	17817.0375
1950.05358	17714.7375
1953.14331	17691.6375
1956.23103	17664.8375
1959.31675	17584.1375
1962.40046	17533.9375
1965.48217	17475.3375
1968.56188	17463.0375
1971.63959	17373.7375
1974.7153	17334.1375
1977.78901	17264.1375
1980.86073	17184.2375
1983.93046	17129.0375
1986.99819	17090.6375
1990.06394	17061.0375
1993.1277	16962.0375
1996.18947	16885.2375
1999.24925	16842.4375
2002.30706	16798.5375
2005.36288	16691.2375
2008.41672	16676.2375
2011.46859	16605.2375
2014.51848	16548.7375
2017.56639	16499.1375
2020.61233	16454.5375
2023.6563	16455.1375
2026.6983	16385.0375
2029.73833	16333.6375
2032.7764	16313.1375
2035.8125	16267.0375
2038.84664	16216.5375
2041.87881	16201.2375
2044.90903	16151.7375
2047.93729	16120.5375
2050.96359	16112.1375
2053.98794	16089.5375
2057.01034	16096.1375
2060.03078	16083.2375
2063.04927	16014.5375
2066.06582	16035.6375
2069.08042	16013.0375
2072.09307	16001.7375
2075.10378	15968.2375
2078.11255	15984.4375
2081.11938	15952.1375
2084.12426	15922.2375
2087.12722	15931.8375
2090.12824	15943.9375
2093.12732	15937.7375
2096.12447	15911.2375
2099.11969	15891.4375
2102.11299	15902.8375
2105.10435	15870.0375
2108.09379	15863.3375
2111.08131	15857.2375
2114.0669	15906.6375
2117.05057	15930.6375
2120.03233	15907.0375
2123.01216	15921.8375
2125.99008	15954.8375
2128.96609	15958.7375
2131.94018	15977.7375
2134.91236	15946.9375
2137.88263	15921.6375
2140.851	15939.5375
2143.81746	15940.0375
2146.78201	15923.2375
2149.74466	15930.4375
2152.7054	15946.7375
2155.66425	15886.4375
2158.6212	15891.4375
2161.57625	15877.1375
2164.52941	15848.8375
2167.48067	15837.6375
2170.43004	15860.1375
2173.37752	15825.9375
2176.32311	15818.0375
2179.26681	15797.7375
2182.20863	15804.0375
2185.14856	15819.2375
2188.08661	15799.7375
2191.02278	15795.4375
2193.95707	15757.1375
2196.88948	15734.5375
2199.82001	15706.4375
2202.74867	15649.7375
2205.67545	15669.3375
2208.60037	15646.3375
2211.52341	15623.6375
2214.44458	15630.4375
2217.36388	15592.2375
2220.28132	15547.3375
2223.1969	15534.9375
2226.11061	15520.6375
2229.02246	15474.2375
2231.93245	15423.3375
2234.84058	15414.8375
2237.74686	15378.1375
2240.65128	15352.5375
2243.55385	15320.5375
2246.45456	15270.8375
2249.35343	15233.8375
2252.25044	15185.3375
2255.14561	15168.9375
2258.03893	15163.7375
2260.93041	15144.6375
2263.82004	15100.7375
2266.70783	15045.8375
2269.59378	15013.2375
2272.4779	14978.5375
2275.36017	14918.6375
2278.24061	14903.4375
2281.11922	14878.4375
2283.996	14829.8375
2286.87094	14843.8375
2289.74405	14799.5375
2292.61534	14776.6375
2295.4848	14763.6375
2298.35243	14736.2375
2301.21824	14762.0375
2304.08223	14761.8375
2306.94439	14748.9375
2309.80474	14734.6375
2312.66327	14716.0375
2315.51999	14724.1375
2318.37489	14704.6375
2321.22797	14674.3375
2324.07925	14682.1375
2326.92871	14622.7375
2329.77637	14606.4375
2332.62222	14609.4375
2335.46626	14622.9375
2338.3085	14601.1375
2341.14893	14608.1375
2343.98756	14612.0375
2346.8244	14610.5375
2349.65943	14586.6375
2352.49267	14599.3375
2355.32411	14643.9375
2358.15376	14614.8375
2360.98161	14628.9375
2363.80768	14598.6375
2366.63195	14633.3375
2369.45444	14566.1375
2372.27514	14546.9375
2375.09405	14524.0375
2377.91118	14480.8375
2380.72652	14418.0375
2383.54009	14363.6375
2386.35187	14396.8375
2389.16188	14323.2375
2391.97011	14325.8375
2394.77657	14263.2375
2397.58125	14237.8375
2400.38416	14208.6375
2403.18529	14144.8375
2405.98466	14146.5375
2408.78226	14145.2375
2411.57809	14097.2375
2414.37216	14088.4375
2417.16446	14115.2375
2419.955	14069.6375
2422.74378	14070.4375
2425.5308	14020.0375
2428.31606	14043.1375
2431.09956	14013.3375
2433.88131	13993.8375
2436.6613	14016.8375
2439.43954	14036.2375
2442.21603	14048.5375
2444.99077	14031.9375
2447.76377	14008.0375
2450.53501	14011.1375
2453.30451	14015.4375
2456.07226	13999.9375
2458.83827	13977.4375
2461.60254	13999.8375
2464.36507	14007.5375
2467.12586	13988.9375
2469.88492	13948.9375
2472.64224	13940.8375
2475.39782	13975.9375
2478.15167	13966.7375
2480.90379	13936.6375
2483.65417	13954.1375
2486.40283	13988.3375
2489.14976	13999.5375
2491.89497	13989.9375
2494.63845	14015.4375
2497.3802	14002.0375
2500.12024	13976.7375
2502.85855	13992.8375
2505.59514	13951.6375
2508.33002	13908.5375
2511.06318	13891.4375
2513.79462	13889.1375
2516.52435	13884.1375
2519.25237	13868.0375
2521.97867	13857.4375
2524.70327	13851.1375
2527.42616	13796.9375
2530.14734	13806.5375
2532.86681	13814.4375
2535.58458	13823.8375
2538.30065	13793.2375
2541.01501	13784.5375
2543.72768	13755.8375
2546.43864	13732.7375
2549.14791	13724.6375
2551.85548	13689.2375
2554.56136	13680.2375
2557.26554	13649.5375
2559.96803	13684.5375
2562.66883	13663.2375
2565.36794	13649.7375
2568.06536	13641.6375
2570.7611	13581.4375
2573.45514	13605.9375
2576.14751	13589.0375
2578.83819	13549.9375
2581.52719	13559.4375
2584.21451	13549.1375
2586.90015	13546.4375
2589.58411	13537.6375
2592.2664	13512.4375
2594.94701	13528.1375
2597.62594	13503.9375
2600.30321	13501.7375
2602.9788	13492.9375
2605.65273	13485.1375
2608.32498	13497.4375
2610.99557	13511.8375
2613.66449	13522.8375
2616.33175	13461.9375
2618.99734	13460.5375
2621.66128	13469.6375
2624.32355	13460.7375
2626.98416	13464.3375
2629.64311	13440.3375
2632.30041	13426.7375
2634.95605	13404.6375
2637.61004	13380.0375
2640.26238	13398.9375
2642.91306	13398.4375
2645.56209	13399.3375
2648.20948	13384.5375
2650.85521	13396.7375
2653.4993	13413.1375
2656.14175	13383.9375
2658.78255	13389.4375
2661.42171	13381.9375
2664.05923	13387.6375
2666.6951	13381.1375
2669.32934	13407.4375
2671.96194	13414.5375
2674.59291	13411.1375
2677.22224	13396.4375
2679.84993	13412.4375
2682.476	13359.9375
2685.10043	13395.3375
2687.72324	13344.4375
2690.34441	13331.0375
2692.96396	13366.1375
2695.58188	13361.9375
2698.19818	13344.4375
2700.81285	13344.3375
2703.4259	13352.3375
2706.03733	13396.9375
2708.64714	13361.5375
2711.25533	13346.8375
2713.86191	13360.0375
2716.46687	13372.3375
2719.07021	13366.2375
2721.67194	13354.4375
2724.27206	13370.3375
2726.87057	13403.0375
2729.46747	13427.2375
2732.06276	13419.9375
2734.65644	13398.0375
2737.24852	13403.6375
2739.83899	13353.3375
2742.42786	13404.2375
2745.01513	13352.3375
2747.60079	13370.0375
2750.18486	13356.4375
2752.76733	13312.1375
2755.3482	13307.2375
2757.92747	13308.9375
2760.50515	13306.8375
2763.08123	13302.9375
2765.65573	13262.9375
2768.22863	13309.6375
2770.79994	13264.2375
2773.36967	13306.3375
2775.9378	13264.7375
2778.50435	13282.1375
2781.06932	13261.1375
2783.6327	13286.4375
2786.1945	13256.6375
2788.75471	13276.1375
2791.31335	13257.5375
2793.87041	13232.6375
2796.42589	13228.7375
2798.97979	13239.3375
2801.53212	13192.6375
2804.08288	13162.2375
2806.63206	13105.5375
2809.17967	13121.7375
2811.72571	13118.0375
2814.27018	13112.5375
2816.81308	13076.3375
2819.35442	13048.4375
2821.89419	13004.3375
2824.43239	13032.6375
2826.96904	12987.1375
2829.50412	13046.9375
2832.03763	12995.1375
2834.56959	12963.5375
2837.1	12962.6375
2839.62884	12995.8375
2842.15613	12987.3375
2844.68186	13016.3375
2847.20604	13041.1375
2849.72867	13030.5375
2852.24974	13024.3375
2854.76927	13019.9375
2857.28724	13003.4375
2859.80367	13005.7375
2862.31855	12992.1375
2864.83189	12984.0375
2867.34368	12958.0375
2869.85393	12943.7375
2872.36264	12912.4375
2874.8698	12898.5375
2877.37543	12883.9375
2879.87952	12891.1375
2882.38207	12885.4375
2884.88308	12886.9375
2887.38256	12881.3375
2889.88051	12934.4375
2892.37692	12936.0375
2894.8718	12913.6375
2897.36515	12922.1375
2899.85698	12958.8375
2902.34727	12993.4375
2904.83604	13025.2375
2907.32328	13023.4375
2909.809	13018.8375
2912.29319	13044.7375
2914.77587	13020.0375
2917.25702	13034.3375
2919.73665	12999.3375
2922.21476	12964.1375
2924.69136	12989.5375
2927.16644	12972.5375
2929.64	12961.9375
2932.11205	12928.9375
2934.58258	12897.4375
2937.05161	12906.2375
2939.51912	12887.5375
2941.98513	12899.0375
2944.44962	12832.7375
2946.91261	12768.3375
2949.37409	12786.8375
2951.83407	12749.9375
2954.29254	12725.8375
2956.74951	12714.8375
2959.20498	12688.9375
2961.65895	12665.5375
2964.11142	12639.6375
2966.56239	12634.5375
2969.01186	12615.7375
2971.45984	12571.7375
2973.90632	12585.2375
2976.35131	12555.6375
2978.7948	12568.2375
2981.23681	12495.4375
2983.67732	12501.7375
2986.11635	12461.7375
2988.55388	12421.8375
2990.98993	12391.9375
2993.4245	12367.1375
2995.85758	12335.6375
2998.28917	12270.8375
3000.71928	12224.1375
3003.14791	12180.1375
3005.57506	12171.4375
3008.00073	12116.2375
3010.42493	12132.2375
3012.84764	12107.2375
3015.26888	12110.0375
3017.68865	12061.9375
3020.10694	12029.5375
3022.52376	12008.2375
3024.9391	12001.6375
3027.35298	11941.4375
3029.76539	11952.1375
3032.17632	11962.4375
3034.5858	11954.8375
3036.9938	11930.7375
3039.40034	11912.7375
3041.80542	11926.8375
3044.20903	11892.7375
3046.61118	11899.1375
3049.01187	11893.7375
3051.4111	11862.4375
3053.80888	11820.5375
3056.20519	11800.9375
3058.60005	11784.8375
3060.99345	11747.3375
3063.3854	11729.3375
3065.7759	11661.7375
3068.16494	11654.4375
3070.55254	11584.7375
3072.93868	11541.4375
3075.32338	11504.9375
3077.70662	11453.0375
3080.08842	11400.9375
3082.46878	11386.8375
3084.84769	11418.2375
3087.22515	11433.2375
3089.60118	11397.2375
3091.97576	11410.3375
3094.3489	11388.8375
3096.72061	11406.8375
3099.09087	11393.8375
3101.4597	11362.3375
3103.82709	11362.3375
3106.19305	11365.1375
3108.55757	11333.7375
3110.92066	11306.5375
3113.28232	11295.5375
3115.64255	11268.1375
3118.00134	11212.2375
3120.35871	11233.3375
3122.71466	11210.8375
3125.06917	11189.4375
3127.42226	11157.6375
3129.77393	11165.6375
3132.12417	11144.8375
3134.47299	11157.0375
3136.82039	11114.0375
3139.16636	11148.4375
3141.51092	11127.7375
3143.85406	11092.1375
3146.19579	11087.3375
3148.53609	11074.2375
3150.87499	11070.0375
3153.21246	11099.2375
3155.54853	11101.1375
3157.88318	11086.3375
3160.21642	11134.9375
3162.54826	11132.6375
3164.87868	11126.4375
3167.2077	11119.0375
3169.5353	11139.4375
3171.86151	11132.0375
3174.18631	11108.8375
3176.5097	11105.7375
3178.83169	11082.7375
3181.15228	11076.2375
3183.47147	11065.3375
3185.78926	11050.6375
3188.10565	11037.1375
3190.42065	11022.6375
3192.73424	11001.9375
3195.04645	11008.6375
3197.35725	10984.8375
3199.66667	10958.1375
3201.97469	10980.0375
3204.28132	10957.9375
3206.58656	10958.6375
3208.8904	10991.2375
3211.19287	10978.7375
3213.49394	10972.0375
3215.79363	10978.7375
3218.09193	10984.3375
3220.38884	10989.4375
3222.68438	10998.1375
3224.97853	10967.9375
3227.2713	10930.4375
3229.56269	10935.8375
3231.8527	10947.5375
3234.14133	10936.7375
3236.42858	10933.1375
3238.71446	10910.9375
3240.99896	10872.3375
3243.28209	10864.7375
3245.56384	10840.5375
3247.84423	10837.2375
3250.12324	10827.0375
3252.40088	10777.9375
3254.67715	10778.2375
3256.95205	10776.3375
3259.22558	10753.7375
3261.49775	10762.3375
3263.76855	10758.8375
3266.03799	10719.7375
3268.30606	10700.8375
3270.57277	10685.7375
3272.83812	10669.5375
3275.10211	10653.4375
3277.36474	10638.4375
3279.62601	10624.3375
3281.88593	10616.0375
3284.14448	10628.2375
3286.40168	10604.7375
3288.65753	10621.5375
3290.91202	10588.9375
3293.16516	10581.3375
3295.41695	10539.3375
3297.66738	10510.5375
3299.91647	10435.2375
3302.16421	10374.5375
3304.4106	10312.4375
3306.65564	10262.3375
3308.89933	10189.8375
3311.14169	10101.7375
3313.38269	9994.0375
3315.62236	9942.1375
3317.86068	9842.1375
3320.09766	9747.3375
3322.3333	9677.0375
3324.5676	9646.6375
3326.80056	9486.6375
3329.03219	9429.3375
3331.26248	2.7375
3333.49143	-1.3625
3335.71905	-0.2625
