Data from AgNPs_FTO_APTES_UA_5uM_CRN_1000uM_R6G_10uM_NaF_0.1M_Addition_RamanShift__32__18-01-11-904.txt Node

Date: Mon Feb 07 18:01:11 GMT 2022
User: TCL
Spectrometer: QEP01345
Trigger mode: 4
Integration Time (sec): 7.000000E0
Scans to average: 10
Electric dark correction enabled: true
Nonlinearity correction enabled: false
Boxcar width: 0
XAxis mode: Raman Shifts
Number of Pixels in Spectrum: 1044
>>>>>Begin Spectral Data<<<<<
46.04893	-1.3125
50.45542	-0.1125
54.85868	0.0875
59.25871	-0.8125
63.6555	29.7875
68.04907	30.1875
72.43941	34.1875
76.82654	35.1875
81.21044	36.2875
85.59113	36.0875
89.96862	43.9875
94.34289	39.6875
98.71396	43.5875
103.08183	43.2875
107.4465	48.1875
111.80798	46.1875
116.16626	44.8875
120.52136	50.8875
124.87327	49.8875
129.222	47.5875
133.56755	53.2875
137.90993	55.5875
142.24913	66.9875
146.58517	69.9875
150.91804	77.9875
155.24774	96.8875
159.57429	114.0875
163.89768	143.9875
168.21792	193.5875
172.53501	259.4875
176.84895	357.1875
181.15975	498.3875
185.46741	693.5875
189.77193	958.5875
194.07331	1298.3875
198.37157	1666.8875
202.6667	2055.5875
206.9587	2438.0875
211.24758	2848.4875
215.53334	3265.5875
219.81599	3741.0875
224.09553	4290.2875
228.37195	4899.6875
232.64527	5539.5875
236.91549	6199.0875
241.18261	6747.9875
245.44663	7204.2875
249.70755	7534.7875
253.96539	7810.9875
258.22014	8003.8875
262.4718	8188.1875
266.72039	8310.6875
270.96589	8374.0875
275.20832	8361.5875
279.44768	8232.8875
283.68397	8102.2875
287.91719	8063.8875
292.14735	8139.2875
296.37445	8398.4875
300.59849	8847.3875
304.81948	9402.2875
309.03742	9839.4875
313.25231	9829.8875
317.46415	9261.0875
321.67296	8363.4875
325.87872	7543.4875
330.08145	7164.1875
334.28114	7110.8875
338.47781	7293.7875
342.67145	7537.3875
346.86207	7987.2875
351.04966	8637.7875
355.23424	9389.5875
359.4158	9901.6875
363.59435	10045.8875
367.76989	10048.9875
371.94243	9944.0875
376.11196	9798.1875
380.27849	9649.9875
384.44203	9453.9875
388.60257	9241.9875
392.76012	9108.9875
396.91468	9191.0875
401.06626	9520.2875
405.21485	9769.3875
409.36047	9536.2875
413.50311	8882.5875
417.64277	8182.2875
421.77947	7810.5875
425.9132	7629.8875
430.04396	7583.4875
434.17176	7621.4875
438.2966	7707.6875
442.41849	7949.4875
446.53742	8197.0875
450.6534	8450.1875
454.76644	8609.2875
458.87653	8572.3875
462.98368	8479.2875
467.08789	8305.6875
471.18916	8111.8875
475.2875	7879.7875
479.38291	7680.8875
483.4754	7498.8875
487.56496	7385.7875
491.6516	7256.0875
495.73531	7219.3875
499.81612	7274.4875
503.89401	7403.2875
507.96899	7551.2875
512.04106	7711.1875
516.11023	7895.3875
520.1765	8032.3875
524.23987	8005.4875
528.30034	7807.8875
532.35792	7559.9875
536.41261	7333.9875
540.46441	7093.7875
544.51333	6950.2875
548.55936	7003.7875
552.60252	7207.6875
556.64279	7511.3875
560.6802	7694.6875
564.71473	7926.8875
568.7464	8477.6875
572.7752	8805.9875
576.80114	8398.3875
580.82422	7812.9875
584.84444	7536.2875
588.86181	7454.4875
592.87633	7482.7875
596.888	7591.8875
600.89682	7874.9875
604.9028	9044.2875
608.90594	12514.1875
612.90624	17523.6875
616.90371	17131.0875
620.89834	10823.6875
624.89015	7774.0875
628.87913	7166.5875
632.86528	7236.6875
636.84862	7444.1875
640.82913	7329.8875
644.80683	6906.4875
648.78172	6594.7875
652.75379	6612.3875
656.72306	7020.1875
660.68952	7577.7875
664.65319	7498.4875
668.61405	6934.6875
672.57211	6657.4875
676.52738	6671.8875
680.47986	6653.6875
684.42955	6573.9875
688.37646	6508.5875
692.32058	6528.9875
696.26192	6605.9875
700.20048	6721.8875
704.13626	6820.0875
708.06928	6824.0875
711.99952	6689.6875
715.927	6642.4875
719.85171	6662.1875
723.77365	6652.8875
727.69284	6561.9875
731.60928	6486.0875
735.52295	6462.4875
739.43388	6470.6875
743.34206	6495.4875
747.24749	6505.0875
751.15017	6579.3875
755.05012	6722.6875
758.94733	7199.6875
762.8418	8357.1875
766.73354	10380.2875
770.62254	12508.5875
774.50882	13701.7875
778.39237	13156.8875
782.27321	10984.7875
786.15132	8698.8875
790.02671	7369.1875
793.89938	6831.7875
797.76935	6584.3875
801.6366	6470.3875
805.50115	6412.3875
809.36299	6350.2875
813.22213	6300.1875
817.07857	6269.0875
820.93231	6295.5875
824.78336	6316.0875
828.63172	6373.7875
832.47738	6404.7875
836.32036	6374.6875
840.16066	6280.2875
843.99827	6215.0875
847.8332	6177.9875
851.66546	6150.3875
855.49504	6169.3875
859.32195	6143.0875
863.1462	6094.4875
866.96777	6070.7875
870.78668	6054.7875
874.60293	6066.7875
878.41652	6089.3875
882.22745	6159.5875
886.03573	6203.9875
889.84136	6169.8875
893.64433	6109.4875
897.44466	6112.8875
901.24235	6098.2875
905.0374	6069.1875
908.8298	6020.0875
912.61957	5998.7875
916.40671	6032.6875
920.19121	6101.4875
923.97308	6186.3875
927.75233	6292.5875
931.52895	6412.0875
935.30295	6328.1875
939.07433	6053.4875
942.84309	5797.0875
946.60924	5647.5875
950.37278	5561.3875
954.13371	5507.1875
957.89203	5482.6875
961.64774	5469.6875
965.40086	5435.8875
969.15137	5412.4875
972.89929	5383.9875
976.64461	5381.1875
980.38733	5390.6875
984.12747	5391.5875
987.86502	5400.5875
991.59999	5421.9875
995.33237	5480.6875
999.06217	5598.9875
1002.78939	5743.6875
1006.51404	5887.2875
1010.23611	6065.1875
1013.95561	6167.6875
1017.67255	6118.3875
1021.38692	6003.8875
1025.09872	5857.8875
1028.80796	5773.9875
1032.51465	5755.4875
1036.21877	5837.9875
1039.92035	5939.4875
1043.61937	6008.0875
1047.31584	6061.8875
1051.00976	6068.5875
1054.70114	6053.4875
1058.38998	6038.2875
1062.07627	6071.8875
1065.76003	6114.9875
1069.44126	6147.5875
1073.11995	6239.4875
1076.79611	6382.4875
1080.46974	6571.4875
1084.14085	6805.5875
1087.80943	7116.4875
1091.47549	7232.1875
1095.13903	7026.9875
1098.80005	6698.0875
1102.45857	6386.9875
1106.11456	6259.8875
1109.76805	6312.5875
1113.41903	6518.6875
1117.06751	6872.5875
1120.71348	7352.9875
1124.35696	7894.2875
1127.99793	8341.8875
1131.63641	8262.1875
1135.2724	7625.8875
1138.90589	7025.8875
1142.5369	6707.9875
1146.16542	6518.3875
1149.79145	6404.5875
1153.415	6403.3875
1157.03607	6471.4875
1160.65467	6670.2875
1164.27079	6995.1875
1167.88443	7528.8875
1171.49561	8390.1875
1175.10432	9883.7875
1178.71056	11852.7875
1182.31434	13016.8875
1185.91565	13012.7875
1189.51451	12396.2875
1193.11091	11412.5875
1196.70485	10349.8875
1200.29634	9595.9875
1203.88538	9019.5875
1207.47197	8301.6875
1211.05612	7641.3875
1214.63782	7331.4875
1218.21708	7228.5875
1221.79391	7232.1875
1225.36829	7229.9875
1228.94024	7266.5875
1232.50976	7258.7875
1236.07685	7246.8875
1239.6415	7249.4875
1243.20374	7281.9875
1246.76355	7345.3875
1250.32093	7445.1875
1253.8759	7603.7875
1257.42845	7850.7875
1260.97859	8181.3875
1264.52631	8533.9875
1268.07163	8873.8875
1271.61453	9147.3875
1275.15503	9319.9875
1278.69312	9294.7875
1282.22882	9293.9875
1285.76211	9544.9875
1289.29301	9953.7875
1292.82151	10409.9875
1296.34761	10881.6875
1299.87133	11600.0875
1303.39266	12835.6875
1306.9116	14819.3875
1310.42815	17061.8875
1313.94233	18341.0875
1317.45412	17804.0875
1320.96354	16117.9875
1324.47058	14297.9875
1327.97525	12806.4875
1331.47754	11871.3875
1334.97747	11478.9875
1338.47502	11506.0875
1341.97022	11888.4875
1345.46305	12594.2875
1348.95352	13690.2875
1352.44163	15190.2875
1355.92738	17295.5875
1359.41078	20543.9875
1362.89183	23564.9875
1366.37053	22619.5875
1369.84688	18456.8875
1373.32088	14526.0875
1376.79254	12066.2875
1380.26186	10800.2875
1383.72883	10112.6875
1387.19347	9649.7875
1390.65578	9171.7875
1394.11575	8778.2875
1397.57339	8610.5875
1401.0287	8621.4875
1404.48168	8651.2875
1407.93234	8695.9875
1411.38068	8734.7875
1414.82669	8663.8875
1418.27039	8481.5875
1421.71177	8291.7875
1425.15083	8091.7875
1428.58758	7937.0875
1432.02203	7972.5875
1435.45416	8079.1875
1438.88399	8125.4875
1442.31151	8127.1875
1445.73673	8162.7875
1449.15965	8226.5875
1452.58027	8260.2875
1455.9986	8187.2875
1459.41463	8169.3875
1462.82837	8306.2875
1466.23982	8531.1875
1469.64898	8761.7875
1473.05586	8923.4875
1476.46045	9020.5875
1479.86276	9216.1875
1483.26279	9469.2875
1486.66054	9797.7875
1490.05602	10213.8875
1493.44922	10834.8875
1496.84016	11865.7875
1500.22882	13561.6875
1503.61521	15792.3875
1506.99934	18338.7875
1510.38121	20819.0875
1513.76081	22113.4875
1517.13816	20881.9875
1520.51324	17645.1875
1523.88607	14413.3875
1527.25665	12307.1875
1530.62498	11120.7875
1533.99105	10460.0875
1537.35488	10026.6875
1540.71647	9765.0875
1544.07581	9618.6875
1547.4329	9539.2875
1550.78776	9494.6875
1554.14038	9495.9875
1557.49077	9614.4875
1560.83892	9858.9875
1564.18484	10304.7875
1567.52853	10830.4875
1570.86999	11217.8875
1574.20922	11444.6875
1577.54624	11320.8875
1580.88103	10550.8875
1584.2136	9470.0875
1587.54395	8866.3875
1590.87208	8831.8875
1594.19801	9344.1875
1597.52172	10166.2875
1600.84321	10543.5875
1604.16251	10099.3875
1607.47959	9351.0875
1610.79447	8505.8875
1614.10715	7706.0875
1617.41763	7057.9875
1620.7259	6669.6875
1624.03199	6465.7875
1627.33587	6476.3875
1630.63757	6598.0875
1633.93707	6950.6875
1637.23439	7572.9875
1640.52951	8583.0875
1643.82246	10138.6875
1647.11321	12135.0875
1650.40179	13713.1875
1653.68819	13471.5875
1656.97241	11416.9875
1660.25446	8996.2875
1663.53433	7288.3875
1666.81203	6304.3875
1670.08756	5744.0875
1673.36092	5430.6875
1676.63211	5255.9875
1679.90115	5091.2875
1683.16801	4987.7875
1686.43272	4902.8875
1689.69527	4819.2875
1692.95567	4779.1875
1696.2139	4729.7875
1699.46999	4694.9875
1702.72392	4664.9875
1705.97571	4660.3875
1709.22535	4669.3875
1712.47284	4680.1875
1715.71819	4685.0875
1718.96139	4706.6875
1722.20246	4693.9875
1725.44139	4654.7875
1728.67818	4606.6875
1731.91284	4563.4875
1735.14537	4501.6875
1738.37576	4458.2875
1741.60403	4427.2875
1744.83017	4409.8875
1748.05418	4398.0875
1751.27607	4370.9875
1754.49584	4351.9875
1757.71349	4324.4875
1760.92903	4326.1875
1764.14244	4316.8875
1767.35375	4292.3875
1770.56294	4266.6875
1773.77002	4245.8875
1776.97499	4211.5875
1780.17785	4194.3875
1783.37861	4188.4875
1786.57727	4176.6875
1789.77382	4167.3875
1792.96828	4154.6875
1796.16064	4129.0875
1799.3509	4129.8875
1802.53907	4115.5875
1805.72514	4096.7875
1808.90913	4088.3875
1812.09102	4059.2875
1815.27083	4040.9875
1818.44856	4025.3875
1821.6242	4022.7875
1824.79776	3997.7875
1827.96924	4004.3875
1831.13864	3999.3875
1834.30597	3990.3875
1837.47122	3969.7875
1840.6344	3966.1875
1843.7955	3959.7875
1846.95454	3946.8875
1850.11151	3944.1875
1853.26642	3928.0875
1856.41926	3932.3875
1859.57004	3927.2875
1862.71876	3934.9875
1865.86542	3920.3875
1869.01003	3943.3875
1872.15258	3918.8875
1875.29308	3919.0875
1878.43152	3920.6875
1881.56792	3909.8875
1884.70227	3900.4875
1887.83457	3914.1875
1890.96482	3896.6875
1894.09304	3896.2875
1897.21921	3901.3875
1900.34335	3888.7875
1903.46544	3895.7875
1906.58551	3896.2875
1909.70353	3898.3875
1912.81953	3877.3875
1915.93349	3880.7875
1919.04543	3877.1875
1922.15534	3878.5875
1925.26322	3856.9875
1928.36908	3836.0875
1931.47292	3837.0875
1934.57473	3805.6875
1937.67453	3801.6875
1940.77232	3767.3875
1943.86808	3743.5875
1946.96184	3742.8875
1950.05358	3713.7875
1953.14331	3704.3875
1956.23103	3688.3875
1959.31675	3654.8875
1962.40046	3672.6875
1965.48217	3663.3875
1968.56188	3654.7875
1971.63959	3643.7875
1974.7153	3630.6875
1977.78901	3618.5875
1980.86073	3593.5875
1983.93046	3571.8875
1986.99819	3571.4875
1990.06394	3565.5875
1993.1277	3552.1875
1996.18947	3516.1875
1999.24925	3520.0875
2002.30706	3503.7875
2005.36288	3479.5875
2008.41672	3475.5875
2011.46859	3453.7875
2014.51848	3451.0875
2017.56639	3436.8875
2020.61233	3430.8875
2023.6563	3412.2875
2026.6983	3400.0875
2029.73833	3385.3875
2032.7764	3379.5875
2035.8125	3375.1875
2038.84664	3359.5875
2041.87881	3352.4875
2044.90903	3341.9875
2047.93729	3334.1875
2050.96359	3345.7875
2053.98794	3330.4875
2057.01034	3315.3875
2060.03078	3317.1875
2063.04927	3322.3875
2066.06582	3309.6875
2069.08042	3308.6875
2072.09307	3305.5875
2075.10378	3290.7875
2078.11255	3291.2875
2081.11938	3277.8875
2084.12426	3294.1875
2087.12722	3280.6875
2090.12824	3274.1875
2093.12732	3276.3875
2096.12447	3280.2875
2099.11969	3271.4875
2102.11299	3254.3875
2105.10435	3268.5875
2108.09379	3259.9875
2111.08131	3265.8875
2114.0669	3267.9875
2117.05057	3270.7875
2120.03233	3264.2875
2123.01216	3293.5875
2125.99008	3281.0875
2128.96609	3264.9875
2131.94018	3280.1875
2134.91236	3284.5875
2137.88263	3290.7875
2140.851	3290.2875
2143.81746	3279.0875
2146.78201	3273.2875
2149.74466	3256.0875
2152.7054	3259.2875
2155.66425	3242.5875
2158.6212	3238.3875
2161.57625	3241.7875
2164.52941	3223.8875
2167.48067	3225.7875
2170.43004	3222.1875
2173.37752	3219.0875
2176.32311	3233.4875
2179.26681	3218.8875
2182.20863	3228.9875
2185.14856	3213.1875
2188.08661	3220.7875
2191.02278	3221.4875
2193.95707	3197.0875
2196.88948	3192.2875
2199.82001	3171.8875
2202.74867	3194.7875
2205.67545	3174.8875
2208.60037	3179.3875
2211.52341	3176.9875
2214.44458	3166.6875
2217.36388	3154.0875
2220.28132	3149.9875
2223.1969	3127.4875
2226.11061	3118.2875
2229.02246	3105.5875
2231.93245	3108.0875
2234.84058	3102.6875
2237.74686	3088.4875
2240.65128	3090.2875
2243.55385	3079.5875
2246.45456	3103.8875
2249.35343	3069.4875
2252.25044	3081.4875
2255.14561	3092.2875
2258.03893	3069.1875
2260.93041	3065.5875
2263.82004	3058.9875
2266.70783	3066.1875
2269.59378	3060.5875
2272.4779	3050.3875
2275.36017	3039.6875
2278.24061	3018.2875
2281.11922	3029.8875
2283.996	3017.6875
2286.87094	3003.3875
2289.74405	2987.6875
2292.61534	2982.4875
2295.4848	2982.3875
2298.35243	2978.8875
2301.21824	2961.6875
2304.08223	2961.3875
2306.94439	2977.2875
2309.80474	2969.1875
2312.66327	2955.9875
2315.51999	2961.1875
2318.37489	2951.6875
2321.22797	2937.7875
2324.07925	2935.5875
2326.92871	2935.7875
2329.77637	2936.2875
2332.62222	2924.6875
2335.46626	2931.0875
2338.3085	2912.6875
2341.14893	2920.4875
2343.98756	2914.3875
2346.8244	2911.4875
2349.65943	2918.4875
2352.49267	2926.6875
2355.32411	2945.9875
2358.15376	2948.0875
2360.98161	2951.9875
2363.80768	2960.4875
2366.63195	2972.6875
2369.45444	2986.0875
2372.27514	2973.0875
2375.09405	2957.0875
2377.91118	2941.0875
2380.72652	2928.9875
2383.54009	2907.3875
2386.35187	2898.9875
2389.16188	2869.6875
2391.97011	2861.1875
2394.77657	2852.0875
2397.58125	2838.6875
2400.38416	2840.1875
2403.18529	2822.4875
2405.98466	2814.6875
2408.78226	2802.8875
2411.57809	2805.8875
2414.37216	2796.2875
2417.16446	2799.9875
2419.955	2797.1875
2422.74378	2787.8875
2425.5308	2794.9875
2428.31606	2791.7875
2431.09956	2773.4875
2433.88131	2785.4875
2436.6613	2786.6875
2439.43954	2786.5875
2442.21603	2789.4875
2444.99077	2795.8875
2447.76377	2782.1875
2450.53501	2789.3875
2453.30451	2789.2875
2456.07226	2791.8875
2458.83827	2792.8875
2461.60254	2783.0875
2464.36507	2789.6875
2467.12586	2787.0875
2469.88492	2787.0875
2472.64224	2792.6875
2475.39782	2774.0875
2478.15167	2782.1875
2480.90379	2788.0875
2483.65417	2804.6875
2486.40283	2819.7875
2489.14976	2820.3875
2491.89497	2835.9875
2494.63845	2826.4875
2497.3802	2827.6875
2500.12024	2822.0875
2502.85855	2811.1875
2505.59514	2790.5875
2508.33002	2770.4875
2511.06318	2766.6875
2513.79462	2745.1875
2516.52435	2736.0875
2519.25237	2720.0875
2521.97867	2704.4875
2524.70327	2686.4875
2527.42616	2680.6875
2530.14734	2680.0875
2532.86681	2695.1875
2535.58458	2681.7875
2538.30065	2671.8875
2541.01501	2676.5875
2543.72768	2664.3875
2546.43864	2664.6875
2549.14791	2659.8875
2551.85548	2671.4875
2554.56136	2673.2875
2557.26554	2663.1875
2559.96803	2663.5875
2562.66883	2650.4875
2565.36794	2659.6875
2568.06536	2660.1875
2570.7611	2644.0875
2573.45514	2638.6875
2576.14751	2636.5875
2578.83819	2626.6875
2581.52719	2599.9875
2584.21451	2611.2875
2586.90015	2615.8875
2589.58411	2602.2875
2592.2664	2606.9875
2594.94701	2604.7875
2597.62594	2592.0875
2600.30321	2587.8875
2602.9788	2588.8875
2605.65273	2590.4875
2608.32498	2586.8875
2610.99557	2595.2875
2613.66449	2586.9875
2616.33175	2583.5875
2618.99734	2588.3875
2621.66128	2578.2875
2624.32355	2562.4875
2626.98416	2569.7875
2629.64311	2563.7875
2632.30041	2550.9875
2634.95605	2548.0875
2637.61004	2537.7875
2640.26238	2532.8875
2642.91306	2528.4875
2645.56209	2520.8875
2648.20948	2529.2875
2650.85521	2538.5875
2653.4993	2531.7875
2656.14175	2523.7875
2658.78255	2536.0875
2661.42171	2536.8875
2664.05923	2539.3875
2666.6951	2545.1875
2669.32934	2550.0875
2671.96194	2552.2875
2674.59291	2547.9875
2677.22224	2555.1875
2679.84993	2540.3875
2682.476	2543.8875
2685.10043	2557.0875
2687.72324	2540.3875
2690.34441	2547.2875
2692.96396	2540.4875
2695.58188	2549.3875
2698.19818	2544.0875
2700.81285	2558.4875
2703.4259	2548.2875
2706.03733	2547.9875
2708.64714	2550.8875
2711.25533	2558.2875
2713.86191	2558.1875
2716.46687	2576.8875
2719.07021	2566.7875
2721.67194	2578.6875
2724.27206	2564.7875
2726.87057	2568.3875
2729.46747	2566.7875
2732.06276	2555.2875
2734.65644	2560.9875
2737.24852	2548.8875
2739.83899	2535.2875
2742.42786	2535.0875
2745.01513	2516.4875
2747.60079	2532.7875
2750.18486	2514.3875
2752.76733	2504.0875
2755.3482	2506.5875
2757.92747	2511.8875
2760.50515	2498.7875
2763.08123	2487.6875
2765.65573	2483.2875
2768.22863	2487.6875
2770.79994	2482.6875
2773.36967	2482.4875
2775.9378	2471.5875
2778.50435	2479.5875
2781.06932	2482.8875
2783.6327	2475.1875
2786.1945	2487.6875
2788.75471	2487.0875
2791.31335	2491.2875
2793.87041	2487.5875
2796.42589	2484.2875
2798.97979	2501.4875
2801.53212	2485.6875
2804.08288	2499.0875
2806.63206	2488.2875
2809.17967	2492.2875
2811.72571	2497.4875
2814.27018	2505.8875
2816.81308	2507.8875
2819.35442	2525.6875
2821.89419	2503.4875
2824.43239	2530.6875
2826.96904	2545.9875
2829.50412	2545.5875
2832.03763	2530.9875
2834.56959	2560.3875
2837.1	2565.7875
2839.62884	2583.4875
2842.15613	2629.9875
2844.68186	2691.7875
2847.20604	2754.9875
2849.72867	2806.9875
2852.24974	2834.8875
2854.76927	2827.1875
2857.28724	2816.1875
2859.80367	2800.8875
2862.31855	2781.7875
2864.83189	2761.3875
2867.34368	2763.5875
2869.85393	2754.0875
2872.36264	2742.7875
2874.8698	2756.1875
2877.37543	2766.8875
2879.87952	2746.7875
2882.38207	2745.4875
2884.88308	2732.2875
2887.38256	2739.0875
2889.88051	2734.4875
2892.37692	2740.7875
2894.8718	2756.3875
2897.36515	2736.1875
2899.85698	2743.5875
2902.34727	2762.5875
2904.83604	2748.9875
2907.32328	2754.4875
2909.809	2746.1875
2912.29319	2750.3875
2914.77587	2737.0875
2917.25702	2742.5875
2919.73665	2734.6875
2922.21476	2740.0875
2924.69136	2724.2875
2927.16644	2722.7875
2929.64	2710.8875
2932.11205	2695.2875
2934.58258	2678.9875
2937.05161	2669.2875
2939.51912	2653.8875
2941.98513	2622.3875
2944.44962	2588.9875
2946.91261	2546.4875
2949.37409	2533.8875
2951.83407	2511.0875
2954.29254	2496.4875
2956.74951	2477.2875
2959.20498	2471.3875
2961.65895	2451.0875
2964.11142	2439.4875
2966.56239	2419.7875
2969.01186	2424.1875
2971.45984	2411.7875
2973.90632	2394.8875
2976.35131	2385.8875
2978.7948	2372.1875
2981.23681	2361.9875
2983.67732	2352.8875
2986.11635	2336.6875
2988.55388	2337.1875
2990.98993	2334.6875
2993.4245	2328.8875
2995.85758	2316.4875
2998.28917	2317.9875
3000.71928	2313.0875
3003.14791	2308.9875
3005.57506	2310.3875
3008.00073	2305.3875
3010.42493	2393.6875
3012.84764	2294.0875
3015.26888	2300.1875
3017.68865	2280.8875
3020.10694	2280.1875
3022.52376	2287.4875
3024.9391	2274.8875
3027.35298	2272.1875
3029.76539	2271.8875
3032.17632	2265.4875
3034.5858	2256.0875
3036.9938	2257.1875
3039.40034	2249.1875
3041.80542	2254.1875
3044.20903	2230.1875
3046.61118	2252.1875
3049.01187	2236.3875
3051.4111	2235.6875
3053.80888	2233.4875
3056.20519	2227.5875
3058.60005	2226.1875
3060.99345	2220.6875
3063.3854	2228.2875
3065.7759	2215.2875
3068.16494	2221.9875
3070.55254	2223.6875
3072.93868	2197.9875
3075.32338	2206.8875
3077.70662	2193.7875
3080.08842	2184.5875
3082.46878	2189.8875
3084.84769	2172.8875
3087.22515	2175.5875
3089.60118	2179.0875
3091.97576	2156.4875
3094.3489	2163.1875
3096.72061	2175.2875
3099.09087	2163.8875
3101.4597	2179.0875
3103.82709	2174.8875
3106.19305	2166.5875
3108.55757	2167.9875
3110.92066	2157.1875
3113.28232	2160.7875
3115.64255	2164.9875
3118.00134	2151.6875
3120.35871	2149.3875
3122.71466	2147.0875
3125.06917	2148.8875
3127.42226	2144.2875
3129.77393	2155.6875
3132.12417	2148.4875
3134.47299	2173.1875
3136.82039	2165.8875
3139.16636	2172.3875
3141.51092	2166.9875
3143.85406	2178.0875
3146.19579	2171.2875
3148.53609	2179.9875
3150.87499	2198.0875
3153.21246	2193.1875
3155.54853	2194.8875
3157.88318	2203.9875
3160.21642	2207.1875
3162.54826	2213.7875
3164.87868	2221.2875
3167.2077	2226.9875
3169.5353	2216.8875
3171.86151	2217.2875
3174.18631	2231.1875
3176.5097	2219.7875
3178.83169	2228.5875
3181.15228	2244.1875
3183.47147	2232.3875
3185.78926	2230.1875
3188.10565	2230.7875
3190.42065	2227.0875
3192.73424	2241.0875
3195.04645	2241.6875
3197.35725	2252.9875
3199.66667	2246.0875
3201.97469	2250.0875
3204.28132	2245.1875
3206.58656	2268.5875
3208.8904	2263.0875
3211.19287	2255.7875
3213.49394	2269.9875
3215.79363	2281.3875
3218.09193	2269.3875
3220.38884	2264.9875
3222.68438	2274.1875
3224.97853	2272.5875
3227.2713	2279.3875
3229.56269	2272.4875
3231.8527	2275.8875
3234.14133	2267.2875
3236.42858	2267.6875
3238.71446	2272.6875
3240.99896	2261.5875
3243.28209	2260.5875
3245.56384	2257.7875
3247.84423	2265.5875
3250.12324	2261.5875
3252.40088	2257.0875
3254.67715	2248.6875
3256.95205	2242.3875
3259.22558	2252.0875
3261.49775	2246.9875
3263.76855	2239.8875
3266.03799	2231.2875
3268.30606	2228.6875
3270.57277	2238.6875
3272.83812	2227.4875
3275.10211	2231.4875
3277.36474	2215.2875
3279.62601	2225.2875
3281.88593	2225.1875
3284.14448	2220.5875
3286.40168	2221.2875
3288.65753	2233.1875
3290.91202	2230.0875
3293.16516	2221.4875
3295.41695	2210.0875
3297.66738	2199.5875
3299.91647	2187.5875
3302.16421	2167.6875
3304.4106	2152.3875
3306.65564	2151.4875
3308.89933	2132.0875
3311.14169	2116.5875
3313.38269	2098.2875
3315.62236	2089.1875
3317.86068	2064.2875
3320.09766	2056.3875
3322.3333	2043.7875
3324.5676	2026.5875
3326.80056	1997.5875
3329.03219	1982.9875
3331.26248	0.3875
3333.49143	1.0875
3335.71905	-0.1125
