Data from AgNPs_FTO_APTES_UA_5uM_CRN_2uM_R6G_10uM_NaF_0.1M_Addition_RamanShift__6__11-03-56-617.txt Node

Date: Mon Feb 07 11:03:56 GMT 2022
User: TCL
Spectrometer: QEP01345
Trigger mode: 4
Integration Time (sec): 7.000000E0
Scans to average: 10
Electric dark correction enabled: true
Nonlinearity correction enabled: false
Boxcar width: 0
XAxis mode: Raman Shifts
Number of Pixels in Spectrum: 1044
>>>>>Begin Spectral Data<<<<<
46.04893	0.4
50.45542	-1.9
54.85868	-0.8
59.25871	-0.7
63.6555	108
68.04907	111.6
72.43941	118
76.82654	122.8
81.21044	123.8
85.59113	130.6
89.96862	139.2
94.34289	137.8
98.71396	140.3
103.08183	145.5
107.4465	150.5
111.80798	154.4
116.16626	161.5
120.52136	168
124.87327	173.5
129.222	186.5
133.56755	197.8
137.90993	215.1
142.24913	243.3
146.58517	272.7
150.91804	314.2
155.24774	383.3
159.57429	481.1
163.89768	616.8
168.21792	831.7
172.53501	1141
176.84895	1587.5
181.15975	2228.7
185.46741	3123
189.77193	4302.5
194.07331	5749.5
198.37157	7398
202.6667	9134
206.9587	10836
211.24758	12537.9
215.53334	14285.6
219.81599	16091.1
224.09553	18149.7
228.37195	20399.6
232.64527	22818.8
236.91549	25319.5
241.18261	27771.1
245.44663	30050
249.70755	32072.4
253.96539	33822
258.22014	35285.4
262.4718	36502.3
266.72039	37327.4
270.96589	37739.2
275.20832	37683.9
279.44768	37367.7
283.68397	37015.8
287.91719	36728.7
292.14735	36539
296.37445	36495.9
300.59849	36550.8
304.81948	36891.9
309.03742	36945.3
313.25231	36864
317.46415	36453.5
321.67296	35740.1
325.87872	35136.2
330.08145	34777.5
334.28114	34642.5
338.47781	34781.8
342.67145	35173.8
346.86207	35691.3
351.04966	36343.1
355.23424	37086.1
359.4158	37721.2
363.59435	38308
367.76989	38588.4
371.94243	38744.6
376.11196	38833.2
380.27849	38821.3
384.44203	38995.2
388.60257	39355.3
392.76012	39856.6
396.91468	40452.6
401.06626	41247.5
405.21485	41691.1
409.36047	41585
413.50311	41351.8
417.64277	41546.1
421.77947	42092.4
425.9132	42475.6
430.04396	42756.2
434.17176	42900.9
438.2966	42929.8
442.41849	43384.1
446.53742	44696.1
450.6534	46252.8
454.76644	47163.3
458.87653	47281.6
462.98368	46639
467.08789	45672.2
471.18916	44614.2
475.2875	43507.8
479.38291	42898.4
483.4754	42550.1
487.56496	42218.8
491.6516	41702.7
495.73531	41142.8
499.81612	40826.5
503.89401	41040.8
507.96899	41371
512.04106	41232.1
516.11023	40707.4
520.1765	39944.1
524.23987	39377.2
528.30034	38945.1
532.35792	38490.5
536.41261	37848.4
540.46441	37229.3
544.51333	37095.5
548.55936	37451.6
552.60252	38401
556.64279	39719.2
560.6802	40711.8
564.71473	41389.9
568.7464	42360.4
572.7752	44175.2
576.80114	46452.1
580.82422	49163.9
584.84444	52895.8
588.86181	57665.8
592.87633	61523.3
596.888	60577.9
600.89682	55019
604.9028	51382
608.90594	52763.7
612.90624	54965.7
616.90371	51111
620.89834	43150.1
624.89015	39653
628.87913	39274
632.86528	39443.7
636.84862	38978.5
640.82913	37881.2
644.80683	36693.9
648.78172	36195.3
652.75379	36376.2
656.72306	36879
660.68952	37288.6
664.65319	36901.5
668.61405	36054.3
672.57211	36027
676.52738	36283.1
680.47986	36279.9
684.42955	35764.1
688.37646	35543.2
692.32058	35982.4
696.26192	36850.3
700.20048	37748.7
704.13626	38258.6
708.06928	38286.7
711.99952	38147.6
715.927	38276
719.85171	38558
723.77365	38291.7
727.69284	37313.1
731.60928	36442.7
735.52295	36117.9
739.43388	36121.4
743.34206	36317.9
747.24749	36698.9
751.15017	37225.7
755.05012	38080.1
758.94733	39419.8
762.8418	41402
766.73354	44119.8
770.62254	46414.1
774.50882	46227.3
778.39237	43798.4
782.27321	40862.5
786.15132	38449.5
790.02671	36950.5
793.89938	36306.7
797.76935	36155.1
801.6366	36143.1
805.50115	36143.2
809.36299	35967.9
813.22213	35525.1
817.07857	35221.9
820.93231	34930.8
824.78336	34619.4
828.63172	34357.1
832.47738	34273.2
836.32036	34315.4
840.16066	34470.2
843.99827	34665.3
847.8332	34598.7
851.66546	34528.1
855.49504	34516.8
859.32195	34471.4
863.1462	34341.9
866.96777	34172.7
870.78668	34056.4
874.60293	34057.1
878.41652	34017.5
882.22745	34203.2
886.03573	34367.5
889.84136	34304.7
893.64433	34098.5
897.44466	33980.2
901.24235	33853.6
905.0374	33734.2
908.8298	33674.6
912.61957	33818.8
916.40671	34250.8
920.19121	35034.4
923.97308	35822.1
927.75233	36126.6
931.52895	35656.8
935.30295	34692.6
939.07433	33806.4
942.84309	33188.4
946.60924	32981.4
950.37278	32921.8
954.13371	32934.9
957.89203	32900.1
961.64774	32877.4
965.40086	32969.8
969.15137	32993.3
972.89929	32758.7
976.64461	32698.1
980.38733	32759.6
984.12747	32852.4
987.86502	33074.1
991.59999	33388.1
995.33237	33956.8
999.06217	34919.2
1002.78939	36243.4
1006.51404	37430.3
1010.23611	38366.4
1013.95561	38845.1
1017.67255	38867.5
1021.38692	38093.6
1025.09872	37127.3
1028.80796	36913.3
1032.51465	37672.3
1036.21877	38661.2
1039.92035	39010.1
1043.61937	38744.1
1047.31584	38016.9
1051.00976	37140.6
1054.70114	36730.6
1058.38998	36737.1
1062.07627	36922.5
1065.76003	37352.8
1069.44126	37955.5
1073.11995	38841.7
1076.79611	39646.4
1080.46974	39956.6
1084.14085	40309.2
1087.80943	40920.9
1091.47549	41453.6
1095.13903	41492.6
1098.80005	40652.6
1102.45857	39275.7
1106.11456	38169.3
1109.76805	37717.7
1113.41903	37634.5
1117.06751	37705.4
1120.71348	38069
1124.35696	38414.1
1127.99793	38927
1131.63641	39363.8
1135.2724	39545.4
1138.90589	39604.2
1142.5369	39963.9
1146.16542	40550.4
1149.79145	41155.2
1153.415	41746.1
1157.03607	42791.7
1160.65467	44818.2
1164.27079	47957.3
1167.88443	51422.4
1171.49561	54580.7
1175.10432	58013
1178.71056	62636.1
1182.31434	67195.1
1185.91565	69128.3
1189.51451	67972.5
1193.11091	65375.4
1196.70485	62915.8
1200.29634	60661.4
1203.88538	59751.7
1207.47197	59785.5
1211.05612	59983.8
1214.63782	58897.3
1218.21708	56907.6
1221.79391	54621.5
1225.36829	52959.2
1228.94024	51799.7
1232.50976	50506.7
1236.07685	49239.2
1239.6415	48386
1243.20374	48189.5
1246.76355	48741.9
1250.32093	49869.7
1253.8759	51387.7
1257.42845	53208.5
1260.97859	55186.8
1264.52631	57292.8
1268.07163	59520.2
1271.61453	61844.2
1275.15503	64313.2
1278.69312	67136.2
1282.22882	70268.2
1285.76211	73925.9
1289.29301	78132.9
1292.82151	82710.9
1296.34761	88434.1
1299.87133	95375.4
1303.39266	102404.3
1306.9116	108249.3
1310.42815	111530.9
1313.94233	112113.6
1317.45412	109938.5
1320.96354	106777.3
1324.47058	104533.5
1327.97525	103390.6
1331.47754	102714
1334.97747	101524.2
1338.47502	99128.9
1341.97022	95609.8
1345.46305	91934.9
1348.95352	89297.9
1352.44163	89416.6
1355.92738	93069.1
1359.41078	98980.3
1362.89183	103678.2
1366.37053	103241.6
1369.84688	95736.8
1373.32088	83813.8
1376.79254	74880.6
1380.26186	72133.8
1383.72883	72968.5
1387.19347	73383.3
1390.65578	72256.2
1394.11575	71801.4
1397.57339	73183.8
1401.0287	75747.8
1404.48168	78046.7
1407.93234	78556.3
1411.38068	76665.7
1414.82669	73070.5
1418.27039	68928.2
1421.71177	64851.1
1425.15083	61794.5
1428.58758	60578.2
1432.02203	61731.1
1435.45416	64635.3
1438.88399	67632.9
1442.31151	69581.1
1445.73673	70497.6
1449.15965	70713.2
1452.58027	70239.7
1455.9986	69307.7
1459.41463	69085.5
1462.82837	70148.5
1466.23982	72081.5
1469.64898	74077.3
1473.05586	75289.1
1476.46045	75637.7
1479.86276	75003
1483.26279	73960.5
1486.66054	73327.4
1490.05602	73436.3
1493.44922	73736.6
1496.84016	73883.9
1500.22882	73827.4
1503.61521	73973.4
1506.99934	74564.2
1510.38121	75116.8
1513.76081	75130.9
1517.13816	74366.4
1520.51324	73791
1523.88607	73997.3
1527.25665	75186.2
1530.62498	76267.3
1533.99105	76233
1537.35488	74843.5
1540.71647	72493.6
1544.07581	69697.1
1547.4329	66791.8
1550.78776	64305.5
1554.14038	62416.7
1557.49077	61117.7
1560.83892	60140.4
1564.18484	59611.3
1567.52853	59459.9
1570.86999	59962.3
1574.20922	61491.8
1577.54624	63144.8
1580.88103	64427.6
1584.2136	66718.6
1587.54395	71269.2
1590.87208	77918.9
1594.19801	85466.3
1597.52172	91485.2
1600.84321	92009.7
1604.16251	85428
1607.47959	74936.2
1610.79447	64825.1
1614.10715	56838.2
1617.41763	51151.1
1620.7259	47801.3
1624.03199	46576.5
1627.33587	47110.8
1630.63757	49510.4
1633.93707	54421.1
1637.23439	62454.3
1640.52951	74500.3
1643.82246	89102.2
1647.11321	100354.5
1650.40179	100907.3
1653.68819	89401.5
1656.97241	72863.9
1660.25446	58513.3
1663.53433	48663.2
1666.81203	42664.6
1670.08756	39118.2
1673.36092	36897.4
1676.63211	35463.5
1679.90115	34481.3
1683.16801	33734.4
1686.43272	33150
1689.69527	32763.4
1692.95567	32476.6
1696.2139	32252.2
1699.46999	32108.6
1702.72392	31938.3
1705.97571	31837.7
1709.22535	31746.5
1712.47284	31600.1
1715.71819	31555.5
1718.96139	31467.1
1722.20246	31311.3
1725.44139	31178.6
1728.67818	30933
1731.91284	30688
1735.14537	30441.7
1738.37576	30284.4
1741.60403	30145
1744.83017	29951.7
1748.05418	29858.4
1751.27607	29759.6
1754.49584	29738.6
1757.71349	29678
1760.92903	29648.6
1764.14244	29594.9
1767.35375	29635
1770.56294	29520
1773.77002	29490.9
1776.97499	29381.9
1780.17785	29335.2
1783.37861	29257.9
1786.57727	29175.2
1789.77382	29145.1
1792.96828	29047.7
1796.16064	29032.8
1799.3509	28961.4
1802.53907	28907.1
1805.72514	28836.9
1808.90913	28784.9
1812.09102	28685.6
1815.27083	28618.2
1818.44856	28585.7
1821.6242	28547.3
1824.79776	28530.8
1827.96924	28548.7
1831.13864	28521.5
1834.30597	28524.7
1837.47122	28464.4
1840.6344	28500.3
1843.7955	28545.1
1846.95454	28520.9
1850.11151	28575.3
1853.26642	28445.9
1856.41926	28484.2
1859.57004	28490.7
1862.71876	28398.8
1865.86542	28403
1869.01003	28363
1872.15258	28261.6
1875.29308	28270.7
1878.43152	28284.2
1881.56792	28304
1884.70227	28244.9
1887.83457	28217.6
1890.96482	28189.9
1894.09304	28151.1
1897.21921	28107.9
1900.34335	28052.5
1903.46544	28014.7
1906.58551	28000.7
1909.70353	27919.4
1912.81953	27876.9
1915.93349	27825.2
1919.04543	27772.6
1922.15534	27674.1
1925.26322	27642.8
1928.36908	27520
1931.47292	27488.9
1934.57473	27356.2
1937.67453	27315.3
1940.77232	27191.5
1943.86808	27124.7
1946.96184	27060.4
1950.05358	26986.1
1953.14331	26946
1956.23103	26867
1959.31675	26763.7
1962.40046	26694.6
1965.48217	26621.9
1968.56188	26529.9
1971.63959	26439.2
1974.7153	26313.1
1977.78901	26254.4
1980.86073	26159.5
1983.93046	26067.2
1986.99819	26037.9
1990.06394	25975.7
1993.1277	25916.4
1996.18947	25839.1
1999.24925	25749.2
2002.30706	25621.2
2005.36288	25572.6
2008.41672	25501.2
2011.46859	25442.5
2014.51848	25377.3
2017.56639	25335.6
2020.61233	25290.1
2023.6563	25252.3
2026.6983	25201.7
2029.73833	25168
2032.7764	25122.9
2035.8125	25078.8
2038.84664	25030.4
2041.87881	25032.9
2044.90903	24997.6
2047.93729	24931.5
2050.96359	24934.1
2053.98794	24906.6
2057.01034	24909.8
2060.03078	24845
2063.04927	24851.1
2066.06582	24816.3
2069.08042	24791.3
2072.09307	24795.1
2075.10378	24757.4
2078.11255	24726.3
2081.11938	24774.4
2084.12426	24685.2
2087.12722	24653.9
2090.12824	24683.3
2093.12732	24626.5
2096.12447	24685.8
2099.11969	24661.5
2102.11299	24659.8
2105.10435	24633.1
2108.09379	24662.4
2111.08131	24667.6
2114.0669	24679
2117.05057	24669.6
2120.03233	24706
2123.01216	24743.2
2125.99008	24735.1
2128.96609	24763.2
2131.94018	24758.8
2134.91236	24757.9
2137.88263	24769
2140.851	24795.9
2143.81746	24776.1
2146.78201	24785.2
2149.74466	24743.6
2152.7054	24723.2
2155.66425	24737.8
2158.6212	24719.9
2161.57625	24687.5
2164.52941	24666.6
2167.48067	24679.1
2170.43004	24707.6
2173.37752	24668.8
2176.32311	24676.5
2179.26681	24679.5
2182.20863	24655.6
2185.14856	24705.5
2188.08661	24736.6
2191.02278	24729.7
2193.95707	24683.4
2196.88948	24678.5
2199.82001	24615.2
2202.74867	24631.2
2205.67545	24635
2208.60037	24571.6
2211.52341	24577.1
2214.44458	24588.1
2217.36388	24457.9
2220.28132	24458.5
2223.1969	24417
2226.11061	24419.5
2229.02246	24405.4
2231.93245	24423
2234.84058	24379.9
2237.74686	24311.9
2240.65128	24327
2243.55385	24288.4
2246.45456	24213.3
2249.35343	24151.9
2252.25044	24090.8
2255.14561	23959
2258.03893	23934.2
2260.93041	23857.5
2263.82004	23804.8
2266.70783	23777.8
2269.59378	23653.8
2272.4779	23596.4
2275.36017	23535.4
2278.24061	23540.1
2281.11922	23502.2
2283.996	23487.7
2286.87094	23470.3
2289.74405	23453.8
2292.61534	23419.6
2295.4848	23414.8
2298.35243	23478
2301.21824	23445.7
2304.08223	23466
2306.94439	23508.6
2309.80474	23545.6
2312.66327	23513.9
2315.51999	23519.6
2318.37489	23446.3
2321.22797	23438.1
2324.07925	23451.6
2326.92871	23420.5
2329.77637	23399.9
2332.62222	23379.6
2335.46626	23369.2
2338.3085	23378.1
2341.14893	23406
2343.98756	23412.6
2346.8244	23425.5
2349.65943	23394.5
2352.49267	23342.1
2355.32411	23379.6
2358.15376	23398.6
2360.98161	23322.2
2363.80768	23268.7
2366.63195	23332.4
2369.45444	23306.1
2372.27514	23206.4
2375.09405	23231.5
2377.91118	23132.8
2380.72652	23100.9
2383.54009	23039.4
2386.35187	23020.8
2389.16188	22956.9
2391.97011	22925.1
2394.77657	22921.2
2397.58125	22880.8
2400.38416	22856.4
2403.18529	22833.8
2405.98466	22857
2408.78226	22790.6
2411.57809	22730.7
2414.37216	22753
2417.16446	22766.8
2419.955	22694.6
2422.74378	22705.7
2425.5308	22680.2
2428.31606	22674.4
2431.09956	22668.5
2433.88131	22647.4
2436.6613	22658.8
2439.43954	22676.5
2442.21603	22677.7
2444.99077	22645.1
2447.76377	22624.9
2450.53501	22631.9
2453.30451	22603.3
2456.07226	22593
2458.83827	22614.1
2461.60254	22636.4
2464.36507	22644
2467.12586	22664.3
2469.88492	22653.4
2472.64224	22639.4
2475.39782	22725.1
2478.15167	22740.9
2480.90379	22732
2483.65417	22753
2486.40283	22753.1
2489.14976	22781.2
2491.89497	22750.4
2494.63845	22797.9
2497.3802	22809.7
2500.12024	22828.7
2502.85855	22757.9
2505.59514	22756.2
2508.33002	22754.2
2511.06318	22776.9
2513.79462	22705.4
2516.52435	22696.8
2519.25237	22714.5
2521.97867	22715.4
2524.70327	22701.2
2527.42616	22693
2530.14734	22714.1
2532.86681	22735.3
2535.58458	22736.9
2538.30065	22694
2541.01501	22704.1
2543.72768	22683
2546.43864	22659.7
2549.14791	22626
2551.85548	22679.4
2554.56136	22653.9
2557.26554	22613.1
2559.96803	22638
2562.66883	22652.4
2565.36794	22622.1
2568.06536	22629.8
2570.7611	22609.7
2573.45514	22646.2
2576.14751	22615
2578.83819	22606.3
2581.52719	22604.8
2584.21451	22612.4
2586.90015	22629.8
2589.58411	22643.6
2592.2664	22603.5
2594.94701	22594.8
2597.62594	22605.3
2600.30321	22525.8
2602.9788	22587.9
2605.65273	22589.4
2608.32498	22638.6
2610.99557	22650.2
2613.66449	22656.4
2616.33175	22690.4
2618.99734	22653.5
2621.66128	22609.5
2624.32355	22616.7
2626.98416	22597.4
2629.64311	22583.7
2632.30041	22567.3
2634.95605	22562.1
2637.61004	22572.9
2640.26238	22540.6
2642.91306	22533.6
2645.56209	22496.9
2648.20948	22541.2
2650.85521	22603.6
2653.4993	22577.7
2656.14175	22576.9
2658.78255	22635.3
2661.42171	22670.2
2664.05923	22701.4
2666.6951	22696.3
2669.32934	22728.7
2671.96194	22757.3
2674.59291	22765.3
2677.22224	22759.8
2679.84993	22766.2
2682.476	22732.2
2685.10043	22731.3
2687.72324	22688
2690.34441	22667.5
2692.96396	22673.3
2695.58188	22692.4
2698.19818	22651.1
2700.81285	22690.8
2703.4259	22692.8
2706.03733	22734.1
2708.64714	22719.7
2711.25533	22729.8
2713.86191	22710.3
2716.46687	22797.6
2719.07021	22778.3
2721.67194	22872.8
2724.27206	22871.1
2726.87057	22905.8
2729.46747	22900.3
2732.06276	22923.5
2734.65644	22940.5
2737.24852	22933.8
2739.83899	22923.7
2742.42786	22918.9
2745.01513	22888.3
2747.60079	22945.3
2750.18486	22895.3
2752.76733	22908.1
2755.3482	22853.4
2757.92747	22907.5
2760.50515	22878.3
2763.08123	22909
2765.65573	22887.2
2768.22863	22915.9
2770.79994	22893.9
2773.36967	22933.1
2775.9378	22950.9
2778.50435	22951.8
2781.06932	22930.9
2783.6327	22933.8
2786.1945	22942.1
2788.75471	23008.7
2791.31335	22962
2793.87041	22939.1
2796.42589	22869.1
2798.97979	22901.1
2801.53212	22862.5
2804.08288	22834.5
2806.63206	22734.5
2809.17967	22739.6
2811.72571	22693
2814.27018	22641.8
2816.81308	22582.6
2819.35442	22527.3
2821.89419	22502.5
2824.43239	22499.8
2826.96904	22471.1
2829.50412	22520.1
2832.03763	22451.2
2834.56959	22410.4
2837.1	22380.7
2839.62884	22394.5
2842.15613	22426
2844.68186	22482.6
2847.20604	22482.7
2849.72867	22469.7
2852.24974	22447.5
2854.76927	22434.6
2857.28724	22442.1
2859.80367	22443.4
2862.31855	22369.2
2864.83189	22352.7
2867.34368	22284.4
2869.85393	22275.2
2872.36264	22226
2874.8698	22236.5
2877.37543	22248.5
2879.87952	22244.4
2882.38207	22239.6
2884.88308	22235.3
2887.38256	22301.8
2889.88051	22298.7
2892.37692	22309.2
2894.8718	22325.4
2897.36515	22362.3
2899.85698	22375.5
2902.34727	22430.9
2904.83604	22476.6
2907.32328	22515.5
2909.809	22470.4
2912.29319	22479.5
2914.77587	22487.5
2917.25702	22485.6
2919.73665	22450
2922.21476	22440.1
2924.69136	22400.8
2927.16644	22422.3
2929.64	22396
2932.11205	22368.4
2934.58258	22308.3
2937.05161	22331.5
2939.51912	22332
2941.98513	22290.6
2944.44962	22266.6
2946.91261	22205
2949.37409	22244.4
2951.83407	22213
2954.29254	22191.2
2956.74951	22164.5
2959.20498	22127.3
2961.65895	22104.4
2964.11142	22092.3
2966.56239	22015.2
2969.01186	22050.3
2971.45984	21998.9
2973.90632	21985.7
2976.35131	21904.9
2978.7948	21790.2
2981.23681	21774.8
2983.67732	21743.7
2986.11635	21713.1
2988.55388	21623.9
2990.98993	21529.8
2993.4245	21442.8
2995.85758	21417.7
2998.28917	21377.6
3000.71928	21314.6
3003.14791	21300.7
3005.57506	21264.7
3008.00073	21220.7
3010.42493	21239.2
3012.84764	21170.5
3015.26888	21152.9
3017.68865	21093.3
3020.10694	21037.1
3022.52376	20961.8
3024.9391	20974
3027.35298	20933.6
3029.76539	20928.6
3032.17632	20919.2
3034.5858	20890.7
3036.9938	20914.9
3039.40034	20875
3041.80542	20873.5
3044.20903	20879.9
3046.61118	20838.9
3049.01187	20790.8
3051.4111	20777.6
3053.80888	20757.9
3056.20519	20670.7
3058.60005	20625.5
3060.99345	20579.6
3063.3854	20538.1
3065.7759	20431.7
3068.16494	20381.8
3070.55254	20282.7
3072.93868	20241.7
3075.32338	20229.7
3077.70662	20119.6
3080.08842	20122.1
3082.46878	20049.9
3084.84769	20029.7
3087.22515	20006.3
3089.60118	19990.2
3091.97576	19979.4
3094.3489	19973.8
3096.72061	19965.3
3099.09087	19946.1
3101.4597	19914.3
3103.82709	19922.1
3106.19305	19854.1
3108.55757	19851.4
3110.92066	19766.1
3113.28232	19754.7
3115.64255	19706
3118.00134	19664.8
3120.35871	19636.6
3122.71466	19565.7
3125.06917	19536.4
3127.42226	19435.9
3129.77393	19454.4
3132.12417	19411.4
3134.47299	19411.9
3136.82039	19399.6
3139.16636	19397.6
3141.51092	19368.1
3143.85406	19361.4
3146.19579	19325.3
3148.53609	19297.7
3150.87499	19328.6
3153.21246	19312
3155.54853	19333.5
3157.88318	19283.7
3160.21642	19299.1
3162.54826	19276.7
3164.87868	19281.5
3167.2077	19259.2
3169.5353	19237.6
3171.86151	19244.6
3174.18631	19222.1
3176.5097	19241.7
3178.83169	19221.7
3181.15228	19228
3183.47147	19118.2
3185.78926	19106.8
3188.10565	19061.1
3190.42065	19039.3
3192.73424	19031.4
3195.04645	18997.8
3197.35725	19007.4
3199.66667	18953.4
3201.97469	18978.9
3204.28132	18930.2
3206.58656	18959.7
3208.8904	18947.9
3211.19287	18904.5
3213.49394	18911.2
3215.79363	18914.3
3218.09193	18896.3
3220.38884	18905.4
3222.68438	18894.9
3224.97853	18892.5
3227.2713	18904.4
3229.56269	18865.4
3231.8527	18883.8
3234.14133	18785.7
3236.42858	18787.6
3238.71446	18758.2
3240.99896	18746
3243.28209	18759.8
3245.56384	18718
3247.84423	18698.4
3250.12324	18657.6
3252.40088	18597.3
3254.67715	18577.2
3256.95205	18526.9
3259.22558	18532.7
3261.49775	18522.7
3263.76855	18473.1
3266.03799	18415.7
3268.30606	18371.1
3270.57277	18336.1
3272.83812	18307.9
3275.10211	18266
3277.36474	18255.6
3279.62601	18226.6
3281.88593	18219.3
3284.14448	18240.7
3286.40168	18234.7
3288.65753	18252.3
3290.91202	18230.1
3293.16516	18209.5
3295.41695	18138.6
3297.66738	18089.6
3299.91647	17972.3
3302.16421	17808.6
3304.4106	17729.9
3306.65564	17604.3
3308.89933	17447.1
3311.14169	17305.3
3313.38269	17172.1
3315.62236	17097.3
3317.86068	16925.2
3320.09766	16787.7
3322.3333	16687.9
3324.5676	16616.5
3326.80056	16302.7
3329.03219	16214.4
3331.26248	4.5
3333.49143	-0
3335.71905	-1.2
