Data from AgNPs_FTO_APTES_UA_5uM_CRN_20uM_R6G_10uM_NaF_0.1M_Addition_RamanShift__11__13-15-46-771.txt Node

Date: Mon Feb 07 13:15:46 GMT 2022
User: TCL
Spectrometer: QEP01345
Trigger mode: 4
Integration Time (sec): 7.000000E0
Scans to average: 10
Electric dark correction enabled: true
Nonlinearity correction enabled: false
Boxcar width: 0
XAxis mode: Raman Shifts
Number of Pixels in Spectrum: 1044
>>>>>Begin Spectral Data<<<<<
46.04893	0.4875
50.45542	-1.6125
54.85868	-1.8125
59.25871	0.5875
63.6555	80.8875
68.04907	83.8875
72.43941	88.1875
76.82654	93.3875
81.21044	93.9875
85.59113	99.5875
89.96862	99.3875
94.34289	104.6875
98.71396	107.9875
103.08183	112.4875
107.4465	115.0875
111.80798	113.5875
116.16626	123.3875
120.52136	131.3875
124.87327	131.6875
129.222	143.0875
133.56755	154.4875
137.90993	172.9875
142.24913	185.2875
146.58517	216.2875
150.91804	256.8875
155.24774	314.0875
159.57429	400.8875
163.89768	519.8875
168.21792	705.1875
172.53501	952.2875
176.84895	1331.5875
181.15975	1891.1875
185.46741	2647.3875
189.77193	3655.0875
194.07331	4875.9875
198.37157	6287.0875
202.6667	7762.7875
206.9587	9238.7875
211.24758	10651.3875
215.53334	12066.7875
219.81599	13548.2875
224.09553	15232.2875
228.37195	17015.7875
232.64527	18984.5875
236.91549	21025.4875
241.18261	23122.6875
245.44663	25125.5875
249.70755	26884.1875
253.96539	28456.9875
258.22014	29746.4875
262.4718	30834.6875
266.72039	31554.7875
270.96589	31971.4875
275.20832	32083.3875
279.44768	31984.6875
283.68397	31848.9875
287.91719	31722.6875
292.14735	31652.5875
296.37445	31682.7875
300.59849	31827.8875
304.81948	31928.4875
309.03742	31947.2875
313.25231	31644.8875
317.46415	31033.0875
321.67296	30291.4875
325.87872	29554.1875
330.08145	29157.9875
334.28114	29094.5875
338.47781	29216.2875
342.67145	29509.8875
346.86207	29771.4875
351.04966	30179.4875
355.23424	30515.0875
359.4158	30851.9875
363.59435	31119.5875
367.76989	31312.3875
371.94243	31397.9875
376.11196	31391.2875
380.27849	31371.5875
384.44203	31413.7875
388.60257	31618.0875
392.76012	32037.7875
396.91468	32592.2875
401.06626	33142.9875
405.21485	33591.4875
409.36047	33438.2875
413.50311	33002.1875
417.64277	32857.9875
421.77947	33001.0875
425.9132	33184.3875
430.04396	33392.3875
434.17176	33487.1875
438.2966	33685.7875
442.41849	34028.2875
446.53742	34716.3875
450.6534	35548.5875
454.76644	36127.4875
458.87653	36371.3875
462.98368	36381.9875
467.08789	36168.1875
471.18916	35900.6875
475.2875	35645.1875
479.38291	35656.3875
483.4754	35651.0875
487.56496	35387.9875
491.6516	34736.2875
495.73531	34002.0875
499.81612	33387.1875
503.89401	33355.8875
507.96899	33442.1875
512.04106	33549.3875
516.11023	33415.4875
520.1765	32965.4875
524.23987	32409.0875
528.30034	31938.0875
532.35792	31495.0875
536.41261	31224.1875
540.46441	31009.2875
544.51333	31034.0875
548.55936	31445.9875
552.60252	32198.4875
556.64279	32979.1875
560.6802	33696.2875
564.71473	34348.8875
568.7464	35353.9875
572.7752	37045.2875
576.80114	39103.2875
580.82422	40868.8875
584.84444	42144.3875
588.86181	43491.7875
592.87633	44728.0875
596.888	44380.2875
600.89682	42073.0875
604.9028	40524.6875
608.90594	40944.6875
612.90624	41614.7875
616.90371	38703.2875
620.89834	33956.1875
624.89015	32037.1875
628.87913	32193.8875
632.86528	32642.6875
636.84862	32580.9875
640.82913	31851.5875
644.80683	31035.4875
648.78172	30432.6875
652.75379	30279.2875
656.72306	30448.4875
660.68952	30765.8875
664.65319	30679.9875
668.61405	30366.3875
672.57211	30311.2875
676.52738	30337.2875
680.47986	30275.4875
684.42955	30115.4875
688.37646	30035.5875
692.32058	30186.3875
696.26192	30565.0875
700.20048	30951.3875
704.13626	31305.0875
708.06928	31575.0875
711.99952	31596.0875
715.927	31547.6875
719.85171	31381.6875
723.77365	30991.9875
727.69284	30451.2875
731.60928	29970.9875
735.52295	29723.0875
739.43388	29572.4875
743.34206	29645.1875
747.24749	29924.9875
751.15017	30346.1875
755.05012	31003.9875
758.94733	32012.1875
762.8418	33515.7875
766.73354	35641.5875
770.62254	37333.0875
774.50882	37116.4875
778.39237	35288.5875
782.27321	33114.9875
786.15132	31509.8875
790.02671	30415.0875
793.89938	29779.9875
797.76935	29411.6875
801.6366	29282.3875
805.50115	29137.0875
809.36299	29056.8875
813.22213	28913.4875
817.07857	28910.8875
820.93231	28914.8875
824.78336	28711.9875
828.63172	28484.5875
832.47738	28282.7875
836.32036	28199.4875
840.16066	28198.2875
843.99827	28181.6875
847.8332	28242.9875
851.66546	28310.5875
855.49504	28327.1875
859.32195	28326.5875
863.1462	28188.7875
866.96777	28108.8875
870.78668	28050.2875
874.60293	28034.3875
878.41652	27966.1875
882.22745	28008.3875
886.03573	28088.3875
889.84136	28082.0875
893.64433	28072.8875
897.44466	27995.5875
901.24235	27954.5875
905.0374	27921.3875
908.8298	27956.3875
912.61957	28089.1875
916.40671	28511.5875
920.19121	29171.3875
923.97308	29567.2875
927.75233	29330.3875
931.52895	28755.2875
935.30295	28138.7875
939.07433	27534.0875
942.84309	27070.0875
946.60924	26751.2875
950.37278	26647.5875
954.13371	26613.7875
957.89203	26646.9875
961.64774	26688.3875
965.40086	26709.5875
969.15137	26671.1875
972.89929	26438.2875
976.64461	26240.0875
980.38733	26167.9875
984.12747	26139.9875
987.86502	26175.0875
991.59999	26284.4875
995.33237	26436.5875
999.06217	26714.5875
1002.78939	27120.8875
1006.51404	27603.6875
1010.23611	28070.6875
1013.95561	28376.3875
1017.67255	28431.6875
1021.38692	28216.4875
1025.09872	27843.4875
1028.80796	27425.1875
1032.51465	27324.8875
1036.21877	27325.0875
1039.92035	27476.2875
1043.61937	27653.1875
1047.31584	27796.4875
1051.00976	27968.1875
1054.70114	28182.0875
1058.38998	28528.5875
1062.07627	29029.5875
1065.76003	29583.8875
1069.44126	30140.3875
1073.11995	30628.5875
1076.79611	30989.1875
1080.46974	31079.5875
1084.14085	31199.5875
1087.80943	31500.0875
1091.47549	31927.8875
1095.13903	32159.2875
1098.80005	31840.6875
1102.45857	30920.2875
1106.11456	29945.3875
1109.76805	29380.7875
1113.41903	29267.8875
1117.06751	29334.2875
1120.71348	29611.3875
1124.35696	29919.9875
1127.99793	30311.3875
1131.63641	30618.7875
1135.2724	30639.2875
1138.90589	30725.0875
1142.5369	30967.1875
1146.16542	31349.7875
1149.79145	31895.2875
1153.415	32501.5875
1157.03607	33175.4875
1160.65467	34314.4875
1164.27079	35998.8875
1167.88443	37934.4875
1171.49561	39862.4875
1175.10432	42026.7875
1178.71056	44564.6875
1182.31434	46987.7875
1185.91565	48371.9875
1189.51451	48649.8875
1193.11091	48095.0875
1196.70485	46844.9875
1200.29634	45237.7875
1203.88538	44205.8875
1207.47197	44133.4875
1211.05612	44358.5875
1214.63782	43913.2875
1218.21708	42442.8875
1221.79391	40441.8875
1225.36829	38796.5875
1228.94024	37766.0875
1232.50976	37136.6875
1236.07685	36765.0875
1239.6415	36622.8875
1243.20374	36667.9875
1246.76355	36973.8875
1250.32093	37544.2875
1253.8759	38367.5875
1257.42845	39444.1875
1260.97859	40690.0875
1264.52631	41915.5875
1268.07163	43185.7875
1271.61453	44425.3875
1275.15503	45784.6875
1278.69312	47453.8875
1282.22882	49348.4875
1285.76211	51525.7875
1289.29301	54072.5875
1292.82151	56945.7875
1296.34761	60384.2875
1299.87133	64027.1875
1303.39266	67237.9875
1306.9116	69474.6875
1310.42815	70556.1875
1313.94233	70697.2875
1317.45412	70174.4875
1320.96354	69715.6875
1324.47058	69848.9875
1327.97525	70319.4875
1331.47754	70626.4875
1334.97747	70632.6875
1338.47502	70282.7875
1341.97022	69841.6875
1345.46305	68983.9875
1348.95352	67859.0875
1352.44163	66428.6875
1355.92738	65652.9875
1359.41078	65774.5875
1362.89183	66159.9875
1366.37053	65085.3875
1369.84688	61391.6875
1373.32088	56249.8875
1376.79254	52389.6875
1380.26186	51253.7875
1383.72883	51850.3875
1387.19347	52523.9875
1390.65578	52494.5875
1394.11575	52232.6875
1397.57339	52538.8875
1401.0287	53187.5875
1404.48168	53522.5875
1407.93234	52855.5875
1411.38068	51015.6875
1414.82669	48590.9875
1418.27039	45902.6875
1421.71177	43573.5875
1425.15083	41824.1875
1428.58758	41100.4875
1432.02203	41474.0875
1435.45416	42730.3875
1438.88399	44246.6875
1442.31151	45449.0875
1445.73673	46336.0875
1449.15965	47147.9875
1452.58027	47823.7875
1455.9986	48214.7875
1459.41463	48649.4875
1462.82837	49277.7875
1466.23982	50006.5875
1469.64898	50592.2875
1473.05586	50824.3875
1476.46045	50674.9875
1479.86276	50242.9875
1483.26279	49779.8875
1486.66054	49564.1875
1490.05602	49732.2875
1493.44922	50301.9875
1496.84016	51052.0875
1500.22882	52079.3875
1503.61521	53079.7875
1506.99934	54248.9875
1510.38121	55081.1875
1513.76081	55380.6875
1517.13816	55419.8875
1520.51324	55396.3875
1523.88607	55685.4875
1527.25665	56315.2875
1530.62498	56515.3875
1533.99105	55957.2875
1537.35488	54708.2875
1540.71647	52745.0875
1544.07581	50555.8875
1547.4329	48482.6875
1550.78776	46926.6875
1554.14038	45821.1875
1557.49077	45249.3875
1560.83892	44849.9875
1564.18484	44688.5875
1567.52853	44738.7875
1570.86999	45182.5875
1574.20922	46365.3875
1577.54624	47715.9875
1580.88103	48570.7875
1584.2136	49521.3875
1587.54395	51101.0875
1590.87208	53360.5875
1594.19801	55841.3875
1597.52172	57623.1875
1600.84321	57155.7875
1604.16251	53857.4875
1607.47959	49351.7875
1610.79447	45110.7875
1614.10715	41313.0875
1617.41763	38173.6875
1620.7259	35977.0875
1624.03199	34856.7875
1627.33587	34870.9875
1630.63757	36046.5875
1633.93707	38804.6875
1637.23439	43364.8875
1640.52951	49924.6875
1643.82246	57711.3875
1647.11321	64023.0875
1650.40179	65518.2875
1653.68819	60977.9875
1656.97241	52709.1875
1660.25446	44164.3875
1663.53433	37528.5875
1666.81203	33015.6875
1670.08756	30057.9875
1673.36092	28237.0875
1676.63211	27047.6875
1679.90115	26292.1875
1683.16801	25716.6875
1686.43272	25283.2875
1689.69527	24894.4875
1692.95567	24649.4875
1696.2139	24458.4875
1699.46999	24301.4875
1702.72392	24153.4875
1705.97571	24027.5875
1709.22535	23929.6875
1712.47284	23880.8875
1715.71819	23807.7875
1718.96139	23671.3875
1722.20246	23542.5875
1725.44139	23463.8875
1728.67818	23241.5875
1731.91284	23081.2875
1735.14537	22922.5875
1738.37576	22813.1875
1741.60403	22701.3875
1744.83017	22586.5875
1748.05418	22524.0875
1751.27607	22455.5875
1754.49584	22400.1875
1757.71349	22435.1875
1760.92903	22354.4875
1764.14244	22334.7875
1767.35375	22276.8875
1770.56294	22239.6875
1773.77002	22124.1875
1776.97499	22081.1875
1780.17785	21985.4875
1783.37861	21940.7875
1786.57727	21890.4875
1789.77382	21844.9875
1792.96828	21853.4875
1796.16064	21746.2875
1799.3509	21679.3875
1802.53907	21615.8875
1805.72514	21546.1875
1808.90913	21453.0875
1812.09102	21405.8875
1815.27083	21315.1875
1818.44856	21296.9875
1821.6242	21248.7875
1824.79776	21246.3875
1827.96924	21211.8875
1831.13864	21206.7875
1834.30597	21173.3875
1837.47122	21188.3875
1840.6344	21152.0875
1843.7955	21178.6875
1846.95454	21135.1875
1850.11151	21142.3875
1853.26642	21132.6875
1856.41926	21088.7875
1859.57004	21106.7875
1862.71876	21058.5875
1865.86542	20982.5875
1869.01003	20931.2875
1872.15258	20898.4875
1875.29308	20854.9875
1878.43152	20789.4875
1881.56792	20761.3875
1884.70227	20683.5875
1887.83457	20676.4875
1890.96482	20581.1875
1894.09304	20596.8875
1897.21921	20568.4875
1900.34335	20529.2875
1903.46544	20499.1875
1906.58551	20479.2875
1909.70353	20461.5875
1912.81953	20420.6875
1915.93349	20331.5875
1919.04543	20284.2875
1922.15534	20207.4875
1925.26322	20149.6875
1928.36908	20111.0875
1931.47292	20052.9875
1934.57473	19985.3875
1937.67453	19940.9875
1940.77232	19829.2875
1943.86808	19802.7875
1946.96184	19745.3875
1950.05358	19678.7875
1953.14331	19607.4875
1956.23103	19577.1875
1959.31675	19490.8875
1962.40046	19402.4875
1965.48217	19372.6875
1968.56188	19264.6875
1971.63959	19204.9875
1974.7153	19101.0875
1977.78901	19081.8875
1980.86073	18995.8875
1983.93046	18947.0875
1986.99819	18858.3875
1990.06394	18807.6875
1993.1277	18762.0875
1996.18947	18705.0875
1999.24925	18661.0875
2002.30706	18588.8875
2005.36288	18513.9875
2008.41672	18460.3875
2011.46859	18371.4875
2014.51848	18318.7875
2017.56639	18241.2875
2020.61233	18234.6875
2023.6563	18166.5875
2026.6983	18099.1875
2029.73833	18024.1875
2032.7764	18002.3875
2035.8125	17937.5875
2038.84664	17892.4875
2041.87881	17873.7875
2044.90903	17827.9875
2047.93729	17802.7875
2050.96359	17765.0875
2053.98794	17742.9875
2057.01034	17687.9875
2060.03078	17690.7875
2063.04927	17655.4875
2066.06582	17644.6875
2069.08042	17656.8875
2072.09307	17640.6875
2075.10378	17590.6875
2078.11255	17587.3875
2081.11938	17571.7875
2084.12426	17554.9875
2087.12722	17555.4875
2090.12824	17517.0875
2093.12732	17493.5875
2096.12447	17517.8875
2099.11969	17517.3875
2102.11299	17511.5875
2105.10435	17446.1875
2108.09379	17488.5875
2111.08131	17489.2875
2114.0669	17489.0875
2117.05057	17507.1875
2120.03233	17509.1875
2123.01216	17531.0875
2125.99008	17497.0875
2128.96609	17516.3875
2131.94018	17535.1875
2134.91236	17538.2875
2137.88263	17481.8875
2140.851	17535.2875
2143.81746	17495.6875
2146.78201	17482.9875
2149.74466	17456.3875
2152.7054	17456.7875
2155.66425	17408.3875
2158.6212	17410.5875
2161.57625	17388.0875
2164.52941	17369.7875
2167.48067	17391.0875
2170.43004	17339.7875
2173.37752	17309.5875
2176.32311	17299.8875
2179.26681	17321.3875
2182.20863	17333.4875
2185.14856	17321.3875
2188.08661	17317.8875
2191.02278	17316.5875
2193.95707	17276.4875
2196.88948	17261.7875
2199.82001	17219.3875
2202.74867	17156.4875
2205.67545	17147.6875
2208.60037	17131.7875
2211.52341	17085.3875
2214.44458	17102.8875
2217.36388	17021.1875
2220.28132	16974.6875
2223.1969	16978.2875
2226.11061	16933.1875
2229.02246	16914.1875
2231.93245	16857.3875
2234.84058	16833.2875
2237.74686	16792.6875
2240.65128	16783.4875
2243.55385	16754.8875
2246.45456	16720.3875
2249.35343	16666.7875
2252.25044	16627.1875
2255.14561	16599.5875
2258.03893	16535.6875
2260.93041	16455.7875
2263.82004	16434.5875
2266.70783	16399.8875
2269.59378	16294.6875
2272.4779	16256.1875
2275.36017	16202.8875
2278.24061	16197.3875
2281.11922	16142.2875
2283.996	16109.7875
2286.87094	16074.8875
2289.74405	16062.7875
2292.61534	16050.2875
2295.4848	15996.4875
2298.35243	15981.0875
2301.21824	16009.4875
2304.08223	15946.1875
2306.94439	15965.4875
2309.80474	15973.9875
2312.66327	15940.0875
2315.51999	15874.0875
2318.37489	15850.6875
2321.22797	15871.0875
2324.07925	15785.3875
2326.92871	15779.6875
2329.77637	15783.8875
2332.62222	15721.4875
2335.46626	15712.1875
2338.3085	15686.5875
2341.14893	15677.4875
2343.98756	15666.9875
2346.8244	15678.5875
2349.65943	15639.5875
2352.49267	15663.9875
2355.32411	15676.5875
2358.15376	15662.9875
2360.98161	15648.5875
2363.80768	15630.5875
2366.63195	15634.0875
2369.45444	15604.4875
2372.27514	15578.9875
2375.09405	15569.7875
2377.91118	15539.6875
2380.72652	15472.8875
2383.54009	15437.7875
2386.35187	15405.3875
2389.16188	15374.4875
2391.97011	15362.3875
2394.77657	15296.1875
2397.58125	15282.7875
2400.38416	15261.9875
2403.18529	15235.2875
2405.98466	15208.9875
2408.78226	15175.9875
2411.57809	15182.7875
2414.37216	15174.2875
2417.16446	15153.1875
2419.955	15144.7875
2422.74378	15103.1875
2425.5308	15074.8875
2428.31606	15073.2875
2431.09956	15067.9875
2433.88131	15033.7875
2436.6613	15031.9875
2439.43954	15053.5875
2442.21603	15014.3875
2444.99077	15003.2875
2447.76377	14993.9875
2450.53501	14968.3875
2453.30451	14977.5875
2456.07226	14942.3875
2458.83827	14944.3875
2461.60254	14935.4875
2464.36507	14893.7875
2467.12586	14893.6875
2469.88492	14883.1875
2472.64224	14887.9875
2475.39782	14931.1875
2478.15167	14905.7875
2480.90379	14882.1875
2483.65417	14849.6875
2486.40283	14864.3875
2489.14976	14886.6875
2491.89497	14872.8875
2494.63845	14888.2875
2497.3802	14871.9875
2500.12024	14858.3875
2502.85855	14832.6875
2505.59514	14793.5875
2508.33002	14808.3875
2511.06318	14786.4875
2513.79462	14778.3875
2516.52435	14782.1875
2519.25237	14764.4875
2521.97867	14761.8875
2524.70327	14758.6875
2527.42616	14715.6875
2530.14734	14728.7875
2532.86681	14707.8875
2535.58458	14717.8875
2538.30065	14677.9875
2541.01501	14672.3875
2543.72768	14651.8875
2546.43864	14650.6875
2549.14791	14618.3875
2551.85548	14604.2875
2554.56136	14592.3875
2557.26554	14550.3875
2559.96803	14544.3875
2562.66883	14513.6875
2565.36794	14499.6875
2568.06536	14440.5875
2570.7611	14452.2875
2573.45514	14459.9875
2576.14751	14429.7875
2578.83819	14413.9875
2581.52719	14395.8875
2584.21451	14397.2875
2586.90015	14400.5875
2589.58411	14371.7875
2592.2664	14358.0875
2594.94701	14347.7875
2597.62594	14326.5875
2600.30321	14311.5875
2602.9788	14300.0875
2605.65273	14301.7875
2608.32498	14311.9875
2610.99557	14323.5875
2613.66449	14333.6875
2616.33175	14277.5875
2618.99734	14277.1875
2621.66128	14267.9875
2624.32355	14265.9875
2626.98416	14210.4875
2629.64311	14237.9875
2632.30041	14228.9875
2634.95605	14212.1875
2637.61004	14203.6875
2640.26238	14175.5875
2642.91306	14171.2875
2645.56209	14170.4875
2648.20948	14195.2875
2650.85521	14203.3875
2653.4993	14204.0875
2656.14175	14175.0875
2658.78255	14240.8875
2661.42171	14226.0875
2664.05923	14202.6875
2666.6951	14222.1875
2669.32934	14262.3875
2671.96194	14258.2875
2674.59291	14250.8875
2677.22224	14253.9875
2679.84993	14254.4875
2682.476	14209.0875
2685.10043	14223.0875
2687.72324	14188.0875
2690.34441	14189.9875
2692.96396	14204.8875
2695.58188	14211.2875
2698.19818	14189.7875
2700.81285	14199.5875
2703.4259	14204.8875
2706.03733	14246.3875
2708.64714	14213.2875
2711.25533	14221.7875
2713.86191	14198.1875
2716.46687	14228.9875
2719.07021	14236.5875
2721.67194	14259.7875
2724.27206	14269.4875
2726.87057	14250.3875
2729.46747	14283.1875
2732.06276	14304.2875
2734.65644	14294.4875
2737.24852	14283.6875
2739.83899	14233.9875
2742.42786	14230.5875
2745.01513	14265.9875
2747.60079	14231.4875
2750.18486	14194.5875
2752.76733	14207.4875
2755.3482	14167.8875
2757.92747	14192.2875
2760.50515	14182.5875
2763.08123	14169.8875
2765.65573	14178.9875
2768.22863	14163.5875
2770.79994	14154.5875
2773.36967	14144.2875
2775.9378	14102.7875
2778.50435	14122.8875
2781.06932	14128.1875
2783.6327	14122.4875
2786.1945	14109.8875
2788.75471	14142.8875
2791.31335	14063.1875
2793.87041	14059.4875
2796.42589	14021.3875
2798.97979	14032.7875
2801.53212	13986.8875
2804.08288	13967.9875
2806.63206	13934.2875
2809.17967	13916.4875
2811.72571	13865.4875
2814.27018	13854.7875
2816.81308	13815.3875
2819.35442	13806.9875
2821.89419	13769.1875
2824.43239	13778.9875
2826.96904	13756.0875
2829.50412	13740.9875
2832.03763	13705.1875
2834.56959	13723.0875
2837.1	13681.6875
2839.62884	13700.3875
2842.15613	13653.3875
2844.68186	13706.5875
2847.20604	13718.1875
2849.72867	13709.0875
2852.24974	13697.5875
2854.76927	13737.7875
2857.28724	13721.7875
2859.80367	13706.8875
2862.31855	13669.1875
2864.83189	13633.3875
2867.34368	13601.1875
2869.85393	13571.2875
2872.36264	13562.5875
2874.8698	13539.6875
2877.37543	13502.9875
2879.87952	13487.9875
2882.38207	13484.4875
2884.88308	13475.5875
2887.38256	13438.4875
2889.88051	13462.5875
2892.37692	13466.3875
2894.8718	13483.1875
2897.36515	13490.7875
2899.85698	13472.0875
2902.34727	13515.9875
2904.83604	13505.9875
2907.32328	13525.9875
2909.809	13525.5875
2912.29319	13534.1875
2914.77587	13531.5875
2917.25702	13525.3875
2919.73665	13517.0875
2922.21476	13504.8875
2924.69136	13496.7875
2927.16644	13498.1875
2929.64	13457.8875
2932.11205	13435.8875
2934.58258	13427.7875
2937.05161	13432.5875
2939.51912	13441.6875
2941.98513	13395.0875
2944.44962	13360.0875
2946.91261	13310.3875
2949.37409	13306.4875
2951.83407	13265.8875
2954.29254	13261.2875
2956.74951	13255.7875
2959.20498	13228.6875
2961.65895	13195.2875
2964.11142	13213.5875
2966.56239	13190.9875
2969.01186	13168.3875
2971.45984	13160.1875
2973.90632	13174.8875
2976.35131	13106.8875
2978.7948	13082.5875
2981.23681	13057.8875
2983.67732	13032.3875
2986.11635	12974.8875
2988.55388	12932.0875
2990.98993	12906.3875
2993.4245	12845.1875
2995.85758	12791.5875
2998.28917	12745.4875
3000.71928	12739.6875
3003.14791	12682.8875
3005.57506	12692.7875
3008.00073	12621.1875
3010.42493	12523.2875
3012.84764	12607.6875
3015.26888	12580.8875
3017.68865	12512.3875
3020.10694	12522.6875
3022.52376	12453.2875
3024.9391	12472.9875
3027.35298	12460.0875
3029.76539	12426.5875
3032.17632	12369.3875
3034.5858	12363.9875
3036.9938	12342.1875
3039.40034	12369.3875
3041.80542	12344.1875
3044.20903	12328.9875
3046.61118	12323.7875
3049.01187	12296.6875
3051.4111	12299.9875
3053.80888	12224.1875
3056.20519	12204.9875
3058.60005	12168.1875
3060.99345	12119.7875
3063.3854	12095.7875
3065.7759	12042.7875
3068.16494	12004.3875
3070.55254	11934.7875
3072.93868	11918.6875
3075.32338	11861.5875
3077.70662	11824.4875
3080.08842	11804.6875
3082.46878	11752.2875
3084.84769	11749.1875
3087.22515	11747.6875
3089.60118	11715.5875
3091.97576	11713.6875
3094.3489	11670.9875
3096.72061	11687.6875
3099.09087	11654.8875
3101.4597	11643.9875
3103.82709	11658.9875
3106.19305	11609.7875
3108.55757	11602.5875
3110.92066	11587.6875
3113.28232	11572.1875
3115.64255	11544.9875
3118.00134	11524.9875
3120.35871	11515.8875
3122.71466	11462.4875
3125.06917	11403.3875
3127.42226	11370.5875
3129.77393	11368.4875
3132.12417	11363.2875
3134.47299	11312.1875
3136.82039	11329.9875
3139.16636	11302.1875
3141.51092	11284.4875
3143.85406	11262.9875
3146.19579	11286.3875
3148.53609	11261.2875
3150.87499	11265.6875
3153.21246	11248.3875
3155.54853	11253.8875
3157.88318	11254.3875
3160.21642	11266.3875
3162.54826	11242.3875
3164.87868	11256.7875
3167.2077	11230.5875
3169.5353	11238.0875
3171.86151	11221.3875
3174.18631	11205.7875
3176.5097	11212.0875
3178.83169	11175.0875
3181.15228	11169.7875
3183.47147	11147.4875
3185.78926	11132.1875
3188.10565	11091.9875
3190.42065	11068.9875
3192.73424	11057.6875
3195.04645	11023.7875
3197.35725	11022.0875
3199.66667	10980.3875
3201.97469	10980.9875
3204.28132	10981.5875
3206.58656	10975.0875
3208.8904	10963.9875
3211.19287	10954.0875
3213.49394	10948.5875
3215.79363	10972.0875
3218.09193	10952.2875
3220.38884	10937.8875
3222.68438	10947.6875
3224.97853	10936.6875
3227.2713	10911.6875
3229.56269	10885.2875
3231.8527	10879.5875
3234.14133	10848.0875
3236.42858	10850.9875
3238.71446	10827.7875
3240.99896	10806.4875
3243.28209	10774.5875
3245.56384	10747.4875
3247.84423	10745.2875
3250.12324	10754.2875
3252.40088	10674.8875
3254.67715	10695.1875
3256.95205	10668.6875
3259.22558	10647.9875
3261.49775	10604.5875
3263.76855	10604.8875
3266.03799	10565.3875
3268.30606	10536.2875
3270.57277	10502.5875
3272.83812	10480.6875
3275.10211	10470.1875
3277.36474	10463.2875
3279.62601	10486.8875
3281.88593	10451.0875
3284.14448	10460.9875
3286.40168	10462.2875
3288.65753	10451.3875
3290.91202	10441.9875
3293.16516	10399.4875
3295.41695	10372.3875
3297.66738	10304.0875
3299.91647	10273.8875
3302.16421	10188.7875
3304.4106	10128.4875
3306.65564	10016.2875
3308.89933	9966.7875
3311.14169	9876.9875
3313.38269	9762.4875
3315.62236	9731.4875
3317.86068	9630.9875
3320.09766	9530.0875
3322.3333	9485.6875
3324.5676	9422.5875
3326.80056	9254.0875
3329.03219	9196.7875
3331.26248	3.6875
3333.49143	-1.2125
3335.71905	-0.0125
