Data from AgNPs_FTO_APTES_UA_5uM_CRN_0uM_R6G_10uM_NaF_0.1M_Addition_RamanShift__5__09-44-36-525.txt Node

Date: Mon Feb 07 09:44:36 GMT 2022
User: TCL
Spectrometer: QEP01345
Trigger mode: 4
Integration Time (sec): 7.000000E0
Scans to average: 10
Electric dark correction enabled: true
Nonlinearity correction enabled: false
Boxcar width: 0
XAxis mode: Raman Shifts
Number of Pixels in Spectrum: 1044
>>>>>Begin Spectral Data<<<<<
46.04893	-0.4625
50.45542	-1.5625
54.85868	0.3375
59.25871	0.1375
63.6555	74.2375
68.04907	75.7375
72.43941	80.0375
76.82654	83.7375
81.21044	85.5375
85.59113	88.7375
89.96862	94.5375
94.34289	92.4375
98.71396	100.9375
103.08183	100.6375
107.4465	101.4375
111.80798	106.7375
116.16626	110.3375
120.52136	119.5375
124.87327	123.9375
129.222	132.8375
133.56755	140.6375
137.90993	156.7375
142.24913	171.3375
146.58517	197.6375
150.91804	230.7375
155.24774	283.3375
159.57429	360.2375
163.89768	469.0375
168.21792	631.5375
172.53501	858.1375
176.84895	1201.2375
181.15975	1692.0375
185.46741	2365.6375
189.77193	3248.5375
194.07331	4324.1375
198.37157	5567.8375
202.6667	6854.9375
206.9587	8163.4375
211.24758	9439.6375
215.53334	10723.5375
219.81599	12166.3375
224.09553	13785.3375
228.37195	15538.0375
232.64527	17438.8375
236.91549	19412.3375
241.18261	21310.1375
245.44663	23045.7375
249.70755	24531.3375
253.96539	25868.6375
258.22014	27055.8375
262.4718	27964.5375
266.72039	28577.7375
270.96589	28896.7375
275.20832	28948.7375
279.44768	28746.8375
283.68397	28590.4375
287.91719	28519.4375
292.14735	28509.9375
296.37445	28600.6375
300.59849	28705.2375
304.81948	28925.0375
309.03742	29057.1375
313.25231	28897.2375
317.46415	28218.0375
321.67296	27006.1375
325.87872	25786.0375
330.08145	24991.3375
334.28114	24693.7375
338.47781	24727.1375
342.67145	24940.0375
346.86207	25277.6375
351.04966	25755.8375
355.23424	26428.5375
359.4158	27005.1375
363.59435	27442.0375
367.76989	27635.6375
371.94243	27663.8375
376.11196	27542.4375
380.27849	27382.8375
384.44203	27273.6375
388.60257	27347.9375
392.76012	27711.1375
396.91468	28347.8375
401.06626	29020.2375
405.21485	29509.8375
409.36047	29358.8375
413.50311	28860.6375
417.64277	28648.3375
421.77947	28787.8375
425.9132	28803.1375
430.04396	28767.9375
434.17176	28543.9375
438.2966	28284.8375
442.41849	28248.8375
446.53742	28741.6375
450.6534	29500.1375
454.76644	30212.7375
458.87653	30576.1375
462.98368	30474.2375
467.08789	30168.6375
471.18916	29709.9375
475.2875	29345.6375
479.38291	29396.8375
483.4754	29743.3375
487.56496	29955.9375
491.6516	29802.0375
495.73531	29347.3375
499.81612	29039.8375
503.89401	29042.2375
507.96899	28943.3375
512.04106	28539.7375
516.11023	27865.7375
520.1765	26927.5375
524.23987	26177.0375
528.30034	25531.0375
532.35792	25052.0375
536.41261	24617.6375
540.46441	24146.7375
544.51333	24136.5375
548.55936	24637.2375
552.60252	25628.1375
556.64279	26668.2375
560.6802	27363.0375
564.71473	27913.8375
568.7464	28955.7375
572.7752	30697.9375
576.80114	32660.6375
580.82422	34743.4375
584.84444	37104.1375
588.86181	39307.2375
592.87633	40024.2375
596.888	38174.3375
600.89682	35202.8375
604.9028	34526.0375
608.90594	37262.2375
612.90624	40596.9375
616.90371	37641.7375
620.89834	29552.2375
624.89015	25586.1375
628.87913	25186.6375
632.86528	25770.5375
636.84862	25949.4375
640.82913	25366.4375
644.80683	24258.1375
648.78172	23548.8375
652.75379	23556.5375
656.72306	23947.3375
660.68952	24317.5375
664.65319	23973.1375
668.61405	23293.7375
672.57211	23023.0375
676.52738	23063.9375
680.47986	23032.6375
684.42955	22755.9375
688.37646	22515.0375
692.32058	22660.1375
696.26192	23204.8375
700.20048	23812.0375
704.13626	24290.5375
708.06928	24640.6375
711.99952	24727.5375
715.927	24640.9375
719.85171	24836.9375
723.77365	24709.0375
727.69284	24057.4375
731.60928	23269.2375
735.52295	22866.1375
739.43388	22758.2375
743.34206	22819.0375
747.24749	23143.3375
751.15017	23598.0375
755.05012	24383.7375
758.94733	25678.3375
762.8418	27773.1375
766.73354	30900.4375
770.62254	33598.0375
774.50882	33433.5375
778.39237	30618.3375
782.27321	27481.8375
786.15132	25022.4375
790.02671	23503.3375
793.89938	22712.0375
797.76935	22408.4375
801.6366	22344.4375
805.50115	22341.0375
809.36299	22221.6375
813.22213	22038.5375
817.07857	21906.3375
820.93231	21680.0375
824.78336	21430.6375
828.63172	21127.1375
832.47738	20973.6375
836.32036	20927.1375
840.16066	21002.5375
843.99827	21063.7375
847.8332	21053.9375
851.66546	20999.0375
855.49504	21050.0375
859.32195	21089.5375
863.1462	20950.6375
866.96777	20833.9375
870.78668	20709.0375
874.60293	20650.1375
878.41652	20558.9375
882.22745	20651.3375
886.03573	20685.7375
889.84136	20746.5375
893.64433	20711.3375
897.44466	20693.0375
901.24235	20644.7375
905.0374	20551.6375
908.8298	20424.6375
912.61957	20434.0375
916.40671	20740.4375
920.19121	21408.6375
923.97308	22127.0375
927.75233	22376.5375
931.52895	21954.6375
935.30295	21125.4375
939.07433	20217.3375
942.84309	19564.5375
946.60924	19224.7375
950.37278	19138.1375
954.13371	19230.0375
957.89203	19272.8375
961.64774	19346.3375
965.40086	19395.1375
969.15137	19403.2375
972.89929	19259.1375
976.64461	19056.9375
980.38733	18914.7375
984.12747	18842.9375
987.86502	18871.4375
991.59999	18954.3375
995.33237	19157.0375
999.06217	19514.7375
1002.78939	20036.3375
1006.51404	20553.7375
1010.23611	21020.3375
1013.95561	21471.1375
1017.67255	21610.2375
1021.38692	21291.2375
1025.09872	20808.6375
1028.80796	20447.4375
1032.51465	20565.3375
1036.21877	20897.6375
1039.92035	21148.6375
1043.61937	21215.1375
1047.31584	21110.7375
1051.00976	20958.6375
1054.70114	20980.7375
1058.38998	21145.7375
1062.07627	21478.0375
1065.76003	21961.3375
1069.44126	22620.0375
1073.11995	23671.6375
1076.79611	24616.9375
1080.46974	24876.9375
1084.14085	24985.1375
1087.80943	25411.7375
1091.47549	25956.8375
1095.13903	26342.2375
1098.80005	25860.5375
1102.45857	24345.6375
1106.11456	22802.7375
1109.76805	21812.1375
1113.41903	21438.3375
1117.06751	21468.3375
1120.71348	21689.2375
1124.35696	22099.1375
1127.99793	22622.3375
1131.63641	23132.9375
1135.2724	23300.9375
1138.90589	23325.2375
1142.5369	23430.6375
1146.16542	23720.7375
1149.79145	24040.0375
1153.415	24508.8375
1157.03607	25318.1375
1160.65467	26766.3375
1164.27079	29084.3375
1167.88443	31800.1375
1171.49561	34385.5375
1175.10432	37137.0375
1178.71056	40799.2375
1182.31434	44179.8375
1185.91565	45774.5375
1189.51451	45502.6375
1193.11091	43958.4375
1196.70485	41607.1375
1200.29634	39234.8375
1203.88538	37739.1375
1207.47197	37479.8375
1211.05612	37343.3375
1214.63782	36661.6375
1218.21708	35184.9375
1221.79391	33286.3375
1225.36829	31710.2375
1228.94024	30656.4375
1232.50976	29773.5375
1236.07685	29034.7375
1239.6415	28635.3375
1243.20374	28641.6375
1246.76355	28889.0375
1250.32093	29517.6375
1253.8759	30520.6375
1257.42845	31937.7375
1260.97859	33610.0375
1264.52631	35260.5375
1268.07163	36893.1375
1271.61453	38578.0375
1275.15503	40428.7375
1278.69312	42458.8375
1282.22882	44681.9375
1285.76211	47453.9375
1289.29301	50682.7375
1292.82151	54172.9375
1296.34761	58136.1375
1299.87133	62903.5375
1303.39266	67600.7375
1306.9116	71373.0375
1310.42815	73399.1375
1313.94233	73779.0375
1317.45412	72812.7375
1320.96354	72020.4375
1324.47058	72115.0375
1327.97525	72839.3375
1331.47754	73091.5375
1334.97747	72171.1375
1338.47502	69997.8375
1341.97022	67199.7375
1345.46305	64222.1375
1348.95352	61470.5375
1352.44163	59615.3375
1355.92738	59905.2375
1359.41078	62634.1375
1362.89183	66461.8375
1366.37053	68137.7375
1369.84688	64826.7375
1373.32088	57595.8375
1376.79254	50756.0375
1380.26186	47128.8375
1383.72883	46299.8375
1387.19347	46469.7375
1390.65578	46112.6375
1394.11575	45964.6375
1397.57339	46767.4375
1401.0287	48468.2375
1404.48168	49862.9375
1407.93234	49721.8375
1411.38068	47607.5375
1414.82669	44349.3375
1418.27039	40884.0375
1421.71177	37750.9375
1425.15083	35389.7375
1428.58758	34200.0375
1432.02203	34445.5375
1435.45416	35911.0375
1438.88399	37735.4375
1442.31151	39241.5375
1445.73673	40290.3375
1449.15965	41144.2375
1452.58027	41493.7375
1455.9986	41461.7375
1459.41463	41602.5375
1462.82837	42319.5375
1466.23982	43550.2375
1469.64898	44793.6375
1473.05586	45482.9375
1476.46045	45627.0375
1479.86276	45412.8375
1483.26279	44949.6375
1486.66054	44971.8375
1490.05602	45430.3375
1493.44922	46472.7375
1496.84016	47688.8375
1500.22882	49142.6375
1503.61521	50923.1375
1506.99934	53023.3375
1510.38121	54981.8375
1513.76081	55894.5375
1517.13816	55454.7375
1520.51324	54131.4375
1523.88607	52971.6375
1527.25665	52389.3375
1530.62498	51922.1375
1533.99105	51033.0375
1537.35488	49514.9375
1540.71647	47272.9375
1544.07581	44683.7375
1547.4329	42158.3375
1550.78776	40217.4375
1554.14038	38995.4375
1557.49077	38449.0375
1560.83892	38457.4375
1564.18484	38589.9375
1567.52853	38685.8375
1570.86999	38933.4375
1574.20922	39696.7375
1577.54624	40541.7375
1580.88103	40964.7375
1584.2136	41813.6375
1587.54395	44217.8375
1590.87208	48265.7375
1594.19801	52650.8375
1597.52172	55563.9375
1600.84321	55003.4375
1604.16251	50105.6375
1607.47959	43613.2375
1610.79447	37955.8375
1614.10715	33329.6375
1617.41763	29738.2375
1620.7259	27356.2375
1624.03199	26176.1375
1627.33587	26193.5375
1630.63757	27431.4375
1633.93707	30264.4375
1637.23439	35207.0375
1640.52951	42868.0375
1643.82246	52721.6375
1647.11321	61686.4375
1650.40179	65003.5375
1653.68819	60401.6375
1656.97241	50505.8375
1660.25446	39946.1375
1663.53433	31636.9375
1666.81203	26116.9375
1670.08756	22822.1375
1673.36092	20806.0375
1676.63211	19559.4375
1679.90115	18701.1375
1683.16801	18065.6375
1686.43272	17630.2375
1689.69527	17318.0375
1692.95567	17054.5375
1696.2139	16831.7375
1699.46999	16694.9375
1702.72392	16573.8375
1705.97571	16451.1375
1709.22535	16342.5375
1712.47284	16241.5375
1715.71819	16171.7375
1718.96139	16062.1375
1722.20246	15952.5375
1725.44139	15780.7375
1728.67818	15600.7375
1731.91284	15438.1375
1735.14537	15308.8375
1738.37576	15159.4375
1741.60403	15036.9375
1744.83017	14976.4375
1748.05418	14900.1375
1751.27607	14839.2375
1754.49584	14797.7375
1757.71349	14727.4375
1760.92903	14709.8375
1764.14244	14679.3375
1767.35375	14654.3375
1770.56294	14605.6375
1773.77002	14568.9375
1776.97499	14536.6375
1780.17785	14478.0375
1783.37861	14451.0375
1786.57727	14365.9375
1789.77382	14323.5375
1792.96828	14259.2375
1796.16064	14253.9375
1799.3509	14196.5375
1802.53907	14144.7375
1805.72514	14074.4375
1808.90913	14001.3375
1812.09102	13975.7375
1815.27083	13909.4375
1818.44856	13886.8375
1821.6242	13868.3375
1824.79776	13790.4375
1827.96924	13774.1375
1831.13864	13752.9375
1834.30597	13761.2375
1837.47122	13741.0375
1840.6344	13731.8375
1843.7955	13748.5375
1846.95454	13738.4375
1850.11151	13751.5375
1853.26642	13693.4375
1856.41926	13688.7375
1859.57004	13670.0375
1862.71876	13619.1375
1865.86542	13587.5375
1869.01003	13573.5375
1872.15258	13538.0375
1875.29308	13503.4375
1878.43152	13479.3375
1881.56792	13460.8375
1884.70227	13436.8375
1887.83457	13436.2375
1890.96482	13452.7375
1894.09304	13400.7375
1897.21921	13349.8375
1900.34335	13357.2375
1903.46544	13310.8375
1906.58551	13291.2375
1909.70353	13245.8375
1912.81953	13222.4375
1915.93349	13191.4375
1919.04543	13171.1375
1922.15534	13115.7375
1925.26322	13049.8375
1928.36908	13006.1375
1931.47292	12948.4375
1934.57473	12901.4375
1937.67453	12845.7375
1940.77232	12785.0375
1943.86808	12719.5375
1946.96184	12699.5375
1950.05358	12673.4375
1953.14331	12673.6375
1956.23103	12603.8375
1959.31675	12578.4375
1962.40046	12518.2375
1965.48217	12466.1375
1968.56188	12447.6375
1971.63959	12389.4375
1974.7153	12324.3375
1977.78901	12301.2375
1980.86073	12248.1375
1983.93046	12207.8375
1986.99819	12136.8375
1990.06394	12092.4375
1993.1277	12071.6375
1996.18947	12024.4375
1999.24925	11985.7375
2002.30706	11923.1375
2005.36288	11878.6375
2008.41672	11852.7375
2011.46859	11793.9375
2014.51848	11741.2375
2017.56639	11763.5375
2020.61233	11720.8375
2023.6563	11667.6375
2026.6983	11638.0375
2029.73833	11603.6375
2032.7764	11596.8375
2035.8125	11569.3375
2038.84664	11520.7375
2041.87881	11489.4375
2044.90903	11471.2375
2047.93729	11477.3375
2050.96359	11451.4375
2053.98794	11410.1375
2057.01034	11409.5375
2060.03078	11417.0375
2063.04927	11414.1375
2066.06582	11381.4375
2069.08042	11378.5375
2072.09307	11358.4375
2075.10378	11346.5375
2078.11255	11336.7375
2081.11938	11322.7375
2084.12426	11277.2375
2087.12722	11271.5375
2090.12824	11274.6375
2093.12732	11276.5375
2096.12447	11262.9375
2099.11969	11249.1375
2102.11299	11251.0375
2105.10435	11275.1375
2108.09379	11254.9375
2111.08131	11267.0375
2114.0669	11259.3375
2117.05057	11308.0375
2120.03233	11276.1375
2123.01216	11278.8375
2125.99008	11286.7375
2128.96609	11283.6375
2131.94018	11291.7375
2134.91236	11249.2375
2137.88263	11276.8375
2140.851	11246.4375
2143.81746	11247.1375
2146.78201	11217.1375
2149.74466	11222.6375
2152.7054	11191.0375
2155.66425	11181.8375
2158.6212	11189.3375
2161.57625	11153.5375
2164.52941	11125.7375
2167.48067	11126.3375
2170.43004	11119.0375
2173.37752	11101.3375
2176.32311	11108.1375
2179.26681	11108.4375
2182.20863	11091.8375
2185.14856	11109.3375
2188.08661	11096.5375
2191.02278	11074.1375
2193.95707	11078.9375
2196.88948	11058.2375
2199.82001	11005.3375
2202.74867	10982.5375
2205.67545	10972.1375
2208.60037	10956.4375
2211.52341	10950.2375
2214.44458	10936.4375
2217.36388	10908.0375
2220.28132	10867.6375
2223.1969	10863.0375
2226.11061	10882.3375
2229.02246	10862.1375
2231.93245	10856.8375
2234.84058	10811.8375
2237.74686	10808.2375
2240.65128	10789.2375
2243.55385	10748.9375
2246.45456	10723.9375
2249.35343	10712.6375
2252.25044	10668.0375
2255.14561	10613.6375
2258.03893	10604.7375
2260.93041	10580.8375
2263.82004	10559.2375
2266.70783	10552.0375
2269.59378	10489.4375
2272.4779	10450.0375
2275.36017	10405.7375
2278.24061	10403.2375
2281.11922	10380.1375
2283.996	10393.7375
2286.87094	10373.6375
2289.74405	10355.7375
2292.61534	10320.9375
2295.4848	10295.6375
2298.35243	10310.3375
2301.21824	10300.2375
2304.08223	10303.6375
2306.94439	10271.0375
2309.80474	10281.4375
2312.66327	10268.5375
2315.51999	10250.8375
2318.37489	10263.0375
2321.22797	10235.0375
2324.07925	10217.2375
2326.92871	10218.9375
2329.77637	10203.3375
2332.62222	10205.0375
2335.46626	10192.1375
2338.3085	10200.6375
2341.14893	10189.2375
2343.98756	10202.5375
2346.8244	10185.1375
2349.65943	10233.0375
2352.49267	10233.6375
2355.32411	10242.1375
2358.15376	10224.7375
2360.98161	10243.9375
2363.80768	10232.9375
2366.63195	10241.4375
2369.45444	10209.1375
2372.27514	10215.7375
2375.09405	10173.4375
2377.91118	10150.9375
2380.72652	10116.3375
2383.54009	10083.1375
2386.35187	10049.9375
2389.16188	10030.8375
2391.97011	9982.4375
2394.77657	9966.5375
2397.58125	9950.3375
2400.38416	9931.9375
2403.18529	9903.3375
2405.98466	9885.9375
2408.78226	9869.9375
2411.57809	9861.0375
2414.37216	9854.0375
2417.16446	9842.0375
2419.955	9825.0375
2422.74378	9842.4375
2425.5308	9804.4375
2428.31606	9817.6375
2431.09956	9783.4375
2433.88131	9802.2375
2436.6613	9812.7375
2439.43954	9816.3375
2442.21603	9846.2375
2444.99077	9807.4375
2447.76377	9810.3375
2450.53501	9806.6375
2453.30451	9815.5375
2456.07226	9786.8375
2458.83827	9807.0375
2461.60254	9812.3375
2464.36507	9817.3375
2467.12586	9825.4375
2469.88492	9813.6375
2472.64224	9816.8375
2475.39782	9841.9375
2478.15167	9854.4375
2480.90379	9848.0375
2483.65417	9864.9375
2486.40283	9856.7375
2489.14976	9877.2375
2491.89497	9858.3375
2494.63845	9875.4375
2497.3802	9870.4375
2500.12024	9852.9375
2502.85855	9848.8375
2505.59514	9830.8375
2508.33002	9803.6375
2511.06318	9807.9375
2513.79462	9781.3375
2516.52435	9773.6375
2519.25237	9769.6375
2521.97867	9754.7375
2524.70327	9754.6375
2527.42616	9729.5375
2530.14734	9758.6375
2532.86681	9738.3375
2535.58458	9759.5375
2538.30065	9712.2375
2541.01501	9711.1375
2543.72768	9731.2375
2546.43864	9696.6375
2549.14791	9691.7375
2551.85548	9663.7375
2554.56136	9687.9375
2557.26554	9661.9375
2559.96803	9676.9375
2562.66883	9665.3375
2565.36794	9689.1375
2568.06536	9666.6375
2570.7611	9672.5375
2573.45514	9663.9375
2576.14751	9672.8375
2578.83819	9639.3375
2581.52719	9643.5375
2584.21451	9654.2375
2586.90015	9669.2375
2589.58411	9639.5375
2592.2664	9655.9375
2594.94701	9645.0375
2597.62594	9663.5375
2600.30321	9637.8375
2602.9788	9639.9375
2605.65273	9625.0375
2608.32498	9669.4375
2610.99557	9678.3375
2613.66449	9682.2375
2616.33175	9641.9375
2618.99734	9653.8375
2621.66128	9655.9375
2624.32355	9649.6375
2626.98416	9624.9375
2629.64311	9628.2375
2632.30041	9620.2375
2634.95605	9622.7375
2637.61004	9597.9375
2640.26238	9599.5375
2642.91306	9612.3375
2645.56209	9607.6375
2648.20948	9621.7375
2650.85521	9629.6375
2653.4993	9629.8375
2656.14175	9638.3375
2658.78255	9637.6375
2661.42171	9629.6375
2664.05923	9646.7375
2666.6951	9661.1375
2669.32934	9653.1375
2671.96194	9691.0375
2674.59291	9701.3375
2677.22224	9686.4375
2679.84993	9709.0375
2682.476	9661.3375
2685.10043	9673.9375
2687.72324	9650.7375
2690.34441	9638.2375
2692.96396	9657.4375
2695.58188	9649.4375
2698.19818	9620.1375
2700.81285	9640.9375
2703.4259	9637.2375
2706.03733	9627.8375
2708.64714	9641.6375
2711.25533	9652.1375
2713.86191	9658.5375
2716.46687	9680.1375
2719.07021	9664.1375
2721.67194	9672.6375
2724.27206	9700.1375
2726.87057	9699.4375
2729.46747	9718.6375
2732.06276	9728.0375
2734.65644	9726.6375
2737.24852	9749.0375
2739.83899	9719.5375
2742.42786	9750.3375
2745.01513	9742.9375
2747.60079	9722.0375
2750.18486	9700.8375
2752.76733	9674.5375
2755.3482	9668.1375
2757.92747	9673.5375
2760.50515	9649.1375
2763.08123	9683.8375
2765.65573	9707.3375
2768.22863	9672.4375
2770.79994	9674.2375
2773.36967	9674.0375
2775.9378	9677.7375
2778.50435	9708.2375
2781.06932	9700.8375
2783.6327	9703.6375
2786.1945	9717.4375
2788.75471	9700.7375
2791.31335	9717.4375
2793.87041	9691.7375
2796.42589	9708.9375
2798.97979	9690.8375
2801.53212	9685.6375
2804.08288	9671.0375
2806.63206	9660.2375
2809.17967	9637.5375
2811.72571	9617.7375
2814.27018	9652.1375
2816.81308	9620.1375
2819.35442	9592.0375
2821.89419	9587.5375
2824.43239	9570.4375
2826.96904	9563.6375
2829.50412	9574.1375
2832.03763	9536.1375
2834.56959	9533.9375
2837.1	9532.4375
2839.62884	9541.2375
2842.15613	9563.7375
2844.68186	9575.3375
2847.20604	9575.9375
2849.72867	9592.0375
2852.24974	9582.0375
2854.76927	9606.2375
2857.28724	9606.6375
2859.80367	9616.7375
2862.31855	9612.6375
2864.83189	9602.8375
2867.34368	9570.9375
2869.85393	9573.7375
2872.36264	9543.3375
2874.8698	9539.4375
2877.37543	9534.3375
2879.87952	9548.0375
2882.38207	9568.2375
2884.88308	9557.5375
2887.38256	9575.0375
2889.88051	9617.1375
2892.37692	9622.6375
2894.8718	9617.6375
2897.36515	9613.0375
2899.85698	9631.1375
2902.34727	9660.5375
2904.83604	9671.5375
2907.32328	9686.9375
2909.809	9658.3375
2912.29319	9675.1375
2914.77587	9679.6375
2917.25702	9673.4375
2919.73665	9650.3375
2922.21476	9656.7375
2924.69136	9659.4375
2927.16644	9662.8375
2929.64	9658.2375
2932.11205	9631.6375
2934.58258	9600.6375
2937.05161	9620.1375
2939.51912	9615.8375
2941.98513	9594.7375
2944.44962	9556.1375
2946.91261	9510.2375
2949.37409	9514.3375
2951.83407	9473.5375
2954.29254	9444.8375
2956.74951	9419.6375
2959.20498	9412.9375
2961.65895	9357.7375
2964.11142	9366.8375
2966.56239	9335.1375
2969.01186	9343.1375
2971.45984	9291.9375
2973.90632	9274.1375
2976.35131	9298.4375
2978.7948	9240.2375
2981.23681	9226.5375
2983.67732	9186.6375
2986.11635	9154.9375
2988.55388	9104.1375
2990.98993	9090.0375
2993.4245	9062.8375
2995.85758	9032.8375
2998.28917	8992.9375
3000.71928	8974.4375
3003.14791	8961.1375
3005.57506	8931.1375
3008.00073	8908.6375
3010.42493	8885.5375
3012.84764	8885.0375
3015.26888	8861.3375
3017.68865	8827.6375
3020.10694	8808.9375
3022.52376	8767.8375
3024.9391	8753.2375
3027.35298	8742.1375
3029.76539	8758.8375
3032.17632	8760.6375
3034.5858	8757.1375
3036.9938	8758.6375
3039.40034	8744.3375
3041.80542	8737.6375
3044.20903	8731.7375
3046.61118	8734.8375
3049.01187	8704.2375
3051.4111	8692.3375
3053.80888	8664.9375
3056.20519	8662.4375
3058.60005	8606.6375
3060.99345	8566.1375
3063.3854	8529.2375
3065.7759	8503.1375
3068.16494	8469.8375
3070.55254	8443.5375
3072.93868	8409.8375
3075.32338	8366.7375
3077.70662	8337.0375
3080.08842	8305.3375
3082.46878	8307.4375
3084.84769	8291.7375
3087.22515	8283.5375
3089.60118	8257.8375
3091.97576	8251.5375
3094.3489	8262.0375
3096.72061	8256.3375
3099.09087	8236.2375
3101.4597	8208.6375
3103.82709	8212.3375
3106.19305	8241.0375
3108.55757	8246.6375
3110.92066	8193.6375
3113.28232	8157.5375
3115.64255	8145.8375
3118.00134	8130.9375
3120.35871	8124.9375
3122.71466	8112.8375
3125.06917	8086.1375
3127.42226	8056.2375
3129.77393	8061.5375
3132.12417	8061.6375
3134.47299	8066.5375
3136.82039	8031.5375
3139.16636	8047.9375
3141.51092	8026.8375
3143.85406	8016.8375
3146.19579	8016.3375
3148.53609	8011.3375
3150.87499	8019.8375
3153.21246	8005.2375
3155.54853	8001.8375
3157.88318	8018.7375
3160.21642	8027.0375
3162.54826	8019.3375
3164.87868	8030.6375
3167.2077	8009.0375
3169.5353	8014.0375
3171.86151	8042.3375
3174.18631	8010.3375
3176.5097	7999.1375
3178.83169	8010.8375
3181.15228	8011.2375
3183.47147	7997.4375
3185.78926	7962.3375
3188.10565	7962.3375
3190.42065	7967.0375
3192.73424	7944.0375
3195.04645	7940.1375
3197.35725	7920.1375
3199.66667	7902.9375
3201.97469	7909.9375
3204.28132	7872.4375
3206.58656	7886.9375
3208.8904	7903.1375
3211.19287	7890.4375
3213.49394	7875.5375
3215.79363	7890.8375
3218.09193	7894.0375
3220.38884	7897.8375
3222.68438	7910.0375
3224.97853	7907.5375
3227.2713	7904.5375
3229.56269	7896.7375
3231.8527	7893.2375
3234.14133	7878.7375
3236.42858	7891.8375
3238.71446	7873.8375
3240.99896	7850.8375
3243.28209	7831.9375
3245.56384	7835.8375
3247.84423	7830.5375
3250.12324	7798.1375
3252.40088	7810.9375
3254.67715	7754.8375
3256.95205	7735.4375
3259.22558	7751.5375
3261.49775	7726.5375
3263.76855	7726.7375
3266.03799	7692.9375
3268.30606	7688.3375
3270.57277	7679.9375
3272.83812	7659.7375
3275.10211	7624.9375
3277.36474	7626.6375
3279.62601	7632.0375
3281.88593	7609.4375
3284.14448	7641.7375
3286.40168	7633.7375
3288.65753	7634.5375
3290.91202	7642.2375
3293.16516	7626.0375
3295.41695	7595.5375
3297.66738	7545.7375
3299.91647	7510.8375
3302.16421	7453.4375
3304.4106	7409.6375
3306.65564	7353.9375
3308.89933	7300.2375
3311.14169	7224.4375
3313.38269	7149.8375
3315.62236	7074.8375
3317.86068	7032.2375
3320.09766	6956.3375
3322.3333	6900.9375
3324.5676	6868.8375
3326.80056	6776.3375
3329.03219	6719.9375
3331.26248	2.3375
3333.49143	-1.1625
3335.71905	-0.4625
