Data from AgNPs_FTO_APTES_UA_5uM_CRN_500uM_R6G_10uM_NaF_0.1M_Addition_RamanShift__13__16-55-51-826.txt Node

Date: Mon Feb 07 16:55:51 GMT 2022
User: TCL
Spectrometer: QEP01345
Trigger mode: 4
Integration Time (sec): 7.000000E0
Scans to average: 10
Electric dark correction enabled: true
Nonlinearity correction enabled: false
Boxcar width: 0
XAxis mode: Raman Shifts
Number of Pixels in Spectrum: 1044
>>>>>Begin Spectral Data<<<<<
46.04893	-1.3125
50.45542	0.4875
54.85868	0.0875
59.25871	-0.6125
63.6555	56.3875
68.04907	60.8875
72.43941	63.4875
76.82654	62.4875
81.21044	65.4875
85.59113	66.4875
89.96862	73.2875
94.34289	73.3875
98.71396	73.6875
103.08183	79.2875
107.4465	80.8875
111.80798	85.2875
116.16626	81.8875
120.52136	89.9875
124.87327	92.8875
129.222	98.3875
133.56755	103.8875
137.90993	114.1875
142.24913	127.1875
146.58517	139.8875
150.91804	166.8875
155.24774	205.8875
159.57429	251.0875
163.89768	322.2875
168.21792	435.5875
172.53501	592.2875
176.84895	825.0875
181.15975	1161.0875
185.46741	1645.0875
189.77193	2276.0875
194.07331	3063.5875
198.37157	3953.8875
202.6667	4889.8875
206.9587	5831.0875
211.24758	6750.6875
215.53334	7678.0875
219.81599	8629.2875
224.09553	9659.2875
228.37195	10803.6875
232.64527	12026.3875
236.91549	13357.5875
241.18261	14734.0875
245.44663	16009.5875
249.70755	17187.9875
253.96539	18236.7875
258.22014	19094.5875
262.4718	19763.1875
266.72039	20246.1875
270.96589	20518.0875
275.20832	20574.8875
279.44768	20532.8875
283.68397	20459.1875
287.91719	20369.3875
292.14735	20336.7875
296.37445	20340.5875
300.59849	20391.4875
304.81948	20453.2875
309.03742	20380.1875
313.25231	20143.3875
317.46415	19731.8875
321.67296	19232.6875
325.87872	18795.5875
330.08145	18557.4875
334.28114	18533.2875
338.47781	18618.7875
342.67145	18777.4875
346.86207	18969.5875
351.04966	19210.7875
355.23424	19396.0875
359.4158	19559.3875
363.59435	19747.4875
367.76989	19837.6875
371.94243	19966.5875
376.11196	20019.6875
380.27849	19985.7875
384.44203	20078.0875
388.60257	20243.6875
392.76012	20458.8875
396.91468	20734.3875
401.06626	21072.1875
405.21485	21266.7875
409.36047	21223.0875
413.50311	21015.6875
417.64277	20819.2875
421.77947	20802.8875
425.9132	20863.1875
430.04396	20956.0875
434.17176	21110.2875
438.2966	21281.3875
442.41849	21527.8875
446.53742	21904.6875
450.6534	22365.1875
454.76644	22635.9875
458.87653	22831.1875
462.98368	22833.8875
467.08789	22824.6875
471.18916	22732.9875
475.2875	22594.5875
479.38291	22547.5875
483.4754	22511.8875
487.56496	22339.7875
491.6516	22082.9875
495.73531	21753.6875
499.81612	21505.9875
503.89401	21488.8875
507.96899	21523.4875
512.04106	21524.2875
516.11023	21483.2875
520.1765	21368.8875
524.23987	21207.2875
528.30034	20973.5875
532.35792	20812.9875
536.41261	20628.1875
540.46441	20537.6875
544.51333	20598.9875
548.55936	20853.2875
552.60252	21243.6875
556.64279	21717.0875
560.6802	22040.2875
564.71473	22317.0875
568.7464	22729.0875
572.7752	23448.2875
576.80114	24193.9875
580.82422	24838.0875
584.84444	25223.3875
588.86181	25507.8875
592.87633	25688.2875
596.888	25544.0875
600.89682	25044.6875
604.9028	24822.1875
608.90594	25509.8875
612.90624	26420.5875
616.90371	25084.3875
620.89834	22291.0875
624.89015	21086.4875
628.87913	21041.1875
632.86528	21271.3875
636.84862	21373.8875
640.82913	21152.3875
644.80683	20757.0875
648.78172	20442.6875
652.75379	20354.2875
656.72306	20439.1875
660.68952	20628.6875
664.65319	20630.4875
668.61405	20477.0875
672.57211	20444.0875
676.52738	20461.4875
680.47986	20478.5875
684.42955	20450.4875
688.37646	20396.0875
692.32058	20399.8875
696.26192	20523.1875
700.20048	20680.2875
704.13626	20841.1875
708.06928	20984.1875
711.99952	20996.4875
715.927	20942.1875
719.85171	20853.4875
723.77365	20712.8875
727.69284	20481.9875
731.60928	20275.7875
735.52295	20161.4875
739.43388	20099.5875
743.34206	20120.9875
747.24749	20215.0875
751.15017	20405.6875
755.05012	20738.2875
758.94733	21181.6875
762.8418	22038.2875
766.73354	23289.8875
770.62254	24448.7875
774.50882	24585.9875
778.39237	23700.9875
782.27321	22384.3875
786.15132	21311.2875
790.02671	20628.1875
793.89938	20195.0875
797.76935	20041.9875
801.6366	19892.4875
805.50115	19861.8875
809.36299	19752.3875
813.22213	19705.0875
817.07857	19676.9875
820.93231	19724.0875
824.78336	19656.9875
828.63172	19585.7875
832.47738	19562.4875
836.32036	19486.6875
840.16066	19455.4875
843.99827	19399.8875
847.8332	19436.7875
851.66546	19460.8875
855.49504	19450.4875
859.32195	19475.5875
863.1462	19414.3875
866.96777	19427.6875
870.78668	19355.9875
874.60293	19386.3875
878.41652	19409.3875
882.22745	19428.1875
886.03573	19456.1875
889.84136	19482.2875
893.64433	19433.0875
897.44466	19418.2875
901.24235	19413.0875
905.0374	19374.9875
908.8298	19341.2875
912.61957	19392.9875
916.40671	19628.2875
920.19121	19891.1875
923.97308	20074.2875
927.75233	19938.5875
931.52895	19736.3875
935.30295	19414.5875
939.07433	19106.5875
942.84309	18871.9875
946.60924	18707.0875
950.37278	18600.4875
954.13371	18570.4875
957.89203	18555.7875
961.64774	18532.1875
965.40086	18530.0875
969.15137	18486.7875
972.89929	18373.2875
976.64461	18344.8875
980.38733	18276.7875
984.12747	18244.3875
987.86502	18273.5875
991.59999	18337.6875
995.33237	18398.3875
999.06217	18508.9875
1002.78939	18631.5875
1006.51404	18847.0875
1010.23611	19049.6875
1013.95561	19234.8875
1017.67255	19274.2875
1021.38692	19185.6875
1025.09872	19017.1875
1028.80796	18889.5875
1032.51465	18814.1875
1036.21877	18821.3875
1039.92035	18918.2875
1043.61937	19029.6875
1047.31584	19092.9875
1051.00976	19190.8875
1054.70114	19295.8875
1058.38998	19417.5875
1062.07627	19662.5875
1065.76003	19972.8875
1069.44126	20172.1875
1073.11995	20387.1875
1076.79611	20582.4875
1080.46974	20640.9875
1084.14085	20647.4875
1087.80943	20735.9875
1091.47549	20892.7875
1095.13903	21015.9875
1098.80005	20927.9875
1102.45857	20553.5875
1106.11456	20129.8875
1109.76805	19851.6875
1113.41903	19759.4875
1117.06751	19803.1875
1120.71348	19963.3875
1124.35696	20189.4875
1127.99793	20492.1875
1131.63641	20660.1875
1135.2724	20562.5875
1138.90589	20424.5875
1142.5369	20445.6875
1146.16542	20530.1875
1149.79145	20725.8875
1153.415	20928.0875
1157.03607	21214.8875
1160.65467	21699.4875
1164.27079	22377.0875
1167.88443	23196.3875
1171.49561	24100.7875
1175.10432	25172.6875
1178.71056	26540.9875
1182.31434	27870.0875
1185.91565	28754.3875
1189.51451	29116.1875
1193.11091	28989.9875
1196.70485	28414.4875
1200.29634	27617.9875
1203.88538	26895.0875
1207.47197	26409.5875
1211.05612	26094.0875
1214.63782	25736.1875
1218.21708	25120.5875
1221.79391	24395.2875
1225.36829	23749.2875
1228.94024	23314.8875
1232.50976	23050.1875
1236.07685	22949.5875
1239.6415	22836.8875
1243.20374	22856.8875
1246.76355	23006.0875
1250.32093	23216.8875
1253.8759	23533.5875
1257.42845	24005.2875
1260.97859	24548.1875
1264.52631	25065.0875
1268.07163	25558.9875
1271.61453	26099.4875
1275.15503	26694.5875
1278.69312	27303.4875
1282.22882	27933.8875
1285.76211	28747.0875
1289.29301	29603.2875
1292.82151	30742.0875
1296.34761	32008.6875
1299.87133	33445.9875
1303.39266	34809.7875
1306.9116	35945.3875
1310.42815	36811.2875
1313.94233	37078.7875
1317.45412	36927.5875
1320.96354	36713.3875
1324.47058	36620.4875
1327.97525	36510.0875
1331.47754	36620.1875
1334.97747	36825.5875
1338.47502	36966.0875
1341.97022	37175.3875
1345.46305	37428.1875
1348.95352	37410.6875
1352.44163	37059.1875
1355.92738	36798.1875
1359.41078	36843.2875
1362.89183	36951.2875
1366.37053	36193.0875
1369.84688	34155.4875
1373.32088	31589.1875
1376.79254	29770.2875
1380.26186	28981.0875
1383.72883	28814.8875
1387.19347	28852.9875
1390.65578	28782.3875
1394.11575	28700.7875
1397.57339	28723.8875
1401.0287	28759.0875
1404.48168	28740.1875
1407.93234	28493.6875
1411.38068	27846.7875
1414.82669	26926.7875
1418.27039	25845.8875
1421.71177	24859.6875
1425.15083	24054.1875
1428.58758	23585.0875
1432.02203	23608.5875
1435.45416	23912.0875
1438.88399	24354.0875
1442.31151	24770.5875
1445.73673	25054.2875
1449.15965	25421.5875
1452.58027	25801.7875
1455.9986	26127.0875
1459.41463	26451.9875
1462.82837	26793.8875
1466.23982	27140.8875
1469.64898	27460.8875
1473.05586	27634.3875
1476.46045	27666.8875
1479.86276	27601.9875
1483.26279	27530.0875
1486.66054	27487.4875
1490.05602	27695.7875
1493.44922	28154.4875
1496.84016	28671.5875
1500.22882	29611.8875
1503.61521	30732.4875
1506.99934	31736.4875
1510.38121	32545.3875
1513.76081	32737.7875
1517.13816	32309.1875
1520.51324	31701.2875
1523.88607	31226.5875
1527.25665	30976.0875
1530.62498	30820.0875
1533.99105	30533.9875
1537.35488	30032.9875
1540.71647	29291.4875
1544.07581	28436.8875
1547.4329	27602.7875
1550.78776	26948.6875
1554.14038	26418.0875
1557.49077	26192.8875
1560.83892	26111.3875
1564.18484	26193.8875
1567.52853	26252.5875
1570.86999	26487.3875
1574.20922	26918.6875
1577.54624	27226.1875
1580.88103	27300.5875
1584.2136	27256.8875
1587.54395	27460.4875
1590.87208	28058.0875
1594.19801	28950.8875
1597.52172	29883.8875
1600.84321	30035.3875
1604.16251	29119.9875
1607.47959	27569.1875
1610.79447	25996.2875
1614.10715	24388.1875
1617.41763	22922.2875
1620.7259	21813.8875
1624.03199	21146.4875
1627.33587	20915.2875
1630.63757	21195.6875
1633.93707	21944.9875
1637.23439	23393.0875
1640.52951	25678.6875
1643.82246	28514.1875
1647.11321	31142.2875
1650.40179	32480.0875
1653.68819	31728.9875
1656.97241	29080.0875
1660.25446	25815.0875
1663.53433	22855.6875
1666.81203	20650.3875
1670.08756	19178.3875
1673.36092	18231.0875
1676.63211	17586.3875
1679.90115	17157.8875
1683.16801	16887.9875
1686.43272	16637.6875
1689.69527	16454.6875
1692.95567	16322.6875
1696.2139	16208.4875
1699.46999	16096.4875
1702.72392	16005.6875
1705.97571	15968.2875
1709.22535	15929.0875
1712.47284	15888.5875
1715.71819	15844.6875
1718.96139	15824.2875
1722.20246	15756.3875
1725.44139	15681.0875
1728.67818	15582.4875
1731.91284	15527.2875
1735.14537	15428.1875
1738.37576	15360.7875
1741.60403	15278.5875
1744.83017	15213.2875
1748.05418	15197.1875
1751.27607	15165.1875
1754.49584	15135.9875
1757.71349	15107.7875
1760.92903	15103.8875
1764.14244	15100.6875
1767.35375	15092.7875
1770.56294	15030.3875
1773.77002	14986.6875
1776.97499	14939.7875
1780.17785	14911.0875
1783.37861	14876.5875
1786.57727	14840.6875
1789.77382	14801.9875
1792.96828	14759.8875
1796.16064	14760.1875
1799.3509	14697.4875
1802.53907	14666.7875
1805.72514	14628.7875
1808.90913	14506.6875
1812.09102	14520.2875
1815.27083	14460.4875
1818.44856	14443.3875
1821.6242	14411.2875
1824.79776	14396.1875
1827.96924	14373.3875
1831.13864	14320.9875
1834.30597	14339.1875
1837.47122	14288.5875
1840.6344	14299.7875
1843.7955	14295.3875
1846.95454	14279.5875
1850.11151	14244.2875
1853.26642	14220.5875
1856.41926	14194.3875
1859.57004	14211.2875
1862.71876	14168.6875
1865.86542	14149.9875
1869.01003	14107.3875
1872.15258	14109.0875
1875.29308	14083.3875
1878.43152	14038.7875
1881.56792	14011.3875
1884.70227	13990.4875
1887.83457	13952.6875
1890.96482	13949.9875
1894.09304	13900.0875
1897.21921	13906.0875
1900.34335	13850.1875
1903.46544	13815.3875
1906.58551	13800.5875
1909.70353	13763.9875
1912.81953	13736.8875
1915.93349	13712.5875
1919.04543	13672.1875
1922.15534	13664.2875
1925.26322	13610.0875
1928.36908	13608.9875
1931.47292	13583.3875
1934.57473	13520.6875
1937.67453	13522.6875
1940.77232	13449.1875
1943.86808	13397.6875
1946.96184	13343.3875
1950.05358	13296.3875
1953.14331	13262.0875
1956.23103	13204.8875
1959.31675	13156.1875
1962.40046	13126.4875
1965.48217	13088.3875
1968.56188	13063.3875
1971.63959	12983.5875
1974.7153	12970.9875
1977.78901	12936.5875
1980.86073	12883.0875
1983.93046	12820.9875
1986.99819	12786.2875
1990.06394	12740.6875
1993.1277	12717.5875
1996.18947	12640.1875
1999.24925	12628.3875
2002.30706	12539.7875
2005.36288	12513.9875
2008.41672	12483.2875
2011.46859	12447.0875
2014.51848	12379.1875
2017.56639	12345.2875
2020.61233	12307.8875
2023.6563	12269.9875
2026.6983	12202.2875
2029.73833	12183.0875
2032.7764	12140.8875
2035.8125	12093.4875
2038.84664	12083.6875
2041.87881	12074.8875
2044.90903	12012.9875
2047.93729	11979.0875
2050.96359	11987.5875
2053.98794	11955.7875
2057.01034	11955.9875
2060.03078	11935.4875
2063.04927	11938.4875
2066.06582	11931.4875
2069.08042	11947.1875
2072.09307	11898.7875
2075.10378	11870.2875
2078.11255	11865.5875
2081.11938	11847.9875
2084.12426	11854.3875
2087.12722	11834.4875
2090.12824	11784.7875
2093.12732	11830.5875
2096.12447	11819.7875
2099.11969	11786.5875
2102.11299	11765.3875
2105.10435	11808.3875
2108.09379	11795.9875
2111.08131	11790.8875
2114.0669	11803.2875
2117.05057	11824.3875
2120.03233	11811.2875
2123.01216	11829.7875
2125.99008	11812.2875
2128.96609	11796.0875
2131.94018	11784.9875
2134.91236	11794.1875
2137.88263	11809.9875
2140.851	11834.2875
2143.81746	11815.9875
2146.78201	11780.9875
2149.74466	11779.5875
2152.7054	11786.3875
2155.66425	11777.5875
2158.6212	11738.3875
2161.57625	11742.7875
2164.52941	11723.0875
2167.48067	11694.7875
2170.43004	11729.4875
2173.37752	11689.1875
2176.32311	11706.4875
2179.26681	11687.4875
2182.20863	11666.0875
2185.14856	11677.3875
2188.08661	11708.5875
2191.02278	11709.0875
2193.95707	11656.5875
2196.88948	11614.4875
2199.82001	11616.1875
2202.74867	11583.5875
2205.67545	11584.3875
2208.60037	11539.0875
2211.52341	11570.2875
2214.44458	11496.1875
2217.36388	11457.7875
2220.28132	11433.1875
2223.1969	11396.6875
2226.11061	11380.8875
2229.02246	11377.2875
2231.93245	11353.9875
2234.84058	11303.0875
2237.74686	11251.0875
2240.65128	11270.1875
2243.55385	11251.1875
2246.45456	11265.3875
2249.35343	11215.1875
2252.25044	11197.0875
2255.14561	11153.2875
2258.03893	11131.4875
2260.93041	11081.6875
2263.82004	11075.4875
2266.70783	11047.4875
2269.59378	10985.3875
2272.4779	10965.2875
2275.36017	10914.8875
2278.24061	10925.8875
2281.11922	10878.1875
2283.996	10883.8875
2286.87094	10861.4875
2289.74405	10794.0875
2292.61534	10809.4875
2295.4848	10789.4875
2298.35243	10765.2875
2301.21824	10771.5875
2304.08223	10765.5875
2306.94439	10773.2875
2309.80474	10747.2875
2312.66327	10729.0875
2315.51999	10696.4875
2318.37489	10693.7875
2321.22797	10642.8875
2324.07925	10636.6875
2326.92871	10604.6875
2329.77637	10623.1875
2332.62222	10580.5875
2335.46626	10579.8875
2338.3085	10546.8875
2341.14893	10536.7875
2343.98756	10529.2875
2346.8244	10497.1875
2349.65943	10488.7875
2352.49267	10471.9875
2355.32411	10466.0875
2358.15376	10471.7875
2360.98161	10459.7875
2363.80768	10479.6875
2366.63195	10449.2875
2369.45444	10447.7875
2372.27514	10418.8875
2375.09405	10401.4875
2377.91118	10353.5875
2380.72652	10355.1875
2383.54009	10353.8875
2386.35187	10325.2875
2389.16188	10279.9875
2391.97011	10240.2875
2394.77657	10225.1875
2397.58125	10198.2875
2400.38416	10167.1875
2403.18529	10136.6875
2405.98466	10146.1875
2408.78226	10131.2875
2411.57809	10111.5875
2414.37216	10088.7875
2417.16446	10116.2875
2419.955	10064.1875
2422.74378	10060.8875
2425.5308	10036.1875
2428.31606	10041.2875
2431.09956	9993.3875
2433.88131	9998.7875
2436.6613	10027.0875
2439.43954	10015.9875
2442.21603	9984.6875
2444.99077	9944.6875
2447.76377	9948.4875
2450.53501	9939.7875
2453.30451	9916.9875
2456.07226	9914.2875
2458.83827	9893.1875
2461.60254	9879.1875
2464.36507	9860.8875
2467.12586	9860.0875
2469.88492	9857.9875
2472.64224	9858.9875
2475.39782	9850.5875
2478.15167	9831.0875
2480.90379	9826.1875
2483.65417	9808.1875
2486.40283	9805.4875
2489.14976	9815.5875
2491.89497	9804.9875
2494.63845	9801.4875
2497.3802	9785.3875
2500.12024	9773.1875
2502.85855	9772.2875
2505.59514	9744.5875
2508.33002	9713.0875
2511.06318	9720.3875
2513.79462	9710.1875
2516.52435	9703.0875
2519.25237	9678.0875
2521.97867	9678.1875
2524.70327	9649.2875
2527.42616	9634.2875
2530.14734	9635.3875
2532.86681	9631.7875
2535.58458	9620.3875
2538.30065	9605.3875
2541.01501	9597.9875
2543.72768	9550.6875
2546.43864	9553.7875
2549.14791	9515.5875
2551.85548	9496.2875
2554.56136	9488.8875
2557.26554	9471.1875
2559.96803	9454.4875
2562.66883	9433.8875
2565.36794	9413.5875
2568.06536	9413.9875
2570.7611	9375.5875
2573.45514	9387.7875
2576.14751	9338.3875
2578.83819	9296.5875
2581.52719	9315.0875
2584.21451	9303.7875
2586.90015	9296.5875
2589.58411	9286.2875
2592.2664	9245.7875
2594.94701	9254.6875
2597.62594	9233.2875
2600.30321	9209.3875
2602.9788	9188.6875
2605.65273	9199.5875
2608.32498	9189.5875
2610.99557	9180.0875
2613.66449	9181.0875
2616.33175	9164.1875
2618.99734	9155.9875
2621.66128	9138.6875
2624.32355	9101.4875
2626.98416	9101.7875
2629.64311	9079.2875
2632.30041	9069.5875
2634.95605	9062.5875
2637.61004	9037.8875
2640.26238	9048.8875
2642.91306	9016.3875
2645.56209	9012.0875
2648.20948	9030.9875
2650.85521	9022.7875
2653.4993	9000.9875
2656.14175	9004.8875
2658.78255	9020.7875
2661.42171	8997.7875
2664.05923	8995.7875
2666.6951	8999.4875
2669.32934	9022.5875
2671.96194	8997.6875
2674.59291	9000.0875
2677.22224	8962.6875
2679.84993	8988.2875
2682.476	8925.4875
2685.10043	8947.7875
2687.72324	8950.7875
2690.34441	8953.7875
2692.96396	8936.9875
2695.58188	8957.3875
2698.19818	8951.5875
2700.81285	8951.1875
2703.4259	8941.7875
2706.03733	8937.2875
2708.64714	8939.1875
2711.25533	8948.7875
2713.86191	8953.6875
2716.46687	8957.8875
2719.07021	8922.1875
2721.67194	8954.6875
2724.27206	8952.6875
2726.87057	8955.0875
2729.46747	8956.9875
2732.06276	8961.6875
2734.65644	8930.7875
2737.24852	8933.2875
2739.83899	8901.0875
2742.42786	8896.8875
2745.01513	8893.2875
2747.60079	8885.4875
2750.18486	8874.5875
2752.76733	8859.6875
2755.3482	8805.7875
2757.92747	8806.6875
2760.50515	8800.4875
2763.08123	8798.5875
2765.65573	8794.0875
2768.22863	8779.7875
2770.79994	8779.4875
2773.36967	8778.0875
2775.9378	8788.4875
2778.50435	8787.7875
2781.06932	8744.7875
2783.6327	8740.6875
2786.1945	8712.9875
2788.75471	8698.6875
2791.31335	8688.6875
2793.87041	8677.5875
2796.42589	8651.7875
2798.97979	8644.0875
2801.53212	8632.8875
2804.08288	8617.0875
2806.63206	8587.8875
2809.17967	8584.6875
2811.72571	8557.2875
2814.27018	8529.1875
2816.81308	8531.8875
2819.35442	8513.0875
2821.89419	8490.1875
2824.43239	8479.7875
2826.96904	8469.4875
2829.50412	8473.6875
2832.03763	8460.5875
2834.56959	8437.7875
2837.1	8434.9875
2839.62884	8452.9875
2842.15613	8458.8875
2844.68186	8494.8875
2847.20604	8551.5875
2849.72867	8530.6875
2852.24974	8512.4875
2854.76927	8504.2875
2857.28724	8481.7875
2859.80367	8492.6875
2862.31855	8448.1875
2864.83189	8433.1875
2867.34368	8425.1875
2869.85393	8413.0875
2872.36264	8405.6875
2874.8698	8419.1875
2877.37543	8391.4875
2879.87952	8355.1875
2882.38207	8374.3875
2884.88308	8369.4875
2887.38256	8359.1875
2889.88051	8352.5875
2892.37692	8354.1875
2894.8718	8347.8875
2897.36515	8354.5875
2899.85698	8330.9875
2902.34727	8366.4875
2904.83604	8345.7875
2907.32328	8362.2875
2909.809	8366.5875
2912.29319	8353.7875
2914.77587	8353.1875
2917.25702	8328.7875
2919.73665	8332.3875
2922.21476	8337.4875
2924.69136	8334.0875
2927.16644	8354.5875
2929.64	8318.6875
2932.11205	8316.9875
2934.58258	8303.7875
2937.05161	8286.7875
2939.51912	8254.0875
2941.98513	8266.9875
2944.44962	8242.3875
2946.91261	8198.3875
2949.37409	8180.9875
2951.83407	8183.7875
2954.29254	8178.2875
2956.74951	8169.2875
2959.20498	8127.9875
2961.65895	8139.8875
2964.11142	8133.9875
2966.56239	8118.7875
2969.01186	8087.7875
2971.45984	8065.0875
2973.90632	8071.1875
2976.35131	8032.0875
2978.7948	8033.3875
2981.23681	8015.1875
2983.67732	7987.9875
2986.11635	7968.7875
2988.55388	7936.0875
2990.98993	7914.0875
2993.4245	7908.1875
2995.85758	7873.9875
2998.28917	7863.4875
3000.71928	7842.9875
3003.14791	7829.6875
3005.57506	7806.8875
3008.00073	7784.4875
3010.42493	7766.2875
3012.84764	7750.7875
3015.26888	7746.8875
3017.68865	7717.6875
3020.10694	7685.2875
3022.52376	7681.4875
3024.9391	7676.6875
3027.35298	7645.2875
3029.76539	7671.5875
3032.17632	7620.1875
3034.5858	7610.5875
3036.9938	7609.9875
3039.40034	7616.0875
3041.80542	7609.2875
3044.20903	7588.6875
3046.61118	7596.1875
3049.01187	7564.5875
3051.4111	7556.8875
3053.80888	7531.6875
3056.20519	7523.8875
3058.60005	7500.2875
3060.99345	7496.2875
3063.3854	7458.8875
3065.7759	7431.5875
3068.16494	7438.9875
3070.55254	7391.9875
3072.93868	7353.2875
3075.32338	7359.6875
3077.70662	7337.7875
3080.08842	7300.1875
3082.46878	7292.9875
3084.84769	7274.3875
3087.22515	7295.4875
3089.60118	7264.2875
3091.97576	7271.4875
3094.3489	7286.3875
3096.72061	7279.5875
3099.09087	7272.6875
3101.4597	7259.3875
3103.82709	7271.6875
3106.19305	7238.9875
3108.55757	7233.2875
3110.92066	7205.6875
3113.28232	7206.1875
3115.64255	7187.6875
3118.00134	7158.1875
3120.35871	7174.5875
3122.71466	7147.4875
3125.06917	7120.6875
3127.42226	7118.4875
3129.77393	7139.1875
3132.12417	7103.5875
3134.47299	7094.6875
3136.82039	7101.3875
3139.16636	7099.4875
3141.51092	7072.5875
3143.85406	7090.3875
3146.19579	7089.3875
3148.53609	7090.9875
3150.87499	7069.8875
3153.21246	7089.1875
3155.54853	7110.4875
3157.88318	7108.2875
3160.21642	7120.5875
3162.54826	7132.0875
3164.87868	7098.2875
3167.2077	7100.1875
3169.5353	7112.5875
3171.86151	7099.2875
3174.18631	7098.6875
3176.5097	7080.2875
3178.83169	7067.3875
3181.15228	7095.1875
3183.47147	7068.4875
3185.78926	7031.9875
3188.10565	7018.2875
3190.42065	7010.5875
3192.73424	7025.4875
3195.04645	7012.4875
3197.35725	6990.3875
3199.66667	6971.2875
3201.97469	6990.2875
3204.28132	6974.4875
3206.58656	7006.1875
3208.8904	7001.0875
3211.19287	6999.9875
3213.49394	7024.1875
3215.79363	6983.9875
3218.09193	7001.8875
3220.38884	6981.5875
3222.68438	6975.8875
3224.97853	6972.2875
3227.2713	6975.0875
3229.56269	6960.4875
3231.8527	6942.4875
3234.14133	6941.7875
3236.42858	6928.4875
3238.71446	6917.1875
3240.99896	6901.5875
3243.28209	6890.0875
3245.56384	6875.5875
3247.84423	6860.8875
3250.12324	6869.2875
3252.40088	6858.6875
3254.67715	6840.4875
3256.95205	6825.1875
3259.22558	6814.2875
3261.49775	6820.0875
3263.76855	6804.3875
3266.03799	6792.6875
3268.30606	6788.9875
3270.57277	6764.9875
3272.83812	6726.5875
3275.10211	6729.6875
3277.36474	6696.6875
3279.62601	6722.2875
3281.88593	6695.8875
3284.14448	6702.4875
3286.40168	6701.6875
3288.65753	6700.3875
3290.91202	6665.2875
3293.16516	6663.2875
3295.41695	6636.8875
3297.66738	6595.0875
3299.91647	6567.1875
3302.16421	6511.1875
3304.4106	6485.8875
3306.65564	6435.3875
3308.89933	6408.7875
3311.14169	6361.1875
3313.38269	6296.0875
3315.62236	6262.3875
3317.86068	6192.6875
3320.09766	6170.6875
3322.3333	6112.1875
3324.5676	6077.1875
3326.80056	5967.1875
3329.03219	5927.2875
3331.26248	2.4875
3333.49143	-0.3125
3335.71905	-1.6125
