Data from AgNPs_FTO_APTES_UA_5uM_CRN_2uM_R6G_10uM_NaF_0.1M_Addition_RamanShift__33__11-35-26-655.txt Node

Date: Mon Feb 07 11:35:26 GMT 2022
User: TCL
Spectrometer: QEP01345
Trigger mode: 4
Integration Time (sec): 7.000000E0
Scans to average: 10
Electric dark correction enabled: true
Nonlinearity correction enabled: false
Boxcar width: 0
XAxis mode: Raman Shifts
Number of Pixels in Spectrum: 1044
>>>>>Begin Spectral Data<<<<<
46.04893	-0
50.45542	-1.2
54.85868	-0.3
59.25871	2.1
63.6555	52.6
68.04907	59.3
72.43941	63.3
76.82654	64.1
81.21044	66.7
85.59113	69
89.96862	75
94.34289	73.8
98.71396	77.2
103.08183	77
107.4465	82.9
111.80798	81.3
116.16626	81.3
120.52136	87.5
124.87327	91.2
129.222	96.2
133.56755	99.8
137.90993	109.2
142.24913	114.3
146.58517	135.5
150.91804	151.9
155.24774	181.1
159.57429	224.3
163.89768	286.4
168.21792	385.3
172.53501	522
176.84895	723.4
181.15975	1004.4
185.46741	1402.2
189.77193	1937.9
194.07331	2583.6
198.37157	3337.1
202.6667	4112.4
206.9587	4889.7
211.24758	5682.1
215.53334	6544.7
219.81599	7456.4
224.09553	8519.4
228.37195	9710.4
232.64527	10957.6
236.91549	12217.6
241.18261	13299
245.44663	14201
249.70755	14884.4
253.96539	15439.1
258.22014	16027.6
262.4718	16466.3
266.72039	16832
270.96589	17018.1
275.20832	17019.5
279.44768	16885.6
283.68397	16673.2
287.91719	16546.7
292.14735	16583.9
296.37445	16967.5
300.59849	17584.2
304.81948	18409.7
309.03742	19067.1
313.25231	19085.1
317.46415	18181.6
321.67296	16634.4
325.87872	15275.7
330.08145	14624.4
334.28114	14480.3
338.47781	14741.9
342.67145	15129.1
346.86207	15796
351.04966	16855.4
355.23424	18054.5
359.4158	18964.5
363.59435	19332.1
367.76989	19367.6
371.94243	19213.7
376.11196	19008.3
380.27849	18808.1
384.44203	18552.9
388.60257	18225.1
392.76012	18123.1
396.91468	18331.8
401.06626	18900.2
405.21485	19316.3
409.36047	18937.7
413.50311	17901.3
417.64277	16851.3
421.77947	16316.3
425.9132	16084.1
430.04396	16014.2
434.17176	16051.8
438.2966	16282.9
442.41849	16741.3
446.53742	17353.2
450.6534	18000
454.76644	18403.1
458.87653	18398.9
462.98368	18129.3
467.08789	17744.7
471.18916	17266.3
475.2875	16812.9
479.38291	16426.1
483.4754	16105.8
487.56496	15855.8
491.6516	15626.1
495.73531	15495.2
499.81612	15533
503.89401	15689.4
507.96899	15896.4
512.04106	16069.7
516.11023	16218.5
520.1765	16319.5
524.23987	16217.1
528.30034	15882
532.35792	15529
536.41261	15074
540.46441	14602.5
544.51333	14400.5
548.55936	14532
552.60252	14965.5
556.64279	15562.1
560.6802	15892.8
564.71473	16294.4
568.7464	17193.8
572.7752	17926.5
576.80114	17572
580.82422	17030.6
584.84444	16819.9
588.86181	16846.9
592.87633	17043.6
596.888	17293.9
600.89682	17789.3
604.9028	19786.3
608.90594	25496.9
612.90624	33357.7
616.90371	31964.4
620.89834	21294.8
624.89015	16144.3
628.87913	15198.3
632.86528	15360.7
636.84862	15639.6
640.82913	15295
644.80683	14399.4
648.78172	13789.6
652.75379	13800.6
656.72306	14549.9
660.68952	15471
664.65319	15340.6
668.61405	14406
672.57211	13884.9
676.52738	13824.3
680.47986	13774.5
684.42955	13569.8
688.37646	13434.7
692.32058	13548
696.26192	13720.8
700.20048	14023.7
704.13626	14229.2
708.06928	14211.8
711.99952	14074.3
715.927	13996.5
719.85171	14011
723.77365	13983
727.69284	13728.2
731.60928	13562.5
735.52295	13538.2
739.43388	13596.4
743.34206	13682.3
747.24749	13810
751.15017	13974.5
755.05012	14368.1
758.94733	15217.3
762.8418	17237.6
766.73354	20756.9
770.62254	24447.6
774.50882	26066.2
778.39237	24752.5
782.27321	21065
786.15132	17428.2
790.02671	15190.3
793.89938	14232.4
797.76935	13784.2
801.6366	13613.2
805.50115	13506.5
809.36299	13409.9
813.22213	13302.3
817.07857	13259.5
820.93231	13196.3
824.78336	13267.3
828.63172	13331.1
832.47738	13386.3
836.32036	13361
840.16066	13276.4
843.99827	13156.5
847.8332	13075.4
851.66546	13022.6
855.49504	13009.2
859.32195	12986.7
863.1462	12864.3
866.96777	12795.1
870.78668	12777.9
874.60293	12795.8
878.41652	12852.2
882.22745	12958.3
886.03573	13033.8
889.84136	13006.7
893.64433	12910.1
897.44466	12858.2
901.24235	12856.8
905.0374	12773
908.8298	12684.3
912.61957	12713.7
916.40671	12777.6
920.19121	12961.9
923.97308	13190.8
927.75233	13362.6
931.52895	13489.8
935.30295	13268.2
939.07433	12774.9
942.84309	12309.8
946.60924	12036.3
950.37278	11906.9
954.13371	11849.1
957.89203	11790.6
961.64774	11746.6
965.40086	11719.1
969.15137	11657.9
972.89929	11639.7
976.64461	11596
980.38733	11618.4
984.12747	11655.8
987.86502	11737.5
991.59999	11867.1
995.33237	12058.3
999.06217	12395.1
1002.78939	12848.9
1006.51404	13326.4
1010.23611	13713.7
1013.95561	13941.2
1017.67255	13844.1
1021.38692	13497.5
1025.09872	13097.4
1028.80796	12925.8
1032.51465	12962.9
1036.21877	13197.5
1039.92035	13370.2
1043.61937	13390.4
1047.31584	13339.1
1051.00976	13227.7
1054.70114	13167.1
1058.38998	13112.3
1062.07627	13192.4
1065.76003	13317.5
1069.44126	13499.3
1073.11995	13766
1076.79611	14043
1080.46974	14311
1084.14085	14748.3
1087.80943	15326.8
1091.47549	15582.7
1095.13903	15371.5
1098.80005	14697
1102.45857	14063.7
1106.11456	13690.3
1109.76805	13677.4
1113.41903	13977.8
1117.06751	14506.8
1120.71348	15247.5
1124.35696	16085
1127.99793	16818.2
1131.63641	16809.8
1135.2724	15948
1138.90589	15044.1
1142.5369	14545.5
1146.16542	14256.2
1149.79145	14115
1153.415	14155.8
1157.03607	14374.1
1160.65467	14822.6
1164.27079	15605.6
1167.88443	16807
1171.49561	18634.4
1175.10432	21551.5
1178.71056	25284
1182.31434	28063.4
1185.91565	28777.6
1189.51451	27923.1
1193.11091	25985.7
1196.70485	23652
1200.29634	21793.8
1203.88538	20447.6
1207.47197	19002.3
1211.05612	17774.1
1214.63782	17108.7
1218.21708	16870.8
1221.79391	16913.6
1225.36829	17028.1
1228.94024	17128.7
1232.50976	17061.2
1236.07685	16975
1239.6415	16909.9
1243.20374	16851
1246.76355	16862.4
1250.32093	17091.9
1253.8759	17551.6
1257.42845	18199.9
1260.97859	18991
1264.52631	19800.3
1268.07163	20552.2
1271.61453	21277.2
1275.15503	21865.6
1278.69312	22222.8
1282.22882	22530.2
1285.76211	23275.6
1289.29301	24323.5
1292.82151	25452.5
1296.34761	26692.5
1299.87133	28288.9
1303.39266	30814
1306.9116	34483.6
1310.42815	38718.5
1313.94233	41505.3
1317.45412	41234.2
1320.96354	38783.3
1324.47058	35777.5
1327.97525	33091.9
1331.47754	31345.4
1334.97747	30537.1
1338.47502	30348.9
1341.97022	30406.1
1345.46305	30823
1348.95352	31886.2
1352.44163	33913.8
1355.92738	37224
1359.41078	42640.7
1362.89183	48316.2
1366.37053	47799.8
1369.84688	40676
1373.32088	32961.4
1376.79254	27960.2
1380.26186	25643.3
1383.72883	24578
1387.19347	23797.1
1390.65578	22818.2
1394.11575	22134.8
1397.57339	22078.8
1401.0287	22482.7
1404.48168	22990.5
1407.93234	23322.3
1411.38068	23402.2
1414.82669	22958.6
1418.27039	22122.9
1421.71177	21205.4
1425.15083	20324.5
1428.58758	19863.7
1432.02203	19866
1435.45416	20222.8
1438.88399	20580.1
1442.31151	20747.9
1445.73673	21063.7
1449.15965	21383.9
1452.58027	21441.8
1455.9986	21261.8
1459.41463	21198.1
1462.82837	21436.7
1466.23982	21989.5
1469.64898	22605.7
1473.05586	22987
1476.46045	23175.4
1479.86276	23520.1
1483.26279	23939.3
1486.66054	24443.1
1490.05602	25106.8
1493.44922	26114
1496.84016	27615.2
1500.22882	30101.5
1503.61521	33572.4
1506.99934	37763.9
1510.38121	41831.4
1513.76081	43978.1
1517.13816	42280
1520.51324	37325.2
1523.88607	32082.9
1527.25665	28426.9
1530.62498	26292.7
1533.99105	25026.5
1537.35488	24262.4
1540.71647	23571.9
1544.07581	23111.9
1547.4329	22675.5
1550.78776	22262.9
1554.14038	22033.6
1557.49077	22092.1
1560.83892	22441.8
1564.18484	23104.6
1567.52853	23846.8
1570.86999	24516.9
1574.20922	25067
1577.54624	25116.4
1580.88103	23964.4
1584.2136	22439.4
1587.54395	21926.6
1590.87208	22705.2
1594.19801	24448.3
1597.52172	26528.6
1600.84321	27398.7
1604.16251	26163.9
1607.47959	23776.4
1610.79447	21205.7
1614.10715	18826.9
1617.41763	17107.4
1620.7259	16045.6
1624.03199	15599.1
1627.33587	15645.6
1630.63757	16197.9
1633.93707	17385.4
1637.23439	19312.6
1640.52951	22166
1643.82246	25979.6
1647.11321	30020.3
1650.40179	32586.5
1653.68819	31436.3
1656.97241	26573.9
1660.25446	21085.1
1663.53433	17114.7
1666.81203	14717.4
1670.08756	13330.8
1673.36092	12521.4
1676.63211	12003.7
1679.90115	11678.1
1683.16801	11441.2
1686.43272	11242.4
1689.69527	11117.8
1692.95567	11029.5
1696.2139	10950.9
1699.46999	10919.2
1702.72392	10867.7
1705.97571	10856
1709.22535	10815.2
1712.47284	10796
1715.71819	10809.2
1718.96139	10789.4
1722.20246	10803.3
1725.44139	10694.9
1728.67818	10584.9
1731.91284	10486.1
1735.14537	10387.5
1738.37576	10317.4
1741.60403	10266.4
1744.83017	10187.4
1748.05418	10157.2
1751.27607	10106.6
1754.49584	10097.2
1757.71349	10080.9
1760.92903	10082.9
1764.14244	10047.8
1767.35375	10011
1770.56294	9980.4
1773.77002	9953.7
1776.97499	9911.9
1780.17785	9859.7
1783.37861	9826.2
1786.57727	9791.8
1789.77382	9775.7
1792.96828	9772.4
1796.16064	9738.3
1799.3509	9733.4
1802.53907	9709.9
1805.72514	9668.6
1808.90913	9623.8
1812.09102	9570.5
1815.27083	9565.3
1818.44856	9535.1
1821.6242	9519
1824.79776	9495.1
1827.96924	9467.8
1831.13864	9445.5
1834.30597	9462.1
1837.47122	9437
1840.6344	9419.2
1843.7955	9422.8
1846.95454	9431.8
1850.11151	9428.3
1853.26642	9419.5
1856.41926	9427
1859.57004	9448.4
1862.71876	9436.2
1865.86542	9443.2
1869.01003	9445.1
1872.15258	9452.5
1875.29308	9476
1878.43152	9469.9
1881.56792	9516.3
1884.70227	9531.9
1887.83457	9536.4
1890.96482	9530.4
1894.09304	9535.9
1897.21921	9541.8
1900.34335	9544.8
1903.46544	9536.1
1906.58551	9521.8
1909.70353	9549.2
1912.81953	9527.4
1915.93349	9521.5
1919.04543	9495
1922.15534	9487.4
1925.26322	9448.8
1928.36908	9404.7
1931.47292	9337.5
1934.57473	9268.9
1937.67453	9236.7
1940.77232	9159.7
1943.86808	9098.2
1946.96184	9059.6
1950.05358	9006.5
1953.14331	8974.3
1956.23103	8924.7
1959.31675	8869
1962.40046	8857.2
1965.48217	8833.5
1968.56188	8827.9
1971.63959	8783.6
1974.7153	8754.6
1977.78901	8710.8
1980.86073	8673.6
1983.93046	8653.3
1986.99819	8616.1
1990.06394	8598.5
1993.1277	8574
1996.18947	8536.2
1999.24925	8481.1
2002.30706	8458.8
2005.36288	8447.1
2008.41672	8406.4
2011.46859	8394.3
2014.51848	8350.8
2017.56639	8307.2
2020.61233	8307.5
2023.6563	8272.4
2026.6983	8245.6
2029.73833	8227
2032.7764	8222.1
2035.8125	8205.4
2038.84664	8189.8
2041.87881	8173.4
2044.90903	8141.4
2047.93729	8120.4
2050.96359	8120.7
2053.98794	8100.5
2057.01034	8100
2060.03078	8083.3
2063.04927	8068.3
2066.06582	8062.8
2069.08042	8061.4
2072.09307	8040.1
2075.10378	8018
2078.11255	8015.8
2081.11938	8040.2
2084.12426	7997.5
2087.12722	8005.5
2090.12824	7982.9
2093.12732	8015
2096.12447	7986
2099.11969	8007.8
2102.11299	7981
2105.10435	7981
2108.09379	7983.8
2111.08131	7993.6
2114.0669	7996.8
2117.05057	8007.8
2120.03233	7966.5
2123.01216	7988.4
2125.99008	8001.8
2128.96609	8022
2131.94018	8008.7
2134.91236	8035.7
2137.88263	8006.5
2140.851	8014
2143.81746	8011.6
2146.78201	8002.7
2149.74466	7990.1
2152.7054	7970.1
2155.66425	7974.6
2158.6212	7971.9
2161.57625	7952.9
2164.52941	7944.8
2167.48067	7939.3
2170.43004	7933.3
2173.37752	7933.9
2176.32311	7932.9
2179.26681	7922.8
2182.20863	7924.9
2185.14856	7918.3
2188.08661	7931.8
2191.02278	7933
2193.95707	7919
2196.88948	7910.3
2199.82001	7888.4
2202.74867	7876.2
2205.67545	7877.8
2208.60037	7852.1
2211.52341	7847
2214.44458	7861.6
2217.36388	7817.2
2220.28132	7795
2223.1969	7773.2
2226.11061	7777.2
2229.02246	7746.1
2231.93245	7715.6
2234.84058	7699.3
2237.74686	7681.4
2240.65128	7693.7
2243.55385	7661.3
2246.45456	7673.5
2249.35343	7662.9
2252.25044	7657.8
2255.14561	7634.5
2258.03893	7643.9
2260.93041	7641.1
2263.82004	7623.6
2266.70783	7604.1
2269.59378	7553.4
2272.4779	7539.4
2275.36017	7518.1
2278.24061	7496
2281.11922	7501.4
2283.996	7486.1
2286.87094	7464.2
2289.74405	7450.8
2292.61534	7416.3
2295.4848	7416.1
2298.35243	7386.5
2301.21824	7375.5
2304.08223	7376.5
2306.94439	7393.1
2309.80474	7409
2312.66327	7396
2315.51999	7382.6
2318.37489	7374.5
2321.22797	7352.8
2324.07925	7356.9
2326.92871	7356.2
2329.77637	7340.6
2332.62222	7310.4
2335.46626	7318.9
2338.3085	7325.9
2341.14893	7320.2
2343.98756	7328
2346.8244	7330
2349.65943	7356.6
2352.49267	7351.6
2355.32411	7370.7
2358.15376	7385.4
2360.98161	7389.4
2363.80768	7371.1
2366.63195	7404.8
2369.45444	7407.9
2372.27514	7403.4
2375.09405	7367.7
2377.91118	7354.6
2380.72652	7307.5
2383.54009	7252.3
2386.35187	7259.4
2389.16188	7224.6
2391.97011	7190.4
2394.77657	7172
2397.58125	7140.8
2400.38416	7118.6
2403.18529	7107
2405.98466	7109.1
2408.78226	7089.6
2411.57809	7046
2414.37216	7049.9
2417.16446	7062.4
2419.955	7049
2422.74378	7053.1
2425.5308	7019.2
2428.31606	7051.8
2431.09956	7017.1
2433.88131	7031.8
2436.6613	7035.4
2439.43954	7040.2
2442.21603	7035.8
2444.99077	7040.8
2447.76377	7019.8
2450.53501	7054
2453.30451	7057.7
2456.07226	7044.4
2458.83827	7050.8
2461.60254	7047.3
2464.36507	7034.1
2467.12586	7015
2469.88492	7025.3
2472.64224	7016.8
2475.39782	7058
2478.15167	7065.5
2480.90379	7085
2483.65417	7097
2486.40283	7082.2
2489.14976	7130.6
2491.89497	7137.4
2494.63845	7147.5
2497.3802	7139
2500.12024	7135.6
2502.85855	7119.3
2505.59514	7090.8
2508.33002	7068
2511.06318	7035
2513.79462	6989.9
2516.52435	6983.4
2519.25237	6975.2
2521.97867	6926.8
2524.70327	6925.7
2527.42616	6889.1
2530.14734	6898.1
2532.86681	6879.8
2535.58458	6901.3
2538.30065	6878.7
2541.01501	6882.8
2543.72768	6906.2
2546.43864	6888.5
2549.14791	6898.1
2551.85548	6901.9
2554.56136	6879.7
2557.26554	6863.2
2559.96803	6848.6
2562.66883	6854.4
2565.36794	6834.5
2568.06536	6825.3
2570.7611	6823.2
2573.45514	6816.3
2576.14751	6803
2578.83819	6789.9
2581.52719	6817.4
2584.21451	6817.5
2586.90015	6795.6
2589.58411	6780.2
2592.2664	6780
2594.94701	6760.7
2597.62594	6769.4
2600.30321	6739.1
2602.9788	6745
2605.65273	6753.4
2608.32498	6767.1
2610.99557	6773.1
2613.66449	6740.1
2616.33175	6769.6
2618.99734	6760.8
2621.66128	6754.3
2624.32355	6732.7
2626.98416	6744.3
2629.64311	6745.5
2632.30041	6726.9
2634.95605	6696.4
2637.61004	6695.3
2640.26238	6700.5
2642.91306	6682.8
2645.56209	6683.5
2648.20948	6689.3
2650.85521	6681.1
2653.4993	6688.2
2656.14175	6681.7
2658.78255	6682.1
2661.42171	6688.4
2664.05923	6684.8
2666.6951	6704.2
2669.32934	6730.1
2671.96194	6725.2
2674.59291	6735.3
2677.22224	6752.4
2679.84993	6749.5
2682.476	6744.3
2685.10043	6732.1
2687.72324	6712.1
2690.34441	6727.8
2692.96396	6733.1
2695.58188	6739.4
2698.19818	6716.6
2700.81285	6701.4
2703.4259	6746.3
2706.03733	6765.1
2708.64714	6732.2
2711.25533	6732
2713.86191	6751.9
2716.46687	6745.4
2719.07021	6754.6
2721.67194	6781.2
2724.27206	6745.8
2726.87057	6768.2
2729.46747	6772.1
2732.06276	6766.3
2734.65644	6777.8
2737.24852	6744.5
2739.83899	6746.1
2742.42786	6736.6
2745.01513	6718.8
2747.60079	6735.5
2750.18486	6701.9
2752.76733	6684.8
2755.3482	6672.8
2757.92747	6680.3
2760.50515	6674.9
2763.08123	6661.6
2765.65573	6641.7
2768.22863	6642.8
2770.79994	6651
2773.36967	6655.7
2775.9378	6647.2
2778.50435	6639.1
2781.06932	6634.9
2783.6327	6637.9
2786.1945	6644.5
2788.75471	6657.1
2791.31335	6657.4
2793.87041	6653.5
2796.42589	6610
2798.97979	6620.7
2801.53212	6618
2804.08288	6619.3
2806.63206	6598.7
2809.17967	6616.4
2811.72571	6620.9
2814.27018	6602
2816.81308	6612.8
2819.35442	6607.6
2821.89419	6613.2
2824.43239	6637.3
2826.96904	6628.5
2829.50412	6653.9
2832.03763	6639.5
2834.56959	6622.9
2837.1	6645.9
2839.62884	6658.2
2842.15613	6665.3
2844.68186	6737.4
2847.20604	6796.6
2849.72867	6861.4
2852.24974	6857
2854.76927	6872.7
2857.28724	6856.8
2859.80367	6843.7
2862.31855	6836.9
2864.83189	6817.6
2867.34368	6811.7
2869.85393	6799.5
2872.36264	6795.8
2874.8698	6775.2
2877.37543	6782.2
2879.87952	6792.5
2882.38207	6773.6
2884.88308	6757.4
2887.38256	6756.1
2889.88051	6741.3
2892.37692	6740.1
2894.8718	6735.3
2897.36515	6759.8
2899.85698	6759
2902.34727	6750
2904.83604	6756
2907.32328	6768.5
2909.809	6787.3
2912.29319	6762.2
2914.77587	6786.3
2917.25702	6759.4
2919.73665	6761.6
2922.21476	6767.3
2924.69136	6778.2
2927.16644	6736.8
2929.64	6737.6
2932.11205	6700.7
2934.58258	6686
2937.05161	6662.2
2939.51912	6652.2
2941.98513	6613.4
2944.44962	6556.1
2946.91261	6525.6
2949.37409	6494
2951.83407	6481.4
2954.29254	6434.8
2956.74951	6430.4
2959.20498	6422
2961.65895	6403.7
2964.11142	6399.8
2966.56239	6362.9
2969.01186	6360
2971.45984	6330.4
2973.90632	6338.6
2976.35131	6289.5
2978.7948	6276.8
2981.23681	6248.6
2983.67732	6245.1
2986.11635	6237.2
2988.55388	6189.6
2990.98993	6178.7
2993.4245	6158.1
2995.85758	6132.7
2998.28917	6115.4
3000.71928	6100
3003.14791	6091.3
3005.57506	6089.1
3008.00073	6077.1
3010.42493	6091.6
3012.84764	6061.4
3015.26888	6071.1
3017.68865	6035.7
3020.10694	6028.5
3022.52376	6017.8
3024.9391	6009.3
3027.35298	5990.8
3029.76539	5974.7
3032.17632	5974.6
3034.5858	5958
3036.9938	5962.1
3039.40034	5963.8
3041.80542	5946.6
3044.20903	5911.7
3046.61118	5913.1
3049.01187	5916.8
3051.4111	5910.6
3053.80888	5901.6
3056.20519	5868.3
3058.60005	5852.2
3060.99345	5861.2
3063.3854	5848.9
3065.7759	5803.4
3068.16494	5799.2
3070.55254	5790.2
3072.93868	5750.9
3075.32338	5740.4
3077.70662	5728
3080.08842	5701.9
3082.46878	5693.9
3084.84769	5656
3087.22515	5637.5
3089.60118	5641.5
3091.97576	5644.5
3094.3489	5639.9
3096.72061	5619.4
3099.09087	5619.3
3101.4597	5605.5
3103.82709	5610
3106.19305	5591.6
3108.55757	5592.4
3110.92066	5556.4
3113.28232	5559.7
3115.64255	5550.3
3118.00134	5517.1
3120.35871	5535.1
3122.71466	5526.5
3125.06917	5502.5
3127.42226	5492.6
3129.77393	5506.5
3132.12417	5482.5
3134.47299	5496
3136.82039	5478.7
3139.16636	5496.2
3141.51092	5480.3
3143.85406	5466.9
3146.19579	5473.2
3148.53609	5483
3150.87499	5480.5
3153.21246	5479.7
3155.54853	5484.2
3157.88318	5474.7
3160.21642	5479.3
3162.54826	5469.7
3164.87868	5491.8
3167.2077	5472.9
3169.5353	5480.2
3171.86151	5472
3174.18631	5490.9
3176.5097	5478.5
3178.83169	5472.2
3181.15228	5467.5
3183.47147	5456.6
3185.78926	5459.9
3188.10565	5439.1
3190.42065	5430.4
3192.73424	5443.7
3195.04645	5443.5
3197.35725	5449.5
3199.66667	5449.6
3201.97469	5452.9
3204.28132	5452.1
3206.58656	5461.3
3208.8904	5447.4
3211.19287	5467.6
3213.49394	5473.3
3215.79363	5475.8
3218.09193	5466.7
3220.38884	5479.6
3222.68438	5493.4
3224.97853	5477.7
3227.2713	5468.9
3229.56269	5488.1
3231.8527	5460.8
3234.14133	5435.7
3236.42858	5447.9
3238.71446	5436.8
3240.99896	5402.9
3243.28209	5420.9
3245.56384	5402.9
3247.84423	5402.3
3250.12324	5393
3252.40088	5376.4
3254.67715	5413.6
3256.95205	5368.4
3259.22558	5368.3
3261.49775	5353.8
3263.76855	5356.3
3266.03799	5328.2
3268.30606	5333.1
3270.57277	5301.9
3272.83812	5307.8
3275.10211	5282.2
3277.36474	5280.3
3279.62601	5287.8
3281.88593	5279.3
3284.14448	5273.5
3286.40168	5275.3
3288.65753	5289.6
3290.91202	5267.1
3293.16516	5269.6
3295.41695	5252
3297.66738	5214.1
3299.91647	5207
3302.16421	5150.1
3304.4106	5137
3306.65564	5077.1
3308.89933	5046.9
3311.14169	5011.8
3313.38269	4968.3
3315.62236	4946.9
3317.86068	4894.7
3320.09766	4844.5
3322.3333	4819.2
3324.5676	4800.3
3326.80056	4727.1
3329.03219	4682.7
3331.26248	1.8
3333.49143	-1.6
3335.71905	-1.4
