Data from AgNPs_FTO_APTES_UA_5uM_CRN_1uM_R6G_10uM_NaF_0.1M_Addition_RamanShift__18__10-38-16-588.txt Node

Date: Mon Feb 07 10:38:16 GMT 2022
User: TCL
Spectrometer: QEP01345
Trigger mode: 4
Integration Time (sec): 7.000000E0
Scans to average: 10
Electric dark correction enabled: true
Nonlinearity correction enabled: false
Boxcar width: 0
XAxis mode: Raman Shifts
Number of Pixels in Spectrum: 1044
>>>>>Begin Spectral Data<<<<<
46.04893	0.4375
50.45542	-0.6625
54.85868	-1.2625
59.25871	-0.3625
63.6555	89.8375
68.04907	93.3375
72.43941	100.3375
76.82654	104.0375
81.21044	107.2375
85.59113	113.1375
89.96862	115.8375
94.34289	117.1375
98.71396	120.0375
103.08183	126.8375
107.4465	126.3375
111.80798	130.4375
116.16626	136.2375
120.52136	141.7375
124.87327	153.5375
129.222	159.0375
133.56755	169.0375
137.90993	189.6375
142.24913	208.1375
146.58517	231.1375
150.91804	269.3375
155.24774	328.1375
159.57429	418.6375
163.89768	536.8375
168.21792	722.1375
172.53501	982.6375
176.84895	1383.2375
181.15975	1943.0375
185.46741	2719.5375
189.77193	3747.7375
194.07331	5020.4375
198.37157	6451.3375
202.6667	7940.7375
206.9587	9421.0375
211.24758	10934.3375
215.53334	12436.2375
219.81599	14059.4375
224.09553	15887.7375
228.37195	17946.7375
232.64527	20148.4375
236.91549	22419.6375
241.18261	24622.3375
245.44663	26664.6375
249.70755	28381.4375
253.96539	29899.4375
258.22014	31215.3375
262.4718	32340.0375
266.72039	33175.8375
270.96589	33656.4375
275.20832	33793.2375
279.44768	33651.0375
283.68397	33481.8375
287.91719	33384.2375
292.14735	33431.1375
296.37445	33479.4375
300.59849	33665.4375
304.81948	33892.7375
309.03742	33843.8375
313.25231	33507.8375
317.46415	32533.7375
321.67296	31117.9375
325.87872	29892.4375
330.08145	29220.9375
334.28114	29060.1375
338.47781	29235.4375
342.67145	29585.2375
346.86207	30101.2375
351.04966	30815.9375
355.23424	31617.0375
359.4158	32337.7375
363.59435	32837.1375
367.76989	33081.0375
371.94243	33248.1375
376.11196	33255.8375
380.27849	33348.0375
384.44203	33459.5375
388.60257	33614.2375
392.76012	33945.3375
396.91468	34450.7375
401.06626	35170.2375
405.21485	35587.7375
409.36047	35366.7375
413.50311	34694.4375
417.64277	34190.5375
421.77947	34186.9375
425.9132	34342.7375
430.04396	34508.6375
434.17176	34651.1375
438.2966	34719.9375
442.41849	35112.2375
446.53742	35917.7375
450.6534	37027.8375
454.76644	37968.1375
458.87653	38300.3375
462.98368	38123.8375
467.08789	37645.6375
471.18916	37029.4375
475.2875	36494.6375
479.38291	36428.4375
483.4754	36471.2375
487.56496	36248.2375
491.6516	35751.4375
495.73531	35173.4375
499.81612	34847.1375
503.89401	34904.9375
507.96899	34984.1375
512.04106	34789.3375
516.11023	34300.9375
520.1765	33664.6375
524.23987	33064.1375
528.30034	32510.8375
532.35792	31952.1375
536.41261	31431.3375
540.46441	30925.8375
544.51333	30915.6375
548.55936	31499.5375
552.60252	32601.6375
556.64279	33731.4375
560.6802	34459.4375
564.71473	34942.4375
568.7464	35906.1375
572.7752	37285.4375
576.80114	38512.1375
580.82422	39578.4375
584.84444	40549.6375
588.86181	41197.5375
592.87633	41411.5375
596.888	41170.4375
600.89682	40637.6375
604.9028	41833.6375
608.90594	46392.8375
612.90624	51223.7375
616.90371	47658.7375
620.89834	37916.0375
624.89015	33497.7375
628.87913	33051.4375
632.86528	33205.4375
636.84862	32922.3375
640.82913	32124.8375
644.80683	30892.8375
648.78172	29943.0375
652.75379	29755.4375
656.72306	30193.0375
660.68952	30928.8375
664.65319	30822.1375
668.61405	30130.0375
672.57211	29852.0375
676.52738	29863.3375
680.47986	29812.8375
684.42955	29514.9375
688.37646	29341.9375
692.32058	29589.4375
696.26192	30088.8375
700.20048	30618.4375
704.13626	30990.8375
708.06928	31013.8375
711.99952	30741.7375
715.927	30594.2375
719.85171	30737.4375
723.77365	30615.2375
727.69284	30061.6375
731.60928	29494.5375
735.52295	29285.7375
739.43388	29352.0375
743.34206	29464.4375
747.24749	29710.4375
751.15017	30158.6375
755.05012	30879.6375
758.94733	32198.8375
762.8418	34484.3375
766.73354	38129.9375
770.62254	41522.5375
774.50882	42144.4375
778.39237	39532.3375
782.27321	35758.2375
786.15132	32650.5375
790.02671	30805.6375
793.89938	29937.9375
797.76935	29674.0375
801.6366	29599.7375
805.50115	29556.0375
809.36299	29298.8375
813.22213	28896.8375
817.07857	28713.5375
820.93231	28541.9375
824.78336	28354.6375
828.63172	28173.0375
832.47738	28111.5375
836.32036	28154.2375
840.16066	28260.1375
843.99827	28464.9375
847.8332	28398.2375
851.66546	28211.3375
855.49504	28096.5375
859.32195	28055.1375
863.1462	27985.0375
866.96777	27768.8375
870.78668	27681.3375
874.60293	27616.1375
878.41652	27584.5375
882.22745	27681.8375
886.03573	27821.1375
889.84136	27811.8375
893.64433	27652.7375
897.44466	27543.9375
901.24235	27403.7375
905.0374	27306.2375
908.8298	27167.7375
912.61957	27251.1375
916.40671	27603.2375
920.19121	28241.0375
923.97308	28952.5375
927.75233	29205.5375
931.52895	29011.7375
935.30295	28361.1375
939.07433	27512.1375
942.84309	26785.1375
946.60924	26548.4375
950.37278	26454.1375
954.13371	26410.8375
957.89203	26259.0375
961.64774	26189.2375
965.40086	26156.1375
969.15137	26094.1375
972.89929	25924.8375
976.64461	25805.6375
980.38733	25764.7375
984.12747	25929.5375
987.86502	26190.7375
991.59999	26634.9375
995.33237	27371.5375
999.06217	28571.9375
1002.78939	29977.7375
1006.51404	30803.9375
1010.23611	31290.8375
1013.95561	31604.5375
1017.67255	31601.1375
1021.38692	31039.4375
1025.09872	30626.9375
1028.80796	31045.3375
1032.51465	32418.8375
1036.21877	33760.9375
1039.92035	33943.2375
1043.61937	33132.1375
1047.31584	31890.8375
1051.00976	30647.8375
1054.70114	30006.5375
1058.38998	29940.8375
1062.07627	30148.1375
1065.76003	30397.5375
1069.44126	30817.8375
1073.11995	31405.7375
1076.79611	32051.2375
1080.46974	32395.3375
1084.14085	32779.8375
1087.80943	33377.9375
1091.47549	33901.6375
1095.13903	33934.4375
1098.80005	33299.6375
1102.45857	32124.5375
1106.11456	31080.1375
1109.76805	30558.5375
1113.41903	30528.1375
1117.06751	30700.8375
1120.71348	31081.7375
1124.35696	31539.1375
1127.99793	32128.5375
1131.63641	32559.7375
1135.2724	32447.7375
1138.90589	32177.6375
1142.5369	32100.0375
1146.16542	32146.7375
1149.79145	32291.1375
1153.415	32719.9375
1157.03607	33496.6375
1160.65467	34831.2375
1164.27079	36939.8375
1167.88443	39692.9375
1171.49561	42966.6375
1175.10432	47296.5375
1178.71056	52669.3375
1182.31434	57679.0375
1185.91565	60483.7375
1189.51451	60454.4375
1193.11091	58020.6375
1196.70485	54675.7375
1200.29634	51431.6375
1203.88538	49145.7375
1207.47197	47696.0375
1211.05612	46619.4375
1214.63782	45540.7375
1218.21708	44453.2375
1221.79391	43593.9375
1225.36829	43083.7375
1228.94024	42368.9375
1232.50976	41163.1375
1236.07685	40215.7375
1239.6415	39711.3375
1243.20374	39528.4375
1246.76355	39772.8375
1250.32093	40641.8375
1253.8759	41903.2375
1257.42845	43619.0375
1260.97859	45408.9375
1264.52631	47229.8375
1268.07163	49082.3375
1271.61453	51178.9375
1275.15503	53374.7375
1278.69312	55581.3375
1282.22882	57669.2375
1285.76211	59533.0375
1289.29301	61719.9375
1292.82151	64446.4375
1296.34761	68318.1375
1299.87133	73136.4375
1303.39266	78935.1375
1306.9116	84973.5375
1310.42815	90246.0375
1313.94233	93197.5375
1317.45412	92844.4375
1320.96354	90697.4375
1324.47058	88568.6375
1327.97525	86977.9375
1331.47754	86005.0375
1334.97747	85160.1375
1338.47502	84256.8375
1341.97022	82828.4375
1345.46305	80844.4375
1348.95352	78542.5375
1352.44163	77073.8375
1355.92738	77808.6375
1359.41078	81170.5375
1362.89183	84914.1375
1366.37053	84055.0375
1369.84688	77278.0375
1373.32088	68257.4375
1376.79254	61583.2375
1380.26186	58800.4375
1383.72883	58419.0375
1387.19347	58369.5375
1390.65578	57859.8375
1394.11575	57671.7375
1397.57339	58520.7375
1401.0287	60204.5375
1404.48168	61684.7375
1407.93234	62020.1375
1411.38068	60788.8375
1414.82669	58186.4375
1418.27039	54875.0375
1421.71177	51655.7375
1425.15083	49001.9375
1428.58758	47749.9375
1432.02203	47972.5375
1435.45416	49463.7375
1438.88399	51300.4375
1442.31151	52974.0375
1445.73673	54232.0375
1449.15965	55279.8375
1452.58027	55944.4375
1455.9986	56176.6375
1459.41463	56604.2375
1462.82837	57534.0375
1466.23982	58950.2375
1469.64898	60270.7375
1473.05586	60871.3375
1476.46045	60730.4375
1479.86276	60150.3375
1483.26279	59356.1375
1486.66054	58718.4375
1490.05602	58815.3375
1493.44922	59131.3375
1496.84016	59732.2375
1500.22882	60886.7375
1503.61521	63062.4375
1506.99934	65830.5375
1510.38121	68428.3375
1513.76081	69431.6375
1517.13816	68009.5375
1520.51324	65160.4375
1523.88607	62448.2375
1527.25665	60757.9375
1530.62498	59991.9375
1533.99105	59538.6375
1537.35488	58951.2375
1540.71647	57962.5375
1544.07581	56521.8375
1547.4329	54829.2375
1550.78776	53339.5375
1554.14038	52181.2375
1557.49077	51613.9375
1560.83892	51263.2375
1564.18484	51297.1375
1567.52853	51429.7375
1570.86999	51747.5375
1574.20922	52653.4375
1577.54624	53458.4375
1580.88103	53782.0375
1584.2136	54307.4375
1587.54395	56427.7375
1590.87208	60359.0375
1594.19801	65385.4375
1597.52172	70092.2375
1600.84321	71342.6375
1604.16251	67260.4375
1607.47959	60251.4375
1610.79447	53176.9375
1614.10715	47107.6375
1617.41763	42311.9375
1620.7259	39142.7375
1624.03199	37601.4375
1627.33587	37632.6375
1630.63757	39238.0375
1633.93707	42645.5375
1637.23439	48149.8375
1640.52951	55911.4375
1643.82246	64804.6375
1647.11321	71894.4375
1650.40179	73228.2375
1653.68819	67349.0375
1656.97241	57126.0375
1660.25446	46805.1375
1663.53433	38970.5375
1666.81203	33975.1375
1670.08756	30890.2375
1673.36092	28934.0375
1676.63211	27677.2375
1679.90115	26891.4375
1683.16801	26250.0375
1686.43272	25776.3375
1689.69527	25423.9375
1692.95567	25179.0375
1696.2139	24999.7375
1699.46999	24870.0375
1702.72392	24774.4375
1705.97571	24634.4375
1709.22535	24558.4375
1712.47284	24448.6375
1715.71819	24396.1375
1718.96139	24309.2375
1722.20246	24187.6375
1725.44139	24028.5375
1728.67818	23871.2375
1731.91284	23660.3375
1735.14537	23517.9375
1738.37576	23381.4375
1741.60403	23234.0375
1744.83017	23140.7375
1748.05418	23037.9375
1751.27607	22971.7375
1754.49584	22907.3375
1757.71349	22908.1375
1760.92903	22830.4375
1764.14244	22852.9375
1767.35375	22821.7375
1770.56294	22772.9375
1773.77002	22692.0375
1776.97499	22699.5375
1780.17785	22577.6375
1783.37861	22552.7375
1786.57727	22513.8375
1789.77382	22460.6375
1792.96828	22419.1375
1796.16064	22421.8375
1799.3509	22352.0375
1802.53907	22262.1375
1805.72514	22192.9375
1808.90913	22128.3375
1812.09102	22072.4375
1815.27083	22054.7375
1818.44856	22040.9375
1821.6242	21973.5375
1824.79776	21911.8375
1827.96924	21926.9375
1831.13864	21910.8375
1834.30597	21988.2375
1837.47122	21936.6375
1840.6344	21935.4375
1843.7955	22027.4375
1846.95454	22020.1375
1850.11151	22025.1375
1853.26642	22016.6375
1856.41926	22046.7375
1859.57004	22040.5375
1862.71876	22051.8375
1865.86542	21998.9375
1869.01003	21970.7375
1872.15258	21949.9375
1875.29308	21973.4375
1878.43152	21969.8375
1881.56792	21968.7375
1884.70227	21941.6375
1887.83457	21961.6375
1890.96482	21942.5375
1894.09304	21931.5375
1897.21921	21941.5375
1900.34335	21901.6375
1903.46544	21841.2375
1906.58551	21838.0375
1909.70353	21784.3375
1912.81953	21754.6375
1915.93349	21744.0375
1919.04543	21635.7375
1922.15534	21578.3375
1925.26322	21490.6375
1928.36908	21413.4375
1931.47292	21346.8375
1934.57473	21253.0375
1937.67453	21170.7375
1940.77232	21068.3375
1943.86808	21000.7375
1946.96184	20894.3375
1950.05358	20854.3375
1953.14331	20775.0375
1956.23103	20695.0375
1959.31675	20653.6375
1962.40046	20568.2375
1965.48217	20505.8375
1968.56188	20458.4375
1971.63959	20426.0375
1974.7153	20319.4375
1977.78901	20269.4375
1980.86073	20170.2375
1983.93046	20112.9375
1986.99819	20061.4375
1990.06394	20014.7375
1993.1277	19954.4375
1996.18947	19888.7375
1999.24925	19797.4375
2002.30706	19733.2375
2005.36288	19676.0375
2008.41672	19634.0375
2011.46859	19594.7375
2014.51848	19545.2375
2017.56639	19501.1375
2020.61233	19437.1375
2023.6563	19387.3375
2026.6983	19363.4375
2029.73833	19317.4375
2032.7764	19312.2375
2035.8125	19278.8375
2038.84664	19287.9375
2041.87881	19229.9375
2044.90903	19206.7375
2047.93729	19186.5375
2050.96359	19206.3375
2053.98794	19169.9375
2057.01034	19124.2375
2060.03078	19113.4375
2063.04927	19133.4375
2066.06582	19106.1375
2069.08042	19096.1375
2072.09307	19054.5375
2075.10378	19026.9375
2078.11255	18987.6375
2081.11938	19008.4375
2084.12426	18960.3375
2087.12722	18921.6375
2090.12824	18927.0375
2093.12732	18921.2375
2096.12447	18924.9375
2099.11969	18963.6375
2102.11299	18940.6375
2105.10435	18943.6375
2108.09379	18930.1375
2111.08131	18921.9375
2114.0669	18932.5375
2117.05057	18945.9375
2120.03233	18965.6375
2123.01216	18995.0375
2125.99008	18994.0375
2128.96609	19013.8375
2131.94018	19043.7375
2134.91236	19089.1375
2137.88263	19080.2375
2140.851	19061.9375
2143.81746	19100.4375
2146.78201	19077.4375
2149.74466	19087.8375
2152.7054	19029.4375
2155.66425	19025.0375
2158.6212	19026.3375
2161.57625	19019.5375
2164.52941	19001.4375
2167.48067	18998.4375
2170.43004	19005.7375
2173.37752	18992.4375
2176.32311	18971.2375
2179.26681	18985.2375
2182.20863	18967.1375
2185.14856	18974.5375
2188.08661	19041.3375
2191.02278	19023.7375
2193.95707	19023.8375
2196.88948	19034.4375
2199.82001	18952.3375
2202.74867	18978.4375
2205.67545	18995.6375
2208.60037	18969.0375
2211.52341	18959.3375
2214.44458	18959.2375
2217.36388	18935.4375
2220.28132	18880.0375
2223.1969	18886.8375
2226.11061	18850.4375
2229.02246	18824.7375
2231.93245	18758.8375
2234.84058	18715.9375
2237.74686	18685.5375
2240.65128	18702.9375
2243.55385	18650.2375
2246.45456	18622.8375
2249.35343	18592.5375
2252.25044	18536.3375
2255.14561	18483.8375
2258.03893	18455.6375
2260.93041	18447.9375
2263.82004	18393.7375
2266.70783	18356.7375
2269.59378	18276.6375
2272.4779	18243.2375
2275.36017	18185.6375
2278.24061	18151.2375
2281.11922	18131.8375
2283.996	18115.9375
2286.87094	18111.5375
2289.74405	18096.1375
2292.61534	18072.9375
2295.4848	18073.9375
2298.35243	18088.7375
2301.21824	18122.6375
2304.08223	18114.5375
2306.94439	18148.5375
2309.80474	18169.2375
2312.66327	18226.9375
2315.51999	18194.1375
2318.37489	18172.2375
2321.22797	18192.3375
2324.07925	18153.9375
2326.92871	18184.3375
2329.77637	18136.6375
2332.62222	18129.5375
2335.46626	18161.2375
2338.3085	18188.3375
2341.14893	18186.9375
2343.98756	18235.3375
2346.8244	18270.2375
2349.65943	18267.3375
2352.49267	18289.9375
2355.32411	18287.8375
2358.15376	18273.4375
2360.98161	18246.8375
2363.80768	18205.9375
2366.63195	18197.5375
2369.45444	18157.7375
2372.27514	18121.6375
2375.09405	18088.4375
2377.91118	18036.9375
2380.72652	17973.0375
2383.54009	17912.0375
2386.35187	17906.2375
2389.16188	17798.2375
2391.97011	17817.8375
2394.77657	17802.5375
2397.58125	17799.4375
2400.38416	17752.6375
2403.18529	17731.7375
2405.98466	17723.4375
2408.78226	17644.3375
2411.57809	17588.1375
2414.37216	17582.1375
2417.16446	17582.0375
2419.955	17547.7375
2422.74378	17558.7375
2425.5308	17489.3375
2428.31606	17512.6375
2431.09956	17511.6375
2433.88131	17504.9375
2436.6613	17536.5375
2439.43954	17553.3375
2442.21603	17564.9375
2444.99077	17525.9375
2447.76377	17546.0375
2450.53501	17521.8375
2453.30451	17509.4375
2456.07226	17516.5375
2458.83827	17512.4375
2461.60254	17507.1375
2464.36507	17533.3375
2467.12586	17539.9375
2469.88492	17511.3375
2472.64224	17529.5375
2475.39782	17591.9375
2478.15167	17677.7375
2480.90379	17631.4375
2483.65417	17667.2375
2486.40283	17687.5375
2489.14976	17702.0375
2491.89497	17711.0375
2494.63845	17765.3375
2497.3802	17738.4375
2500.12024	17741.4375
2502.85855	17718.8375
2505.59514	17691.8375
2508.33002	17671.4375
2511.06318	17684.5375
2513.79462	17648.5375
2516.52435	17621.9375
2519.25237	17629.7375
2521.97867	17615.7375
2524.70327	17600.9375
2527.42616	17578.1375
2530.14734	17613.8375
2532.86681	17595.4375
2535.58458	17588.2375
2538.30065	17563.5375
2541.01501	17569.9375
2543.72768	17578.7375
2546.43864	17595.5375
2549.14791	17583.7375
2551.85548	17582.1375
2554.56136	17554.2375
2557.26554	17542.4375
2559.96803	17513.7375
2562.66883	17547.8375
2565.36794	17510.0375
2568.06536	17515.8375
2570.7611	17493.4375
2573.45514	17494.6375
2576.14751	17460.4375
2578.83819	17469.1375
2581.52719	17490.2375
2584.21451	17470.6375
2586.90015	17524.1375
2589.58411	17521.3375
2592.2664	17521.6375
2594.94701	17491.6375
2597.62594	17507.2375
2600.30321	17505.9375
2602.9788	17492.9375
2605.65273	17510.6375
2608.32498	17556.6375
2610.99557	17558.3375
2613.66449	17588.6375
2616.33175	17549.1375
2618.99734	17607.3375
2621.66128	17587.3375
2624.32355	17580.4375
2626.98416	17604.2375
2629.64311	17598.0375
2632.30041	17637.7375
2634.95605	17615.5375
2637.61004	17579.3375
2640.26238	17594.2375
2642.91306	17535.1375
2645.56209	17532.7375
2648.20948	17506.7375
2650.85521	17522.6375
2653.4993	17511.2375
2656.14175	17484.7375
2658.78255	17541.2375
2661.42171	17577.6375
2664.05923	17586.7375
2666.6951	17579.1375
2669.32934	17628.6375
2671.96194	17614.8375
2674.59291	17658.2375
2677.22224	17656.2375
2679.84993	17642.3375
2682.476	17582.5375
2685.10043	17582.5375
2687.72324	17527.9375
2690.34441	17466.4375
2692.96396	17478.1375
2695.58188	17515.5375
2698.19818	17433.4375
2700.81285	17442.2375
2703.4259	17442.7375
2706.03733	17539.7375
2708.64714	17495.2375
2711.25533	17507.9375
2713.86191	17479.0375
2716.46687	17555.0375
2719.07021	17547.7375
2721.67194	17570.4375
2724.27206	17595.6375
2726.87057	17596.9375
2729.46747	17616.8375
2732.06276	17610.6375
2734.65644	17647.2375
2737.24852	17637.0375
2739.83899	17581.9375
2742.42786	17599.1375
2745.01513	17531.2375
2747.60079	17616.0375
2750.18486	17545.4375
2752.76733	17535.7375
2755.3482	17518.8375
2757.92747	17536.6375
2760.50515	17506.1375
2763.08123	17570.0375
2765.65573	17543.6375
2768.22863	17493.2375
2770.79994	17524.6375
2773.36967	17560.3375
2775.9378	17572.3375
2778.50435	17617.5375
2781.06932	17580.2375
2783.6327	17613.0375
2786.1945	17603.0375
2788.75471	17582.1375
2791.31335	17592.7375
2793.87041	17587.6375
2796.42589	17516.2375
2798.97979	17499.1375
2801.53212	17469.3375
2804.08288	17410.7375
2806.63206	17384.9375
2809.17967	17404.7375
2811.72571	17348.7375
2814.27018	17342.5375
2816.81308	17300.9375
2819.35442	17282.4375
2821.89419	17276.5375
2824.43239	17272.3375
2826.96904	17299.0375
2829.50412	17296.7375
2832.03763	17251.7375
2834.56959	17218.4375
2837.1	17192.4375
2839.62884	17212.0375
2842.15613	17225.5375
2844.68186	17261.5375
2847.20604	17241.5375
2849.72867	17260.9375
2852.24974	17258.6375
2854.76927	17269.3375
2857.28724	17251.3375
2859.80367	17255.7375
2862.31855	17239.6375
2864.83189	17236.0375
2867.34368	17194.4375
2869.85393	17204.3375
2872.36264	17150.3375
2874.8698	17166.7375
2877.37543	17183.1375
2879.87952	17211.9375
2882.38207	17190.4375
2884.88308	17190.4375
2887.38256	17181.3375
2889.88051	17206.3375
2892.37692	17218.5375
2894.8718	17218.7375
2897.36515	17241.9375
2899.85698	17292.1375
2902.34727	17321.4375
2904.83604	17321.8375
2907.32328	17367.3375
2909.809	17367.4375
2912.29319	17395.0375
2914.77587	17453.5375
2917.25702	17418.0375
2919.73665	17396.1375
2922.21476	17380.5375
2924.69136	17349.7375
2927.16644	17361.6375
2929.64	17281.2375
2932.11205	17265.2375
2934.58258	17176.6375
2937.05161	17220.2375
2939.51912	17190.7375
2941.98513	17171.6375
2944.44962	17119.7375
2946.91261	17088.2375
2949.37409	17109.0375
2951.83407	17055.4375
2954.29254	17030.3375
2956.74951	16984.6375
2959.20498	16982.6375
2961.65895	16966.1375
2964.11142	16943.6375
2966.56239	16882.6375
2969.01186	16916.3375
2971.45984	16857.0375
2973.90632	16846.2375
2976.35131	16823.7375
2978.7948	16775.2375
2981.23681	16712.9375
2983.67732	16706.3375
2986.11635	16697.6375
2988.55388	16641.6375
2990.98993	16596.8375
2993.4245	16493.3375
2995.85758	16452.9375
2998.28917	16421.1375
3000.71928	16384.7375
3003.14791	16339.0375
3005.57506	16360.6375
3008.00073	16279.9375
3010.42493	16280.0375
3012.84764	16226.1375
3015.26888	16248.4375
3017.68865	16194.5375
3020.10694	16156.5375
3022.52376	16119.5375
3024.9391	16095.3375
3027.35298	16078.9375
3029.76539	16116.0375
3032.17632	16070.2375
3034.5858	16038.4375
3036.9938	16049.8375
3039.40034	16011.8375
3041.80542	16028.4375
3044.20903	16012.8375
3046.61118	16001.9375
3049.01187	15950.8375
3051.4111	15963.3375
3053.80888	15931.7375
3056.20519	15909.5375
3058.60005	15878.1375
3060.99345	15812.5375
3063.3854	15780.7375
3065.7759	15719.9375
3068.16494	15643.8375
3070.55254	15623.8375
3072.93868	15575.1375
3075.32338	15555.9375
3077.70662	15484.1375
3080.08842	15454.9375
3082.46878	15420.7375
3084.84769	15410.4375
3087.22515	15416.3375
3089.60118	15376.4375
3091.97576	15409.0375
3094.3489	15396.7375
3096.72061	15378.5375
3099.09087	15389.9375
3101.4597	15382.6375
3103.82709	15393.8375
3106.19305	15342.8375
3108.55757	15307.3375
3110.92066	15278.6375
3113.28232	15274.5375
3115.64255	15223.5375
3118.00134	15135.4375
3120.35871	15174.5375
3122.71466	15127.3375
3125.06917	15080.8375
3127.42226	15063.0375
3129.77393	15035.6375
3132.12417	15025.3375
3134.47299	15023.6375
3136.82039	14994.5375
3139.16636	15009.9375
3141.51092	14983.3375
3143.85406	14986.5375
3146.19579	14963.4375
3148.53609	14970.9375
3150.87499	14963.3375
3153.21246	14987.1375
3155.54853	14945.9375
3157.88318	14956.7375
3160.21642	15007.4375
3162.54826	15006.5375
3164.87868	14978.3375
3167.2077	14979.3375
3169.5353	14991.4375
3171.86151	14977.9375
3174.18631	14966.2375
3176.5097	14971.5375
3178.83169	14946.4375
3181.15228	14909.2375
3183.47147	14882.0375
3185.78926	14881.3375
3188.10565	14853.4375
3190.42065	14850.7375
3192.73424	14852.2375
3195.04645	14870.9375
3197.35725	14854.3375
3199.66667	14826.7375
3201.97469	14850.4375
3204.28132	14831.8375
3206.58656	14820.6375
3208.8904	14830.1375
3211.19287	14841.9375
3213.49394	14823.6375
3215.79363	14867.5375
3218.09193	14858.2375
3220.38884	14838.0375
3222.68438	14880.5375
3224.97853	14839.3375
3227.2713	14840.9375
3229.56269	14810.5375
3231.8527	14843.7375
3234.14133	14801.3375
3236.42858	14761.9375
3238.71446	14769.6375
3240.99896	14731.5375
3243.28209	14740.9375
3245.56384	14736.1375
3247.84423	14718.6375
3250.12324	14690.6375
3252.40088	14662.3375
3254.67715	14643.2375
3256.95205	14617.3375
3259.22558	14608.1375
3261.49775	14618.5375
3263.76855	14583.9375
3266.03799	14512.1375
3268.30606	14536.6375
3270.57277	14501.8375
3272.83812	14480.4375
3275.10211	14422.2375
3277.36474	14401.9375
3279.62601	14415.0375
3281.88593	14392.0375
3284.14448	14400.1375
3286.40168	14410.3375
3288.65753	14429.2375
3290.91202	14400.7375
3293.16516	14377.9375
3295.41695	14370.7375
3297.66738	14289.0375
3299.91647	14198.4375
3302.16421	14133.3375
3304.4106	14049.7375
3306.65564	13925.7375
3308.89933	13845.6375
3311.14169	13726.3375
3313.38269	13645.9375
3315.62236	13544.4375
3317.86068	13427.6375
3320.09766	13334.0375
3322.3333	13255.6375
3324.5676	13178.5375
3326.80056	12955.8375
3329.03219	12894.3375
3331.26248	3.4375
3333.49143	-1.3625
3335.71905	-0.5625
