Data from AgNPs_FTO_APTES_UA_5uM_CRN_2uM_R6G_10uM_NaF_0.1M_Addition_RamanShift__36__11-38-56-659.txt Node

Date: Mon Feb 07 11:38:56 GMT 2022
User: TCL
Spectrometer: QEP01345
Trigger mode: 4
Integration Time (sec): 7.000000E0
Scans to average: 10
Electric dark correction enabled: true
Nonlinearity correction enabled: false
Boxcar width: 0
XAxis mode: Raman Shifts
Number of Pixels in Spectrum: 1044
>>>>>Begin Spectral Data<<<<<
46.04893	-1.4125
50.45542	-1.7125
54.85868	-2.0125
59.25871	0.8875
63.6555	97.3875
68.04907	99.9875
72.43941	106.1875
76.82654	110.7875
81.21044	111.3875
85.59113	118.7875
89.96862	119.1875
94.34289	123.5875
98.71396	123.4875
103.08183	129.9875
107.4465	135.6875
111.80798	135.3875
116.16626	144.0875
120.52136	149.5875
124.87327	157.7875
129.222	164.0875
133.56755	170.1875
137.90993	188.9875
142.24913	208.6875
146.58517	237.3875
150.91804	274.3875
155.24774	326.4875
159.57429	411.6875
163.89768	527.1875
168.21792	706.7875
172.53501	959.5875
176.84895	1349.0875
181.15975	1900.0875
185.46741	2670.5875
189.77193	3669.1875
194.07331	4914.5875
198.37157	6310.4875
202.6667	7794.6875
206.9587	9283.9875
211.24758	10721.6875
215.53334	12204.8875
219.81599	13774.0875
224.09553	15582.0875
228.37195	17526.0875
232.64527	19605.1875
236.91549	21793.8875
241.18261	23896.2875
245.44663	25881.3875
249.70755	27600.2875
253.96539	29096.2875
258.22014	30341.4875
262.4718	31424.8875
266.72039	32192.9875
270.96589	32539.5875
275.20832	32551.4875
279.44768	32342.3875
283.68397	31983.5875
287.91719	31723.0875
292.14735	31478.7875
296.37445	31492.1875
300.59849	31608.9875
304.81948	31895.1875
309.03742	32115.9875
313.25231	31997.8875
317.46415	31596.9875
321.67296	30986.2875
325.87872	30399.2875
330.08145	30145.5875
334.28114	30103.7875
338.47781	30287.6875
342.67145	30659.5875
346.86207	31144.9875
351.04966	31754.4875
355.23424	32373.5875
359.4158	32957.7875
363.59435	33362.1875
367.76989	33654.3875
371.94243	33851.4875
376.11196	34027.8875
380.27849	34130.3875
384.44203	34376.8875
388.60257	34619.4875
392.76012	34859.7875
396.91468	35264.5875
401.06626	35849.4875
405.21485	36311.7875
409.36047	36199.3875
413.50311	35862.8875
417.64277	35765.0875
421.77947	35836.2875
425.9132	36084.1875
430.04396	36300.2875
434.17176	36584.0875
438.2966	36984.8875
442.41849	37814.4875
446.53742	39375.7875
450.6534	41042.4875
454.76644	42182.0875
458.87653	42331.2875
462.98368	41588.1875
467.08789	40428.6875
471.18916	39366.2875
475.2875	38318.9875
479.38291	37603.4875
483.4754	37205.8875
487.56496	36731.5875
491.6516	36261.0875
495.73531	35802.9875
499.81612	35603.5875
503.89401	35771.4875
507.96899	35850.6875
512.04106	35649.3875
516.11023	35316.2875
520.1765	35018.0875
524.23987	34915.0875
528.30034	34857.8875
532.35792	34634.3875
536.41261	34068.4875
540.46441	33348.5875
544.51333	33128.8875
548.55936	33335.5875
552.60252	34148.3875
556.64279	35296.6875
560.6802	36200.6875
564.71473	36629.9875
568.7464	37223.6875
572.7752	38355.8875
576.80114	39420.4875
580.82422	40615.0875
584.84444	42529.1875
588.86181	45228.0875
592.87633	47958.1875
596.888	48578.5875
600.89682	46157.5875
604.9028	44780.9875
608.90594	47224.8875
612.90624	50487.6875
616.90371	47366.4875
620.89834	39661.1875
624.89015	36162.0875
628.87913	35612.1875
632.86528	35427.2875
636.84862	34901.8875
640.82913	34002.6875
644.80683	32909.7875
648.78172	32355.5875
652.75379	32415.0875
656.72306	32981.2875
660.68952	33649.6875
664.65319	33446.8875
668.61405	32783.7875
672.57211	32664.6875
676.52738	32791.0875
680.47986	32683.3875
684.42955	32299.0875
688.37646	32133.1875
692.32058	32500.7875
696.26192	33153.2875
700.20048	33926.4875
704.13626	34161.6875
708.06928	33961.5875
711.99952	33633.7875
715.927	33671.6875
719.85171	34010.6875
723.77365	33845.7875
727.69284	33228.9875
731.60928	32635.3875
735.52295	32535.1875
739.43388	32654.9875
743.34206	32811.1875
747.24749	33089.7875
751.15017	33440.8875
755.05012	34051.1875
758.94733	35089.9875
762.8418	36793.7875
766.73354	39443.5875
770.62254	41939.1875
774.50882	42334.5875
778.39237	40468.4875
782.27321	37625.4875
786.15132	35254.4875
790.02671	33805.7875
793.89938	33176.4875
797.76935	32999.6875
801.6366	32946.2875
805.50115	32913.2875
809.36299	32717.6875
813.22213	32403.4875
817.07857	32176.5875
820.93231	31989.1875
824.78336	31939.0875
828.63172	31926.7875
832.47738	31926.8875
836.32036	32098.9875
840.16066	32402.2875
843.99827	32580.7875
847.8332	32476.5875
851.66546	32189.9875
855.49504	32132.0875
859.32195	32111.0875
863.1462	31955.6875
866.96777	31706.7875
870.78668	31597.8875
874.60293	31567.7875
878.41652	31619.3875
882.22745	31806.0875
886.03573	31866.1875
889.84136	31857.5875
893.64433	31635.5875
897.44466	31441.4875
901.24235	31334.1875
905.0374	31235.7875
908.8298	31225.8875
912.61957	31309.7875
916.40671	31712.5875
920.19121	32276.7875
923.97308	32971.7875
927.75233	33283.6875
931.52895	33155.7875
935.30295	32569.5875
939.07433	31853.2875
942.84309	31401.8875
946.60924	31296.0875
950.37278	31215.9875
954.13371	31092.8875
957.89203	30866.3875
961.64774	30750.7875
965.40086	30761.9875
969.15137	30713.2875
972.89929	30666.3875
976.64461	30718.6875
980.38733	30925.9875
984.12747	31181.7875
987.86502	31527.1875
991.59999	32038.3875
995.33237	32847.0875
999.06217	34200.5875
1002.78939	35854.9875
1006.51404	36898.7875
1010.23611	37474.2875
1013.95561	37802.3875
1017.67255	37676.1875
1021.38692	36867.0875
1025.09872	36239.9875
1028.80796	36707.7875
1032.51465	38520.3875
1036.21877	40311.0875
1039.92035	40638.6875
1043.61937	39780.8875
1047.31584	38244.0875
1051.00976	36601.6875
1054.70114	35667.8875
1058.38998	35275.1875
1062.07627	35121.3875
1065.76003	35114.6875
1069.44126	35318.1875
1073.11995	35897.5875
1076.79611	36468.9875
1080.46974	36865.6875
1084.14085	37268.3875
1087.80943	37745.2875
1091.47549	37966.2875
1095.13903	37862.4875
1098.80005	37187.3875
1102.45857	36289.1875
1106.11456	35707.7875
1109.76805	35524.0875
1113.41903	35611.0875
1117.06751	35763.6875
1120.71348	36037.9875
1124.35696	36411.7875
1127.99793	36799.2875
1131.63641	37047.2875
1135.2724	36961.2875
1138.90589	36852.2875
1142.5369	36929.8875
1146.16542	37219.3875
1149.79145	37517.6875
1153.415	37928.6875
1157.03607	38546.7875
1160.65467	39810.2875
1164.27079	41889.5875
1167.88443	44507.1875
1171.49561	47338.2875
1175.10432	50962.5875
1178.71056	55886.8875
1182.31434	60456.9875
1185.91565	62520.6875
1189.51451	61558.3875
1193.11091	58805.5875
1196.70485	55895.2875
1200.29634	53732.1875
1203.88538	52454.6875
1207.47197	51786.4875
1211.05612	50937.0875
1214.63782	50023.3875
1218.21708	49056.9875
1221.79391	48567.5875
1225.36829	48250.2875
1228.94024	47440.6875
1232.50976	45927.7875
1236.07685	44483.0875
1239.6415	43679.3875
1243.20374	43576.0875
1246.76355	44063.4875
1250.32093	45163.4875
1253.8759	46498.7875
1257.42845	48077.7875
1260.97859	49715.2875
1264.52631	51415.6875
1268.07163	53251.8875
1271.61453	55270.9875
1275.15503	57432.4875
1278.69312	59652.1875
1282.22882	61625.5875
1285.76211	63860.2875
1289.29301	66401.5875
1292.82151	69476.1875
1296.34761	73596.0875
1299.87133	78973.7875
1303.39266	85071.9875
1306.9116	91113.5875
1310.42815	95733.7875
1313.94233	97722.4875
1317.45412	96355.0875
1320.96354	92729.7875
1324.47058	88921.8875
1327.97525	85854.1875
1331.47754	83717.9875
1334.97747	82294.5875
1338.47502	80757.7875
1341.97022	78562.9875
1345.46305	76001.6875
1348.95352	74535.3875
1352.44163	75457.4875
1355.92738	79388.7875
1359.41078	85555.8875
1362.89183	90064.8875
1366.37053	89152.3875
1369.84688	81545.9875
1373.32088	71393.6875
1376.79254	64336.9875
1380.26186	61932.3875
1383.72883	62076.3875
1387.19347	62013.4875
1390.65578	61112.3875
1394.11575	60746.2875
1397.57339	61574.0875
1401.0287	63220.5875
1404.48168	64557.4875
1407.93234	65017.4875
1411.38068	63993.7875
1414.82669	62034.5875
1418.27039	59279.2875
1421.71177	56463.5875
1425.15083	54081.4875
1428.58758	53038.0875
1432.02203	53727.2875
1435.45416	55669.1875
1438.88399	57721.6875
1442.31151	59139.2875
1445.73673	59974.7875
1449.15965	60475.6875
1452.58027	60188.3875
1455.9986	59518.0875
1459.41463	59224.3875
1462.82837	60110.5875
1466.23982	61743.9875
1469.64898	63420.9875
1473.05586	64554.1875
1476.46045	64986.7875
1479.86276	64792.3875
1483.26279	64206.1875
1486.66054	63711.2875
1490.05602	63639.9875
1493.44922	63821.2875
1496.84016	63728.7875
1500.22882	63713.1875
1503.61521	64208.2875
1506.99934	65329.9875
1510.38121	66532.8875
1513.76081	66862.5875
1517.13816	65719.6875
1520.51324	63794.8875
1523.88607	62345.3875
1527.25665	61948.5875
1530.62498	62240.2875
1533.99105	62307.1875
1537.35488	61672.2875
1540.71647	60547.5875
1544.07581	58986.1875
1547.4329	57364.1875
1550.78776	55859.1875
1554.14038	54602.2875
1557.49077	53652.0875
1560.83892	53052.6875
1564.18484	52710.5875
1567.52853	52664.6875
1570.86999	53190.8875
1574.20922	54112.4875
1577.54624	55054.0875
1580.88103	55562.3875
1584.2136	56787.1875
1587.54395	59843.1875
1590.87208	64804.9875
1594.19801	70837.2875
1597.52172	76085.4875
1600.84321	77474.0875
1604.16251	73104.2875
1607.47959	65128.9875
1610.79447	56751.2875
1614.10715	50096.8875
1617.41763	45568.5875
1620.7259	42988.0875
1624.03199	42125.0875
1627.33587	42672.8875
1630.63757	44630.3875
1633.93707	48205.9875
1637.23439	53901.8875
1640.52951	62091.7875
1643.82246	71934.3875
1647.11321	79520.9875
1650.40179	79722.3875
1653.68819	71685.9875
1656.97241	59869.7875
1660.25446	49492.4875
1663.53433	42464.5875
1666.81203	38145.4875
1670.08756	35659.9875
1673.36092	34064.0875
1676.63211	33037.7875
1679.90115	32321.2875
1683.16801	31826.6875
1686.43272	31440.7875
1689.69527	31135.8875
1692.95567	30889.7875
1696.2139	30724.2875
1699.46999	30614.3875
1702.72392	30539.6875
1705.97571	30444.9875
1709.22535	30391.7875
1712.47284	30284.2875
1715.71819	30292.3875
1718.96139	30241.6875
1722.20246	30179.7875
1725.44139	30048.7875
1728.67818	29881.1875
1731.91284	29671.9875
1735.14537	29489.5875
1738.37576	29383.7875
1741.60403	29230.3875
1744.83017	29146.9875
1748.05418	29095.0875
1751.27607	28994.3875
1754.49584	28927.0875
1757.71349	28916.9875
1760.92903	28913.2875
1764.14244	28906.5875
1767.35375	28910.2875
1770.56294	28819.6875
1773.77002	28735.3875
1776.97499	28751.3875
1780.17785	28678.6875
1783.37861	28645.4875
1786.57727	28571.3875
1789.77382	28539.2875
1792.96828	28525.1875
1796.16064	28497.4875
1799.3509	28499.9875
1802.53907	28388.1875
1805.72514	28346.3875
1808.90913	28244.4875
1812.09102	28191.7875
1815.27083	28131.6875
1818.44856	28103.3875
1821.6242	28026.2875
1824.79776	28007.8875
1827.96924	27990.1875
1831.13864	28000.0875
1834.30597	27945.6875
1837.47122	27964.6875
1840.6344	27877.2875
1843.7955	27888.0875
1846.95454	27926.8875
1850.11151	27936.8875
1853.26642	27859.2875
1856.41926	27876.2875
1859.57004	27878.0875
1862.71876	27878.5875
1865.86542	27915.7875
1869.01003	27850.9875
1872.15258	27850.4875
1875.29308	27866.9875
1878.43152	27872.6875
1881.56792	27827.9875
1884.70227	27820.6875
1887.83457	27824.1875
1890.96482	27809.8875
1894.09304	27801.9875
1897.21921	27753.8875
1900.34335	27738.9875
1903.46544	27770.3875
1906.58551	27764.7875
1909.70353	27718.7875
1912.81953	27667.5875
1915.93349	27659.2875
1919.04543	27596.4875
1922.15534	27530.9875
1925.26322	27469.0875
1928.36908	27384.3875
1931.47292	27354.0875
1934.57473	27289.7875
1937.67453	27236.6875
1940.77232	27136.0875
1943.86808	27052.6875
1946.96184	26984.7875
1950.05358	26931.7875
1953.14331	26866.9875
1956.23103	26791.0875
1959.31675	26660.7875
1962.40046	26599.7875
1965.48217	26592.5875
1968.56188	26495.6875
1971.63959	26418.3875
1974.7153	26335.6875
1977.78901	26269.5875
1980.86073	26212.9875
1983.93046	26134.8875
1986.99819	26066.7875
1990.06394	26007.7875
1993.1277	25931.8875
1996.18947	25854.0875
1999.24925	25797.1875
2002.30706	25715.0875
2005.36288	25650.9875
2008.41672	25599.7875
2011.46859	25548.7875
2014.51848	25470.9875
2017.56639	25431.1875
2020.61233	25400.8875
2023.6563	25335.7875
2026.6983	25280.9875
2029.73833	25295.6875
2032.7764	25249.9875
2035.8125	25224.1875
2038.84664	25202.9875
2041.87881	25198.6875
2044.90903	25166.3875
2047.93729	25154.0875
2050.96359	25112.5875
2053.98794	25073.6875
2057.01034	25071.7875
2060.03078	25025.2875
2063.04927	25036.9875
2066.06582	25046.7875
2069.08042	25040.9875
2072.09307	24962.5875
2075.10378	24966.0875
2078.11255	24927.4875
2081.11938	24932.3875
2084.12426	24878.2875
2087.12722	24901.2875
2090.12824	24850.8875
2093.12732	24836.3875
2096.12447	24883.0875
2099.11969	24919.5875
2102.11299	24952.4875
2105.10435	24895.6875
2108.09379	24934.2875
2111.08131	24927.7875
2114.0669	24917.7875
2117.05057	24961.5875
2120.03233	24970.8875
2123.01216	25038.7875
2125.99008	25040.2875
2128.96609	25068.8875
2131.94018	25064.6875
2134.91236	25082.0875
2137.88263	25154.8875
2140.851	25164.2875
2143.81746	25160.9875
2146.78201	25117.6875
2149.74466	25181.0875
2152.7054	25148.2875
2155.66425	25146.0875
2158.6212	25124.5875
2161.57625	25094.4875
2164.52941	25115.4875
2167.48067	25091.1875
2170.43004	25104.8875
2173.37752	25153.7875
2176.32311	25113.3875
2179.26681	25089.6875
2182.20863	25119.0875
2185.14856	25157.8875
2188.08661	25177.2875
2191.02278	25216.4875
2193.95707	25246.0875
2196.88948	25226.1875
2199.82001	25215.9875
2202.74867	25183.0875
2205.67545	25193.0875
2208.60037	25194.2875
2211.52341	25162.5875
2214.44458	25160.4875
2217.36388	25099.0875
2220.28132	25092.7875
2223.1969	25011.7875
2226.11061	25028.8875
2229.02246	24995.6875
2231.93245	24948.5875
2234.84058	24938.4875
2237.74686	24912.7875
2240.65128	24874.2875
2243.55385	24822.0875
2246.45456	24834.3875
2249.35343	24758.7875
2252.25044	24692.7875
2255.14561	24647.9875
2258.03893	24605.9875
2260.93041	24578.9875
2263.82004	24512.5875
2266.70783	24438.4875
2269.59378	24373.3875
2272.4779	24300.5875
2275.36017	24261.6875
2278.24061	24253.0875
2281.11922	24229.5875
2283.996	24243.6875
2286.87094	24205.3875
2289.74405	24215.3875
2292.61534	24212.4875
2295.4848	24192.6875
2298.35243	24288.2875
2301.21824	24274.1875
2304.08223	24294.8875
2306.94439	24337.5875
2309.80474	24382.6875
2312.66327	24394.1875
2315.51999	24394.1875
2318.37489	24342.5875
2321.22797	24331.9875
2324.07925	24323.0875
2326.92871	24351.9875
2329.77637	24325.9875
2332.62222	24301.8875
2335.46626	24301.2875
2338.3085	24334.9875
2341.14893	24332.2875
2343.98756	24380.1875
2346.8244	24387.0875
2349.65943	24396.6875
2352.49267	24368.6875
2355.32411	24325.1875
2358.15376	24327.9875
2360.98161	24255.3875
2363.80768	24248.5875
2366.63195	24257.6875
2369.45444	24155.5875
2372.27514	24136.5875
2375.09405	24115.5875
2377.91118	24070.3875
2380.72652	24014.1875
2383.54009	23939.7875
2386.35187	23952.9875
2389.16188	23903.4875
2391.97011	23893.7875
2394.77657	23883.2875
2397.58125	23836.5875
2400.38416	23812.0875
2403.18529	23776.4875
2405.98466	23739.1875
2408.78226	23707.5875
2411.57809	23647.6875
2414.37216	23674.9875
2417.16446	23661.6875
2419.955	23596.8875
2422.74378	23579.4875
2425.5308	23548.5875
2428.31606	23561.4875
2431.09956	23526.8875
2433.88131	23524.8875
2436.6613	23583.1875
2439.43954	23572.4875
2442.21603	23538.2875
2444.99077	23527.4875
2447.76377	23567.0875
2450.53501	23497.7875
2453.30451	23538.9875
2456.07226	23488.0875
2458.83827	23530.7875
2461.60254	23579.7875
2464.36507	23555.4875
2467.12586	23483.6875
2469.88492	23516.2875
2472.64224	23584.2875
2475.39782	23660.1875
2478.15167	23680.0875
2480.90379	23661.7875
2483.65417	23698.9875
2486.40283	23708.7875
2489.14976	23762.0875
2491.89497	23729.5875
2494.63845	23767.4875
2497.3802	23825.8875
2500.12024	23793.9875
2502.85855	23789.9875
2505.59514	23787.0875
2508.33002	23738.6875
2511.06318	23717.3875
2513.79462	23664.8875
2516.52435	23647.5875
2519.25237	23681.3875
2521.97867	23682.1875
2524.70327	23732.0875
2527.42616	23660.1875
2530.14734	23709.7875
2532.86681	23717.3875
2535.58458	23720.1875
2538.30065	23713.0875
2541.01501	23685.3875
2543.72768	23651.2875
2546.43864	23678.4875
2549.14791	23643.8875
2551.85548	23630.5875
2554.56136	23673.6875
2557.26554	23622.1875
2559.96803	23639.5875
2562.66883	23614.0875
2565.36794	23593.8875
2568.06536	23574.4875
2570.7611	23616.5875
2573.45514	23594.6875
2576.14751	23585.2875
2578.83819	23578.9875
2581.52719	23669.9875
2584.21451	23674.2875
2586.90015	23642.5875
2589.58411	23628.9875
2592.2664	23645.3875
2594.94701	23601.2875
2597.62594	23598.4875
2600.30321	23565.1875
2602.9788	23562.3875
2605.65273	23567.7875
2608.32498	23620.8875
2610.99557	23637.3875
2613.66449	23628.3875
2616.33175	23625.8875
2618.99734	23633.9875
2621.66128	23625.4875
2624.32355	23637.2875
2626.98416	23594.0875
2629.64311	23650.2875
2632.30041	23631.7875
2634.95605	23583.4875
2637.61004	23585.9875
2640.26238	23540.6875
2642.91306	23537.6875
2645.56209	23501.1875
2648.20948	23541.4875
2650.85521	23552.4875
2653.4993	23592.2875
2656.14175	23544.9875
2658.78255	23555.2875
2661.42171	23599.8875
2664.05923	23613.7875
2666.6951	23652.9875
2669.32934	23723.2875
2671.96194	23696.9875
2674.59291	23732.4875
2677.22224	23696.7875
2679.84993	23746.6875
2682.476	23660.7875
2685.10043	23665.7875
2687.72324	23615.6875
2690.34441	23578.3875
2692.96396	23589.8875
2695.58188	23609.5875
2698.19818	23560.5875
2700.81285	23584.7875
2703.4259	23590.9875
2706.03733	23650.3875
2708.64714	23622.6875
2711.25533	23645.3875
2713.86191	23602.5875
2716.46687	23658.3875
2719.07021	23698.3875
2721.67194	23751.5875
2724.27206	23754.5875
2726.87057	23755.7875
2729.46747	23804.8875
2732.06276	23820.0875
2734.65644	23815.1875
2737.24852	23839.4875
2739.83899	23809.9875
2742.42786	23785.6875
2745.01513	23756.4875
2747.60079	23787.2875
2750.18486	23814.3875
2752.76733	23767.9875
2755.3482	23744.0875
2757.92747	23803.2875
2760.50515	23739.5875
2763.08123	23781.3875
2765.65573	23786.1875
2768.22863	23772.5875
2770.79994	23775.6875
2773.36967	23764.2875
2775.9378	23805.4875
2778.50435	23818.2875
2781.06932	23815.5875
2783.6327	23826.0875
2786.1945	23826.4875
2788.75471	23834.1875
2791.31335	23824.1875
2793.87041	23785.9875
2796.42589	23708.5875
2798.97979	23678.7875
2801.53212	23679.3875
2804.08288	23618.1875
2806.63206	23515.3875
2809.17967	23548.8875
2811.72571	23496.5875
2814.27018	23461.0875
2816.81308	23418.3875
2819.35442	23386.0875
2821.89419	23381.5875
2824.43239	23368.2875
2826.96904	23379.4875
2829.50412	23388.4875
2832.03763	23327.0875
2834.56959	23324.7875
2837.1	23268.1875
2839.62884	23305.2875
2842.15613	23291.6875
2844.68186	23394.6875
2847.20604	23345.3875
2849.72867	23364.8875
2852.24974	23398.4875
2854.76927	23377.5875
2857.28724	23369.9875
2859.80367	23328.3875
2862.31855	23333.8875
2864.83189	23328.9875
2867.34368	23263.9875
2869.85393	23259.2875
2872.36264	23175.4875
2874.8698	23187.4875
2877.37543	23226.9875
2879.87952	23277.2875
2882.38207	23253.5875
2884.88308	23277.9875
2887.38256	23312.9875
2889.88051	23284.9875
2892.37692	23327.9875
2894.8718	23351.6875
2897.36515	23393.7875
2899.85698	23401.6875
2902.34727	23464.6875
2904.83604	23440.0875
2907.32328	23522.4875
2909.809	23486.1875
2912.29319	23538.8875
2914.77587	23532.4875
2917.25702	23524.5875
2919.73665	23465.3875
2922.21476	23504.4875
2924.69136	23475.5875
2927.16644	23438.0875
2929.64	23414.6875
2932.11205	23390.4875
2934.58258	23316.0875
2937.05161	23348.1875
2939.51912	23374.5875
2941.98513	23370.0875
2944.44962	23303.2875
2946.91261	23234.4875
2949.37409	23240.5875
2951.83407	23256.3875
2954.29254	23214.8875
2956.74951	23219.4875
2959.20498	23183.2875
2961.65895	23166.3875
2964.11142	23110.2875
2966.56239	23125.7875
2969.01186	23091.3875
2971.45984	23066.9875
2973.90632	23103.9875
2976.35131	22985.6875
2978.7948	22929.6875
2981.23681	22889.1875
2983.67732	22881.2875
2986.11635	22811.3875
2988.55388	22757.3875
2990.98993	22686.9875
2993.4245	22625.8875
2995.85758	22537.3875
2998.28917	22552.3875
3000.71928	22520.9875
3003.14791	22491.0875
3005.57506	22497.4875
3008.00073	22419.3875
3010.42493	22391.0875
3012.84764	22394.4875
3015.26888	22380.6875
3017.68865	22332.1875
3020.10694	22310.4875
3022.52376	22218.3875
3024.9391	22198.5875
3027.35298	22207.4875
3029.76539	22178.0875
3032.17632	22158.2875
3034.5858	22090.0875
3036.9938	22140.5875
3039.40034	22138.9875
3041.80542	22146.6875
3044.20903	22084.9875
3046.61118	22095.4875
3049.01187	22058.7875
3051.4111	22069.7875
3053.80888	22035.9875
3056.20519	22015.6875
3058.60005	21932.2875
3060.99345	21901.0875
3063.3854	21805.6875
3065.7759	21771.7875
3068.16494	21726.1875
3070.55254	21693.3875
3072.93868	21598.9875
3075.32338	21557.2875
3077.70662	21538.6875
3080.08842	21490.8875
3082.46878	21469.5875
3084.84769	21396.6875
3087.22515	21376.7875
3089.60118	21375.8875
3091.97576	21401.9875
3094.3489	21394.3875
3096.72061	21372.2875
3099.09087	21361.8875
3101.4597	21332.4875
3103.82709	21347.4875
3106.19305	21366.7875
3108.55757	21324.2875
3110.92066	21255.0875
3113.28232	21276.6875
3115.64255	21209.4875
3118.00134	21139.8875
3120.35871	21175.7875
3122.71466	21094.4875
3125.06917	21036.7875
3127.42226	21010.7875
3129.77393	20997.8875
3132.12417	20999.3875
3134.47299	20982.1875
3136.82039	20981.1875
3139.16636	20937.2875
3141.51092	20905.7875
3143.85406	20937.8875
3146.19579	20935.4875
3148.53609	20940.0875
3150.87499	20935.1875
3153.21246	20954.7875
3155.54853	20967.0875
3157.88318	20926.0875
3160.21642	20908.5875
3162.54826	20922.2875
3164.87868	20938.7875
3167.2077	20920.0875
3169.5353	20926.6875
3171.86151	20940.9875
3174.18631	20912.6875
3176.5097	20925.8875
3178.83169	20880.8875
3181.15228	20848.9875
3183.47147	20825.7875
3185.78926	20790.7875
3188.10565	20783.0875
3190.42065	20744.1875
3192.73424	20738.1875
3195.04645	20729.5875
3197.35725	20722.1875
3199.66667	20685.1875
3201.97469	20689.9875
3204.28132	20698.2875
3206.58656	20720.9875
3208.8904	20729.5875
3211.19287	20725.6875
3213.49394	20737.8875
3215.79363	20743.8875
3218.09193	20752.5875
3220.38884	20724.8875
3222.68438	20766.3875
3224.97853	20732.6875
3227.2713	20715.3875
3229.56269	20698.2875
3231.8527	20702.5875
3234.14133	20659.7875
3236.42858	20646.3875
3238.71446	20612.1875
3240.99896	20564.1875
3243.28209	20589.7875
3245.56384	20524.9875
3247.84423	20538.8875
3250.12324	20507.8875
3252.40088	20465.6875
3254.67715	20452.4875
3256.95205	20457.5875
3259.22558	20403.7875
3261.49775	20419.9875
3263.76855	20395.4875
3266.03799	20334.7875
3268.30606	20325.7875
3270.57277	20282.6875
3272.83812	20243.3875
3275.10211	20170.0875
3277.36474	20206.0875
3279.62601	20174.3875
3281.88593	20156.8875
3284.14448	20191.2875
3286.40168	20187.3875
3288.65753	20192.5875
3290.91202	20192.1875
3293.16516	20134.1875
3295.41695	20055.3875
3297.66738	20000.7875
3299.91647	19888.1875
3302.16421	19743.5875
3304.4106	19669.5875
3306.65564	19502.9875
3308.89933	19413.0875
3311.14169	19265.7875
3313.38269	19122.4875
3315.62236	19016.2875
3317.86068	18873.9875
3320.09766	18743.8875
3322.3333	18610.7875
3324.5676	18531.6875
3326.80056	18230.1875
3329.03219	18133.0875
3331.26248	4.9875
3333.49143	-1.2125
3335.71905	-0.5125
