Data from AgNPs_FTO_APTES_UA_5uM_CRN_10uM_R6G_10uM_NaF_0.1M_Addition_RamanShift__23__12-50-06-741.txt Node

Date: Mon Feb 07 12:50:06 GMT 2022
User: TCL
Spectrometer: QEP01345
Trigger mode: 4
Integration Time (sec): 7.000000E0
Scans to average: 10
Electric dark correction enabled: true
Nonlinearity correction enabled: false
Boxcar width: 0
XAxis mode: Raman Shifts
Number of Pixels in Spectrum: 1044
>>>>>Begin Spectral Data<<<<<
46.04893	-0.3625
50.45542	-0.0625
54.85868	-1.5625
59.25871	-0.7625
63.6555	82.2375
68.04907	90.8375
72.43941	97.6375
76.82654	98.8375
81.21044	100.3375
85.59113	107.8375
89.96862	109.3375
94.34289	112.7375
98.71396	116.8375
103.08183	123.5375
107.4465	125.7375
111.80798	126.5375
116.16626	134.9375
120.52136	140.3375
124.87327	147.0375
129.222	157.8375
133.56755	169.9375
137.90993	184.6375
142.24913	198.8375
146.58517	231.9375
150.91804	275.1375
155.24774	331.6375
159.57429	415.1375
163.89768	540.0375
168.21792	720.9375
172.53501	988.6375
176.84895	1374.4375
181.15975	1947.9375
185.46741	2721.5375
189.77193	3771.6375
194.07331	5004.6375
198.37157	6420.7375
202.6667	7933.2375
206.9587	9395.6375
211.24758	10890.9375
215.53334	12328.7375
219.81599	13919.3375
224.09553	15722.0375
228.37195	17697.6375
232.64527	19866.0375
236.91549	22110.2375
241.18261	24307.8375
245.44663	26309.4375
249.70755	28099.9375
253.96539	29597.0375
258.22014	30972.2375
262.4718	32068.5375
266.72039	32971.0375
270.96589	33549.6375
275.20832	33775.2375
279.44768	33783.8375
283.68397	33753.4375
287.91719	33730.8375
292.14735	33864.6375
296.37445	34068.9375
300.59849	34315.7375
304.81948	34457.0375
309.03742	34265.0375
313.25231	33701.1375
317.46415	32554.2375
321.67296	31148.3375
325.87872	29916.3375
330.08145	29388.8375
334.28114	29238.0375
338.47781	29489.4375
342.67145	29931.9375
346.86207	30473.6375
351.04966	31240.3375
355.23424	32113.2375
359.4158	32834.6375
363.59435	33233.1375
367.76989	33396.3375
371.94243	33510.0375
376.11196	33552.9375
380.27849	33646.6375
384.44203	33734.9375
388.60257	33865.9375
392.76012	34096.9375
396.91468	34562.3375
401.06626	35231.2375
405.21485	35706.5375
409.36047	35459.9375
413.50311	34617.4375
417.64277	33938.5375
421.77947	33771.1375
425.9132	33896.2375
430.04396	34111.5375
434.17176	34388.4375
438.2966	34813.6375
442.41849	35461.5375
446.53742	36470.8375
450.6534	37713.2375
454.76644	38635.4375
458.87653	39025.9375
462.98368	38894.9375
467.08789	38479.9375
471.18916	37953.7375
475.2875	37598.1375
479.38291	37494.3375
483.4754	37195.2375
487.56496	36651.9375
491.6516	35900.6375
495.73531	35118.4375
499.81612	34610.0375
503.89401	34653.7375
507.96899	34772.2375
512.04106	34627.1375
516.11023	34320.1375
520.1765	33978.1375
524.23987	33539.0375
528.30034	33067.6375
532.35792	32671.5375
536.41261	32254.0375
540.46441	31871.0375
544.51333	31914.0375
548.55936	32521.0375
552.60252	33487.1375
556.64279	34512.2375
560.6802	35237.3375
564.71473	35754.2375
568.7464	36626.8375
572.7752	37687.0375
576.80114	38210.0375
580.82422	38500.9375
584.84444	38806.9375
588.86181	39130.7375
592.87633	39583.4375
596.888	40083.7375
600.89682	40339.6375
604.9028	41697.4375
608.90594	45928.3375
612.90624	50726.8375
616.90371	47506.9375
620.89834	38149.6375
624.89015	34060.2375
628.87913	33594.4375
632.86528	33773.1375
636.84862	33673.3375
640.82913	32925.8375
644.80683	31667.1375
648.78172	30767.0375
652.75379	30466.5375
656.72306	30931.3375
660.68952	31643.8375
664.65319	31532.0375
668.61405	30837.3375
672.57211	30515.4375
676.52738	30552.2375
680.47986	30546.4375
684.42955	30341.9375
688.37646	30232.3375
692.32058	30395.0375
696.26192	30741.6375
700.20048	31150.2375
704.13626	31436.7375
708.06928	31426.4375
711.99952	31144.5375
715.927	30998.4375
719.85171	31007.6375
723.77365	30881.3375
727.69284	30534.3375
731.60928	30140.9375
735.52295	30065.8375
739.43388	30085.4375
743.34206	30151.6375
747.24749	30386.3375
751.15017	30857.9375
755.05012	31496.9375
758.94733	32792.6375
762.8418	35098.7375
766.73354	38759.6375
770.62254	42126.5375
774.50882	42850.8375
778.39237	40324.0375
782.27321	36332.2375
786.15132	33147.3375
790.02671	31322.7375
793.89938	30365.9375
797.76935	29969.8375
801.6366	29907.9375
805.50115	29777.6375
809.36299	29611.6375
813.22213	29411.4375
817.07857	29332.5375
820.93231	29337.8375
824.78336	29190.8375
828.63172	29063.4375
832.47738	29014.4375
836.32036	29010.0375
840.16066	29129.2375
843.99827	29208.3375
847.8332	29115.6375
851.66546	28922.6375
855.49504	28842.3375
859.32195	28770.8375
863.1462	28590.9375
866.96777	28480.4375
870.78668	28358.8375
874.60293	28331.8375
878.41652	28255.9375
882.22745	28419.2375
886.03573	28497.6375
889.84136	28490.4375
893.64433	28350.8375
897.44466	28227.4375
901.24235	28109.2375
905.0374	28060.4375
908.8298	27975.2375
912.61957	28096.8375
916.40671	28474.8375
920.19121	29009.9375
923.97308	29404.5375
927.75233	29456.6375
931.52895	29239.8375
935.30295	28740.2375
939.07433	28120.4375
942.84309	27516.0375
946.60924	27277.1375
950.37278	27092.6375
954.13371	27006.5375
957.89203	26853.4375
961.64774	26841.5375
965.40086	26801.8375
969.15137	26710.1375
972.89929	26547.2375
976.64461	26390.3375
980.38733	26357.7375
984.12747	26453.2375
987.86502	26759.1375
991.59999	27174.1375
995.33237	27820.1375
999.06217	28830.4375
1002.78939	30078.1375
1006.51404	30876.8375
1010.23611	31296.4375
1013.95561	31663.0375
1017.67255	31625.5375
1021.38692	31182.5375
1025.09872	30757.5375
1028.80796	30922.5375
1032.51465	31826.5375
1036.21877	32758.5375
1039.92035	32926.6375
1043.61937	32419.9375
1047.31584	31542.0375
1051.00976	30635.9375
1054.70114	30134.7375
1058.38998	30165.9375
1062.07627	30443.2375
1065.76003	30736.4375
1069.44126	31008.6375
1073.11995	31318.8375
1076.79611	31617.5375
1080.46974	31856.2375
1084.14085	32178.1375
1087.80943	32606.0375
1091.47549	32998.1375
1095.13903	32981.9375
1098.80005	32413.0375
1102.45857	31629.4375
1106.11456	30898.0375
1109.76805	30712.5375
1113.41903	30968.3375
1117.06751	31376.1375
1120.71348	31900.4375
1124.35696	32429.2375
1127.99793	32913.6375
1131.63641	33119.0375
1135.2724	32811.7375
1138.90589	32431.6375
1142.5369	32210.9375
1146.16542	32265.7375
1149.79145	32497.4375
1153.415	32951.1375
1157.03607	33699.9375
1160.65467	34829.8375
1164.27079	36509.7375
1167.88443	38814.4375
1171.49561	41961.8375
1175.10432	46071.8375
1178.71056	51197.1375
1182.31434	55781.0375
1185.91565	58359.0375
1189.51451	58574.5375
1193.11091	56894.9375
1196.70485	54027.0375
1200.29634	51037.6375
1203.88538	48662.3375
1207.47197	46798.0375
1211.05612	45382.9375
1214.63782	44265.0375
1218.21708	43479.6375
1221.79391	42945.3375
1225.36829	42656.4375
1228.94024	42133.0375
1232.50976	41389.0375
1236.07685	40769.8375
1239.6415	40395.0375
1243.20374	40245.3375
1246.76355	40420.2375
1250.32093	41079.5375
1253.8759	42134.3375
1257.42845	43629.8375
1260.97859	45071.2375
1264.52631	46462.6375
1268.07163	47867.2375
1271.61453	49487.8375
1275.15503	51318.3375
1278.69312	53094.9375
1282.22882	54757.8375
1285.76211	56384.3375
1289.29301	58302.3375
1292.82151	60781.1375
1296.34761	64142.4375
1299.87133	68142.3375
1303.39266	72822.9375
1306.9116	78102.1375
1310.42815	83320.2375
1313.94233	86823.1375
1317.45412	87331.4375
1320.96354	86129.7375
1324.47058	84304.7375
1327.97525	82562.7375
1331.47754	81306.2375
1334.97747	80736.3375
1338.47502	80653.3375
1341.97022	80691.2375
1345.46305	79684.5375
1348.95352	77873.9375
1352.44163	76114.8375
1355.92738	75968.4375
1359.41078	78520.1375
1362.89183	81577.2375
1366.37053	79851.3375
1369.84688	72785.8375
1373.32088	64773.3375
1376.79254	59389.2375
1380.26186	57202.3375
1383.72883	57102.7375
1387.19347	57362.6375
1390.65578	57347.6375
1394.11575	57791.9375
1397.57339	58978.2375
1401.0287	60696.0375
1404.48168	62079.7375
1407.93234	62635.1375
1411.38068	61879.3375
1414.82669	59635.0375
1418.27039	56418.9375
1421.71177	53089.4375
1425.15083	50396.0375
1428.58758	48817.8375
1432.02203	48712.6375
1435.45416	49634.9375
1438.88399	51090.4375
1442.31151	52414.3375
1445.73673	53706.8375
1449.15965	55008.0375
1452.58027	56020.0375
1455.9986	56709.5375
1459.41463	57327.6375
1462.82837	58331.8375
1466.23982	59393.5375
1469.64898	60207.2375
1473.05586	60409.5375
1476.46045	60096.6375
1479.86276	59413.0375
1483.26279	58519.9375
1486.66054	58167.0375
1490.05602	58159.2375
1493.44922	58393.5375
1496.84016	58874.4375
1500.22882	59895.8375
1503.61521	61795.6375
1506.99934	64358.9375
1510.38121	67015.7375
1513.76081	68385.1375
1517.13816	67293.7375
1520.51324	64424.5375
1523.88607	61539.6375
1527.25665	59624.1375
1530.62498	58770.2375
1533.99105	58379.1375
1537.35488	57987.9375
1540.71647	57416.4375
1544.07581	56346.4375
1547.4329	55000.6375
1550.78776	53845.8375
1554.14038	53064.4375
1557.49077	52775.8375
1560.83892	52693.8375
1564.18484	52764.2375
1567.52853	52744.1375
1570.86999	52893.2375
1574.20922	53544.3375
1577.54624	54337.5375
1580.88103	54578.5375
1584.2136	54904.9375
1587.54395	56611.5375
1590.87208	59637.4375
1594.19801	63581.3375
1597.52172	67263.6375
1600.84321	68263.9375
1604.16251	65003.1375
1607.47959	59498.5375
1610.79447	53657.9375
1614.10715	48331.7375
1617.41763	43923.0375
1620.7259	40797.9375
1624.03199	39207.3375
1627.33587	39043.8375
1630.63757	40446.2375
1633.93707	43609.2375
1637.23439	48389.1375
1640.52951	54786.0375
1643.82246	61682.3375
1647.11321	66921.4375
1650.40179	67905.2375
1653.68819	63289.1375
1656.97241	54649.8375
1660.25446	45727.7375
1663.53433	38907.3375
1666.81203	34403.0375
1670.08756	31590.0375
1673.36092	29769.2375
1676.63211	28669.2375
1679.90115	27835.9375
1683.16801	27233.9375
1686.43272	26801.4375
1689.69527	26464.6375
1692.95567	26220.1375
1696.2139	25998.4375
1699.46999	25831.1375
1702.72392	25743.6375
1705.97571	25626.6375
1709.22535	25575.1375
1712.47284	25511.3375
1715.71819	25415.9375
1718.96139	25305.5375
1722.20246	25219.8375
1725.44139	25114.3375
1728.67818	24942.6375
1731.91284	24755.6375
1735.14537	24566.6375
1738.37576	24439.9375
1741.60403	24332.7375
1744.83017	24271.0375
1748.05418	24209.4375
1751.27607	24130.1375
1754.49584	24087.1375
1757.71349	24032.0375
1760.92903	24024.5375
1764.14244	23972.6375
1767.35375	23927.4375
1770.56294	23896.4375
1773.77002	23842.2375
1776.97499	23771.7375
1780.17785	23743.2375
1783.37861	23670.1375
1786.57727	23645.0375
1789.77382	23583.9375
1792.96828	23592.3375
1796.16064	23531.9375
1799.3509	23504.8375
1802.53907	23452.9375
1805.72514	23377.0375
1808.90913	23268.4375
1812.09102	23229.5375
1815.27083	23163.9375
1818.44856	23156.7375
1821.6242	23125.7375
1824.79776	23084.4375
1827.96924	23075.5375
1831.13864	23067.1375
1834.30597	23095.0375
1837.47122	23069.4375
1840.6344	23081.4375
1843.7955	23092.9375
1846.95454	23090.2375
1850.11151	23115.5375
1853.26642	23071.5375
1856.41926	23135.2375
1859.57004	23118.8375
1862.71876	23140.0375
1865.86542	23101.3375
1869.01003	23106.8375
1872.15258	23077.6375
1875.29308	23099.7375
1878.43152	23093.8375
1881.56792	23136.2375
1884.70227	23165.4375
1887.83457	23191.9375
1890.96482	23140.7375
1894.09304	23115.5375
1897.21921	23123.8375
1900.34335	23151.6375
1903.46544	23078.8375
1906.58551	23183.0375
1909.70353	23153.2375
1912.81953	23069.4375
1915.93349	23067.4375
1919.04543	23011.0375
1922.15534	22937.3375
1925.26322	22844.3375
1928.36908	22804.5375
1931.47292	22710.9375
1934.57473	22559.5375
1937.67453	22459.7375
1940.77232	22376.4375
1943.86808	22216.8375
1946.96184	22168.4375
1950.05358	22082.9375
1953.14331	21964.4375
1956.23103	21909.5375
1959.31675	21794.6375
1962.40046	21737.9375
1965.48217	21653.6375
1968.56188	21630.3375
1971.63959	21519.4375
1974.7153	21477.0375
1977.78901	21405.5375
1980.86073	21320.0375
1983.93046	21195.5375
1986.99819	21146.1375
1990.06394	21106.5375
1993.1277	21045.3375
1996.18947	20985.4375
1999.24925	20930.0375
2002.30706	20847.6375
2005.36288	20766.3375
2008.41672	20732.5375
2011.46859	20693.4375
2014.51848	20620.7375
2017.56639	20543.8375
2020.61233	20522.3375
2023.6563	20471.2375
2026.6983	20399.1375
2029.73833	20368.1375
2032.7764	20334.3375
2035.8125	20305.5375
2038.84664	20266.0375
2041.87881	20247.8375
2044.90903	20197.4375
2047.93729	20169.7375
2050.96359	20185.3375
2053.98794	20125.0375
2057.01034	20133.3375
2060.03078	20095.5375
2063.04927	20085.4375
2066.06582	20090.3375
2069.08042	20022.3375
2072.09307	20040.9375
2075.10378	19990.6375
2078.11255	19969.9375
2081.11938	19956.7375
2084.12426	19917.5375
2087.12722	19911.0375
2090.12824	19873.9375
2093.12732	19866.4375
2096.12447	19909.7375
2099.11969	19901.8375
2102.11299	19834.3375
2105.10435	19898.9375
2108.09379	19893.6375
2111.08131	19868.8375
2114.0669	19853.0375
2117.05057	19923.3375
2120.03233	19903.0375
2123.01216	19924.4375
2125.99008	19902.3375
2128.96609	19927.4375
2131.94018	19978.0375
2134.91236	19940.5375
2137.88263	19985.0375
2140.851	19967.9375
2143.81746	20015.8375
2146.78201	19971.4375
2149.74466	19951.6375
2152.7054	19914.4375
2155.66425	19918.5375
2158.6212	19915.6375
2161.57625	19928.9375
2164.52941	19916.1375
2167.48067	19912.2375
2170.43004	19902.9375
2173.37752	19896.0375
2176.32311	19850.7375
2179.26681	19903.2375
2182.20863	19882.0375
2185.14856	19923.6375
2188.08661	19905.7375
2191.02278	19953.0375
2193.95707	19914.6375
2196.88948	19879.8375
2199.82001	19860.7375
2202.74867	19844.2375
2205.67545	19835.9375
2208.60037	19812.9375
2211.52341	19803.9375
2214.44458	19819.8375
2217.36388	19814.9375
2220.28132	19710.9375
2223.1969	19701.7375
2226.11061	19652.2375
2229.02246	19617.1375
2231.93245	19542.3375
2234.84058	19541.0375
2237.74686	19467.9375
2240.65128	19468.2375
2243.55385	19399.0375
2246.45456	19368.0375
2249.35343	19332.8375
2252.25044	19338.1375
2255.14561	19297.5375
2258.03893	19266.6375
2260.93041	19259.4375
2263.82004	19188.5375
2266.70783	19160.2375
2269.59378	19104.6375
2272.4779	19030.0375
2275.36017	18947.5375
2278.24061	18935.5375
2281.11922	18893.8375
2283.996	18898.9375
2286.87094	18878.2375
2289.74405	18845.9375
2292.61534	18817.9375
2295.4848	18798.5375
2298.35243	18826.2375
2301.21824	18854.1375
2304.08223	18829.1375
2306.94439	18852.7375
2309.80474	18861.0375
2312.66327	18933.5375
2315.51999	18919.5375
2318.37489	18900.9375
2321.22797	18874.8375
2324.07925	18821.8375
2326.92871	18816.7375
2329.77637	18810.2375
2332.62222	18773.5375
2335.46626	18772.3375
2338.3085	18789.5375
2341.14893	18811.9375
2343.98756	18867.5375
2346.8244	18885.7375
2349.65943	18885.0375
2352.49267	18876.8375
2355.32411	18906.5375
2358.15376	18851.0375
2360.98161	18845.1375
2363.80768	18821.6375
2366.63195	18823.2375
2369.45444	18781.1375
2372.27514	18743.8375
2375.09405	18717.9375
2377.91118	18622.4375
2380.72652	18610.1375
2383.54009	18557.6375
2386.35187	18521.6375
2389.16188	18463.2375
2391.97011	18472.6375
2394.77657	18427.4375
2397.58125	18410.5375
2400.38416	18373.7375
2403.18529	18315.8375
2405.98466	18322.6375
2408.78226	18249.1375
2411.57809	18195.2375
2414.37216	18206.0375
2417.16446	18168.4375
2419.955	18139.5375
2422.74378	18116.7375
2425.5308	18065.1375
2428.31606	18083.2375
2431.09956	18065.5375
2433.88131	18089.9375
2436.6613	18108.9375
2439.43954	18075.1375
2442.21603	18070.9375
2444.99077	18039.3375
2447.76377	18067.2375
2450.53501	18042.5375
2453.30451	18080.0375
2456.07226	18037.2375
2458.83827	18025.6375
2461.60254	18053.6375
2464.36507	18037.3375
2467.12586	18009.4375
2469.88492	18088.2375
2472.64224	18070.1375
2475.39782	18120.7375
2478.15167	18152.5375
2480.90379	18131.5375
2483.65417	18129.8375
2486.40283	18208.4375
2489.14976	18200.7375
2491.89497	18201.0375
2494.63845	18249.2375
2497.3802	18234.5375
2500.12024	18256.2375
2502.85855	18227.6375
2505.59514	18209.3375
2508.33002	18206.9375
2511.06318	18196.4375
2513.79462	18162.3375
2516.52435	18149.8375
2519.25237	18154.0375
2521.97867	18079.9375
2524.70327	18143.2375
2527.42616	18074.4375
2530.14734	18079.1375
2532.86681	18101.3375
2535.58458	18130.2375
2538.30065	18103.8375
2541.01501	18100.7375
2543.72768	18074.1375
2546.43864	18028.6375
2549.14791	18052.4375
2551.85548	18043.0375
2554.56136	18027.3375
2557.26554	17975.8375
2559.96803	17969.3375
2562.66883	17972.3375
2565.36794	17936.3375
2568.06536	17944.0375
2570.7611	17939.1375
2573.45514	17938.1375
2576.14751	17916.8375
2578.83819	17885.6375
2581.52719	17904.2375
2584.21451	17928.8375
2586.90015	17936.8375
2589.58411	17949.4375
2592.2664	17987.8375
2594.94701	17956.2375
2597.62594	17973.1375
2600.30321	17959.7375
2602.9788	17972.5375
2605.65273	17970.7375
2608.32498	17998.6375
2610.99557	17979.8375
2613.66449	17998.4375
2616.33175	17992.2375
2618.99734	18022.2375
2621.66128	18005.3375
2624.32355	18047.0375
2626.98416	18055.5375
2629.64311	18064.0375
2632.30041	18061.3375
2634.95605	18046.6375
2637.61004	18036.7375
2640.26238	18010.1375
2642.91306	17975.8375
2645.56209	17974.0375
2648.20948	17958.9375
2650.85521	17976.3375
2653.4993	17961.8375
2656.14175	17946.3375
2658.78255	17961.5375
2661.42171	18017.8375
2664.05923	18016.1375
2666.6951	18016.3375
2669.32934	18067.0375
2671.96194	18075.7375
2674.59291	18081.3375
2677.22224	18075.2375
2679.84993	18078.5375
2682.476	18074.5375
2685.10043	18083.8375
2687.72324	18012.0375
2690.34441	17984.0375
2692.96396	17935.2375
2695.58188	17973.3375
2698.19818	17926.1375
2700.81285	17979.1375
2703.4259	17973.1375
2706.03733	18021.8375
2708.64714	17959.5375
2711.25533	17979.5375
2713.86191	17998.9375
2716.46687	18050.3375
2719.07021	18013.7375
2721.67194	18046.0375
2724.27206	18066.4375
2726.87057	18087.5375
2729.46747	18069.8375
2732.06276	18071.4375
2734.65644	18070.1375
2737.24852	18100.2375
2739.83899	18063.4375
2742.42786	18075.5375
2745.01513	18092.9375
2747.60079	18052.6375
2750.18486	18043.5375
2752.76733	18052.9375
2755.3482	18032.2375
2757.92747	18093.4375
2760.50515	18046.7375
2763.08123	18072.5375
2765.65573	18109.8375
2768.22863	18053.9375
2770.79994	18061.3375
2773.36967	18078.4375
2775.9378	18052.1375
2778.50435	18087.2375
2781.06932	18060.3375
2783.6327	18107.0375
2786.1945	18111.4375
2788.75471	18103.0375
2791.31335	18055.8375
2793.87041	18027.8375
2796.42589	17991.6375
2798.97979	17993.3375
2801.53212	17906.1375
2804.08288	17904.1375
2806.63206	17839.3375
2809.17967	17849.6375
2811.72571	17822.0375
2814.27018	17829.2375
2816.81308	17796.8375
2819.35442	17763.6375
2821.89419	17749.2375
2824.43239	17762.3375
2826.96904	17766.4375
2829.50412	17726.4375
2832.03763	17700.3375
2834.56959	17693.5375
2837.1	17660.2375
2839.62884	17672.5375
2842.15613	17655.2375
2844.68186	17740.3375
2847.20604	17735.3375
2849.72867	17739.2375
2852.24974	17708.8375
2854.76927	17694.3375
2857.28724	17732.6375
2859.80367	17722.0375
2862.31855	17651.8375
2864.83189	17640.3375
2867.34368	17589.2375
2869.85393	17632.2375
2872.36264	17594.7375
2874.8698	17561.6375
2877.37543	17560.3375
2879.87952	17571.8375
2882.38207	17593.7375
2884.88308	17597.2375
2887.38256	17568.1375
2889.88051	17614.1375
2892.37692	17585.8375
2894.8718	17624.0375
2897.36515	17668.4375
2899.85698	17662.2375
2902.34727	17747.1375
2904.83604	17746.1375
2907.32328	17784.8375
2909.809	17768.4375
2912.29319	17792.6375
2914.77587	17796.6375
2917.25702	17805.2375
2919.73665	17790.6375
2922.21476	17748.6375
2924.69136	17748.7375
2927.16644	17736.2375
2929.64	17682.6375
2932.11205	17637.8375
2934.58258	17578.3375
2937.05161	17591.0375
2939.51912	17599.4375
2941.98513	17558.2375
2944.44962	17501.3375
2946.91261	17455.9375
2949.37409	17464.9375
2951.83407	17429.9375
2954.29254	17421.9375
2956.74951	17412.7375
2959.20498	17384.9375
2961.65895	17340.0375
2964.11142	17334.3375
2966.56239	17278.4375
2969.01186	17280.6375
2971.45984	17263.2375
2973.90632	17217.7375
2976.35131	17176.5375
2978.7948	17118.1375
2981.23681	17075.4375
2983.67732	17042.9375
2986.11635	16991.8375
2988.55388	16998.8375
2990.98993	16939.1375
2993.4245	16869.3375
2995.85758	16798.5375
2998.28917	16790.0375
3000.71928	16779.7375
3003.14791	16754.5375
3005.57506	16692.4375
3008.00073	16668.4375
3010.42493	16541.9375
3012.84764	16582.4375
3015.26888	16571.6375
3017.68865	16537.5375
3020.10694	16523.0375
3022.52376	16486.9375
3024.9391	16475.4375
3027.35298	16452.7375
3029.76539	16444.3375
3032.17632	16383.4375
3034.5858	16393.0375
3036.9938	16387.0375
3039.40034	16334.3375
3041.80542	16359.3375
3044.20903	16339.2375
3046.61118	16316.1375
3049.01187	16259.2375
3051.4111	16270.0375
3053.80888	16251.5375
3056.20519	16197.7375
3058.60005	16168.8375
3060.99345	16105.7375
3063.3854	16069.8375
3065.7759	15989.3375
3068.16494	15936.1375
3070.55254	15899.3375
3072.93868	15856.1375
3075.32338	15815.6375
3077.70662	15770.8375
3080.08842	15707.0375
3082.46878	15672.6375
3084.84769	15624.5375
3087.22515	15634.0375
3089.60118	15627.8375
3091.97576	15629.8375
3094.3489	15601.7375
3096.72061	15607.9375
3099.09087	15576.9375
3101.4597	15559.5375
3103.82709	15562.5375
3106.19305	15514.4375
3108.55757	15520.7375
3110.92066	15447.2375
3113.28232	15421.3375
3115.64255	15397.1375
3118.00134	15350.9375
3120.35871	15343.9375
3122.71466	15299.6375
3125.06917	15246.5375
3127.42226	15224.6375
3129.77393	15181.6375
3132.12417	15150.1375
3134.47299	15181.8375
3136.82039	15140.4375
3139.16636	15159.0375
3141.51092	15125.1375
3143.85406	15114.6375
3146.19579	15093.8375
3148.53609	15081.3375
3150.87499	15094.3375
3153.21246	15122.0375
3155.54853	15118.4375
3157.88318	15086.7375
3160.21642	15089.2375
3162.54826	15086.5375
3164.87868	15120.4375
3167.2077	15109.6375
3169.5353	15118.0375
3171.86151	15083.8375
3174.18631	15095.5375
3176.5097	15073.2375
3178.83169	15060.6375
3181.15228	15040.9375
3183.47147	15043.2375
3185.78926	15035.9375
3188.10565	15001.6375
3190.42065	14978.8375
3192.73424	14962.6375
3195.04645	14962.7375
3197.35725	14941.6375
3199.66667	14902.8375
3201.97469	14944.0375
3204.28132	14905.5375
3206.58656	14928.0375
3208.8904	14914.9375
3211.19287	14956.4375
3213.49394	14947.5375
3215.79363	14949.3375
3218.09193	14955.4375
3220.38884	14931.5375
3222.68438	14937.1375
3224.97853	14889.1375
3227.2713	14933.6375
3229.56269	14898.2375
3231.8527	14907.5375
3234.14133	14865.4375
3236.42858	14820.0375
3238.71446	14785.1375
3240.99896	14757.7375
3243.28209	14757.5375
3245.56384	14734.1375
3247.84423	14711.8375
3250.12324	14704.4375
3252.40088	14657.5375
3254.67715	14670.1375
3256.95205	14655.7375
3259.22558	14645.8375
3261.49775	14602.9375
3263.76855	14636.5375
3266.03799	14575.4375
3268.30606	14546.9375
3270.57277	14515.4375
3272.83812	14467.6375
3275.10211	14461.3375
3277.36474	14450.3375
3279.62601	14435.2375
3281.88593	14422.3375
3284.14448	14424.1375
3286.40168	14418.5375
3288.65753	14404.7375
3290.91202	14409.7375
3293.16516	14358.9375
3295.41695	14329.0375
3297.66738	14253.2375
3299.91647	14194.5375
3302.16421	14097.6375
3304.4106	14011.1375
3306.65564	13917.0375
3308.89933	13802.2375
3311.14169	13709.0375
3313.38269	13618.4375
3315.62236	13528.9375
3317.86068	13414.6375
3320.09766	13306.1375
3322.3333	13239.3375
3324.5676	13157.0375
3326.80056	12935.2375
3329.03219	12851.0375
3331.26248	3.8375
3333.49143	-1.0625
3335.71905	-1.0625
