Data from AgNPs_FTO_APTES_UA_5uM_CRN_200uM_R6G_10uM_NaF_0.1M_Addition_RamanShift__8__16-09-11-771.txt Node

Date: Mon Feb 07 16:09:11 GMT 2022
User: TCL
Spectrometer: QEP01345
Trigger mode: 4
Integration Time (sec): 7.000000E0
Scans to average: 10
Electric dark correction enabled: true
Nonlinearity correction enabled: false
Boxcar width: 0
XAxis mode: Raman Shifts
Number of Pixels in Spectrum: 1044
>>>>>Begin Spectral Data<<<<<
46.04893	-0.8625
50.45542	-1.6625
54.85868	0.1375
59.25871	0.2375
63.6555	78.4375
68.04907	79.3375
72.43941	85.9375
76.82654	87.2375
81.21044	84.9375
85.59113	87.1375
89.96862	97.9375
94.34289	98.6375
98.71396	100.6375
103.08183	103.6375
107.4465	110.0375
111.80798	110.2375
116.16626	116.1375
120.52136	121.6375
124.87327	127.6375
129.222	137.9375
133.56755	142.3375
137.90993	158.6375
142.24913	181.0375
146.58517	201.4375
150.91804	237.3375
155.24774	291.3375
159.57429	365.8375
163.89768	466.8375
168.21792	639.0375
172.53501	867.7375
176.84895	1230.3375
181.15975	1718.2375
185.46741	2411.4375
189.77193	3330.6375
194.07331	4467.0375
198.37157	5740.2375
202.6667	7121.3375
206.9587	8446.9375
211.24758	9771.6375
215.53334	11081.1375
219.81599	12497.9375
224.09553	14031.7375
228.37195	15740.3375
232.64527	17528.6375
236.91549	19436.5375
241.18261	21331.0375
245.44663	23129.3375
249.70755	24808.4375
253.96539	26251.7375
258.22014	27435.0375
262.4718	28410.7375
266.72039	29133.2375
270.96589	29580.0375
275.20832	29742.5375
279.44768	29723.9375
283.68397	29626.4375
287.91719	29589.9375
292.14735	29636.1375
296.37445	29867.9375
300.59849	30116.7375
304.81948	30292.9375
309.03742	30173.3375
313.25231	29774.3375
317.46415	29029.1375
321.67296	28037.2375
325.87872	27188.3375
330.08145	26749.2375
334.28114	26628.2375
338.47781	26739.3375
342.67145	26958.9375
346.86207	27283.8375
351.04966	27619.0375
355.23424	27902.0375
359.4158	28148.7375
363.59435	28349.8375
367.76989	28540.6375
371.94243	28679.5375
376.11196	28738.4375
380.27849	28742.1375
384.44203	28867.5375
388.60257	29119.1375
392.76012	29462.6375
396.91468	29873.7375
401.06626	30314.6375
405.21485	30592.1375
409.36047	30478.8375
413.50311	29968.6375
417.64277	29657.7375
421.77947	29592.8375
425.9132	29621.1375
430.04396	29710.3375
434.17176	29929.6375
438.2966	30191.0375
442.41849	30686.0375
446.53742	31406.1375
450.6534	32254.1375
454.76644	32860.5375
458.87653	33220.8375
462.98368	33272.8375
467.08789	33279.2375
471.18916	33116.9375
475.2875	33127.0375
479.38291	33290.2375
483.4754	33194.7375
487.56496	32633.2375
491.6516	31782.8375
495.73531	30909.6375
499.81612	30314.9375
503.89401	30283.0375
507.96899	30406.0375
512.04106	30476.2375
516.11023	30304.7375
520.1765	29979.4375
524.23987	29675.6375
528.30034	29273.5375
532.35792	28949.0375
536.41261	28665.4375
540.46441	28448.0375
544.51333	28559.8375
548.55936	29026.9375
552.60252	29818.9375
556.64279	30685.8375
560.6802	31350.3375
564.71473	31892.8375
568.7464	32800.9375
572.7752	34188.2375
576.80114	35437.3375
580.82422	36306.7375
584.84444	36720.3375
588.86181	37165.0375
592.87633	37368.8375
596.888	36834.9375
600.89682	35828.4375
604.9028	35568.9375
608.90594	36765.9375
612.90624	38285.2375
616.90371	35859.6375
620.89834	30888.4375
624.89015	28770.8375
628.87913	28608.4375
632.86528	28929.4375
636.84862	29023.1375
640.82913	28690.0375
644.80683	28078.2375
648.78172	27560.8375
652.75379	27430.6375
656.72306	27566.6375
660.68952	27889.5375
664.65319	27755.0375
668.61405	27412.2375
672.57211	27312.2375
676.52738	27360.2375
680.47986	27419.6375
684.42955	27363.5375
688.37646	27279.9375
692.32058	27303.2375
696.26192	27553.9375
700.20048	27828.6375
704.13626	28066.4375
708.06928	28243.4375
711.99952	28249.6375
715.927	28161.1375
719.85171	28043.1375
723.77365	27854.8375
727.69284	27480.3375
731.60928	27143.5375
735.52295	26997.2375
739.43388	26912.8375
743.34206	26924.2375
747.24749	27062.0375
751.15017	27416.9375
755.05012	27954.1375
758.94733	28925.1375
762.8418	30432.7375
766.73354	32622.7375
770.62254	34521.6375
774.50882	34578.3375
778.39237	32897.7375
782.27321	30567.9375
786.15132	28743.9375
790.02671	27571.0375
793.89938	26954.0375
797.76935	26680.8375
801.6366	26533.8375
805.50115	26469.9375
809.36299	26314.9375
813.22213	26201.7375
817.07857	26296.0375
820.93231	26306.2375
824.78336	26157.4375
828.63172	25947.1375
832.47738	25820.9375
836.32036	25752.5375
840.16066	25673.2375
843.99827	25646.4375
847.8332	25620.1375
851.66546	25644.3375
855.49504	25670.0375
859.32195	25669.2375
863.1462	25602.3375
866.96777	25513.2375
870.78668	25379.1375
874.60293	25412.9375
878.41652	25407.7375
882.22745	25499.0375
886.03573	25482.3375
889.84136	25508.9375
893.64433	25446.8375
897.44466	25401.2375
901.24235	25311.3375
905.0374	25248.1375
908.8298	25282.5375
912.61957	25396.1375
916.40671	25823.6375
920.19121	26294.5375
923.97308	26488.7375
927.75233	26187.8375
931.52895	25749.1375
935.30295	25320.6375
939.07433	24853.5375
942.84309	24479.4375
946.60924	24196.4375
950.37278	24060.4375
954.13371	24053.8375
957.89203	24101.2375
961.64774	24084.3375
965.40086	24135.5375
969.15137	23961.0375
972.89929	23747.9375
976.64461	23604.6375
980.38733	23504.5375
984.12747	23499.4375
987.86502	23575.5375
991.59999	23605.4375
995.33237	23750.5375
999.06217	23950.4375
1002.78939	24310.9375
1006.51404	24540.2375
1010.23611	24905.6375
1013.95561	25233.3375
1017.67255	25286.2375
1021.38692	25145.5375
1025.09872	24864.5375
1028.80796	24543.8375
1032.51465	24462.2375
1036.21877	24506.7375
1039.92035	24626.9375
1043.61937	24786.6375
1047.31584	24939.3375
1051.00976	25070.9375
1054.70114	25262.2375
1058.38998	25532.9375
1062.07627	25983.7375
1065.76003	26407.1375
1069.44126	26838.5375
1073.11995	27199.9375
1076.79611	27427.0375
1080.46974	27480.7375
1084.14085	27487.9375
1087.80943	27674.2375
1091.47549	27909.1375
1095.13903	28014.2375
1098.80005	27873.8375
1102.45857	27202.5375
1106.11456	26533.7375
1109.76805	26134.5375
1113.41903	26094.1375
1117.06751	26348.5375
1120.71348	26636.0375
1124.35696	26997.4375
1127.99793	27465.7375
1131.63641	27711.0375
1135.2724	27563.1375
1138.90589	27401.5375
1142.5369	27459.1375
1146.16542	27783.5375
1149.79145	28273.0375
1153.415	28817.1375
1157.03607	29425.6375
1160.65467	30345.0375
1164.27079	31693.2375
1167.88443	33403.9375
1171.49561	35293.3375
1175.10432	37566.5375
1178.71056	40379.8375
1182.31434	42871.5375
1185.91565	44210.6375
1189.51451	44420.6375
1193.11091	43830.2375
1196.70485	42584.6375
1200.29634	40923.9375
1203.88538	39724.1375
1207.47197	39132.2375
1211.05612	38810.2375
1214.63782	38123.6375
1218.21708	36783.5375
1221.79391	35191.0375
1225.36829	33927.7375
1228.94024	33130.8375
1232.50976	32560.0375
1236.07685	32253.5375
1239.6415	32104.4375
1243.20374	32216.2375
1246.76355	32515.8375
1250.32093	32905.8375
1253.8759	33520.1375
1257.42845	34288.4375
1260.97859	35252.5375
1264.52631	36183.8375
1268.07163	37186.4375
1271.61453	38126.0375
1275.15503	39278.5375
1278.69312	40571.4375
1282.22882	41922.2375
1285.76211	43641.8375
1289.29301	45833.4375
1292.82151	48556.0375
1296.34761	51751.3375
1299.87133	54947.8375
1303.39266	57743.6375
1306.9116	59865.2375
1310.42815	61258.2375
1313.94233	62002.7375
1317.45412	61995.4375
1320.96354	61880.9375
1324.47058	61888.0375
1327.97525	61794.0375
1331.47754	61650.4375
1334.97747	61404.1375
1338.47502	61014.8375
1341.97022	60540.4375
1345.46305	60079.3375
1348.95352	59228.4375
1352.44163	58225.9375
1355.92738	57662.6375
1359.41078	58030.6375
1362.89183	58596.1375
1366.37053	57328.7375
1369.84688	53317.2375
1373.32088	48689.4375
1376.79254	45572.7375
1380.26186	44811.6375
1383.72883	45281.5375
1387.19347	45910.9375
1390.65578	46174.2375
1394.11575	46284.3375
1397.57339	46460.5375
1401.0287	46728.9375
1404.48168	46548.7375
1407.93234	45678.2375
1411.38068	44024.4375
1414.82669	41736.8375
1418.27039	39374.6375
1421.71177	37285.2375
1425.15083	35694.6375
1428.58758	34938.4375
1432.02203	35148.7375
1435.45416	36067.8375
1438.88399	37347.0375
1442.31151	38364.4375
1445.73673	39200.3375
1449.15965	40016.1375
1452.58027	40781.2375
1455.9986	41395.5375
1459.41463	41855.3375
1462.82837	42228.5375
1466.23982	42583.3375
1469.64898	42929.9375
1473.05586	42959.5375
1476.46045	42749.9375
1479.86276	42296.4375
1483.26279	41705.0375
1486.66054	41400.1375
1490.05602	41536.0375
1493.44922	42081.1375
1496.84016	42969.2375
1500.22882	44320.9375
1503.61521	46163.4375
1506.99934	48175.2375
1510.38121	49763.9375
1513.76081	50250.9375
1517.13816	49543.1375
1520.51324	48510.6375
1523.88607	47754.0375
1527.25665	47643.7375
1530.62498	47668.0375
1533.99105	47435.2375
1537.35488	46713.8375
1540.71647	45304.1375
1544.07581	43530.7375
1547.4329	41812.2375
1550.78776	40521.7375
1554.14038	39656.9375
1557.49077	39145.6375
1560.83892	38969.8375
1564.18484	39023.9375
1567.52853	39324.3375
1570.86999	39925.6375
1574.20922	41144.9375
1577.54624	42337.7375
1580.88103	42932.2375
1584.2136	43401.3375
1587.54395	44158.7375
1590.87208	45390.8375
1594.19801	46804.2375
1597.52172	48118.5375
1600.84321	47950.6375
1604.16251	45599.4375
1607.47959	42227.8375
1610.79447	38872.6375
1614.10715	35816.8375
1617.41763	33149.3375
1620.7259	31195.0375
1624.03199	30176.9375
1627.33587	30104.9375
1630.63757	31012.9375
1633.93707	33033.6375
1637.23439	36528.4375
1640.52951	41572.6375
1643.82246	47485.4375
1647.11321	52343.4375
1650.40179	53656.9375
1653.68819	50496.8375
1656.97241	44080.6375
1660.25446	37370.6375
1663.53433	31921.6375
1666.81203	28139.5375
1670.08756	25748.1375
1673.36092	24280.0375
1676.63211	23279.6375
1679.90115	22624.4375
1683.16801	22135.6375
1686.43272	21737.2375
1689.69527	21450.0375
1692.95567	21245.9375
1696.2139	21079.7375
1699.46999	20929.8375
1702.72392	20825.3375
1705.97571	20763.7375
1709.22535	20634.0375
1712.47284	20570.4375
1715.71819	20482.0375
1718.96139	20412.1375
1722.20246	20304.1375
1725.44139	20205.7375
1728.67818	20083.7375
1731.91284	19958.5375
1735.14537	19810.6375
1738.37576	19716.3375
1741.60403	19630.8375
1744.83017	19493.3375
1748.05418	19418.0375
1751.27607	19435.8375
1754.49584	19398.8375
1757.71349	19368.5375
1760.92903	19317.0375
1764.14244	19317.6375
1767.35375	19280.4375
1770.56294	19194.3375
1773.77002	19115.6375
1776.97499	19055.9375
1780.17785	19015.1375
1783.37861	18952.0375
1786.57727	18921.7375
1789.77382	18866.0375
1792.96828	18762.7375
1796.16064	18749.4375
1799.3509	18695.6375
1802.53907	18656.1375
1805.72514	18583.8375
1808.90913	18513.9375
1812.09102	18494.5375
1815.27083	18412.0375
1818.44856	18375.7375
1821.6242	18344.1375
1824.79776	18243.2375
1827.96924	18256.9375
1831.13864	18259.0375
1834.30597	18222.9375
1837.47122	18166.4375
1840.6344	18165.6375
1843.7955	18136.7375
1846.95454	18122.2375
1850.11151	18076.3375
1853.26642	18023.7375
1856.41926	18027.8375
1859.57004	18017.2375
1862.71876	17967.2375
1865.86542	17923.9375
1869.01003	17900.7375
1872.15258	17868.8375
1875.29308	17876.7375
1878.43152	17861.6375
1881.56792	17796.2375
1884.70227	17760.0375
1887.83457	17744.6375
1890.96482	17703.2375
1894.09304	17635.7375
1897.21921	17593.8375
1900.34335	17579.7375
1903.46544	17545.0375
1906.58551	17497.5375
1909.70353	17470.7375
1912.81953	17426.9375
1915.93349	17395.2375
1919.04543	17362.8375
1922.15534	17313.8375
1925.26322	17293.3375
1928.36908	17216.7375
1931.47292	17206.3375
1934.57473	17198.9375
1937.67453	17128.2375
1940.77232	17066.4375
1943.86808	17000.9375
1946.96184	16912.1375
1950.05358	16880.4375
1953.14331	16796.4375
1956.23103	16740.7375
1959.31675	16686.2375
1962.40046	16662.5375
1965.48217	16570.4375
1968.56188	16511.5375
1971.63959	16454.8375
1974.7153	16400.3375
1977.78901	16332.7375
1980.86073	16293.9375
1983.93046	16219.2375
1986.99819	16160.1375
1990.06394	16126.4375
1993.1277	16059.5375
1996.18947	15992.8375
1999.24925	15947.5375
2002.30706	15868.9375
2005.36288	15840.2375
2008.41672	15785.9375
2011.46859	15697.3375
2014.51848	15684.1375
2017.56639	15589.7375
2020.61233	15585.7375
2023.6563	15506.6375
2026.6983	15449.6375
2029.73833	15393.4375
2032.7764	15359.8375
2035.8125	15356.7375
2038.84664	15309.0375
2041.87881	15291.2375
2044.90903	15245.3375
2047.93729	15181.3375
2050.96359	15158.9375
2053.98794	15143.5375
2057.01034	15130.0375
2060.03078	15118.7375
2063.04927	15119.2375
2066.06582	15092.5375
2069.08042	15088.6375
2072.09307	15066.4375
2075.10378	15020.0375
2078.11255	15024.6375
2081.11938	15014.7375
2084.12426	15010.2375
2087.12722	14954.0375
2090.12824	14938.6375
2093.12732	14926.4375
2096.12447	14922.0375
2099.11969	14904.2375
2102.11299	14908.9375
2105.10435	14910.6375
2108.09379	14917.8375
2111.08131	14893.7375
2114.0669	14921.8375
2117.05057	14945.8375
2120.03233	14935.4375
2123.01216	14942.2375
2125.99008	14923.1375
2128.96609	14864.5375
2131.94018	14910.6375
2134.91236	14909.4375
2137.88263	14931.1375
2140.851	14880.9375
2143.81746	14886.1375
2146.78201	14895.4375
2149.74466	14863.0375
2152.7054	14842.6375
2155.66425	14842.0375
2158.6212	14814.4375
2161.57625	14756.6375
2164.52941	14819.6375
2167.48067	14784.1375
2170.43004	14754.0375
2173.37752	14763.0375
2176.32311	14755.8375
2179.26681	14765.4375
2182.20863	14730.6375
2185.14856	14721.2375
2188.08661	14707.1375
2191.02278	14700.9375
2193.95707	14695.3375
2196.88948	14635.6375
2199.82001	14600.4375
2202.74867	14588.3375
2205.67545	14566.0375
2208.60037	14546.8375
2211.52341	14524.3375
2214.44458	14484.8375
2217.36388	14433.7375
2220.28132	14405.1375
2223.1969	14335.2375
2226.11061	14347.3375
2229.02246	14334.5375
2231.93245	14298.7375
2234.84058	14286.5375
2237.74686	14235.3375
2240.65128	14207.8375
2243.55385	14199.4375
2246.45456	14171.1375
2249.35343	14178.0375
2252.25044	14098.5375
2255.14561	14056.8375
2258.03893	14011.6375
2260.93041	13956.3375
2263.82004	13925.8375
2266.70783	13866.3375
2269.59378	13867.1375
2272.4779	13787.6375
2275.36017	13772.0375
2278.24061	13692.8375
2281.11922	13695.5375
2283.996	13685.7375
2286.87094	13659.3375
2289.74405	13622.7375
2292.61534	13587.4375
2295.4848	13567.3375
2298.35243	13571.8375
2301.21824	13565.2375
2304.08223	13561.8375
2306.94439	13558.0375
2309.80474	13519.8375
2312.66327	13502.9375
2315.51999	13469.2375
2318.37489	13460.1375
2321.22797	13403.1375
2324.07925	13361.9375
2326.92871	13401.5375
2329.77637	13348.4375
2332.62222	13340.6375
2335.46626	13308.8375
2338.3085	13293.7375
2341.14893	13289.0375
2343.98756	13286.3375
2346.8244	13267.8375
2349.65943	13260.5375
2352.49267	13257.0375
2355.32411	13245.0375
2358.15376	13249.0375
2360.98161	13252.4375
2363.80768	13238.5375
2366.63195	13237.3375
2369.45444	13220.7375
2372.27514	13224.3375
2375.09405	13166.8375
2377.91118	13123.1375
2380.72652	13112.8375
2383.54009	13081.8375
2386.35187	13037.6375
2389.16188	12980.0375
2391.97011	12946.5375
2394.77657	12903.7375
2397.58125	12869.9375
2400.38416	12881.6375
2403.18529	12814.2375
2405.98466	12812.3375
2408.78226	12795.3375
2411.57809	12800.4375
2414.37216	12777.6375
2417.16446	12808.1375
2419.955	12778.6375
2422.74378	12751.9375
2425.5308	12728.3375
2428.31606	12723.3375
2431.09956	12686.9375
2433.88131	12660.2375
2436.6613	12685.5375
2439.43954	12663.1375
2442.21603	12655.4375
2444.99077	12622.0375
2447.76377	12634.6375
2450.53501	12631.6375
2453.30451	12602.0375
2456.07226	12577.2375
2458.83827	12577.2375
2461.60254	12559.6375
2464.36507	12540.3375
2467.12586	12569.3375
2469.88492	12530.2375
2472.64224	12528.0375
2475.39782	12516.1375
2478.15167	12510.6375
2480.90379	12517.0375
2483.65417	12538.8375
2486.40283	12497.5375
2489.14976	12500.0375
2491.89497	12516.7375
2494.63845	12520.7375
2497.3802	12509.3375
2500.12024	12494.9375
2502.85855	12461.4375
2505.59514	12475.3375
2508.33002	12442.7375
2511.06318	12438.2375
2513.79462	12423.3375
2516.52435	12409.6375
2519.25237	12391.2375
2521.97867	12360.9375
2524.70327	12339.1375
2527.42616	12314.3375
2530.14734	12309.4375
2532.86681	12306.8375
2535.58458	12298.7375
2538.30065	12285.0375
2541.01501	12270.7375
2543.72768	12264.9375
2546.43864	12214.0375
2549.14791	12183.3375
2551.85548	12191.2375
2554.56136	12154.0375
2557.26554	12146.6375
2559.96803	12136.3375
2562.66883	12057.4375
2565.36794	12103.4375
2568.06536	12113.5375
2570.7611	12070.5375
2573.45514	12035.3375
2576.14751	12030.7375
2578.83819	11995.2375
2581.52719	12002.7375
2584.21451	11988.3375
2586.90015	11988.9375
2589.58411	11963.5375
2592.2664	11970.2375
2594.94701	11921.8375
2597.62594	11917.9375
2600.30321	11948.2375
2602.9788	11907.2375
2605.65273	11899.4375
2608.32498	11905.8375
2610.99557	11925.8375
2613.66449	11898.6375
2616.33175	11852.3375
2618.99734	11863.5375
2621.66128	11843.8375
2624.32355	11853.0375
2626.98416	11823.0375
2629.64311	11775.3375
2632.30041	11784.0375
2634.95605	11789.9375
2637.61004	11747.4375
2640.26238	11760.7375
2642.91306	11745.9375
2645.56209	11704.0375
2648.20948	11756.8375
2650.85521	11750.5375
2653.4993	11755.3375
2656.14175	11743.8375
2658.78255	11748.0375
2661.42171	11720.7375
2664.05923	11758.1375
2666.6951	11727.1375
2669.32934	11775.9375
2671.96194	11761.3375
2674.59291	11753.8375
2677.22224	11742.2375
2679.84993	11752.3375
2682.476	11714.1375
2685.10043	11709.5375
2687.72324	11713.2375
2690.34441	11725.1375
2692.96396	11683.9375
2695.58188	11667.0375
2698.19818	11682.6375
2700.81285	11725.0375
2703.4259	11698.3375
2706.03733	11718.5375
2708.64714	11711.3375
2711.25533	11716.7375
2713.86191	11709.4375
2716.46687	11725.6375
2719.07021	11720.8375
2721.67194	11731.4375
2724.27206	11699.2375
2726.87057	11730.1375
2729.46747	11733.3375
2732.06276	11731.8375
2734.65644	11727.9375
2737.24852	11702.8375
2739.83899	11704.2375
2742.42786	11704.3375
2745.01513	11695.2375
2747.60079	11663.7375
2750.18486	11634.9375
2752.76733	11653.1375
2755.3482	11639.7375
2757.92747	11598.9375
2760.50515	11594.5375
2763.08123	11620.0375
2765.65573	11585.7375
2768.22863	11583.3375
2770.79994	11571.6375
2773.36967	11573.5375
2775.9378	11577.1375
2778.50435	11567.2375
2781.06932	11552.5375
2783.6327	11537.7375
2786.1945	11533.6375
2788.75471	11522.6375
2791.31335	11514.8375
2793.87041	11524.0375
2796.42589	11494.0375
2798.97979	11486.6375
2801.53212	11449.9375
2804.08288	11442.2375
2806.63206	11405.1375
2809.17967	11385.2375
2811.72571	11364.5375
2814.27018	11342.6375
2816.81308	11310.9375
2819.35442	11305.5375
2821.89419	11258.0375
2824.43239	11254.2375
2826.96904	11251.9375
2829.50412	11244.3375
2832.03763	11217.3375
2834.56959	11189.6375
2837.1	11180.0375
2839.62884	11208.5375
2842.15613	11228.8375
2844.68186	11314.8375
2847.20604	11325.6375
2849.72867	11357.3375
2852.24974	11338.8375
2854.76927	11327.0375
2857.28724	11287.5375
2859.80367	11279.2375
2862.31855	11244.6375
2864.83189	11224.2375
2867.34368	11185.3375
2869.85393	11184.1375
2872.36264	11189.4375
2874.8698	11199.7375
2877.37543	11172.0375
2879.87952	11158.9375
2882.38207	11128.4375
2884.88308	11115.9375
2887.38256	11116.6375
2889.88051	11110.9375
2892.37692	11125.9375
2894.8718	11136.2375
2897.36515	11129.5375
2899.85698	11124.4375
2902.34727	11152.4375
2904.83604	11174.5375
2907.32328	11178.4375
2909.809	11166.3375
2912.29319	11150.5375
2914.77587	11152.7375
2917.25702	11166.1375
2919.73665	11140.3375
2922.21476	11152.5375
2924.69136	11144.9375
2927.16644	11126.6375
2929.64	11120.2375
2932.11205	11095.6375
2934.58258	11071.4375
2937.05161	11077.4375
2939.51912	11052.9375
2941.98513	11030.0375
2944.44962	10977.8375
2946.91261	10924.3375
2949.37409	10932.0375
2951.83407	10909.8375
2954.29254	10879.9375
2956.74951	10887.0375
2959.20498	10878.5375
2961.65895	10843.5375
2964.11142	10830.5375
2966.56239	10797.0375
2969.01186	10826.7375
2971.45984	10792.6375
2973.90632	10779.9375
2976.35131	10730.3375
2978.7948	10711.5375
2981.23681	10680.9375
2983.67732	10653.8375
2986.11635	10621.5375
2988.55388	10591.4375
2990.98993	10564.6375
2993.4245	10522.0375
2995.85758	10471.6375
2998.28917	10437.1375
3000.71928	10437.5375
3003.14791	10395.6375
3005.57506	10362.2375
3008.00073	10327.3375
3010.42493	10329.2375
3012.84764	10317.7375
3015.26888	10267.5375
3017.68865	10235.8375
3020.10694	10219.2375
3022.52376	10207.6375
3024.9391	10171.5375
3027.35298	10169.6375
3029.76539	10167.0375
3032.17632	10154.4375
3034.5858	10146.3375
3036.9938	10129.0375
3039.40034	10120.0375
3041.80542	10111.8375
3044.20903	10086.8375
3046.61118	10101.4375
3049.01187	10045.0375
3051.4111	10045.9375
3053.80888	10014.8375
3056.20519	9973.0375
3058.60005	9938.5375
3060.99345	9914.7375
3063.3854	9895.4375
3065.7759	9835.1375
3068.16494	9826.9375
3070.55254	9759.9375
3072.93868	9747.7375
3075.32338	9693.2375
3077.70662	9684.8375
3080.08842	9623.2375
3082.46878	9636.6375
3084.84769	9616.6375
3087.22515	9599.6375
3089.60118	9616.1375
3091.97576	9578.5375
3094.3489	9576.1375
3096.72061	9567.0375
3099.09087	9582.4375
3101.4597	9559.8375
3103.82709	9551.6375
3106.19305	9519.9375
3108.55757	9536.6375
3110.92066	9490.2375
3113.28232	9476.4375
3115.64255	9426.7375
3118.00134	9413.6375
3120.35871	9428.9375
3122.71466	9383.6375
3125.06917	9364.1375
3127.42226	9328.8375
3129.77393	9344.0375
3132.12417	9297.3375
3134.47299	9322.9375
3136.82039	9268.6375
3139.16636	9315.1375
3141.51092	9279.5375
3143.85406	9265.5375
3146.19579	9268.8375
3148.53609	9264.7375
3150.87499	9288.9375
3153.21246	9261.8375
3155.54853	9288.1375
3157.88318	9276.8375
3160.21642	9312.5375
3162.54826	9281.9375
3164.87868	9267.7375
3167.2077	9282.7375
3169.5353	9295.8375
3171.86151	9277.2375
3174.18631	9271.1375
3176.5097	9270.3375
3178.83169	9228.4375
3181.15228	9253.0375
3183.47147	9212.8375
3185.78926	9176.9375
3188.10565	9183.4375
3190.42065	9165.1375
3192.73424	9169.1375
3195.04645	9137.3375
3197.35725	9128.7375
3199.66667	9083.8375
3201.97469	9102.0375
3204.28132	9095.8375
3206.58656	9116.2375
3208.8904	9091.0375
3211.19287	9092.4375
3213.49394	9100.1375
3215.79363	9098.0375
3218.09193	9127.9375
3220.38884	9089.6375
3222.68438	9056.4375
3224.97853	9066.4375
3227.2713	9054.0375
3229.56269	9038.4375
3231.8527	9059.8375
3234.14133	9023.0375
3236.42858	8969.0375
3238.71446	8976.7375
3240.99896	8965.6375
3243.28209	8954.8375
3245.56384	8945.2375
3247.84423	8933.5375
3250.12324	8921.5375
3252.40088	8900.3375
3254.67715	8879.1375
3256.95205	8869.5375
3259.22558	8838.2375
3261.49775	8822.4375
3263.76855	8804.2375
3266.03799	8774.9375
3268.30606	8758.9375
3270.57277	8755.1375
3272.83812	8727.0375
3275.10211	8699.5375
3277.36474	8702.2375
3279.62601	8724.1375
3281.88593	8678.4375
3284.14448	8694.7375
3286.40168	8704.1375
3288.65753	8677.4375
3290.91202	8665.4375
3293.16516	8658.5375
3295.41695	8599.5375
3297.66738	8560.0375
3299.91647	8532.1375
3302.16421	8453.3375
3304.4106	8390.1375
3306.65564	8349.8375
3308.89933	8293.9375
3311.14169	8222.1375
3313.38269	8136.2375
3315.62236	8108.3375
3317.86068	8026.5375
3320.09766	7962.2375
3322.3333	7906.3375
3324.5676	7846.5375
3326.80056	7712.2375
3329.03219	7655.8375
3331.26248	2.6375
3333.49143	0.0375
3335.71905	-0.7625
