Data from AgNPs_FTO_APTES_UA_5uM_CRN_1uM_R6G_10uM_NaF_0.1M_Addition_RamanShift__29__10-51-06-603.txt Node

Date: Mon Feb 07 10:51:06 GMT 2022
User: TCL
Spectrometer: QEP01345
Trigger mode: 4
Integration Time (sec): 7.000000E0
Scans to average: 10
Electric dark correction enabled: true
Nonlinearity correction enabled: false
Boxcar width: 0
XAxis mode: Raman Shifts
Number of Pixels in Spectrum: 1044
>>>>>Begin Spectral Data<<<<<
46.04893	0.1875
50.45542	-1.0125
54.85868	0.0875
59.25871	-0.4125
63.6555	67.2875
68.04907	68.9875
72.43941	76.3875
76.82654	78.8875
81.21044	85.6875
85.59113	86.9875
89.96862	89.3875
94.34289	88.3875
98.71396	88.5875
103.08183	95.0875
107.4465	99.4875
111.80798	99.6875
116.16626	105.1875
120.52136	109.5875
124.87327	113.1875
129.222	118.0875
133.56755	126.4875
137.90993	140.4875
142.24913	147.2875
146.58517	165.6875
150.91804	189.3875
155.24774	227.2875
159.57429	284.6875
163.89768	364.2875
168.21792	482.8875
172.53501	666.4875
176.84895	921.1875
181.15975	1286.5875
185.46741	1799.7875
189.77193	2482.0875
194.07331	3320.7875
198.37157	4278.1875
202.6667	5290.5875
206.9587	6276.1875
211.24758	7300.9875
215.53334	8360.0875
219.81599	9532.0875
224.09553	10885.7875
228.37195	12370.2875
232.64527	13936.5875
236.91549	15531.6875
241.18261	17018.1875
245.44663	18199.4875
249.70755	19215.6875
253.96539	20059.9875
258.22014	20822.9875
262.4718	21429.7875
266.72039	21937.8875
270.96589	22264.9875
275.20832	22335.0875
279.44768	22209.9875
283.68397	22064.0875
287.91719	22012.6875
292.14735	22138.0875
296.37445	22445.2875
300.59849	23052.3875
304.81948	23879.2875
309.03742	24492.3875
313.25231	24403.0875
317.46415	23305.2875
321.67296	21480.3875
325.87872	19944.8875
330.08145	19128.0875
334.28114	19017.9875
338.47781	19290.4875
342.67145	19849.6875
346.86207	20591.3875
351.04966	21795.4875
355.23424	23156.0875
359.4158	24251.8875
363.59435	24678.4875
367.76989	24716.9875
371.94243	24507.0875
376.11196	24203.0875
380.27849	23919.9875
384.44203	23649.4875
388.60257	23317.7875
392.76012	23241.9875
396.91468	23598.5875
401.06626	24310.2875
405.21485	24930.1875
409.36047	24601.1875
413.50311	23462.4875
417.64277	22357.0875
421.77947	21734.9875
425.9132	21527.7875
430.04396	21539.1875
434.17176	21574.4875
438.2966	21807.5875
442.41849	22255.9875
446.53742	22970.6875
450.6534	23656.6875
454.76644	24108.5875
458.87653	24210.5875
462.98368	23965.2875
467.08789	23615.2875
471.18916	23124.8875
475.2875	22556.6875
479.38291	22203.6875
483.4754	21868.2875
487.56496	21602.4875
491.6516	21392.7875
495.73531	21243.4875
499.81612	21301.0875
503.89401	21510.2875
507.96899	21717.0875
512.04106	21805.0875
516.11023	21931.1875
520.1765	21918.4875
524.23987	21736.3875
528.30034	21339.1875
532.35792	20808.4875
536.41261	20336.7875
540.46441	19798.8875
544.51333	19605.0875
548.55936	19879.6875
552.60252	20543.2875
556.64279	21232.0875
560.6802	21586.8875
564.71473	22000.6875
568.7464	23041.7875
572.7752	24032.9875
576.80114	23794.8875
580.82422	23299.2875
584.84444	23201.6875
588.86181	23009.9875
592.87633	22932.6875
596.888	23161.4875
600.89682	23816.0875
604.9028	26216.6875
608.90594	32795.4875
612.90624	41538.0875
616.90371	39997.8875
620.89834	27993.4875
624.89015	22174.4875
628.87913	21167.4875
632.86528	21324.2875
636.84862	21516.3875
640.82913	21025.2875
644.80683	19943.1875
648.78172	19177.5875
652.75379	19193.2875
656.72306	20014.9875
660.68952	21186.4875
664.65319	21091.0875
668.61405	20055.5875
672.57211	19517.6875
676.52738	19434.9875
680.47986	19372.2875
684.42955	19121.4875
688.37646	19050.8875
692.32058	19154.5875
696.26192	19382.2875
700.20048	19683.1875
704.13626	20080.7875
708.06928	20115.3875
711.99952	19891.9875
715.927	19715.7875
719.85171	19654.6875
723.77365	19532.9875
727.69284	19221.9875
731.60928	18991.5875
735.52295	18898.5875
739.43388	18969.7875
743.34206	19151.4875
747.24749	19356.5875
751.15017	19637.1875
755.05012	20129.2875
758.94733	21251.6875
762.8418	23733.0875
766.73354	27943.6875
770.62254	32240.3875
774.50882	33782.8875
778.39237	31914.8875
782.27321	27667.5875
786.15132	23499.9875
790.02671	20981.1875
793.89938	19840.3875
797.76935	19340.9875
801.6366	19091.1875
805.50115	18929.9875
809.36299	18782.3875
813.22213	18660.2875
817.07857	18589.2875
820.93231	18586.9875
824.78336	18624.1875
828.63172	18714.2875
832.47738	18794.2875
836.32036	18791.3875
840.16066	18720.3875
843.99827	18618.2875
847.8332	18565.0875
851.66546	18473.7875
855.49504	18461.5875
859.32195	18397.7875
863.1462	18257.7875
866.96777	18151.8875
870.78668	18094.8875
874.60293	18149.3875
878.41652	18178.7875
882.22745	18290.4875
886.03573	18366.5875
889.84136	18348.4875
893.64433	18249.8875
897.44466	18198.6875
901.24235	18203.3875
905.0374	18165.1875
908.8298	18063.4875
912.61957	18053.6875
916.40671	18231.8875
920.19121	18578.4875
923.97308	18914.5875
927.75233	19198.6875
931.52895	19198.9875
935.30295	18907.4875
939.07433	18222.7875
942.84309	17640.4875
946.60924	17358.6875
950.37278	17187.1875
954.13371	17063.9875
957.89203	16956.4875
961.64774	16902.1875
965.40086	16838.2875
969.15137	16785.4875
972.89929	16740.4875
976.64461	16754.9875
980.38733	16745.4875
984.12747	16832.7875
987.86502	16994.4875
991.59999	17147.5875
995.33237	17464.8875
999.06217	18030.0875
1002.78939	18734.4875
1006.51404	19452.5875
1010.23611	19937.9875
1013.95561	20275.2875
1017.67255	20202.5875
1021.38692	19816.0875
1025.09872	19459.8875
1028.80796	19384.8875
1032.51465	19734.9875
1036.21877	20163.3875
1039.92035	20353.6875
1043.61937	20205.9875
1047.31584	19844.6875
1051.00976	19480.5875
1054.70114	19284.3875
1058.38998	19254.6875
1062.07627	19431.7875
1065.76003	19621.3875
1069.44126	19931.2875
1073.11995	20283.4875
1076.79611	20579.6875
1080.46974	20804.4875
1084.14085	21257.9875
1087.80943	21834.2875
1091.47549	22163.9875
1095.13903	21876.0875
1098.80005	21079.2875
1102.45857	20217.1875
1106.11456	19640.2875
1109.76805	19476.8875
1113.41903	19740.4875
1117.06751	20282.6875
1120.71348	21124.2875
1124.35696	22015.8875
1127.99793	22900.2875
1131.63641	22980.0875
1135.2724	22027.1875
1138.90589	21122.7875
1142.5369	20566.9875
1146.16542	20158.0875
1149.79145	20021.8875
1153.415	20069.3875
1157.03607	20344.3875
1160.65467	20909.3875
1164.27079	21841.4875
1167.88443	23210.2875
1171.49561	25400.8875
1175.10432	28897.2875
1178.71056	33279.0875
1182.31434	36657.9875
1185.91565	37757.3875
1189.51451	37218.0875
1193.11091	35203.4875
1196.70485	32523.9875
1200.29634	30141.6875
1203.88538	28304.6875
1207.47197	26469.2875
1211.05612	24913.8875
1214.63782	24108.7875
1218.21708	23883.9875
1221.79391	23959.1875
1225.36829	24189.2875
1228.94024	24344.1875
1232.50976	24393.4875
1236.07685	24326.7875
1239.6415	24190.7875
1243.20374	24025.5875
1246.76355	24021.5875
1250.32093	24267.8875
1253.8759	24892.5875
1257.42845	25822.5875
1260.97859	26796.8875
1264.52631	27772.0875
1268.07163	28674.4875
1271.61453	29605.2875
1275.15503	30542.6875
1278.69312	31162.2875
1282.22882	31755.9875
1285.76211	32666.9875
1289.29301	33846.8875
1292.82151	35085.1875
1296.34761	36405.5875
1299.87133	38368.9875
1303.39266	41362.9875
1306.9116	45828.2875
1310.42815	50971.2875
1313.94233	54415.9875
1317.45412	54456.4875
1320.96354	51928.7875
1324.47058	48835.3875
1327.97525	46044.2875
1331.47754	44157.7875
1334.97747	43193.6875
1338.47502	42899.3875
1341.97022	43112.5875
1345.46305	43481.0875
1348.95352	44207.7875
1352.44163	45554.8875
1355.92738	48382.9875
1359.41078	53885.2875
1362.89183	59825.8875
1366.37053	59181.9875
1369.84688	51531.9875
1373.32088	43413.3875
1376.79254	37870.7875
1380.26186	35061.9875
1383.72883	33727.3875
1387.19347	32838.1875
1390.65578	31812.0875
1394.11575	31184.0875
1397.57339	31077.4875
1401.0287	31564.7875
1404.48168	32154.6875
1407.93234	32693.2875
1411.38068	32881.9875
1414.82669	32367.5875
1418.27039	31245.6875
1421.71177	29902.5875
1425.15083	28771.8875
1428.58758	28145.9875
1432.02203	28092.5875
1435.45416	28274.7875
1438.88399	28464.5875
1442.31151	28703.5875
1445.73673	28942.0875
1449.15965	29314.2875
1452.58027	29435.7875
1455.9986	29470.7875
1459.41463	29530.5875
1462.82837	29818.1875
1466.23982	30479.2875
1469.64898	31085.9875
1473.05586	31494.2875
1476.46045	31723.1875
1479.86276	32108.3875
1483.26279	32636.7875
1486.66054	33288.0875
1490.05602	34249.0875
1493.44922	35577.3875
1496.84016	37474.6875
1500.22882	40307.1875
1503.61521	44126.3875
1506.99934	48596.5875
1510.38121	53082.8875
1513.76081	55571.0875
1517.13816	53971.3875
1520.51324	48919.2875
1523.88607	43210.4875
1527.25665	39130.9875
1530.62498	36563.5875
1533.99105	34939.6875
1537.35488	33924.8875
1540.71647	33120.7875
1544.07581	32613.1875
1547.4329	32047.6875
1550.78776	31591.1875
1554.14038	31360.3875
1557.49077	31440.3875
1560.83892	31931.1875
1564.18484	32670.6875
1567.52853	33398.7875
1570.86999	33802.0875
1574.20922	34159.1875
1577.54624	34009.4875
1580.88103	32724.8875
1584.2136	31144.1875
1587.54395	30707.9875
1590.87208	31781.4875
1594.19801	34052.9875
1597.52172	36746.2875
1600.84321	37877.5875
1604.16251	36355.4875
1607.47959	33414.0875
1610.79447	30185.4875
1614.10715	27248.4875
1617.41763	24940.8875
1620.7259	23518.3875
1624.03199	22832.1875
1627.33587	22836.2875
1630.63757	23582.6875
1633.93707	25077.7875
1637.23439	27388.8875
1640.52951	30656.8875
1643.82246	34601.6875
1647.11321	38812.4875
1650.40179	41470.5875
1653.68819	40315.6875
1656.97241	35170.3875
1660.25446	29033.8875
1663.53433	24288.9875
1666.81203	21375.0875
1670.08756	19625.8875
1673.36092	18574.6875
1676.63211	17918.8875
1679.90115	17500.9875
1683.16801	17140.3875
1686.43272	16888.6875
1689.69527	16741.8875
1692.95567	16604.9875
1696.2139	16529.8875
1699.46999	16495.2875
1702.72392	16427.6875
1705.97571	16358.7875
1709.22535	16339.7875
1712.47284	16303.2875
1715.71819	16345.8875
1718.96139	16327.7875
1722.20246	16318.6875
1725.44139	16221.7875
1728.67818	16073.7875
1731.91284	15957.4875
1735.14537	15808.2875
1738.37576	15703.5875
1741.60403	15679.8875
1744.83017	15598.4875
1748.05418	15524.5875
1751.27607	15481.8875
1754.49584	15466.0875
1757.71349	15439.7875
1760.92903	15418.4875
1764.14244	15402.3875
1767.35375	15416.2875
1770.56294	15381.7875
1773.77002	15314.5875
1776.97499	15273.7875
1780.17785	15207.6875
1783.37861	15208.5875
1786.57727	15184.7875
1789.77382	15164.0875
1792.96828	15116.1875
1796.16064	15101.7875
1799.3509	15112.0875
1802.53907	15068.1875
1805.72514	15007.4875
1808.90913	14974.0875
1812.09102	14922.7875
1815.27083	14923.7875
1818.44856	14860.7875
1821.6242	14848.5875
1824.79776	14818.5875
1827.96924	14790.1875
1831.13864	14779.1875
1834.30597	14780.5875
1837.47122	14779.6875
1840.6344	14745.5875
1843.7955	14774.4875
1846.95454	14794.7875
1850.11151	14790.0875
1853.26642	14772.5875
1856.41926	14797.4875
1859.57004	14834.0875
1862.71876	14834.7875
1865.86542	14836.8875
1869.01003	14830.9875
1872.15258	14840.1875
1875.29308	14861.8875
1878.43152	14903.2875
1881.56792	14908.4875
1884.70227	14940.4875
1887.83457	14949.7875
1890.96482	14974.4875
1894.09304	14960.1875
1897.21921	15007.6875
1900.34335	14977.7875
1903.46544	14989.7875
1906.58551	15040.0875
1909.70353	15008.6875
1912.81953	15030.0875
1915.93349	15027.1875
1919.04543	15035.3875
1922.15534	15006.6875
1925.26322	14951.5875
1928.36908	14877.8875
1931.47292	14821.3875
1934.57473	14744.5875
1937.67453	14628.1875
1940.77232	14528.1875
1943.86808	14418.7875
1946.96184	14368.6875
1950.05358	14261.8875
1953.14331	14202.2875
1956.23103	14145.8875
1959.31675	14077.9875
1962.40046	14051.2875
1965.48217	13982.5875
1968.56188	13972.5875
1971.63959	13917.2875
1974.7153	13881.2875
1977.78901	13838.8875
1980.86073	13757.3875
1983.93046	13740.5875
1986.99819	13664.8875
1990.06394	13623.7875
1993.1277	13594.1875
1996.18947	13549.2875
1999.24925	13483.4875
2002.30706	13435.5875
2005.36288	13390.3875
2008.41672	13354.6875
2011.46859	13327.7875
2014.51848	13311.2875
2017.56639	13248.3875
2020.61233	13217.7875
2023.6563	13192.1875
2026.6983	13146.3875
2029.73833	13124.4875
2032.7764	13087.2875
2035.8125	13049.2875
2038.84664	13006.9875
2041.87881	13022.0875
2044.90903	12979.6875
2047.93729	12943.1875
2050.96359	12944.2875
2053.98794	12921.6875
2057.01034	12924.1875
2060.03078	12932.2875
2063.04927	12886.3875
2066.06582	12894.0875
2069.08042	12864.1875
2072.09307	12831.6875
2075.10378	12853.0875
2078.11255	12797.3875
2081.11938	12805.3875
2084.12426	12769.7875
2087.12722	12777.9875
2090.12824	12791.7875
2093.12732	12773.7875
2096.12447	12767.4875
2099.11969	12775.9875
2102.11299	12768.4875
2105.10435	12740.0875
2108.09379	12765.3875
2111.08131	12766.1875
2114.0669	12760.3875
2117.05057	12774.8875
2120.03233	12784.2875
2123.01216	12779.1875
2125.99008	12799.5875
2128.96609	12832.9875
2131.94018	12828.4875
2134.91236	12846.6875
2137.88263	12829.7875
2140.851	12852.4875
2143.81746	12826.5875
2146.78201	12839.6875
2149.74466	12798.9875
2152.7054	12796.5875
2155.66425	12819.6875
2158.6212	12783.3875
2161.57625	12769.8875
2164.52941	12786.2875
2167.48067	12757.3875
2170.43004	12759.5875
2173.37752	12751.2875
2176.32311	12755.4875
2179.26681	12755.3875
2182.20863	12770.8875
2185.14856	12764.0875
2188.08661	12752.8875
2191.02278	12760.1875
2193.95707	12748.0875
2196.88948	12719.7875
2199.82001	12711.3875
2202.74867	12688.9875
2205.67545	12684.5875
2208.60037	12678.7875
2211.52341	12683.3875
2214.44458	12663.1875
2217.36388	12630.5875
2220.28132	12608.9875
2223.1969	12548.6875
2226.11061	12552.4875
2229.02246	12497.1875
2231.93245	12490.5875
2234.84058	12459.4875
2237.74686	12427.6875
2240.65128	12423.6875
2243.55385	12409.0875
2246.45456	12385.6875
2249.35343	12412.6875
2252.25044	12388.0875
2255.14561	12385.6875
2258.03893	12358.8875
2260.93041	12347.8875
2263.82004	12322.8875
2266.70783	12303.7875
2269.59378	12252.6875
2272.4779	12204.3875
2275.36017	12172.3875
2278.24061	12174.6875
2281.11922	12125.9875
2283.996	12129.6875
2286.87094	12111.1875
2289.74405	12080.1875
2292.61534	12070.6875
2295.4848	12048.9875
2298.35243	12049.0875
2301.21824	12028.4875
2304.08223	12039.1875
2306.94439	12060.0875
2309.80474	12045.2875
2312.66327	12073.7875
2315.51999	12035.6875
2318.37489	12020.2875
2321.22797	12004.8875
2324.07925	11987.8875
2326.92871	12007.2875
2329.77637	11996.4875
2332.62222	11984.5875
2335.46626	11970.8875
2338.3085	11964.5875
2341.14893	11983.0875
2343.98756	11999.2875
2346.8244	11995.9875
2349.65943	12015.7875
2352.49267	12010.7875
2355.32411	12053.5875
2358.15376	12051.2875
2360.98161	12034.8875
2363.80768	12032.1875
2366.63195	12046.1875
2369.45444	12033.4875
2372.27514	12020.8875
2375.09405	12009.1875
2377.91118	11949.8875
2380.72652	11912.4875
2383.54009	11877.6875
2386.35187	11840.6875
2389.16188	11776.2875
2391.97011	11761.3875
2394.77657	11726.9875
2397.58125	11696.1875
2400.38416	11663.3875
2403.18529	11664.7875
2405.98466	11628.3875
2408.78226	11617.9875
2411.57809	11563.5875
2414.37216	11526.1875
2417.16446	11549.7875
2419.955	11542.2875
2422.74378	11523.5875
2425.5308	11492.2875
2428.31606	11527.5875
2431.09956	11506.1875
2433.88131	11502.0875
2436.6613	11502.3875
2439.43954	11524.0875
2442.21603	11500.1875
2444.99077	11506.0875
2447.76377	11483.5875
2450.53501	11478.1875
2453.30451	11455.6875
2456.07226	11472.0875
2458.83827	11469.7875
2461.60254	11495.9875
2464.36507	11482.6875
2467.12586	11438.1875
2469.88492	11440.2875
2472.64224	11481.8875
2475.39782	11487.6875
2478.15167	11517.2875
2480.90379	11504.1875
2483.65417	11544.3875
2486.40283	11551.2875
2489.14976	11576.5875
2491.89497	11593.3875
2494.63845	11596.5875
2497.3802	11609.7875
2500.12024	11585.2875
2502.85855	11556.7875
2505.59514	11536.5875
2508.33002	11515.3875
2511.06318	11474.3875
2513.79462	11437.9875
2516.52435	11408.2875
2519.25237	11417.4875
2521.97867	11385.6875
2524.70327	11365.6875
2527.42616	11338.7875
2530.14734	11345.3875
2532.86681	11321.0875
2535.58458	11324.9875
2538.30065	11279.0875
2541.01501	11307.0875
2543.72768	11294.7875
2546.43864	11285.6875
2549.14791	11300.5875
2551.85548	11283.9875
2554.56136	11277.1875
2557.26554	11257.1875
2559.96803	11255.8875
2562.66883	11214.0875
2565.36794	11207.3875
2568.06536	11176.9875
2570.7611	11185.0875
2573.45514	11182.4875
2576.14751	11180.3875
2578.83819	11130.9875
2581.52719	11149.5875
2584.21451	11144.7875
2586.90015	11166.8875
2589.58411	11156.7875
2592.2664	11122.9875
2594.94701	11129.6875
2597.62594	11100.2875
2600.30321	11123.1875
2602.9788	11086.9875
2605.65273	11096.6875
2608.32498	11140.6875
2610.99557	11133.6875
2613.66449	11107.3875
2616.33175	11093.1875
2618.99734	11144.5875
2621.66128	11137.3875
2624.32355	11108.2875
2626.98416	11097.5875
2629.64311	11103.0875
2632.30041	11100.4875
2634.95605	11100.4875
2637.61004	11103.2875
2640.26238	11067.5875
2642.91306	11026.6875
2645.56209	10999.7875
2648.20948	10999.7875
2650.85521	10989.0875
2653.4993	11012.4875
2656.14175	10967.6875
2658.78255	10978.1875
2661.42171	11006.2875
2664.05923	11019.9875
2666.6951	11038.1875
2669.32934	11058.3875
2671.96194	11068.5875
2674.59291	11091.3875
2677.22224	11080.7875
2679.84993	11085.8875
2682.476	11097.8875
2685.10043	11046.5875
2687.72324	11043.2875
2690.34441	11042.6875
2692.96396	11012.4875
2695.58188	11034.2875
2698.19818	11012.0875
2700.81285	11025.8875
2703.4259	11051.0875
2706.03733	11052.5875
2708.64714	11047.4875
2711.25533	11027.8875
2713.86191	11026.4875
2716.46687	11042.7875
2719.07021	11053.0875
2721.67194	11079.3875
2724.27206	11051.7875
2726.87057	11064.5875
2729.46747	11075.3875
2732.06276	11057.9875
2734.65644	11032.0875
2737.24852	11058.3875
2739.83899	11029.0875
2742.42786	11021.4875
2745.01513	10979.8875
2747.60079	10990.3875
2750.18486	10994.3875
2752.76733	10991.3875
2755.3482	10945.5875
2757.92747	10959.9875
2760.50515	10944.3875
2763.08123	10933.0875
2765.65573	10902.6875
2768.22863	10905.3875
2770.79994	10914.2875
2773.36967	10900.7875
2775.9378	10922.7875
2778.50435	10917.5875
2781.06932	10913.4875
2783.6327	10900.5875
2786.1945	10909.3875
2788.75471	10930.3875
2791.31335	10887.4875
2793.87041	10888.6875
2796.42589	10858.1875
2798.97979	10850.9875
2801.53212	10830.1875
2804.08288	10833.6875
2806.63206	10793.7875
2809.17967	10806.2875
2811.72571	10780.1875
2814.27018	10791.2875
2816.81308	10771.8875
2819.35442	10782.7875
2821.89419	10774.0875
2824.43239	10825.8875
2826.96904	10793.4875
2829.50412	10837.7875
2832.03763	10793.5875
2834.56959	10798.5875
2837.1	10797.6875
2839.62884	10830.0875
2842.15613	10861.5875
2844.68186	10939.9875
2847.20604	11000.3875
2849.72867	11006.0875
2852.24974	11041.5875
2854.76927	11054.2875
2857.28724	11014.1875
2859.80367	11010.8875
2862.31855	10991.1875
2864.83189	10961.0875
2867.34368	10941.6875
2869.85393	10917.8875
2872.36264	10911.9875
2874.8698	10893.8875
2877.37543	10908.8875
2879.87952	10902.5875
2882.38207	10900.8875
2884.88308	10876.2875
2887.38256	10886.2875
2889.88051	10866.3875
2892.37692	10897.8875
2894.8718	10874.0875
2897.36515	10895.3875
2899.85698	10893.8875
2902.34727	10906.6875
2904.83604	10917.0875
2907.32328	10944.4875
2909.809	10919.4875
2912.29319	10936.7875
2914.77587	10940.0875
2917.25702	10936.2875
2919.73665	10913.9875
2922.21476	10899.9875
2924.69136	10883.8875
2927.16644	10877.3875
2929.64	10859.9875
2932.11205	10807.2875
2934.58258	10757.0875
2937.05161	10752.1875
2939.51912	10722.4875
2941.98513	10707.0875
2944.44962	10629.3875
2946.91261	10559.3875
2949.37409	10567.1875
2951.83407	10539.5875
2954.29254	10490.8875
2956.74951	10490.7875
2959.20498	10462.7875
2961.65895	10459.5875
2964.11142	10424.2875
2966.56239	10408.1875
2969.01186	10382.6875
2971.45984	10359.6875
2973.90632	10321.3875
2976.35131	10320.9875
2978.7948	10268.6875
2981.23681	10255.4875
2983.67732	10250.2875
2986.11635	10217.2875
2988.55388	10182.4875
2990.98993	10137.2875
2993.4245	10126.1875
2995.85758	10072.0875
2998.28917	10079.4875
3000.71928	10039.7875
3003.14791	10016.2875
3005.57506	10018.3875
3008.00073	9965.6875
3010.42493	9963.3875
3012.84764	9953.2875
3015.26888	9965.4875
3017.68865	9947.3875
3020.10694	9913.9875
3022.52376	9874.3875
3024.9391	9867.9875
3027.35298	9877.7875
3029.76539	9841.6875
3032.17632	9846.8875
3034.5858	9789.7875
3036.9938	9796.4875
3039.40034	9757.7875
3041.80542	9770.6875
3044.20903	9734.8875
3046.61118	9747.4875
3049.01187	9719.9875
3051.4111	9718.0875
3053.80888	9681.0875
3056.20519	9667.5875
3058.60005	9630.1875
3060.99345	9611.1875
3063.3854	9588.1875
3065.7759	9538.6875
3068.16494	9517.2875
3070.55254	9491.3875
3072.93868	9468.1875
3075.32338	9439.0875
3077.70662	9396.9875
3080.08842	9349.3875
3082.46878	9337.3875
3084.84769	9327.3875
3087.22515	9317.2875
3089.60118	9302.4875
3091.97576	9308.1875
3094.3489	9300.5875
3096.72061	9294.6875
3099.09087	9300.1875
3101.4597	9248.6875
3103.82709	9284.3875
3106.19305	9245.3875
3108.55757	9235.3875
3110.92066	9218.1875
3113.28232	9186.5875
3115.64255	9158.2875
3118.00134	9139.5875
3120.35871	9126.2875
3122.71466	9106.9875
3125.06917	9093.8875
3127.42226	9055.5875
3129.77393	9076.0875
3132.12417	9059.0875
3134.47299	9062.9875
3136.82039	9038.7875
3139.16636	9041.5875
3141.51092	9052.4875
3143.85406	9046.9875
3146.19579	9038.6875
3148.53609	9038.1875
3150.87499	9056.3875
3153.21246	9047.8875
3155.54853	9058.0875
3157.88318	9063.3875
3160.21642	9050.3875
3162.54826	9061.4875
3164.87868	9051.8875
3167.2077	9047.7875
3169.5353	9045.7875
3171.86151	9045.0875
3174.18631	9031.2875
3176.5097	9045.0875
3178.83169	9010.1875
3181.15228	8999.2875
3183.47147	8980.3875
3185.78926	8985.6875
3188.10565	8948.6875
3190.42065	8948.2875
3192.73424	8953.3875
3195.04645	8960.3875
3197.35725	8954.8875
3199.66667	8957.6875
3201.97469	8962.3875
3204.28132	8961.0875
3206.58656	8973.7875
3208.8904	8975.6875
3211.19287	8960.3875
3213.49394	8987.0875
3215.79363	8985.6875
3218.09193	8978.3875
3220.38884	8995.4875
3222.68438	9003.8875
3224.97853	8987.1875
3227.2713	8992.7875
3229.56269	8960.4875
3231.8527	8973.3875
3234.14133	8920.6875
3236.42858	8903.2875
3238.71446	8918.8875
3240.99896	8885.4875
3243.28209	8894.2875
3245.56384	8869.1875
3247.84423	8869.5875
3250.12324	8858.2875
3252.40088	8827.7875
3254.67715	8844.7875
3256.95205	8813.9875
3259.22558	8826.6875
3261.49775	8785.4875
3263.76855	8791.0875
3266.03799	8769.3875
3268.30606	8745.5875
3270.57277	8748.7875
3272.83812	8728.9875
3275.10211	8691.1875
3277.36474	8675.0875
3279.62601	8676.4875
3281.88593	8651.1875
3284.14448	8672.3875
3286.40168	8659.6875
3288.65753	8643.6875
3290.91202	8642.9875
3293.16516	8620.5875
3295.41695	8608.7875
3297.66738	8543.1875
3299.91647	8520.0875
3302.16421	8473.5875
3304.4106	8417.7875
3306.65564	8343.0875
3308.89933	8289.0875
3311.14169	8237.1875
3313.38269	8173.6875
3315.62236	8105.9875
3317.86068	8034.0875
3320.09766	7988.6875
3322.3333	7925.0875
3324.5676	7891.0875
3326.80056	7753.4875
3329.03219	7728.7875
3331.26248	2.5875
3333.49143	-1.9125
3335.71905	-0.6125
