Data from AgNPs_FTO_APTES_UA_5uM_CRN_50uM_R6G_10uM_NaF_0.1M_Addition_RamanShift__17__14-02-26-824.txt Node

Date: Mon Feb 07 14:02:26 GMT 2022
User: TCL
Spectrometer: QEP01345
Trigger mode: 4
Integration Time (sec): 7.000000E0
Scans to average: 10
Electric dark correction enabled: true
Nonlinearity correction enabled: false
Boxcar width: 0
XAxis mode: Raman Shifts
Number of Pixels in Spectrum: 1044
>>>>>Begin Spectral Data<<<<<
46.04893	-1.6625
50.45542	-0.5625
54.85868	-0.8625
59.25871	-0.2625
63.6555	68.6375
68.04907	69.8375
72.43941	73.9375
76.82654	78.0375
81.21044	76.7375
85.59113	82.9375
89.96862	87.6375
94.34289	86.8375
98.71396	88.2375
103.08183	95.1375
107.4465	94.3375
111.80798	98.3375
116.16626	101.3375
120.52136	106.5375
124.87327	113.5375
129.222	120.2375
133.56755	127.0375
137.90993	141.2375
142.24913	157.1375
146.58517	176.5375
150.91804	208.0375
155.24774	257.0375
159.57429	315.5375
163.89768	415.4375
168.21792	557.9375
172.53501	758.6375
176.84895	1061.7375
181.15975	1494.0375
185.46741	2099.0375
189.77193	2893.3375
194.07331	3880.9375
198.37157	4982.5375
202.6667	6143.5375
206.9587	7324.6375
211.24758	8449.8375
215.53334	9558.6375
219.81599	10776.6375
224.09553	12123.0375
228.37195	13569.4375
232.64527	15172.0375
236.91549	16831.9375
241.18261	18522.0375
245.44663	20140.2375
249.70755	21581.1375
253.96539	22888.9375
258.22014	23965.3375
262.4718	24888.3375
266.72039	25577.2375
270.96589	26010.0375
275.20832	26216.6375
279.44768	26212.0375
283.68397	26163.8375
287.91719	26130.1375
292.14735	26123.8375
296.37445	26264.1375
300.59849	26289.3375
304.81948	26296.9375
309.03742	26024.2375
313.25231	25529.6375
317.46415	24785.2375
321.67296	23987.7375
325.87872	23344.7375
330.08145	22982.7375
334.28114	22911.9375
338.47781	23012.4375
342.67145	23220.4375
346.86207	23506.8375
351.04966	23883.9375
355.23424	24254.7375
359.4158	24550.0375
363.59435	24828.9375
367.76989	24969.2375
371.94243	25074.7375
376.11196	25168.3375
380.27849	25333.0375
384.44203	25485.5375
388.60257	25732.7375
392.76012	26028.0375
396.91468	26373.5375
401.06626	26820.2375
405.21485	27033.7375
409.36047	26935.0375
413.50311	26631.8375
417.64277	26347.0375
421.77947	26321.1375
425.9132	26396.6375
430.04396	26585.1375
434.17176	26785.5375
438.2966	26967.6375
442.41849	27401.6375
446.53742	28083.0375
450.6534	28861.9375
454.76644	29509.5375
458.87653	29818.5375
462.98368	29940.4375
467.08789	29773.9375
471.18916	29560.2375
475.2875	29489.6375
479.38291	29591.3375
483.4754	29562.3375
487.56496	29132.2375
491.6516	28381.3375
495.73531	27697.5375
499.81612	27322.1375
503.89401	27276.5375
507.96899	27335.1375
512.04106	27206.3375
516.11023	26909.3375
520.1765	26575.4375
524.23987	26141.7375
528.30034	25781.3375
532.35792	25570.3375
536.41261	25360.3375
540.46441	25204.8375
544.51333	25332.2375
548.55936	25785.5375
552.60252	26493.1375
556.64279	27217.0375
560.6802	27758.9375
564.71473	28150.2375
568.7464	28660.7375
572.7752	29453.5375
576.80114	30179.0375
580.82422	30716.8375
584.84444	31179.0375
588.86181	31431.1375
592.87633	31640.1375
596.888	31706.4375
600.89682	31647.4375
604.9028	32139.9375
608.90594	33780.4375
612.90624	35131.7375
616.90371	32633.7375
620.89834	28070.5375
624.89015	26164.7375
628.87913	26244.6375
632.86528	26449.4375
636.84862	26421.1375
640.82913	25944.5375
644.80683	25259.5375
648.78172	24685.0375
652.75379	24415.1375
656.72306	24518.9375
660.68952	24769.6375
664.65319	24710.4375
668.61405	24385.7375
672.57211	24280.8375
676.52738	24269.3375
680.47986	24242.9375
684.42955	24172.2375
688.37646	24115.5375
692.32058	24191.3375
696.26192	24398.5375
700.20048	24666.1375
704.13626	24851.3375
708.06928	24882.1375
711.99952	24759.4375
715.927	24699.3375
719.85171	24709.2375
723.77365	24605.1375
727.69284	24360.2375
731.60928	24127.7375
735.52295	23991.5375
739.43388	23953.6375
743.34206	23985.7375
747.24749	24131.4375
751.15017	24388.6375
755.05012	24882.0375
758.94733	25706.4375
762.8418	27037.5375
766.73354	28950.9375
770.62254	30595.6375
774.50882	30651.9375
778.39237	29076.7375
782.27321	26949.2375
786.15132	25350.8375
790.02671	24402.6375
793.89938	23965.0375
797.76935	23772.4375
801.6366	23745.6375
805.50115	23723.1375
809.36299	23563.3375
813.22213	23434.3375
817.07857	23350.3375
820.93231	23292.0375
824.78336	23132.1375
828.63172	22979.7375
832.47738	22888.9375
836.32036	22889.1375
840.16066	22941.3375
843.99827	23063.3375
847.8332	22998.5375
851.66546	22875.4375
855.49504	22811.8375
859.32195	22816.5375
863.1462	22771.7375
866.96777	22654.5375
870.78668	22535.1375
874.60293	22527.8375
878.41652	22514.3375
882.22745	22584.1375
886.03573	22620.2375
889.84136	22603.3375
893.64433	22506.3375
897.44466	22401.5375
901.24235	22361.3375
905.0374	22271.4375
908.8298	22243.0375
912.61957	22342.6375
916.40671	22648.4375
920.19121	23080.4375
923.97308	23311.4375
927.75233	23259.6375
931.52895	22999.8375
935.30295	22659.9375
939.07433	22249.5375
942.84309	21847.2375
946.60924	21683.1375
950.37278	21608.3375
954.13371	21515.0375
957.89203	21501.5375
961.64774	21476.0375
965.40086	21454.0375
969.15137	21376.0375
972.89929	21228.1375
976.64461	21090.4375
980.38733	21038.9375
984.12747	21100.2375
987.86502	21242.6375
991.59999	21506.9375
995.33237	21851.0375
999.06217	22442.4375
1002.78939	23096.5375
1006.51404	23438.7375
1010.23611	23619.9375
1013.95561	23749.3375
1017.67255	23835.2375
1021.38692	23616.3375
1025.09872	23406.9375
1028.80796	23467.7375
1032.51465	23990.0375
1036.21877	24570.9375
1039.92035	24716.7375
1043.61937	24449.4375
1047.31584	23963.9375
1051.00976	23506.8375
1054.70114	23396.0375
1058.38998	23523.2375
1062.07627	23778.8375
1065.76003	24048.5375
1069.44126	24281.5375
1073.11995	24483.9375
1076.79611	24658.3375
1080.46974	24770.9375
1084.14085	24896.3375
1087.80943	25142.0375
1091.47549	25436.9375
1095.13903	25604.3375
1098.80005	25400.8375
1102.45857	24840.8375
1106.11456	24344.4375
1109.76805	24049.1375
1113.41903	24080.0375
1117.06751	24196.1375
1120.71348	24416.1375
1124.35696	24658.1375
1127.99793	24899.4375
1131.63641	25134.8375
1135.2724	25076.6375
1138.90589	25030.0375
1142.5369	25091.0375
1146.16542	25269.0375
1149.79145	25575.3375
1153.415	26038.3375
1157.03607	26683.1375
1160.65467	27570.2375
1164.27079	28938.0375
1167.88443	30625.0375
1171.49561	32624.7375
1175.10432	35034.1375
1178.71056	37913.7375
1182.31434	40642.6375
1185.91565	42213.1375
1189.51451	42469.5375
1193.11091	41638.2375
1196.70485	40095.0375
1200.29634	38363.2375
1203.88538	37059.1375
1207.47197	36270.3375
1211.05612	35699.0375
1214.63782	35043.7375
1218.21708	34131.6375
1221.79391	33233.8375
1225.36829	32594.7375
1228.94024	31980.6375
1232.50976	31305.4375
1236.07685	30745.5375
1239.6415	30497.5375
1243.20374	30568.1375
1246.76355	30801.2375
1250.32093	31278.9375
1253.8759	32009.3375
1257.42845	32945.2375
1260.97859	33851.6375
1264.52631	34658.4375
1268.07163	35650.9375
1271.61453	36760.9375
1275.15503	37936.6375
1278.69312	39418.9375
1282.22882	40835.8375
1285.76211	42172.0375
1289.29301	43738.4375
1292.82151	45828.4375
1296.34761	48542.7375
1299.87133	51692.4375
1303.39266	54893.2375
1306.9116	57800.8375
1310.42815	60260.1375
1313.94233	61697.4375
1317.45412	61927.1375
1320.96354	61528.2375
1324.47058	61212.8375
1327.97525	60858.2375
1331.47754	60611.5375
1334.97747	60609.3375
1338.47502	60346.6375
1341.97022	59898.2375
1345.46305	58979.7375
1348.95352	57460.2375
1352.44163	55708.0375
1355.92738	54805.7375
1359.41078	55084.3375
1362.89183	55620.6375
1366.37053	54413.7375
1369.84688	50776.8375
1373.32088	46440.4375
1376.79254	43347.1375
1380.26186	42403.1375
1383.72883	42796.2375
1387.19347	43425.5375
1390.65578	43739.2375
1394.11575	43978.4375
1397.57339	44805.9375
1401.0287	45928.9375
1404.48168	46674.3375
1407.93234	46505.4375
1411.38068	45286.0375
1414.82669	43200.5375
1418.27039	40693.4375
1421.71177	38309.8375
1425.15083	36466.2375
1428.58758	35420.8375
1432.02203	35401.5375
1435.45416	36305.8375
1438.88399	37619.3375
1442.31151	38888.5375
1445.73673	39928.0375
1449.15965	40939.8375
1452.58027	41777.5375
1455.9986	42357.9375
1459.41463	42923.5375
1462.82837	43563.2375
1466.23982	44189.4375
1469.64898	44643.5375
1473.05586	44719.1375
1476.46045	44384.7375
1479.86276	43737.5375
1483.26279	42963.5375
1486.66054	42260.8375
1490.05602	41964.2375
1493.44922	41924.0375
1496.84016	42016.5375
1500.22882	42510.5375
1503.61521	43325.2375
1506.99934	44595.4375
1510.38121	45644.0375
1513.76081	46150.1375
1517.13816	45764.4375
1520.51324	44918.8375
1523.88607	44202.7375
1527.25665	43904.6375
1530.62498	43963.1375
1533.99105	44001.2375
1537.35488	43755.2375
1540.71647	43094.8375
1544.07581	41996.7375
1547.4329	40821.8375
1550.78776	39784.9375
1554.14038	39095.3375
1557.49077	38717.3375
1560.83892	38472.1375
1564.18484	38340.5375
1567.52853	38372.1375
1570.86999	38628.0375
1574.20922	39368.3375
1577.54624	40160.0375
1580.88103	40855.8375
1584.2136	41516.8375
1587.54395	42882.5375
1590.87208	44922.2375
1594.19801	47291.0375
1597.52172	49519.1375
1600.84321	49961.1375
1604.16251	47556.4375
1607.47959	43758.2375
1610.79447	39813.5375
1614.10715	36201.5375
1617.41763	33200.9375
1620.7259	31066.6375
1624.03199	29880.0375
1627.33587	29662.9375
1630.63757	30581.1375
1633.93707	32704.1375
1637.23439	36147.6375
1640.52951	40924.4375
1643.82246	46238.8375
1647.11321	50254.8375
1650.40179	50929.1375
1653.68819	47504.6375
1656.97241	41488.4375
1660.25446	35178.0375
1663.53433	30246.0375
1666.81203	26880.8375
1670.08756	24691.1375
1673.36092	23284.3375
1676.63211	22375.5375
1679.90115	21757.9375
1683.16801	21261.8375
1686.43272	20912.6375
1689.69527	20651.8375
1692.95567	20403.3375
1696.2139	20274.8375
1699.46999	20145.8375
1702.72392	20077.8375
1705.97571	19959.3375
1709.22535	19877.7375
1712.47284	19861.9375
1715.71819	19753.8375
1718.96139	19676.9375
1722.20246	19583.4375
1725.44139	19453.3375
1728.67818	19379.8375
1731.91284	19230.9375
1735.14537	19108.7375
1738.37576	18996.4375
1741.60403	18939.4375
1744.83017	18845.3375
1748.05418	18828.3375
1751.27607	18813.9375
1754.49584	18744.3375
1757.71349	18739.6375
1760.92903	18744.6375
1764.14244	18682.3375
1767.35375	18650.0375
1770.56294	18638.2375
1773.77002	18539.9375
1776.97499	18495.4375
1780.17785	18435.9375
1783.37861	18418.3375
1786.57727	18394.7375
1789.77382	18314.5375
1792.96828	18300.4375
1796.16064	18257.1375
1799.3509	18234.4375
1802.53907	18176.5375
1805.72514	18115.1375
1808.90913	18064.1375
1812.09102	17981.9375
1815.27083	17950.8375
1818.44856	17952.1375
1821.6242	17920.6375
1824.79776	17895.1375
1827.96924	17857.1375
1831.13864	17868.4375
1834.30597	17834.0375
1837.47122	17834.1375
1840.6344	17820.3375
1843.7955	17823.3375
1846.95454	17807.9375
1850.11151	17818.5375
1853.26642	17799.3375
1856.41926	17787.1375
1859.57004	17794.9375
1862.71876	17783.4375
1865.86542	17773.6375
1869.01003	17712.8375
1872.15258	17675.8375
1875.29308	17685.0375
1878.43152	17670.8375
1881.56792	17643.5375
1884.70227	17645.3375
1887.83457	17643.8375
1890.96482	17603.7375
1894.09304	17571.7375
1897.21921	17541.8375
1900.34335	17539.2375
1903.46544	17544.9375
1906.58551	17525.8375
1909.70353	17461.0375
1912.81953	17455.3375
1915.93349	17435.8375
1919.04543	17423.8375
1922.15534	17345.2375
1925.26322	17289.2375
1928.36908	17252.3375
1931.47292	17207.4375
1934.57473	17190.4375
1937.67453	17116.8375
1940.77232	17085.5375
1943.86808	17029.6375
1946.96184	16980.4375
1950.05358	16925.1375
1953.14331	16884.6375
1956.23103	16798.9375
1959.31675	16761.0375
1962.40046	16693.8375
1965.48217	16629.4375
1968.56188	16618.7375
1971.63959	16552.8375
1974.7153	16495.5375
1977.78901	16468.5375
1980.86073	16390.4375
1983.93046	16314.1375
1986.99819	16281.4375
1990.06394	16210.9375
1993.1277	16221.7375
1996.18947	16165.5375
1999.24925	16101.4375
2002.30706	16052.2375
2005.36288	16012.6375
2008.41672	15960.8375
2011.46859	15949.1375
2014.51848	15899.4375
2017.56639	15815.4375
2020.61233	15766.7375
2023.6563	15742.9375
2026.6983	15699.4375
2029.73833	15676.0375
2032.7764	15626.4375
2035.8125	15649.9375
2038.84664	15586.3375
2041.87881	15582.3375
2044.90903	15577.5375
2047.93729	15524.1375
2050.96359	15513.7375
2053.98794	15487.5375
2057.01034	15487.0375
2060.03078	15482.6375
2063.04927	15455.3375
2066.06582	15455.2375
2069.08042	15426.3375
2072.09307	15430.0375
2075.10378	15419.0375
2078.11255	15364.2375
2081.11938	15367.3375
2084.12426	15375.7375
2087.12722	15350.8375
2090.12824	15328.4375
2093.12732	15336.1375
2096.12447	15317.1375
2099.11969	15346.8375
2102.11299	15346.6375
2105.10435	15333.7375
2108.09379	15324.2375
2111.08131	15328.5375
2114.0669	15335.7375
2117.05057	15377.8375
2120.03233	15369.6375
2123.01216	15374.5375
2125.99008	15408.2375
2128.96609	15384.9375
2131.94018	15401.1375
2134.91236	15422.0375
2137.88263	15438.8375
2140.851	15431.5375
2143.81746	15447.9375
2146.78201	15443.5375
2149.74466	15413.8375
2152.7054	15419.9375
2155.66425	15408.8375
2158.6212	15401.3375
2161.57625	15379.2375
2164.52941	15391.3375
2167.48067	15363.5375
2170.43004	15347.2375
2173.37752	15369.3375
2176.32311	15368.6375
2179.26681	15355.4375
2182.20863	15353.0375
2185.14856	15344.8375
2188.08661	15351.9375
2191.02278	15369.2375
2193.95707	15369.3375
2196.88948	15344.9375
2199.82001	15323.8375
2202.74867	15316.6375
2205.67545	15299.0375
2208.60037	15297.7375
2211.52341	15294.6375
2214.44458	15274.2375
2217.36388	15239.8375
2220.28132	15198.3375
2223.1969	15171.1375
2226.11061	15154.3375
2229.02246	15118.5375
2231.93245	15079.8375
2234.84058	15039.4375
2237.74686	14992.2375
2240.65128	14988.7375
2243.55385	14959.4375
2246.45456	14935.7375
2249.35343	14945.5375
2252.25044	14902.9375
2255.14561	14868.0375
2258.03893	14837.5375
2260.93041	14805.7375
2263.82004	14779.8375
2266.70783	14750.3375
2269.59378	14676.5375
2272.4779	14666.2375
2275.36017	14599.7375
2278.24061	14587.5375
2281.11922	14575.6375
2283.996	14556.8375
2286.87094	14549.3375
2289.74405	14508.1375
2292.61534	14491.5375
2295.4848	14486.9375
2298.35243	14491.2375
2301.21824	14487.8375
2304.08223	14502.2375
2306.94439	14518.2375
2309.80474	14537.2375
2312.66327	14523.7375
2315.51999	14512.9375
2318.37489	14506.1375
2321.22797	14483.4375
2324.07925	14465.9375
2326.92871	14421.2375
2329.77637	14407.5375
2332.62222	14415.7375
2335.46626	14406.4375
2338.3085	14394.2375
2341.14893	14359.7375
2343.98756	14420.1375
2346.8244	14426.1375
2349.65943	14403.8375
2352.49267	14415.1375
2355.32411	14417.0375
2358.15376	14420.9375
2360.98161	14396.3375
2363.80768	14376.4375
2366.63195	14385.8375
2369.45444	14334.7375
2372.27514	14311.9375
2375.09405	14321.3375
2377.91118	14246.2375
2380.72652	14199.8375
2383.54009	14201.2375
2386.35187	14154.8375
2389.16188	14145.1375
2391.97011	14120.5375
2394.77657	14085.3375
2397.58125	14089.0375
2400.38416	14061.9375
2403.18529	14032.2375
2405.98466	14006.3375
2408.78226	14007.6375
2411.57809	13975.2375
2414.37216	13924.8375
2417.16446	13938.6375
2419.955	13937.8375
2422.74378	13914.4375
2425.5308	13886.6375
2428.31606	13849.5375
2431.09956	13859.9375
2433.88131	13851.3375
2436.6613	13889.4375
2439.43954	13871.2375
2442.21603	13882.7375
2444.99077	13847.8375
2447.76377	13836.4375
2450.53501	13840.6375
2453.30451	13835.2375
2456.07226	13836.6375
2458.83827	13851.3375
2461.60254	13830.4375
2464.36507	13828.4375
2467.12586	13813.9375
2469.88492	13811.0375
2472.64224	13861.4375
2475.39782	13879.6375
2478.15167	13888.0375
2480.90379	13843.1375
2483.65417	13869.6375
2486.40283	13875.1375
2489.14976	13906.4375
2491.89497	13903.5375
2494.63845	13938.7375
2497.3802	13899.3375
2500.12024	13913.2375
2502.85855	13925.0375
2505.59514	13873.9375
2508.33002	13880.3375
2511.06318	13879.9375
2513.79462	13857.2375
2516.52435	13828.7375
2519.25237	13850.2375
2521.97867	13860.9375
2524.70327	13851.0375
2527.42616	13812.3375
2530.14734	13838.8375
2532.86681	13834.5375
2535.58458	13831.7375
2538.30065	13811.9375
2541.01501	13839.1375
2543.72768	13791.6375
2546.43864	13773.2375
2549.14791	13767.6375
2551.85548	13761.8375
2554.56136	13761.0375
2557.26554	13706.9375
2559.96803	13709.2375
2562.66883	13691.8375
2565.36794	13673.9375
2568.06536	13647.9375
2570.7611	13640.5375
2573.45514	13644.7375
2576.14751	13656.6375
2578.83819	13641.1375
2581.52719	13629.2375
2584.21451	13617.4375
2586.90015	13652.0375
2589.58411	13653.6375
2592.2664	13652.1375
2594.94701	13627.9375
2597.62594	13660.7375
2600.30321	13601.0375
2602.9788	13621.0375
2605.65273	13604.6375
2608.32498	13616.2375
2610.99557	13591.6375
2613.66449	13636.9375
2616.33175	13636.5375
2618.99734	13653.4375
2621.66128	13623.1375
2624.32355	13641.7375
2626.98416	13628.8375
2629.64311	13633.2375
2632.30041	13655.3375
2634.95605	13655.6375
2637.61004	13631.1375
2640.26238	13629.2375
2642.91306	13607.1375
2645.56209	13590.1375
2648.20948	13595.5375
2650.85521	13598.2375
2653.4993	13598.3375
2656.14175	13598.1375
2658.78255	13611.1375
2661.42171	13622.5375
2664.05923	13661.3375
2666.6951	13643.9375
2669.32934	13642.9375
2671.96194	13676.7375
2674.59291	13669.0375
2677.22224	13687.1375
2679.84993	13680.0375
2682.476	13627.0375
2685.10043	13613.9375
2687.72324	13609.7375
2690.34441	13574.4375
2692.96396	13585.5375
2695.58188	13591.5375
2698.19818	13573.9375
2700.81285	13628.6375
2703.4259	13627.4375
2706.03733	13673.8375
2708.64714	13639.0375
2711.25533	13640.8375
2713.86191	13632.3375
2716.46687	13651.8375
2719.07021	13655.7375
2721.67194	13696.1375
2724.27206	13662.7375
2726.87057	13698.0375
2729.46747	13748.3375
2732.06276	13731.2375
2734.65644	13737.1375
2737.24852	13704.6375
2739.83899	13684.3375
2742.42786	13701.6375
2745.01513	13685.8375
2747.60079	13688.6375
2750.18486	13667.4375
2752.76733	13664.1375
2755.3482	13682.7375
2757.92747	13659.0375
2760.50515	13669.6375
2763.08123	13688.5375
2765.65573	13697.8375
2768.22863	13691.5375
2770.79994	13661.0375
2773.36967	13705.2375
2775.9378	13700.6375
2778.50435	13678.2375
2781.06932	13690.9375
2783.6327	13735.3375
2786.1945	13709.7375
2788.75471	13732.0375
2791.31335	13671.9375
2793.87041	13629.7375
2796.42589	13619.3375
2798.97979	13624.0375
2801.53212	13588.8375
2804.08288	13550.7375
2806.63206	13528.4375
2809.17967	13511.2375
2811.72571	13490.4375
2814.27018	13475.8375
2816.81308	13437.7375
2819.35442	13438.9375
2821.89419	13401.7375
2824.43239	13425.1375
2826.96904	13426.5375
2829.50412	13393.4375
2832.03763	13374.2375
2834.56959	13338.0375
2837.1	13350.8375
2839.62884	13356.3375
2842.15613	13359.5375
2844.68186	13361.2375
2847.20604	13394.0375
2849.72867	13409.5375
2852.24974	13410.4375
2854.76927	13433.1375
2857.28724	13393.1375
2859.80367	13382.4375
2862.31855	13372.3375
2864.83189	13359.1375
2867.34368	13320.0375
2869.85393	13317.5375
2872.36264	13305.3375
2874.8698	13290.9375
2877.37543	13268.8375
2879.87952	13283.5375
2882.38207	13319.0375
2884.88308	13303.2375
2887.38256	13290.5375
2889.88051	13306.1375
2892.37692	13311.9375
2894.8718	13322.3375
2897.36515	13339.6375
2899.85698	13334.1375
2902.34727	13362.9375
2904.83604	13410.8375
2907.32328	13428.6375
2909.809	13396.4375
2912.29319	13440.4375
2914.77587	13452.6375
2917.25702	13445.5375
2919.73665	13418.6375
2922.21476	13417.3375
2924.69136	13441.3375
2927.16644	13435.5375
2929.64	13416.9375
2932.11205	13389.2375
2934.58258	13373.8375
2937.05161	13332.9375
2939.51912	13342.3375
2941.98513	13331.6375
2944.44962	13321.0375
2946.91261	13245.8375
2949.37409	13268.6375
2951.83407	13263.6375
2954.29254	13229.3375
2956.74951	13221.8375
2959.20498	13216.3375
2961.65895	13178.3375
2964.11142	13167.8375
2966.56239	13163.8375
2969.01186	13113.1375
2971.45984	13114.4375
2973.90632	13116.0375
2976.35131	13066.7375
2978.7948	13060.0375
2981.23681	13025.3375
2983.67732	13013.5375
2986.11635	12963.4375
2988.55388	12938.4375
2990.98993	12899.1375
2993.4245	12891.1375
2995.85758	12837.2375
2998.28917	12791.8375
3000.71928	12783.5375
3003.14791	12758.1375
3005.57506	12731.2375
3008.00073	12702.9375
3010.42493	12586.7375
3012.84764	12668.3375
3015.26888	12636.9375
3017.68865	12597.3375
3020.10694	12606.0375
3022.52376	12600.7375
3024.9391	12574.4375
3027.35298	12558.9375
3029.76539	12539.5375
3032.17632	12531.5375
3034.5858	12528.4375
3036.9938	12514.3375
3039.40034	12498.9375
3041.80542	12516.6375
3044.20903	12486.5375
3046.61118	12452.4375
3049.01187	12444.6375
3051.4111	12475.6375
3053.80888	12432.8375
3056.20519	12416.8375
3058.60005	12374.7375
3060.99345	12358.2375
3063.3854	12328.1375
3065.7759	12283.6375
3068.16494	12239.5375
3070.55254	12217.8375
3072.93868	12226.7375
3075.32338	12155.3375
3077.70662	12101.3375
3080.08842	12099.9375
3082.46878	12070.0375
3084.84769	12031.0375
3087.22515	12028.3375
3089.60118	12053.0375
3091.97576	12058.1375
3094.3489	12016.2375
3096.72061	12026.4375
3099.09087	12042.2375
3101.4597	12012.9375
3103.82709	12011.7375
3106.19305	12011.6375
3108.55757	11975.8375
3110.92066	11942.6375
3113.28232	11936.3375
3115.64255	11940.5375
3118.00134	11894.1375
3120.35871	11887.4375
3122.71466	11860.9375
3125.06917	11829.3375
3127.42226	11789.7375
3129.77393	11806.1375
3132.12417	11759.7375
3134.47299	11774.3375
3136.82039	11754.1375
3139.16636	11771.9375
3141.51092	11750.7375
3143.85406	11724.9375
3146.19579	11739.0375
3148.53609	11744.5375
3150.87499	11739.1375
3153.21246	11762.0375
3155.54853	11773.7375
3157.88318	11780.1375
3160.21642	11790.4375
3162.54826	11741.4375
3164.87868	11784.5375
3167.2077	11787.3375
3169.5353	11766.2375
3171.86151	11767.4375
3174.18631	11746.2375
3176.5097	11749.2375
3178.83169	11747.8375
3181.15228	11746.2375
3183.47147	11709.1375
3185.78926	11716.8375
3188.10565	11681.8375
3190.42065	11675.7375
3192.73424	11703.2375
3195.04645	11682.7375
3197.35725	11654.3375
3199.66667	11644.5375
3201.97469	11660.2375
3204.28132	11650.1375
3206.58656	11681.8375
3208.8904	11661.6375
3211.19287	11686.8375
3213.49394	11694.1375
3215.79363	11702.7375
3218.09193	11676.4375
3220.38884	11705.2375
3222.68438	11694.3375
3224.97853	11676.7375
3227.2713	11662.6375
3229.56269	11636.4375
3231.8527	11666.5375
3234.14133	11643.6375
3236.42858	11620.0375
3238.71446	11632.1375
3240.99896	11583.0375
3243.28209	11563.3375
3245.56384	11546.3375
3247.84423	11550.9375
3250.12324	11537.5375
3252.40088	11522.8375
3254.67715	11494.0375
3256.95205	11489.6375
3259.22558	11484.4375
3261.49775	11487.8375
3263.76855	11477.3375
3266.03799	11430.8375
3268.30606	11421.2375
3270.57277	11412.9375
3272.83812	11368.4375
3275.10211	11340.8375
3277.36474	11325.1375
3279.62601	11335.9375
3281.88593	11323.8375
3284.14448	11334.0375
3286.40168	11352.8375
3288.65753	11328.4375
3290.91202	11344.1375
3293.16516	11308.3375
3295.41695	11279.3375
3297.66738	11233.8375
3299.91647	11144.3375
3302.16421	11095.5375
3304.4106	11056.4375
3306.65564	10955.2375
3308.89933	10892.7375
3311.14169	10845.6375
3313.38269	10725.1375
3315.62236	10665.4375
3317.86068	10572.1375
3320.09766	10509.2375
3322.3333	10417.6375
3324.5676	10402.0375
3326.80056	10222.2375
3329.03219	10160.6375
3331.26248	3.7375
3333.49143	-0.5625
3335.71905	-0.9625
