Data from AgNPs_FTO_APTES_UA_5uM_CRN_1uM_R6G_10uM_NaF_0.1M_Addition_RamanShift__31__10-53-26-606.txt Node

Date: Mon Feb 07 10:53:26 GMT 2022
User: TCL
Spectrometer: QEP01345
Trigger mode: 4
Integration Time (sec): 7.000000E0
Scans to average: 10
Electric dark correction enabled: true
Nonlinearity correction enabled: false
Boxcar width: 0
XAxis mode: Raman Shifts
Number of Pixels in Spectrum: 1044
>>>>>Begin Spectral Data<<<<<
46.04893	0.2375
50.45542	-1.8625
54.85868	0.2375
59.25871	0.8375
63.6555	50.6375
68.04907	53.4375
72.43941	55.6375
76.82654	60.2375
81.21044	62.8375
85.59113	67.3375
89.96862	69.7375
94.34289	70.2375
98.71396	73.2375
103.08183	78.2375
107.4465	79.3375
111.80798	77.5375
116.16626	82.2375
120.52136	84.2375
124.87327	87.6375
129.222	94.0375
133.56755	93.9375
137.90993	101.4375
142.24913	108.4375
146.58517	123.2375
150.91804	137.9375
155.24774	166.1375
159.57429	204.4375
163.89768	254.0375
168.21792	341.6375
172.53501	457.6375
176.84895	633.4375
181.15975	884.5375
185.46741	1243.4375
189.77193	1712.4375
194.07331	2283.4375
198.37157	2932.5375
202.6667	3624.0375
206.9587	4303.0375
211.24758	5010.1375
215.53334	5755.8375
219.81599	6604.3375
224.09553	7598.1375
228.37195	8689.4375
232.64527	9863.3375
236.91549	10997.4375
241.18261	11987.8375
245.44663	12697.6375
249.70755	13244.1375
253.96539	13715.2375
258.22014	14069.8375
262.4718	14377.4375
266.72039	14721.4375
270.96589	14867.2375
275.20832	14867.8375
279.44768	14712.2375
283.68397	14535.5375
287.91719	14472.3375
292.14735	14618.5375
296.37445	15031.1375
300.59849	15798.2375
304.81948	16759.5375
309.03742	17528.6375
313.25231	17581.3375
317.46415	16581.3375
321.67296	14833.9375
325.87872	13318.6375
330.08145	12598.8375
334.28114	12466.7375
338.47781	12744.3375
342.67145	13174.4375
346.86207	13921.4375
351.04966	15062.9375
355.23424	16418.6375
359.4158	17437.2375
363.59435	17808.3375
367.76989	17787.4375
371.94243	17515.4375
376.11196	17171.6375
380.27849	16876.9375
384.44203	16492.7375
388.60257	16096.1375
392.76012	15919.9375
396.91468	16125.5375
401.06626	16706.0375
405.21485	17199.5375
409.36047	16851.6375
413.50311	15588.8375
417.64277	14437.2375
421.77947	13775.9375
425.9132	13464.4375
430.04396	13351.1375
434.17176	13340.4375
438.2966	13479.2375
442.41849	13847.9375
446.53742	14324.3375
450.6534	14801.6375
454.76644	15042.9375
458.87653	15013.8375
462.98368	14838.6375
467.08789	14482.6375
471.18916	14081.0375
475.2875	13653.7375
479.38291	13220.0375
483.4754	13004.1375
487.56496	12776.9375
491.6516	12676.5375
495.73531	12681.9375
499.81612	12771.6375
503.89401	12979.4375
507.96899	13237.0375
512.04106	13477.8375
516.11023	13715.4375
520.1765	13879.7375
524.23987	13779.3375
528.30034	13359.8375
532.35792	12930.6375
536.41261	12493.8375
540.46441	12008.9375
544.51333	11735.2375
548.55936	11855.2375
552.60252	12301.0375
556.64279	12818.0375
560.6802	13088.8375
564.71473	13405.2375
568.7464	14334.0375
572.7752	15068.8375
576.80114	14597.1375
580.82422	13916.6375
584.84444	13651.3375
588.86181	13424.0375
592.87633	13212.6375
596.888	13308.9375
600.89682	13945.0375
604.9028	16214.9375
608.90594	22494.9375
612.90624	31368.3375
616.90371	30631.2375
620.89834	19263.7375
624.89015	13577.5375
628.87913	12499.6375
632.86528	12654.7375
636.84862	13001.0375
640.82913	12745.1375
644.80683	11876.3375
648.78172	11229.5375
652.75379	11274.6375
656.72306	12107.5375
660.68952	13117.2375
664.65319	13000.0375
668.61405	11987.7375
672.57211	11412.9375
676.52738	11326.7375
680.47986	11255.3375
684.42955	11061.1375
688.37646	10937.7375
692.32058	11027.8375
696.26192	11181.5375
700.20048	11443.9375
704.13626	11684.0375
708.06928	11749.9375
711.99952	11590.0375
715.927	11433.4375
719.85171	11426.7375
723.77365	11393.2375
727.69284	11144.1375
731.60928	10986.0375
735.52295	10946.3375
739.43388	11023.3375
743.34206	11094.6375
747.24749	11222.9375
751.15017	11400.5375
755.05012	11781.0375
758.94733	12690.6375
762.8418	14782.5375
766.73354	18553.0375
770.62254	22486.9375
774.50882	24357.0375
778.39237	23140.7375
782.27321	19294.3375
786.15132	15322.0375
790.02671	12892.8375
793.89938	11799.1375
797.76935	11349.6375
801.6366	11149.7375
805.50115	10969.8375
809.36299	10869.6375
813.22213	10751.8375
817.07857	10704.3375
820.93231	10715.3375
824.78336	10769.6375
828.63172	10848.2375
832.47738	10945.4375
836.32036	10863.9375
840.16066	10757.3375
843.99827	10620.4375
847.8332	10571.5375
851.66546	10543.2375
855.49504	10530.0375
859.32195	10467.9375
863.1462	10391.4375
866.96777	10278.8375
870.78668	10276.9375
874.60293	10305.9375
878.41652	10340.7375
882.22745	10477.7375
886.03573	10523.4375
889.84136	10506.5375
893.64433	10414.3375
897.44466	10385.2375
901.24235	10406.3375
905.0374	10371.9375
908.8298	10296.9375
912.61957	10270.0375
916.40671	10359.5375
920.19121	10547.1375
923.97308	10763.4375
927.75233	10949.1375
931.52895	11107.7375
935.30295	10910.4375
939.07433	10335.4375
942.84309	9896.1375
946.60924	9617.2375
950.37278	9461.4375
954.13371	9392.6375
957.89203	9305.0375
961.64774	9307.9375
965.40086	9246.5375
969.15137	9226.7375
972.89929	9163.4375
976.64461	9174.6375
980.38733	9181.2375
984.12747	9202.6375
987.86502	9270.2375
991.59999	9319.6375
995.33237	9451.2375
999.06217	9755.9375
1002.78939	10129.5375
1006.51404	10516.5375
1010.23611	10893.1375
1013.95561	11120.4375
1017.67255	11039.9375
1021.38692	10809.9375
1025.09872	10505.1375
1028.80796	10342.6375
1032.51465	10400.2375
1036.21877	10619.6375
1039.92035	10802.7375
1043.61937	10899.6375
1047.31584	10858.0375
1051.00976	10787.6375
1054.70114	10709.0375
1058.38998	10658.8375
1062.07627	10737.1375
1065.76003	10846.4375
1069.44126	11049.7375
1073.11995	11336.2375
1076.79611	11588.7375
1080.46974	11844.8375
1084.14085	12316.0375
1087.80943	12870.0375
1091.47549	13098.4375
1095.13903	12799.0375
1098.80005	12107.5375
1102.45857	11442.0375
1106.11456	11042.3375
1109.76805	11025.8375
1113.41903	11305.6375
1117.06751	11878.9375
1120.71348	12678.8375
1124.35696	13615.1375
1127.99793	14467.8375
1131.63641	14439.2375
1135.2724	13411.9375
1138.90589	12414.2375
1142.5369	11851.4375
1146.16542	11474.6375
1149.79145	11278.9375
1153.415	11260.9375
1157.03607	11446.8375
1160.65467	11810.5375
1164.27079	12445.0375
1167.88443	13479.9375
1171.49561	15175.7375
1175.10432	17971.5375
1178.71056	21640.1375
1182.31434	24081.2375
1185.91565	24529.3375
1189.51451	23622.1375
1193.11091	21755.5375
1196.70485	19551.7375
1200.29634	17810.9375
1203.88538	16524.4375
1207.47197	15089.5375
1211.05612	13814.1375
1214.63782	13142.8375
1218.21708	12889.3375
1221.79391	12929.9375
1225.36829	13108.9375
1228.94024	13267.5375
1232.50976	13412.8375
1236.07685	13463.6375
1239.6415	13459.3375
1243.20374	13392.5375
1246.76355	13439.3375
1250.32093	13562.2375
1253.8759	13919.8375
1257.42845	14512.8375
1260.97859	15196.7375
1264.52631	15913.1375
1268.07163	16623.9375
1271.61453	17299.3375
1275.15503	17799.6375
1278.69312	18010.6375
1282.22882	18165.4375
1285.76211	18749.9375
1289.29301	19543.9375
1292.82151	20324.8375
1296.34761	21146.0375
1299.87133	22404.2375
1303.39266	24642.5375
1306.9116	28240.2375
1310.42815	32506.8375
1313.94233	35265.2375
1317.45412	34855.9375
1320.96354	32183.5375
1324.47058	29045.5375
1327.97525	26326.0375
1331.47754	24593.7375
1334.97747	23788.9375
1338.47502	23539.7375
1341.97022	23869.6375
1345.46305	24702.7375
1348.95352	26296.1375
1352.44163	28613.6375
1355.92738	32091.5375
1359.41078	37714.3375
1362.89183	43541.6375
1366.37053	42879.5375
1369.84688	35776.9375
1373.32088	28384.7375
1376.79254	23573.2375
1380.26186	21080.2375
1383.72883	19769.9375
1387.19347	18796.1375
1390.65578	17770.7375
1394.11575	16959.3375
1397.57339	16583.2375
1401.0287	16604.2375
1404.48168	16784.4375
1407.93234	17028.6375
1411.38068	17200.0375
1414.82669	17058.9375
1418.27039	16638.8375
1421.71177	16147.6375
1425.15083	15676.3375
1428.58758	15302.6375
1432.02203	15306.2375
1435.45416	15440.3375
1438.88399	15555.1375
1442.31151	15578.4375
1445.73673	15665.5375
1449.15965	15831.6375
1452.58027	15827.9375
1455.9986	15694.7375
1459.41463	15661.8375
1462.82837	15873.7375
1466.23982	16243.6375
1469.64898	16701.8375
1473.05586	17029.7375
1476.46045	17279.5375
1479.86276	17681.0375
1483.26279	18205.3375
1486.66054	18900.9375
1490.05602	19800.1375
1493.44922	21067.7375
1496.84016	23108.3375
1500.22882	26215.2375
1503.61521	30300.8375
1506.99934	34948.3375
1510.38121	39423.4375
1513.76081	41863.8375
1517.13816	40104.9375
1520.51324	34750.6375
1523.88607	28928.7375
1527.25665	24741.9375
1530.62498	22256.8375
1533.99105	20762.2375
1537.35488	19731.7375
1540.71647	19060.3375
1544.07581	18637.1375
1547.4329	18340.2375
1550.78776	18115.9375
1554.14038	18077.6375
1557.49077	18242.3375
1560.83892	18772.2375
1564.18484	19571.8375
1567.52853	20488.7375
1570.86999	21170.7375
1574.20922	21637.7375
1577.54624	21474.9375
1580.88103	20089.9375
1584.2136	18138.5375
1587.54395	17140.3375
1590.87208	17339.6375
1594.19801	18546.2375
1597.52172	20215.9375
1600.84321	20969.7375
1604.16251	20010.2375
1607.47959	18306.6375
1610.79447	16512.6375
1614.10715	14823.7375
1617.41763	13466.7375
1620.7259	12653.7375
1624.03199	12293.9375
1627.33587	12291.7375
1630.63757	12661.9375
1633.93707	13559.8375
1637.23439	14918.3375
1640.52951	17022.9375
1643.82246	19906.8375
1647.11321	23411.5375
1650.40179	26322.3375
1653.68819	26105.3375
1656.97241	22307.3375
1660.25446	17600.3375
1663.53433	14018.1375
1666.81203	11868.3375
1670.08756	10657.8375
1673.36092	9953.8375
1676.63211	9511.7375
1679.90115	9235.6375
1683.16801	9025.1375
1686.43272	8860.2375
1689.69527	8751.8375
1692.95567	8673.1375
1696.2139	8636.5375
1699.46999	8604.3375
1702.72392	8552.0375
1705.97571	8508.0375
1709.22535	8498.4375
1712.47284	8504.8375
1715.71819	8504.0375
1718.96139	8512.7375
1722.20246	8524.4375
1725.44139	8459.4375
1728.67818	8372.7375
1731.91284	8264.8375
1735.14537	8153.6375
1738.37576	8059.8375
1741.60403	8019.3375
1744.83017	7968.6375
1748.05418	7923.5375
1751.27607	7894.3375
1754.49584	7872.1375
1757.71349	7856.9375
1760.92903	7854.1375
1764.14244	7827.7375
1767.35375	7818.5375
1770.56294	7786.9375
1773.77002	7718.7375
1776.97499	7699.3375
1780.17785	7649.4375
1783.37861	7617.3375
1786.57727	7607.9375
1789.77382	7580.9375
1792.96828	7552.1375
1796.16064	7539.7375
1799.3509	7550.7375
1802.53907	7500.0375
1805.72514	7478.9375
1808.90913	7454.8375
1812.09102	7405.9375
1815.27083	7387.8375
1818.44856	7379.4375
1821.6242	7356.7375
1824.79776	7346.8375
1827.96924	7331.3375
1831.13864	7316.9375
1834.30597	7312.2375
1837.47122	7294.7375
1840.6344	7290.7375
1843.7955	7301.7375
1846.95454	7296.5375
1850.11151	7282.3375
1853.26642	7263.7375
1856.41926	7301.2375
1859.57004	7296.8375
1862.71876	7293.6375
1865.86542	7299.9375
1869.01003	7289.5375
1872.15258	7308.2375
1875.29308	7309.5375
1878.43152	7328.8375
1881.56792	7341.4375
1884.70227	7372.9375
1887.83457	7364.0375
1890.96482	7373.5375
1894.09304	7386.6375
1897.21921	7389.3375
1900.34335	7392.1375
1903.46544	7393.6375
1906.58551	7391.7375
1909.70353	7400.7375
1912.81953	7396.6375
1915.93349	7422.8375
1919.04543	7400.4375
1922.15534	7393.3375
1925.26322	7377.3375
1928.36908	7323.2375
1931.47292	7290.6375
1934.57473	7205.8375
1937.67453	7179.1375
1940.77232	7108.3375
1943.86808	7042.8375
1946.96184	6988.8375
1950.05358	6950.4375
1953.14331	6916.9375
1956.23103	6873.0375
1959.31675	6836.4375
1962.40046	6824.3375
1965.48217	6792.1375
1968.56188	6798.9375
1971.63959	6771.8375
1974.7153	6730.9375
1977.78901	6727.2375
1980.86073	6706.2375
1983.93046	6645.5375
1986.99819	6639.5375
1990.06394	6605.2375
1993.1277	6576.9375
1996.18947	6546.6375
1999.24925	6510.5375
2002.30706	6493.6375
2005.36288	6478.2375
2008.41672	6441.0375
2011.46859	6419.4375
2014.51848	6407.2375
2017.56639	6384.7375
2020.61233	6353.8375
2023.6563	6330.0375
2026.6983	6327.7375
2029.73833	6305.7375
2032.7764	6294.4375
2035.8125	6261.5375
2038.84664	6233.2375
2041.87881	6237.0375
2044.90903	6222.8375
2047.93729	6208.7375
2050.96359	6208.0375
2053.98794	6177.4375
2057.01034	6179.8375
2060.03078	6198.7375
2063.04927	6169.3375
2066.06582	6168.5375
2069.08042	6159.3375
2072.09307	6134.3375
2075.10378	6123.7375
2078.11255	6115.3375
2081.11938	6090.0375
2084.12426	6110.4375
2087.12722	6095.8375
2090.12824	6076.4375
2093.12732	6099.1375
2096.12447	6089.3375
2099.11969	6087.9375
2102.11299	6107.1375
2105.10435	6071.8375
2108.09379	6078.9375
2111.08131	6088.2375
2114.0669	6085.7375
2117.05057	6099.6375
2120.03233	6093.7375
2123.01216	6104.9375
2125.99008	6086.3375
2128.96609	6104.9375
2131.94018	6118.3375
2134.91236	6116.9375
2137.88263	6107.1375
2140.851	6100.9375
2143.81746	6104.7375
2146.78201	6086.1375
2149.74466	6088.6375
2152.7054	6064.6375
2155.66425	6048.3375
2158.6212	6057.2375
2161.57625	6026.1375
2164.52941	6037.9375
2167.48067	6029.0375
2170.43004	6037.1375
2173.37752	6024.0375
2176.32311	6017.0375
2179.26681	6006.5375
2182.20863	6021.7375
2185.14856	6006.0375
2188.08661	6015.2375
2191.02278	6015.6375
2193.95707	6007.6375
2196.88948	5975.0375
2199.82001	5979.1375
2202.74867	5964.8375
2205.67545	5963.9375
2208.60037	5943.6375
2211.52341	5946.6375
2214.44458	5949.2375
2217.36388	5918.3375
2220.28132	5903.4375
2223.1969	5876.9375
2226.11061	5865.7375
2229.02246	5834.9375
2231.93245	5830.7375
2234.84058	5817.2375
2237.74686	5798.2375
2240.65128	5803.3375
2243.55385	5796.4375
2246.45456	5796.5375
2249.35343	5792.9375
2252.25044	5779.1375
2255.14561	5769.6375
2258.03893	5787.3375
2260.93041	5797.1375
2263.82004	5785.2375
2266.70783	5779.4375
2269.59378	5760.8375
2272.4779	5721.8375
2275.36017	5682.1375
2278.24061	5714.6375
2281.11922	5691.8375
2283.996	5657.7375
2286.87094	5662.6375
2289.74405	5639.0375
2292.61534	5624.6375
2295.4848	5605.4375
2298.35243	5605.8375
2301.21824	5566.2375
2304.08223	5583.1375
2306.94439	5594.0375
2309.80474	5589.8375
2312.66327	5592.1375
2315.51999	5582.3375
2318.37489	5590.8375
2321.22797	5575.0375
2324.07925	5558.1375
2326.92871	5556.0375
2329.77637	5548.7375
2332.62222	5532.2375
2335.46626	5536.7375
2338.3085	5527.4375
2341.14893	5540.6375
2343.98756	5553.8375
2346.8244	5565.0375
2349.65943	5569.3375
2352.49267	5567.7375
2355.32411	5587.6375
2358.15376	5596.5375
2360.98161	5616.4375
2363.80768	5614.6375
2366.63195	5664.3375
2369.45444	5648.2375
2372.27514	5660.4375
2375.09405	5632.1375
2377.91118	5613.4375
2380.72652	5576.7375
2383.54009	5523.3375
2386.35187	5520.5375
2389.16188	5468.8375
2391.97011	5443.1375
2394.77657	5429.8375
2397.58125	5399.5375
2400.38416	5405.0375
2403.18529	5382.2375
2405.98466	5354.7375
2408.78226	5340.3375
2411.57809	5333.5375
2414.37216	5322.1375
2417.16446	5327.5375
2419.955	5312.8375
2422.74378	5307.0375
2425.5308	5314.3375
2428.31606	5298.6375
2431.09956	5322.4375
2433.88131	5318.1375
2436.6613	5317.1375
2439.43954	5314.0375
2442.21603	5313.0375
2444.99077	5331.9375
2447.76377	5337.1375
2450.53501	5331.5375
2453.30451	5330.1375
2456.07226	5333.8375
2458.83827	5332.3375
2461.60254	5332.6375
2464.36507	5325.2375
2467.12586	5307.3375
2469.88492	5310.6375
2472.64224	5333.4375
2475.39782	5354.8375
2478.15167	5362.4375
2480.90379	5373.8375
2483.65417	5375.0375
2486.40283	5397.6375
2489.14976	5430.2375
2491.89497	5454.7375
2494.63845	5443.6375
2497.3802	5449.7375
2500.12024	5437.8375
2502.85855	5402.7375
2505.59514	5386.0375
2508.33002	5364.2375
2511.06318	5330.4375
2513.79462	5299.0375
2516.52435	5275.3375
2519.25237	5247.0375
2521.97867	5232.7375
2524.70327	5219.6375
2527.42616	5205.5375
2530.14734	5196.7375
2532.86681	5180.7375
2535.58458	5182.4375
2538.30065	5174.9375
2541.01501	5191.6375
2543.72768	5197.2375
2546.43864	5189.1375
2549.14791	5176.3375
2551.85548	5182.1375
2554.56136	5193.2375
2557.26554	5180.5375
2559.96803	5181.2375
2562.66883	5165.9375
2565.36794	5139.7375
2568.06536	5145.5375
2570.7611	5130.7375
2573.45514	5125.1375
2576.14751	5126.5375
2578.83819	5106.7375
2581.52719	5104.5375
2584.21451	5106.3375
2586.90015	5085.7375
2589.58411	5091.3375
2592.2664	5081.9375
2594.94701	5077.5375
2597.62594	5069.7375
2600.30321	5075.5375
2602.9788	5073.8375
2605.65273	5060.6375
2608.32498	5080.7375
2610.99557	5073.6375
2613.66449	5087.8375
2616.33175	5068.5375
2618.99734	5078.3375
2621.66128	5063.1375
2624.32355	5043.6375
2626.98416	5041.8375
2629.64311	5052.7375
2632.30041	5050.8375
2634.95605	5029.9375
2637.61004	5022.2375
2640.26238	5025.2375
2642.91306	4991.9375
2645.56209	4983.2375
2648.20948	4984.4375
2650.85521	4989.2375
2653.4993	4976.6375
2656.14175	4979.9375
2658.78255	4982.0375
2661.42171	5009.0375
2664.05923	5005.4375
2666.6951	4994.5375
2669.32934	5015.3375
2671.96194	5053.2375
2674.59291	5057.2375
2677.22224	5031.9375
2679.84993	5049.2375
2682.476	5045.1375
2685.10043	5058.4375
2687.72324	5029.4375
2690.34441	5025.4375
2692.96396	5028.9375
2695.58188	5033.1375
2698.19818	5024.1375
2700.81285	5036.1375
2703.4259	5039.2375
2706.03733	5066.0375
2708.64714	5061.1375
2711.25533	5053.2375
2713.86191	5048.9375
2716.46687	5070.2375
2719.07021	5050.4375
2721.67194	5078.0375
2724.27206	5051.6375
2726.87057	5076.8375
2729.46747	5074.7375
2732.06276	5076.3375
2734.65644	5051.0375
2737.24852	5040.0375
2739.83899	5056.0375
2742.42786	5016.2375
2745.01513	5002.3375
2747.60079	5010.6375
2750.18486	4993.5375
2752.76733	4985.4375
2755.3482	4973.0375
2757.92747	4967.7375
2760.50515	4958.4375
2763.08123	4947.7375
2765.65573	4941.3375
2768.22863	4948.0375
2770.79994	4930.6375
2773.36967	4943.7375
2775.9378	4941.6375
2778.50435	4946.4375
2781.06932	4946.4375
2783.6327	4934.5375
2786.1945	4948.1375
2788.75471	4956.1375
2791.31335	4966.3375
2793.87041	4958.2375
2796.42589	4939.5375
2798.97979	4952.1375
2801.53212	4944.6375
2804.08288	4952.5375
2806.63206	4940.8375
2809.17967	4950.7375
2811.72571	4973.1375
2814.27018	4963.1375
2816.81308	4974.1375
2819.35442	4983.9375
2821.89419	4993.7375
2824.43239	5025.3375
2826.96904	5031.5375
2829.50412	5029.6375
2832.03763	5032.1375
2834.56959	5058.7375
2837.1	5056.7375
2839.62884	5081.6375
2842.15613	5131.7375
2844.68186	5196.7375
2847.20604	5263.5375
2849.72867	5318.3375
2852.24974	5346.7375
2854.76927	5362.6375
2857.28724	5328.8375
2859.80367	5334.1375
2862.31855	5302.6375
2864.83189	5301.1375
2867.34368	5276.4375
2869.85393	5270.1375
2872.36264	5261.4375
2874.8698	5270.4375
2877.37543	5265.2375
2879.87952	5258.3375
2882.38207	5245.0375
2884.88308	5230.8375
2887.38256	5241.9375
2889.88051	5220.9375
2892.37692	5231.5375
2894.8718	5227.3375
2897.36515	5230.6375
2899.85698	5214.8375
2902.34727	5250.1375
2904.83604	5252.2375
2907.32328	5255.9375
2909.809	5262.7375
2912.29319	5231.5375
2914.77587	5246.2375
2917.25702	5236.3375
2919.73665	5232.4375
2922.21476	5215.6375
2924.69136	5206.7375
2927.16644	5217.3375
2929.64	5191.9375
2932.11205	5152.0375
2934.58258	5137.8375
2937.05161	5118.3375
2939.51912	5086.9375
2941.98513	5037.0375
2944.44962	5005.4375
2946.91261	4939.5375
2949.37409	4916.7375
2951.83407	4896.0375
2954.29254	4855.5375
2956.74951	4841.4375
2959.20498	4836.3375
2961.65895	4827.3375
2964.11142	4786.2375
2966.56239	4784.8375
2969.01186	4767.8375
2971.45984	4737.0375
2973.90632	4736.7375
2976.35131	4709.6375
2978.7948	4707.4375
2981.23681	4680.7375
2983.67732	4686.2375
2986.11635	4645.6375
2988.55388	4628.3375
2990.98993	4613.4375
2993.4245	4595.5375
2995.85758	4587.0375
2998.28917	4558.1375
3000.71928	4564.0375
3003.14791	4550.7375
3005.57506	4559.2375
3008.00073	4549.2375
3010.42493	4534.4375
3012.84764	4528.4375
3015.26888	4520.4375
3017.68865	4519.9375
3020.10694	4503.7375
3022.52376	4487.6375
3024.9391	4503.3375
3027.35298	4483.6375
3029.76539	4472.6375
3032.17632	4462.0375
3034.5858	4441.9375
3036.9938	4444.1375
3039.40034	4425.1375
3041.80542	4423.0375
3044.20903	4407.8375
3046.61118	4419.2375
3049.01187	4388.4375
3051.4111	4398.0375
3053.80888	4385.1375
3056.20519	4371.2375
3058.60005	4373.7375
3060.99345	4363.0375
3063.3854	4351.7375
3065.7759	4337.8375
3068.16494	4319.4375
3070.55254	4316.7375
3072.93868	4295.0375
3075.32338	4284.0375
3077.70662	4265.9375
3080.08842	4248.9375
3082.46878	4222.4375
3084.84769	4219.9375
3087.22515	4215.4375
3089.60118	4209.9375
3091.97576	4200.0375
3094.3489	4189.3375
3096.72061	4196.1375
3099.09087	4181.7375
3101.4597	4179.6375
3103.82709	4186.4375
3106.19305	4175.4375
3108.55757	4152.3375
3110.92066	4143.5375
3113.28232	4144.0375
3115.64255	4131.6375
3118.00134	4123.4375
3120.35871	4140.2375
3122.71466	4117.6375
3125.06917	4126.8375
3127.42226	4102.1375
3129.77393	4097.8375
3132.12417	4087.0375
3134.47299	4112.3375
3136.82039	4126.6375
3139.16636	4102.9375
3141.51092	4107.7375
3143.85406	4114.9375
3146.19579	4113.4375
3148.53609	4130.6375
3150.87499	4123.9375
3153.21246	4125.9375
3155.54853	4115.2375
3157.88318	4120.4375
3160.21642	4140.1375
3162.54826	4149.5375
3164.87868	4151.2375
3167.2077	4138.9375
3169.5353	4168.2375
3171.86151	4144.0375
3174.18631	4136.4375
3176.5097	4130.8375
3178.83169	4139.7375
3181.15228	4111.5375
3183.47147	4126.8375
3185.78926	4135.8375
3188.10565	4111.4375
3190.42065	4129.3375
3192.73424	4132.0375
3195.04645	4134.3375
3197.35725	4133.9375
3199.66667	4123.2375
3201.97469	4136.1375
3204.28132	4133.9375
3206.58656	4160.6375
3208.8904	4152.5375
3211.19287	4169.8375
3213.49394	4180.9375
3215.79363	4160.7375
3218.09193	4166.9375
3220.38884	4172.1375
3222.68438	4199.2375
3224.97853	4184.7375
3227.2713	4170.6375
3229.56269	4167.0375
3231.8527	4168.0375
3234.14133	4146.6375
3236.42858	4150.3375
3238.71446	4147.3375
3240.99896	4123.9375
3243.28209	4135.3375
3245.56384	4125.1375
3247.84423	4124.2375
3250.12324	4124.9375
3252.40088	4098.8375
3254.67715	4099.1375
3256.95205	4110.7375
3259.22558	4099.7375
3261.49775	4089.3375
3263.76855	4097.0375
3266.03799	4067.5375
3268.30606	4060.7375
3270.57277	4066.5375
3272.83812	4065.8375
3275.10211	4046.6375
3277.36474	4037.8375
3279.62601	4038.4375
3281.88593	4033.0375
3284.14448	4043.7375
3286.40168	4029.6375
3288.65753	4024.7375
3290.91202	4024.5375
3293.16516	4023.6375
3295.41695	4016.4375
3297.66738	3992.8375
3299.91647	3961.9375
3302.16421	3942.4375
3304.4106	3928.8375
3306.65564	3891.3375
3308.89933	3863.5375
3311.14169	3823.3375
3313.38269	3804.5375
3315.62236	3781.8375
3317.86068	3745.2375
3320.09766	3697.4375
3322.3333	3679.1375
3324.5676	3663.6375
3326.80056	3593.7375
3329.03219	3589.7375
3331.26248	2.0375
3333.49143	-0.8625
3335.71905	-1.1625
