Data from AgNPs_FTO_APTES_UA_5uM_CRN_1uM_R6G_10uM_NaF_0.1M_Addition_RamanShift__26__10-47-36-599.txt Node

Date: Mon Feb 07 10:47:36 GMT 2022
User: TCL
Spectrometer: QEP01345
Trigger mode: 4
Integration Time (sec): 7.000000E0
Scans to average: 10
Electric dark correction enabled: true
Nonlinearity correction enabled: false
Boxcar width: 0
XAxis mode: Raman Shifts
Number of Pixels in Spectrum: 1044
>>>>>Begin Spectral Data<<<<<
46.04893	0.3375
50.45542	-0.6625
54.85868	-0.6625
59.25871	-0.2625
63.6555	84.5375
68.04907	90.0375
72.43941	91.0375
76.82654	97.6375
81.21044	98.6375
85.59113	107.4375
89.96862	106.7375
94.34289	109.4375
98.71396	113.4375
103.08183	114.9375
107.4465	118.8375
111.80798	124.0375
116.16626	128.6375
120.52136	132.2375
124.87327	139.4375
129.222	145.9375
133.56755	158.3375
137.90993	172.0375
142.24913	187.0375
146.58517	214.1375
150.91804	245.9375
155.24774	297.2375
159.57429	376.0375
163.89768	483.6375
168.21792	651.1375
172.53501	885.7375
176.84895	1232.8375
181.15975	1735.6375
185.46741	2433.1375
189.77193	3353.8375
194.07331	4489.3375
198.37157	5799.7375
202.6667	7115.6375
206.9587	8505.2375
211.24758	9879.2375
215.53334	11291.4375
219.81599	12834.3375
224.09553	14615.6375
228.37195	16571.0375
232.64527	18702.3375
236.91549	20845.1375
241.18261	22847.6375
245.44663	24496.4375
249.70755	25967.3375
253.96539	27145.1375
258.22014	28231.2375
262.4718	29155.9375
266.72039	29924.2375
270.96589	30393.3375
275.20832	30474.2375
279.44768	30385.1375
283.68397	30236.9375
287.91719	30139.7375
292.14735	30205.2375
296.37445	30558.5375
300.59849	31217.7375
304.81948	32136.9375
309.03742	32751.4375
313.25231	32526.4375
317.46415	31140.8375
321.67296	28911.2375
325.87872	27048.7375
330.08145	26131.0375
334.28114	25994.6375
338.47781	26367.1375
342.67145	26967.5375
346.86207	27926.0375
351.04966	29343.5375
355.23424	30979.0375
359.4158	32215.5375
363.59435	32855.8375
367.76989	32939.3375
371.94243	32760.5375
376.11196	32545.1375
380.27849	32330.2375
384.44203	31993.2375
388.60257	31726.3375
392.76012	31711.3375
396.91468	32137.7375
401.06626	33025.3375
405.21485	33766.3375
409.36047	33423.2375
413.50311	32042.9375
417.64277	30710.9375
421.77947	30077.2375
425.9132	29858.4375
430.04396	29916.5375
434.17176	30027.9375
438.2966	30317.0375
442.41849	30911.6375
446.53742	31807.4375
450.6534	32864.6375
454.76644	33610.2375
458.87653	33799.1375
462.98368	33563.7375
467.08789	33086.2375
471.18916	32450.7375
475.2875	31780.9375
479.38291	31313.8375
483.4754	30959.4375
487.56496	30621.7375
491.6516	30235.6375
495.73531	29946.6375
499.81612	29880.8375
503.89401	30101.1375
507.96899	30255.9375
512.04106	30341.9375
516.11023	30441.4375
520.1765	30395.5375
524.23987	30120.2375
528.30034	29546.2375
532.35792	28954.4375
536.41261	28285.4375
540.46441	27677.8375
544.51333	27497.3375
548.55936	27903.5375
552.60252	28788.0375
556.64279	29775.1375
560.6802	30278.1375
564.71473	30823.6375
568.7464	32137.5375
572.7752	33343.5375
576.80114	33185.9375
580.82422	32743.9375
584.84444	32627.6375
588.86181	32486.6375
592.87633	32596.4375
596.888	32972.6375
600.89682	33777.0375
604.9028	36689.4375
608.90594	44639.9375
612.90624	54992.8375
616.90371	52707.5375
620.89834	38035.8375
624.89015	31002.9375
628.87913	29870.9375
632.86528	30025.5375
636.84862	30120.8375
640.82913	29384.8375
644.80683	27992.1375
648.78172	26937.3375
652.75379	26858.0375
656.72306	27803.6375
660.68952	29194.1375
664.65319	29140.0375
668.61405	28001.7375
672.57211	27329.4375
676.52738	27209.7375
680.47986	27201.0375
684.42955	26935.2375
688.37646	26783.1375
692.32058	26948.4375
696.26192	27270.3375
700.20048	27723.5375
704.13626	28076.4375
708.06928	28145.4375
711.99952	27853.8375
715.927	27642.7375
719.85171	27624.4375
723.77365	27480.7375
727.69284	27052.9375
731.60928	26688.5375
735.52295	26582.2375
739.43388	26753.3375
743.34206	26921.9375
747.24749	27170.3375
751.15017	27503.0375
755.05012	28219.8375
758.94733	29654.4375
762.8418	32652.4375
766.73354	37786.0375
770.62254	43040.6375
774.50882	44925.9375
778.39237	42355.7375
782.27321	37064.6375
786.15132	32064.9375
790.02671	29064.1375
793.89938	27707.8375
797.76935	27143.3375
801.6366	26903.9375
805.50115	26728.4375
809.36299	26453.8375
813.22213	26287.6375
817.07857	26256.4375
820.93231	26246.4375
824.78336	26232.0375
828.63172	26353.3375
832.47738	26441.6375
836.32036	26469.6375
840.16066	26395.5375
843.99827	26409.0375
847.8332	26327.6375
851.66546	26254.7375
855.49504	26143.1375
859.32195	26042.2375
863.1462	25871.2375
866.96777	25699.3375
870.78668	25646.7375
874.60293	25620.5375
878.41652	25643.1375
882.22745	25803.5375
886.03573	25966.7375
889.84136	25927.6375
893.64433	25721.7375
897.44466	25658.6375
901.24235	25623.9375
905.0374	25566.3375
908.8298	25485.9375
912.61957	25505.3375
916.40671	25765.2375
920.19121	26274.5375
923.97308	26821.1375
927.75233	27169.8375
931.52895	27264.9375
935.30295	26834.4375
939.07433	25920.9375
942.84309	25185.3375
946.60924	24799.8375
950.37278	24607.6375
954.13371	24405.4375
957.89203	24286.7375
961.64774	24187.5375
965.40086	24066.8375
969.15137	23999.5375
972.89929	23930.8375
976.64461	23921.3375
980.38733	23977.6375
984.12747	24116.1375
987.86502	24367.3375
991.59999	24697.1375
995.33237	25247.3375
999.06217	26202.5375
1002.78939	27369.0375
1006.51404	28323.9375
1010.23611	28971.7375
1013.95561	29408.3375
1017.67255	29355.3375
1021.38692	28854.4375
1025.09872	28455.1375
1028.80796	28670.0375
1032.51465	29529.2375
1036.21877	30356.7375
1039.92035	30488.9375
1043.61937	29930.6375
1047.31584	29040.2375
1051.00976	28215.4375
1054.70114	27715.1375
1058.38998	27636.2375
1062.07627	27766.7375
1065.76003	28020.7375
1069.44126	28347.1375
1073.11995	28783.2375
1076.79611	29165.1375
1080.46974	29451.1375
1084.14085	30020.1375
1087.80943	30742.1375
1091.47549	31156.9375
1095.13903	30868.5375
1098.80005	29949.7375
1102.45857	28849.1375
1106.11456	28142.0375
1109.76805	27945.8375
1113.41903	28280.5375
1117.06751	28953.8375
1120.71348	29885.7375
1124.35696	30904.0375
1127.99793	31910.5375
1131.63641	32035.4375
1135.2724	31085.9375
1138.90589	29996.0375
1142.5369	29247.9375
1146.16542	28833.6375
1149.79145	28689.9375
1153.415	28805.1375
1157.03607	29253.1375
1160.65467	30022.4375
1164.27079	31324.0375
1167.88443	33308.6375
1171.49561	36318.2375
1175.10432	40879.1375
1178.71056	46700.2375
1182.31434	51405.6375
1185.91565	53445.4375
1189.51451	53020.9375
1193.11091	50354.1375
1196.70485	46646.2375
1200.29634	43374.0375
1203.88538	40795.3375
1207.47197	38378.7375
1211.05612	36431.4375
1214.63782	35320.0375
1218.21708	35025.3375
1221.79391	35205.5375
1225.36829	35499.9375
1228.94024	35563.7375
1232.50976	35279.7375
1236.07685	34976.6375
1239.6415	34716.2375
1243.20374	34568.7375
1246.76355	34569.5375
1250.32093	35056.8375
1253.8759	36006.4375
1257.42845	37438.4375
1260.97859	38831.9375
1264.52631	40084.2375
1268.07163	41352.5375
1271.61453	42779.0375
1275.15503	44163.9375
1278.69312	45432.2375
1282.22882	46499.1375
1285.76211	47728.7375
1289.29301	49218.8375
1292.82151	50859.1375
1296.34761	52899.3375
1299.87133	55771.6375
1303.39266	60065.6375
1306.9116	66170.4375
1310.42815	73093.0375
1313.94233	77931.5375
1317.45412	78104.9375
1320.96354	74962.7375
1324.47058	70989.2375
1327.97525	67413.9375
1331.47754	64929.4375
1334.97747	63611.6375
1338.47502	63227.9375
1341.97022	63433.7375
1345.46305	63603.3375
1348.95352	63814.5375
1352.44163	64786.3375
1355.92738	67781.6375
1359.41078	74276.1375
1362.89183	81705.5375
1366.37053	80926.0375
1369.84688	71269.1375
1373.32088	60474.0375
1376.79254	53345.4375
1380.26186	49824.6375
1383.72883	48262.0375
1387.19347	47229.6375
1390.65578	46169.9375
1394.11575	45597.7375
1397.57339	45851.9375
1401.0287	46810.1375
1404.48168	47905.3375
1407.93234	48769.4375
1411.38068	48925.0375
1414.82669	48083.7375
1418.27039	46197.0375
1421.71177	44023.1375
1425.15083	42199.5375
1428.58758	41146.0375
1432.02203	41022.3375
1435.45416	41402.6375
1438.88399	41875.4375
1442.31151	42233.0375
1445.73673	42806.7375
1449.15965	43465.0375
1452.58027	43879.2375
1455.9986	43950.1375
1459.41463	44052.7375
1462.82837	44664.7375
1466.23982	45506.0375
1469.64898	46399.9375
1473.05586	46948.5375
1476.46045	47184.1375
1479.86276	47505.4375
1483.26279	47990.1375
1486.66054	48654.6375
1490.05602	49656.3375
1493.44922	51081.5375
1496.84016	53010.2375
1500.22882	56011.4375
1503.61521	60093.0375
1506.99934	65282.4375
1510.38121	70675.5375
1513.76081	73864.7375
1517.13816	72190.8375
1520.51324	66343.1375
1523.88607	59731.7375
1527.25665	54800.8375
1530.62498	51722.0375
1533.99105	49768.0375
1537.35488	48552.6375
1540.71647	47665.7375
1544.07581	46936.2375
1547.4329	46238.7375
1550.78776	45522.6375
1554.14038	45217.7375
1557.49077	45262.3375
1560.83892	45856.0375
1564.18484	46560.0375
1567.52853	47187.5375
1570.86999	47530.2375
1574.20922	47836.8375
1577.54624	47811.0375
1580.88103	46569.5375
1584.2136	44997.0375
1587.54395	44983.2375
1590.87208	46974.9375
1594.19801	50474.6375
1597.52172	54538.5375
1600.84321	56177.4375
1604.16251	53974.7375
1607.47959	49412.7375
1610.79447	44507.0375
1614.10715	40091.5375
1617.41763	36628.7375
1620.7259	34359.3375
1624.03199	33309.5375
1627.33587	33346.8375
1630.63757	34420.6375
1633.93707	36697.9375
1637.23439	40190.5375
1640.52951	44889.3375
1643.82246	50395.8375
1647.11321	55811.2375
1650.40179	59001.3375
1653.68819	56877.8375
1656.97241	49675.9375
1660.25446	41313.0375
1663.53433	34816.2375
1666.81203	30798.0375
1670.08756	28401.5375
1673.36092	26917.8375
1676.63211	26008.6375
1679.90115	25381.7375
1683.16801	24900.0375
1686.43272	24558.1375
1689.69527	24349.3375
1692.95567	24160.9375
1696.2139	24050.8375
1699.46999	23976.0375
1702.72392	23880.0375
1705.97571	23803.5375
1709.22535	23786.2375
1712.47284	23719.0375
1715.71819	23733.0375
1718.96139	23727.2375
1722.20246	23641.8375
1725.44139	23604.1375
1728.67818	23404.5375
1731.91284	23241.7375
1735.14537	23093.8375
1738.37576	22967.1375
1741.60403	22873.4375
1744.83017	22780.6375
1748.05418	22678.4375
1751.27607	22634.5375
1754.49584	22572.4375
1757.71349	22541.5375
1760.92903	22534.9375
1764.14244	22513.1375
1767.35375	22555.1375
1770.56294	22476.0375
1773.77002	22388.7375
1776.97499	22372.4375
1780.17785	22317.7375
1783.37861	22307.5375
1786.57727	22267.4375
1789.77382	22231.5375
1792.96828	22221.6375
1796.16064	22177.8375
1799.3509	22164.8375
1802.53907	22099.4375
1805.72514	22031.8375
1808.90913	21921.6375
1812.09102	21940.5375
1815.27083	21903.0375
1818.44856	21853.6375
1821.6242	21807.7375
1824.79776	21789.0375
1827.96924	21746.6375
1831.13864	21764.9375
1834.30597	21765.2375
1837.47122	21764.0375
1840.6344	21740.6375
1843.7955	21745.1375
1846.95454	21800.1375
1850.11151	21786.3375
1853.26642	21758.7375
1856.41926	21797.4375
1859.57004	21856.5375
1862.71876	21854.4375
1865.86542	21853.1375
1869.01003	21853.7375
1872.15258	21828.8375
1875.29308	21896.3375
1878.43152	21926.5375
1881.56792	21939.1375
1884.70227	21969.0375
1887.83457	21997.2375
1890.96482	21987.0375
1894.09304	21983.4375
1897.21921	22027.5375
1900.34335	22027.7375
1903.46544	22034.8375
1906.58551	22069.5375
1909.70353	22061.9375
1912.81953	22020.6375
1915.93349	22072.8375
1919.04543	22046.0375
1922.15534	22054.5375
1925.26322	21989.0375
1928.36908	21867.4375
1931.47292	21784.0375
1934.57473	21651.7375
1937.67453	21535.4375
1940.77232	21383.5375
1943.86808	21279.6375
1946.96184	21153.0375
1950.05358	21065.0375
1953.14331	20969.1375
1956.23103	20894.4375
1959.31675	20818.0375
1962.40046	20727.6375
1965.48217	20696.6375
1968.56188	20672.1375
1971.63959	20571.3375
1974.7153	20494.7375
1977.78901	20468.0375
1980.86073	20391.0375
1983.93046	20297.5375
1986.99819	20239.1375
1990.06394	20176.8375
1993.1277	20116.6375
1996.18947	20021.2375
1999.24925	19988.3375
2002.30706	19879.4375
2005.36288	19811.4375
2008.41672	19799.9375
2011.46859	19764.0375
2014.51848	19680.6375
2017.56639	19638.3375
2020.61233	19581.9375
2023.6563	19520.9375
2026.6983	19478.2375
2029.73833	19486.2375
2032.7764	19416.2375
2035.8125	19405.5375
2038.84664	19327.1375
2041.87881	19354.8375
2044.90903	19317.3375
2047.93729	19248.2375
2050.96359	19228.9375
2053.98794	19230.3375
2057.01034	19196.9375
2060.03078	19201.2375
2063.04927	19184.2375
2066.06582	19168.4375
2069.08042	19125.2375
2072.09307	19091.7375
2075.10378	19070.8375
2078.11255	19090.1375
2081.11938	19083.4375
2084.12426	19027.8375
2087.12722	19008.2375
2090.12824	19013.5375
2093.12732	19010.1375
2096.12447	19026.5375
2099.11969	19001.7375
2102.11299	19014.2375
2105.10435	19007.9375
2108.09379	18967.9375
2111.08131	18980.3375
2114.0669	18994.0375
2117.05057	19035.1375
2120.03233	19037.9375
2123.01216	19087.4375
2125.99008	19086.4375
2128.96609	19119.2375
2131.94018	19112.0375
2134.91236	19110.5375
2137.88263	19138.1375
2140.851	19133.9375
2143.81746	19173.9375
2146.78201	19154.2375
2149.74466	19145.1375
2152.7054	19108.8375
2155.66425	19130.9375
2158.6212	19121.0375
2161.57625	19057.4375
2164.52941	19075.2375
2167.48067	19072.2375
2170.43004	19086.2375
2173.37752	19066.4375
2176.32311	19088.7375
2179.26681	19067.2375
2182.20863	19083.3375
2185.14856	19111.1375
2188.08661	19095.8375
2191.02278	19099.7375
2193.95707	19102.3375
2196.88948	19057.0375
2199.82001	19045.7375
2202.74867	19055.5375
2205.67545	19031.4375
2208.60037	19024.3375
2211.52341	19028.6375
2214.44458	19050.7375
2217.36388	18985.8375
2220.28132	18938.5375
2223.1969	18918.0375
2226.11061	18890.3375
2229.02246	18834.9375
2231.93245	18797.6375
2234.84058	18753.5375
2237.74686	18712.1375
2240.65128	18729.2375
2243.55385	18663.5375
2246.45456	18684.4375
2249.35343	18631.4375
2252.25044	18616.9375
2255.14561	18594.6375
2258.03893	18564.6375
2260.93041	18552.6375
2263.82004	18511.3375
2266.70783	18474.7375
2269.59378	18409.3375
2272.4779	18380.2375
2275.36017	18307.1375
2278.24061	18293.8375
2281.11922	18238.4375
2283.996	18269.1375
2286.87094	18236.0375
2289.74405	18195.3375
2292.61534	18149.6375
2295.4848	18135.3375
2298.35243	18134.1375
2301.21824	18190.8375
2304.08223	18156.2375
2306.94439	18205.8375
2309.80474	18199.4375
2312.66327	18237.4375
2315.51999	18222.9375
2318.37489	18193.9375
2321.22797	18197.5375
2324.07925	18222.9375
2326.92871	18178.3375
2329.77637	18136.5375
2332.62222	18129.9375
2335.46626	18150.8375
2338.3085	18146.8375
2341.14893	18193.9375
2343.98756	18234.9375
2346.8244	18248.6375
2349.65943	18262.4375
2352.49267	18255.4375
2355.32411	18283.0375
2358.15376	18291.3375
2360.98161	18250.3375
2363.80768	18252.0375
2366.63195	18238.9375
2369.45444	18253.3375
2372.27514	18199.2375
2375.09405	18151.5375
2377.91118	18088.2375
2380.72652	18024.2375
2383.54009	17963.0375
2386.35187	17910.3375
2389.16188	17858.1375
2391.97011	17811.6375
2394.77657	17805.1375
2397.58125	17765.9375
2400.38416	17704.2375
2403.18529	17718.7375
2405.98466	17657.0375
2408.78226	17570.9375
2411.57809	17584.0375
2414.37216	17540.8375
2417.16446	17536.1375
2419.955	17483.8375
2422.74378	17495.1375
2425.5308	17475.3375
2428.31606	17472.3375
2431.09956	17473.8375
2433.88131	17452.8375
2436.6613	17473.3375
2439.43954	17476.5375
2442.21603	17469.6375
2444.99077	17459.4375
2447.76377	17459.4375
2450.53501	17425.6375
2453.30451	17455.9375
2456.07226	17401.8375
2458.83827	17416.8375
2461.60254	17390.1375
2464.36507	17400.0375
2467.12586	17382.0375
2469.88492	17407.5375
2472.64224	17444.3375
2475.39782	17456.3375
2478.15167	17480.9375
2480.90379	17507.4375
2483.65417	17549.9375
2486.40283	17561.0375
2489.14976	17601.3375
2491.89497	17593.4375
2494.63845	17633.6375
2497.3802	17630.4375
2500.12024	17616.0375
2502.85855	17599.3375
2505.59514	17577.4375
2508.33002	17535.3375
2511.06318	17512.9375
2513.79462	17443.1375
2516.52435	17397.1375
2519.25237	17386.9375
2521.97867	17333.5375
2524.70327	17353.8375
2527.42616	17324.9375
2530.14734	17314.5375
2532.86681	17321.3375
2535.58458	17303.0375
2538.30065	17319.5375
2541.01501	17285.2375
2543.72768	17299.7375
2546.43864	17272.4375
2549.14791	17264.9375
2551.85548	17253.0375
2554.56136	17260.6375
2557.26554	17229.8375
2559.96803	17187.1375
2562.66883	17187.8375
2565.36794	17166.8375
2568.06536	17155.2375
2570.7611	17116.0375
2573.45514	17135.7375
2576.14751	17119.6375
2578.83819	17083.4375
2581.52719	17118.8375
2584.21451	17094.0375
2586.90015	17111.4375
2589.58411	17103.1375
2592.2664	17096.9375
2594.94701	17077.5375
2597.62594	17098.0375
2600.30321	17040.7375
2602.9788	17091.8375
2605.65273	17085.4375
2608.32498	17103.0375
2610.99557	17150.3375
2613.66449	17125.0375
2616.33175	17097.0375
2618.99734	17107.2375
2621.66128	17075.8375
2624.32355	17124.2375
2626.98416	17105.9375
2629.64311	17117.1375
2632.30041	17121.4375
2634.95605	17121.9375
2637.61004	17083.7375
2640.26238	17042.1375
2642.91306	17006.3375
2645.56209	16970.5375
2648.20948	16953.1375
2650.85521	16957.4375
2653.4993	16943.2375
2656.14175	16924.0375
2658.78255	16957.9375
2661.42171	16950.1375
2664.05923	16990.0375
2666.6951	17011.3375
2669.32934	17038.8375
2671.96194	17051.8375
2674.59291	17098.4375
2677.22224	17063.4375
2679.84993	17087.0375
2682.476	17065.6375
2685.10043	17058.2375
2687.72324	17000.2375
2690.34441	16962.2375
2692.96396	16994.0375
2695.58188	16986.7375
2698.19818	16952.8375
2700.81285	16950.3375
2703.4259	16958.6375
2706.03733	17008.1375
2708.64714	16982.9375
2711.25533	16982.0375
2713.86191	16979.4375
2716.46687	16979.1375
2719.07021	17002.7375
2721.67194	17039.3375
2724.27206	17001.6375
2726.87057	17032.3375
2729.46747	17042.6375
2732.06276	17030.9375
2734.65644	17020.4375
2737.24852	17023.6375
2739.83899	16985.0375
2742.42786	16982.6375
2745.01513	16947.8375
2747.60079	16947.6375
2750.18486	16954.6375
2752.76733	16894.4375
2755.3482	16884.7375
2757.92747	16884.2375
2760.50515	16836.9375
2763.08123	16894.0375
2765.65573	16872.7375
2768.22863	16871.0375
2770.79994	16838.5375
2773.36967	16857.9375
2775.9378	16841.3375
2778.50435	16869.8375
2781.06932	16862.1375
2783.6327	16887.8375
2786.1945	16878.8375
2788.75471	16890.6375
2791.31335	16847.4375
2793.87041	16807.1375
2796.42589	16763.7375
2798.97979	16763.3375
2801.53212	16743.0375
2804.08288	16725.6375
2806.63206	16655.8375
2809.17967	16638.3375
2811.72571	16624.4375
2814.27018	16612.7375
2816.81308	16611.0375
2819.35442	16599.8375
2821.89419	16604.5375
2824.43239	16629.7375
2826.96904	16641.6375
2829.50412	16657.1375
2832.03763	16630.2375
2834.56959	16591.6375
2837.1	16574.7375
2839.62884	16591.8375
2842.15613	16612.7375
2844.68186	16684.5375
2847.20604	16732.2375
2849.72867	16748.3375
2852.24974	16744.4375
2854.76927	16729.6375
2857.28724	16746.2375
2859.80367	16695.5375
2862.31855	16695.1375
2864.83189	16648.4375
2867.34368	16656.3375
2869.85393	16641.7375
2872.36264	16609.1375
2874.8698	16628.1375
2877.37543	16607.3375
2879.87952	16615.4375
2882.38207	16583.1375
2884.88308	16595.6375
2887.38256	16594.6375
2889.88051	16581.5375
2892.37692	16614.4375
2894.8718	16609.3375
2897.36515	16627.9375
2899.85698	16624.6375
2902.34727	16679.0375
2904.83604	16681.2375
2907.32328	16714.4375
2909.809	16715.8375
2912.29319	16708.9375
2914.77587	16723.4375
2917.25702	16736.0375
2919.73665	16698.6375
2922.21476	16666.7375
2924.69136	16643.0375
2927.16644	16618.7375
2929.64	16566.8375
2932.11205	16524.3375
2934.58258	16475.8375
2937.05161	16455.0375
2939.51912	16466.4375
2941.98513	16442.2375
2944.44962	16396.4375
2946.91261	16293.0375
2949.37409	16307.7375
2951.83407	16261.6375
2954.29254	16243.0375
2956.74951	16232.0375
2959.20498	16226.7375
2961.65895	16204.4375
2964.11142	16159.0375
2966.56239	16103.4375
2969.01186	16125.1375
2971.45984	16068.2375
2973.90632	16053.0375
2976.35131	16019.2375
2978.7948	15968.9375
2981.23681	15943.8375
2983.67732	15918.8375
2986.11635	15897.1375
2988.55388	15866.9375
2990.98993	15815.0375
2993.4245	15743.6375
2995.85758	15717.1375
2998.28917	15657.9375
3000.71928	15661.8375
3003.14791	15621.0375
3005.57506	15554.0375
3008.00073	15546.9375
3010.42493	15525.4375
3012.84764	15529.6375
3015.26888	15516.8375
3017.68865	15485.6375
3020.10694	15446.7375
3022.52376	15378.4375
3024.9391	15381.7375
3027.35298	15371.0375
3029.76539	15361.7375
3032.17632	15320.0375
3034.5858	15258.5375
3036.9938	15278.7375
3039.40034	15252.8375
3041.80542	15237.7375
3044.20903	15209.6375
3046.61118	15194.2375
3049.01187	15171.3375
3051.4111	15165.9375
3053.80888	15099.4375
3056.20519	15071.0375
3058.60005	15045.7375
3060.99345	14991.1375
3063.3854	14963.8375
3065.7759	14887.8375
3068.16494	14858.4375
3070.55254	14819.7375
3072.93868	14789.1375
3075.32338	14752.7375
3077.70662	14691.4375
3080.08842	14634.3375
3082.46878	14616.5375
3084.84769	14598.0375
3087.22515	14610.0375
3089.60118	14570.4375
3091.97576	14575.0375
3094.3489	14579.1375
3096.72061	14560.4375
3099.09087	14534.5375
3101.4597	14530.4375
3103.82709	14529.3375
3106.19305	14519.6375
3108.55757	14469.4375
3110.92066	14466.6375
3113.28232	14447.9375
3115.64255	14376.7375
3118.00134	14325.8375
3120.35871	14322.5375
3122.71466	14307.7375
3125.06917	14269.0375
3127.42226	14218.3375
3129.77393	14233.0375
3132.12417	14180.1375
3134.47299	14190.2375
3136.82039	14180.8375
3139.16636	14200.0375
3141.51092	14206.3375
3143.85406	14187.4375
3146.19579	14171.3375
3148.53609	14128.5375
3150.87499	14185.7375
3153.21246	14124.6375
3155.54853	14187.3375
3157.88318	14165.7375
3160.21642	14202.2375
3162.54826	14161.7375
3164.87868	14188.2375
3167.2077	14181.7375
3169.5353	14175.1375
3171.86151	14148.1375
3174.18631	14124.1375
3176.5097	14136.4375
3178.83169	14120.4375
3181.15228	14090.5375
3183.47147	14030.5375
3185.78926	14035.9375
3188.10565	14023.9375
3190.42065	14034.2375
3192.73424	14009.1375
3195.04645	14034.3375
3197.35725	14011.0375
3199.66667	14010.5375
3201.97469	14037.3375
3204.28132	14019.8375
3206.58656	14018.3375
3208.8904	14029.0375
3211.19287	14043.8375
3213.49394	14046.2375
3215.79363	14045.5375
3218.09193	14041.8375
3220.38884	14039.7375
3222.68438	14082.1375
3224.97853	14027.3375
3227.2713	14057.2375
3229.56269	14013.1375
3231.8527	14012.4375
3234.14133	13981.7375
3236.42858	13926.8375
3238.71446	13948.6375
3240.99896	13911.2375
3243.28209	13904.1375
3245.56384	13914.7375
3247.84423	13876.1375
3250.12324	13865.2375
3252.40088	13825.0375
3254.67715	13818.6375
3256.95205	13808.2375
3259.22558	13823.0375
3261.49775	13767.8375
3263.76855	13764.1375
3266.03799	13745.2375
3268.30606	13720.5375
3270.57277	13701.7375
3272.83812	13674.6375
3275.10211	13640.6375
3277.36474	13628.3375
3279.62601	13604.3375
3281.88593	13584.8375
3284.14448	13598.4375
3286.40168	13605.6375
3288.65753	13586.5375
3290.91202	13575.0375
3293.16516	13551.6375
3295.41695	13502.6375
3297.66738	13417.9375
3299.91647	13382.0375
3302.16421	13305.7375
3304.4106	13240.6375
3306.65564	13111.8375
3308.89933	13057.8375
3311.14169	12942.9375
3313.38269	12847.3375
3315.62236	12800.8375
3317.86068	12679.5375
3320.09766	12566.5375
3322.3333	12472.6375
3324.5676	12408.9375
3326.80056	12219.9375
3329.03219	12179.2375
3331.26248	3.4375
3333.49143	-1.4625
3335.71905	-0.9625
