Data from AgNPs_FTO_APTES_UA_5uM_CRN_50uM_R6G_10uM_NaF_0.1M_Addition_RamanShift__34__14-22-16-847.txt Node

Date: Mon Feb 07 14:22:16 GMT 2022
User: TCL
Spectrometer: QEP01345
Trigger mode: 4
Integration Time (sec): 7.000000E0
Scans to average: 10
Electric dark correction enabled: true
Nonlinearity correction enabled: false
Boxcar width: 0
XAxis mode: Raman Shifts
Number of Pixels in Spectrum: 1044
>>>>>Begin Spectral Data<<<<<
46.04893	-1.4125
50.45542	-1.7125
54.85868	-1.2125
59.25871	0.5875
63.6555	71.8875
68.04907	77.9875
72.43941	82.9875
76.82654	93.9875
81.21044	93.7875
85.59113	90.0875
89.96862	96.0875
94.34289	90.7875
98.71396	95.0875
103.08183	100.5875
107.4465	104.1875
111.80798	106.3875
116.16626	105.8875
120.52136	113.7875
124.87327	117.0875
129.222	130.2875
133.56755	132.9875
137.90993	147.4875
142.24913	160.0875
146.58517	182.6875
150.91804	209.4875
155.24774	255.3875
159.57429	317.0875
163.89768	409.8875
168.21792	551.6875
172.53501	756.9875
176.84895	1039.4875
181.15975	1472.3875
185.46741	2075.5875
189.77193	2847.6875
194.07331	3820.8875
198.37157	4929.1875
202.6667	6082.0875
206.9587	7251.3875
211.24758	8395.5875
215.53334	9539.5875
219.81599	10760.5875
224.09553	12119.3875
228.37195	13572.0875
232.64527	15203.3875
236.91549	16862.2875
241.18261	18585.6875
245.44663	20186.6875
249.70755	21536.3875
253.96539	22791.3875
258.22014	23835.4875
262.4718	24718.4875
266.72039	25397.8875
270.96589	25800.2875
275.20832	25832.9875
279.44768	25638.7875
283.68397	25442.2875
287.91719	25194.2875
292.14735	25080.4875
296.37445	25081.5875
300.59849	25167.5875
304.81948	25386.1875
309.03742	25394.7875
313.25231	25181.3875
317.46415	24691.2875
321.67296	24067.8875
325.87872	23501.5875
330.08145	23271.5875
334.28114	23259.4875
338.47781	23404.1875
342.67145	23703.5875
346.86207	24018.2875
351.04966	24579.4875
355.23424	25058.6875
359.4158	25508.7875
363.59435	25848.2875
367.76989	26082.1875
371.94243	26206.7875
376.11196	26369.4875
380.27849	26482.1875
384.44203	26642.9875
388.60257	26785.7875
392.76012	27005.9875
396.91468	27357.2875
401.06626	27783.8875
405.21485	28116.1875
409.36047	28010.3875
413.50311	27620.5875
417.64277	27221.8875
421.77947	27132.8875
425.9132	27173.6875
430.04396	27337.6875
434.17176	27619.4875
438.2966	27964.1875
442.41849	28657.5875
446.53742	29612.3875
450.6534	30752.6875
454.76644	31505.3875
458.87653	31749.2875
462.98368	31428.8875
467.08789	30922.1875
471.18916	30430.7875
475.2875	30049.3875
479.38291	29825.6875
483.4754	29633.2875
487.56496	29251.2875
491.6516	28723.9875
495.73531	28270.8875
499.81612	27871.6875
503.89401	27875.3875
507.96899	27936.3875
512.04106	27810.5875
516.11023	27679.2875
520.1765	27533.7875
524.23987	27390.5875
528.30034	27258.9875
532.35792	27133.9875
536.41261	26820.2875
540.46441	26512.9875
544.51333	26380.4875
548.55936	26646.9875
552.60252	27150.5875
556.64279	27886.5875
560.6802	28436.8875
564.71473	28708.6875
568.7464	29291.8875
572.7752	30023.3875
576.80114	30459.7875
580.82422	30712.1875
584.84444	31300.2875
588.86181	32171.9875
592.87633	33323.8875
596.888	34041.9875
600.89682	33647.2875
604.9028	33871.4875
608.90594	35968.4875
612.90624	38498.2875
616.90371	36405.3875
620.89834	30710.4875
624.89015	28206.1875
628.87913	27949.4875
632.86528	28062.2875
636.84862	27853.1875
640.82913	27335.1875
644.80683	26592.8875
648.78172	26095.8875
652.75379	26023.3875
656.72306	26311.7875
660.68952	26735.0875
664.65319	26646.0875
668.61405	26227.8875
672.57211	26066.3875
676.52738	26069.4875
680.47986	26044.5875
684.42955	25911.3875
688.37646	25767.2875
692.32058	25964.1875
696.26192	26299.9875
700.20048	26606.3875
704.13626	26785.2875
708.06928	26693.8875
711.99952	26490.4875
715.927	26492.0875
719.85171	26618.1875
723.77365	26564.4875
727.69284	26267.9875
731.60928	26029.5875
735.52295	25921.7875
739.43388	25988.5875
743.34206	26068.6875
747.24749	26168.8875
751.15017	26404.0875
755.05012	26779.9875
758.94733	27525.5875
762.8418	28836.7875
766.73354	30844.1875
770.62254	32789.0875
774.50882	33336.5875
778.39237	32059.7875
782.27321	29747.7875
786.15132	27860.6875
790.02671	26753.6875
793.89938	26223.4875
797.76935	26040.3875
801.6366	25990.6875
805.50115	25955.7875
809.36299	25845.9875
813.22213	25715.8875
817.07857	25673.6875
820.93231	25603.3875
824.78336	25552.9875
828.63172	25555.3875
832.47738	25550.6875
836.32036	25607.1875
840.16066	25757.8875
843.99827	25914.9875
847.8332	25813.6875
851.66546	25630.7875
855.49504	25540.4875
859.32195	25551.4875
863.1462	25440.9875
866.96777	25328.6875
870.78668	25239.2875
874.60293	25204.2875
878.41652	25246.9875
882.22745	25309.1875
886.03573	25457.3875
889.84136	25448.1875
893.64433	25283.8875
897.44466	25142.3875
901.24235	25071.1875
905.0374	24997.7875
908.8298	25032.5875
912.61957	25119.3875
916.40671	25370.8875
920.19121	25747.9875
923.97308	26042.7875
927.75233	26183.7875
931.52895	26097.8875
935.30295	25793.2875
939.07433	25351.2875
942.84309	25018.3875
946.60924	24876.3875
950.37278	24787.0875
954.13371	24682.6875
957.89203	24557.0875
961.64774	24450.5875
965.40086	24458.3875
969.15137	24371.7875
972.89929	24315.9875
976.64461	24289.0875
980.38733	24328.1875
984.12747	24490.0875
987.86502	24701.8875
991.59999	25052.6875
995.33237	25572.8875
999.06217	26404.6875
1002.78939	27294.1875
1006.51404	27780.2875
1010.23611	27934.2875
1013.95561	28092.3875
1017.67255	28041.1875
1021.38692	27709.4875
1025.09872	27431.3875
1028.80796	27716.9875
1032.51465	28699.9875
1036.21877	29714.2875
1039.92035	29846.3875
1043.61937	29468.5875
1047.31584	28606.9875
1051.00976	27776.4875
1054.70114	27293.4875
1058.38998	27147.7875
1062.07627	27121.4875
1065.76003	27243.3875
1069.44126	27273.1875
1073.11995	27503.9875
1076.79611	27748.9875
1080.46974	28001.4875
1084.14085	28225.7875
1087.80943	28563.0875
1091.47549	28805.1875
1095.13903	28770.9875
1098.80005	28392.7875
1102.45857	27946.6875
1106.11456	27628.6875
1109.76805	27533.3875
1113.41903	27678.8875
1117.06751	27887.8875
1120.71348	28117.7875
1124.35696	28458.3875
1127.99793	28802.1875
1131.63641	28888.8875
1135.2724	28724.6875
1138.90589	28443.4875
1142.5369	28427.2875
1146.16542	28499.4875
1149.79145	28711.9875
1153.415	29050.2875
1157.03607	29518.8875
1160.65467	30332.7875
1164.27079	31565.4875
1167.88443	33215.4875
1171.49561	35214.4875
1175.10432	37788.3875
1178.71056	40924.6875
1182.31434	43772.7875
1185.91565	45051.8875
1189.51451	44573.9875
1193.11091	42982.3875
1196.70485	41157.8875
1200.29634	39629.6875
1203.88538	38674.3875
1207.47197	37966.2875
1211.05612	37274.3875
1214.63782	36608.8875
1218.21708	36018.3875
1221.79391	35672.7875
1225.36829	35423.2875
1228.94024	34913.5875
1232.50976	34065.8875
1236.07685	33402.9875
1239.6415	33099.6875
1243.20374	33122.1875
1246.76355	33497.0875
1250.32093	34047.5875
1253.8759	34810.1875
1257.42845	35694.7875
1260.97859	36570.9875
1264.52631	37459.1875
1268.07163	38452.5875
1271.61453	39592.0875
1275.15503	40805.7875
1278.69312	42127.0875
1282.22882	43248.5875
1285.76211	44541.2875
1289.29301	46033.6875
1292.82151	48044.4875
1296.34761	50717.4875
1299.87133	54022.5875
1303.39266	57556.2875
1306.9116	61292.5875
1310.42815	64233.1875
1313.94233	65801.1875
1317.45412	65368.4875
1320.96354	63700.7875
1324.47058	61816.5875
1327.97525	60122.8875
1331.47754	58725.6875
1334.97747	57925.8875
1338.47502	57218.3875
1341.97022	56288.2875
1345.46305	54989.2875
1348.95352	54244.8875
1352.44163	54416.7875
1355.92738	56183.0875
1359.41078	59278.5875
1362.89183	62003.5875
1366.37053	61148.2875
1369.84688	56139.8875
1373.32088	49925.6875
1376.79254	45698.1875
1380.26186	44366.2875
1383.72883	44524.1875
1387.19347	44723.2875
1390.65578	44411.3875
1394.11575	44419.6875
1397.57339	45079.5875
1401.0287	46210.4875
1404.48168	47032.9875
1407.93234	47247.8875
1411.38068	46282.1875
1414.82669	44703.9875
1418.27039	42682.3875
1421.71177	40589.7875
1425.15083	38938.5875
1428.58758	38081.3875
1432.02203	38311.3875
1435.45416	39278.3875
1438.88399	40558.3875
1442.31151	41560.8875
1445.73673	42314.6875
1449.15965	43048.4875
1452.58027	43391.7875
1455.9986	43277.8875
1459.41463	43288.9875
1462.82837	43851.9875
1466.23982	44658.6875
1469.64898	45479.9875
1473.05586	45934.4875
1476.46045	46110.4875
1479.86276	45968.7875
1483.26279	45544.8875
1486.66054	45190.9875
1490.05602	45084.8875
1493.44922	45136.6875
1496.84016	45175.9875
1500.22882	45566.0875
1503.61521	46377.0875
1506.99934	47659.1875
1510.38121	48984.9875
1513.76081	49465.5875
1517.13816	48729.7875
1520.51324	46990.6875
1523.88607	45548.3875
1527.25665	44779.7875
1530.62498	44653.9875
1533.99105	44639.8875
1537.35488	44416.2875
1540.71647	43792.1875
1544.07581	42914.2875
1547.4329	41904.4875
1550.78776	40986.0875
1554.14038	40355.6875
1557.49077	39946.6875
1560.83892	39648.3875
1564.18484	39660.3875
1567.52853	39774.1875
1570.86999	40143.2875
1574.20922	40869.6875
1577.54624	41529.0875
1580.88103	41859.4875
1584.2136	42339.9875
1587.54395	43745.2875
1590.87208	46227.4875
1594.19801	49249.6875
1597.52172	51946.1875
1600.84321	52662.1875
1604.16251	50245.7875
1607.47959	45812.8875
1610.79447	41222.9875
1614.10715	37346.3875
1617.41763	34582.3875
1620.7259	32988.1875
1624.03199	32333.2875
1627.33587	32507.7875
1630.63757	33595.3875
1633.93707	35729.7875
1637.23439	39026.3875
1640.52951	43669.6875
1643.82246	49213.9875
1647.11321	53657.0875
1650.40179	54431.4875
1653.68819	50368.0875
1656.97241	43581.6875
1660.25446	37194.3875
1663.53433	32515.1875
1666.81203	29573.5875
1670.08756	27825.4875
1673.36092	26736.0875
1676.63211	25996.4875
1679.90115	25481.1875
1683.16801	25093.8875
1686.43272	24818.1875
1689.69527	24642.8875
1692.95567	24476.8875
1696.2139	24370.0875
1699.46999	24296.8875
1702.72392	24194.7875
1705.97571	24150.6875
1709.22535	24156.6875
1712.47284	24069.7875
1715.71819	24061.0875
1718.96139	23996.9875
1722.20246	23883.8875
1725.44139	23826.6875
1728.67818	23739.5875
1731.91284	23585.8875
1735.14537	23471.6875
1738.37576	23366.9875
1741.60403	23273.4875
1744.83017	23241.7875
1748.05418	23154.8875
1751.27607	23153.7875
1754.49584	23156.6875
1757.71349	23120.4875
1760.92903	23142.9875
1764.14244	23084.1875
1767.35375	23075.2875
1770.56294	23068.1875
1773.77002	23002.2875
1776.97499	22957.6875
1780.17785	22918.9875
1783.37861	22902.2875
1786.57727	22866.4875
1789.77382	22818.5875
1792.96828	22835.3875
1796.16064	22791.5875
1799.3509	22767.6875
1802.53907	22699.3875
1805.72514	22667.0875
1808.90913	22607.7875
1812.09102	22534.3875
1815.27083	22492.2875
1818.44856	22450.1875
1821.6242	22424.2875
1824.79776	22380.5875
1827.96924	22361.6875
1831.13864	22350.4875
1834.30597	22357.3875
1837.47122	22315.8875
1840.6344	22301.7875
1843.7955	22321.5875
1846.95454	22265.6875
1850.11151	22290.6875
1853.26642	22268.1875
1856.41926	22278.2875
1859.57004	22239.0875
1862.71876	22263.7875
1865.86542	22229.6875
1869.01003	22216.6875
1872.15258	22212.1875
1875.29308	22181.1875
1878.43152	22200.4875
1881.56792	22187.7875
1884.70227	22186.5875
1887.83457	22161.4875
1890.96482	22175.5875
1894.09304	22121.7875
1897.21921	22155.1875
1900.34335	22161.7875
1903.46544	22138.3875
1906.58551	22140.4875
1909.70353	22117.6875
1912.81953	22084.3875
1915.93349	22066.9875
1919.04543	22057.3875
1922.15534	22001.2875
1925.26322	21954.9875
1928.36908	21881.2875
1931.47292	21895.1875
1934.57473	21839.7875
1937.67453	21762.0875
1940.77232	21720.8875
1943.86808	21675.6875
1946.96184	21631.9875
1950.05358	21567.8875
1953.14331	21545.3875
1956.23103	21441.9875
1959.31675	21390.8875
1962.40046	21336.7875
1965.48217	21263.8875
1968.56188	21258.9875
1971.63959	21150.5875
1974.7153	21110.1875
1977.78901	21058.9875
1980.86073	20984.2875
1983.93046	20938.8875
1986.99819	20837.5875
1990.06394	20816.0875
1993.1277	20747.0875
1996.18947	20747.6875
1999.24925	20690.2875
2002.30706	20645.0875
2005.36288	20566.9875
2008.41672	20531.3875
2011.46859	20461.0875
2014.51848	20433.5875
2017.56639	20384.4875
2020.61233	20335.5875
2023.6563	20317.5875
2026.6983	20245.1875
2029.73833	20221.4875
2032.7764	20172.5875
2035.8125	20158.4875
2038.84664	20174.7875
2041.87881	20123.0875
2044.90903	20097.8875
2047.93729	20049.6875
2050.96359	20057.5875
2053.98794	20039.2875
2057.01034	20024.2875
2060.03078	20015.1875
2063.04927	19960.1875
2066.06582	20003.9875
2069.08042	19976.9875
2072.09307	19939.0875
2075.10378	19943.5875
2078.11255	19912.8875
2081.11938	19890.8875
2084.12426	19891.8875
2087.12722	19908.8875
2090.12824	19902.7875
2093.12732	19901.3875
2096.12447	19885.6875
2099.11969	19876.8875
2102.11299	19897.1875
2105.10435	19900.8875
2108.09379	19896.3875
2111.08131	19909.9875
2114.0669	19926.8875
2117.05057	19992.0875
2120.03233	20013.1875
2123.01216	20024.1875
2125.99008	20048.6875
2128.96609	20055.0875
2131.94018	20081.5875
2134.91236	20090.2875
2137.88263	20101.6875
2140.851	20123.1875
2143.81746	20145.0875
2146.78201	20112.4875
2149.74466	20112.3875
2152.7054	20127.7875
2155.66425	20131.3875
2158.6212	20154.3875
2161.57625	20102.1875
2164.52941	20127.6875
2167.48067	20121.8875
2170.43004	20136.5875
2173.37752	20138.6875
2176.32311	20104.1875
2179.26681	20112.8875
2182.20863	20136.0875
2185.14856	20182.0875
2188.08661	20204.7875
2191.02278	20173.7875
2193.95707	20143.2875
2196.88948	20170.9875
2199.82001	20133.2875
2202.74867	20162.7875
2205.67545	20130.1875
2208.60037	20086.5875
2211.52341	20118.4875
2214.44458	20109.1875
2217.36388	20089.9875
2220.28132	20074.9875
2223.1969	20011.2875
2226.11061	19980.2875
2229.02246	19960.2875
2231.93245	19950.6875
2234.84058	19875.1875
2237.74686	19830.4875
2240.65128	19832.0875
2243.55385	19832.0875
2246.45456	19796.9875
2249.35343	19732.8875
2252.25044	19716.8875
2255.14561	19712.2875
2258.03893	19694.2875
2260.93041	19633.8875
2263.82004	19629.5875
2266.70783	19580.9875
2269.59378	19504.8875
2272.4779	19453.5875
2275.36017	19451.9875
2278.24061	19417.0875
2281.11922	19398.5875
2283.996	19374.1875
2286.87094	19338.8875
2289.74405	19291.7875
2292.61534	19329.1875
2295.4848	19316.3875
2298.35243	19333.1875
2301.21824	19371.0875
2304.08223	19383.9875
2306.94439	19392.9875
2309.80474	19413.0875
2312.66327	19448.2875
2315.51999	19420.8875
2318.37489	19409.8875
2321.22797	19357.6875
2324.07925	19389.0875
2326.92871	19342.4875
2329.77637	19307.6875
2332.62222	19270.5875
2335.46626	19303.0875
2338.3085	19319.2875
2341.14893	19318.0875
2343.98756	19341.9875
2346.8244	19336.6875
2349.65943	19270.7875
2352.49267	19285.9875
2355.32411	19331.1875
2358.15376	19300.2875
2360.98161	19274.9875
2363.80768	19264.2875
2366.63195	19248.5875
2369.45444	19214.5875
2372.27514	19206.3875
2375.09405	19141.7875
2377.91118	19116.2875
2380.72652	19055.7875
2383.54009	19075.7875
2386.35187	19052.1875
2389.16188	19009.5875
2391.97011	18994.9875
2394.77657	18946.4875
2397.58125	18940.1875
2400.38416	18905.7875
2403.18529	18862.9875
2405.98466	18847.2875
2408.78226	18835.6875
2411.57809	18802.2875
2414.37216	18766.1875
2417.16446	18792.7875
2419.955	18754.8875
2422.74378	18757.0875
2425.5308	18718.9875
2428.31606	18722.4875
2431.09956	18713.6875
2433.88131	18712.5875
2436.6613	18738.2875
2439.43954	18728.9875
2442.21603	18687.6875
2444.99077	18703.1875
2447.76377	18745.5875
2450.53501	18694.5875
2453.30451	18695.2875
2456.07226	18677.0875
2458.83827	18695.8875
2461.60254	18722.5875
2464.36507	18681.4875
2467.12586	18655.3875
2469.88492	18697.9875
2472.64224	18743.8875
2475.39782	18744.3875
2478.15167	18746.5875
2480.90379	18739.8875
2483.65417	18766.5875
2486.40283	18764.8875
2489.14976	18812.0875
2491.89497	18797.8875
2494.63845	18818.9875
2497.3802	18815.7875
2500.12024	18840.2875
2502.85855	18775.9875
2505.59514	18774.9875
2508.33002	18764.5875
2511.06318	18775.9875
2513.79462	18751.7875
2516.52435	18727.1875
2519.25237	18692.0875
2521.97867	18694.4875
2524.70327	18729.1875
2527.42616	18708.0875
2530.14734	18686.0875
2532.86681	18688.2875
2535.58458	18707.4875
2538.30065	18673.0875
2541.01501	18690.3875
2543.72768	18694.9875
2546.43864	18644.7875
2549.14791	18631.2875
2551.85548	18670.8875
2554.56136	18647.0875
2557.26554	18574.3875
2559.96803	18594.2875
2562.66883	18597.2875
2565.36794	18567.7875
2568.06536	18563.3875
2570.7611	18558.5875
2573.45514	18571.5875
2576.14751	18534.2875
2578.83819	18538.5875
2581.52719	18542.8875
2584.21451	18559.6875
2586.90015	18536.3875
2589.58411	18549.8875
2592.2664	18584.3875
2594.94701	18520.3875
2597.62594	18514.1875
2600.30321	18486.9875
2602.9788	18491.2875
2605.65273	18477.2875
2608.32498	18501.6875
2610.99557	18474.7875
2613.66449	18494.1875
2616.33175	18508.6875
2618.99734	18516.5875
2621.66128	18463.4875
2624.32355	18499.1875
2626.98416	18493.5875
2629.64311	18487.3875
2632.30041	18512.9875
2634.95605	18490.6875
2637.61004	18435.4875
2640.26238	18462.0875
2642.91306	18436.7875
2645.56209	18395.1875
2648.20948	18409.4875
2650.85521	18442.2875
2653.4993	18444.3875
2656.14175	18437.5875
2658.78255	18452.1875
2661.42171	18491.7875
2664.05923	18478.3875
2666.6951	18490.9875
2669.32934	18552.4875
2671.96194	18517.0875
2674.59291	18520.0875
2677.22224	18511.0875
2679.84993	18533.1875
2682.476	18495.4875
2685.10043	18491.3875
2687.72324	18470.0875
2690.34441	18479.4875
2692.96396	18431.3875
2695.58188	18483.5875
2698.19818	18459.0875
2700.81285	18504.6875
2703.4259	18545.5875
2706.03733	18587.6875
2708.64714	18538.6875
2711.25533	18507.2875
2713.86191	18551.2875
2716.46687	18626.2875
2719.07021	18613.2875
2721.67194	18652.7875
2724.27206	18636.3875
2726.87057	18640.9875
2729.46747	18682.0875
2732.06276	18700.4875
2734.65644	18702.1875
2737.24852	18650.2875
2739.83899	18642.1875
2742.42786	18680.2875
2745.01513	18647.3875
2747.60079	18648.0875
2750.18486	18627.3875
2752.76733	18586.9875
2755.3482	18618.3875
2757.92747	18631.8875
2760.50515	18577.3875
2763.08123	18652.1875
2765.65573	18652.4875
2768.22863	18672.6875
2770.79994	18623.2875
2773.36967	18654.2875
2775.9378	18649.5875
2778.50435	18644.2875
2781.06932	18625.0875
2783.6327	18636.8875
2786.1945	18659.5875
2788.75471	18667.8875
2791.31335	18633.7875
2793.87041	18601.4875
2796.42589	18541.0875
2798.97979	18554.0875
2801.53212	18537.8875
2804.08288	18496.8875
2806.63206	18418.2875
2809.17967	18405.8875
2811.72571	18354.4875
2814.27018	18374.4875
2816.81308	18351.8875
2819.35442	18333.6875
2821.89419	18290.5875
2824.43239	18316.5875
2826.96904	18308.1875
2829.50412	18285.0875
2832.03763	18256.0875
2834.56959	18273.0875
2837.1	18265.3875
2839.62884	18253.9875
2842.15613	18285.5875
2844.68186	18373.7875
2847.20604	18372.4875
2849.72867	18369.6875
2852.24974	18370.6875
2854.76927	18395.8875
2857.28724	18399.6875
2859.80367	18350.1875
2862.31855	18341.0875
2864.83189	18300.8875
2867.34368	18306.0875
2869.85393	18324.7875
2872.36264	18280.4875
2874.8698	18256.1875
2877.37543	18227.8875
2879.87952	18270.1875
2882.38207	18283.9875
2884.88308	18262.8875
2887.38256	18290.7875
2889.88051	18314.4875
2892.37692	18299.9875
2894.8718	18301.4875
2897.36515	18333.6875
2899.85698	18365.5875
2902.34727	18406.1875
2904.83604	18411.3875
2907.32328	18443.6875
2909.809	18476.8875
2912.29319	18453.7875
2914.77587	18480.7875
2917.25702	18497.3875
2919.73665	18461.3875
2922.21476	18474.6875
2924.69136	18414.9875
2927.16644	18454.5875
2929.64	18410.7875
2932.11205	18390.8875
2934.58258	18325.5875
2937.05161	18372.3875
2939.51912	18384.6875
2941.98513	18359.4875
2944.44962	18305.0875
2946.91261	18279.9875
2949.37409	18278.0875
2951.83407	18216.1875
2954.29254	18255.4875
2956.74951	18254.0875
2959.20498	18236.4875
2961.65895	18202.7875
2964.11142	18199.1875
2966.56239	18170.9875
2969.01186	18176.7875
2971.45984	18175.2875
2973.90632	18167.0875
2976.35131	18133.9875
2978.7948	18135.2875
2981.23681	18052.7875
2983.67732	18045.5875
2986.11635	18003.7875
2988.55388	17963.8875
2990.98993	17932.3875
2993.4245	17900.7875
2995.85758	17848.6875
2998.28917	17782.6875
3000.71928	17795.1875
3003.14791	17786.6875
3005.57506	17782.8875
3008.00073	17721.0875
3010.42493	17606.7875
3012.84764	17686.3875
3015.26888	17677.9875
3017.68865	17627.5875
3020.10694	17606.1875
3022.52376	17606.4875
3024.9391	17553.9875
3027.35298	17587.2875
3029.76539	17549.3875
3032.17632	17515.5875
3034.5858	17500.8875
3036.9938	17494.9875
3039.40034	17511.4875
3041.80542	17546.7875
3044.20903	17483.2875
3046.61118	17496.8875
3049.01187	17452.3875
3051.4111	17425.8875
3053.80888	17413.2875
3056.20519	17379.6875
3058.60005	17397.5875
3060.99345	17348.1875
3063.3854	17318.0875
3065.7759	17239.2875
3068.16494	17190.0875
3070.55254	17177.4875
3072.93868	17138.1875
3075.32338	17084.9875
3077.70662	17069.6875
3080.08842	17024.5875
3082.46878	17045.1875
3084.84769	17006.5875
3087.22515	16968.4875
3089.60118	17006.1875
3091.97576	17018.9875
3094.3489	16998.4875
3096.72061	16985.5875
3099.09087	16995.8875
3101.4597	16997.6875
3103.82709	17021.1875
3106.19305	16964.0875
3108.55757	16955.2875
3110.92066	16952.8875
3113.28232	16934.9875
3115.64255	16887.7875
3118.00134	16877.3875
3120.35871	16830.2875
3122.71466	16836.1875
3125.06917	16809.0875
3127.42226	16742.0875
3129.77393	16763.4875
3132.12417	16714.2875
3134.47299	16716.9875
3136.82039	16717.3875
3139.16636	16722.0875
3141.51092	16677.5875
3143.85406	16674.7875
3146.19579	16724.4875
3148.53609	16694.5875
3150.87499	16725.9875
3153.21246	16721.8875
3155.54853	16752.7875
3157.88318	16722.3875
3160.21642	16761.8875
3162.54826	16723.7875
3164.87868	16771.6875
3167.2077	16755.3875
3169.5353	16762.6875
3171.86151	16741.9875
3174.18631	16762.3875
3176.5097	16727.9875
3178.83169	16704.9875
3181.15228	16717.2875
3183.47147	16691.5875
3185.78926	16692.6875
3188.10565	16646.1875
3190.42065	16622.7875
3192.73424	16664.5875
3195.04645	16614.2875
3197.35725	16603.1875
3199.66667	16581.8875
3201.97469	16607.2875
3204.28132	16622.4875
3206.58656	16655.2875
3208.8904	16635.2875
3211.19287	16631.4875
3213.49394	16656.0875
3215.79363	16694.5875
3218.09193	16677.1875
3220.38884	16653.2875
3222.68438	16712.0875
3224.97853	16648.7875
3227.2713	16673.4875
3229.56269	16659.9875
3231.8527	16662.6875
3234.14133	16592.0875
3236.42858	16545.6875
3238.71446	16550.8875
3240.99896	16531.3875
3243.28209	16568.4875
3245.56384	16515.1875
3247.84423	16511.3875
3250.12324	16502.2875
3252.40088	16479.5875
3254.67715	16469.7875
3256.95205	16448.6875
3259.22558	16485.3875
3261.49775	16464.2875
3263.76855	16447.6875
3266.03799	16408.5875
3268.30606	16377.2875
3270.57277	16353.5875
3272.83812	16334.6875
3275.10211	16282.6875
3277.36474	16271.1875
3279.62601	16269.1875
3281.88593	16252.2875
3284.14448	16280.9875
3286.40168	16286.8875
3288.65753	16312.5875
3290.91202	16290.7875
3293.16516	16249.1875
3295.41695	16232.1875
3297.66738	16125.6875
3299.91647	16037.9875
3302.16421	15958.3875
3304.4106	15905.6875
3306.65564	15812.2875
3308.89933	15699.9875
3311.14169	15609.4875
3313.38269	15499.3875
3315.62236	15408.4875
3317.86068	15263.4875
3320.09766	15162.0875
3322.3333	15076.8875
3324.5676	15005.7875
3326.80056	14769.5875
3329.03219	14696.0875
3331.26248	4.4875
3333.49143	-0.7125
3335.71905	-0.8125
