Data from AgNPs_FTO_APTES_UA_5uM_CRN_500uM_R6G_10uM_NaF_0.1M_Addition_RamanShift__29__17-14-31-848.txt Node

Date: Mon Feb 07 17:14:31 GMT 2022
User: TCL
Spectrometer: QEP01345
Trigger mode: 4
Integration Time (sec): 7.000000E0
Scans to average: 10
Electric dark correction enabled: true
Nonlinearity correction enabled: false
Boxcar width: 0
XAxis mode: Raman Shifts
Number of Pixels in Spectrum: 1044
>>>>>Begin Spectral Data<<<<<
46.04893	-1.8625
50.45542	0.1375
54.85868	-0.2625
59.25871	-0.3625
63.6555	46.4375
68.04907	51.1375
72.43941	51.1375
76.82654	51.3375
81.21044	55.9375
85.59113	54.7375
89.96862	57.5375
94.34289	62.0375
98.71396	58.1375
103.08183	64.8375
107.4465	65.9375
111.80798	69.7375
116.16626	68.9375
120.52136	73.7375
124.87327	72.4375
129.222	83.6375
133.56755	83.6375
137.90993	90.1375
142.24913	100.3375
146.58517	110.6375
150.91804	128.6375
155.24774	154.6375
159.57429	189.9375
163.89768	243.1375
168.21792	323.1375
172.53501	437.9375
176.84895	611.7375
181.15975	862.4375
185.46741	1192.4375
189.77193	1654.0375
194.07331	2229.6375
198.37157	2873.0375
202.6667	3541.4375
206.9587	4237.2375
211.24758	4916.6375
215.53334	5629.1375
219.81599	6418.2375
224.09553	7303.4375
228.37195	8298.1375
232.64527	9345.9375
236.91549	10441.5375
241.18261	11415.5375
245.44663	12255.8375
249.70755	12954.0375
253.96539	13548.1375
258.22014	14032.8375
262.4718	14434.5375
266.72039	14723.4375
270.96589	14883.2375
275.20832	14903.0375
279.44768	14829.5375
283.68397	14719.4375
287.91719	14679.6375
292.14735	14805.7375
296.37445	15145.5375
300.59849	15601.4375
304.81948	16165.9375
309.03742	16548.2375
313.25231	16466.4375
317.46415	15650.5375
321.67296	14458.8375
325.87872	13426.1375
330.08145	12950.1375
334.28114	12971.4375
338.47781	13177.3375
342.67145	13536.2375
346.86207	14129.5375
351.04966	14981.6375
355.23424	15890.1375
359.4158	16512.3375
363.59435	16781.9375
367.76989	16765.6375
371.94243	16639.5375
376.11196	16477.1375
380.27849	16354.3375
384.44203	16142.9375
388.60257	15977.6375
392.76012	15885.3375
396.91468	16028.8375
401.06626	16499.1375
405.21485	16883.3375
409.36047	16610.2375
413.50311	15769.5375
417.64277	14984.4375
421.77947	14528.1375
425.9132	14371.1375
430.04396	14368.9375
434.17176	14466.0375
438.2966	14633.3375
442.41849	14992.3375
446.53742	15415.9375
450.6534	15866.9375
454.76644	16121.7375
458.87653	16132.4375
462.98368	16037.4375
467.08789	15837.8375
471.18916	15568.2375
475.2875	15254.5375
479.38291	14990.6375
483.4754	14747.3375
487.56496	14509.9375
491.6516	14316.8375
495.73531	14221.6375
499.81612	14239.5375
503.89401	14429.6375
507.96899	14592.9375
512.04106	14716.6375
516.11023	14883.7375
520.1765	14995.6375
524.23987	14935.0375
528.30034	14696.7375
532.35792	14403.7375
536.41261	14145.7375
540.46441	13823.7375
544.51333	13708.8375
548.55936	13893.3375
552.60252	14265.8375
556.64279	14749.3375
560.6802	15021.5375
564.71473	15345.5375
568.7464	16072.2375
572.7752	16559.0375
576.80114	16073.1375
580.82422	15428.4375
584.84444	15123.2375
588.86181	15030.4375
592.87633	15075.7375
596.888	15257.3375
600.89682	15645.1375
604.9028	17218.5375
608.90594	21552.8375
612.90624	27664.9375
616.90371	26756.9375
620.89834	18754.3375
624.89015	14987.4375
628.87913	14250.1375
632.86528	14388.2375
636.84862	14585.2375
640.82913	14369.7375
644.80683	13722.3375
648.78172	13277.0375
652.75379	13316.2375
656.72306	13882.7375
660.68952	14563.4375
664.65319	14514.0375
668.61405	13788.2375
672.57211	13460.9375
676.52738	13441.0375
680.47986	13453.5375
684.42955	13368.0375
688.37646	13298.4375
692.32058	13323.1375
696.26192	13462.6375
700.20048	13646.5375
704.13626	13779.8375
708.06928	13806.1375
711.99952	13663.3375
715.927	13559.8375
719.85171	13570.7375
723.77365	13530.8375
727.69284	13423.6375
731.60928	13227.1375
735.52295	13150.5375
739.43388	13202.0375
743.34206	13221.2375
747.24749	13324.1375
751.15017	13470.6375
755.05012	13772.7375
758.94733	14502.9375
762.8418	16178.6375
766.73354	18967.9375
770.62254	21709.7375
774.50882	23011.3375
778.39237	22001.6375
782.27321	19028.7375
786.15132	16041.8375
790.02671	14368.5375
793.89938	13646.5375
797.76935	13301.9375
801.6366	13150.0375
805.50115	13052.7375
809.36299	13002.3375
813.22213	12908.2375
817.07857	12901.6375
820.93231	12921.7375
824.78336	12958.7375
828.63172	13041.0375
832.47738	13072.2375
836.32036	13021.3375
840.16066	12929.0375
843.99827	12834.0375
847.8332	12759.6375
851.66546	12760.0375
855.49504	12757.0375
859.32195	12732.5375
863.1462	12653.9375
866.96777	12600.8375
870.78668	12586.2375
874.60293	12614.5375
878.41652	12626.1375
882.22745	12745.5375
886.03573	12799.3375
889.84136	12775.6375
893.64433	12699.3375
897.44466	12680.6375
901.24235	12657.3375
905.0374	12619.1375
908.8298	12545.8375
912.61957	12554.8375
916.40671	12670.8375
920.19121	12811.7375
923.97308	12901.9375
927.75233	13006.0375
931.52895	13087.4375
935.30295	12917.6375
939.07433	12527.0375
942.84309	12183.0375
946.60924	11987.8375
950.37278	11864.2375
954.13371	11795.2375
957.89203	11786.6375
961.64774	11760.4375
965.40086	11724.7375
969.15137	11688.9375
972.89929	11639.7375
976.64461	11601.0375
980.38733	11629.6375
984.12747	11641.1375
987.86502	11662.4375
991.59999	11738.7375
995.33237	11867.5375
999.06217	12091.4375
1002.78939	12389.5375
1006.51404	12692.0375
1010.23611	12976.3375
1013.95561	13092.0375
1017.67255	13066.2375
1021.38692	12838.6375
1025.09872	12591.8375
1028.80796	12484.0375
1032.51465	12486.6375
1036.21877	12615.1375
1039.92035	12753.9375
1043.61937	12833.1375
1047.31584	12854.7375
1051.00976	12876.5375
1054.70114	12860.3375
1058.38998	12904.2375
1062.07627	13039.9375
1065.76003	13184.1375
1069.44126	13255.3375
1073.11995	13371.0375
1076.79611	13542.3375
1080.46974	13769.0375
1084.14085	14077.4375
1087.80943	14422.4375
1091.47549	14591.7375
1095.13903	14375.9375
1098.80005	13893.9375
1102.45857	13463.7375
1106.11456	13233.5375
1109.76805	13236.0375
1113.41903	13533.4375
1117.06751	13995.6375
1120.71348	14673.0375
1124.35696	15423.7375
1127.99793	15987.4375
1131.63641	15766.4375
1135.2724	14952.7375
1138.90589	14236.1375
1142.5369	13831.7375
1146.16542	13604.9375
1149.79145	13498.8375
1153.415	13526.8375
1157.03607	13705.0375
1160.65467	13995.1375
1164.27079	14559.1375
1167.88443	15362.7375
1171.49561	16703.9375
1175.10432	18807.2375
1178.71056	21468.0375
1182.31434	23276.3375
1185.91565	23533.6375
1189.51451	22936.4375
1193.11091	21679.9375
1196.70485	20264.1375
1200.29634	19200.0375
1203.88538	18232.7375
1207.47197	17100.4375
1211.05612	16186.0375
1214.63782	15670.4375
1218.21708	15448.4375
1221.79391	15448.6375
1225.36829	15515.8375
1228.94024	15469.7375
1232.50976	15464.8375
1236.07685	15462.5375
1239.6415	15470.6375
1243.20374	15496.4375
1246.76355	15564.5375
1250.32093	15755.3375
1253.8759	16079.4375
1257.42845	16563.9375
1260.97859	17062.0375
1264.52631	17544.4375
1268.07163	18012.9375
1271.61453	18413.9375
1275.15503	18746.8375
1278.69312	18930.2375
1282.22882	19104.0375
1285.76211	19609.9375
1289.29301	20309.9375
1292.82151	21029.9375
1296.34761	21892.3375
1299.87133	23109.7375
1303.39266	25069.2375
1306.9116	27967.1375
1310.42815	31102.1375
1313.94233	32788.9375
1317.45412	32068.0375
1320.96354	29984.4375
1324.47058	27871.5375
1327.97525	26043.4375
1331.47754	25004.1375
1334.97747	24552.7375
1338.47502	24681.3375
1341.97022	25242.3375
1345.46305	26025.3375
1348.95352	27098.4375
1352.44163	28540.7375
1355.92738	30981.1375
1359.41078	35007.4375
1362.89183	38534.4375
1366.37053	36873.3375
1369.84688	31347.4375
1373.32088	26258.0375
1376.79254	23133.4375
1380.26186	21524.9375
1383.72883	20707.4375
1387.19347	20145.3375
1390.65578	19642.6375
1394.11575	19221.0375
1397.57339	19173.6375
1401.0287	19311.0375
1404.48168	19567.0375
1407.93234	19746.2375
1411.38068	19769.0375
1414.82669	19452.7375
1418.27039	18852.8375
1421.71177	18209.3375
1425.15083	17611.8375
1428.58758	17261.4375
1432.02203	17286.8375
1435.45416	17408.8375
1438.88399	17518.8375
1442.31151	17616.5375
1445.73673	17696.9375
1449.15965	17903.3375
1452.58027	17977.4375
1455.9986	17963.1375
1459.41463	18079.6375
1462.82837	18362.6375
1466.23982	18764.5375
1469.64898	19135.4375
1473.05586	19300.5375
1476.46045	19416.8375
1479.86276	19570.2375
1483.26279	19851.3375
1486.66054	20256.7375
1490.05602	20880.3375
1493.44922	21745.5375
1496.84016	23093.4375
1500.22882	25295.2375
1503.61521	28250.8375
1506.99934	31647.0375
1510.38121	34753.6375
1513.76081	36082.5375
1517.13816	34097.8375
1520.51324	30072.2375
1523.88607	26194.0375
1527.25665	23701.6375
1530.62498	22290.2375
1533.99105	21485.3375
1537.35488	20979.9375
1540.71647	20653.6375
1544.07581	20420.3375
1547.4329	20180.3375
1550.78776	20025.6375
1554.14038	19935.7375
1557.49077	19993.1375
1560.83892	20286.8375
1564.18484	20858.3375
1567.52853	21482.4375
1570.86999	21887.8375
1574.20922	22119.3375
1577.54624	21927.8375
1580.88103	20884.1375
1584.2136	19623.1375
1587.54395	19052.1375
1590.87208	19412.8375
1594.19801	20474.8375
1597.52172	21853.8375
1600.84321	22442.6375
1604.16251	21671.6375
1607.47959	20185.4375
1610.79447	18537.6375
1614.10715	17009.3375
1617.41763	15767.0375
1620.7259	14979.7375
1624.03199	14611.9375
1627.33587	14544.9375
1630.63757	14872.9375
1633.93707	15549.2375
1637.23439	16760.3375
1640.52951	18605.1375
1643.82246	21067.9375
1647.11321	23859.9375
1650.40179	25638.9375
1653.68819	24824.6375
1656.97241	21482.1375
1660.25446	17908.4375
1663.53433	15293.5375
1666.81203	13710.3375
1670.08756	12800.3375
1673.36092	12269.6375
1676.63211	11896.9375
1679.90115	11644.7375
1683.16801	11422.2375
1686.43272	11268.0375
1689.69527	11156.7375
1692.95567	11075.8375
1696.2139	11032.4375
1699.46999	10950.7375
1702.72392	10932.4375
1705.97571	10899.2375
1709.22535	10878.9375
1712.47284	10888.2375
1715.71819	10874.9375
1718.96139	10885.9375
1722.20246	10872.6375
1725.44139	10817.9375
1728.67818	10746.4375
1731.91284	10657.7375
1735.14537	10581.8375
1738.37576	10508.6375
1741.60403	10461.6375
1744.83017	10421.4375
1748.05418	10385.8375
1751.27607	10359.6375
1754.49584	10343.5375
1757.71349	10328.7375
1760.92903	10264.8375
1764.14244	10283.8375
1767.35375	10281.0375
1770.56294	10228.3375
1773.77002	10179.2375
1776.97499	10154.2375
1780.17785	10107.3375
1783.37861	10106.9375
1786.57727	10096.8375
1789.77382	10070.5375
1792.96828	10044.5375
1796.16064	10051.9375
1799.3509	10001.1375
1802.53907	9984.1375
1805.72514	9971.1375
1808.90913	9918.4375
1812.09102	9915.3375
1815.27083	9867.4375
1818.44856	9830.3375
1821.6242	9809.8375
1824.79776	9812.1375
1827.96924	9811.5375
1831.13864	9778.0375
1834.30597	9755.8375
1837.47122	9740.6375
1840.6344	9738.5375
1843.7955	9731.1375
1846.95454	9717.5375
1850.11151	9715.6375
1853.26642	9697.0375
1856.41926	9699.4375
1859.57004	9713.3375
1862.71876	9715.4375
1865.86542	9693.8375
1869.01003	9687.5375
1872.15258	9689.6375
1875.29308	9704.1375
1878.43152	9683.8375
1881.56792	9689.6375
1884.70227	9683.8375
1887.83457	9686.2375
1890.96482	9671.2375
1894.09304	9675.1375
1897.21921	9654.2375
1900.34335	9676.8375
1903.46544	9662.0375
1906.58551	9678.1375
1909.70353	9669.2375
1912.81953	9679.3375
1915.93349	9674.4375
1919.04543	9634.8375
1922.15534	9629.7375
1925.26322	9617.4375
1928.36908	9590.0375
1931.47292	9568.2375
1934.57473	9515.3375
1937.67453	9471.3375
1940.77232	9425.9375
1943.86808	9347.6375
1946.96184	9316.3375
1950.05358	9298.4375
1953.14331	9235.6375
1956.23103	9208.3375
1959.31675	9160.1375
1962.40046	9154.5375
1965.48217	9120.9375
1968.56188	9098.3375
1971.63959	9075.8375
1974.7153	9054.5375
1977.78901	9013.3375
1980.86073	8984.2375
1983.93046	8943.9375
1986.99819	8902.1375
1990.06394	8875.2375
1993.1277	8867.3375
1996.18947	8812.4375
1999.24925	8808.2375
2002.30706	8772.9375
2005.36288	8746.1375
2008.41672	8712.6375
2011.46859	8681.7375
2014.51848	8666.2375
2017.56639	8625.3375
2020.61233	8604.3375
2023.6563	8558.9375
2026.6983	8558.2375
2029.73833	8521.0375
2032.7764	8516.2375
2035.8125	8490.4375
2038.84664	8462.8375
2041.87881	8464.2375
2044.90903	8413.7375
2047.93729	8408.7375
2050.96359	8383.3375
2053.98794	8383.8375
2057.01034	8365.9375
2060.03078	8375.1375
2063.04927	8342.3375
2066.06582	8349.3375
2069.08042	8360.9375
2072.09307	8328.2375
2075.10378	8325.9375
2078.11255	8320.7375
2081.11938	8297.7375
2084.12426	8307.5375
2087.12722	8296.9375
2090.12824	8289.0375
2093.12732	8275.7375
2096.12447	8294.8375
2099.11969	8295.3375
2102.11299	8279.0375
2105.10435	8278.4375
2108.09379	8284.0375
2111.08131	8279.3375
2114.0669	8281.8375
2117.05057	8325.8375
2120.03233	8302.7375
2123.01216	8316.1375
2125.99008	8318.5375
2128.96609	8299.6375
2131.94018	8302.0375
2134.91236	8311.8375
2137.88263	8330.8375
2140.851	8334.3375
2143.81746	8314.7375
2146.78201	8311.6375
2149.74466	8302.5375
2152.7054	8294.2375
2155.66425	8283.8375
2158.6212	8264.1375
2161.57625	8240.6375
2164.52941	8254.7375
2167.48067	8259.8375
2170.43004	8234.5375
2173.37752	8251.2375
2176.32311	8254.1375
2179.26681	8254.9375
2182.20863	8232.4375
2185.14856	8247.4375
2188.08661	8229.6375
2191.02278	8241.7375
2193.95707	8245.5375
2196.88948	8206.5375
2199.82001	8198.8375
2202.74867	8170.4375
2205.67545	8151.7375
2208.60037	8173.3375
2211.52341	8137.7375
2214.44458	8124.4375
2217.36388	8113.0375
2220.28132	8085.0375
2223.1969	8035.6375
2226.11061	8054.8375
2229.02246	8050.0375
2231.93245	8009.9375
2234.84058	7980.1375
2237.74686	7972.4375
2240.65128	7963.9375
2243.55385	7941.1375
2246.45456	7964.3375
2249.35343	7949.6375
2252.25044	7944.0375
2255.14561	7945.0375
2258.03893	7908.7375
2260.93041	7886.1375
2263.82004	7881.3375
2266.70783	7883.1375
2269.59378	7851.6375
2272.4779	7832.7375
2275.36017	7792.9375
2278.24061	7791.5375
2281.11922	7794.7375
2283.996	7782.7375
2286.87094	7746.3375
2289.74405	7707.1375
2292.61534	7713.2375
2295.4848	7694.7375
2298.35243	7703.0375
2301.21824	7681.4375
2304.08223	7686.5375
2306.94439	7689.9375
2309.80474	7657.7375
2312.66327	7679.6375
2315.51999	7664.9375
2318.37489	7647.3375
2321.22797	7634.0375
2324.07925	7629.0375
2326.92871	7609.1375
2329.77637	7602.4375
2332.62222	7610.5375
2335.46626	7580.1375
2338.3085	7579.7375
2341.14893	7592.7375
2343.98756	7578.1375
2346.8244	7561.4375
2349.65943	7546.7375
2352.49267	7558.5375
2355.32411	7588.6375
2358.15376	7584.0375
2360.98161	7607.0375
2363.80768	7611.0375
2366.63195	7629.1375
2369.45444	7610.8375
2372.27514	7608.0375
2375.09405	7558.8375
2377.91118	7556.3375
2380.72652	7548.5375
2383.54009	7500.5375
2386.35187	7495.0375
2389.16188	7437.7375
2391.97011	7414.0375
2394.77657	7388.5375
2397.58125	7382.2375
2400.38416	7357.1375
2403.18529	7343.6375
2405.98466	7332.9375
2408.78226	7279.8375
2411.57809	7305.9375
2414.37216	7301.4375
2417.16446	7283.7375
2419.955	7273.1375
2422.74378	7273.6375
2425.5308	7249.1375
2428.31606	7239.0375
2431.09956	7244.1375
2433.88131	7234.3375
2436.6613	7248.3375
2439.43954	7260.9375
2442.21603	7252.3375
2444.99077	7238.4375
2447.76377	7241.3375
2450.53501	7230.8375
2453.30451	7225.5375
2456.07226	7232.5375
2458.83827	7227.2375
2461.60254	7213.5375
2464.36507	7192.2375
2467.12586	7205.1375
2469.88492	7193.8375
2472.64224	7198.8375
2475.39782	7206.4375
2478.15167	7226.0375
2480.90379	7207.8375
2483.65417	7215.8375
2486.40283	7226.7375
2489.14976	7252.3375
2491.89497	7272.4375
2494.63845	7254.5375
2497.3802	7244.5375
2500.12024	7241.4375
2502.85855	7215.2375
2505.59514	7203.1375
2508.33002	7181.9375
2511.06318	7153.7375
2513.79462	7134.0375
2516.52435	7104.5375
2519.25237	7088.1375
2521.97867	7056.1375
2524.70327	7056.4375
2527.42616	7024.6375
2530.14734	7041.4375
2532.86681	7034.3375
2535.58458	7023.6375
2538.30065	7021.5375
2541.01501	7014.3375
2543.72768	7008.3375
2546.43864	6998.8375
2549.14791	7004.8375
2551.85548	6990.2375
2554.56136	6973.4375
2557.26554	6947.0375
2559.96803	6961.6375
2562.66883	6931.5375
2565.36794	6912.8375
2568.06536	6929.4375
2570.7611	6918.9375
2573.45514	6900.4375
2576.14751	6877.4375
2578.83819	6858.3375
2581.52719	6868.6375
2584.21451	6855.2375
2586.90015	6863.7375
2589.58411	6859.6375
2592.2664	6829.5375
2594.94701	6830.3375
2597.62594	6815.6375
2600.30321	6799.4375
2602.9788	6805.5375
2605.65273	6820.0375
2608.32498	6802.4375
2610.99557	6792.9375
2613.66449	6808.3375
2616.33175	6797.1375
2618.99734	6775.1375
2621.66128	6764.4375
2624.32355	6769.3375
2626.98416	6754.5375
2629.64311	6748.7375
2632.30041	6743.4375
2634.95605	6722.2375
2637.61004	6705.9375
2640.26238	6714.6375
2642.91306	6699.6375
2645.56209	6686.7375
2648.20948	6674.0375
2650.85521	6684.0375
2653.4993	6682.2375
2656.14175	6678.0375
2658.78255	6687.4375
2661.42171	6685.2375
2664.05923	6678.6375
2666.6951	6696.7375
2669.32934	6710.6375
2671.96194	6704.4375
2674.59291	6693.9375
2677.22224	6709.9375
2679.84993	6698.7375
2682.476	6690.6375
2685.10043	6688.5375
2687.72324	6665.9375
2690.34441	6683.2375
2692.96396	6692.4375
2695.58188	6675.8375
2698.19818	6673.4375
2700.81285	6691.2375
2703.4259	6678.9375
2706.03733	6686.9375
2708.64714	6697.3375
2711.25533	6693.7375
2713.86191	6717.4375
2716.46687	6712.0375
2719.07021	6719.0375
2721.67194	6741.6375
2724.27206	6716.8375
2726.87057	6739.2375
2729.46747	6714.7375
2732.06276	6718.9375
2734.65644	6724.3375
2737.24852	6681.4375
2739.83899	6679.6375
2742.42786	6666.7375
2745.01513	6657.9375
2747.60079	6659.4375
2750.18486	6643.0375
2752.76733	6635.1375
2755.3482	6609.7375
2757.92747	6611.2375
2760.50515	6601.6375
2763.08123	6589.5375
2765.65573	6569.9375
2768.22863	6581.8375
2770.79994	6568.7375
2773.36967	6575.3375
2775.9378	6568.1375
2778.50435	6567.8375
2781.06932	6569.8375
2783.6327	6561.2375
2786.1945	6549.1375
2788.75471	6561.6375
2791.31335	6564.0375
2793.87041	6558.1375
2796.42589	6548.0375
2798.97979	6541.6375
2801.53212	6536.7375
2804.08288	6507.0375
2806.63206	6493.2375
2809.17967	6491.7375
2811.72571	6505.7375
2814.27018	6496.4375
2816.81308	6509.1375
2819.35442	6499.0375
2821.89419	6494.6375
2824.43239	6510.8375
2826.96904	6493.2375
2829.50412	6508.1375
2832.03763	6496.3375
2834.56959	6511.1375
2837.1	6494.6375
2839.62884	6545.9375
2842.15613	6577.0375
2844.68186	6657.3375
2847.20604	6752.0375
2849.72867	6774.5375
2852.24974	6808.3375
2854.76927	6815.9375
2857.28724	6810.1375
2859.80367	6776.6375
2862.31855	6744.2375
2864.83189	6724.6375
2867.34368	6708.4375
2869.85393	6698.1375
2872.36264	6705.0375
2874.8698	6699.1375
2877.37543	6691.8375
2879.87952	6677.3375
2882.38207	6684.0375
2884.88308	6662.9375
2887.38256	6665.7375
2889.88051	6682.1375
2892.37692	6656.7375
2894.8718	6683.3375
2897.36515	6665.4375
2899.85698	6670.0375
2902.34727	6690.1375
2904.83604	6688.1375
2907.32328	6697.7375
2909.809	6679.8375
2912.29319	6676.0375
2914.77587	6683.7375
2917.25702	6659.5375
2919.73665	6648.9375
2922.21476	6648.9375
2924.69136	6628.5375
2927.16644	6625.5375
2929.64	6614.1375
2932.11205	6599.3375
2934.58258	6549.1375
2937.05161	6568.2375
2939.51912	6508.4375
2941.98513	6491.2375
2944.44962	6444.8375
2946.91261	6387.8375
2949.37409	6368.1375
2951.83407	6346.0375
2954.29254	6317.4375
2956.74951	6306.0375
2959.20498	6313.4375
2961.65895	6271.7375
2964.11142	6264.6375
2966.56239	6249.1375
2969.01186	6241.8375
2971.45984	6216.3375
2973.90632	6203.0375
2976.35131	6175.5375
2978.7948	6165.9375
2981.23681	6131.5375
2983.67732	6112.7375
2986.11635	6099.4375
2988.55388	6081.4375
2990.98993	6085.7375
2993.4245	6048.0375
2995.85758	6041.1375
2998.28917	6010.3375
3000.71928	6036.5375
3003.14791	5990.5375
3005.57506	5996.2375
3008.00073	5971.9375
3010.42493	5969.8375
3012.84764	5956.4375
3015.26888	5960.1375
3017.68865	5936.4375
3020.10694	5926.5375
3022.52376	5904.1375
3024.9391	5914.3375
3027.35298	5902.1375
3029.76539	5884.9375
3032.17632	5882.7375
3034.5858	5861.4375
3036.9938	5863.4375
3039.40034	5853.4375
3041.80542	5855.0375
3044.20903	5837.0375
3046.61118	5857.5375
3049.01187	5810.4375
3051.4111	5785.8375
3053.80888	5786.9375
3056.20519	5785.4375
3058.60005	5760.3375
3060.99345	5759.8375
3063.3854	5733.0375
3065.7759	5727.3375
3068.16494	5711.1375
3070.55254	5673.5375
3072.93868	5664.5375
3075.32338	5652.1375
3077.70662	5646.6375
3080.08842	5621.6375
3082.46878	5596.0375
3084.84769	5595.5375
3087.22515	5607.2375
3089.60118	5582.6375
3091.97576	5584.1375
3094.3489	5589.3375
3096.72061	5586.7375
3099.09087	5582.8375
3101.4597	5576.2375
3103.82709	5566.1375
3106.19305	5562.2375
3108.55757	5552.4375
3110.92066	5520.4375
3113.28232	5543.2375
3115.64255	5522.8375
3118.00134	5499.7375
3120.35871	5504.8375
3122.71466	5498.7375
3125.06917	5480.9375
3127.42226	5475.9375
3129.77393	5483.0375
3132.12417	5456.6375
3134.47299	5472.5375
3136.82039	5473.0375
3139.16636	5484.9375
3141.51092	5469.3375
3143.85406	5466.9375
3146.19579	5484.2375
3148.53609	5475.3375
3150.87499	5477.2375
3153.21246	5494.7375
3155.54853	5504.0375
3157.88318	5479.8375
3160.21642	5516.3375
3162.54826	5503.2375
3164.87868	5516.7375
3167.2077	5492.6375
3169.5353	5517.7375
3171.86151	5518.3375
3174.18631	5513.7375
3176.5097	5515.3375
3178.83169	5494.1375
3181.15228	5499.3375
3183.47147	5472.1375
3185.78926	5477.9375
3188.10565	5473.2375
3190.42065	5475.3375
3192.73424	5499.8375
3195.04645	5464.5375
3197.35725	5472.7375
3199.66667	5471.3375
3201.97469	5469.7375
3204.28132	5478.7375
3206.58656	5491.3375
3208.8904	5484.5375
3211.19287	5503.5375
3213.49394	5498.9375
3215.79363	5508.2375
3218.09193	5516.5375
3220.38884	5491.6375
3222.68438	5514.3375
3224.97853	5492.6375
3227.2713	5502.0375
3229.56269	5505.2375
3231.8527	5482.5375
3234.14133	5466.0375
3236.42858	5437.7375
3238.71446	5429.4375
3240.99896	5437.6375
3243.28209	5411.1375
3245.56384	5414.4375
3247.84423	5429.4375
3250.12324	5389.0375
3252.40088	5398.8375
3254.67715	5410.7375
3256.95205	5395.3375
3259.22558	5393.5375
3261.49775	5381.3375
3263.76855	5358.6375
3266.03799	5355.2375
3268.30606	5346.2375
3270.57277	5336.1375
3272.83812	5319.8375
3275.10211	5326.9375
3277.36474	5320.4375
3279.62601	5319.9375
3281.88593	5295.9375
3284.14448	5299.6375
3286.40168	5295.1375
3288.65753	5298.0375
3290.91202	5286.4375
3293.16516	5274.1375
3295.41695	5248.3375
3297.66738	5234.9375
3299.91647	5210.8375
3302.16421	5160.4375
3304.4106	5135.1375
3306.65564	5096.7375
3308.89933	5064.8375
3311.14169	5027.0375
3313.38269	4981.0375
3315.62236	4943.8375
3317.86068	4902.8375
3320.09766	4873.4375
3322.3333	4831.9375
3324.5676	4810.8375
3326.80056	4732.3375
3329.03219	4688.8375
3331.26248	2.3375
3333.49143	-0.1625
3335.71905	-1.1625
