Data from AgNPs_FTO_APTES_UA_5uM_CRN_2uM_R6G_10uM_NaF_0.1M_Addition_RamanShift__23__11-23-46-641.txt Node

Date: Mon Feb 07 11:23:46 GMT 2022
User: TCL
Spectrometer: QEP01345
Trigger mode: 4
Integration Time (sec): 7.000000E0
Scans to average: 10
Electric dark correction enabled: true
Nonlinearity correction enabled: false
Boxcar width: 0
XAxis mode: Raman Shifts
Number of Pixels in Spectrum: 1044
>>>>>Begin Spectral Data<<<<<
46.04893	-0.1
50.45542	-1.9
54.85868	-2.7
59.25871	1.1
63.6555	103.7
68.04907	104.6
72.43941	110.9
76.82654	112.7
81.21044	116.9
85.59113	125.4
89.96862	129.3
94.34289	129
98.71396	136.4
103.08183	142.3
107.4465	141.8
111.80798	147.3
116.16626	154.9
120.52136	159.8
124.87327	161.8
129.222	180.9
133.56755	189.1
137.90993	211.9
142.24913	227.7
146.58517	259.7
150.91804	301
155.24774	364.3
159.57429	456.1
163.89768	591
168.21792	792
172.53501	1082.6
176.84895	1506.4
181.15975	2118.5
185.46741	2964.2
189.77193	4093.5
194.07331	5452.8
198.37157	7027
202.6667	8674.8
206.9587	10308.5
211.24758	11922.8
215.53334	13607.7
219.81599	15389.4
224.09553	17420.5
228.37195	19723
232.64527	22151.9
236.91549	24629.6
241.18261	27068.5
245.44663	29252.3
249.70755	31058.5
253.96539	32717.7
258.22014	34131.3
262.4718	35405.3
266.72039	36318.1
270.96589	36866.2
275.20832	37031.7
279.44768	36910.9
283.68397	36690.1
287.91719	36632.8
292.14735	36672.2
296.37445	36863.7
300.59849	37239
304.81948	37662.1
309.03742	37883.9
313.25231	37430.9
317.46415	36122.3
321.67296	34406.7
325.87872	32897.7
330.08145	32135.1
334.28114	31929.7
338.47781	32250.1
342.67145	32799.3
346.86207	33548.3
351.04966	34590.5
355.23424	35813.5
359.4158	36721.5
363.59435	37226.2
367.76989	37413.7
371.94243	37534.3
376.11196	37527.8
380.27849	37561.3
384.44203	37533.2
388.60257	37609.8
392.76012	37859.1
396.91468	38330.9
401.06626	39161.7
405.21485	39818.9
409.36047	39504.4
413.50311	38468.8
417.64277	37546.2
421.77947	37333.9
425.9132	37441.4
430.04396	37662.5
434.17176	37850.2
438.2966	38225.2
442.41849	38901.1
446.53742	39989.9
450.6534	41410.9
454.76644	42461.8
458.87653	42827
462.98368	42558.4
467.08789	41918
471.18916	41089.6
475.2875	40338.5
479.38291	39893
483.4754	39577.1
487.56496	39157.4
491.6516	38526.6
495.73531	37988.4
499.81612	37690.4
503.89401	37810.1
507.96899	37932.3
512.04106	37861.6
516.11023	37591.7
520.1765	37242
524.23987	36816.1
528.30034	36270.2
532.35792	35646.6
536.41261	35021.2
540.46441	34431.5
544.51333	34315
548.55936	34894.9
552.60252	36015.5
556.64279	37132.8
560.6802	37895.4
564.71473	38419.9
568.7464	39567.7
572.7752	40900.5
576.80114	41585.4
580.82422	41942
584.84444	42409.4
588.86181	42864.3
592.87633	43537.2
596.888	44263.2
600.89682	44698.6
604.9028	46689.5
608.90594	52683.5
612.90624	59848
616.90371	56108.2
620.89834	43544.8
624.89015	37894.9
628.87913	37230.3
632.86528	37384
636.84862	37121
640.82913	36106.1
644.80683	34619.3
648.78172	33385.3
652.75379	33222.7
656.72306	33923.8
660.68952	34964.4
664.65319	34940.1
668.61405	33929.2
672.57211	33478.1
676.52738	33401.4
680.47986	33339
684.42955	33096.4
688.37646	32926.6
692.32058	33135.1
696.26192	33588.3
700.20048	34101.5
704.13626	34482.2
708.06928	34419.3
711.99952	34113.9
715.927	33886.5
719.85171	33902.3
723.77365	33740.7
727.69284	33222.3
731.60928	32718.8
735.52295	32620.3
739.43388	32741.4
743.34206	32960.2
747.24749	33185.9
751.15017	33670.7
755.05012	34504.9
758.94733	36036.5
762.8418	38932.9
766.73354	43616.6
770.62254	48215.8
774.50882	49381.7
778.39237	46290.6
782.27321	41350.4
786.15132	37147
790.02671	34652.1
793.89938	33491.2
797.76935	33064.7
801.6366	32857.3
805.50115	32773.6
809.36299	32507.6
813.22213	32164.4
817.07857	32012.2
820.93231	31994.3
824.78336	31925.4
828.63172	31884.8
832.47738	31924.8
836.32036	31946.2
840.16066	32050.8
843.99827	32188.9
847.8332	32032.7
851.66546	31833.4
855.49504	31709.5
859.32195	31634
863.1462	31420.5
866.96777	31226.3
870.78668	31101.1
874.60293	31097
878.41652	31062.3
882.22745	31194.3
886.03573	31329.3
889.84136	31298.1
893.64433	31118.2
897.44466	30985.2
901.24235	30890.9
905.0374	30741.2
908.8298	30653.4
912.61957	30723
916.40671	31115.3
920.19121	31822.6
923.97308	32431.5
927.75233	32768.5
931.52895	32663.1
935.30295	32078.3
939.07433	31119.6
942.84309	30394
946.60924	30067
950.37278	29873.5
954.13371	29696.6
957.89203	29482.5
961.64774	29413.5
965.40086	29278.5
969.15137	29229.4
972.89929	29065.2
976.64461	28980.5
980.38733	28984.5
984.12747	29159.8
987.86502	29522
991.59999	30061.8
995.33237	30970
999.06217	32370.4
1002.78939	34056.8
1006.51404	35228.1
1010.23611	35840
1013.95561	36150.3
1017.67255	36120.3
1021.38692	35472.9
1025.09872	34933.8
1028.80796	35384.6
1032.51465	36874.5
1036.21877	38392.4
1039.92035	38526.6
1043.61937	37746.9
1047.31584	36243.6
1051.00976	34767.3
1054.70114	33922.7
1058.38998	33668.7
1062.07627	33860.1
1065.76003	34059.7
1069.44126	34430.9
1073.11995	34961.9
1076.79611	35433.5
1080.46974	35718.5
1084.14085	36200.1
1087.80943	36884.2
1091.47549	37340.4
1095.13903	37185.6
1098.80005	36324.3
1102.45857	35227.8
1106.11456	34354.3
1109.76805	34115.1
1113.41903	34336.9
1117.06751	34822.6
1120.71348	35519.5
1124.35696	36267.7
1127.99793	37067.3
1131.63641	37279.6
1135.2724	36753.6
1138.90589	36146.7
1142.5369	35754.1
1146.16542	35595.3
1149.79145	35633.9
1153.415	36023.8
1157.03607	36726.7
1160.65467	37845.9
1164.27079	39753.6
1167.88443	42482.1
1171.49561	46241.6
1175.10432	51328
1178.71056	57742.2
1182.31434	63549.5
1185.91565	66616.3
1189.51451	66568
1193.11091	63885.7
1196.70485	59969.3
1200.29634	56103.9
1203.88538	53163.8
1207.47197	50741.3
1211.05612	48908.7
1214.63782	47680.8
1218.21708	47071.9
1221.79391	47006
1225.36829	47135.8
1228.94024	46733.6
1232.50976	45905.3
1236.07685	45075.6
1239.6415	44564.7
1243.20374	44225.9
1246.76355	44241.4
1250.32093	44962.1
1253.8759	46286.3
1257.42845	48074.3
1260.97859	49993.1
1264.52631	51648.4
1268.07163	53416.5
1271.61453	55469.2
1275.15503	57698.7
1278.69312	59962.7
1282.22882	61854.4
1285.76211	63726.6
1289.29301	65768.7
1292.82151	68223.5
1296.34761	71566.1
1299.87133	75963.3
1303.39266	81684.9
1306.9116	88638.3
1310.42815	95751
1313.94233	100355.7
1317.45412	100684.1
1320.96354	98016
1324.47058	94719.5
1327.97525	91470.4
1331.47754	89267.5
1334.97747	88098.3
1338.47502	87762.2
1341.97022	87484.1
1345.46305	86610.8
1348.95352	85047.1
1352.44163	84086.9
1355.92738	85597.8
1359.41078	90737.2
1362.89183	96244.6
1366.37053	94850.1
1369.84688	85532.5
1373.32088	74832.9
1376.79254	67286
1380.26186	63999.9
1383.72883	63087.9
1387.19347	62657
1390.65578	61915.9
1394.11575	61902.7
1397.57339	63036.7
1401.0287	64834.7
1404.48168	66572.4
1407.93234	67549.7
1411.38068	67121
1414.82669	65276.4
1418.27039	62084.6
1421.71177	58672
1425.15083	55869.7
1428.58758	54251.5
1432.02203	54118.9
1435.45416	55109.4
1438.88399	56428.8
1442.31151	57529.2
1445.73673	58734.7
1449.15965	59869.3
1452.58027	60649.3
1455.9986	60905
1459.41463	61300.3
1462.82837	62311.7
1466.23982	63600.2
1469.64898	64843.9
1473.05586	65466.2
1476.46045	65470.9
1479.86276	65197.2
1483.26279	64918.8
1486.66054	64875.7
1490.05602	65359.2
1493.44922	66165.4
1496.84016	67132.1
1500.22882	68706.2
1503.61521	71417.1
1506.99934	75118.9
1510.38121	78902
1513.76081	80806.4
1517.13816	79118
1520.51324	74737.9
1523.88607	70334.9
1527.25665	67100.3
1530.62498	65267.4
1533.99105	64265.1
1537.35488	63462.6
1540.71647	62649.1
1544.07581	61503.3
1547.4329	60205
1550.78776	58955.5
1554.14038	58124.5
1557.49077	57815.8
1560.83892	57775.7
1564.18484	58004.2
1567.52853	58123.4
1570.86999	58247.6
1574.20922	58749
1577.54624	59368.6
1580.88103	59042
1584.2136	58933
1587.54395	60673.1
1590.87208	64319.3
1594.19801	69449.9
1597.52172	74518
1600.84321	76264.7
1604.16251	72609.8
1607.47959	65984.2
1610.79447	58873.2
1614.10715	52597.7
1617.41763	47552.8
1620.7259	44173.3
1624.03199	42576.3
1627.33587	42586.7
1630.63757	44287.7
1633.93707	47827.8
1637.23439	53268.7
1640.52951	60570.4
1643.82246	68639.2
1647.11321	75028.7
1650.40179	76756.2
1653.68819	71585.5
1656.97241	61430.4
1660.25446	50900.4
1663.53433	42918
1666.81203	37766.8
1670.08756	34606.9
1673.36092	32623.2
1676.63211	31358.5
1679.90115	30515.4
1683.16801	29872.3
1686.43272	29385.8
1689.69527	29015.5
1692.95567	28779.4
1696.2139	28563.7
1699.46999	28421.8
1702.72392	28314.2
1705.97571	28236.4
1709.22535	28145.4
1712.47284	28093.7
1715.71819	28048.2
1718.96139	27946.7
1722.20246	27818.9
1725.44139	27705.6
1728.67818	27496.7
1731.91284	27351.9
1735.14537	27143.4
1738.37576	27001.9
1741.60403	26842.3
1744.83017	26783.4
1748.05418	26639.1
1751.27607	26568
1754.49584	26525
1757.71349	26495.2
1760.92903	26477.6
1764.14244	26447.8
1767.35375	26396.8
1770.56294	26351.2
1773.77002	26274.2
1776.97499	26226.8
1780.17785	26166.7
1783.37861	26118.3
1786.57727	26077.5
1789.77382	26028.8
1792.96828	25977.3
1796.16064	25939.3
1799.3509	25938.4
1802.53907	25843.3
1805.72514	25781.7
1808.90913	25704.4
1812.09102	25679
1815.27083	25633.1
1818.44856	25591.1
1821.6242	25475.4
1824.79776	25471
1827.96924	25485.1
1831.13864	25446.7
1834.30597	25463.4
1837.47122	25488.9
1840.6344	25483.8
1843.7955	25480.9
1846.95454	25547.6
1850.11151	25575.6
1853.26642	25564.7
1856.41926	25593.1
1859.57004	25576.3
1862.71876	25630.9
1865.86542	25623.5
1869.01003	25611.9
1872.15258	25667.9
1875.29308	25642.4
1878.43152	25680.1
1881.56792	25756.4
1884.70227	25740.8
1887.83457	25752.9
1890.96482	25797.7
1894.09304	25731.7
1897.21921	25798.2
1900.34335	25762.2
1903.46544	25786.1
1906.58551	25833.4
1909.70353	25803.4
1912.81953	25755.6
1915.93349	25671.5
1919.04543	25686.4
1922.15534	25576.3
1925.26322	25494.1
1928.36908	25351.6
1931.47292	25256.9
1934.57473	25169
1937.67453	24989.1
1940.77232	24891.2
1943.86808	24750.3
1946.96184	24633.8
1950.05358	24466.2
1953.14331	24382.4
1956.23103	24309.1
1959.31675	24212
1962.40046	24071.9
1965.48217	24046.1
1968.56188	23991
1971.63959	23891.8
1974.7153	23789.4
1977.78901	23694.9
1980.86073	23619.5
1983.93046	23546.9
1986.99819	23450.5
1990.06394	23417
1993.1277	23344
1996.18947	23264.8
1999.24925	23191.7
2002.30706	23093.2
2005.36288	23029.9
2008.41672	22986.5
2011.46859	22928.9
2014.51848	22844.1
2017.56639	22779.7
2020.61233	22753.5
2023.6563	22665.2
2026.6983	22650.6
2029.73833	22619.1
2032.7764	22584.1
2035.8125	22529
2038.84664	22492.1
2041.87881	22520.6
2044.90903	22470
2047.93729	22372.7
2050.96359	22384
2053.98794	22341.7
2057.01034	22357.3
2060.03078	22327.1
2063.04927	22334.4
2066.06582	22303.8
2069.08042	22276
2072.09307	22245.6
2075.10378	22189.5
2078.11255	22171.2
2081.11938	22143.1
2084.12426	22135.6
2087.12722	22091.7
2090.12824	22049.8
2093.12732	22022.4
2096.12447	22078.9
2099.11969	22061.6
2102.11299	22058.1
2105.10435	22060.5
2108.09379	22064.1
2111.08131	22053.2
2114.0669	22073.8
2117.05057	22065.6
2120.03233	22078.3
2123.01216	22104.1
2125.99008	22092.5
2128.96609	22128.8
2131.94018	22179.8
2134.91236	22178.6
2137.88263	22155.6
2140.851	22205.5
2143.81746	22192.3
2146.78201	22179.7
2149.74466	22167.7
2152.7054	22158.8
2155.66425	22143.6
2158.6212	22121.1
2161.57625	22118
2164.52941	22074.8
2167.48067	22098.4
2170.43004	22079.5
2173.37752	22105
2176.32311	22065.4
2179.26681	22084.9
2182.20863	22097
2185.14856	22104.6
2188.08661	22139.5
2191.02278	22143.4
2193.95707	22172.7
2196.88948	22107.4
2199.82001	22095.9
2202.74867	22076.9
2205.67545	22098.5
2208.60037	22052.4
2211.52341	22054.9
2214.44458	22070.8
2217.36388	22041.4
2220.28132	22004.4
2223.1969	21939.4
2226.11061	21903.5
2229.02246	21882.2
2231.93245	21823.6
2234.84058	21832.1
2237.74686	21714.5
2240.65128	21695.2
2243.55385	21675.4
2246.45456	21632.3
2249.35343	21643.9
2252.25044	21559.3
2255.14561	21515.8
2258.03893	21510.3
2260.93041	21488.4
2263.82004	21392.7
2266.70783	21362.8
2269.59378	21285.3
2272.4779	21217.2
2275.36017	21140.5
2278.24061	21113
2281.11922	21108.8
2283.996	21066.7
2286.87094	21089
2289.74405	21053.2
2292.61534	21008.4
2295.4848	21019.6
2298.35243	21006.1
2301.21824	21046.6
2304.08223	21058.6
2306.94439	21115.2
2309.80474	21148
2312.66327	21177.6
2315.51999	21183.8
2318.37489	21145.6
2321.22797	21120.4
2324.07925	21160
2326.92871	21122.5
2329.77637	21084.5
2332.62222	21085.2
2335.46626	21114.3
2338.3085	21128.8
2341.14893	21186.2
2343.98756	21233.8
2346.8244	21238.3
2349.65943	21226
2352.49267	21233.5
2355.32411	21238.4
2358.15376	21255.7
2360.98161	21167
2363.80768	21175.4
2366.63195	21160.4
2369.45444	21114.6
2372.27514	21088.9
2375.09405	21008.2
2377.91118	20934
2380.72652	20867.6
2383.54009	20812.4
2386.35187	20752.1
2389.16188	20726.6
2391.97011	20688.7
2394.77657	20647
2397.58125	20621.5
2400.38416	20611.6
2403.18529	20575.6
2405.98466	20508.1
2408.78226	20425.3
2411.57809	20436.2
2414.37216	20393.6
2417.16446	20388.1
2419.955	20324.9
2422.74378	20301.9
2425.5308	20213.7
2428.31606	20219.9
2431.09956	20237
2433.88131	20241.4
2436.6613	20267.9
2439.43954	20290.2
2442.21603	20297.5
2444.99077	20225.9
2447.76377	20261.7
2450.53501	20237.7
2453.30451	20242.8
2456.07226	20237.4
2458.83827	20226.1
2461.60254	20261
2464.36507	20257.4
2467.12586	20217.7
2469.88492	20213.9
2472.64224	20295.1
2475.39782	20334.9
2478.15167	20344.7
2480.90379	20365.1
2483.65417	20415.9
2486.40283	20425.4
2489.14976	20451.4
2491.89497	20487
2494.63845	20522.7
2497.3802	20564.9
2500.12024	20555.8
2502.85855	20526.7
2505.59514	20509.1
2508.33002	20449.3
2511.06318	20462.3
2513.79462	20391.1
2516.52435	20368.2
2519.25237	20375.8
2521.97867	20320.1
2524.70327	20320.6
2527.42616	20285
2530.14734	20314.4
2532.86681	20302.5
2535.58458	20300.5
2538.30065	20277.5
2541.01501	20303.6
2543.72768	20280.3
2546.43864	20277.6
2549.14791	20268
2551.85548	20259.5
2554.56136	20205.1
2557.26554	20212
2559.96803	20223
2562.66883	20164.9
2565.36794	20169.6
2568.06536	20150.7
2570.7611	20149.3
2573.45514	20125.5
2576.14751	20133.6
2578.83819	20138
2581.52719	20119.9
2584.21451	20170.4
2586.90015	20170
2589.58411	20196.7
2592.2664	20196
2594.94701	20188.4
2597.62594	20190.4
2600.30321	20127.4
2602.9788	20178.1
2605.65273	20182
2608.32498	20245.3
2610.99557	20249.9
2613.66449	20238.7
2616.33175	20233.9
2618.99734	20287.7
2621.66128	20270.6
2624.32355	20244.2
2626.98416	20281.6
2629.64311	20291.4
2632.30041	20337
2634.95605	20307.9
2637.61004	20283.2
2640.26238	20229.8
2642.91306	20233.8
2645.56209	20191
2648.20948	20157
2650.85521	20171.5
2653.4993	20142.6
2656.14175	20146.7
2658.78255	20180.7
2661.42171	20217.1
2664.05923	20223.7
2666.6951	20226.3
2669.32934	20283.1
2671.96194	20292.2
2674.59291	20321.3
2677.22224	20295.6
2679.84993	20319.5
2682.476	20260.3
2685.10043	20240.5
2687.72324	20213.4
2690.34441	20172.8
2692.96396	20177.6
2695.58188	20176.3
2698.19818	20097.2
2700.81285	20141.1
2703.4259	20114.7
2706.03733	20173.6
2708.64714	20131.2
2711.25533	20146.3
2713.86191	20138.8
2716.46687	20166.4
2719.07021	20159.7
2721.67194	20216.3
2724.27206	20198.5
2726.87057	20236.5
2729.46747	20266.9
2732.06276	20230.3
2734.65644	20269
2737.24852	20266.5
2739.83899	20200.2
2742.42786	20217.9
2745.01513	20173.7
2747.60079	20205
2750.18486	20207.1
2752.76733	20224.2
2755.3482	20182.6
2757.92747	20186.4
2760.50515	20176.3
2763.08123	20176.2
2765.65573	20164.4
2768.22863	20163.8
2770.79994	20139.2
2773.36967	20159.9
2775.9378	20194.9
2778.50435	20189.5
2781.06932	20215.8
2783.6327	20198.4
2786.1945	20171.9
2788.75471	20221.1
2791.31335	20182.9
2793.87041	20160.3
2796.42589	20097.9
2798.97979	20114.7
2801.53212	20051
2804.08288	20066.2
2806.63206	19969.4
2809.17967	19939.5
2811.72571	19935
2814.27018	19930.2
2816.81308	19893.7
2819.35442	19877.4
2821.89419	19841.9
2824.43239	19888.4
2826.96904	19869.3
2829.50412	19899.7
2832.03763	19854.3
2834.56959	19828
2837.1	19789.9
2839.62884	19791.3
2842.15613	19818
2844.68186	19831.9
2847.20604	19860
2849.72867	19813.7
2852.24974	19834.1
2854.76927	19858.3
2857.28724	19836.6
2859.80367	19808.5
2862.31855	19775.8
2864.83189	19782.6
2867.34368	19726.8
2869.85393	19715.3
2872.36264	19702
2874.8698	19713.5
2877.37543	19716.4
2879.87952	19727.2
2882.38207	19721.8
2884.88308	19700.1
2887.38256	19716.9
2889.88051	19703.6
2892.37692	19740.8
2894.8718	19749.5
2897.36515	19757.4
2899.85698	19787.7
2902.34727	19810.9
2904.83604	19834.5
2907.32328	19857.3
2909.809	19893.5
2912.29319	19932
2914.77587	19920.7
2917.25702	19892.8
2919.73665	19873.2
2922.21476	19872.6
2924.69136	19847.3
2927.16644	19846.8
2929.64	19726.1
2932.11205	19718.5
2934.58258	19668.6
2937.05161	19659.4
2939.51912	19650.1
2941.98513	19626.9
2944.44962	19594.7
2946.91261	19510
2949.37409	19519.3
2951.83407	19485.4
2954.29254	19461.6
2956.74951	19439.5
2959.20498	19401.9
2961.65895	19381.6
2964.11142	19366.2
2966.56239	19329.3
2969.01186	19281.4
2971.45984	19223
2973.90632	19212.9
2976.35131	19153.9
2978.7948	19102.7
2981.23681	19045.2
2983.67732	18988.2
2986.11635	18974.3
2988.55388	18915.5
2990.98993	18858.8
2993.4245	18809.3
2995.85758	18742.7
2998.28917	18721
3000.71928	18690
3003.14791	18668.5
3005.57506	18632.1
3008.00073	18568.1
3010.42493	18583.8
3012.84764	18520
3015.26888	18506.4
3017.68865	18451.6
3020.10694	18427.6
3022.52376	18352.5
3024.9391	18322.9
3027.35298	18318.9
3029.76539	18296.3
3032.17632	18295
3034.5858	18251.7
3036.9938	18218.8
3039.40034	18204.2
3041.80542	18220.1
3044.20903	18179.5
3046.61118	18182.4
3049.01187	18135
3051.4111	18125.8
3053.80888	18105.1
3056.20519	18056.3
3058.60005	17962.9
3060.99345	17936.6
3063.3854	17886.6
3065.7759	17803.1
3068.16494	17752.6
3070.55254	17693.2
3072.93868	17653.1
3075.32338	17576.6
3077.70662	17544.9
3080.08842	17485.5
3082.46878	17453.7
3084.84769	17375.5
3087.22515	17391.3
3089.60118	17369.1
3091.97576	17395.9
3094.3489	17366.4
3096.72061	17365.1
3099.09087	17334.8
3101.4597	17301.3
3103.82709	17302
3106.19305	17276.3
3108.55757	17241.9
3110.92066	17167.9
3113.28232	17181.1
3115.64255	17149
3118.00134	17094.1
3120.35871	17074.9
3122.71466	17059.4
3125.06917	16973.7
3127.42226	16902.3
3129.77393	16919.3
3132.12417	16886.9
3134.47299	16883.3
3136.82039	16837.3
3139.16636	16870.5
3141.51092	16839.4
3143.85406	16804.3
3146.19579	16789.3
3148.53609	16809.2
3150.87499	16805.8
3153.21246	16802
3155.54853	16791
3157.88318	16782.1
3160.21642	16800
3162.54826	16822.9
3164.87868	16785.9
3167.2077	16794.3
3169.5353	16794
3171.86151	16747.5
3174.18631	16745.7
3176.5097	16761.7
3178.83169	16729.6
3181.15228	16765.9
3183.47147	16702.4
3185.78926	16651.3
3188.10565	16641.3
3190.42065	16647
3192.73424	16607.3
3195.04645	16604.8
3197.35725	16606
3199.66667	16583.1
3201.97469	16617
3204.28132	16575.2
3206.58656	16586.4
3208.8904	16591.5
3211.19287	16614.5
3213.49394	16616
3215.79363	16647.8
3218.09193	16597.5
3220.38884	16617.6
3222.68438	16650.3
3224.97853	16598.1
3227.2713	16555.6
3229.56269	16589.4
3231.8527	16565.6
3234.14133	16506
3236.42858	16503.5
3238.71446	16492
3240.99896	16455
3243.28209	16450.7
3245.56384	16397.8
3247.84423	16386.1
3250.12324	16384.8
3252.40088	16309.8
3254.67715	16343.6
3256.95205	16325.6
3259.22558	16304.3
3261.49775	16256.5
3263.76855	16258.4
3266.03799	16217.5
3268.30606	16193.8
3270.57277	16158.6
3272.83812	16101.9
3275.10211	16056.8
3277.36474	16057.6
3279.62601	16069.7
3281.88593	16039.3
3284.14448	16030.6
3286.40168	16046.4
3288.65753	16031
3290.91202	15997
3293.16516	15993
3295.41695	15947.3
3297.66738	15889.2
3299.91647	15776.1
3302.16421	15662.1
3304.4106	15607
3306.65564	15484.6
3308.89933	15374.9
3311.14169	15260.8
3313.38269	15128.1
3315.62236	15057.6
3317.86068	14930.5
3320.09766	14793
3322.3333	14691.7
3324.5676	14653.2
3326.80056	14403.8
3329.03219	14315.8
3331.26248	4.1
3333.49143	-1.5
3335.71905	-0.3
