Data from AgNPs_FTO_APTES_UA_5uM_CRN_5uM_R6G_10uM_NaF_0.1M_Addition_RamanShift__11__11-57-36-681.txt Node

Date: Mon Feb 07 11:57:36 GMT 2022
User: TCL
Spectrometer: QEP01345
Trigger mode: 4
Integration Time (sec): 7.000000E0
Scans to average: 10
Electric dark correction enabled: true
Nonlinearity correction enabled: false
Boxcar width: 0
XAxis mode: Raman Shifts
Number of Pixels in Spectrum: 1044
>>>>>Begin Spectral Data<<<<<
46.04893	-0.1625
50.45542	-1.0625
54.85868	-0.6625
59.25871	0.5375
63.6555	100.9375
68.04907	106.6375
72.43941	115.7375
76.82654	118.2375
81.21044	121.8375
85.59113	123.8375
89.96862	130.6375
94.34289	133.5375
98.71396	136.1375
103.08183	144.1375
107.4465	147.7375
111.80798	146.5375
116.16626	152.9375
120.52136	165.4375
124.87327	172.8375
129.222	181.5375
133.56755	201.1375
137.90993	236.4375
142.24913	239.2375
146.58517	272.3375
150.91804	319.6375
155.24774	384.3375
159.57429	485.4375
163.89768	626.9375
168.21792	850.0375
172.53501	1161.3375
176.84895	1628.4375
181.15975	2283.9375
185.46741	3200.5375
189.77193	4415.9375
194.07331	5927.5375
198.37157	7610.5375
202.6667	9448.1375
206.9587	11215.4375
211.24758	12939.6375
215.53334	14652.7375
219.81599	16459.9375
224.09553	18478.3375
228.37195	20666.9375
232.64527	23081.1375
236.91549	25629.4375
241.18261	28155.5375
245.44663	30619.6375
249.70755	32819.8375
253.96539	34755.0375
258.22014	36374.8375
262.4718	37642.4375
266.72039	38475.8375
270.96589	38942.1375
275.20832	39055.1375
279.44768	38933.5375
283.68397	38726.5375
287.91719	38523.0375
292.14735	38420.8375
296.37445	38391.5375
300.59849	38435.0375
304.81948	38530.7375
309.03742	38528.5375
313.25231	38246.3375
317.46415	37576.6375
321.67296	36743.6375
325.87872	35927.7375
330.08145	35531.2375
334.28114	35408.9375
338.47781	35615.8375
342.67145	35919.3375
346.86207	36360.6375
351.04966	36788.9375
355.23424	37297.8375
359.4158	37731.9375
363.59435	38069.9375
367.76989	38299.9375
371.94243	38423.0375
376.11196	38449.1375
380.27849	38381.2375
384.44203	38418.0375
388.60257	38633.4375
392.76012	39109.8375
396.91468	39853.1375
401.06626	40602.5375
405.21485	41056.4375
409.36047	40877.8375
413.50311	40505.0375
417.64277	40378.1375
421.77947	40647.6375
425.9132	40965.5375
430.04396	41214.5375
434.17176	41286.3375
438.2966	41410.9375
442.41849	41736.8375
446.53742	42556.6375
450.6534	43543.3375
454.76644	44220.8375
458.87653	44605.6375
462.98368	44570.3375
467.08789	44257.6375
471.18916	43836.3375
475.2875	43284.9375
479.38291	43208.8375
483.4754	43197.5375
487.56496	42893.7375
491.6516	42237.3375
495.73531	41534.3375
499.81612	40881.6375
503.89401	40886.0375
507.96899	41122.5375
512.04106	41251.5375
516.11023	40971.1375
520.1765	40441.8375
524.23987	39721.3375
528.30034	39079.9375
532.35792	38602.6375
536.41261	38120.6375
540.46441	37816.4375
544.51333	37866.4375
548.55936	38348.4375
552.60252	39246.1375
556.64279	40153.0375
560.6802	40947.8375
564.71473	41775.8375
568.7464	42952.0375
572.7752	44972.0375
576.80114	47586.9375
580.82422	49947.0375
584.84444	51857.2375
588.86181	53931.5375
592.87633	55923.0375
596.888	55444.1375
600.89682	52243.8375
604.9028	50015.9375
608.90594	50481.5375
612.90624	51371.0375
616.90371	47748.1375
620.89834	41848.0375
624.89015	39551.2375
628.87913	39644.8375
632.86528	40245.1375
636.84862	40174.8375
640.82913	39222.4375
644.80683	38056.4375
648.78172	37299.3375
652.75379	37149.6375
656.72306	37434.3375
660.68952	37847.2375
664.65319	37722.1375
668.61405	37261.3375
672.57211	37200.4375
676.52738	37243.2375
680.47986	37206.2375
684.42955	36980.3375
688.37646	36795.0375
692.32058	36981.3375
696.26192	37524.5375
700.20048	38006.2375
704.13626	38397.4375
708.06928	38779.2375
711.99952	38838.2375
715.927	38712.0375
719.85171	38516.6375
723.77365	38079.1375
727.69284	37356.8375
731.60928	36717.7375
735.52295	36387.7375
739.43388	36273.2375
743.34206	36393.5375
747.24749	36643.0375
751.15017	37172.8375
755.05012	38017.0375
758.94733	39265.9375
762.8418	41121.5375
766.73354	43670.3375
770.62254	45758.8375
774.50882	45472.8375
778.39237	43241.8375
782.27321	40645.2375
786.15132	38684.4375
790.02671	37314.0375
793.89938	36540.3375
797.76935	36120.3375
801.6366	35951.2375
805.50115	35850.0375
809.36299	35726.6375
813.22213	35542.2375
817.07857	35452.7375
820.93231	35331.9375
824.78336	35198.4375
828.63172	34878.8375
832.47738	34671.4375
836.32036	34558.6375
840.16066	34580.0375
843.99827	34583.0375
847.8332	34577.9375
851.66546	34651.6375
855.49504	34787.0375
859.32195	34810.0375
863.1462	34652.3375
866.96777	34578.9375
870.78668	34522.3375
874.60293	34531.2375
878.41652	34455.7375
882.22745	34546.1375
886.03573	34632.7375
889.84136	34625.6375
893.64433	34519.0375
897.44466	34499.3375
901.24235	34464.0375
905.0374	34354.1375
908.8298	34348.4375
912.61957	34553.2375
916.40671	35037.9375
920.19121	35780.8375
923.97308	36369.6375
927.75233	36211.1375
931.52895	35507.0375
935.30295	34682.3375
939.07433	33903.7375
942.84309	33311.2375
946.60924	32962.8375
950.37278	32823.5375
954.13371	32855.4375
957.89203	32841.6375
961.64774	32917.2375
965.40086	32916.7375
969.15137	32865.2375
972.89929	32641.9375
976.64461	32416.1375
980.38733	32292.4375
984.12747	32258.8375
987.86502	32350.4375
991.59999	32517.8375
995.33237	32703.1375
999.06217	33069.7375
1002.78939	33714.6375
1006.51404	34330.6375
1010.23611	35014.2375
1013.95561	35464.3375
1017.67255	35510.6375
1021.38692	35107.9375
1025.09872	34511.2375
1028.80796	34013.0375
1032.51465	33782.4375
1036.21877	33808.5375
1039.92035	33991.5375
1043.61937	34255.3375
1047.31584	34399.7375
1051.00976	34628.5375
1054.70114	34839.1375
1058.38998	35231.1375
1062.07627	35790.2375
1065.76003	36508.0375
1069.44126	37230.0375
1073.11995	37961.4375
1076.79611	38486.0375
1080.46974	38641.9375
1084.14085	38758.9375
1087.80943	39241.1375
1091.47549	39783.8375
1095.13903	40157.8375
1098.80005	39663.0375
1102.45857	38474.8375
1106.11456	37285.2375
1109.76805	36578.3375
1113.41903	36315.9375
1117.06751	36406.0375
1120.71348	36696.6375
1124.35696	37078.4375
1127.99793	37461.0375
1131.63641	37797.9375
1135.2724	37935.1375
1138.90589	38105.6375
1142.5369	38372.0375
1146.16542	38843.8375
1149.79145	39484.1375
1153.415	40222.0375
1157.03607	41042.7375
1160.65467	42369.6375
1164.27079	44485.5375
1167.88443	46914.1375
1171.49561	49364.0375
1175.10432	51997.5375
1178.71056	55120.2375
1182.31434	58121.4375
1185.91565	59876.9375
1189.51451	60255.2375
1193.11091	59548.7375
1196.70485	58101.7375
1200.29634	56060.7375
1203.88538	54799.6375
1207.47197	54700.4375
1211.05612	54959.7375
1214.63782	54419.8375
1218.21708	52622.3375
1221.79391	50202.7375
1225.36829	48249.2375
1228.94024	47051.4375
1232.50976	46223.1375
1236.07685	45729.2375
1239.6415	45476.7375
1243.20374	45363.4375
1246.76355	45737.0375
1250.32093	46472.8375
1253.8759	47474.3375
1257.42845	48863.7375
1260.97859	50566.2375
1264.52631	52190.4375
1268.07163	53857.2375
1271.61453	55506.8375
1275.15503	57326.7375
1278.69312	59445.1375
1282.22882	61793.9375
1285.76211	64499.7375
1289.29301	67503.5375
1292.82151	71020.9375
1296.34761	75080.3375
1299.87133	79494.3375
1303.39266	83573.0375
1306.9116	86503.2375
1310.42815	88055.1375
1313.94233	88121.7375
1317.45412	87432.7375
1320.96354	86841.2375
1324.47058	86945.3375
1327.97525	87541.5375
1331.47754	88060.8375
1334.97747	88087.6375
1338.47502	87725.2375
1341.97022	87184.5375
1345.46305	86235.3375
1348.95352	84620.7375
1352.44163	82782.6375
1355.92738	81534.0375
1359.41078	81724.1375
1362.89183	82305.0375
1366.37053	81269.3375
1369.84688	76835.3375
1373.32088	70323.2375
1376.79254	65387.1375
1380.26186	63651.6375
1383.72883	64142.2375
1387.19347	64808.3375
1390.65578	64587.1375
1394.11575	64379.5375
1397.57339	64920.0375
1401.0287	65931.5375
1404.48168	66637.4375
1407.93234	66056.6375
1411.38068	64016.9375
1414.82669	61016.5375
1418.27039	57690.8375
1421.71177	54720.9375
1425.15083	52585.9375
1428.58758	51762.4375
1432.02203	52408.7375
1435.45416	54118.6375
1438.88399	56068.0375
1442.31151	57646.3375
1445.73673	58625.2375
1449.15965	59449.6375
1452.58027	59966.9375
1455.9986	60338.8375
1459.41463	60892.7375
1462.82837	61898.7375
1466.23982	62919.5375
1469.64898	63687.9375
1473.05586	63915.2375
1476.46045	63614.7375
1479.86276	62936.4375
1483.26279	62254.2375
1486.66054	61981.9375
1490.05602	62207.3375
1493.44922	62911.1375
1496.84016	63879.1375
1500.22882	65003.9375
1503.61521	66121.6375
1506.99934	67324.0375
1510.38121	68149.9375
1513.76081	68507.5375
1517.13816	68395.1375
1520.51324	68505.9375
1523.88607	69090.6375
1527.25665	69941.6375
1530.62498	70211.4375
1533.99105	69641.5375
1537.35488	68026.2375
1540.71647	65720.2375
1544.07581	62946.2375
1547.4329	60412.9375
1550.78776	58457.3375
1554.14038	57095.3375
1557.49077	56368.2375
1560.83892	55888.7375
1564.18484	55540.8375
1567.52853	55523.5375
1570.86999	55993.3375
1574.20922	57340.4375
1577.54624	58798.2375
1580.88103	59935.8375
1584.2136	61238.1375
1587.54395	63616.5375
1590.87208	66812.5375
1594.19801	70200.3375
1597.52172	72800.7375
1600.84321	72171.9375
1604.16251	67953.8375
1607.47959	62207.1375
1610.79447	56630.6375
1614.10715	51657.5375
1617.41763	47536.5375
1620.7259	44703.5375
1624.03199	43233.5375
1627.33587	43291.2375
1630.63757	44843.8375
1633.93707	48409.4375
1637.23439	54448.7375
1640.52951	63175.5375
1643.82246	73321.7375
1647.11321	81223.6375
1650.40179	82447.8375
1653.68819	75812.7375
1656.97241	64831.0375
1660.25446	54121.9375
1663.53433	45928.3375
1666.81203	40429.3375
1670.08756	36935.6375
1673.36092	34796.8375
1676.63211	33446.8375
1679.90115	32537.8375
1683.16801	31799.0375
1686.43272	31271.5375
1689.69527	30819.4375
1692.95567	30481.2375
1696.2139	30238.0375
1699.46999	30049.4375
1702.72392	29855.2375
1705.97571	29774.3375
1709.22535	29594.1375
1712.47284	29560.5375
1715.71819	29420.0375
1718.96139	29340.1375
1722.20246	29170.7375
1725.44139	29052.2375
1728.67818	28818.0375
1731.91284	28611.0375
1735.14537	28407.1375
1738.37576	28198.4375
1741.60403	28103.5375
1744.83017	27962.7375
1748.05418	27883.0375
1751.27607	27748.8375
1754.49584	27683.1375
1757.71349	27604.8375
1760.92903	27604.7375
1764.14244	27561.9375
1767.35375	27494.7375
1770.56294	27403.1375
1773.77002	27331.0375
1776.97499	27296.5375
1780.17785	27160.7375
1783.37861	27165.4375
1786.57727	27039.6375
1789.77382	26989.3375
1792.96828	26951.6375
1796.16064	26897.6375
1799.3509	26813.7375
1802.53907	26710.0375
1805.72514	26633.0375
1808.90913	26578.2375
1812.09102	26462.7375
1815.27083	26408.3375
1818.44856	26397.0375
1821.6242	26354.8375
1824.79776	26298.5375
1827.96924	26247.6375
1831.13864	26268.5375
1834.30597	26240.0375
1837.47122	26221.2375
1840.6344	26205.2375
1843.7955	26192.5375
1846.95454	26254.7375
1850.11151	26211.5375
1853.26642	26179.6375
1856.41926	26181.3375
1859.57004	26161.1375
1862.71876	26067.3375
1865.86542	26000.9375
1869.01003	25914.3375
1872.15258	25862.1375
1875.29308	25829.4375
1878.43152	25766.3375
1881.56792	25721.1375
1884.70227	25661.9375
1887.83457	25636.2375
1890.96482	25555.6375
1894.09304	25549.0375
1897.21921	25480.2375
1900.34335	25433.2375
1903.46544	25368.3375
1906.58551	25374.4375
1909.70353	25295.5375
1912.81953	25197.2375
1915.93349	25162.3375
1919.04543	25069.1375
1922.15534	24989.7375
1925.26322	24914.8375
1928.36908	24844.0375
1931.47292	24800.2375
1934.57473	24712.0375
1937.67453	24568.1375
1940.77232	24539.1375
1943.86808	24441.3375
1946.96184	24380.5375
1950.05358	24333.8375
1953.14331	24301.8375
1956.23103	24194.6375
1959.31675	24070.6375
1962.40046	24003.6375
1965.48217	23952.2375
1968.56188	23859.2375
1971.63959	23779.0375
1974.7153	23628.1375
1977.78901	23541.6375
1980.86073	23455.9375
1983.93046	23356.0375
1986.99819	23304.8375
1990.06394	23260.7375
1993.1277	23189.3375
1996.18947	23107.7375
1999.24925	23020.0375
2002.30706	22926.0375
2005.36288	22838.6375
2008.41672	22767.3375
2011.46859	22699.5375
2014.51848	22632.6375
2017.56639	22509.5375
2020.61233	22476.2375
2023.6563	22408.1375
2026.6983	22367.5375
2029.73833	22323.7375
2032.7764	22193.2375
2035.8125	22204.8375
2038.84664	22126.7375
2041.87881	22070.6375
2044.90903	22026.6375
2047.93729	21956.4375
2050.96359	21931.5375
2053.98794	21887.7375
2057.01034	21866.5375
2060.03078	21840.7375
2063.04927	21836.7375
2066.06582	21844.9375
2069.08042	21859.4375
2072.09307	21775.7375
2075.10378	21734.0375
2078.11255	21711.5375
2081.11938	21724.2375
2084.12426	21713.2375
2087.12722	21667.9375
2090.12824	21623.8375
2093.12732	21638.6375
2096.12447	21628.5375
2099.11969	21646.0375
2102.11299	21611.1375
2105.10435	21631.1375
2108.09379	21661.4375
2111.08131	21645.7375
2114.0669	21615.1375
2117.05057	21627.1375
2120.03233	21647.3375
2123.01216	21619.3375
2125.99008	21639.1375
2128.96609	21625.8375
2131.94018	21612.6375
2134.91236	21574.0375
2137.88263	21612.6375
2140.851	21628.2375
2143.81746	21622.0375
2146.78201	21532.4375
2149.74466	21521.1375
2152.7054	21489.4375
2155.66425	21498.7375
2158.6212	21466.0375
2161.57625	21445.9375
2164.52941	21451.3375
2167.48067	21476.9375
2170.43004	21470.4375
2173.37752	21391.8375
2176.32311	21384.9375
2179.26681	21360.1375
2182.20863	21374.4375
2185.14856	21382.9375
2188.08661	21385.9375
2191.02278	21403.5375
2193.95707	21359.0375
2196.88948	21326.2375
2199.82001	21234.8375
2202.74867	21193.3375
2205.67545	21169.6375
2208.60037	21100.4375
2211.52341	21090.9375
2214.44458	21068.9375
2217.36388	21013.9375
2220.28132	20962.7375
2223.1969	20929.9375
2226.11061	20877.4375
2229.02246	20861.9375
2231.93245	20881.6375
2234.84058	20820.1375
2237.74686	20775.5375
2240.65128	20764.4375
2243.55385	20723.0375
2246.45456	20668.0375
2249.35343	20550.9375
2252.25044	20536.6375
2255.14561	20469.2375
2258.03893	20403.4375
2260.93041	20341.8375
2263.82004	20296.6375
2266.70783	20170.4375
2269.59378	20146.0375
2272.4779	20049.1375
2275.36017	20016.5375
2278.24061	19990.4375
2281.11922	19921.2375
2283.996	19850.5375
2286.87094	19824.7375
2289.74405	19797.2375
2292.61534	19774.5375
2295.4848	19743.7375
2298.35243	19701.6375
2301.21824	19717.3375
2304.08223	19686.3375
2306.94439	19676.8375
2309.80474	19695.6375
2312.66327	19645.7375
2315.51999	19606.8375
2318.37489	19595.3375
2321.22797	19533.5375
2324.07925	19486.6375
2326.92871	19475.9375
2329.77637	19473.7375
2332.62222	19385.4375
2335.46626	19376.8375
2338.3085	19367.7375
2341.14893	19345.5375
2343.98756	19361.2375
2346.8244	19390.0375
2349.65943	19338.8375
2352.49267	19339.8375
2355.32411	19329.8375
2358.15376	19323.7375
2360.98161	19310.3375
2363.80768	19286.8375
2366.63195	19286.4375
2369.45444	19275.2375
2372.27514	19257.4375
2375.09405	19247.3375
2377.91118	19192.9375
2380.72652	19103.1375
2383.54009	19053.4375
2386.35187	19056.3375
2389.16188	18963.7375
2391.97011	18953.4375
2394.77657	18938.3375
2397.58125	18861.6375
2400.38416	18831.2375
2403.18529	18815.2375
2405.98466	18781.9375
2408.78226	18751.6375
2411.57809	18725.8375
2414.37216	18720.6375
2417.16446	18746.5375
2419.955	18695.3375
2422.74378	18676.6375
2425.5308	18637.3375
2428.31606	18608.6375
2431.09956	18607.5375
2433.88131	18586.7375
2436.6613	18601.3375
2439.43954	18586.7375
2442.21603	18555.5375
2444.99077	18526.3375
2447.76377	18534.3375
2450.53501	18513.0375
2453.30451	18493.5375
2456.07226	18437.9375
2458.83827	18445.5375
2461.60254	18451.2375
2464.36507	18434.1375
2467.12586	18395.7375
2469.88492	18384.2375
2472.64224	18416.3375
2475.39782	18408.5375
2478.15167	18422.7375
2480.90379	18386.3375
2483.65417	18357.4375
2486.40283	18402.8375
2489.14976	18408.0375
2491.89497	18369.9375
2494.63845	18391.0375
2497.3802	18381.0375
2500.12024	18369.6375
2502.85855	18351.9375
2505.59514	18326.6375
2508.33002	18322.5375
2511.06318	18313.7375
2513.79462	18275.5375
2516.52435	18259.6375
2519.25237	18261.7375
2521.97867	18264.8375
2524.70327	18251.1375
2527.42616	18211.9375
2530.14734	18210.5375
2532.86681	18205.4375
2535.58458	18221.3375
2538.30065	18181.5375
2541.01501	18188.0375
2543.72768	18151.6375
2546.43864	18108.7375
2549.14791	18103.7375
2551.85548	18121.0375
2554.56136	18058.4375
2557.26554	18026.7375
2559.96803	18020.1375
2562.66883	17956.6375
2565.36794	17947.6375
2568.06536	17911.0375
2570.7611	17913.5375
2573.45514	17905.7375
2576.14751	17887.9375
2578.83819	17832.7375
2581.52719	17865.2375
2584.21451	17819.5375
2586.90015	17823.7375
2589.58411	17799.5375
2592.2664	17782.8375
2594.94701	17749.7375
2597.62594	17738.7375
2600.30321	17718.0375
2602.9788	17708.7375
2605.65273	17737.8375
2608.32498	17760.7375
2610.99557	17740.9375
2613.66449	17741.6375
2616.33175	17718.8375
2618.99734	17698.6375
2621.66128	17650.1375
2624.32355	17679.3375
2626.98416	17615.1375
2629.64311	17609.1375
2632.30041	17618.0375
2634.95605	17586.5375
2637.61004	17602.0375
2640.26238	17525.1375
2642.91306	17547.2375
2645.56209	17576.9375
2648.20948	17567.6375
2650.85521	17615.0375
2653.4993	17612.8375
2656.14175	17601.5375
2658.78255	17603.4375
2661.42171	17603.2375
2664.05923	17651.1375
2666.6951	17621.2375
2669.32934	17684.3375
2671.96194	17631.8375
2674.59291	17683.3375
2677.22224	17664.5375
2679.84993	17667.8375
2682.476	17667.5375
2685.10043	17652.8375
2687.72324	17624.5375
2690.34441	17598.2375
2692.96396	17604.2375
2695.58188	17639.5375
2698.19818	17614.5375
2700.81285	17591.6375
2703.4259	17623.8375
2706.03733	17617.3375
2708.64714	17579.0375
2711.25533	17587.2375
2713.86191	17577.5375
2716.46687	17576.3375
2719.07021	17588.3375
2721.67194	17658.9375
2724.27206	17627.0375
2726.87057	17680.1375
2729.46747	17692.3375
2732.06276	17707.1375
2734.65644	17680.2375
2737.24852	17705.5375
2739.83899	17669.3375
2742.42786	17669.0375
2745.01513	17621.3375
2747.60079	17664.2375
2750.18486	17638.6375
2752.76733	17605.0375
2755.3482	17587.6375
2757.92747	17563.4375
2760.50515	17545.9375
2763.08123	17554.4375
2765.65573	17559.6375
2768.22863	17549.9375
2770.79994	17521.5375
2773.36967	17518.7375
2775.9378	17505.0375
2778.50435	17447.0375
2781.06932	17489.4375
2783.6327	17466.9375
2786.1945	17474.1375
2788.75471	17463.0375
2791.31335	17433.6375
2793.87041	17405.2375
2796.42589	17391.5375
2798.97979	17393.8375
2801.53212	17331.8375
2804.08288	17299.1375
2806.63206	17227.3375
2809.17967	17222.7375
2811.72571	17200.8375
2814.27018	17165.8375
2816.81308	17124.6375
2819.35442	17045.4375
2821.89419	17014.9375
2824.43239	17067.0375
2826.96904	17015.5375
2829.50412	17007.4375
2832.03763	17014.7375
2834.56959	16949.5375
2837.1	16929.5375
2839.62884	16901.7375
2842.15613	16878.4375
2844.68186	16922.7375
2847.20604	16942.7375
2849.72867	16935.8375
2852.24974	16907.2375
2854.76927	16922.0375
2857.28724	16906.2375
2859.80367	16883.6375
2862.31855	16850.4375
2864.83189	16810.8375
2867.34368	16779.6375
2869.85393	16746.5375
2872.36264	16692.2375
2874.8698	16658.0375
2877.37543	16681.6375
2879.87952	16637.1375
2882.38207	16629.7375
2884.88308	16641.1375
2887.38256	16635.5375
2889.88051	16609.1375
2892.37692	16639.4375
2894.8718	16609.3375
2897.36515	16657.7375
2899.85698	16663.1375
2902.34727	16661.8375
2904.83604	16662.6375
2907.32328	16709.3375
2909.809	16701.7375
2912.29319	16693.0375
2914.77587	16658.6375
2917.25702	16684.3375
2919.73665	16683.4375
2922.21476	16673.0375
2924.69136	16655.2375
2927.16644	16648.4375
2929.64	16624.9375
2932.11205	16599.8375
2934.58258	16571.0375
2937.05161	16562.1375
2939.51912	16568.0375
2941.98513	16511.4375
2944.44962	16515.6375
2946.91261	16417.8375
2949.37409	16422.7375
2951.83407	16397.8375
2954.29254	16391.2375
2956.74951	16337.7375
2959.20498	16343.5375
2961.65895	16291.8375
2964.11142	16314.9375
2966.56239	16210.1375
2969.01186	16229.6375
2971.45984	16188.4375
2973.90632	16200.8375
2976.35131	16172.4375
2978.7948	16092.8375
2981.23681	16068.3375
2983.67732	16015.1375
2986.11635	15988.0375
2988.55388	15965.3375
2990.98993	15902.4375
2993.4245	15836.3375
2995.85758	15794.9375
2998.28917	15694.4375
3000.71928	15672.6375
3003.14791	15658.6375
3005.57506	15608.3375
3008.00073	15542.1375
3010.42493	15541.7375
3012.84764	15482.3375
3015.26888	15463.3375
3017.68865	15416.8375
3020.10694	15384.4375
3022.52376	15330.5375
3024.9391	15338.1375
3027.35298	15296.6375
3029.76539	15274.5375
3032.17632	15273.9375
3034.5858	15230.4375
3036.9938	15227.9375
3039.40034	15208.5375
3041.80542	15182.2375
3044.20903	15166.4375
3046.61118	15150.0375
3049.01187	15095.2375
3051.4111	15119.2375
3053.80888	15088.8375
3056.20519	15011.0375
3058.60005	14953.3375
3060.99345	14889.1375
3063.3854	14842.9375
3065.7759	14756.0375
3068.16494	14745.1375
3070.55254	14695.1375
3072.93868	14625.2375
3075.32338	14557.2375
3077.70662	14533.3375
3080.08842	14493.1375
3082.46878	14466.5375
3084.84769	14417.2375
3087.22515	14395.3375
3089.60118	14364.4375
3091.97576	14384.2375
3094.3489	14346.3375
3096.72061	14335.4375
3099.09087	14335.0375
3101.4597	14307.1375
3103.82709	14315.2375
3106.19305	14287.1375
3108.55757	14241.4375
3110.92066	14189.6375
3113.28232	14174.3375
3115.64255	14092.8375
3118.00134	14102.7375
3120.35871	14066.7375
3122.71466	14015.5375
3125.06917	13941.5375
3127.42226	13883.5375
3129.77393	13881.0375
3132.12417	13837.0375
3134.47299	13849.1375
3136.82039	13839.0375
3139.16636	13800.0375
3141.51092	13763.3375
3143.85406	13813.1375
3146.19579	13777.4375
3148.53609	13773.0375
3150.87499	13767.3375
3153.21246	13781.1375
3155.54853	13746.1375
3157.88318	13724.2375
3160.21642	13745.8375
3162.54826	13724.9375
3164.87868	13724.4375
3167.2077	13725.8375
3169.5353	13696.2375
3171.86151	13692.4375
3174.18631	13654.2375
3176.5097	13638.3375
3178.83169	13642.8375
3181.15228	13632.7375
3183.47147	13568.1375
3185.78926	13548.4375
3188.10565	13522.4375
3190.42065	13494.3375
3192.73424	13475.9375
3195.04645	13441.4375
3197.35725	13406.8375
3199.66667	13360.7375
3201.97469	13360.3375
3204.28132	13332.4375
3206.58656	13347.7375
3208.8904	13327.6375
3211.19287	13348.8375
3213.49394	13313.7375
3215.79363	13352.2375
3218.09193	13314.9375
3220.38884	13291.6375
3222.68438	13329.9375
3224.97853	13288.1375
3227.2713	13258.3375
3229.56269	13236.7375
3231.8527	13264.5375
3234.14133	13178.4375
3236.42858	13175.6375
3238.71446	13161.1375
3240.99896	13131.5375
3243.28209	13085.3375
3245.56384	13061.3375
3247.84423	13058.4375
3250.12324	13029.4375
3252.40088	12991.9375
3254.67715	12946.8375
3256.95205	12927.6375
3259.22558	12927.4375
3261.49775	12888.7375
3263.76855	12856.5375
3266.03799	12782.2375
3268.30606	12763.4375
3270.57277	12779.2375
3272.83812	12698.0375
3275.10211	12731.9375
3277.36474	12679.8375
3279.62601	12672.0375
3281.88593	12666.8375
3284.14448	12661.5375
3286.40168	12672.9375
3288.65753	12658.3375
3290.91202	12636.7375
3293.16516	12594.4375
3295.41695	12574.8375
3297.66738	12514.2375
3299.91647	12447.2375
3302.16421	12331.7375
3304.4106	12272.8375
3306.65564	12160.8375
3308.89933	12060.9375
3311.14169	11960.5375
3313.38269	11825.2375
3315.62236	11771.0375
3317.86068	11636.5375
3320.09766	11542.7375
3322.3333	11426.5375
3324.5676	11378.8375
3326.80056	11168.6375
3329.03219	11119.4375
3331.26248	3.6375
3333.49143	-0.8625
3335.71905	-1.2625
