Data from AgNPs_FTO_APTES_UA_5uM_CRN_50uM_R6G_10uM_NaF_0.1M_Addition_RamanShift__8__13-51-56-812.txt Node

Date: Mon Feb 07 13:51:56 GMT 2022
User: TCL
Spectrometer: QEP01345
Trigger mode: 4
Integration Time (sec): 7.000000E0
Scans to average: 10
Electric dark correction enabled: true
Nonlinearity correction enabled: false
Boxcar width: 0
XAxis mode: Raman Shifts
Number of Pixels in Spectrum: 1044
>>>>>Begin Spectral Data<<<<<
46.04893	-1.2
50.45542	-2.4
54.85868	-0.5
59.25871	1.4
63.6555	77.6
68.04907	84.5
72.43941	87.6
76.82654	94.8
81.21044	95.3
85.59113	97.2
89.96862	106.5
94.34289	101.7
98.71396	107.8
103.08183	110.7
107.4465	115.5
111.80798	118
116.16626	122.7
120.52136	128.8
124.87327	134.5
129.222	146
133.56755	157.4
137.90993	168.6
142.24913	188.4
146.58517	221.9
150.91804	259.6
155.24774	318.4
159.57429	399.6
163.89768	516.6
168.21792	699
172.53501	952.6
176.84895	1330.6
181.15975	1882.9
185.46741	2641.7
189.77193	3665.1
194.07331	4877.2
198.37157	6298.5
202.6667	7768.1
206.9587	9229.2
211.24758	10681.4
215.53334	12094.5
219.81599	13613
224.09553	15283.6
228.37195	17078.9
232.64527	19016.7
236.91549	21084.6
241.18261	23115.2
245.44663	25111.3
249.70755	26909.2
253.96539	28485
258.22014	29769
262.4718	30882
266.72039	31645.3
270.96589	32059.6
275.20832	32183.7
279.44768	32100.5
283.68397	31891.4
287.91719	31721
292.14735	31670.4
296.37445	31723
300.59849	31842.4
304.81948	31911.1
309.03742	31886.7
313.25231	31560.9
317.46415	30901.2
321.67296	30167.7
325.87872	29501.3
330.08145	29207.7
334.28114	29086
338.47781	29162.4
342.67145	29373.5
346.86207	29737.5
351.04966	30138.8
355.23424	30589.7
359.4158	31011.1
363.59435	31333.6
367.76989	31570.4
371.94243	31710.7
376.11196	31724.3
380.27849	31739.6
384.44203	31802.6
388.60257	31983.3
392.76012	32437.8
396.91468	32975.5
401.06626	33578.5
405.21485	33900.1
409.36047	33756.1
413.50311	33438.3
417.64277	33299.1
421.77947	33505.1
425.9132	33734.6
430.04396	33949.3
434.17176	34079.5
438.2966	34335.5
442.41849	34780.3
446.53742	35731.4
450.6534	36700.6
454.76644	37334.7
458.87653	37645.1
462.98368	37546.7
467.08789	37181.6
471.18916	36795.1
475.2875	36535.3
479.38291	36584.1
483.4754	36616
487.56496	36216.5
491.6516	35349.4
495.73531	34431.3
499.81612	33802.5
503.89401	33681.8
507.96899	33826
512.04106	33784.3
516.11023	33472.9
520.1765	32973.2
524.23987	32358.9
528.30034	31842.1
532.35792	31525
536.41261	31155.1
540.46441	30911.1
544.51333	30963.4
548.55936	31434.9
552.60252	32170.5
556.64279	33123.2
560.6802	33922.7
564.71473	34617.8
568.7464	35725.5
572.7752	37518.4
576.80114	39451.6
580.82422	41098
584.84444	42728.2
588.86181	44765.5
592.87633	46380.3
596.888	45639.2
600.89682	42786.6
604.9028	40949
608.90594	41224.2
612.90624	41858.2
616.90371	38900.4
620.89834	33850.2
624.89015	31754.5
628.87913	31800.9
632.86528	32130.4
636.84862	31992.4
640.82913	31288.8
644.80683	30505.7
648.78172	30031.1
652.75379	29990.7
656.72306	30209.7
660.68952	30434
664.65319	30250.2
668.61405	29858.5
672.57211	29783.9
676.52738	29890.4
680.47986	29908.1
684.42955	29688.2
688.37646	29558.6
692.32058	29719.4
696.26192	30139.8
700.20048	30620.1
704.13626	30977.3
708.06928	31171.7
711.99952	31236.2
715.927	31193.9
719.85171	31194.5
723.77365	30845.6
727.69284	30314.8
731.60928	29829.4
735.52295	29515.6
739.43388	29493.6
743.34206	29533
747.24749	29782.5
751.15017	30234.9
755.05012	30990.5
758.94733	32001.5
762.8418	33477.7
766.73354	35531
770.62254	37092.9
774.50882	36840.5
778.39237	34962.3
782.27321	32775.3
786.15132	31079.4
790.02671	30047.2
793.89938	29467.5
797.76935	29184.4
801.6366	29109.5
805.50115	29055.3
809.36299	28947.9
813.22213	28786.3
817.07857	28730.6
820.93231	28658.1
824.78336	28384.4
828.63172	28104.1
832.47738	27912.2
836.32036	27856
840.16066	27835.9
843.99827	27903.1
847.8332	27897.7
851.66546	27882.4
855.49504	27919
859.32195	27890.8
863.1462	27769.2
866.96777	27688.3
870.78668	27584.8
874.60293	27563.9
878.41652	27523
882.22745	27575.8
886.03573	27625.6
889.84136	27608.2
893.64433	27544.9
897.44466	27495.1
901.24235	27398.9
905.0374	27341.8
908.8298	27386.9
912.61957	27506.1
916.40671	27920.3
920.19121	28616.9
923.97308	28976.6
927.75233	28818.8
931.52895	28232.8
935.30295	27541.4
939.07433	26889.7
942.84309	26449.4
946.60924	26211.3
950.37278	26158.1
954.13371	26179
957.89203	26195.7
961.64774	26257.3
965.40086	26268.8
969.15137	26158.8
972.89929	25929.2
976.64461	25701.5
980.38733	25591.9
984.12747	25557.8
987.86502	25666
991.59999	25762.5
995.33237	25971.8
999.06217	26310.8
1002.78939	26762.8
1006.51404	27255.4
1010.23611	27784.8
1013.95561	28172.9
1017.67255	28250.9
1021.38692	27904.8
1025.09872	27464.6
1028.80796	27070.8
1032.51465	26982.7
1036.21877	27087.5
1039.92035	27279.6
1043.61937	27408.1
1047.31584	27438
1051.00976	27522
1054.70114	27751.3
1058.38998	27977.9
1062.07627	28454.2
1065.76003	28960.6
1069.44126	29442.5
1073.11995	29988.1
1076.79611	30296.6
1080.46974	30412.9
1084.14085	30493
1087.80943	30854.3
1091.47549	31266.7
1095.13903	31522.6
1098.80005	31154.5
1102.45857	30237.8
1106.11456	29380.6
1109.76805	28873.1
1113.41903	28818.1
1117.06751	28952.8
1120.71348	29273.3
1124.35696	29536.2
1127.99793	29913.8
1131.63641	30245.6
1135.2724	30322.3
1138.90589	30445.5
1142.5369	30793.6
1146.16542	31305
1149.79145	31930.4
1153.415	32585.6
1157.03607	33454.6
1160.65467	34870
1164.27079	37029.4
1167.88443	39329.7
1171.49561	41505.5
1175.10432	43745.8
1178.71056	46559
1182.31434	49122.6
1185.91565	50321.2
1189.51451	50027.1
1193.11091	48968
1196.70485	47632.6
1200.29634	46185.2
1203.88538	45581.2
1207.47197	45832.6
1211.05612	46172.1
1214.63782	45527.2
1218.21708	43648.5
1221.79391	41393.1
1225.36829	39637.2
1228.94024	38554.3
1232.50976	37804
1236.07685	37269.7
1239.6415	37042.1
1243.20374	37082.3
1246.76355	37450
1250.32093	38064.5
1253.8759	38963
1257.42845	40039
1260.97859	41248.5
1264.52631	42489.1
1268.07163	43823.5
1271.61453	45161.9
1275.15503	46761.3
1278.69312	48700.2
1282.22882	50885.2
1285.76211	53495.7
1289.29301	56636.7
1292.82151	60344.1
1296.34761	64650.9
1299.87133	69313.2
1303.39266	73350.4
1306.9116	76024.4
1310.42815	77246.9
1313.94233	77322.6
1317.45412	76695
1320.96354	76035.1
1324.47058	75963.3
1327.97525	76343.7
1331.47754	76438
1334.97747	76182.6
1338.47502	75085.4
1341.97022	73552.5
1345.46305	71664
1348.95352	69748.1
1352.44163	68391
1355.92738	68285.5
1359.41078	69492.3
1362.89183	70477
1366.37053	69521.2
1369.84688	65215.3
1373.32088	58891.8
1376.79254	54507.3
1380.26186	53538.4
1383.72883	54628.8
1387.19347	55746.6
1390.65578	55759
1394.11575	55842.1
1397.57339	56699.5
1401.0287	57927.8
1404.48168	58788.7
1407.93234	58233.5
1411.38068	56081.9
1414.82669	52945
1418.27039	49580.9
1421.71177	46517.9
1425.15083	44243.4
1428.58758	43287
1432.02203	43732
1435.45416	45310.7
1438.88399	47258.3
1442.31151	48914.2
1445.73673	50011.9
1449.15965	50841.1
1452.58027	51400.6
1455.9986	51577.8
1459.41463	51774.7
1462.82837	52349.6
1466.23982	53071.5
1469.64898	53814.8
1473.05586	54138.4
1476.46045	54009
1479.86276	53429.1
1483.26279	52602.7
1486.66054	52153.1
1490.05602	52169.6
1493.44922	52523.7
1496.84016	52929.6
1500.22882	53336.3
1503.61521	53951.6
1506.99934	54704.7
1510.38121	55378.9
1513.76081	55714.8
1517.13816	55613.7
1520.51324	55716.2
1523.88607	56254.4
1527.25665	57196
1530.62498	57924.1
1533.99105	57788.1
1537.35488	56729.4
1540.71647	54681.1
1544.07581	52331
1547.4329	49951.5
1550.78776	48096.3
1554.14038	46815.6
1557.49077	46029.7
1560.83892	45588.5
1564.18484	45363
1567.52853	45404.4
1570.86999	46025.3
1574.20922	47490.8
1577.54624	49178.1
1580.88103	50505
1584.2136	52066
1587.54395	54415.2
1590.87208	57623.8
1594.19801	60894.5
1597.52172	63180.4
1600.84321	62670.8
1604.16251	58591
1607.47959	52752.6
1610.79447	47262.2
1614.10715	42619
1617.41763	39069.1
1620.7259	36734.8
1624.03199	35622.9
1627.33587	35865.6
1630.63757	37386
1633.93707	40739.9
1637.23439	46106.9
1640.52951	53838.9
1643.82246	62891.8
1647.11321	69855.4
1650.40179	71033.1
1653.68819	65009.1
1656.97241	54960.9
1660.25446	45272.6
1663.53433	37897.3
1666.81203	33053.7
1670.08756	30033.5
1673.36092	28172.8
1676.63211	26953.6
1679.90115	26164
1683.16801	25525.2
1686.43272	25074.1
1689.69527	24732.3
1692.95567	24457.5
1696.2139	24244.2
1699.46999	24107.1
1702.72392	23961.1
1705.97571	23815.9
1709.22535	23716.9
1712.47284	23592.5
1715.71819	23568.1
1718.96139	23384.7
1722.20246	23278.7
1725.44139	23165.7
1728.67818	22994.9
1731.91284	22836.7
1735.14537	22662
1738.37576	22517.6
1741.60403	22387
1744.83017	22260.9
1748.05418	22204.6
1751.27607	22189.8
1754.49584	22155.4
1757.71349	22113.1
1760.92903	22069.3
1764.14244	22020.7
1767.35375	22010.8
1770.56294	21933.6
1773.77002	21894.2
1776.97499	21803.4
1780.17785	21741.6
1783.37861	21684.9
1786.57727	21640.3
1789.77382	21574.3
1792.96828	21580.5
1796.16064	21449.7
1799.3509	21394.2
1802.53907	21329.7
1805.72514	21267.1
1808.90913	21214.8
1812.09102	21128.9
1815.27083	21064.8
1818.44856	21054.1
1821.6242	20989.6
1824.79776	20963.7
1827.96924	20956
1831.13864	20919.1
1834.30597	20909.3
1837.47122	20893.8
1840.6344	20866.5
1843.7955	20890.3
1846.95454	20850.8
1850.11151	20832.4
1853.26642	20836.3
1856.41926	20812.1
1859.57004	20786.2
1862.71876	20782.2
1865.86542	20701
1869.01003	20678.9
1872.15258	20617.6
1875.29308	20581
1878.43152	20522
1881.56792	20538.6
1884.70227	20476.5
1887.83457	20472
1890.96482	20448.9
1894.09304	20371.3
1897.21921	20344.4
1900.34335	20351.7
1903.46544	20328.4
1906.58551	20272
1909.70353	20246.4
1912.81953	20171.1
1915.93349	20118
1919.04543	20076.5
1922.15534	20035.4
1925.26322	19941.9
1928.36908	19911.3
1931.47292	19846.2
1934.57473	19826.1
1937.67453	19696.5
1940.77232	19699.2
1943.86808	19637.9
1946.96184	19560.5
1950.05358	19541.8
1953.14331	19507.6
1956.23103	19406.3
1959.31675	19361
1962.40046	19271.9
1965.48217	19185
1968.56188	19123.1
1971.63959	19074
1974.7153	18953.5
1977.78901	18928.8
1980.86073	18832.8
1983.93046	18784.8
1986.99819	18707.8
1990.06394	18665.9
1993.1277	18619.6
1996.18947	18576
1999.24925	18507.2
2002.30706	18474.7
2005.36288	18366.6
2008.41672	18334.5
2011.46859	18288.3
2014.51848	18216
2017.56639	18127
2020.61233	18094.8
2023.6563	18041.7
2026.6983	17996.6
2029.73833	17939.9
2032.7764	17878.5
2035.8125	17880.3
2038.84664	17800.7
2041.87881	17783.4
2044.90903	17734.4
2047.93729	17687.9
2050.96359	17685.8
2053.98794	17663.8
2057.01034	17639.2
2060.03078	17626.1
2063.04927	17590.5
2066.06582	17592.3
2069.08042	17579.4
2072.09307	17513.5
2075.10378	17505.3
2078.11255	17506.8
2081.11938	17488.7
2084.12426	17484.2
2087.12722	17466.8
2090.12824	17439.4
2093.12732	17405.8
2096.12447	17426.2
2099.11969	17405.9
2102.11299	17421.3
2105.10435	17417.8
2108.09379	17433.4
2111.08131	17431.5
2114.0669	17456.6
2117.05057	17444.3
2120.03233	17433.5
2123.01216	17413
2125.99008	17472.6
2128.96609	17458.5
2131.94018	17433.2
2134.91236	17418.4
2137.88263	17404.8
2140.851	17422.4
2143.81746	17422.5
2146.78201	17417.8
2149.74466	17338.1
2152.7054	17331.1
2155.66425	17344
2158.6212	17335.9
2161.57625	17318.1
2164.52941	17293.4
2167.48067	17288.6
2170.43004	17303.4
2173.37752	17254.3
2176.32311	17243.6
2179.26681	17270.5
2182.20863	17257.3
2185.14856	17266.9
2188.08661	17238.3
2191.02278	17264.9
2193.95707	17213
2196.88948	17201.8
2199.82001	17156.6
2202.74867	17112.3
2205.67545	17103.3
2208.60037	17046.1
2211.52341	17000.1
2214.44458	17013
2217.36388	16992.1
2220.28132	16935.9
2223.1969	16874.4
2226.11061	16910
2229.02246	16835.8
2231.93245	16823.8
2234.84058	16800.7
2237.74686	16745.8
2240.65128	16745.7
2243.55385	16708.3
2246.45456	16669.2
2249.35343	16615.2
2252.25044	16569.2
2255.14561	16541.8
2258.03893	16481.1
2260.93041	16434.4
2263.82004	16372.6
2266.70783	16349.2
2269.59378	16269.7
2272.4779	16219.7
2275.36017	16160.2
2278.24061	16141.6
2281.11922	16100.8
2283.996	16090.7
2286.87094	16023.7
2289.74405	16009.6
2292.61534	15966.4
2295.4848	15981.8
2298.35243	15956.6
2301.21824	15969.3
2304.08223	15933.2
2306.94439	15963.8
2309.80474	15919.9
2312.66327	15906.2
2315.51999	15902.6
2318.37489	15872.6
2321.22797	15823.2
2324.07925	15808.7
2326.92871	15786.8
2329.77637	15735
2332.62222	15693.3
2335.46626	15707.3
2338.3085	15658.8
2341.14893	15680.9
2343.98756	15694.8
2346.8244	15646.4
2349.65943	15677.5
2352.49267	15667.2
2355.32411	15682.8
2358.15376	15677.7
2360.98161	15652.2
2363.80768	15637
2366.63195	15627.4
2369.45444	15620
2372.27514	15581.8
2375.09405	15564.7
2377.91118	15510.2
2380.72652	15479.6
2383.54009	15442.9
2386.35187	15416.5
2389.16188	15365.7
2391.97011	15356.9
2394.77657	15301.7
2397.58125	15292.3
2400.38416	15294.9
2403.18529	15241.7
2405.98466	15226.7
2408.78226	15209.9
2411.57809	15180.7
2414.37216	15177.3
2417.16446	15186.9
2419.955	15154.8
2422.74378	15149.5
2425.5308	15097.1
2428.31606	15086.3
2431.09956	15104.9
2433.88131	15077.7
2436.6613	15084.8
2439.43954	15072
2442.21603	15066.6
2444.99077	15050.3
2447.76377	15052
2450.53501	15010.7
2453.30451	15031.8
2456.07226	14976.6
2458.83827	14977.6
2461.60254	14991.5
2464.36507	14982.7
2467.12586	14952.9
2469.88492	14941.9
2472.64224	14979.5
2475.39782	15006
2478.15167	14992.8
2480.90379	14943.9
2483.65417	14916.4
2486.40283	14961.5
2489.14976	14981.5
2491.89497	14940.4
2494.63845	14985.1
2497.3802	14982.6
2500.12024	14974.2
2502.85855	14908.2
2505.59514	14938.7
2508.33002	14932.6
2511.06318	14897.4
2513.79462	14904.2
2516.52435	14908.5
2519.25237	14909.7
2521.97867	14874.9
2524.70327	14862.4
2527.42616	14831.4
2530.14734	14845.1
2532.86681	14828.2
2535.58458	14851.9
2538.30065	14818.5
2541.01501	14806.7
2543.72768	14799.9
2546.43864	14790.7
2549.14791	14760.8
2551.85548	14754.6
2554.56136	14744.3
2557.26554	14717.8
2559.96803	14700.5
2562.66883	14677.1
2565.36794	14654.2
2568.06536	14656.6
2570.7611	14625.8
2573.45514	14644.6
2576.14751	14626.3
2578.83819	14589.7
2581.52719	14588.1
2584.21451	14571
2586.90015	14596.2
2589.58411	14588.8
2592.2664	14590.8
2594.94701	14553.2
2597.62594	14559.4
2600.30321	14542.8
2602.9788	14553
2605.65273	14507.5
2608.32498	14561
2610.99557	14544.2
2613.66449	14568.1
2616.33175	14552
2618.99734	14555.3
2621.66128	14542.2
2624.32355	14499.4
2626.98416	14529.6
2629.64311	14488.1
2632.30041	14512.3
2634.95605	14506
2637.61004	14481.7
2640.26238	14466.1
2642.91306	14487.4
2645.56209	14464.5
2648.20948	14496.4
2650.85521	14499.3
2653.4993	14499
2656.14175	14501.6
2658.78255	14514.5
2661.42171	14525.4
2664.05923	14543.3
2666.6951	14557.3
2669.32934	14557.2
2671.96194	14540.4
2674.59291	14553.9
2677.22224	14550.9
2679.84993	14592.8
2682.476	14549.7
2685.10043	14550
2687.72324	14517.3
2690.34441	14515
2692.96396	14507.9
2695.58188	14515.2
2698.19818	14499.2
2700.81285	14523.6
2703.4259	14543
2706.03733	14607.4
2708.64714	14546.5
2711.25533	14558.7
2713.86191	14539.1
2716.46687	14555.7
2719.07021	14591.7
2721.67194	14604.6
2724.27206	14642.9
2726.87057	14642.5
2729.46747	14625.8
2732.06276	14664
2734.65644	14667.7
2737.24852	14675
2739.83899	14662
2742.42786	14647.9
2745.01513	14587
2747.60079	14611.4
2750.18486	14613.5
2752.76733	14572.8
2755.3482	14548.7
2757.92747	14593.7
2760.50515	14591.8
2763.08123	14568
2765.65573	14578.3
2768.22863	14585.5
2770.79994	14553.7
2773.36967	14588.7
2775.9378	14553.2
2778.50435	14548.4
2781.06932	14553.6
2783.6327	14553.1
2786.1945	14555.1
2788.75471	14580.9
2791.31335	14525.4
2793.87041	14524.8
2796.42589	14471.7
2798.97979	14495.1
2801.53212	14462.9
2804.08288	14449.4
2806.63206	14343.1
2809.17967	14337.6
2811.72571	14320
2814.27018	14317.3
2816.81308	14278.1
2819.35442	14235.4
2821.89419	14220.2
2824.43239	14231.7
2826.96904	14224.4
2829.50412	14213.9
2832.03763	14166
2834.56959	14162.6
2837.1	14166.1
2839.62884	14157.7
2842.15613	14169.7
2844.68186	14195.1
2847.20604	14190.2
2849.72867	14213.5
2852.24974	14186.6
2854.76927	14195.1
2857.28724	14203.5
2859.80367	14165.3
2862.31855	14133.6
2864.83189	14127.2
2867.34368	14061.7
2869.85393	14066
2872.36264	14034.1
2874.8698	14011.5
2877.37543	14002.4
2879.87952	13974.3
2882.38207	13999.7
2884.88308	13990.9
2887.38256	13950.7
2889.88051	13977.2
2892.37692	13990.6
2894.8718	13980.3
2897.36515	14009.7
2899.85698	14008.9
2902.34727	14019.4
2904.83604	14026.3
2907.32328	14064.8
2909.809	14035.7
2912.29319	14049.5
2914.77587	14053
2917.25702	14028.4
2919.73665	14043.3
2922.21476	14061.9
2924.69136	14030.1
2927.16644	14061
2929.64	13975
2932.11205	13977.4
2934.58258	13975
2937.05161	13991.5
2939.51912	13974.1
2941.98513	13944.1
2944.44962	13911.6
2946.91261	13826.4
2949.37409	13848.5
2951.83407	13834.3
2954.29254	13816.3
2956.74951	13801.8
2959.20498	13779.6
2961.65895	13738.8
2964.11142	13740.3
2966.56239	13711.5
2969.01186	13705.1
2971.45984	13704.7
2973.90632	13674.1
2976.35131	13664.1
2978.7948	13610.7
2981.23681	13568.8
2983.67732	13547.8
2986.11635	13485.9
2988.55388	13455.4
2990.98993	13417.6
2993.4245	13354.2
2995.85758	13309.9
2998.28917	13259.7
3000.71928	13241.4
3003.14791	13236.6
3005.57506	13183.7
3008.00073	13123.2
3010.42493	13010.5
3012.84764	13061.9
3015.26888	13032.1
3017.68865	13000.8
3020.10694	12990.9
3022.52376	12954.5
3024.9391	12937.9
3027.35298	12936.5
3029.76539	12915.7
3032.17632	12898
3034.5858	12855.1
3036.9938	12871.6
3039.40034	12863.7
3041.80542	12881.8
3044.20903	12851.1
3046.61118	12826.1
3049.01187	12782.7
3051.4111	12759
3053.80888	12747.3
3056.20519	12721.6
3058.60005	12656.4
3060.99345	12647.8
3063.3854	12594
3065.7759	12522.3
3068.16494	12454.8
3070.55254	12406.7
3072.93868	12387.7
3075.32338	12327.3
3077.70662	12310.4
3080.08842	12269.4
3082.46878	12255.8
3084.84769	12205.9
3087.22515	12201.5
3089.60118	12197.8
3091.97576	12188.7
3094.3489	12184.3
3096.72061	12143.4
3099.09087	12135.9
3101.4597	12122.4
3103.82709	12160.2
3106.19305	12108.1
3108.55757	12074.8
3110.92066	12029.4
3113.28232	12029.1
3115.64255	12015.1
3118.00134	11973.4
3120.35871	11958.9
3122.71466	11938
3125.06917	11879.3
3127.42226	11845.8
3129.77393	11825.1
3132.12417	11809.9
3134.47299	11795.5
3136.82039	11785.6
3139.16636	11754.8
3141.51092	11726.7
3143.85406	11740.2
3146.19579	11709.4
3148.53609	11714.6
3150.87499	11721.7
3153.21246	11713.7
3155.54853	11718.9
3157.88318	11718.3
3160.21642	11713.3
3162.54826	11678.7
3164.87868	11709.5
3167.2077	11696.4
3169.5353	11700.2
3171.86151	11679.5
3174.18631	11672.1
3176.5097	11655.5
3178.83169	11651
3181.15228	11613.1
3183.47147	11590.1
3185.78926	11575.7
3188.10565	11551.2
3190.42065	11525.3
3192.73424	11516.1
3195.04645	11503.7
3197.35725	11466.8
3199.66667	11425.1
3201.97469	11432.6
3204.28132	11429
3206.58656	11443.3
3208.8904	11425.8
3211.19287	11395.6
3213.49394	11415.7
3215.79363	11405.8
3218.09193	11384.6
3220.38884	11381.7
3222.68438	11387.3
3224.97853	11363.4
3227.2713	11384.1
3229.56269	11345.8
3231.8527	11337.4
3234.14133	11319.2
3236.42858	11305.4
3238.71446	11288.8
3240.99896	11265.5
3243.28209	11272.8
3245.56384	11221.3
3247.84423	11221.4
3250.12324	11182.6
3252.40088	11133.8
3254.67715	11148.7
3256.95205	11117.1
3259.22558	11096.5
3261.49775	11078.4
3263.76855	11049
3266.03799	11022.7
3268.30606	10989.1
3270.57277	10972
3272.83812	10934.3
3275.10211	10908.1
3277.36474	10903.2
3279.62601	10887.5
3281.88593	10882.5
3284.14448	10927.1
3286.40168	10912.7
3288.65753	10908.8
3290.91202	10900
3293.16516	10875.8
3295.41695	10838.9
3297.66738	10767.9
3299.91647	10692.8
3302.16421	10625.4
3304.4106	10579.9
3306.65564	10491
3308.89933	10398.8
3311.14169	10300
3313.38269	10239
3315.62236	10156.5
3317.86068	10082.2
3320.09766	9977.6
3322.3333	9896.8
3324.5676	9841.8
3326.80056	9675.1
3329.03219	9615.9
3331.26248	2.4
3333.49143	-0.8
3335.71905	0.9
