Data from AgNPs_FTO_APTES_UA_5uM_CRN_1000uM_R6G_10uM_NaF_0.1M_Addition_RamanShift__10__17-35-31-873.txt Node

Date: Mon Feb 07 17:35:31 GMT 2022
User: TCL
Spectrometer: QEP01345
Trigger mode: 4
Integration Time (sec): 7.000000E0
Scans to average: 10
Electric dark correction enabled: true
Nonlinearity correction enabled: false
Boxcar width: 0
XAxis mode: Raman Shifts
Number of Pixels in Spectrum: 1044
>>>>>Begin Spectral Data<<<<<
46.04893	-1.2125
50.45542	-0.5125
54.85868	0.0875
59.25871	-0.3125
63.6555	55.5875
68.04907	59.7875
72.43941	62.9875
76.82654	63.9875
81.21044	64.8875
85.59113	62.8875
89.96862	72.0875
94.34289	72.2875
98.71396	75.0875
103.08183	79.4875
107.4465	79.3875
111.80798	83.0875
116.16626	86.9875
120.52136	88.5875
124.87327	91.2875
129.222	101.0875
133.56755	102.3875
137.90993	113.1875
142.24913	126.5875
146.58517	139.3875
150.91804	165.8875
155.24774	203.0875
159.57429	254.2875
163.89768	323.9875
168.21792	435.2875
172.53501	586.9875
176.84895	829.9875
181.15975	1157.4875
185.46741	1643.6875
189.77193	2267.0875
194.07331	3034.4875
198.37157	3921.8875
202.6667	4849.7875
206.9587	5779.3875
211.24758	6678.3875
215.53334	7591.3875
219.81599	8527.3875
224.09553	9578.0875
228.37195	10711.0875
232.64527	11933.6875
236.91549	13211.7875
241.18261	14546.6875
245.44663	15819.1875
249.70755	16943.2875
253.96539	17945.6875
258.22014	18821.0875
262.4718	19444.8875
266.72039	19945.6875
270.96589	20277.3875
275.20832	20343.3875
279.44768	20266.1875
283.68397	20215.4875
287.91719	20053.5875
292.14735	20025.0875
296.37445	20060.1875
300.59849	20129.6875
304.81948	20160.8875
309.03742	20107.4875
313.25231	19868.5875
317.46415	19479.0875
321.67296	19001.0875
325.87872	18563.5875
330.08145	18345.2875
334.28114	18264.1875
338.47781	18317.6875
342.67145	18487.1875
346.86207	18744.3875
351.04966	18953.3875
355.23424	19215.6875
359.4158	19412.2875
363.59435	19531.8875
367.76989	19709.0875
371.94243	19801.8875
376.11196	19852.1875
380.27849	19889.4875
384.44203	19976.9875
388.60257	20124.4875
392.76012	20366.8875
396.91468	20678.1875
401.06626	20971.2875
405.21485	21125.5875
409.36047	21062.7875
413.50311	20773.1875
417.64277	20627.7875
421.77947	20666.9875
425.9132	20840.0875
430.04396	20979.1875
434.17176	21099.2875
438.2966	21293.3875
442.41849	21542.6875
446.53742	22086.3875
450.6534	22662.4875
454.76644	23076.5875
458.87653	23253.9875
462.98368	23257.0875
467.08789	23151.9875
471.18916	22992.8875
475.2875	22882.8875
479.38291	22913.0875
483.4754	22910.3875
487.56496	22646.8875
491.6516	22179.8875
495.73531	21632.9875
499.81612	21302.6875
503.89401	21264.0875
507.96899	21249.3875
512.04106	21213.3875
516.11023	21069.0875
520.1765	20830.6875
524.23987	20611.2875
528.30034	20398.4875
532.35792	20238.2875
536.41261	20043.3875
540.46441	19876.5875
544.51333	19946.8875
548.55936	20205.4875
552.60252	20694.9875
556.64279	21249.8875
560.6802	21728.1875
564.71473	22085.4875
568.7464	22624.8875
572.7752	23451.3875
576.80114	24274.2875
580.82422	24867.9875
584.84444	25413.9875
588.86181	26153.7875
592.87633	26762.7875
596.888	26494.9875
600.89682	25461.5875
604.9028	24816.9875
608.90594	25457.8875
612.90624	26282.4875
616.90371	24682.2875
620.89834	21529.3875
624.89015	20117.4875
628.87913	20051.3875
632.86528	20286.4875
636.84862	20362.9875
640.82913	20112.1875
644.80683	19669.0875
648.78172	19383.4875
652.75379	19294.9875
656.72306	19399.7875
660.68952	19585.7875
664.65319	19447.2875
668.61405	19258.6875
672.57211	19214.6875
676.52738	19295.0875
680.47986	19374.4875
684.42955	19281.1875
688.37646	19221.1875
692.32058	19224.5875
696.26192	19357.6875
700.20048	19558.8875
704.13626	19713.8875
708.06928	19835.0875
711.99952	19849.1875
715.927	19819.6875
719.85171	19789.4875
723.77365	19622.1875
727.69284	19406.2875
731.60928	19204.6875
735.52295	19083.3875
739.43388	19064.4875
743.34206	19102.2875
747.24749	19182.6875
751.15017	19377.0875
755.05012	19735.8875
758.94733	20285.3875
762.8418	21204.6875
766.73354	22540.0875
770.62254	23707.7875
774.50882	23787.7875
778.39237	22682.3875
782.27321	21264.2875
786.15132	20167.8875
790.02671	19434.8875
793.89938	19039.9875
797.76935	18915.0875
801.6366	18809.3875
805.50115	18758.2875
809.36299	18703.6875
813.22213	18579.0875
817.07857	18600.4875
820.93231	18556.5875
824.78336	18404.2875
828.63172	18318.4875
832.47738	18218.1875
836.32036	18129.3875
840.16066	18156.4875
843.99827	18120.5875
847.8332	18110.9875
851.66546	18090.1875
855.49504	18125.5875
859.32195	18088.4875
863.1462	18030.3875
866.96777	18047.6875
870.78668	17983.7875
874.60293	18001.3875
878.41652	17987.6875
882.22745	18071.9875
886.03573	18064.6875
889.84136	18096.0875
893.64433	18069.2875
897.44466	18033.5875
901.24235	17967.3875
905.0374	17911.7875
908.8298	17878.5875
912.61957	17922.5875
916.40671	18147.9875
920.19121	18435.8875
923.97308	18609.4875
927.75233	18501.6875
931.52895	18270.2875
935.30295	17936.8875
939.07433	17565.3875
942.84309	17300.9875
946.60924	17136.3875
950.37278	17094.6875
954.13371	17078.9875
957.89203	17100.1875
961.64774	17095.2875
965.40086	17051.5875
969.15137	17022.4875
972.89929	16869.7875
976.64461	16757.6875
980.38733	16645.3875
984.12747	16662.5875
987.86502	16691.6875
991.59999	16726.2875
995.33237	16838.7875
999.06217	16984.9875
1002.78939	17193.7875
1006.51404	17465.3875
1010.23611	17714.3875
1013.95561	17891.6875
1017.67255	18022.1875
1021.38692	17945.1875
1025.09872	17647.3875
1028.80796	17399.6875
1032.51465	17296.3875
1036.21877	17312.3875
1039.92035	17388.2875
1043.61937	17492.8875
1047.31584	17566.3875
1051.00976	17672.5875
1054.70114	17775.6875
1058.38998	17899.1875
1062.07627	18128.3875
1065.76003	18414.1875
1069.44126	18610.5875
1073.11995	18829.9875
1076.79611	19000.4875
1080.46974	19080.8875
1084.14085	19103.2875
1087.80943	19266.4875
1091.47549	19468.5875
1095.13903	19575.1875
1098.80005	19404.6875
1102.45857	18974.1875
1106.11456	18546.0875
1109.76805	18308.5875
1113.41903	18253.0875
1117.06751	18363.6875
1120.71348	18585.9875
1124.35696	18846.7875
1127.99793	19161.0875
1131.63641	19409.2875
1135.2724	19310.7875
1138.90589	19188.3875
1142.5369	19249.5875
1146.16542	19512.9875
1149.79145	19830.6875
1153.415	20093.5875
1157.03607	20479.6875
1160.65467	21098.5875
1164.27079	22084.4875
1167.88443	23250.8875
1171.49561	24486.5875
1175.10432	25948.9875
1178.71056	27651.4875
1182.31434	29199.4875
1185.91565	30043.2875
1189.51451	30048.2875
1193.11091	29550.9875
1196.70485	28776.5875
1200.29634	27817.4875
1203.88538	27199.3875
1207.47197	26941.4875
1211.05612	26662.1875
1214.63782	26166.3875
1218.21708	25330.2875
1221.79391	24447.0875
1225.36829	23769.0875
1228.94024	23328.4875
1232.50976	22933.4875
1236.07685	22624.6875
1239.6415	22425.9875
1243.20374	22430.0875
1246.76355	22553.5875
1250.32093	22784.5875
1253.8759	23190.0875
1257.42845	23761.5875
1260.97859	24385.7875
1264.52631	25019.8875
1268.07163	25651.4875
1271.61453	26290.5875
1275.15503	27053.5875
1278.69312	27958.0875
1282.22882	28922.7875
1285.76211	30164.8875
1289.29301	31639.2875
1292.82151	33424.7875
1296.34761	35523.9875
1299.87133	37745.9875
1303.39266	39712.1875
1306.9116	41195.6875
1310.42815	42240.4875
1313.94233	42649.3875
1317.45412	42445.5875
1320.96354	41985.2875
1324.47058	41731.6875
1327.97525	41452.2875
1331.47754	41292.2875
1334.97747	41060.9875
1338.47502	40683.7875
1341.97022	40262.3875
1345.46305	39779.5875
1348.95352	39177.3875
1352.44163	38855.6875
1355.92738	38897.8875
1359.41078	39611.7875
1362.89183	40239.8875
1366.37053	39578.1875
1369.84688	37020.8875
1373.32088	33652.9875
1376.79254	31234.6875
1380.26186	30560.4875
1383.72883	30816.0875
1387.19347	31100.9875
1390.65578	31169.7875
1394.11575	31292.9875
1397.57339	31573.3875
1401.0287	32007.2875
1404.48168	32160.4875
1407.93234	31788.8875
1411.38068	30705.6875
1414.82669	29264.0875
1418.27039	27705.3875
1421.71177	26266.8875
1425.15083	25135.7875
1428.58758	24562.0875
1432.02203	24757.6875
1435.45416	25404.6875
1438.88399	26231.6875
1442.31151	26922.2875
1445.73673	27338.0875
1449.15965	27790.7875
1452.58027	28142.0875
1455.9986	28351.2875
1459.41463	28591.3875
1462.82837	28932.4875
1466.23982	29273.2875
1469.64898	29584.0875
1473.05586	29653.8875
1476.46045	29595.1875
1479.86276	29272.8875
1483.26279	28891.7875
1486.66054	28667.4875
1490.05602	28728.8875
1493.44922	28964.9875
1496.84016	29351.5875
1500.22882	29911.0875
1503.61521	30720.0875
1506.99934	31639.8875
1510.38121	32427.5875
1513.76081	32706.3875
1517.13816	32394.7875
1520.51324	31931.6875
1523.88607	31722.1875
1527.25665	31788.3875
1530.62498	31985.5875
1533.99105	31850.9875
1537.35488	31437.7875
1540.71647	30568.0875
1544.07581	29524.5875
1547.4329	28444.9875
1550.78776	27508.8875
1554.14038	26834.8875
1557.49077	26464.1875
1560.83892	26216.2875
1564.18484	26206.8875
1567.52853	26302.3875
1570.86999	26705.7875
1574.20922	27426.1875
1577.54624	28169.9875
1580.88103	28526.4875
1584.2136	28885.4875
1587.54395	29622.9875
1590.87208	30737.6875
1594.19801	32043.8875
1597.52172	33355.3875
1600.84321	33470.5875
1604.16251	31919.9875
1607.47959	29393.5875
1610.79447	26793.3875
1614.10715	24494.2875
1617.41763	22657.9875
1620.7259	21366.6875
1624.03199	20649.1875
1627.33587	20660.7875
1630.63757	21284.6875
1633.93707	22722.5875
1637.23439	25121.5875
1640.52951	28587.9875
1643.82246	32744.6875
1647.11321	36085.4875
1650.40179	36871.8875
1653.68819	34359.6875
1656.97241	29814.5875
1660.25446	25197.0875
1663.53433	21599.1875
1666.81203	19232.7875
1670.08756	17726.1875
1673.36092	16773.6875
1676.63211	16157.6875
1679.90115	15723.6875
1683.16801	15396.5875
1686.43272	15162.5875
1689.69527	14946.4875
1692.95567	14829.4875
1696.2139	14703.8875
1699.46999	14609.9875
1702.72392	14508.9875
1705.97571	14440.1875
1709.22535	14416.8875
1712.47284	14361.9875
1715.71819	14303.0875
1718.96139	14249.6875
1722.20246	14173.7875
1725.44139	14080.7875
1728.67818	13992.8875
1731.91284	13918.0875
1735.14537	13833.7875
1738.37576	13760.6875
1741.60403	13683.1875
1744.83017	13622.8875
1748.05418	13620.6875
1751.27607	13580.9875
1754.49584	13530.7875
1757.71349	13514.4875
1760.92903	13506.3875
1764.14244	13477.7875
1767.35375	13476.2875
1770.56294	13439.9875
1773.77002	13383.5875
1776.97499	13311.9875
1780.17785	13296.3875
1783.37861	13265.2875
1786.57727	13237.4875
1789.77382	13195.1875
1792.96828	13151.6875
1796.16064	13107.0875
1799.3509	13052.0875
1802.53907	13030.7875
1805.72514	12978.3875
1808.90913	12959.1875
1812.09102	12881.4875
1815.27083	12832.8875
1818.44856	12831.1875
1821.6242	12814.6875
1824.79776	12780.0875
1827.96924	12758.0875
1831.13864	12746.2875
1834.30597	12721.7875
1837.47122	12688.9875
1840.6344	12696.9875
1843.7955	12652.3875
1846.95454	12665.0875
1850.11151	12645.2875
1853.26642	12625.2875
1856.41926	12586.8875
1859.57004	12568.8875
1862.71876	12572.2875
1865.86542	12537.8875
1869.01003	12520.0875
1872.15258	12463.5875
1875.29308	12449.6875
1878.43152	12424.0875
1881.56792	12432.3875
1884.70227	12388.8875
1887.83457	12393.1875
1890.96482	12333.3875
1894.09304	12327.0875
1897.21921	12294.5875
1900.34335	12314.0875
1903.46544	12257.8875
1906.58551	12248.7875
1909.70353	12241.0875
1912.81953	12187.3875
1915.93349	12156.3875
1919.04543	12106.8875
1922.15534	12098.1875
1925.26322	12039.1875
1928.36908	12054.8875
1931.47292	12005.5875
1934.57473	11980.7875
1937.67453	11948.9875
1940.77232	11908.8875
1943.86808	11851.7875
1946.96184	11805.9875
1950.05358	11790.6875
1953.14331	11719.5875
1956.23103	11682.6875
1959.31675	11643.7875
1962.40046	11634.8875
1965.48217	11567.6875
1968.56188	11541.5875
1971.63959	11485.3875
1974.7153	11443.7875
1977.78901	11408.0875
1980.86073	11356.1875
1983.93046	11335.5875
1986.99819	11283.4875
1990.06394	11247.1875
1993.1277	11200.2875
1996.18947	11165.2875
1999.24925	11113.5875
2002.30706	11080.5875
2005.36288	11050.4875
2008.41672	11004.8875
2011.46859	10974.4875
2014.51848	10937.5875
2017.56639	10920.6875
2020.61233	10876.7875
2023.6563	10838.9875
2026.6983	10788.5875
2029.73833	10726.0875
2032.7764	10697.7875
2035.8125	10709.3875
2038.84664	10681.0875
2041.87881	10654.4875
2044.90903	10620.0875
2047.93729	10577.9875
2050.96359	10583.1875
2053.98794	10556.2875
2057.01034	10535.0875
2060.03078	10524.8875
2063.04927	10552.6875
2066.06582	10549.3875
2069.08042	10536.1875
2072.09307	10494.8875
2075.10378	10497.4875
2078.11255	10446.3875
2081.11938	10466.9875
2084.12426	10453.1875
2087.12722	10438.4875
2090.12824	10440.3875
2093.12732	10394.8875
2096.12447	10422.0875
2099.11969	10383.1875
2102.11299	10384.1875
2105.10435	10402.7875
2108.09379	10381.1875
2111.08131	10385.2875
2114.0669	10392.0875
2117.05057	10385.6875
2120.03233	10426.8875
2123.01216	10411.8875
2125.99008	10391.9875
2128.96609	10375.7875
2131.94018	10382.0875
2134.91236	10395.1875
2137.88263	10393.5875
2140.851	10396.4875
2143.81746	10387.8875
2146.78201	10378.1875
2149.74466	10365.0875
2152.7054	10334.3875
2155.66425	10316.9875
2158.6212	10286.5875
2161.57625	10291.8875
2164.52941	10292.8875
2167.48067	10275.6875
2170.43004	10272.7875
2173.37752	10263.2875
2176.32311	10262.9875
2179.26681	10269.1875
2182.20863	10276.9875
2185.14856	10228.8875
2188.08661	10246.5875
2191.02278	10249.0875
2193.95707	10209.8875
2196.88948	10203.3875
2199.82001	10188.5875
2202.74867	10137.3875
2205.67545	10124.4875
2208.60037	10109.0875
2211.52341	10062.9875
2214.44458	10065.5875
2217.36388	10023.9875
2220.28132	10017.5875
2223.1969	9968.8875
2226.11061	9952.0875
2229.02246	9951.2875
2231.93245	9936.7875
2234.84058	9887.0875
2237.74686	9884.2875
2240.65128	9878.3875
2243.55385	9843.7875
2246.45456	9825.7875
2249.35343	9812.2875
2252.25044	9788.7875
2255.14561	9761.7875
2258.03893	9725.7875
2260.93041	9695.0875
2263.82004	9655.1875
2266.70783	9659.6875
2269.59378	9604.7875
2272.4779	9576.6875
2275.36017	9524.6875
2278.24061	9510.1875
2281.11922	9498.6875
2283.996	9467.1875
2286.87094	9451.7875
2289.74405	9420.5875
2292.61534	9433.3875
2295.4848	9388.6875
2298.35243	9400.6875
2301.21824	9401.3875
2304.08223	9379.5875
2306.94439	9398.3875
2309.80474	9370.2875
2312.66327	9342.0875
2315.51999	9327.5875
2318.37489	9334.8875
2321.22797	9302.0875
2324.07925	9280.8875
2326.92871	9261.9875
2329.77637	9250.9875
2332.62222	9231.7875
2335.46626	9222.8875
2338.3085	9208.7875
2341.14893	9197.0875
2343.98756	9186.5875
2346.8244	9199.7875
2349.65943	9158.3875
2352.49267	9150.8875
2355.32411	9160.0875
2358.15376	9155.7875
2360.98161	9166.3875
2363.80768	9138.3875
2366.63195	9146.0875
2369.45444	9123.1875
2372.27514	9129.4875
2375.09405	9095.9875
2377.91118	9059.6875
2380.72652	9045.0875
2383.54009	9014.2875
2386.35187	9014.0875
2389.16188	8986.3875
2391.97011	8965.8875
2394.77657	8941.1875
2397.58125	8911.2875
2400.38416	8904.6875
2403.18529	8873.0875
2405.98466	8864.6875
2408.78226	8844.9875
2411.57809	8835.0875
2414.37216	8814.5875
2417.16446	8826.4875
2419.955	8805.9875
2422.74378	8770.9875
2425.5308	8768.0875
2428.31606	8782.3875
2431.09956	8724.4875
2433.88131	8709.0875
2436.6613	8710.5875
2439.43954	8719.9875
2442.21603	8704.0875
2444.99077	8698.7875
2447.76377	8706.9875
2450.53501	8681.1875
2453.30451	8694.4875
2456.07226	8652.0875
2458.83827	8676.6875
2461.60254	8640.9875
2464.36507	8637.3875
2467.12586	8637.9875
2469.88492	8638.3875
2472.64224	8622.9875
2475.39782	8617.7875
2478.15167	8598.5875
2480.90379	8620.7875
2483.65417	8634.3875
2486.40283	8606.4875
2489.14976	8601.6875
2491.89497	8597.6875
2494.63845	8585.4875
2497.3802	8575.1875
2500.12024	8588.5875
2502.85855	8569.1875
2505.59514	8576.9875
2508.33002	8548.0875
2511.06318	8543.1875
2513.79462	8546.7875
2516.52435	8533.8875
2519.25237	8521.6875
2521.97867	8499.1875
2524.70327	8467.0875
2527.42616	8498.3875
2530.14734	8475.5875
2532.86681	8454.7875
2535.58458	8437.2875
2538.30065	8437.3875
2541.01501	8434.3875
2543.72768	8407.7875
2546.43864	8381.5875
2549.14791	8394.2875
2551.85548	8396.1875
2554.56136	8378.7875
2557.26554	8349.4875
2559.96803	8327.2875
2562.66883	8322.7875
2565.36794	8314.8875
2568.06536	8311.7875
2570.7611	8276.0875
2573.45514	8249.5875
2576.14751	8270.6875
2578.83819	8227.2875
2581.52719	8246.5875
2584.21451	8240.7875
2586.90015	8240.3875
2589.58411	8219.5875
2592.2664	8205.2875
2594.94701	8206.1875
2597.62594	8187.3875
2600.30321	8154.8875
2602.9788	8190.4875
2605.65273	8187.7875
2608.32498	8169.0875
2610.99557	8186.6875
2613.66449	8175.0875
2616.33175	8181.1875
2618.99734	8137.6875
2621.66128	8136.4875
2624.32355	8094.9875
2626.98416	8115.7875
2629.64311	8070.8875
2632.30041	8081.9875
2634.95605	8079.7875
2637.61004	8043.5875
2640.26238	8072.7875
2642.91306	8038.1875
2645.56209	8033.3875
2648.20948	8042.2875
2650.85521	8030.8875
2653.4993	8047.1875
2656.14175	8060.2875
2658.78255	8034.2875
2661.42171	8055.1875
2664.05923	8052.0875
2666.6951	8057.5875
2669.32934	8063.9875
2671.96194	8064.3875
2674.59291	8043.2875
2677.22224	8037.4875
2679.84993	8044.3875
2682.476	8023.8875
2685.10043	8010.9875
2687.72324	8010.7875
2690.34441	8007.9875
2692.96396	8007.9875
2695.58188	8000.1875
2698.19818	7993.3875
2700.81285	8004.4875
2703.4259	7996.8875
2706.03733	8000.4875
2708.64714	7995.2875
2711.25533	8004.6875
2713.86191	7998.0875
2716.46687	8021.6875
2719.07021	8013.2875
2721.67194	8019.2875
2724.27206	8008.5875
2726.87057	8004.8875
2729.46747	7997.8875
2732.06276	8036.8875
2734.65644	8016.8875
2737.24852	8014.9875
2739.83899	7987.9875
2742.42786	7991.1875
2745.01513	7967.1875
2747.60079	7969.3875
2750.18486	7956.5875
2752.76733	7950.3875
2755.3482	7968.0875
2757.92747	7925.9875
2760.50515	7931.9875
2763.08123	7915.2875
2765.65573	7913.8875
2768.22863	7887.8875
2770.79994	7903.3875
2773.36967	7920.8875
2775.9378	7903.7875
2778.50435	7902.9875
2781.06932	7881.4875
2783.6327	7855.3875
2786.1945	7856.5875
2788.75471	7863.8875
2791.31335	7859.3875
2793.87041	7856.5875
2796.42589	7813.6875
2798.97979	7830.8875
2801.53212	7805.1875
2804.08288	7799.4875
2806.63206	7772.3875
2809.17967	7763.1875
2811.72571	7737.9875
2814.27018	7705.9875
2816.81308	7698.4875
2819.35442	7693.3875
2821.89419	7675.4875
2824.43239	7688.4875
2826.96904	7664.9875
2829.50412	7688.6875
2832.03763	7645.1875
2834.56959	7647.4875
2837.1	7648.7875
2839.62884	7661.8875
2842.15613	7689.4875
2844.68186	7719.9875
2847.20604	7765.7875
2849.72867	7789.3875
2852.24974	7780.9875
2854.76927	7772.6875
2857.28724	7762.0875
2859.80367	7740.1875
2862.31855	7720.5875
2864.83189	7705.3875
2867.34368	7676.7875
2869.85393	7663.3875
2872.36264	7656.0875
2874.8698	7662.9875
2877.37543	7681.2875
2879.87952	7627.6875
2882.38207	7661.1875
2884.88308	7628.9875
2887.38256	7624.2875
2889.88051	7622.2875
2892.37692	7616.1875
2894.8718	7634.5875
2897.36515	7639.8875
2899.85698	7629.0875
2902.34727	7637.2875
2904.83604	7649.2875
2907.32328	7650.2875
2909.809	7653.7875
2912.29319	7641.4875
2914.77587	7659.1875
2917.25702	7658.4875
2919.73665	7626.5875
2922.21476	7622.4875
2924.69136	7626.3875
2927.16644	7644.1875
2929.64	7627.1875
2932.11205	7606.8875
2934.58258	7591.2875
2937.05161	7614.0875
2939.51912	7591.2875
2941.98513	7542.6875
2944.44962	7522.1875
2946.91261	7497.0875
2949.37409	7474.2875
2951.83407	7464.8875
2954.29254	7460.3875
2956.74951	7432.0875
2959.20498	7426.7875
2961.65895	7417.2875
2964.11142	7403.0875
2966.56239	7355.4875
2969.01186	7375.1875
2971.45984	7344.0875
2973.90632	7325.8875
2976.35131	7304.2875
2978.7948	7285.7875
2981.23681	7246.8875
2983.67732	7251.3875
2986.11635	7206.4875
2988.55388	7185.5875
2990.98993	7148.4875
2993.4245	7136.4875
2995.85758	7120.5875
2998.28917	7106.5875
3000.71928	7083.4875
3003.14791	7066.8875
3005.57506	7046.1875
3008.00073	7023.3875
3010.42493	7013.0875
3012.84764	6989.7875
3015.26888	6997.8875
3017.68865	6952.0875
3020.10694	6945.3875
3022.52376	6939.9875
3024.9391	6910.9875
3027.35298	6889.6875
3029.76539	6892.7875
3032.17632	6890.1875
3034.5858	6881.9875
3036.9938	6860.1875
3039.40034	6845.6875
3041.80542	6857.1875
3044.20903	6835.7875
3046.61118	6851.2875
3049.01187	6830.3875
3051.4111	6806.4875
3053.80888	6780.9875
3056.20519	6789.8875
3058.60005	6771.2875
3060.99345	6751.4875
3063.3854	6725.5875
3065.7759	6700.2875
3068.16494	6666.3875
3070.55254	6653.2875
3072.93868	6617.1875
3075.32338	6615.5875
3077.70662	6591.9875
3080.08842	6556.4875
3082.46878	6561.5875
3084.84769	6542.6875
3087.22515	6535.6875
3089.60118	6534.6875
3091.97576	6524.8875
3094.3489	6519.4875
3096.72061	6506.3875
3099.09087	6508.3875
3101.4597	6504.9875
3103.82709	6504.8875
3106.19305	6484.1875
3108.55757	6507.2875
3110.92066	6474.7875
3113.28232	6462.8875
3115.64255	6424.8875
3118.00134	6406.8875
3120.35871	6415.0875
3122.71466	6404.7875
3125.06917	6392.7875
3127.42226	6361.2875
3129.77393	6368.5875
3132.12417	6349.7875
3134.47299	6338.8875
3136.82039	6350.7875
3139.16636	6359.2875
3141.51092	6333.7875
3143.85406	6304.6875
3146.19579	6303.7875
3148.53609	6299.8875
3150.87499	6313.0875
3153.21246	6337.8875
3155.54853	6345.4875
3157.88318	6341.8875
3160.21642	6349.8875
3162.54826	6330.2875
3164.87868	6335.6875
3167.2077	6340.8875
3169.5353	6330.7875
3171.86151	6344.2875
3174.18631	6326.5875
3176.5097	6320.3875
3178.83169	6308.1875
3181.15228	6324.6875
3183.47147	6282.1875
3185.78926	6280.6875
3188.10565	6280.3875
3190.42065	6286.9875
3192.73424	6270.5875
3195.04645	6236.9875
3197.35725	6238.1875
3199.66667	6228.1875
3201.97469	6237.0875
3204.28132	6240.9875
3206.58656	6235.7875
3208.8904	6224.5875
3211.19287	6223.9875
3213.49394	6223.5875
3215.79363	6230.9875
3218.09193	6229.8875
3220.38884	6219.2875
3222.68438	6222.9875
3224.97853	6203.0875
3227.2713	6222.2875
3229.56269	6208.5875
3231.8527	6211.5875
3234.14133	6181.4875
3236.42858	6178.2875
3238.71446	6168.6875
3240.99896	6162.2875
3243.28209	6140.2875
3245.56384	6116.7875
3247.84423	6121.9875
3250.12324	6118.0875
3252.40088	6084.8875
3254.67715	6079.6875
3256.95205	6060.5875
3259.22558	6049.3875
3261.49775	6043.3875
3263.76855	6022.4875
3266.03799	5998.2875
3268.30606	5997.0875
3270.57277	5993.5875
3272.83812	5983.3875
3275.10211	5968.4875
3277.36474	5949.8875
3279.62601	5960.3875
3281.88593	5957.6875
3284.14448	5956.5875
3286.40168	5933.2875
3288.65753	5954.6875
3290.91202	5943.3875
3293.16516	5951.6875
3295.41695	5905.8875
3297.66738	5869.0875
3299.91647	5837.3875
3302.16421	5778.9875
3304.4106	5750.1875
3306.65564	5719.3875
3308.89933	5670.8875
3311.14169	5622.4875
3313.38269	5560.0875
3315.62236	5539.1875
3317.86068	5472.6875
3320.09766	5455.3875
3322.3333	5407.5875
3324.5676	5383.2875
3326.80056	5290.9875
3329.03219	5245.9875
3331.26248	1.6875
3333.49143	0.1875
3335.71905	-0.3125
