Data from AgNPs_FTO_APTES_UA_5uM_CRN_0uM_R6G_10uM_NaF_0.1M_Addition_RamanShift__30__10-13-46-559.txt Node

Date: Mon Feb 07 10:13:46 GMT 2022
User: TCL
Spectrometer: QEP01345
Trigger mode: 4
Integration Time (sec): 7.000000E0
Scans to average: 10
Electric dark correction enabled: true
Nonlinearity correction enabled: false
Boxcar width: 0
XAxis mode: Raman Shifts
Number of Pixels in Spectrum: 1044
>>>>>Begin Spectral Data<<<<<
46.04893	0.4125
50.45542	-1.2875
54.85868	-0.4875
59.25871	0.6125
63.6555	39.4125
68.04907	43.0125
72.43941	49.4125
76.82654	49.3125
81.21044	50.9125
85.59113	57.1125
89.96862	58.3125
94.34289	60.3125
98.71396	59.4125
103.08183	64.2125
107.4465	63.0125
111.80798	66.0125
116.16626	67.9125
120.52136	71.2125
124.87327	71.3125
129.222	73.5125
133.56755	77.9125
137.90993	87.0125
142.24913	84.3125
146.58517	98.3125
150.91804	108.4125
155.24774	129.2125
159.57429	156.9125
163.89768	200.2125
168.21792	263.8125
172.53501	352.8125
176.84895	483.6125
181.15975	666.2125
185.46741	943.7125
189.77193	1294.2125
194.07331	1723.0125
198.37157	2205.5125
202.6667	2715.4125
206.9587	3218.7125
211.24758	3735.9125
215.53334	4270.4125
219.81599	4884.4125
224.09553	5594.4125
228.37195	6400.7125
232.64527	7233.1125
236.91549	8066.4125
241.18261	8846.7125
245.44663	9396.8125
249.70755	9830.6125
253.96539	10188.9125
258.22014	10469.8125
262.4718	10716.2125
266.72039	10930.1125
270.96589	11011.5125
275.20832	11030.3125
279.44768	10947.1125
283.68397	10858.3125
287.91719	10838.8125
292.14735	10945.2125
296.37445	11208.3125
300.59849	11665.5125
304.81948	12282.0125
309.03742	12747.1125
313.25231	12682.8125
317.46415	11892.5125
321.67296	10651.5125
325.87872	9582.6125
330.08145	9045.4125
334.28114	8957.3125
338.47781	9147.4125
342.67145	9503.8125
346.86207	9986.8125
351.04966	10791.3125
355.23424	11732.9125
359.4158	12442.6125
363.59435	12751.0125
367.76989	12750.8125
371.94243	12590.1125
376.11196	12396.1125
380.27849	12173.9125
384.44203	11877.0125
388.60257	11553.2125
392.76012	11397.6125
396.91468	11542.2125
401.06626	11980.5125
405.21485	12366.5125
409.36047	12123.6125
413.50311	11308.9125
417.64277	10499.4125
421.77947	10023.9125
425.9132	9813.6125
430.04396	9745.6125
434.17176	9668.2125
438.2966	9721.6125
442.41849	9937.6125
446.53742	10287.8125
450.6534	10597.5125
454.76644	10769.5125
458.87653	10772.8125
462.98368	10659.3125
467.08789	10495.0125
471.18916	10252.4125
475.2875	9921.6125
479.38291	9650.9125
483.4754	9478.1125
487.56496	9344.8125
491.6516	9278.2125
495.73531	9284.5125
499.81612	9398.0125
503.89401	9562.0125
507.96899	9728.3125
512.04106	9855.6125
516.11023	9975.0125
520.1765	10024.1125
524.23987	9905.4125
528.30034	9592.4125
532.35792	9278.2125
536.41261	8911.6125
540.46441	8552.5125
544.51333	8377.0125
548.55936	8451.1125
552.60252	8773.8125
556.64279	9155.5125
560.6802	9343.7125
564.71473	9599.8125
568.7464	10290.8125
572.7752	10844.0125
576.80114	10590.9125
580.82422	10158.9125
584.84444	9998.9125
588.86181	9796.2125
592.87633	9476.1125
596.888	9387.3125
600.89682	9818.1125
604.9028	11531.5125
608.90594	16072.6125
612.90624	22204.5125
616.90371	21608.2125
620.89834	13656.1125
624.89015	9560.0125
628.87913	8763.3125
632.86528	8858.3125
636.84862	9109.8125
640.82913	8991.0125
644.80683	8363.5125
648.78172	7891.2125
652.75379	7939.7125
656.72306	8545.1125
660.68952	9317.9125
664.65319	9264.6125
668.61405	8552.9125
672.57211	8131.6125
676.52738	8038.6125
680.47986	7931.1125
684.42955	7797.9125
688.37646	7733.0125
692.32058	7740.5125
696.26192	7888.0125
700.20048	8100.6125
704.13626	8293.5125
708.06928	8352.4125
711.99952	8217.9125
715.927	8071.2125
719.85171	8013.0125
723.77365	7963.6125
727.69284	7801.2125
731.60928	7644.7125
735.52295	7596.3125
739.43388	7653.1125
743.34206	7713.3125
747.24749	7805.4125
751.15017	7936.6125
755.05012	8217.8125
758.94733	8881.5125
762.8418	10381.4125
766.73354	13124.1125
770.62254	15997.5125
774.50882	17313.3125
778.39237	16454.9125
782.27321	13729.6125
786.15132	10812.1125
790.02671	9054.6125
793.89938	8257.9125
797.76935	7917.1125
801.6366	7752.5125
805.50115	7628.2125
809.36299	7555.7125
813.22213	7493.3125
817.07857	7426.3125
820.93231	7402.2125
824.78336	7447.5125
828.63172	7506.5125
832.47738	7557.2125
836.32036	7510.4125
840.16066	7440.7125
843.99827	7357.0125
847.8332	7298.0125
851.66546	7305.2125
855.49504	7303.0125
859.32195	7251.0125
863.1462	7150.3125
866.96777	7083.3125
870.78668	7087.2125
874.60293	7077.8125
878.41652	7089.9125
882.22745	7163.2125
886.03573	7227.6125
889.84136	7227.8125
893.64433	7158.3125
897.44466	7134.7125
901.24235	7150.9125
905.0374	7129.4125
908.8298	7049.3125
912.61957	7019.6125
916.40671	7105.3125
920.19121	7268.4125
923.97308	7433.1125
927.75233	7587.3125
931.52895	7642.7125
935.30295	7487.3125
939.07433	7088.2125
942.84309	6709.2125
946.60924	6510.8125
950.37278	6392.2125
954.13371	6358.7125
957.89203	6292.2125
961.64774	6256.0125
965.40086	6230.6125
969.15137	6210.9125
972.89929	6194.8125
976.64461	6151.9125
980.38733	6159.7125
984.12747	6182.9125
987.86502	6210.5125
991.59999	6235.5125
995.33237	6310.8125
999.06217	6481.3125
1002.78939	6729.9125
1006.51404	7002.1125
1010.23611	7317.2125
1013.95561	7478.1125
1017.67255	7411.9125
1021.38692	7249.6125
1025.09872	7073.9125
1028.80796	6996.3125
1032.51465	7043.4125
1036.21877	7209.3125
1039.92035	7377.8125
1043.61937	7475.7125
1047.31584	7414.5125
1051.00976	7347.4125
1054.70114	7282.5125
1058.38998	7246.3125
1062.07627	7298.9125
1065.76003	7407.2125
1069.44126	7584.3125
1073.11995	7860.5125
1076.79611	8078.7125
1080.46974	8255.8125
1084.14085	8553.9125
1087.80943	8911.4125
1091.47549	9065.5125
1095.13903	8877.6125
1098.80005	8357.9125
1102.45857	7785.1125
1106.11456	7453.4125
1109.76805	7374.0125
1113.41903	7513.0125
1117.06751	7924.4125
1120.71348	8441.4125
1124.35696	9112.8125
1127.99793	9751.0125
1131.63641	9729.7125
1135.2724	9053.7125
1138.90589	8385.1125
1142.5369	7948.2125
1146.16542	7691.9125
1149.79145	7571.4125
1153.415	7542.8125
1157.03607	7690.3125
1160.65467	7951.2125
1164.27079	8387.4125
1167.88443	9098.0125
1171.49561	10307.2125
1175.10432	12372.3125
1178.71056	14963.6125
1182.31434	16725.1125
1185.91565	17008.1125
1189.51451	16378.8125
1193.11091	15148.4125
1196.70485	13585.4125
1200.29634	12369.1125
1203.88538	11330.7125
1207.47197	10245.4125
1211.05612	9352.8125
1214.63782	8862.8125
1218.21708	8696.9125
1221.79391	8683.8125
1225.36829	8732.5125
1228.94024	8770.9125
1232.50976	8801.7125
1236.07685	8801.1125
1239.6415	8843.4125
1243.20374	8911.2125
1246.76355	8973.0125
1250.32093	9079.1125
1253.8759	9345.8125
1257.42845	9772.9125
1260.97859	10254.0125
1264.52631	10760.0125
1268.07163	11266.2125
1271.61453	11758.8125
1275.15503	12124.1125
1278.69312	12257.6125
1282.22882	12324.2125
1285.76211	12633.0125
1289.29301	13216.3125
1292.82151	13811.6125
1296.34761	14451.6125
1299.87133	15405.8125
1303.39266	16942.6125
1306.9116	19342.7125
1310.42815	22228.4125
1313.94233	24082.9125
1317.45412	23831.1125
1320.96354	22115.4125
1324.47058	20124.7125
1327.97525	18490.0125
1331.47754	17428.7125
1334.97747	16916.6125
1338.47502	16691.4125
1341.97022	16795.5125
1345.46305	17262.2125
1348.95352	18184.2125
1352.44163	19629.0125
1355.92738	21875.0125
1359.41078	25629.2125
1362.89183	29489.5125
1366.37053	29337.2125
1369.84688	24908.7125
1373.32088	19953.9125
1376.79254	16490.7125
1380.26186	14530.3125
1383.72883	13542.4125
1387.19347	12857.3125
1390.65578	12161.6125
1394.11575	11571.1125
1397.57339	11301.7125
1401.0287	11287.4125
1404.48168	11396.2125
1407.93234	11573.0125
1411.38068	11652.1125
1414.82669	11498.2125
1418.27039	11136.0125
1421.71177	10693.0125
1425.15083	10265.1125
1428.58758	9984.1125
1432.02203	9920.3125
1435.45416	10046.0125
1438.88399	10166.1125
1442.31151	10218.9125
1445.73673	10337.7125
1449.15965	10465.9125
1452.58027	10514.0125
1455.9986	10449.9125
1459.41463	10488.3125
1462.82837	10686.4125
1466.23982	10966.4125
1469.64898	11316.0125
1473.05586	11577.5125
1476.46045	11799.2125
1479.86276	12071.2125
1483.26279	12434.3125
1486.66054	12934.9125
1490.05602	13518.5125
1493.44922	14431.6125
1496.84016	15847.4125
1500.22882	18080.4125
1503.61521	21061.8125
1506.99934	24383.8125
1510.38121	27522.0125
1513.76081	29307.0125
1517.13816	27979.7125
1520.51324	24205.3125
1523.88607	20080.3125
1527.25665	17161.5125
1530.62498	15419.8125
1533.99105	14352.9125
1537.35488	13650.5125
1540.71647	13160.3125
1544.07581	12844.3125
1547.4329	12656.7125
1550.78776	12473.9125
1554.14038	12375.5125
1557.49077	12473.7125
1560.83892	12826.4125
1564.18484	13392.8125
1567.52853	14041.1125
1570.86999	14565.7125
1574.20922	14930.6125
1577.54624	14824.1125
1580.88103	13809.0125
1584.2136	12305.8125
1587.54395	11427.9125
1590.87208	11470.5125
1594.19801	12278.8125
1597.52172	13572.8125
1600.84321	14173.1125
1604.16251	13600.3125
1607.47959	12406.1125
1610.79447	11126.4125
1614.10715	9875.9125
1617.41763	8892.6125
1620.7259	8262.4125
1624.03199	7960.9125
1627.33587	7923.3125
1630.63757	8105.1125
1633.93707	8598.2125
1637.23439	9418.1125
1640.52951	10751.2125
1643.82246	12770.3125
1647.11321	15383.8125
1650.40179	17624.4125
1653.68819	17780.2125
1656.97241	15315.7125
1660.25446	11968.0125
1663.53433	9338.5125
1666.81203	7754.3125
1670.08756	6870.0125
1673.36092	6353.2125
1676.63211	6043.6125
1679.90115	5825.8125
1683.16801	5685.0125
1686.43272	5552.8125
1689.69527	5483.8125
1692.95567	5422.4125
1696.2139	5380.6125
1699.46999	5356.7125
1702.72392	5315.1125
1705.97571	5291.6125
1709.22535	5275.9125
1712.47284	5257.3125
1715.71819	5273.0125
1718.96139	5278.3125
1722.20246	5275.4125
1725.44139	5218.8125
1728.67818	5138.7125
1731.91284	5073.6125
1735.14537	4978.4125
1738.37576	4919.6125
1741.60403	4878.4125
1744.83017	4845.9125
1748.05418	4810.5125
1751.27607	4788.0125
1754.49584	4782.0125
1757.71349	4761.9125
1760.92903	4733.7125
1764.14244	4723.7125
1767.35375	4711.5125
1770.56294	4685.4125
1773.77002	4658.7125
1776.97499	4627.8125
1780.17785	4576.5125
1783.37861	4559.6125
1786.57727	4545.3125
1789.77382	4532.3125
1792.96828	4530.3125
1796.16064	4504.2125
1799.3509	4494.6125
1802.53907	4484.5125
1805.72514	4450.8125
1808.90913	4424.4125
1812.09102	4416.9125
1815.27083	4391.4125
1818.44856	4372.6125
1821.6242	4365.5125
1824.79776	4362.2125
1827.96924	4335.2125
1831.13864	4322.1125
1834.30597	4327.7125
1837.47122	4298.5125
1840.6344	4325.7125
1843.7955	4300.8125
1846.95454	4284.4125
1850.11151	4285.3125
1853.26642	4275.6125
1856.41926	4278.9125
1859.57004	4269.2125
1862.71876	4270.5125
1865.86542	4265.1125
1869.01003	4265.2125
1872.15258	4239.9125
1875.29308	4242.7125
1878.43152	4230.2125
1881.56792	4231.7125
1884.70227	4214.0125
1887.83457	4232.3125
1890.96482	4230.1125
1894.09304	4221.4125
1897.21921	4219.4125
1900.34335	4222.1125
1903.46544	4219.4125
1906.58551	4213.4125
1909.70353	4236.7125
1912.81953	4239.7125
1915.93349	4236.9125
1919.04543	4218.4125
1922.15534	4209.9125
1925.26322	4193.2125
1928.36908	4171.1125
1931.47292	4151.3125
1934.57473	4117.0125
1937.67453	4102.7125
1940.77232	4084.7125
1943.86808	4064.2125
1946.96184	4033.9125
1950.05358	4001.5125
1953.14331	4004.1125
1956.23103	3993.3125
1959.31675	3986.5125
1962.40046	3963.6125
1965.48217	3943.9125
1968.56188	3938.5125
1971.63959	3939.0125
1974.7153	3942.0125
1977.78901	3908.3125
1980.86073	3903.1125
1983.93046	3865.3125
1986.99819	3855.3125
1990.06394	3841.3125
1993.1277	3823.0125
1996.18947	3798.4125
1999.24925	3766.3125
2002.30706	3778.0125
2005.36288	3771.4125
2008.41672	3752.7125
2011.46859	3727.7125
2014.51848	3717.0125
2017.56639	3703.3125
2020.61233	3692.8125
2023.6563	3684.8125
2026.6983	3664.9125
2029.73833	3652.1125
2032.7764	3645.4125
2035.8125	3630.1125
2038.84664	3613.7125
2041.87881	3610.3125
2044.90903	3602.4125
2047.93729	3596.5125
2050.96359	3608.3125
2053.98794	3590.8125
2057.01034	3580.9125
2060.03078	3583.4125
2063.04927	3579.9125
2066.06582	3564.1125
2069.08042	3551.0125
2072.09307	3553.9125
2075.10378	3537.7125
2078.11255	3555.5125
2081.11938	3541.3125
2084.12426	3526.5125
2087.12722	3523.9125
2090.12824	3514.5125
2093.12732	3528.1125
2096.12447	3529.5125
2099.11969	3507.2125
2102.11299	3524.5125
2105.10435	3517.3125
2108.09379	3526.3125
2111.08131	3506.7125
2114.0669	3511.6125
2117.05057	3521.9125
2120.03233	3516.3125
2123.01216	3523.9125
2125.99008	3526.8125
2128.96609	3526.6125
2131.94018	3532.9125
2134.91236	3518.3125
2137.88263	3508.4125
2140.851	3519.9125
2143.81746	3513.0125
2146.78201	3515.1125
2149.74466	3500.6125
2152.7054	3509.3125
2155.66425	3488.9125
2158.6212	3486.7125
2161.57625	3475.7125
2164.52941	3489.0125
2167.48067	3480.6125
2170.43004	3470.3125
2173.37752	3468.9125
2176.32311	3463.6125
2179.26681	3470.4125
2182.20863	3468.0125
2185.14856	3458.0125
2188.08661	3463.7125
2191.02278	3448.2125
2193.95707	3456.4125
2196.88948	3441.8125
2199.82001	3436.4125
2202.74867	3411.9125
2205.67545	3415.2125
2208.60037	3410.4125
2211.52341	3401.4125
2214.44458	3412.9125
2217.36388	3395.7125
2220.28132	3394.6125
2223.1969	3372.4125
2226.11061	3363.4125
2229.02246	3342.8125
2231.93245	3341.9125
2234.84058	3324.2125
2237.74686	3321.4125
2240.65128	3314.9125
2243.55385	3314.0125
2246.45456	3309.0125
2249.35343	3310.4125
2252.25044	3307.0125
2255.14561	3293.0125
2258.03893	3326.9125
2260.93041	3326.9125
2263.82004	3323.7125
2266.70783	3295.9125
2269.59378	3292.6125
2272.4779	3280.1125
2275.36017	3272.4125
2278.24061	3264.5125
2281.11922	3247.0125
2283.996	3243.2125
2286.87094	3234.7125
2289.74405	3225.0125
2292.61534	3209.9125
2295.4848	3205.6125
2298.35243	3192.0125
2301.21824	3197.5125
2304.08223	3206.1125
2306.94439	3196.0125
2309.80474	3181.1125
2312.66327	3181.2125
2315.51999	3184.1125
2318.37489	3193.2125
2321.22797	3179.5125
2324.07925	3181.3125
2326.92871	3189.0125
2329.77637	3191.9125
2332.62222	3151.9125
2335.46626	3172.3125
2338.3085	3152.6125
2341.14893	3161.1125
2343.98756	3179.7125
2346.8244	3180.0125
2349.65943	3183.7125
2352.49267	3193.1125
2355.32411	3213.9125
2358.15376	3220.3125
2360.98161	3228.3125
2363.80768	3238.0125
2366.63195	3265.2125
2369.45444	3269.3125
2372.27514	3251.7125
2375.09405	3232.0125
2377.91118	3227.9125
2380.72652	3203.2125
2383.54009	3176.0125
2386.35187	3166.5125
2389.16188	3138.9125
2391.97011	3122.0125
2394.77657	3111.5125
2397.58125	3089.9125
2400.38416	3093.3125
2403.18529	3082.6125
2405.98466	3056.6125
2408.78226	3038.3125
2411.57809	3055.8125
2414.37216	3049.6125
2417.16446	3038.6125
2419.955	3033.2125
2422.74378	3024.2125
2425.5308	3019.9125
2428.31606	3026.4125
2431.09956	3023.5125
2433.88131	3023.1125
2436.6613	3027.0125
2439.43954	3036.0125
2442.21603	3034.2125
2444.99077	3042.6125
2447.76377	3044.2125
2450.53501	3045.7125
2453.30451	3031.6125
2456.07226	3044.5125
2458.83827	3062.3125
2461.60254	3045.5125
2464.36507	3051.7125
2467.12586	3034.5125
2469.88492	3040.9125
2472.64224	3030.7125
2475.39782	3048.6125
2478.15167	3071.7125
2480.90379	3067.2125
2483.65417	3081.4125
2486.40283	3081.3125
2489.14976	3110.4125
2491.89497	3123.6125
2494.63845	3126.0125
2497.3802	3129.0125
2500.12024	3116.0125
2502.85855	3109.6125
2505.59514	3083.7125
2508.33002	3068.1125
2511.06318	3043.0125
2513.79462	3028.0125
2516.52435	3008.4125
2519.25237	2996.9125
2521.97867	2985.9125
2524.70327	2966.3125
2527.42616	2953.7125
2530.14734	2957.8125
2532.86681	2949.9125
2535.58458	2959.1125
2538.30065	2946.2125
2541.01501	2957.2125
2543.72768	2951.6125
2546.43864	2953.2125
2549.14791	2953.7125
2551.85548	2958.8125
2554.56136	2942.5125
2557.26554	2952.5125
2559.96803	2950.5125
2562.66883	2944.1125
2565.36794	2948.1125
2568.06536	2934.7125
2570.7611	2931.5125
2573.45514	2935.6125
2576.14751	2919.9125
2578.83819	2919.4125
2581.52719	2910.6125
2584.21451	2897.3125
2586.90015	2908.7125
2589.58411	2898.6125
2592.2664	2898.0125
2594.94701	2889.0125
2597.62594	2891.9125
2600.30321	2881.3125
2602.9788	2898.0125
2605.65273	2890.2125
2608.32498	2889.6125
2610.99557	2899.2125
2613.66449	2890.9125
2616.33175	2892.5125
2618.99734	2904.6125
2621.66128	2899.0125
2624.32355	2885.1125
2626.98416	2887.1125
2629.64311	2886.6125
2632.30041	2871.5125
2634.95605	2872.6125
2637.61004	2862.1125
2640.26238	2861.6125
2642.91306	2867.9125
2645.56209	2862.6125
2648.20948	2864.6125
2650.85521	2859.7125
2653.4993	2854.7125
2656.14175	2857.6125
2658.78255	2865.1125
2661.42171	2866.3125
2664.05923	2883.6125
2666.6951	2871.1125
2669.32934	2890.4125
2671.96194	2885.0125
2674.59291	2890.1125
2677.22224	2901.7125
2679.84993	2908.2125
2682.476	2910.7125
2685.10043	2900.4125
2687.72324	2891.3125
2690.34441	2895.6125
2692.96396	2885.4125
2695.58188	2896.3125
2698.19818	2892.0125
2700.81285	2893.8125
2703.4259	2922.1125
2706.03733	2954.8125
2708.64714	2923.7125
2711.25533	2928.5125
2713.86191	2931.7125
2716.46687	2941.7125
2719.07021	2936.4125
2721.67194	2941.6125
2724.27206	2941.0125
2726.87057	2952.6125
2729.46747	2946.4125
2732.06276	2949.0125
2734.65644	2928.5125
2737.24852	2933.9125
2739.83899	2923.3125
2742.42786	2916.6125
2745.01513	2905.0125
2747.60079	2904.1125
2750.18486	2904.6125
2752.76733	2899.1125
2755.3482	2878.3125
2757.92747	2880.9125
2760.50515	2873.5125
2763.08123	2870.1125
2765.65573	2870.0125
2768.22863	2868.6125
2770.79994	2858.9125
2773.36967	2880.2125
2775.9378	2889.9125
2778.50435	2892.6125
2781.06932	2901.3125
2783.6327	2893.1125
2786.1945	2900.0125
2788.75471	2914.2125
2791.31335	2924.2125
2793.87041	2936.6125
2796.42589	2924.5125
2798.97979	2946.1125
2801.53212	2947.9125
2804.08288	2957.9125
2806.63206	2966.0125
2809.17967	2976.2125
2811.72571	2993.0125
2814.27018	3011.6125
2816.81308	3015.3125
2819.35442	3016.1125
2821.89419	3033.9125
2824.43239	3044.4125
2826.96904	3058.9125
2829.50412	3075.9125
2832.03763	3088.7125
2834.56959	3092.8125
2837.1	3106.8125
2839.62884	3142.5125
2842.15613	3200.1125
2844.68186	3265.6125
2847.20604	3362.5125
2849.72867	3419.3125
2852.24974	3454.4125
2854.76927	3471.2125
2857.28724	3466.1125
2859.80367	3450.2125
2862.31855	3430.5125
2864.83189	3398.8125
2867.34368	3399.1125
2869.85393	3389.2125
2872.36264	3382.7125
2874.8698	3374.3125
2877.37543	3356.8125
2879.87952	3350.7125
2882.38207	3345.9125
2884.88308	3346.6125
2887.38256	3338.8125
2889.88051	3341.3125
2892.37692	3348.4125
2894.8718	3334.3125
2897.36515	3324.5125
2899.85698	3341.5125
2902.34727	3360.5125
2904.83604	3346.9125
2907.32328	3363.9125
2909.809	3342.9125
2912.29319	3330.0125
2914.77587	3331.8125
2917.25702	3339.6125
2919.73665	3322.2125
2922.21476	3319.4125
2924.69136	3306.1125
2927.16644	3304.0125
2929.64	3271.9125
2932.11205	3271.5125
2934.58258	3241.9125
2937.05161	3232.4125
2939.51912	3203.7125
2941.98513	3152.1125
2944.44962	3114.8125
2946.91261	3053.8125
2949.37409	3010.0125
2951.83407	2974.2125
2954.29254	2958.3125
2956.74951	2930.7125
2959.20498	2906.3125
2961.65895	2898.0125
2964.11142	2886.0125
2966.56239	2862.3125
2969.01186	2859.2125
2971.45984	2842.7125
2973.90632	2831.6125
2976.35131	2805.4125
2978.7948	2807.1125
2981.23681	2792.2125
2983.67732	2773.0125
2986.11635	2757.8125
2988.55388	2754.2125
2990.98993	2729.0125
2993.4245	2710.1125
2995.85758	2702.2125
2998.28917	2697.7125
3000.71928	2680.9125
3003.14791	2660.5125
3005.57506	2666.6125
3008.00073	2657.1125
3010.42493	2668.9125
3012.84764	2661.8125
3015.26888	2653.2125
3017.68865	2638.5125
3020.10694	2633.2125
3022.52376	2632.0125
3024.9391	2615.9125
3027.35298	2621.3125
3029.76539	2627.5125
3032.17632	2625.4125
3034.5858	2602.0125
3036.9938	2616.4125
3039.40034	2608.3125
3041.80542	2601.1125
3044.20903	2587.1125
3046.61118	2602.2125
3049.01187	2579.3125
3051.4111	2591.2125
3053.80888	2588.1125
3056.20519	2580.2125
3058.60005	2582.8125
3060.99345	2570.5125
3063.3854	2574.4125
3065.7759	2560.0125
3068.16494	2563.5125
3070.55254	2555.0125
3072.93868	2538.6125
3075.32338	2526.0125
3077.70662	2510.9125
3080.08842	2508.8125
3082.46878	2493.2125
3084.84769	2502.1125
3087.22515	2493.1125
3089.60118	2476.7125
3091.97576	2482.6125
3094.3489	2471.7125
3096.72061	2479.6125
3099.09087	2479.8125
3101.4597	2468.5125
3103.82709	2474.4125
3106.19305	2472.0125
3108.55757	2479.7125
3110.92066	2472.8125
3113.28232	2476.1125
3115.64255	2460.1125
3118.00134	2460.3125
3120.35871	2462.8125
3122.71466	2455.6125
3125.06917	2459.3125
3127.42226	2461.6125
3129.77393	2473.5125
3132.12417	2468.2125
3134.47299	2465.6125
3136.82039	2473.7125
3139.16636	2472.6125
3141.51092	2491.0125
3143.85406	2486.1125
3146.19579	2491.0125
3148.53609	2503.1125
3150.87499	2501.7125
3153.21246	2502.7125
3155.54853	2520.8125
3157.88318	2512.2125
3160.21642	2521.7125
3162.54826	2517.5125
3164.87868	2530.7125
3167.2077	2521.9125
3169.5353	2535.2125
3171.86151	2543.7125
3174.18631	2543.8125
3176.5097	2540.3125
3178.83169	2538.0125
3181.15228	2547.6125
3183.47147	2535.2125
3185.78926	2542.0125
3188.10565	2539.5125
3190.42065	2553.4125
3192.73424	2547.6125
3195.04645	2564.0125
3197.35725	2566.5125
3199.66667	2569.4125
3201.97469	2571.5125
3204.28132	2560.9125
3206.58656	2571.6125
3208.8904	2579.4125
3211.19287	2583.2125
3213.49394	2579.5125
3215.79363	2597.9125
3218.09193	2594.0125
3220.38884	2601.9125
3222.68438	2623.9125
3224.97853	2619.1125
3227.2713	2595.1125
3229.56269	2596.7125
3231.8527	2601.8125
3234.14133	2587.3125
3236.42858	2598.9125
3238.71446	2592.6125
3240.99896	2580.4125
3243.28209	2589.0125
3245.56384	2585.4125
3247.84423	2582.6125
3250.12324	2574.1125
3252.40088	2587.1125
3254.67715	2569.3125
3256.95205	2577.3125
3259.22558	2581.2125
3261.49775	2576.7125
3263.76855	2568.9125
3266.03799	2563.7125
3268.30606	2557.6125
3270.57277	2555.5125
3272.83812	2548.0125
3275.10211	2549.9125
3277.36474	2544.4125
3279.62601	2545.7125
3281.88593	2545.7125
3284.14448	2539.7125
3286.40168	2536.1125
3288.65753	2533.0125
3290.91202	2534.8125
3293.16516	2529.0125
3295.41695	2528.0125
3297.66738	2509.0125
3299.91647	2508.3125
3302.16421	2490.0125
3304.4106	2473.3125
3306.65564	2451.8125
3308.89933	2437.2125
3311.14169	2419.6125
3313.38269	2406.1125
3315.62236	2386.3125
3317.86068	2359.2125
3320.09766	2338.5125
3322.3333	2325.2125
3324.5676	2316.5125
3326.80056	2283.0125
3329.03219	2267.4125
3331.26248	0.2125
3333.49143	-0.7875
3335.71905	0.5125
