Data from AgNPs_FTO_APTES_UA_5uM_CRN_200uM_R6G_10uM_NaF_0.1M_Addition_RamanShift__4__16-04-31-765.txt Node

Date: Mon Feb 07 16:04:31 GMT 2022
User: TCL
Spectrometer: QEP01345
Trigger mode: 4
Integration Time (sec): 7.000000E0
Scans to average: 10
Electric dark correction enabled: true
Nonlinearity correction enabled: false
Boxcar width: 0
XAxis mode: Raman Shifts
Number of Pixels in Spectrum: 1044
>>>>>Begin Spectral Data<<<<<
46.04893	-2.1625
50.45542	-1.0625
54.85868	0.0375
59.25871	-0.9625
63.6555	76.1375
68.04907	79.2375
72.43941	83.5375
76.82654	83.8375
81.21044	82.3375
85.59113	89.7375
89.96862	94.4375
94.34289	99.5375
98.71396	101.1375
103.08183	103.7375
107.4465	108.6375
111.80798	109.4375
116.16626	113.1375
120.52136	117.8375
124.87327	126.8375
129.222	132.3375
133.56755	141.0375
137.90993	156.4375
142.24913	178.2375
146.58517	197.4375
150.91804	231.7375
155.24774	287.5375
159.57429	361.2375
163.89768	467.8375
168.21792	629.5375
172.53501	851.1375
176.84895	1190.0375
181.15975	1678.3375
185.46741	2370.4375
189.77193	3279.0375
194.07331	4395.6375
198.37157	5661.9375
202.6667	6960.2375
206.9587	8284.1375
211.24758	9567.5375
215.53334	10889.7375
219.81599	12311.7375
224.09553	13829.6375
228.37195	15544.8375
232.64527	17364.1375
236.91549	19265.5375
241.18261	21142.0375
245.44663	22867.9375
249.70755	24460.3375
253.96539	25794.9375
258.22014	26879.6375
262.4718	27809.2375
266.72039	28564.8375
270.96589	29015.1375
275.20832	29183.5375
279.44768	29165.0375
283.68397	29014.9375
287.91719	28970.7375
292.14735	29074.2375
296.37445	29363.5375
300.59849	29703.0375
304.81948	29930.6375
309.03742	29883.1375
313.25231	29497.2375
317.46415	28663.6375
321.67296	27527.4375
325.87872	26598.6375
330.08145	26072.6375
334.28114	25938.2375
338.47781	26051.8375
342.67145	26363.1375
346.86207	26655.3375
351.04966	27140.4375
355.23424	27621.1375
359.4158	27949.2375
363.59435	28149.3375
367.76989	28302.9375
371.94243	28386.4375
376.11196	28460.0375
380.27849	28445.5375
384.44203	28572.8375
388.60257	28763.2375
392.76012	29043.2375
396.91468	29472.0375
401.06626	29955.0375
405.21485	30246.1375
409.36047	30022.5375
413.50311	29423.0375
417.64277	28845.5375
421.77947	28645.7375
425.9132	28563.6375
430.04396	28660.5375
434.17176	28854.4375
438.2966	29155.3375
442.41849	29640.3375
446.53742	30473.5375
450.6534	31355.1375
454.76644	32017.6375
458.87653	32266.9375
462.98368	32290.8375
467.08789	32148.8375
471.18916	31956.6375
475.2875	31927.7375
479.38291	32014.2375
483.4754	31861.5375
487.56496	31268.4375
491.6516	30432.5375
495.73531	29617.9375
499.81612	29085.1375
503.89401	29089.2375
507.96899	29203.2375
512.04106	29253.3375
516.11023	29157.8375
520.1765	28921.3375
524.23987	28596.8375
528.30034	28276.6375
532.35792	27924.2375
536.41261	27616.6375
540.46441	27330.7375
544.51333	27373.7375
548.55936	27790.7375
552.60252	28628.8375
556.64279	29563.7375
560.6802	30207.8375
564.71473	30668.9375
568.7464	31523.6375
572.7752	32678.8375
576.80114	33549.5375
580.82422	34056.6375
584.84444	34402.9375
588.86181	34784.4375
592.87633	34982.3375
596.888	34561.8375
600.89682	33878.7375
604.9028	34215.4375
608.90594	36509.0375
612.90624	39463.4375
616.90371	37038.1375
620.89834	30569.5375
624.89015	27627.5375
628.87913	27297.5375
632.86528	27593.0375
636.84862	27753.7375
640.82913	27420.3375
644.80683	26754.5375
648.78172	26252.0375
652.75379	26079.2375
656.72306	26339.1375
660.68952	26697.0375
664.65319	26533.3375
668.61405	26032.5375
672.57211	25883.4375
676.52738	25944.7375
680.47986	25983.8375
684.42955	25907.5375
688.37646	25766.9375
692.32058	25782.0375
696.26192	25996.1375
700.20048	26286.4375
704.13626	26552.8375
708.06928	26701.9375
711.99952	26609.3375
715.927	26542.0375
719.85171	26552.6375
723.77365	26411.0375
727.69284	26070.6375
731.60928	25739.1375
735.52295	25601.2375
739.43388	25562.2375
743.34206	25522.2375
747.24749	25717.9375
751.15017	26021.2375
755.05012	26546.4375
758.94733	27542.9375
762.8418	29304.2375
766.73354	31936.1375
770.62254	34352.5375
774.50882	34833.5375
778.39237	32970.2375
782.27321	30134.9375
786.15132	27782.8375
790.02671	26406.8375
793.89938	25690.5375
797.76935	25366.8375
801.6366	25223.1375
805.50115	25113.9375
809.36299	24939.6375
813.22213	24827.7375
817.07857	24910.7375
820.93231	24917.6375
824.78336	24791.9375
828.63172	24622.0375
832.47738	24558.5375
836.32036	24439.9375
840.16066	24401.1375
843.99827	24370.8375
847.8332	24349.2375
851.66546	24334.7375
855.49504	24316.0375
859.32195	24335.1375
863.1462	24213.3375
866.96777	24171.9375
870.78668	24084.0375
874.60293	24071.7375
878.41652	24089.5375
882.22745	24134.4375
886.03573	24174.1375
889.84136	24163.7375
893.64433	24079.3375
897.44466	23965.9375
901.24235	23915.4375
905.0374	23866.5375
908.8298	23851.1375
912.61957	23960.1375
916.40671	24296.0375
920.19121	24692.1375
923.97308	24948.8375
927.75233	24777.4375
931.52895	24483.5375
935.30295	24048.3375
939.07433	23576.3375
942.84309	23161.9375
946.60924	22892.4375
950.37278	22719.7375
954.13371	22685.8375
957.89203	22715.2375
961.64774	22736.1375
965.40086	22687.6375
969.15137	22595.9375
972.89929	22415.5375
976.64461	22270.8375
980.38733	22217.1375
984.12747	22225.1375
987.86502	22303.5375
991.59999	22460.1375
995.33237	22590.0375
999.06217	22883.6375
1002.78939	23258.5375
1006.51404	23624.5375
1010.23611	23895.5375
1013.95561	24186.7375
1017.67255	24284.6375
1021.38692	24144.9375
1025.09872	23808.0375
1028.80796	23572.2375
1032.51465	23623.5375
1036.21877	23850.0375
1039.92035	24027.1375
1043.61937	24113.5375
1047.31584	24089.9375
1051.00976	24046.2375
1054.70114	24093.7375
1058.38998	24323.9375
1062.07627	24641.0375
1065.76003	25064.9375
1069.44126	25380.2375
1073.11995	25662.5375
1076.79611	25954.4375
1080.46974	26061.7375
1084.14085	26165.8375
1087.80943	26376.8375
1091.47549	26716.6375
1095.13903	26829.3375
1098.80005	26557.5375
1102.45857	25908.6375
1106.11456	25307.9375
1109.76805	24982.7375
1113.41903	25025.2375
1117.06751	25280.7375
1120.71348	25660.4375
1124.35696	26129.6375
1127.99793	26639.1375
1131.63641	26911.4375
1135.2724	26537.8375
1138.90589	26211.3375
1142.5369	26215.3375
1146.16542	26357.1375
1149.79145	26743.0375
1153.415	27199.4375
1157.03607	27812.8375
1160.65467	28699.2375
1164.27079	30039.5375
1167.88443	31685.7375
1171.49561	33758.2375
1175.10432	36394.7375
1178.71056	39619.4375
1182.31434	42506.9375
1185.91565	43973.7375
1189.51451	43962.7375
1193.11091	43071.2375
1196.70485	41456.1375
1200.29634	39660.7375
1203.88538	38276.2375
1207.47197	37316.0375
1211.05612	36592.5375
1214.63782	35828.3375
1218.21708	34613.5375
1221.79391	33357.7375
1225.36829	32320.2375
1228.94024	31674.1375
1232.50976	31105.7375
1236.07685	30714.6375
1239.6415	30530.3375
1243.20374	30612.3375
1246.76355	30933.8375
1250.32093	31327.3375
1253.8759	31896.8375
1257.42845	32718.6375
1260.97859	33631.3375
1264.52631	34582.1375
1268.07163	35552.0375
1271.61453	36513.9375
1275.15503	37609.7375
1278.69312	38797.6375
1282.22882	39999.3375
1285.76211	41508.7375
1289.29301	43529.1375
1292.82151	46102.0375
1296.34761	49146.7375
1299.87133	52329.8375
1303.39266	55519.9375
1306.9116	58276.0375
1310.42815	60597.5375
1313.94233	61798.3375
1317.45412	61630.8375
1320.96354	61025.3375
1324.47058	60339.2375
1327.97525	59635.4375
1331.47754	59000.8375
1334.97747	58472.4375
1338.47502	58080.3375
1341.97022	57650.0375
1345.46305	57424.5375
1348.95352	57041.7375
1352.44163	56696.9375
1355.92738	57066.4375
1359.41078	58561.5375
1362.89183	60278.0375
1366.37053	58869.3375
1369.84688	53750.4375
1373.32088	47942.0375
1376.79254	44244.8375
1380.26186	43033.5375
1383.72883	43195.0375
1387.19347	43633.1375
1390.65578	43815.7375
1394.11575	43881.1375
1397.57339	44154.4375
1401.0287	44473.4375
1404.48168	44446.0375
1407.93234	43765.8375
1411.38068	42333.1375
1414.82669	40174.0375
1418.27039	37969.2375
1421.71177	35974.7375
1425.15083	34398.0375
1428.58758	33531.6375
1432.02203	33681.9375
1435.45416	34607.0375
1438.88399	35747.5375
1442.31151	36779.1375
1445.73673	37495.4375
1449.15965	38317.3375
1452.58027	39055.8375
1455.9986	39551.6375
1459.41463	39948.5375
1462.82837	40371.9375
1466.23982	40825.7375
1469.64898	41187.9375
1473.05586	41374.9375
1476.46045	41149.0375
1479.86276	40747.4375
1483.26279	40315.1375
1486.66054	40045.9375
1490.05602	40316.8375
1493.44922	41009.8375
1496.84016	42118.2375
1500.22882	43977.9375
1503.61521	46465.9375
1506.99934	49205.2375
1510.38121	51495.1375
1513.76081	52106.3375
1517.13816	50741.4375
1520.51324	48457.1375
1523.88607	46505.8375
1527.25665	45556.1375
1530.62498	45186.9375
1533.99105	44913.2375
1537.35488	44241.1375
1540.71647	43103.1375
1544.07581	41546.7375
1547.4329	39994.0375
1550.78776	38818.8375
1554.14038	38106.2375
1557.49077	37773.5375
1560.83892	37699.8375
1564.18484	37991.6375
1567.52853	38421.7375
1570.86999	39047.7375
1574.20922	40057.8375
1577.54624	41005.7375
1580.88103	41230.4375
1584.2136	41280.2375
1587.54395	41870.8375
1590.87208	43066.4375
1594.19801	44758.1375
1597.52172	46293.6375
1600.84321	46381.1375
1604.16251	44178.0375
1607.47959	40916.3375
1610.79447	37531.5375
1614.10715	34377.3375
1617.41763	31665.8375
1620.7259	29738.7375
1624.03199	28727.2375
1627.33587	28586.7375
1630.63757	29419.5375
1633.93707	31332.0375
1637.23439	34537.5375
1640.52951	39253.9375
1643.82246	45064.5375
1647.11321	50157.6375
1650.40179	51910.7375
1653.68819	49138.9375
1656.97241	42900.2375
1660.25446	36108.7375
1663.53433	30660.1375
1666.81203	26907.0375
1670.08756	24546.4375
1673.36092	23101.8375
1676.63211	22176.7375
1679.90115	21544.3375
1683.16801	21034.6375
1686.43272	20614.8375
1689.69527	20351.9375
1692.95567	20163.7375
1696.2139	20025.0375
1699.46999	19891.2375
1702.72392	19767.3375
1705.97571	19717.7375
1709.22535	19634.1375
1712.47284	19503.7375
1715.71819	19439.1375
1718.96139	19422.6375
1722.20246	19319.2375
1725.44139	19225.1375
1728.67818	19075.0375
1731.91284	18925.9375
1735.14537	18837.6375
1738.37576	18732.7375
1741.60403	18622.6375
1744.83017	18572.0375
1748.05418	18503.6375
1751.27607	18494.5375
1754.49584	18438.6375
1757.71349	18411.8375
1760.92903	18395.5375
1764.14244	18327.3375
1767.35375	18314.0375
1770.56294	18239.3375
1773.77002	18191.4375
1776.97499	18127.8375
1780.17785	18066.9375
1783.37861	18014.4375
1786.57727	17976.7375
1789.77382	17956.3375
1792.96828	17893.2375
1796.16064	17847.7375
1799.3509	17786.8375
1802.53907	17736.7375
1805.72514	17694.4375
1808.90913	17621.1375
1812.09102	17545.0375
1815.27083	17500.7375
1818.44856	17472.0375
1821.6242	17398.9375
1824.79776	17400.8375
1827.96924	17380.4375
1831.13864	17322.7375
1834.30597	17316.8375
1837.47122	17292.8375
1840.6344	17262.0375
1843.7955	17282.8375
1846.95454	17227.9375
1850.11151	17198.5375
1853.26642	17159.0375
1856.41926	17143.5375
1859.57004	17126.1375
1862.71876	17120.9375
1865.86542	17069.0375
1869.01003	17082.4375
1872.15258	17057.5375
1875.29308	17011.5375
1878.43152	16970.3375
1881.56792	16953.0375
1884.70227	16912.1375
1887.83457	16923.9375
1890.96482	16878.4375
1894.09304	16843.4375
1897.21921	16814.5375
1900.34335	16758.6375
1903.46544	16726.8375
1906.58551	16710.6375
1909.70353	16701.4375
1912.81953	16659.2375
1915.93349	16617.3375
1919.04543	16595.9375
1922.15534	16568.9375
1925.26322	16517.5375
1928.36908	16497.1375
1931.47292	16467.7375
1934.57473	16404.7375
1937.67453	16372.1375
1940.77232	16288.4375
1943.86808	16258.1375
1946.96184	16174.8375
1950.05358	16121.2375
1953.14331	16077.3375
1956.23103	16016.4375
1959.31675	15981.4375
1962.40046	15924.7375
1965.48217	15867.3375
1968.56188	15819.4375
1971.63959	15755.6375
1974.7153	15723.5375
1977.78901	15656.4375
1980.86073	15634.3375
1983.93046	15557.6375
1986.99819	15487.2375
1990.06394	15455.3375
1993.1277	15384.8375
1996.18947	15348.2375
1999.24925	15295.6375
2002.30706	15259.9375
2005.36288	15190.5375
2008.41672	15134.2375
2011.46859	15099.7375
2014.51848	15024.1375
2017.56639	14982.4375
2020.61233	14935.9375
2023.6563	14883.4375
2026.6983	14820.9375
2029.73833	14790.8375
2032.7764	14749.1375
2035.8125	14745.9375
2038.84664	14718.7375
2041.87881	14675.5375
2044.90903	14639.6375
2047.93729	14599.1375
2050.96359	14590.4375
2053.98794	14575.4375
2057.01034	14551.7375
2060.03078	14554.1375
2063.04927	14530.1375
2066.06582	14547.6375
2069.08042	14516.5375
2072.09307	14485.4375
2075.10378	14456.5375
2078.11255	14451.7375
2081.11938	14439.6375
2084.12426	14416.6375
2087.12722	14408.8375
2090.12824	14398.8375
2093.12732	14400.8375
2096.12447	14377.7375
2099.11969	14378.1375
2102.11299	14369.4375
2105.10435	14372.6375
2108.09379	14361.7375
2111.08131	14374.9375
2114.0669	14367.5375
2117.05057	14407.0375
2120.03233	14396.0375
2123.01216	14400.2375
2125.99008	14374.1375
2128.96609	14379.1375
2131.94018	14411.8375
2134.91236	14402.2375
2137.88263	14408.3375
2140.851	14408.2375
2143.81746	14390.6375
2146.78201	14380.1375
2149.74466	14361.5375
2152.7054	14354.5375
2155.66425	14349.5375
2158.6212	14304.9375
2161.57625	14335.7375
2164.52941	14320.8375
2167.48067	14298.3375
2170.43004	14262.7375
2173.37752	14276.2375
2176.32311	14304.0375
2179.26681	14279.5375
2182.20863	14257.3375
2185.14856	14272.7375
2188.08661	14264.4375
2191.02278	14274.0375
2193.95707	14224.6375
2196.88948	14201.6375
2199.82001	14153.4375
2202.74867	14141.7375
2205.67545	14127.3375
2208.60037	14089.2375
2211.52341	14050.3375
2214.44458	14069.0375
2217.36388	14008.7375
2220.28132	13980.9375
2223.1969	13936.5375
2226.11061	13939.7375
2229.02246	13896.7375
2231.93245	13897.1375
2234.84058	13815.7375
2237.74686	13794.1375
2240.65128	13825.7375
2243.55385	13755.2375
2246.45456	13760.8375
2249.35343	13756.7375
2252.25044	13709.2375
2255.14561	13683.3375
2258.03893	13624.4375
2260.93041	13587.8375
2263.82004	13539.2375
2266.70783	13545.0375
2269.59378	13485.5375
2272.4779	13406.5375
2275.36017	13387.2375
2278.24061	13363.8375
2281.11922	13350.0375
2283.996	13351.1375
2286.87094	13319.5375
2289.74405	13248.7375
2292.61534	13259.5375
2295.4848	13233.0375
2298.35243	13235.4375
2301.21824	13235.1375
2304.08223	13239.1375
2306.94439	13229.4375
2309.80474	13207.3375
2312.66327	13206.0375
2315.51999	13174.7375
2318.37489	13190.4375
2321.22797	13124.2375
2324.07925	13107.9375
2326.92871	13110.0375
2329.77637	13086.3375
2332.62222	13072.0375
2335.46626	13042.9375
2338.3085	13018.8375
2341.14893	13010.2375
2343.98756	13028.1375
2346.8244	13017.1375
2349.65943	13003.2375
2352.49267	12999.0375
2355.32411	13007.7375
2358.15376	13030.6375
2360.98161	13003.2375
2363.80768	12998.8375
2366.63195	13000.6375
2369.45444	12985.6375
2372.27514	12983.5375
2375.09405	12910.9375
2377.91118	12893.4375
2380.72652	12869.7375
2383.54009	12848.9375
2386.35187	12800.2375
2389.16188	12776.6375
2391.97011	12697.4375
2394.77657	12678.0375
2397.58125	12626.7375
2400.38416	12675.0375
2403.18529	12604.9375
2405.98466	12600.0375
2408.78226	12576.3375
2411.57809	12568.3375
2414.37216	12555.3375
2417.16446	12547.6375
2419.955	12536.8375
2422.74378	12535.6375
2425.5308	12509.4375
2428.31606	12479.5375
2431.09956	12466.7375
2433.88131	12468.8375
2436.6613	12495.2375
2439.43954	12464.8375
2442.21603	12491.2375
2444.99077	12430.5375
2447.76377	12444.5375
2450.53501	12407.3375
2453.30451	12411.4375
2456.07226	12393.3375
2458.83827	12392.2375
2461.60254	12393.1375
2464.36507	12402.8375
2467.12586	12380.3375
2469.88492	12369.9375
2472.64224	12359.6375
2475.39782	12373.0375
2478.15167	12348.8375
2480.90379	12345.8375
2483.65417	12371.2375
2486.40283	12367.9375
2489.14976	12384.9375
2491.89497	12361.3375
2494.63845	12414.1375
2497.3802	12403.9375
2500.12024	12378.2375
2502.85855	12392.0375
2505.59514	12330.0375
2508.33002	12324.9375
2511.06318	12311.8375
2513.79462	12281.5375
2516.52435	12279.1375
2519.25237	12267.5375
2521.97867	12224.1375
2524.70327	12202.2375
2527.42616	12179.2375
2530.14734	12202.5375
2532.86681	12199.9375
2535.58458	12176.7375
2538.30065	12141.5375
2541.01501	12158.0375
2543.72768	12121.9375
2546.43864	12117.7375
2549.14791	12105.2375
2551.85548	12086.5375
2554.56136	12069.0375
2557.26554	12071.7375
2559.96803	12052.5375
2562.66883	12010.7375
2565.36794	11999.2375
2568.06536	12018.8375
2570.7611	12029.2375
2573.45514	11995.5375
2576.14751	11955.0375
2578.83819	11960.1375
2581.52719	11955.1375
2584.21451	11924.9375
2586.90015	11912.0375
2589.58411	11907.8375
2592.2664	11890.9375
2594.94701	11869.5375
2597.62594	11863.4375
2600.30321	11846.9375
2602.9788	11864.7375
2605.65273	11849.7375
2608.32498	11870.8375
2610.99557	11857.2375
2613.66449	11839.6375
2616.33175	11806.4375
2618.99734	11848.4375
2621.66128	11802.9375
2624.32355	11822.7375
2626.98416	11772.1375
2629.64311	11753.7375
2632.30041	11775.3375
2634.95605	11735.8375
2637.61004	11744.4375
2640.26238	11717.0375
2642.91306	11713.6375
2645.56209	11689.8375
2648.20948	11711.0375
2650.85521	11706.3375
2653.4993	11705.0375
2656.14175	11729.5375
2658.78255	11722.0375
2661.42171	11737.1375
2664.05923	11720.4375
2666.6951	11741.7375
2669.32934	11730.0375
2671.96194	11752.0375
2674.59291	11743.5375
2677.22224	11736.1375
2679.84993	11725.1375
2682.476	11693.9375
2685.10043	11711.1375
2687.72324	11717.0375
2690.34441	11669.7375
2692.96396	11691.0375
2695.58188	11662.0375
2698.19818	11677.0375
2700.81285	11691.5375
2703.4259	11719.4375
2706.03733	11701.8375
2708.64714	11677.4375
2711.25533	11695.8375
2713.86191	11701.9375
2716.46687	11735.1375
2719.07021	11758.3375
2721.67194	11754.2375
2724.27206	11740.2375
2726.87057	11736.4375
2729.46747	11763.4375
2732.06276	11749.5375
2734.65644	11745.8375
2737.24852	11732.9375
2739.83899	11725.1375
2742.42786	11728.8375
2745.01513	11701.3375
2747.60079	11679.0375
2750.18486	11669.3375
2752.76733	11648.6375
2755.3482	11635.9375
2757.92747	11650.0375
2760.50515	11620.4375
2763.08123	11642.2375
2765.65573	11633.2375
2768.22863	11638.1375
2770.79994	11602.5375
2773.36967	11613.6375
2775.9378	11614.7375
2778.50435	11597.2375
2781.06932	11593.6375
2783.6327	11597.6375
2786.1945	11565.6375
2788.75471	11573.9375
2791.31335	11572.8375
2793.87041	11568.0375
2796.42589	11555.9375
2798.97979	11571.7375
2801.53212	11521.5375
2804.08288	11511.2375
2806.63206	11465.5375
2809.17967	11458.7375
2811.72571	11431.0375
2814.27018	11427.7375
2816.81308	11394.9375
2819.35442	11367.9375
2821.89419	11350.4375
2824.43239	11367.3375
2826.96904	11347.8375
2829.50412	11317.8375
2832.03763	11290.3375
2834.56959	11289.4375
2837.1	11292.8375
2839.62884	11325.7375
2842.15613	11328.6375
2844.68186	11377.6375
2847.20604	11439.5375
2849.72867	11438.9375
2852.24974	11444.0375
2854.76927	11445.2375
2857.28724	11415.8375
2859.80367	11404.6375
2862.31855	11366.4375
2864.83189	11340.3375
2867.34368	11331.5375
2869.85393	11321.8375
2872.36264	11330.9375
2874.8698	11320.7375
2877.37543	11325.0375
2879.87952	11284.5375
2882.38207	11283.6375
2884.88308	11298.5375
2887.38256	11277.6375
2889.88051	11263.4375
2892.37692	11287.1375
2894.8718	11273.9375
2897.36515	11303.9375
2899.85698	11288.6375
2902.34727	11298.6375
2904.83604	11305.2375
2907.32328	11354.4375
2909.809	11357.2375
2912.29319	11356.5375
2914.77587	11351.1375
2917.25702	11342.2375
2919.73665	11314.5375
2922.21476	11321.3375
2924.69136	11325.1375
2927.16644	11313.5375
2929.64	11302.7375
2932.11205	11287.6375
2934.58258	11247.3375
2937.05161	11263.4375
2939.51912	11229.8375
2941.98513	11213.9375
2944.44962	11177.1375
2946.91261	11106.0375
2949.37409	11116.1375
2951.83407	11092.7375
2954.29254	11055.0375
2956.74951	11079.4375
2959.20498	11049.2375
2961.65895	11033.2375
2964.11142	11042.1375
2966.56239	10997.8375
2969.01186	11003.7375
2971.45984	10987.5375
2973.90632	10977.3375
2976.35131	10941.1375
2978.7948	10911.7375
2981.23681	10893.5375
2983.67732	10859.9375
2986.11635	10817.2375
2988.55388	10797.6375
2990.98993	10751.2375
2993.4245	10727.3375
2995.85758	10693.1375
2998.28917	10674.3375
3000.71928	10654.5375
3003.14791	10637.8375
3005.57506	10606.0375
3008.00073	10547.7375
3010.42493	10558.1375
3012.84764	10565.7375
3015.26888	10519.3375
3017.68865	10467.3375
3020.10694	10420.8375
3022.52376	10439.3375
3024.9391	10433.9375
3027.35298	10411.7375
3029.76539	10404.9375
3032.17632	10380.8375
3034.5858	10363.1375
3036.9938	10387.2375
3039.40034	10356.6375
3041.80542	10366.3375
3044.20903	10315.6375
3046.61118	10331.2375
3049.01187	10283.4375
3051.4111	10302.3375
3053.80888	10290.5375
3056.20519	10250.5375
3058.60005	10210.5375
3060.99345	10170.5375
3063.3854	10156.5375
3065.7759	10119.4375
3068.16494	10076.3375
3070.55254	10058.2375
3072.93868	10035.0375
3075.32338	9988.6375
3077.70662	9971.8375
3080.08842	9936.1375
3082.46878	9932.1375
3084.84769	9907.1375
3087.22515	9883.7375
3089.60118	9897.8375
3091.97576	9875.8375
3094.3489	9875.8375
3096.72061	9877.8375
3099.09087	9884.7375
3101.4597	9857.1375
3103.82709	9864.1375
3106.19305	9820.3375
3108.55757	9862.1375
3110.92066	9815.4375
3113.28232	9770.7375
3115.64255	9752.1375
3118.00134	9716.8375
3120.35871	9735.4375
3122.71466	9711.0375
3125.06917	9664.9375
3127.42226	9652.4375
3129.77393	9661.5375
3132.12417	9628.3375
3134.47299	9632.5375
3136.82039	9605.3375
3139.16636	9628.5375
3141.51092	9610.1375
3143.85406	9603.7375
3146.19579	9607.1375
3148.53609	9613.6375
3150.87499	9603.7375
3153.21246	9611.8375
3155.54853	9644.0375
3157.88318	9614.4375
3160.21642	9626.9375
3162.54826	9619.9375
3164.87868	9641.5375
3167.2077	9617.9375
3169.5353	9636.7375
3171.86151	9634.9375
3174.18631	9658.4375
3176.5097	9638.4375
3178.83169	9597.2375
3181.15228	9600.7375
3183.47147	9571.9375
3185.78926	9561.3375
3188.10565	9548.8375
3190.42065	9535.6375
3192.73424	9528.5375
3195.04645	9508.8375
3197.35725	9501.4375
3199.66667	9491.3375
3201.97469	9481.2375
3204.28132	9496.6375
3206.58656	9501.0375
3208.8904	9485.6375
3211.19287	9514.0375
3213.49394	9515.0375
3215.79363	9506.5375
3218.09193	9534.2375
3220.38884	9496.1375
3222.68438	9478.7375
3224.97853	9486.9375
3227.2713	9491.6375
3229.56269	9465.0375
3231.8527	9458.6375
3234.14133	9426.3375
3236.42858	9430.6375
3238.71446	9388.8375
3240.99896	9399.5375
3243.28209	9367.7375
3245.56384	9370.1375
3247.84423	9344.4375
3250.12324	9347.3375
3252.40088	9309.9375
3254.67715	9330.0375
3256.95205	9287.5375
3259.22558	9270.5375
3261.49775	9265.3375
3263.76855	9225.4375
3266.03799	9226.8375
3268.30606	9213.4375
3270.57277	9184.2375
3272.83812	9143.2375
3275.10211	9141.4375
3277.36474	9135.0375
3279.62601	9140.4375
3281.88593	9134.7375
3284.14448	9141.4375
3286.40168	9129.9375
3288.65753	9113.0375
3290.91202	9114.0375
3293.16516	9105.4375
3295.41695	9102.3375
3297.66738	9041.0375
3299.91647	8978.9375
3302.16421	8897.9375
3304.4106	8854.5375
3306.65564	8786.8375
3308.89933	8733.4375
3311.14169	8685.2375
3313.38269	8618.1375
3315.62236	8531.3375
3317.86068	8465.8375
3320.09766	8404.5375
3322.3333	8354.8375
3324.5676	8302.2375
3326.80056	8165.8375
3329.03219	8111.5375
3331.26248	2.8375
3333.49143	1.2375
3335.71905	-0.0625
