Data from AgNPs_FTO_APTES_UA_5uM_CRN_0uM_R6G_10uM_NaF_0.1M_Addition_RamanShift__7__09-46-56-528.txt Node

Date: Mon Feb 07 09:46:56 GMT 2022
User: TCL
Spectrometer: QEP01345
Trigger mode: 4
Integration Time (sec): 7.000000E0
Scans to average: 10
Electric dark correction enabled: true
Nonlinearity correction enabled: false
Boxcar width: 0
XAxis mode: Raman Shifts
Number of Pixels in Spectrum: 1044
>>>>>Begin Spectral Data<<<<<
46.04893	-0.4625
50.45542	-0.8625
54.85868	-1.0625
59.25871	1.4375
63.6555	81.3375
68.04907	82.5375
72.43941	89.8375
76.82654	90.6375
81.21044	90.6375
85.59113	97.3375
89.96862	100.1375
94.34289	101.6375
98.71396	104.3375
103.08183	113.7375
107.4465	114.4375
111.80798	117.4375
116.16626	122.9375
120.52136	125.0375
124.87327	135.6375
129.222	142.8375
133.56755	157.2375
137.90993	170.5375
142.24913	187.9375
146.58517	217.1375
150.91804	254.9375
155.24774	316.1375
159.57429	399.9375
163.89768	523.8375
168.21792	703.2375
172.53501	956.1375
176.84895	1341.2375
181.15975	1893.8375
185.46741	2658.1375
189.77193	3654.4375
194.07331	4886.9375
198.37157	6285.1375
202.6667	7760.0375
206.9587	9231.3375
211.24758	10667.1375
215.53334	12108.1375
219.81599	13702.9375
224.09553	15471.1375
228.37195	17385.4375
232.64527	19494.0375
236.91549	21699.9375
241.18261	23896.4375
245.44663	25885.2375
249.70755	27640.4375
253.96539	29212.3375
258.22014	30567.4375
262.4718	31633.4375
266.72039	32311.5375
270.96589	32689.6375
275.20832	32680.2375
279.44768	32486.9375
283.68397	32286.0375
287.91719	32113.9375
292.14735	32067.2375
296.37445	32043.5375
300.59849	32052.9375
304.81948	32192.2375
309.03742	32287.3375
313.25231	32163.2375
317.46415	31470.6375
321.67296	30347.1375
325.87872	29205.5375
330.08145	28470.8375
334.28114	28160.5375
338.47781	28255.8375
342.67145	28547.4375
346.86207	28865.2375
351.04966	29323.1375
355.23424	29885.9375
359.4158	30468.2375
363.59435	30859.9375
367.76989	31116.0375
371.94243	31092.1375
376.11196	30967.9375
380.27849	30787.0375
384.44203	30632.0375
388.60257	30678.0375
392.76012	31108.3375
396.91468	31812.1375
401.06626	32618.7375
405.21485	33028.5375
409.36047	32818.2375
413.50311	32215.5375
417.64277	31868.4375
421.77947	31893.3375
425.9132	32121.2375
430.04396	32102.3375
434.17176	31963.9375
438.2966	31765.5375
442.41849	31764.0375
446.53742	32223.8375
450.6534	33016.0375
454.76644	33661.1375
458.87653	34068.2375
462.98368	34136.9375
467.08789	33970.7375
471.18916	33653.6375
475.2875	33371.9375
479.38291	33498.2375
483.4754	33932.4375
487.56496	34077.9375
491.6516	33823.5375
495.73531	33262.8375
499.81612	32749.4375
503.89401	32715.4375
507.96899	32628.0375
512.04106	32348.8375
516.11023	31705.6375
520.1765	30869.5375
524.23987	30051.6375
528.30034	29431.7375
532.35792	28900.3375
536.41261	28438.7375
540.46441	28104.2375
544.51333	28116.5375
548.55936	28604.4375
552.60252	29615.1375
556.64279	30679.0375
560.6802	31338.2375
564.71473	31881.3375
568.7464	33002.1375
572.7752	34897.0375
576.80114	37118.5375
580.82422	39287.0375
584.84444	41547.5375
588.86181	44003.6375
592.87633	45463.3375
596.888	44084.0375
600.89682	40737.1375
604.9028	39277.4375
608.90594	41389.3375
612.90624	43985.1375
616.90371	40721.3375
620.89834	33144.1375
624.89015	29529.3375
628.87913	29361.7375
632.86528	30160.0375
636.84862	30458.2375
640.82913	29670.0375
644.80683	28438.6375
648.78172	27681.9375
652.75379	27579.8375
656.72306	27967.6375
660.68952	28391.9375
664.65319	28090.2375
668.61405	27494.8375
672.57211	27287.4375
676.52738	27317.2375
680.47986	27258.4375
684.42955	26970.1375
688.37646	26717.6375
692.32058	26884.5375
696.26192	27461.1375
700.20048	28040.6375
704.13626	28563.2375
708.06928	28948.7375
711.99952	29083.8375
715.927	29016.1375
719.85171	28977.5375
723.77365	28690.1375
727.69284	27924.5375
731.60928	27172.9375
735.52295	26743.4375
739.43388	26615.5375
743.34206	26694.0375
747.24749	26977.2375
751.15017	27543.6375
755.05012	28413.8375
758.94733	29745.7375
762.8418	31840.3375
766.73354	34863.6375
770.62254	37564.4375
774.50882	37283.5375
778.39237	34496.1375
782.27321	31416.3375
786.15132	29069.8375
790.02671	27591.3375
793.89938	26736.3375
797.76935	26356.3375
801.6366	26198.9375
805.50115	26111.9375
809.36299	26009.9375
813.22213	25835.2375
817.07857	25766.0375
820.93231	25625.2375
824.78336	25425.3375
828.63172	25109.2375
832.47738	24902.9375
836.32036	24848.0375
840.16066	24805.9375
843.99827	24843.5375
847.8332	24875.8375
851.66546	24923.0375
855.49504	24968.4375
859.32195	25033.7375
863.1462	24897.7375
866.96777	24768.7375
870.78668	24682.4375
874.60293	24618.5375
878.41652	24531.6375
882.22745	24555.0375
886.03573	24660.0375
889.84136	24724.3375
893.64433	24654.5375
897.44466	24674.5375
901.24235	24684.9375
905.0374	24596.7375
908.8298	24544.3375
912.61957	24528.5375
916.40671	24892.4375
920.19121	25621.9375
923.97308	26390.3375
927.75233	26565.6375
931.52895	26089.6375
935.30295	25143.0375
939.07433	24188.5375
942.84309	23432.5375
946.60924	23050.6375
950.37278	22985.8375
954.13371	23028.6375
957.89203	23095.9375
961.64774	23132.5375
965.40086	23220.1375
969.15137	23213.5375
972.89929	23075.2375
976.64461	22750.7375
980.38733	22563.9375
984.12747	22466.8375
987.86502	22435.0375
991.59999	22488.4375
995.33237	22612.5375
999.06217	22858.0375
1002.78939	23225.4375
1006.51404	23666.7375
1010.23611	24252.9375
1013.95561	24663.9375
1017.67255	24820.9375
1021.38692	24548.7375
1025.09872	24075.8375
1028.80796	23629.9375
1032.51465	23426.7375
1036.21877	23512.5375
1039.92035	23692.3375
1043.61937	23925.2375
1047.31584	24118.9375
1051.00976	24288.8375
1054.70114	24518.6375
1058.38998	24854.4375
1062.07627	25231.6375
1065.76003	25832.3375
1069.44126	26549.1375
1073.11995	27668.7375
1076.79611	28660.5375
1080.46974	28966.7375
1084.14085	29066.3375
1087.80943	29364.4375
1091.47549	30047.7375
1095.13903	30451.2375
1098.80005	30049.3375
1102.45857	28559.6375
1106.11456	26816.6375
1109.76805	25742.9375
1113.41903	25250.1375
1117.06751	25209.9375
1120.71348	25468.4375
1124.35696	25890.7375
1127.99793	26415.5375
1131.63641	26910.3375
1135.2724	27073.7375
1138.90589	27133.2375
1142.5369	27339.1375
1146.16542	27598.4375
1149.79145	28087.6375
1153.415	28571.4375
1157.03607	29382.9375
1160.65467	30744.8375
1164.27079	32830.6375
1167.88443	35375.3375
1171.49561	37845.5375
1175.10432	40677.7375
1178.71056	44154.2375
1182.31434	47424.7375
1185.91565	49073.7375
1189.51451	48923.8375
1193.11091	47637.1375
1196.70485	45512.9375
1200.29634	43075.8375
1203.88538	41572.9375
1207.47197	41325.8375
1211.05612	41402.9375
1214.63782	40949.6375
1218.21708	39435.5375
1221.79391	37288.1375
1225.36829	35451.6375
1228.94024	34278.8375
1232.50976	33572.1375
1236.07685	33042.1375
1239.6415	32666.0375
1243.20374	32556.1375
1246.76355	32767.0375
1250.32093	33319.9375
1253.8759	34284.2375
1257.42845	35712.5375
1260.97859	37434.5375
1264.52631	39163.9375
1268.07163	40842.1375
1271.61453	42468.1375
1275.15503	44304.6375
1278.69312	46441.5375
1282.22882	48897.4375
1285.76211	51819.3375
1289.29301	55132.8375
1292.82151	58519.0375
1296.34761	62399.8375
1299.87133	66692.2375
1303.39266	70739.9375
1306.9116	73689.9375
1310.42815	75136.7375
1313.94233	75261.6375
1317.45412	74628.5375
1320.96354	74250.3375
1324.47058	74901.1375
1327.97525	75801.3375
1331.47754	76157.2375
1334.97747	75359.0375
1338.47502	73379.1375
1341.97022	71100.1375
1345.46305	68796.2375
1348.95352	66551.1375
1352.44163	64627.0375
1355.92738	64046.6375
1359.41078	65782.5375
1362.89183	68725.2375
1366.37053	70118.2375
1369.84688	67079.9375
1373.32088	60454.4375
1376.79254	54179.0375
1380.26186	50908.9375
1383.72883	50072.0375
1387.19347	50262.4375
1390.65578	50002.5375
1394.11575	49822.6375
1397.57339	50461.4375
1401.0287	51795.9375
1404.48168	52692.1375
1407.93234	52053.2375
1411.38068	49657.0375
1414.82669	46339.1375
1418.27039	42912.0375
1421.71177	39999.6375
1425.15083	37854.0375
1428.58758	36889.5375
1432.02203	37232.9375
1435.45416	38638.1375
1438.88399	40286.8375
1442.31151	41666.4375
1445.73673	42635.5375
1449.15965	43562.2375
1452.58027	44066.3375
1455.9986	44304.8375
1459.41463	44599.8375
1462.82837	45372.5375
1466.23982	46512.4375
1469.64898	47449.2375
1473.05586	47820.5375
1476.46045	47758.4375
1479.86276	47523.0375
1483.26279	47245.8375
1486.66054	47468.2375
1490.05602	48240.9375
1493.44922	49507.5375
1496.84016	51021.2375
1500.22882	52763.4375
1503.61521	54788.9375
1506.99934	56809.3375
1510.38121	58586.8375
1513.76081	59484.2375
1517.13816	59155.8375
1520.51324	58344.7375
1523.88607	57726.4375
1527.25665	57312.8375
1530.62498	56877.0375
1533.99105	55774.2375
1537.35488	53967.3375
1540.71647	51416.4375
1544.07581	48640.3375
1547.4329	45963.0375
1550.78776	44113.7375
1554.14038	42909.5375
1557.49077	42434.7375
1560.83892	42341.2375
1564.18484	42467.0375
1567.52853	42416.6375
1570.86999	42577.6375
1574.20922	43459.2375
1577.54624	44401.0375
1580.88103	44983.0375
1584.2136	45887.9375
1587.54395	48042.9375
1590.87208	51459.6375
1594.19801	54863.8375
1597.52172	57064.5375
1600.84321	56022.6375
1604.16251	51401.0375
1607.47959	45708.9375
1610.79447	40680.8375
1614.10715	36423.6375
1617.41763	32945.1375
1620.7259	30568.1375
1624.03199	29453.8375
1627.33587	29449.1375
1630.63757	30655.6375
1633.93707	33545.1375
1637.23439	38636.5375
1640.52951	46472.6375
1643.82246	56512.2375
1647.11321	65615.8375
1650.40179	69009.3375
1653.68819	64385.8375
1656.97241	54397.3375
1660.25446	43658.7375
1663.53433	35168.7375
1666.81203	29532.9375
1670.08756	26088.4375
1673.36092	24019.0375
1676.63211	22695.7375
1679.90115	21858.1375
1683.16801	21192.5375
1686.43272	20698.2375
1689.69527	20356.8375
1692.95567	20071.4375
1696.2139	19882.2375
1699.46999	19693.4375
1702.72392	19590.1375
1705.97571	19456.3375
1709.22535	19317.0375
1712.47284	19250.5375
1715.71819	19125.8375
1718.96139	19032.4375
1722.20246	18884.2375
1725.44139	18734.4375
1728.67818	18573.9375
1731.91284	18386.2375
1735.14537	18223.0375
1738.37576	18048.1375
1741.60403	17955.0375
1744.83017	17868.8375
1748.05418	17757.4375
1751.27607	17699.1375
1754.49584	17654.0375
1757.71349	17602.0375
1760.92903	17519.6375
1764.14244	17514.0375
1767.35375	17482.1375
1770.56294	17462.3375
1773.77002	17363.3375
1776.97499	17328.1375
1780.17785	17240.4375
1783.37861	17216.0375
1786.57727	17138.5375
1789.77382	17083.4375
1792.96828	17055.8375
1796.16064	16999.2375
1799.3509	16947.2375
1802.53907	16864.7375
1805.72514	16784.2375
1808.90913	16711.2375
1812.09102	16650.3375
1815.27083	16589.6375
1818.44856	16591.9375
1821.6242	16527.8375
1824.79776	16498.4375
1827.96924	16452.9375
1831.13864	16416.5375
1834.30597	16444.0375
1837.47122	16434.8375
1840.6344	16430.2375
1843.7955	16409.1375
1846.95454	16400.8375
1850.11151	16394.1375
1853.26642	16361.3375
1856.41926	16328.8375
1859.57004	16319.3375
1862.71876	16261.4375
1865.86542	16234.5375
1869.01003	16170.2375
1872.15258	16145.1375
1875.29308	16095.2375
1878.43152	16039.1375
1881.56792	16010.4375
1884.70227	15939.9375
1887.83457	15976.7375
1890.96482	15973.9375
1894.09304	15924.4375
1897.21921	15849.8375
1900.34335	15860.8375
1903.46544	15795.0375
1906.58551	15778.2375
1909.70353	15759.6375
1912.81953	15692.9375
1915.93349	15654.0375
1919.04543	15589.1375
1922.15534	15528.8375
1925.26322	15498.5375
1928.36908	15427.7375
1931.47292	15386.8375
1934.57473	15314.7375
1937.67453	15264.6375
1940.77232	15192.7375
1943.86808	15142.3375
1946.96184	15096.0375
1950.05358	15043.0375
1953.14331	15034.4375
1956.23103	14973.9375
1959.31675	14949.2375
1962.40046	14851.2375
1965.48217	14789.1375
1968.56188	14790.7375
1971.63959	14703.9375
1974.7153	14655.6375
1977.78901	14562.4375
1980.86073	14492.3375
1983.93046	14447.9375
1986.99819	14357.5375
1990.06394	14328.9375
1993.1277	14273.9375
1996.18947	14206.3375
1999.24925	14171.6375
2002.30706	14110.1375
2005.36288	14057.6375
2008.41672	14013.9375
2011.46859	13983.8375
2014.51848	13902.4375
2017.56639	13871.4375
2020.61233	13805.5375
2023.6563	13801.2375
2026.6983	13733.9375
2029.73833	13719.5375
2032.7764	13691.7375
2035.8125	13641.2375
2038.84664	13568.3375
2041.87881	13530.2375
2044.90903	13518.8375
2047.93729	13462.6375
2050.96359	13476.4375
2053.98794	13435.8375
2057.01034	13455.7375
2060.03078	13439.1375
2063.04927	13404.9375
2066.06582	13378.8375
2069.08042	13399.3375
2072.09307	13368.4375
2075.10378	13344.1375
2078.11255	13320.9375
2081.11938	13307.3375
2084.12426	13285.6375
2087.12722	13272.3375
2090.12824	13292.3375
2093.12732	13300.9375
2096.12447	13239.4375
2099.11969	13243.9375
2102.11299	13237.5375
2105.10435	13259.0375
2108.09379	13231.8375
2111.08131	13210.8375
2114.0669	13219.2375
2117.05057	13254.1375
2120.03233	13266.4375
2123.01216	13280.0375
2125.99008	13274.1375
2128.96609	13251.2375
2131.94018	13237.8375
2134.91236	13228.4375
2137.88263	13208.2375
2140.851	13185.8375
2143.81746	13183.2375
2146.78201	13158.0375
2149.74466	13180.4375
2152.7054	13140.3375
2155.66425	13098.4375
2158.6212	13105.9375
2161.57625	13079.5375
2164.52941	13054.8375
2167.48067	13068.1375
2170.43004	13062.5375
2173.37752	12992.2375
2176.32311	12973.3375
2179.26681	13031.9375
2182.20863	12983.5375
2185.14856	12992.1375
2188.08661	12971.5375
2191.02278	12948.0375
2193.95707	12932.7375
2196.88948	12911.5375
2199.82001	12872.5375
2202.74867	12840.0375
2205.67545	12792.2375
2208.60037	12772.8375
2211.52341	12765.8375
2214.44458	12760.6375
2217.36388	12721.5375
2220.28132	12680.4375
2223.1969	12632.0375
2226.11061	12672.0375
2229.02246	12651.3375
2231.93245	12651.0375
2234.84058	12638.5375
2237.74686	12579.9375
2240.65128	12552.4375
2243.55385	12510.3375
2246.45456	12498.1375
2249.35343	12449.6375
2252.25044	12424.8375
2255.14561	12350.5375
2258.03893	12329.2375
2260.93041	12282.9375
2263.82004	12287.5375
2266.70783	12229.0375
2269.59378	12170.6375
2272.4779	12137.7375
2275.36017	12112.7375
2278.24061	12099.2375
2281.11922	12050.2375
2283.996	12041.7375
2286.87094	12015.4375
2289.74405	11982.4375
2292.61534	11952.6375
2295.4848	11931.0375
2298.35243	11932.1375
2301.21824	11908.4375
2304.08223	11907.3375
2306.94439	11892.0375
2309.80474	11869.8375
2312.66327	11870.3375
2315.51999	11827.0375
2318.37489	11836.2375
2321.22797	11806.2375
2324.07925	11761.0375
2326.92871	11760.4375
2329.77637	11743.2375
2332.62222	11738.6375
2335.46626	11724.3375
2338.3085	11735.5375
2341.14893	11700.2375
2343.98756	11692.2375
2346.8244	11708.5375
2349.65943	11715.2375
2352.49267	11736.5375
2355.32411	11739.0375
2358.15376	11719.8375
2360.98161	11736.4375
2363.80768	11711.5375
2366.63195	11730.4375
2369.45444	11720.3375
2372.27514	11686.3375
2375.09405	11650.8375
2377.91118	11645.0375
2380.72652	11575.8375
2383.54009	11522.5375
2386.35187	11510.2375
2389.16188	11426.8375
2391.97011	11419.7375
2394.77657	11405.0375
2397.58125	11358.7375
2400.38416	11357.6375
2403.18529	11318.0375
2405.98466	11325.1375
2408.78226	11279.1375
2411.57809	11276.0375
2414.37216	11271.9375
2417.16446	11284.8375
2419.955	11240.0375
2422.74378	11227.4375
2425.5308	11208.5375
2428.31606	11203.6375
2431.09956	11202.9375
2433.88131	11200.2375
2436.6613	11202.8375
2439.43954	11206.6375
2442.21603	11212.6375
2444.99077	11204.7375
2447.76377	11195.0375
2450.53501	11193.2375
2453.30451	11159.3375
2456.07226	11159.8375
2458.83827	11144.8375
2461.60254	11154.4375
2464.36507	11154.9375
2467.12586	11161.1375
2469.88492	11110.9375
2472.64224	11130.1375
2475.39782	11097.7375
2478.15167	11127.5375
2480.90379	11114.7375
2483.65417	11108.1375
2486.40283	11110.2375
2489.14976	11139.5375
2491.89497	11100.4375
2494.63845	11104.2375
2497.3802	11102.5375
2500.12024	11112.1375
2502.85855	11088.0375
2505.59514	11072.0375
2508.33002	11049.5375
2511.06318	11050.7375
2513.79462	11014.1375
2516.52435	11037.8375
2519.25237	10996.6375
2521.97867	10973.4375
2524.70327	10955.6375
2527.42616	10925.5375
2530.14734	10914.7375
2532.86681	10926.3375
2535.58458	10919.0375
2538.30065	10890.0375
2541.01501	10898.5375
2543.72768	10890.2375
2546.43864	10875.1375
2549.14791	10833.9375
2551.85548	10841.2375
2554.56136	10831.3375
2557.26554	10793.2375
2559.96803	10817.0375
2562.66883	10827.4375
2565.36794	10810.5375
2568.06536	10801.3375
2570.7611	10782.6375
2573.45514	10765.2375
2576.14751	10756.7375
2578.83819	10735.1375
2581.52719	10711.8375
2584.21451	10711.1375
2586.90015	10723.4375
2589.58411	10688.0375
2592.2664	10710.2375
2594.94701	10672.1375
2597.62594	10680.6375
2600.30321	10682.7375
2602.9788	10684.4375
2605.65273	10675.0375
2608.32498	10708.9375
2610.99557	10679.5375
2613.66449	10695.8375
2616.33175	10659.1375
2618.99734	10661.1375
2621.66128	10640.4375
2624.32355	10648.6375
2626.98416	10619.6375
2629.64311	10575.4375
2632.30041	10586.6375
2634.95605	10584.9375
2637.61004	10581.6375
2640.26238	10578.4375
2642.91306	10583.9375
2645.56209	10587.6375
2648.20948	10577.1375
2650.85521	10581.8375
2653.4993	10595.7375
2656.14175	10609.7375
2658.78255	10566.8375
2661.42171	10564.2375
2664.05923	10599.7375
2666.6951	10587.3375
2669.32934	10609.2375
2671.96194	10619.0375
2674.59291	10631.0375
2677.22224	10613.1375
2679.84993	10613.2375
2682.476	10620.7375
2685.10043	10605.7375
2687.72324	10562.5375
2690.34441	10564.7375
2692.96396	10574.0375
2695.58188	10573.2375
2698.19818	10533.3375
2700.81285	10569.5375
2703.4259	10536.1375
2706.03733	10562.3375
2708.64714	10563.3375
2711.25533	10557.5375
2713.86191	10531.2375
2716.46687	10585.1375
2719.07021	10565.4375
2721.67194	10583.1375
2724.27206	10585.8375
2726.87057	10619.7375
2729.46747	10605.8375
2732.06276	10628.5375
2734.65644	10609.4375
2737.24852	10618.6375
2739.83899	10579.7375
2742.42786	10594.9375
2745.01513	10576.1375
2747.60079	10571.3375
2750.18486	10548.6375
2752.76733	10536.6375
2755.3482	10527.7375
2757.92747	10511.8375
2760.50515	10478.7375
2763.08123	10492.5375
2765.65573	10491.7375
2768.22863	10511.4375
2770.79994	10459.2375
2773.36967	10473.4375
2775.9378	10500.4375
2778.50435	10489.4375
2781.06932	10495.2375
2783.6327	10499.8375
2786.1945	10483.3375
2788.75471	10499.1375
2791.31335	10467.7375
2793.87041	10450.3375
2796.42589	10469.6375
2798.97979	10474.2375
2801.53212	10437.0375
2804.08288	10425.0375
2806.63206	10399.1375
2809.17967	10379.1375
2811.72571	10380.0375
2814.27018	10393.1375
2816.81308	10359.0375
2819.35442	10344.3375
2821.89419	10325.2375
2824.43239	10299.5375
2826.96904	10294.9375
2829.50412	10285.8375
2832.03763	10256.2375
2834.56959	10244.7375
2837.1	10257.4375
2839.62884	10246.3375
2842.15613	10257.0375
2844.68186	10279.2375
2847.20604	10304.8375
2849.72867	10307.3375
2852.24974	10299.5375
2854.76927	10286.7375
2857.28724	10263.2375
2859.80367	10286.1375
2862.31855	10247.3375
2864.83189	10245.0375
2867.34368	10231.1375
2869.85393	10224.8375
2872.36264	10173.3375
2874.8698	10161.2375
2877.37543	10195.2375
2879.87952	10165.4375
2882.38207	10175.9375
2884.88308	10161.8375
2887.38256	10182.5375
2889.88051	10210.9375
2892.37692	10213.0375
2894.8718	10213.7375
2897.36515	10221.2375
2899.85698	10202.5375
2902.34727	10242.4375
2904.83604	10263.5375
2907.32328	10267.7375
2909.809	10259.5375
2912.29319	10265.0375
2914.77587	10244.7375
2917.25702	10261.6375
2919.73665	10225.7375
2922.21476	10235.4375
2924.69136	10217.9375
2927.16644	10234.6375
2929.64	10212.0375
2932.11205	10214.2375
2934.58258	10167.5375
2937.05161	10163.2375
2939.51912	10158.8375
2941.98513	10122.8375
2944.44962	10082.3375
2946.91261	10038.3375
2949.37409	10065.9375
2951.83407	10012.0375
2954.29254	9979.1375
2956.74951	9974.4375
2959.20498	9949.6375
2961.65895	9915.0375
2964.11142	9910.2375
2966.56239	9910.2375
2969.01186	9858.1375
2971.45984	9840.2375
2973.90632	9836.7375
2976.35131	9819.0375
2978.7948	9794.4375
2981.23681	9785.8375
2983.67732	9731.8375
2986.11635	9700.7375
2988.55388	9663.5375
2990.98993	9618.3375
2993.4245	9585.6375
2995.85758	9569.4375
2998.28917	9509.3375
3000.71928	9480.7375
3003.14791	9448.9375
3005.57506	9418.1375
3008.00073	9405.4375
3010.42493	9395.3375
3012.84764	9374.0375
3015.26888	9361.4375
3017.68865	9315.2375
3020.10694	9295.6375
3022.52376	9252.8375
3024.9391	9251.4375
3027.35298	9227.1375
3029.76539	9234.5375
3032.17632	9242.9375
3034.5858	9225.8375
3036.9938	9227.2375
3039.40034	9204.2375
3041.80542	9188.6375
3044.20903	9178.7375
3046.61118	9173.3375
3049.01187	9139.5375
3051.4111	9144.8375
3053.80888	9131.1375
3056.20519	9073.0375
3058.60005	9036.8375
3060.99345	8989.9375
3063.3854	8972.8375
3065.7759	8919.5375
3068.16494	8910.1375
3070.55254	8870.8375
3072.93868	8825.6375
3075.32338	8764.3375
3077.70662	8743.2375
3080.08842	8701.8375
3082.46878	8720.2375
3084.84769	8723.9375
3087.22515	8681.5375
3089.60118	8679.9375
3091.97576	8644.4375
3094.3489	8660.2375
3096.72061	8674.1375
3099.09087	8651.7375
3101.4597	8604.3375
3103.82709	8610.6375
3106.19305	8612.8375
3108.55757	8603.2375
3110.92066	8591.6375
3113.28232	8555.8375
3115.64255	8519.6375
3118.00134	8523.1375
3120.35871	8482.0375
3122.71466	8461.4375
3125.06917	8442.3375
3127.42226	8421.5375
3129.77393	8432.0375
3132.12417	8413.2375
3134.47299	8392.6375
3136.82039	8385.9375
3139.16636	8393.9375
3141.51092	8369.3375
3143.85406	8377.1375
3146.19579	8341.5375
3148.53609	8372.6375
3150.87499	8365.2375
3153.21246	8341.4375
3155.54853	8340.4375
3157.88318	8348.4375
3160.21642	8355.3375
3162.54826	8369.2375
3164.87868	8340.4375
3167.2077	8363.4375
3169.5353	8347.6375
3171.86151	8345.0375
3174.18631	8339.0375
3176.5097	8367.1375
3178.83169	8312.0375
3181.15228	8323.6375
3183.47147	8308.2375
3185.78926	8285.5375
3188.10565	8272.2375
3190.42065	8253.9375
3192.73424	8230.4375
3195.04645	8232.7375
3197.35725	8210.1375
3199.66667	8177.1375
3201.97469	8174.8375
3204.28132	8176.4375
3206.58656	8180.0375
3208.8904	8188.4375
3211.19287	8171.5375
3213.49394	8162.3375
3215.79363	8158.9375
3218.09193	8153.6375
3220.38884	8160.2375
3222.68438	8174.1375
3224.97853	8154.2375
3227.2713	8139.8375
3229.56269	8125.1375
3231.8527	8135.4375
3234.14133	8140.2375
3236.42858	8114.7375
3238.71446	8112.2375
3240.99896	8077.3375
3243.28209	8083.7375
3245.56384	8066.1375
3247.84423	8047.1375
3250.12324	8050.1375
3252.40088	7999.8375
3254.67715	7981.7375
3256.95205	7977.1375
3259.22558	7977.7375
3261.49775	7946.4375
3263.76855	7951.0375
3266.03799	7925.3375
3268.30606	7895.1375
3270.57277	7868.8375
3272.83812	7847.5375
3275.10211	7846.2375
3277.36474	7833.4375
3279.62601	7821.5375
3281.88593	7824.1375
3284.14448	7834.7375
3286.40168	7855.8375
3288.65753	7836.1375
3290.91202	7829.0375
3293.16516	7821.5375
3295.41695	7818.6375
3297.66738	7717.0375
3299.91647	7699.1375
3302.16421	7623.4375
3304.4106	7600.6375
3306.65564	7537.5375
3308.89933	7478.1375
3311.14169	7408.0375
3313.38269	7329.1375
3315.62236	7262.0375
3317.86068	7181.9375
3320.09766	7113.6375
3322.3333	7063.6375
3324.5676	7015.9375
3326.80056	6905.0375
3329.03219	6857.7375
3331.26248	1.9375
3333.49143	-0.7625
3335.71905	-1.1625
