Data from AgNPs_FTO_APTES_UA_5uM_CRN_1uM_R6G_10uM_NaF_0.1M_Addition_RamanShift__22__10-42-56-594.txt Node

Date: Mon Feb 07 10:42:56 GMT 2022
User: TCL
Spectrometer: QEP01345
Trigger mode: 4
Integration Time (sec): 7.000000E0
Scans to average: 10
Electric dark correction enabled: true
Nonlinearity correction enabled: false
Boxcar width: 0
XAxis mode: Raman Shifts
Number of Pixels in Spectrum: 1044
>>>>>Begin Spectral Data<<<<<
46.04893	-1.3125
50.45542	-1.3125
54.85868	-0.3125
59.25871	-0.5125
63.6555	100.2875
68.04907	102.2875
72.43941	109.6875
76.82654	110.8875
81.21044	114.5875
85.59113	121.2875
89.96862	128.2875
94.34289	125.3875
98.71396	132.0875
103.08183	134.4875
107.4465	139.1875
111.80798	142.3875
116.16626	148.5875
120.52136	154.3875
124.87327	164.4875
129.222	175.6875
133.56755	186.6875
137.90993	203.3875
142.24913	220.6875
146.58517	252.2875
150.91804	293.1875
155.24774	353.2875
159.57429	444.0875
163.89768	580.6875
168.21792	780.2875
172.53501	1069.4875
176.84895	1477.6875
181.15975	2098.3875
185.46741	2931.6875
189.77193	4061.9875
194.07331	5417.0875
198.37157	6984.7875
202.6667	8601.7875
206.9587	10203.5875
211.24758	11817.4875
215.53334	13490.8875
219.81599	15302.6875
224.09553	17335.8875
228.37195	19540.3875
232.64527	21982.3875
236.91549	24539.8875
241.18261	26939.8875
245.44663	29078.6875
249.70755	30979.3875
253.96539	32603.9875
258.22014	34017.6875
262.4718	35284.4875
266.72039	36214.2875
270.96589	36748.5875
275.20832	36979.9875
279.44768	36868.3875
283.68397	36659.7875
287.91719	36602.2875
292.14735	36582.8875
296.37445	36723.0875
300.59849	37040.1875
304.81948	37517.7875
309.03742	37727.6875
313.25231	37258.1875
317.46415	35962.9875
321.67296	34061.8875
325.87872	32514.9875
330.08145	31793.2875
334.28114	31669.5875
338.47781	31986.6875
342.67145	32475.1875
346.86207	33247.9875
351.04966	34316.8875
355.23424	35572.1875
359.4158	36560.6875
363.59435	37151.4875
367.76989	37392.4875
371.94243	37455.4875
376.11196	37454.4875
380.27849	37430.1875
384.44203	37401.5875
388.60257	37442.5875
392.76012	37665.3875
396.91468	38181.7875
401.06626	39106.1875
405.21485	39753.2875
409.36047	39508.5875
413.50311	38497.2875
417.64277	37589.7875
421.77947	37302.1875
425.9132	37391.0875
430.04396	37597.2875
434.17176	37751.2875
438.2966	37974.5875
442.41849	38558.4875
446.53742	39535.5875
450.6534	40866.8875
454.76644	41845.5875
458.87653	42267.6875
462.98368	42028.9875
467.08789	41497.7875
471.18916	40741.5875
475.2875	40021.9875
479.38291	39693.0875
483.4754	39500.9875
487.56496	39194.4875
491.6516	38664.9875
495.73531	38127.0875
499.81612	37814.4875
503.89401	37906.4875
507.96899	37988.5875
512.04106	37922.1875
516.11023	37654.8875
520.1765	37233.9875
524.23987	36776.0875
528.30034	36191.9875
532.35792	35562.2875
536.41261	34893.2875
540.46441	34341.9875
544.51333	34234.6875
548.55936	34844.0875
552.60252	35918.0875
556.64279	37096.2875
560.6802	37706.7875
564.71473	38174.4875
568.7464	39298.7875
572.7752	40692.2875
576.80114	41276.3875
580.82422	41645.0875
584.84444	42102.8875
588.86181	42314.2875
592.87633	42737.8875
596.888	43260.6875
600.89682	43727.0875
604.9028	45948.1875
608.90594	52474.0875
612.90624	60153.8875
616.90371	56689.9875
620.89834	43944.5875
624.89015	38090.0875
628.87913	37372.9875
632.86528	37415.2875
636.84862	37075.4875
640.82913	36152.4875
644.80683	34630.0875
648.78172	33481.8875
652.75379	33229.2875
656.72306	33955.3875
660.68952	35075.7875
664.65319	35041.3875
668.61405	34203.3875
672.57211	33715.1875
676.52738	33636.0875
680.47986	33516.5875
684.42955	33292.9875
688.37646	33116.7875
692.32058	33393.5875
696.26192	33806.8875
700.20048	34291.7875
704.13626	34712.2875
708.06928	34722.1875
711.99952	34306.0875
715.927	34121.5875
719.85171	34150.5875
723.77365	33938.4875
727.69284	33399.2875
731.60928	32896.0875
735.52295	32789.8875
739.43388	32898.7875
743.34206	33107.7875
747.24749	33412.9875
751.15017	33887.4875
755.05012	34700.8875
758.94733	36195.5875
762.8418	39052.1875
766.73354	43727.9875
770.62254	48429.4875
774.50882	49715.5875
778.39237	46686.2875
782.27321	41706.7875
786.15132	37502.9875
790.02671	34978.3875
793.89938	33799.2875
797.76935	33375.1875
801.6366	33245.5875
805.50115	33086.5875
809.36299	32808.8875
813.22213	32489.3875
817.07857	32389.1875
820.93231	32405.9875
824.78336	32292.8875
828.63172	32189.6875
832.47738	32268.9875
836.32036	32279.9875
840.16066	32448.8875
843.99827	32647.9875
847.8332	32561.1875
851.66546	32312.1875
855.49504	32208.8875
859.32195	32062.8875
863.1462	31914.5875
866.96777	31666.8875
870.78668	31465.4875
874.60293	31394.6875
878.41652	31438.3875
882.22745	31562.6875
886.03573	31693.4875
889.84136	31648.3875
893.64433	31475.2875
897.44466	31344.1875
901.24235	31243.8875
905.0374	31161.6875
908.8298	31119.2875
912.61957	31131.3875
916.40671	31512.1875
920.19121	32248.8875
923.97308	32997.6875
927.75233	33394.9875
931.52895	33336.1875
935.30295	32731.3875
939.07433	31720.9875
942.84309	30946.5875
946.60924	30619.2875
950.37278	30480.4875
954.13371	30244.6875
957.89203	29974.4875
961.64774	29790.1875
965.40086	29694.9875
969.15137	29638.8875
972.89929	29487.2875
976.64461	29406.5875
980.38733	29513.4875
984.12747	29655.9875
987.86502	30036.6875
991.59999	30612.3875
995.33237	31521.8875
999.06217	33012.7875
1002.78939	34860.6875
1006.51404	36072.2875
1010.23611	36596.4875
1013.95561	36914.8875
1017.67255	36880.3875
1021.38692	36273.9875
1025.09872	35935.6875
1028.80796	36630.4875
1032.51465	38627.4875
1036.21877	40373.9875
1039.92035	40517.9875
1043.61937	39453.2875
1047.31584	37676.6875
1051.00976	35847.3875
1054.70114	34792.3875
1058.38998	34504.1875
1062.07627	34619.5875
1065.76003	34776.6875
1069.44126	35093.4875
1073.11995	35650.2875
1076.79611	36243.6875
1080.46974	36544.9875
1084.14085	36971.3875
1087.80943	37646.9875
1091.47549	38066.1875
1095.13903	37813.6875
1098.80005	37045.5875
1102.45857	35810.9875
1106.11456	34899.2875
1109.76805	34586.0875
1113.41903	34745.5875
1117.06751	35209.4875
1120.71348	35865.8875
1124.35696	36634.4875
1127.99793	37388.8875
1131.63641	37657.1875
1135.2724	37252.2875
1138.90589	36539.9875
1142.5369	36108.0875
1146.16542	35813.0875
1149.79145	35886.0875
1153.415	36191.6875
1157.03607	36832.9875
1160.65467	37878.9875
1164.27079	39679.6875
1167.88443	42355.0875
1171.49561	46037.8875
1175.10432	51148.3875
1178.71056	57596.0875
1182.31434	63439.0875
1185.91565	66449.8875
1189.51451	66566.6875
1193.11091	63697.1875
1196.70485	59478.5875
1200.29634	55542.8875
1203.88538	52609.0875
1207.47197	50186.2875
1211.05612	48373.8875
1214.63782	47101.6875
1218.21708	46629.0875
1221.79391	46654.2875
1225.36829	46771.1875
1228.94024	46410.8875
1232.50976	45478.5875
1236.07685	44676.8875
1239.6415	44233.5875
1243.20374	43965.7875
1246.76355	44152.1875
1250.32093	44841.3875
1253.8759	46220.0875
1257.42845	48062.7875
1260.97859	49907.3875
1264.52631	51611.6875
1268.07163	53331.8875
1271.61453	55416.1875
1275.15503	57727.4875
1278.69312	60061.5875
1282.22882	61923.7875
1285.76211	63639.0875
1289.29301	65523.6875
1292.82151	67796.5875
1296.34761	70951.4875
1299.87133	75238.6875
1303.39266	81093.7875
1306.9116	88134.9875
1310.42815	95309.7875
1313.94233	99887.9875
1317.45412	99834.2875
1320.96354	96886.8875
1324.47058	93133.7875
1327.97525	90001.0875
1331.47754	87854.8875
1334.97747	86722.5875
1338.47502	86349.2875
1341.97022	85952.9875
1345.46305	84948.4875
1348.95352	83374.7875
1352.44163	82418.6875
1355.92738	83981.3875
1359.41078	89237.9875
1362.89183	95239.4875
1366.37053	94220.8875
1369.84688	85230.4875
1373.32088	74497.7875
1376.79254	66833.8875
1380.26186	63188.3875
1383.72883	62068.3875
1387.19347	61425.0875
1390.65578	60681.3875
1394.11575	60569.2875
1397.57339	61430.8875
1401.0287	62983.6875
1404.48168	64642.7875
1407.93234	65481.2875
1411.38068	65256.5875
1414.82669	63506.7875
1418.27039	60620.6875
1421.71177	57366.1875
1425.15083	54744.4875
1428.58758	53190.0875
1432.02203	53071.3875
1435.45416	53921.4875
1438.88399	55051.6875
1442.31151	56133.1875
1445.73673	57184.6875
1449.15965	58287.2875
1452.58027	59068.0875
1455.9986	59259.8875
1459.41463	59662.7875
1462.82837	60502.8875
1466.23982	61821.7875
1469.64898	63067.1875
1473.05586	63685.5875
1476.46045	63792.4875
1479.86276	63758.4875
1483.26279	63695.6875
1486.66054	63896.2875
1490.05602	64472.4875
1493.44922	65431.6875
1496.84016	66659.2875
1500.22882	68434.7875
1503.61521	71381.1875
1506.99934	75204.4875
1510.38121	79213.8875
1513.76081	81186.6875
1517.13816	79478.4875
1520.51324	74952.2875
1523.88607	70204.7875
1527.25665	66841.8875
1530.62498	64729.2875
1533.99105	63433.1875
1537.35488	62539.2875
1540.71647	61720.9875
1544.07581	60590.6875
1547.4329	59403.2875
1550.78776	58289.6875
1554.14038	57503.6875
1557.49077	57303.1875
1560.83892	57327.8875
1564.18484	57543.2875
1567.52853	57665.6875
1570.86999	57804.0875
1574.20922	58365.4875
1577.54624	58758.8875
1580.88103	58434.7875
1584.2136	58116.0875
1587.54395	59619.1875
1590.87208	63242.3875
1594.19801	68283.2875
1597.52172	73437.7875
1600.84321	75346.2875
1604.16251	71735.3875
1607.47959	65048.2875
1610.79447	58053.8875
1614.10715	51850.4875
1617.41763	46942.5875
1620.7259	43739.6875
1624.03199	42212.8875
1627.33587	42303.0875
1630.63757	43912.8875
1633.93707	47255.6875
1637.23439	52305.1875
1640.52951	59003.5875
1643.82246	66364.3875
1647.11321	72653.5875
1650.40179	74613.4875
1653.68819	70188.3875
1656.97241	60662.8875
1660.25446	50528.3875
1663.53433	42813.0875
1666.81203	37827.0875
1670.08756	34846.3875
1673.36092	32912.3875
1676.63211	31676.6875
1679.90115	30911.6875
1683.16801	30295.0875
1686.43272	29788.6875
1689.69527	29484.8875
1692.95567	29278.3875
1696.2139	29137.2875
1699.46999	29016.3875
1702.72392	28884.7875
1705.97571	28787.9875
1709.22535	28690.6875
1712.47284	28637.2875
1715.71819	28574.2875
1718.96139	28517.5875
1722.20246	28401.2875
1725.44139	28265.9875
1728.67818	28081.9875
1731.91284	27884.4875
1735.14537	27693.7875
1738.37576	27565.9875
1741.60403	27439.5875
1744.83017	27315.7875
1748.05418	27228.8875
1751.27607	27204.0875
1754.49584	27122.6875
1757.71349	27087.6875
1760.92903	27073.0875
1764.14244	27027.5875
1767.35375	27054.5875
1770.56294	27018.4875
1773.77002	26932.8875
1776.97499	26910.5875
1780.17785	26802.6875
1783.37861	26817.2875
1786.57727	26706.3875
1789.77382	26727.8875
1792.96828	26649.1875
1796.16064	26650.2875
1799.3509	26640.2875
1802.53907	26568.3875
1805.72514	26463.2875
1808.90913	26381.5875
1812.09102	26323.5875
1815.27083	26268.0875
1818.44856	26216.6875
1821.6242	26154.7875
1824.79776	26175.8875
1827.96924	26116.1875
1831.13864	26119.5875
1834.30597	26188.2875
1837.47122	26144.6875
1840.6344	26128.1875
1843.7955	26183.1875
1846.95454	26194.6875
1850.11151	26253.8875
1853.26642	26192.3875
1856.41926	26247.9875
1859.57004	26298.0875
1862.71876	26268.8875
1865.86542	26273.8875
1869.01003	26226.5875
1872.15258	26231.4875
1875.29308	26274.8875
1878.43152	26288.8875
1881.56792	26353.3875
1884.70227	26354.1875
1887.83457	26362.5875
1890.96482	26373.7875
1894.09304	26380.4875
1897.21921	26406.2875
1900.34335	26373.3875
1903.46544	26377.5875
1906.58551	26403.5875
1909.70353	26388.0875
1912.81953	26330.5875
1915.93349	26352.2875
1919.04543	26255.8875
1922.15534	26231.0875
1925.26322	26142.8875
1928.36908	26035.8875
1931.47292	25876.8875
1934.57473	25753.4875
1937.67453	25661.7875
1940.77232	25571.9875
1943.86808	25397.4875
1946.96184	25274.4875
1950.05358	25169.2875
1953.14331	25116.0875
1956.23103	24991.4875
1959.31675	24864.7875
1962.40046	24807.4875
1965.48217	24781.4875
1968.56188	24744.2875
1971.63959	24600.8875
1974.7153	24551.8875
1977.78901	24470.6875
1980.86073	24391.4875
1983.93046	24266.4875
1986.99819	24189.0875
1990.06394	24137.4875
1993.1277	24093.2875
1996.18947	23964.6875
1999.24925	23920.6875
2002.30706	23776.4875
2005.36288	23758.3875
2008.41672	23674.1875
2011.46859	23625.2875
2014.51848	23582.4875
2017.56639	23487.3875
2020.61233	23445.7875
2023.6563	23367.3875
2026.6983	23357.6875
2029.73833	23296.0875
2032.7764	23278.3875
2035.8125	23303.7875
2038.84664	23226.1875
2041.87881	23200.0875
2044.90903	23178.9875
2047.93729	23141.0875
2050.96359	23106.9875
2053.98794	23087.3875
2057.01034	23072.6875
2060.03078	23046.9875
2063.04927	23016.8875
2066.06582	23045.6875
2069.08042	22994.6875
2072.09307	22943.7875
2075.10378	22911.8875
2078.11255	22868.0875
2081.11938	22885.3875
2084.12426	22805.4875
2087.12722	22792.9875
2090.12824	22794.1875
2093.12732	22757.4875
2096.12447	22766.5875
2099.11969	22788.2875
2102.11299	22797.9875
2105.10435	22811.5875
2108.09379	22779.9875
2111.08131	22789.4875
2114.0669	22753.9875
2117.05057	22817.3875
2120.03233	22815.0875
2123.01216	22856.6875
2125.99008	22866.9875
2128.96609	22897.2875
2131.94018	22928.2875
2134.91236	22931.4875
2137.88263	22913.4875
2140.851	22975.7875
2143.81746	22983.2875
2146.78201	22965.6875
2149.74466	22947.2875
2152.7054	22955.4875
2155.66425	22932.4875
2158.6212	22895.2875
2161.57625	22889.8875
2164.52941	22911.2875
2167.48067	22887.6875
2170.43004	22894.7875
2173.37752	22888.7875
2176.32311	22865.3875
2179.26681	22863.5875
2182.20863	22869.8875
2185.14856	22864.8875
2188.08661	22888.6875
2191.02278	22940.6875
2193.95707	22894.0875
2196.88948	22908.1875
2199.82001	22881.4875
2202.74867	22905.2875
2205.67545	22895.8875
2208.60037	22889.5875
2211.52341	22907.6875
2214.44458	22896.2875
2217.36388	22863.1875
2220.28132	22791.7875
2223.1969	22790.1875
2226.11061	22774.5875
2229.02246	22750.0875
2231.93245	22646.2875
2234.84058	22598.4875
2237.74686	22561.6875
2240.65128	22537.0875
2243.55385	22514.2875
2246.45456	22470.9875
2249.35343	22436.8875
2252.25044	22420.9875
2255.14561	22307.6875
2258.03893	22339.8875
2260.93041	22293.1875
2263.82004	22258.3875
2266.70783	22180.9875
2269.59378	22115.5875
2272.4779	22032.7875
2275.36017	21990.6875
2278.24061	21960.4875
2281.11922	21945.5875
2283.996	21908.0875
2286.87094	21902.5875
2289.74405	21859.3875
2292.61534	21847.0875
2295.4848	21883.0875
2298.35243	21885.6875
2301.21824	21878.9875
2304.08223	21947.4875
2306.94439	21928.3875
2309.80474	22012.8875
2312.66327	22074.4875
2315.51999	22047.2875
2318.37489	22046.0875
2321.22797	22021.2875
2324.07925	22015.9875
2326.92871	22027.7875
2329.77637	22021.7875
2332.62222	21940.5875
2335.46626	22005.0875
2338.3085	22032.1875
2341.14893	22088.3875
2343.98756	22069.2875
2346.8244	22130.4875
2349.65943	22175.9875
2352.49267	22138.6875
2355.32411	22183.8875
2358.15376	22111.4875
2360.98161	22109.0875
2363.80768	22060.0875
2366.63195	22079.0875
2369.45444	22038.6875
2372.27514	21948.8875
2375.09405	21887.5875
2377.91118	21819.5875
2380.72652	21727.7875
2383.54009	21645.6875
2386.35187	21652.9875
2389.16188	21600.8875
2391.97011	21584.4875
2394.77657	21564.8875
2397.58125	21497.0875
2400.38416	21461.8875
2403.18529	21413.0875
2405.98466	21398.2875
2408.78226	21335.9875
2411.57809	21264.7875
2414.37216	21279.6875
2417.16446	21229.3875
2419.955	21163.7875
2422.74378	21132.3875
2425.5308	21104.5875
2428.31606	21126.8875
2431.09956	21162.0875
2433.88131	21125.8875
2436.6613	21143.8875
2439.43954	21147.7875
2442.21603	21130.6875
2444.99077	21089.4875
2447.76377	21127.3875
2450.53501	21099.9875
2453.30451	21076.5875
2456.07226	21058.2875
2458.83827	21058.1875
2461.60254	21098.2875
2464.36507	21095.0875
2467.12586	21049.9875
2469.88492	21135.0875
2472.64224	21132.0875
2475.39782	21188.3875
2478.15167	21242.4875
2480.90379	21246.0875
2483.65417	21293.8875
2486.40283	21307.3875
2489.14976	21336.3875
2491.89497	21338.0875
2494.63845	21395.4875
2497.3802	21411.6875
2500.12024	21410.2875
2502.85855	21363.5875
2505.59514	21349.5875
2508.33002	21332.3875
2511.06318	21281.3875
2513.79462	21220.7875
2516.52435	21187.3875
2519.25237	21186.8875
2521.97867	21174.0875
2524.70327	21175.9875
2527.42616	21104.8875
2530.14734	21128.0875
2532.86681	21113.6875
2535.58458	21135.2875
2538.30065	21113.7875
2541.01501	21128.6875
2543.72768	21134.0875
2546.43864	21109.2875
2549.14791	21081.3875
2551.85548	21085.6875
2554.56136	21074.1875
2557.26554	21045.0875
2559.96803	21026.1875
2562.66883	21023.8875
2565.36794	20999.4875
2568.06536	20977.3875
2570.7611	20997.2875
2573.45514	20964.3875
2576.14751	20952.8875
2578.83819	20973.4875
2581.52719	20980.7875
2584.21451	20993.6875
2586.90015	20998.0875
2589.58411	20992.2875
2592.2664	21030.7875
2594.94701	21023.0875
2597.62594	21010.9875
2600.30321	20997.4875
2602.9788	21013.0875
2605.65273	21013.6875
2608.32498	21043.0875
2610.99557	21058.9875
2613.66449	21110.1875
2616.33175	21066.6875
2618.99734	21110.2875
2621.66128	21112.1875
2624.32355	21111.0875
2626.98416	21134.1875
2629.64311	21132.6875
2632.30041	21167.0875
2634.95605	21155.6875
2637.61004	21094.6875
2640.26238	21101.2875
2642.91306	21040.5875
2645.56209	20992.1875
2648.20948	20978.9875
2650.85521	20973.8875
2653.4993	20963.4875
2656.14175	20931.8875
2658.78255	20986.9875
2661.42171	20996.9875
2664.05923	21033.5875
2666.6951	21036.8875
2669.32934	21053.3875
2671.96194	21090.4875
2674.59291	21105.0875
2677.22224	21108.3875
2679.84993	21095.8875
2682.476	21070.4875
2685.10043	21050.9875
2687.72324	20963.7875
2690.34441	20958.1875
2692.96396	20900.8875
2695.58188	20929.5875
2698.19818	20869.0875
2700.81285	20885.0875
2703.4259	20863.5875
2706.03733	20920.5875
2708.64714	20913.1875
2711.25533	20909.0875
2713.86191	20874.9875
2716.46687	20922.6875
2719.07021	20909.3875
2721.67194	20956.3875
2724.27206	20947.7875
2726.87057	20968.2875
2729.46747	21006.6875
2732.06276	21009.9875
2734.65644	20985.3875
2737.24852	20994.5875
2739.83899	20977.7875
2742.42786	20951.9875
2745.01513	20940.5875
2747.60079	20914.1875
2750.18486	20918.4875
2752.76733	20898.0875
2755.3482	20854.4875
2757.92747	20888.1875
2760.50515	20889.4875
2763.08123	20866.8875
2765.65573	20882.9875
2768.22863	20869.3875
2770.79994	20849.2875
2773.36967	20853.4875
2775.9378	20866.8875
2778.50435	20911.0875
2781.06932	20929.8875
2783.6327	20935.7875
2786.1945	20933.9875
2788.75471	20952.5875
2791.31335	20879.8875
2793.87041	20883.5875
2796.42589	20779.0875
2798.97979	20795.7875
2801.53212	20757.4875
2804.08288	20738.5875
2806.63206	20655.2875
2809.17967	20643.0875
2811.72571	20612.3875
2814.27018	20611.8875
2816.81308	20571.5875
2819.35442	20551.8875
2821.89419	20551.1875
2824.43239	20603.3875
2826.96904	20572.5875
2829.50412	20626.7875
2832.03763	20540.9875
2834.56959	20542.0875
2837.1	20503.4875
2839.62884	20486.4875
2842.15613	20507.5875
2844.68186	20579.0875
2847.20604	20548.8875
2849.72867	20577.7875
2852.24974	20569.3875
2854.76927	20568.5875
2857.28724	20544.8875
2859.80367	20553.3875
2862.31855	20527.7875
2864.83189	20538.7875
2867.34368	20486.5875
2869.85393	20461.0875
2872.36264	20430.1875
2874.8698	20445.7875
2877.37543	20447.8875
2879.87952	20453.8875
2882.38207	20482.2875
2884.88308	20442.1875
2887.38256	20435.4875
2889.88051	20464.4875
2892.37692	20506.0875
2894.8718	20494.1875
2897.36515	20492.4875
2899.85698	20513.9875
2902.34727	20577.5875
2904.83604	20610.0875
2907.32328	20644.5875
2909.809	20653.3875
2912.29319	20684.1875
2914.77587	20658.8875
2917.25702	20651.8875
2919.73665	20619.2875
2922.21476	20622.9875
2924.69136	20565.6875
2927.16644	20543.0875
2929.64	20488.5875
2932.11205	20421.2875
2934.58258	20367.2875
2937.05161	20391.4875
2939.51912	20362.3875
2941.98513	20348.0875
2944.44962	20322.2875
2946.91261	20206.8875
2949.37409	20265.7875
2951.83407	20208.9875
2954.29254	20196.5875
2956.74951	20110.2875
2959.20498	20139.4875
2961.65895	20089.6875
2964.11142	20125.4875
2966.56239	20043.8875
2969.01186	20006.2875
2971.45984	20008.2875
2973.90632	19948.9875
2976.35131	19910.4875
2978.7948	19823.8875
2981.23681	19782.0875
2983.67732	19768.8875
2986.11635	19742.8875
2988.55388	19696.5875
2990.98993	19633.7875
2993.4245	19570.8875
2995.85758	19509.6875
2998.28917	19455.7875
3000.71928	19391.3875
3003.14791	19375.3875
3005.57506	19327.9875
3008.00073	19301.1875
3010.42493	19295.0875
3012.84764	19235.6875
3015.26888	19267.1875
3017.68865	19179.5875
3020.10694	19144.4875
3022.52376	19121.2875
3024.9391	19077.8875
3027.35298	19092.5875
3029.76539	19034.5875
3032.17632	18995.3875
3034.5858	18979.4875
3036.9938	18959.9875
3039.40034	18929.6875
3041.80542	18920.5875
3044.20903	18919.2875
3046.61118	18915.3875
3049.01187	18834.8875
3051.4111	18852.5875
3053.80888	18802.0875
3056.20519	18787.6875
3058.60005	18737.3875
3060.99345	18675.7875
3063.3854	18595.6875
3065.7759	18512.3875
3068.16494	18467.9875
3070.55254	18449.4875
3072.93868	18373.1875
3075.32338	18337.7875
3077.70662	18292.6875
3080.08842	18231.9875
3082.46878	18226.6875
3084.84769	18152.3875
3087.22515	18145.0875
3089.60118	18146.7875
3091.97576	18136.6875
3094.3489	18145.2875
3096.72061	18132.3875
3099.09087	18136.1875
3101.4597	18056.3875
3103.82709	18113.3875
3106.19305	18053.3875
3108.55757	18049.6875
3110.92066	17973.1875
3113.28232	17964.0875
3115.64255	17923.5875
3118.00134	17853.1875
3120.35871	17837.4875
3122.71466	17820.0875
3125.06917	17765.9875
3127.42226	17727.8875
3129.77393	17708.4875
3132.12417	17654.6875
3134.47299	17679.5875
3136.82039	17626.7875
3139.16636	17635.0875
3141.51092	17607.1875
3143.85406	17629.6875
3146.19579	17622.2875
3148.53609	17606.2875
3150.87499	17582.4875
3153.21246	17600.4875
3155.54853	17597.8875
3157.88318	17597.3875
3160.21642	17655.9875
3162.54826	17590.6875
3164.87868	17592.9875
3167.2077	17597.9875
3169.5353	17592.3875
3171.86151	17586.9875
3174.18631	17565.5875
3176.5097	17556.1875
3178.83169	17553.5875
3181.15228	17517.2875
3183.47147	17476.7875
3185.78926	17484.6875
3188.10565	17428.0875
3190.42065	17448.3875
3192.73424	17445.4875
3195.04645	17445.3875
3197.35725	17427.1875
3199.66667	17410.1875
3201.97469	17431.4875
3204.28132	17402.6875
3206.58656	17428.7875
3208.8904	17421.7875
3211.19287	17415.0875
3213.49394	17405.1875
3215.79363	17463.5875
3218.09193	17443.0875
3220.38884	17454.9875
3222.68438	17501.8875
3224.97853	17481.3875
3227.2713	17427.0875
3229.56269	17427.8875
3231.8527	17407.9875
3234.14133	17340.6875
3236.42858	17340.8875
3238.71446	17299.5875
3240.99896	17274.5875
3243.28209	17283.9875
3245.56384	17254.5875
3247.84423	17264.6875
3250.12324	17230.4875
3252.40088	17207.6875
3254.67715	17191.2875
3256.95205	17183.0875
3259.22558	17193.5875
3261.49775	17156.9875
3263.76855	17127.7875
3266.03799	17098.9875
3268.30606	17039.7875
3270.57277	16985.1875
3272.83812	17001.2875
3275.10211	16998.7875
3277.36474	16924.7875
3279.62601	16951.6875
3281.88593	16901.3875
3284.14448	16886.1875
3286.40168	16926.5875
3288.65753	16908.0875
3290.91202	16903.5875
3293.16516	16850.4875
3295.41695	16805.8875
3297.66738	16730.7875
3299.91647	16689.5875
3302.16421	16547.7875
3304.4106	16468.6875
3306.65564	16345.1875
3308.89933	16241.2875
3311.14169	16125.3875
3313.38269	15998.1875
3315.62236	15919.8875
3317.86068	15794.0875
3320.09766	15635.1875
3322.3333	15548.4875
3324.5676	15469.9875
3326.80056	15239.5875
3329.03219	15138.0875
3331.26248	4.7875
3333.49143	-1.4125
3335.71905	0.6875
