Data from AuAgCoreShell_UA_100uM_CRN_0uM_R6G_10uM_Scan_RamanShift__2__14-11-39-764.txt Node

Date: Thu Jun 23 14:11:39 BST 2022
User: TCL
Spectrometer: QEP01345
Trigger mode: 4
Integration Time (sec): 7.000000E0
Scans to average: 10
Electric dark correction enabled: true
Nonlinearity correction enabled: false
Boxcar width: 0
XAxis mode: Raman Shifts
Number of Pixels in Spectrum: 1044
>>>>>Begin Spectral Data<<<<<
46.04893	-1.6625
50.45542	0.1375
54.85868	0.9375
59.25871	-0.5625
63.6555	34.5375
68.04907	35.4375
72.43941	38.6375
76.82654	42.1375
81.21044	46.7375
85.59113	50.7375
89.96862	52.4375
94.34289	50.3375
98.71396	54.8375
103.08183	51.1375
107.4465	57.6375
111.80798	54.9375
116.16626	56.2375
120.52136	53.4375
124.87327	54.6375
129.222	57.3375
133.56755	53.7375
137.90993	54.1375
142.24913	48.5375
146.58517	50.8375
150.91804	53.2375
155.24774	51.2375
159.57429	55.4375
163.89768	55.6375
168.21792	60.6375
172.53501	71.9375
176.84895	85.3375
181.15975	104.8375
185.46741	135.5375
189.77193	167.8375
194.07331	214.0375
198.37157	268.9375
202.6667	323.9375
206.9587	384.2375
211.24758	442.1375
215.53334	506.1375
219.81599	566.8375
224.09553	632.8375
228.37195	713.7375
232.64527	808.5375
236.91549	901.6375
241.18261	994.0375
245.44663	1079.1375
249.70755	1156.4375
253.96539	1224.6375
258.22014	1261.0375
262.4718	1302.4375
266.72039	1291.2375
270.96589	1278.6375
275.20832	1261.4375
279.44768	1217.7375
283.68397	1183.3375
287.91719	1140.3375
292.14735	1104.1375
296.37445	1078.4375
300.59849	1048.2375
304.81948	1032.3375
309.03742	1022.3375
313.25231	1011.9375
317.46415	989.3375
321.67296	976.9375
325.87872	961.0375
330.08145	962.6375
334.28114	951.8375
338.47781	972.0375
342.67145	977.0375
346.86207	994.4375
351.04966	1009.1375
355.23424	1027.0375
359.4158	1056.4375
363.59435	1058.4375
367.76989	1070.0375
371.94243	1073.4375
376.11196	1078.4375
380.27849	1078.8375
384.44203	1081.5375
388.60257	1092.1375
392.76012	1095.3375
396.91468	1096.8375
401.06626	1111.2375
405.21485	1122.0375
409.36047	1113.0375
413.50311	1112.3375
417.64277	1099.4375
421.77947	1097.4375
425.9132	1102.0375
430.04396	1094.9375
434.17176	1104.8375
438.2966	1115.3375
442.41849	1122.3375
446.53742	1135.9375
450.6534	1140.1375
454.76644	1143.2375
458.87653	1154.4375
462.98368	1160.2375
467.08789	1160.2375
471.18916	1145.7375
475.2875	1150.7375
479.38291	1149.9375
483.4754	1154.7375
487.56496	1157.5375
491.6516	1161.7375
495.73531	1166.1375
499.81612	1160.5375
503.89401	1160.4375
507.96899	1153.4375
512.04106	1153.8375
516.11023	1156.1375
520.1765	1152.7375
524.23987	1153.4375
528.30034	1141.4375
532.35792	1134.0375
536.41261	1135.6375
540.46441	1129.5375
544.51333	1121.1375
548.55936	1123.5375
552.60252	1133.4375
556.64279	1131.0375
560.6802	1125.8375
564.71473	1140.0375
568.7464	1138.1375
572.7752	1140.5375
576.80114	1135.4375
580.82422	1129.6375
584.84444	1137.5375
588.86181	1146.0375
592.87633	1152.1375
596.888	1159.3375
600.89682	1175.8375
604.9028	1224.5375
608.90594	1322.8375
612.90624	1452.8375
616.90371	1447.4375
620.89834	1335.1375
624.89015	1294.8375
628.87913	1278.1375
632.86528	1270.2375
636.84862	1272.8375
640.82913	1246.2375
644.80683	1217.6375
648.78172	1192.5375
652.75379	1185.7375
656.72306	1183.8375
660.68952	1194.6375
664.65319	1186.9375
668.61405	1191.2375
672.57211	1180.8375
676.52738	1196.9375
680.47986	1205.3375
684.42955	1230.0375
688.37646	1249.9375
692.32058	1244.7375
696.26192	1214.7375
700.20048	1206.2375
704.13626	1193.9375
708.06928	1188.5375
711.99952	1181.2375
715.927	1174.8375
719.85171	1178.1375
723.77365	1175.7375
727.69284	1176.6375
731.60928	1173.2375
735.52295	1163.5375
739.43388	1161.6375
743.34206	1167.4375
747.24749	1158.1375
751.15017	1155.2375
755.05012	1167.8375
758.94733	1173.7375
762.8418	1204.4375
766.73354	1257.0375
770.62254	1299.4375
774.50882	1333.5375
778.39237	1307.1375
782.27321	1266.1375
786.15132	1218.7375
790.02671	1198.6375
793.89938	1191.2375
797.76935	1190.8375
801.6366	1194.3375
805.50115	1191.3375
809.36299	1203.3375
813.22213	1194.4375
817.07857	1201.7375
820.93231	1197.1375
824.78336	1183.5375
828.63172	1174.4375
832.47738	1163.7375
836.32036	1168.4375
840.16066	1170.3375
843.99827	1170.2375
847.8332	1169.7375
851.66546	1159.8375
855.49504	1153.1375
859.32195	1159.1375
863.1462	1159.3375
866.96777	1151.5375
870.78668	1162.2375
874.60293	1164.8375
878.41652	1173.4375
882.22745	1186.5375
886.03573	1196.6375
889.84136	1216.4375
893.64433	1226.5375
897.44466	1241.4375
901.24235	1242.3375
905.0374	1240.0375
908.8298	1251.5375
912.61957	1251.1375
916.40671	1264.9375
920.19121	1276.8375
923.97308	1288.3375
927.75233	1299.8375
931.52895	1298.6375
935.30295	1291.2375
939.07433	1271.7375
942.84309	1234.2375
946.60924	1227.6375
950.37278	1209.0375
954.13371	1198.9375
957.89203	1175.5375
961.64774	1157.2375
965.40086	1153.8375
969.15137	1145.6375
972.89929	1131.5375
976.64461	1122.9375
980.38733	1118.1375
984.12747	1114.7375
987.86502	1099.3375
991.59999	1110.8375
995.33237	1100.5375
999.06217	1115.4375
1002.78939	1110.6375
1006.51404	1123.2375
1010.23611	1132.3375
1013.95561	1147.5375
1017.67255	1144.4375
1021.38692	1144.9375
1025.09872	1151.9375
1028.80796	1131.8375
1032.51465	1133.1375
1036.21877	1124.0375
1039.92035	1118.4375
1043.61937	1106.2375
1047.31584	1115.2375
1051.00976	1094.7375
1054.70114	1105.1375
1058.38998	1106.2375
1062.07627	1097.8375
1065.76003	1103.4375
1069.44126	1105.0375
1073.11995	1112.3375
1076.79611	1118.4375
1080.46974	1120.1375
1084.14085	1102.4375
1087.80943	1110.2375
1091.47549	1111.5375
1095.13903	1089.5375
1098.80005	1074.7375
1102.45857	1067.2375
1106.11456	1063.6375
1109.76805	1061.2375
1113.41903	1078.4375
1117.06751	1084.2375
1120.71348	1103.0375
1124.35696	1127.0375
1127.99793	1148.1375
1131.63641	1173.5375
1135.2724	1165.4375
1138.90589	1146.0375
1142.5369	1128.1375
1146.16542	1106.4375
1149.79145	1080.1375
1153.415	1065.3375
1157.03607	1057.7375
1160.65467	1056.0375
1164.27079	1054.6375
1167.88443	1066.3375
1171.49561	1081.4375
1175.10432	1109.6375
1178.71056	1163.0375
1182.31434	1195.1375
1185.91565	1201.8375
1189.51451	1176.0375
1193.11091	1149.2375
1196.70485	1129.1375
1200.29634	1110.4375
1203.88538	1100.7375
1207.47197	1095.2375
1211.05612	1068.0375
1214.63782	1064.6375
1218.21708	1049.6375
1221.79391	1050.7375
1225.36829	1046.5375
1228.94024	1044.7375
1232.50976	1044.7375
1236.07685	1050.2375
1239.6415	1052.4375
1243.20374	1061.5375
1246.76355	1063.7375
1250.32093	1064.4375
1253.8759	1073.6375
1257.42845	1080.7375
1260.97859	1085.5375
1264.52631	1090.9375
1268.07163	1099.2375
1271.61453	1096.8375
1275.15503	1110.5375
1278.69312	1115.6375
1282.22882	1107.2375
1285.76211	1110.7375
1289.29301	1131.0375
1292.82151	1145.3375
1296.34761	1163.1375
1299.87133	1183.5375
1303.39266	1218.4375
1306.9116	1267.5375
1310.42815	1325.6375
1313.94233	1343.6375
1317.45412	1319.4375
1320.96354	1266.4375
1324.47058	1219.7375
1327.97525	1183.3375
1331.47754	1167.7375
1334.97747	1164.2375
1338.47502	1169.1375
1341.97022	1191.7375
1345.46305	1216.9375
1348.95352	1270.5375
1352.44163	1332.7375
1355.92738	1405.5375
1359.41078	1510.1375
1362.89183	1612.4375
1366.37053	1622.3375
1369.84688	1510.4375
1373.32088	1387.9375
1376.79254	1316.2375
1380.26186	1290.3375
1383.72883	1265.6375
1387.19347	1238.7375
1390.65578	1228.5375
1394.11575	1223.0375
1397.57339	1201.8375
1401.0287	1199.3375
1404.48168	1191.8375
1407.93234	1174.4375
1411.38068	1166.7375
1414.82669	1166.4375
1418.27039	1162.8375
1421.71177	1155.0375
1425.15083	1139.1375
1428.58758	1106.8375
1432.02203	1099.8375
1435.45416	1085.0375
1438.88399	1069.6375
1442.31151	1049.9375
1445.73673	1043.3375
1449.15965	1033.0375
1452.58027	1016.2375
1455.9986	1021.9375
1459.41463	1021.2375
1462.82837	1011.8375
1466.23982	1015.7375
1469.64898	1033.5375
1473.05586	1018.0375
1476.46045	1024.7375
1479.86276	1029.6375
1483.26279	1036.6375
1486.66054	1043.9375
1490.05602	1054.7375
1493.44922	1065.6375
1496.84016	1100.8375
1500.22882	1148.4375
1503.61521	1222.2375
1506.99934	1309.3375
1510.38121	1373.1375
1513.76081	1386.9375
1517.13816	1325.0375
1520.51324	1225.5375
1523.88607	1137.0375
1527.25665	1080.4375
1530.62498	1045.8375
1533.99105	1036.5375
1537.35488	1018.4375
1540.71647	1014.4375
1544.07581	1014.3375
1547.4329	1022.6375
1550.78776	1021.9375
1554.14038	1033.0375
1557.49077	1036.5375
1560.83892	1036.3375
1564.18484	1044.5375
1567.52853	1058.3375
1570.86999	1084.9375
1574.20922	1090.9375
1577.54624	1099.6375
1580.88103	1086.4375
1584.2136	1045.7375
1587.54395	1005.2375
1590.87208	992.0375
1594.19801	977.9375
1597.52172	978.5375
1600.84321	975.3375
1604.16251	961.2375
1607.47959	947.4375
1610.79447	938.7375
1614.10715	935.1375
1617.41763	913.4375
1620.7259	907.9375
1624.03199	916.5375
1627.33587	903.1375
1630.63757	910.0375
1633.93707	908.8375
1637.23439	919.8375
1640.52951	927.4375
1643.82246	964.2375
1647.11321	1014.4375
1650.40179	1046.0375
1653.68819	1048.3375
1656.97241	1000.2375
1660.25446	935.7375
1663.53433	895.3375
1666.81203	864.9375
1670.08756	844.7375
1673.36092	839.3375
1676.63211	818.4375
1679.90115	818.6375
1683.16801	806.6375
1686.43272	806.1375
1689.69527	810.9375
1692.95567	794.4375
1696.2139	790.5375
1699.46999	790.4375
1702.72392	780.5375
1705.97571	768.4375
1709.22535	751.8375
1712.47284	744.5375
1715.71819	737.3375
1718.96139	725.2375
1722.20246	710.6375
1725.44139	710.6375
1728.67818	701.2375
1731.91284	690.6375
1735.14537	689.1375
1738.37576	687.1375
1741.60403	679.5375
1744.83017	661.8375
1748.05418	667.0375
1751.27607	658.4375
1754.49584	658.0375
1757.71349	649.2375
1760.92903	648.7375
1764.14244	648.9375
1767.35375	645.1375
1770.56294	650.0375
1773.77002	647.9375
1776.97499	643.0375
1780.17785	640.6375
1783.37861	635.7375
1786.57727	634.3375
1789.77382	638.2375
1792.96828	629.9375
1796.16064	627.6375
1799.3509	625.0375
1802.53907	624.4375
1805.72514	624.8375
1808.90913	621.2375
1812.09102	610.2375
1815.27083	618.4375
1818.44856	611.3375
1821.6242	606.3375
1824.79776	601.9375
1827.96924	598.3375
1831.13864	600.1375
1834.30597	598.7375
1837.47122	598.5375
1840.6344	592.8375
1843.7955	586.2375
1846.95454	597.7375
1850.11151	590.7375
1853.26642	585.7375
1856.41926	582.1375
1859.57004	587.6375
1862.71876	587.1375
1865.86542	579.0375
1869.01003	584.4375
1872.15258	575.2375
1875.29308	574.8375
1878.43152	574.9375
1881.56792	572.7375
1884.70227	571.4375
1887.83457	571.6375
1890.96482	571.8375
1894.09304	566.0375
1897.21921	562.7375
1900.34335	559.9375
1903.46544	561.5375
1906.58551	561.6375
1909.70353	559.4375
1912.81953	559.0375
1915.93349	550.6375
1919.04543	560.2375
1922.15534	554.6375
1925.26322	551.1375
1928.36908	553.4375
1931.47292	552.0375
1934.57473	553.1375
1937.67453	544.0375
1940.77232	542.0375
1943.86808	545.8375
1946.96184	541.3375
1950.05358	538.1375
1953.14331	531.4375
1956.23103	531.4375
1959.31675	533.4375
1962.40046	525.8375
1965.48217	530.0375
1968.56188	525.4375
1971.63959	517.6375
1974.7153	518.3375
1977.78901	523.5375
1980.86073	517.0375
1983.93046	510.8375
1986.99819	510.1375
1990.06394	505.3375
1993.1277	513.1375
1996.18947	509.2375
1999.24925	501.9375
2002.30706	500.7375
2005.36288	495.8375
2008.41672	502.0375
2011.46859	499.5375
2014.51848	497.6375
2017.56639	492.8375
2020.61233	496.0375
2023.6563	486.1375
2026.6983	480.4375
2029.73833	485.5375
2032.7764	480.0375
2035.8125	477.4375
2038.84664	475.9375
2041.87881	479.2375
2044.90903	473.2375
2047.93729	476.2375
2050.96359	474.6375
2053.98794	470.8375
2057.01034	474.3375
2060.03078	471.5375
2063.04927	471.1375
2066.06582	472.9375
2069.08042	474.1375
2072.09307	475.8375
2075.10378	470.1375
2078.11255	462.2375
2081.11938	476.6375
2084.12426	472.8375
2087.12722	470.0375
2090.12824	472.3375
2093.12732	475.4375
2096.12447	473.5375
2099.11969	475.0375
2102.11299	471.5375
2105.10435	474.5375
2108.09379	475.0375
2111.08131	469.5375
2114.0669	468.0375
2117.05057	473.3375
2120.03233	468.3375
2123.01216	474.8375
2125.99008	472.9375
2128.96609	472.3375
2131.94018	471.2375
2134.91236	471.0375
2137.88263	477.4375
2140.851	480.7375
2143.81746	475.8375
2146.78201	479.4375
2149.74466	477.1375
2152.7054	478.1375
2155.66425	480.5375
2158.6212	488.9375
2161.57625	486.7375
2164.52941	493.1375
2167.48067	497.3375
2170.43004	500.8375
2173.37752	504.4375
2176.32311	493.2375
2179.26681	501.9375
2182.20863	498.5375
2185.14856	492.9375
2188.08661	483.9375
2191.02278	487.3375
2193.95707	475.9375
2196.88948	468.3375
2199.82001	465.7375
2202.74867	452.6375
2205.67545	443.7375
2208.60037	443.2375
2211.52341	443.0375
2214.44458	439.7375
2217.36388	431.4375
2220.28132	434.6375
2223.1969	432.3375
2226.11061	428.0375
2229.02246	424.1375
2231.93245	428.4375
2234.84058	434.7375
2237.74686	426.6375
2240.65128	425.7375
2243.55385	422.2375
2246.45456	416.3375
2249.35343	423.3375
2252.25044	418.1375
2255.14561	410.6375
2258.03893	419.3375
2260.93041	419.8375
2263.82004	412.0375
2266.70783	413.5375
2269.59378	412.1375
2272.4779	410.6375
2275.36017	406.3375
2278.24061	410.5375
2281.11922	407.3375
2283.996	407.2375
2286.87094	403.1375
2289.74405	403.1375
2292.61534	404.1375
2295.4848	401.9375
2298.35243	396.5375
2301.21824	398.4375
2304.08223	395.2375
2306.94439	396.3375
2309.80474	396.2375
2312.66327	396.4375
2315.51999	394.5375
2318.37489	394.2375
2321.22797	393.9375
2324.07925	392.7375
2326.92871	392.4375
2329.77637	395.3375
2332.62222	389.4375
2335.46626	385.3375
2338.3085	382.1375
2341.14893	380.8375
2343.98756	377.5375
2346.8244	384.9375
2349.65943	381.6375
2352.49267	382.6375
2355.32411	379.9375
2358.15376	379.0375
2360.98161	374.3375
2363.80768	373.8375
2366.63195	374.7375
2369.45444	373.4375
2372.27514	375.6375
2375.09405	372.2375
2377.91118	376.1375
2380.72652	365.0375
2383.54009	373.8375
2386.35187	371.4375
2389.16188	367.9375
2391.97011	368.0375
2394.77657	368.5375
2397.58125	356.3375
2400.38416	371.0375
2403.18529	363.9375
2405.98466	357.3375
2408.78226	358.3375
2411.57809	355.5375
2414.37216	360.3375
2417.16446	353.9375
2419.955	359.6375
2422.74378	356.9375
2425.5308	353.6375
2428.31606	357.3375
2431.09956	356.7375
2433.88131	349.0375
2436.6613	351.7375
2439.43954	354.9375
2442.21603	351.4375
2444.99077	355.2375
2447.76377	351.0375
2450.53501	349.6375
2453.30451	351.4375
2456.07226	346.7375
2458.83827	346.7375
2461.60254	345.0375
2464.36507	343.2375
2467.12586	341.9375
2469.88492	341.0375
2472.64224	344.3375
2475.39782	340.9375
2478.15167	337.1375
2480.90379	342.7375
2483.65417	343.2375
2486.40283	337.6375
2489.14976	337.0375
2491.89497	334.9375
2494.63845	340.2375
2497.3802	338.2375
2500.12024	338.2375
2502.85855	335.0375
2505.59514	336.5375
2508.33002	336.5375
2511.06318	331.5375
2513.79462	333.7375
2516.52435	331.3375
2519.25237	328.0375
2521.97867	328.6375
2524.70327	330.1375
2527.42616	328.9375
2530.14734	327.8375
2532.86681	324.6375
2535.58458	322.2375
2538.30065	327.0375
2541.01501	322.8375
2543.72768	323.7375
2546.43864	323.2375
2549.14791	320.7375
2551.85548	323.1375
2554.56136	320.7375
2557.26554	322.3375
2559.96803	319.4375
2562.66883	322.8375
2565.36794	320.0375
2568.06536	313.3375
2570.7611	316.4375
2573.45514	313.2375
2576.14751	312.4375
2578.83819	311.7375
2581.52719	315.2375
2584.21451	311.4375
2586.90015	313.1375
2589.58411	307.1375
2592.2664	310.4375
2594.94701	309.5375
2597.62594	305.3375
2600.30321	304.8375
2602.9788	303.8375
2605.65273	302.9375
2608.32498	304.5375
2610.99557	301.5375
2613.66449	302.0375
2616.33175	297.0375
2618.99734	298.2375
2621.66128	302.2375
2624.32355	300.2375
2626.98416	299.6375
2629.64311	298.5375
2632.30041	298.8375
2634.95605	300.9375
2637.61004	295.5375
2640.26238	294.7375
2642.91306	295.3375
2645.56209	294.8375
2648.20948	291.1375
2650.85521	293.9375
2653.4993	289.8375
2656.14175	289.8375
2658.78255	289.7375
2661.42171	290.2375
2664.05923	296.1375
2666.6951	289.2375
2669.32934	288.8375
2671.96194	290.9375
2674.59291	291.8375
2677.22224	288.8375
2679.84993	292.7375
2682.476	298.9375
2685.10043	291.6375
2687.72324	287.3375
2690.34441	293.7375
2692.96396	296.1375
2695.58188	291.0375
2698.19818	291.0375
2700.81285	291.0375
2703.4259	291.9375
2706.03733	286.2375
2708.64714	296.0375
2711.25533	289.7375
2713.86191	291.6375
2716.46687	286.9375
2719.07021	285.3375
2721.67194	290.5375
2724.27206	289.7375
2726.87057	287.8375
2729.46747	293.9375
2732.06276	291.3375
2734.65644	290.0375
2737.24852	289.6375
2739.83899	290.7375
2742.42786	289.7375
2745.01513	288.8375
2747.60079	290.7375
2750.18486	292.3375
2752.76733	290.6375
2755.3482	288.5375
2757.92747	287.7375
2760.50515	288.3375
2763.08123	284.0375
2765.65573	286.1375
2768.22863	289.4375
2770.79994	287.3375
2773.36967	280.4375
2775.9378	284.5375
2778.50435	281.9375
2781.06932	280.8375
2783.6327	280.2375
2786.1945	280.4375
2788.75471	277.2375
2791.31335	284.6375
2793.87041	279.3375
2796.42589	276.5375
2798.97979	274.2375
2801.53212	279.7375
2804.08288	277.3375
2806.63206	273.4375
2809.17967	280.3375
2811.72571	278.3375
2814.27018	278.7375
2816.81308	278.7375
2819.35442	273.5375
2821.89419	273.4375
2824.43239	274.0375
2826.96904	278.0375
2829.50412	273.6375
2832.03763	273.0375
2834.56959	276.0375
2837.1	267.0375
2839.62884	270.7375
2842.15613	273.8375
2844.68186	276.4375
2847.20604	272.4375
2849.72867	271.7375
2852.24974	275.1375
2854.76927	271.1375
2857.28724	273.3375
2859.80367	273.0375
2862.31855	273.3375
2864.83189	273.8375
2867.34368	269.4375
2869.85393	279.4375
2872.36264	276.7375
2874.8698	271.0375
2877.37543	276.1375
2879.87952	272.6375
2882.38207	270.1375
2884.88308	273.9375
2887.38256	273.5375
2889.88051	277.9375
2892.37692	277.2375
2894.8718	277.1375
2897.36515	279.4375
2899.85698	278.2375
2902.34727	282.4375
2904.83604	287.2375
2907.32328	284.8375
2909.809	291.0375
2912.29319	289.3375
2914.77587	293.1375
2917.25702	294.0375
2919.73665	294.1375
2922.21476	291.4375
2924.69136	294.2375
2927.16644	297.4375
2929.64	294.7375
2932.11205	297.1375
2934.58258	295.7375
2937.05161	297.1375
2939.51912	302.4375
2941.98513	299.6375
2944.44962	294.3375
2946.91261	298.7375
2949.37409	297.3375
2951.83407	293.5375
2954.29254	295.0375
2956.74951	292.5375
2959.20498	289.8375
2961.65895	295.4375
2964.11142	293.5375
2966.56239	296.0375
2969.01186	294.2375
2971.45984	291.0375
2973.90632	294.3375
2976.35131	297.1375
2978.7948	292.0375
2981.23681	298.3375
2983.67732	300.6375
2986.11635	297.9375
2988.55388	295.4375
2990.98993	295.6375
2993.4245	301.7375
2995.85758	296.1375
2998.28917	296.3375
3000.71928	302.3375
3003.14791	296.5375
3005.57506	300.7375
3008.00073	300.9375
3010.42493	303.9375
3012.84764	309.7375
3015.26888	305.9375
3017.68865	311.5375
3020.10694	306.7375
3022.52376	309.6375
3024.9391	312.8375
3027.35298	314.7375
3029.76539	314.1375
3032.17632	322.4375
3034.5858	320.2375
3036.9938	321.8375
3039.40034	326.6375
3041.80542	327.0375
3044.20903	332.4375
3046.61118	334.2375
3049.01187	333.9375
3051.4111	332.3375
3053.80888	336.3375
3056.20519	341.4375
3058.60005	339.9375
3060.99345	345.6375
3063.3854	348.7375
3065.7759	355.4375
3068.16494	355.5375
3070.55254	358.1375
3072.93868	364.0375
3075.32338	357.9375
3077.70662	365.2375
3080.08842	362.9375
3082.46878	375.2375
3084.84769	373.8375
3087.22515	374.3375
3089.60118	381.9375
3091.97576	385.5375
3094.3489	390.9375
3096.72061	392.1375
3099.09087	401.8375
3101.4597	407.9375
3103.82709	404.6375
3106.19305	416.6375
3108.55757	417.8375
3110.92066	422.8375
3113.28232	429.0375
3115.64255	429.0375
3118.00134	437.5375
3120.35871	439.4375
3122.71466	443.3375
3125.06917	451.6375
3127.42226	456.1375
3129.77393	457.2375
3132.12417	465.7375
3134.47299	469.6375
3136.82039	470.5375
3139.16636	481.3375
3141.51092	485.4375
3143.85406	492.6375
3146.19579	500.7375
3148.53609	505.8375
3150.87499	509.2375
3153.21246	518.1375
3155.54853	530.0375
3157.88318	529.5375
3160.21642	536.0375
3162.54826	543.6375
3164.87868	547.5375
3167.2077	554.0375
3169.5353	563.1375
3171.86151	571.9375
3174.18631	574.8375
3176.5097	584.2375
3178.83169	585.6375
3181.15228	586.7375
3183.47147	592.7375
3185.78926	595.3375
3188.10565	607.3375
3190.42065	607.1375
3192.73424	612.3375
3195.04645	619.9375
3197.35725	615.3375
3199.66667	632.8375
3201.97469	634.9375
3204.28132	631.8375
3206.58656	637.5375
3208.8904	645.6375
3211.19287	650.6375
3213.49394	655.5375
3215.79363	656.3375
3218.09193	662.3375
3220.38884	663.7375
3222.68438	670.0375
3224.97853	668.5375
3227.2713	671.9375
3229.56269	676.2375
3231.8527	679.0375
3234.14133	674.5375
3236.42858	678.3375
3238.71446	680.8375
3240.99896	681.1375
3243.28209	685.6375
3245.56384	676.3375
3247.84423	674.7375
3250.12324	683.6375
3252.40088	686.0375
3254.67715	681.8375
3256.95205	680.2375
3259.22558	691.1375
3261.49775	687.6375
3263.76855	687.5375
3266.03799	692.2375
3268.30606	690.4375
3270.57277	690.0375
3272.83812	687.4375
3275.10211	685.6375
3277.36474	686.1375
3279.62601	682.4375
3281.88593	687.1375
3284.14448	684.8375
3286.40168	687.7375
3288.65753	686.2375
3290.91202	695.3375
3293.16516	685.6375
3295.41695	685.2375
3297.66738	686.6375
3299.91647	680.6375
3302.16421	678.2375
3304.4106	679.7375
3306.65564	680.1375
3308.89933	676.3375
3311.14169	670.8375
3313.38269	664.9375
3315.62236	666.7375
3317.86068	664.0375
3320.09766	655.2375
3322.3333	657.7375
3324.5676	648.2375
3326.80056	647.8375
3329.03219	643.7375
3331.26248	0.3375
3333.49143	0.3375
3335.71905	1.4375
