Data from AuAgCoreShell_UA_100uM_CRN_0uM_R6G_10uM_Scan_RamanShift__24__14-37-19-795.txt Node

Date: Thu Jun 23 14:37:19 BST 2022
User: TCL
Spectrometer: QEP01345
Trigger mode: 4
Integration Time (sec): 7.000000E0
Scans to average: 10
Electric dark correction enabled: true
Nonlinearity correction enabled: false
Boxcar width: 0
XAxis mode: Raman Shifts
Number of Pixels in Spectrum: 1044
>>>>>Begin Spectral Data<<<<<
46.04893	-0.0625
50.45542	-0.7625
54.85868	0.7375
59.25871	0.1375
63.6555	37.7375
68.04907	37.5375
72.43941	39.0375
76.82654	44.1375
81.21044	45.2375
85.59113	50.7375
89.96862	55.0375
94.34289	53.9375
98.71396	56.6375
103.08183	55.9375
107.4465	58.9375
111.80798	55.2375
116.16626	61.8375
120.52136	56.6375
124.87327	57.9375
129.222	56.9375
133.56755	54.5375
137.90993	53.7375
142.24913	50.7375
146.58517	52.8375
150.91804	55.6375
155.24774	53.7375
159.57429	55.3375
163.89768	57.0375
168.21792	64.1375
172.53501	70.6375
176.84895	78.8375
181.15975	94.5375
185.46741	119.9375
189.77193	156.2375
194.07331	200.6375
198.37157	249.9375
202.6667	299.5375
206.9587	342.6375
211.24758	391.1375
215.53334	439.5375
219.81599	493.0375
224.09553	538.3375
228.37195	593.7375
232.64527	658.0375
236.91549	720.1375
241.18261	784.3375
245.44663	851.9375
249.70755	919.6375
253.96539	973.0375
258.22014	1013.8375
262.4718	1052.2375
266.72039	1078.0375
270.96589	1078.2375
275.20832	1078.1375
279.44768	1064.7375
283.68397	1059.1375
287.91719	1031.6375
292.14735	1016.7375
296.37445	1006.3375
300.59849	1008.3375
304.81948	995.1375
309.03742	994.4375
313.25231	985.5375
317.46415	980.9375
321.67296	969.1375
325.87872	974.1375
330.08145	969.1375
334.28114	975.2375
338.47781	993.4375
342.67145	992.0375
346.86207	1007.0375
351.04966	1030.6375
355.23424	1048.3375
359.4158	1062.5375
363.59435	1070.1375
367.76989	1083.3375
371.94243	1104.3375
376.11196	1102.2375
380.27849	1114.8375
384.44203	1120.4375
388.60257	1133.6375
392.76012	1147.3375
396.91468	1154.6375
401.06626	1164.5375
405.21485	1181.4375
409.36047	1183.5375
413.50311	1181.8375
417.64277	1183.4375
421.77947	1193.7375
425.9132	1188.4375
430.04396	1195.8375
434.17176	1200.3375
438.2966	1208.8375
442.41849	1223.0375
446.53742	1221.7375
450.6534	1233.7375
454.76644	1245.8375
458.87653	1244.8375
462.98368	1240.8375
467.08789	1253.4375
471.18916	1252.2375
475.2875	1250.7375
479.38291	1255.4375
483.4754	1260.2375
487.56496	1279.0375
491.6516	1287.5375
495.73531	1292.0375
499.81612	1283.9375
503.89401	1280.1375
507.96899	1268.8375
512.04106	1259.7375
516.11023	1266.3375
520.1765	1269.4375
524.23987	1276.1375
528.30034	1260.3375
532.35792	1262.1375
536.41261	1267.9375
540.46441	1255.6375
544.51333	1252.9375
548.55936	1247.6375
552.60252	1246.6375
556.64279	1245.7375
560.6802	1236.9375
564.71473	1252.1375
568.7464	1246.3375
572.7752	1261.3375
576.80114	1253.7375
580.82422	1244.9375
584.84444	1253.9375
588.86181	1265.9375
592.87633	1272.6375
596.888	1272.0375
600.89682	1283.5375
604.9028	1299.7375
608.90594	1349.4375
612.90624	1410.3375
616.90371	1412.7375
620.89834	1360.7375
624.89015	1358.9375
628.87913	1381.4375
632.86528	1405.0375
636.84862	1427.1375
640.82913	1415.3375
644.80683	1379.3375
648.78172	1353.2375
652.75379	1330.3375
656.72306	1315.1375
660.68952	1309.8375
664.65319	1306.1375
668.61405	1289.7375
672.57211	1294.2375
676.52738	1296.5375
680.47986	1314.7375
684.42955	1332.0375
688.37646	1336.6375
692.32058	1334.1375
696.26192	1320.5375
700.20048	1309.7375
704.13626	1306.9375
708.06928	1295.8375
711.99952	1296.0375
715.927	1293.7375
719.85171	1300.0375
723.77365	1295.9375
727.69284	1302.2375
731.60928	1291.8375
735.52295	1285.8375
739.43388	1278.9375
743.34206	1278.4375
747.24749	1282.8375
751.15017	1278.1375
755.05012	1276.9375
758.94733	1280.6375
762.8418	1295.6375
766.73354	1321.0375
770.62254	1332.4375
774.50882	1350.5375
778.39237	1346.0375
782.27321	1318.5375
786.15132	1300.7375
790.02671	1284.3375
793.89938	1277.5375
797.76935	1279.9375
801.6366	1300.3375
805.50115	1310.3375
809.36299	1326.3375
813.22213	1337.5375
817.07857	1321.1375
820.93231	1307.5375
824.78336	1285.0375
828.63172	1267.2375
832.47738	1263.0375
836.32036	1263.9375
840.16066	1261.3375
843.99827	1268.3375
847.8332	1267.9375
851.66546	1253.7375
855.49504	1250.7375
859.32195	1236.6375
863.1462	1245.6375
866.96777	1239.8375
870.78668	1256.3375
874.60293	1260.4375
878.41652	1277.1375
882.22745	1291.8375
886.03573	1301.2375
889.84136	1298.6375
893.64433	1299.3375
897.44466	1276.1375
901.24235	1256.9375
905.0374	1244.9375
908.8298	1242.1375
912.61957	1237.5375
916.40671	1242.8375
920.19121	1246.9375
923.97308	1247.4375
927.75233	1251.2375
931.52895	1242.1375
935.30295	1247.7375
939.07433	1233.1375
942.84309	1219.5375
946.60924	1219.1375
950.37278	1202.3375
954.13371	1199.9375
957.89203	1190.2375
961.64774	1183.3375
965.40086	1180.6375
969.15137	1174.3375
972.89929	1160.6375
976.64461	1164.8375
980.38733	1162.4375
984.12747	1149.9375
987.86502	1149.9375
991.59999	1148.5375
995.33237	1144.3375
999.06217	1158.1375
1002.78939	1159.9375
1006.51404	1171.6375
1010.23611	1179.1375
1013.95561	1191.2375
1017.67255	1195.9375
1021.38692	1196.6375
1025.09872	1194.9375
1028.80796	1176.4375
1032.51465	1170.0375
1036.21877	1168.0375
1039.92035	1166.7375
1043.61937	1150.2375
1047.31584	1140.9375
1051.00976	1136.7375
1054.70114	1140.8375
1058.38998	1152.9375
1062.07627	1146.4375
1065.76003	1160.9375
1069.44126	1167.0375
1073.11995	1173.1375
1076.79611	1167.0375
1080.46974	1170.4375
1084.14085	1162.1375
1087.80943	1153.2375
1091.47549	1148.1375
1095.13903	1135.6375
1098.80005	1124.2375
1102.45857	1117.7375
1106.11456	1113.6375
1109.76805	1106.1375
1113.41903	1118.6375
1117.06751	1122.5375
1120.71348	1149.5375
1124.35696	1166.2375
1127.99793	1203.9375
1131.63641	1245.2375
1135.2724	1259.9375
1138.90589	1259.2375
1142.5369	1225.6375
1146.16542	1195.2375
1149.79145	1157.0375
1153.415	1132.0375
1157.03607	1114.0375
1160.65467	1092.2375
1164.27079	1085.1375
1167.88443	1088.2375
1171.49561	1101.4375
1175.10432	1113.8375
1178.71056	1143.0375
1182.31434	1163.5375
1185.91565	1171.3375
1189.51451	1156.7375
1193.11091	1159.7375
1196.70485	1158.9375
1200.29634	1161.4375
1203.88538	1168.0375
1207.47197	1161.5375
1211.05612	1139.9375
1214.63782	1120.5375
1218.21708	1108.8375
1221.79391	1086.8375
1225.36829	1087.1375
1228.94024	1078.1375
1232.50976	1070.1375
1236.07685	1078.4375
1239.6415	1077.4375
1243.20374	1074.0375
1246.76355	1073.4375
1250.32093	1083.2375
1253.8759	1081.9375
1257.42845	1090.5375
1260.97859	1097.9375
1264.52631	1095.8375
1268.07163	1090.9375
1271.61453	1098.4375
1275.15503	1098.8375
1278.69312	1093.0375
1282.22882	1092.1375
1285.76211	1087.1375
1289.29301	1096.0375
1292.82151	1102.5375
1296.34761	1110.7375
1299.87133	1120.3375
1303.39266	1140.7375
1306.9116	1156.9375
1310.42815	1183.3375
1313.94233	1207.7375
1317.45412	1194.7375
1320.96354	1178.8375
1324.47058	1158.6375
1327.97525	1144.8375
1331.47754	1127.9375
1334.97747	1127.4375
1338.47502	1140.1375
1341.97022	1159.7375
1345.46305	1180.9375
1348.95352	1204.4375
1352.44163	1243.5375
1355.92738	1275.9375
1359.41078	1326.0375
1362.89183	1369.1375
1366.37053	1372.3375
1369.84688	1320.2375
1373.32088	1252.2375
1376.79254	1217.2375
1380.26186	1179.3375
1383.72883	1165.1375
1387.19347	1147.4375
1390.65578	1124.2375
1394.11575	1114.1375
1397.57339	1091.7375
1401.0287	1075.2375
1404.48168	1065.7375
1407.93234	1045.8375
1411.38068	1036.1375
1414.82669	1019.4375
1418.27039	1004.9375
1421.71177	998.6375
1425.15083	991.8375
1428.58758	973.9375
1432.02203	972.1375
1435.45416	972.1375
1438.88399	956.1375
1442.31151	953.5375
1445.73673	946.7375
1449.15965	952.6375
1452.58027	951.3375
1455.9986	948.1375
1459.41463	944.3375
1462.82837	949.5375
1466.23982	945.7375
1469.64898	951.4375
1473.05586	945.3375
1476.46045	944.2375
1479.86276	947.0375
1483.26279	948.9375
1486.66054	949.5375
1490.05602	961.0375
1493.44922	970.2375
1496.84016	983.8375
1500.22882	1000.2375
1503.61521	1023.8375
1506.99934	1071.6375
1510.38121	1099.9375
1513.76081	1110.3375
1517.13816	1089.3375
1520.51324	1039.4375
1523.88607	1003.5375
1527.25665	969.4375
1530.62498	960.2375
1533.99105	966.3375
1537.35488	963.8375
1540.71647	961.4375
1544.07581	958.1375
1547.4329	972.3375
1550.78776	977.2375
1554.14038	980.3375
1557.49077	988.4375
1560.83892	993.7375
1564.18484	1008.8375
1567.52853	1002.0375
1570.86999	1013.8375
1574.20922	1022.6375
1577.54624	1024.6375
1580.88103	1025.1375
1584.2136	1008.6375
1587.54395	981.8375
1590.87208	967.3375
1594.19801	955.2375
1597.52172	952.2375
1600.84321	952.1375
1604.16251	941.7375
1607.47959	938.6375
1610.79447	936.0375
1614.10715	926.8375
1617.41763	923.1375
1620.7259	931.1375
1624.03199	926.6375
1627.33587	927.9375
1630.63757	914.3375
1633.93707	919.3375
1637.23439	924.3375
1640.52951	922.1375
1643.82246	940.8375
1647.11321	961.9375
1650.40179	981.0375
1653.68819	972.1375
1656.97241	942.2375
1660.25446	912.9375
1663.53433	884.7375
1666.81203	861.7375
1670.08756	847.2375
1673.36092	840.2375
1676.63211	825.8375
1679.90115	825.4375
1683.16801	823.9375
1686.43272	810.1375
1689.69527	815.0375
1692.95567	811.1375
1696.2139	814.3375
1699.46999	808.6375
1702.72392	808.7375
1705.97571	784.3375
1709.22535	756.0375
1712.47284	741.1375
1715.71819	731.2375
1718.96139	720.7375
1722.20246	711.4375
1725.44139	699.1375
1728.67818	690.2375
1731.91284	673.8375
1735.14537	677.2375
1738.37576	671.4375
1741.60403	668.5375
1744.83017	656.7375
1748.05418	658.7375
1751.27607	653.3375
1754.49584	655.3375
1757.71349	652.0375
1760.92903	653.9375
1764.14244	647.8375
1767.35375	652.0375
1770.56294	641.7375
1773.77002	649.2375
1776.97499	627.2375
1780.17785	626.4375
1783.37861	622.8375
1786.57727	617.1375
1789.77382	614.0375
1792.96828	610.5375
1796.16064	611.9375
1799.3509	604.8375
1802.53907	600.3375
1805.72514	603.3375
1808.90913	600.2375
1812.09102	588.0375
1815.27083	591.3375
1818.44856	587.4375
1821.6242	585.5375
1824.79776	575.8375
1827.96924	584.0375
1831.13864	582.6375
1834.30597	579.5375
1837.47122	579.9375
1840.6344	573.9375
1843.7955	574.3375
1846.95454	571.2375
1850.11151	571.7375
1853.26642	566.6375
1856.41926	571.7375
1859.57004	569.8375
1862.71876	567.3375
1865.86542	561.9375
1869.01003	558.3375
1872.15258	557.7375
1875.29308	557.1375
1878.43152	553.4375
1881.56792	553.1375
1884.70227	549.8375
1887.83457	549.3375
1890.96482	549.6375
1894.09304	542.2375
1897.21921	538.8375
1900.34335	539.9375
1903.46544	533.9375
1906.58551	536.5375
1909.70353	534.9375
1912.81953	542.3375
1915.93349	533.7375
1919.04543	533.0375
1922.15534	528.2375
1925.26322	525.8375
1928.36908	525.3375
1931.47292	521.3375
1934.57473	529.2375
1937.67453	521.8375
1940.77232	523.2375
1943.86808	516.5375
1946.96184	520.4375
1950.05358	513.2375
1953.14331	504.9375
1956.23103	504.1375
1959.31675	505.3375
1962.40046	506.6375
1965.48217	500.3375
1968.56188	497.2375
1971.63959	490.0375
1974.7153	496.3375
1977.78901	490.0375
1980.86073	490.8375
1983.93046	484.1375
1986.99819	485.4375
1990.06394	481.0375
1993.1277	482.3375
1996.18947	480.5375
1999.24925	476.8375
2002.30706	476.0375
2005.36288	475.2375
2008.41672	479.8375
2011.46859	468.3375
2014.51848	465.8375
2017.56639	467.6375
2020.61233	469.1375
2023.6563	461.1375
2026.6983	455.3375
2029.73833	456.5375
2032.7764	459.8375
2035.8125	452.2375
2038.84664	453.6375
2041.87881	449.9375
2044.90903	446.4375
2047.93729	445.2375
2050.96359	447.9375
2053.98794	443.7375
2057.01034	448.4375
2060.03078	445.1375
2063.04927	440.1375
2066.06582	440.3375
2069.08042	445.6375
2072.09307	440.4375
2075.10378	438.1375
2078.11255	434.4375
2081.11938	439.1375
2084.12426	437.9375
2087.12722	430.1375
2090.12824	435.1375
2093.12732	437.7375
2096.12447	436.2375
2099.11969	431.0375
2102.11299	434.2375
2105.10435	427.8375
2108.09379	430.3375
2111.08131	428.2375
2114.0669	432.4375
2117.05057	434.7375
2120.03233	427.9375
2123.01216	431.6375
2125.99008	430.9375
2128.96609	432.7375
2131.94018	434.3375
2134.91236	430.9375
2137.88263	430.6375
2140.851	426.2375
2143.81746	427.8375
2146.78201	431.8375
2149.74466	423.7375
2152.7054	426.0375
2155.66425	425.2375
2158.6212	424.5375
2161.57625	421.7375
2164.52941	423.7375
2167.48067	426.7375
2170.43004	429.5375
2173.37752	427.7375
2176.32311	426.0375
2179.26681	422.8375
2182.20863	420.6375
2185.14856	419.0375
2188.08661	418.3375
2191.02278	418.5375
2193.95707	414.7375
2196.88948	411.8375
2199.82001	406.1375
2202.74867	405.2375
2205.67545	401.3375
2208.60037	402.5375
2211.52341	400.0375
2214.44458	403.8375
2217.36388	393.6375
2220.28132	396.0375
2223.1969	396.4375
2226.11061	388.6375
2229.02246	386.9375
2231.93245	391.7375
2234.84058	396.0375
2237.74686	386.4375
2240.65128	390.5375
2243.55385	387.1375
2246.45456	380.0375
2249.35343	381.9375
2252.25044	376.6375
2255.14561	378.9375
2258.03893	378.5375
2260.93041	381.5375
2263.82004	375.5375
2266.70783	377.1375
2269.59378	375.1375
2272.4779	367.2375
2275.36017	369.4375
2278.24061	369.9375
2281.11922	371.3375
2283.996	371.4375
2286.87094	364.7375
2289.74405	368.0375
2292.61534	359.2375
2295.4848	358.6375
2298.35243	358.7375
2301.21824	359.1375
2304.08223	357.2375
2306.94439	357.2375
2309.80474	359.7375
2312.66327	357.3375
2315.51999	354.2375
2318.37489	355.2375
2321.22797	354.0375
2324.07925	351.7375
2326.92871	351.2375
2329.77637	358.1375
2332.62222	350.1375
2335.46626	347.9375
2338.3085	343.5375
2341.14893	340.3375
2343.98756	338.7375
2346.8244	344.1375
2349.65943	337.4375
2352.49267	342.3375
2355.32411	344.6375
2358.15376	339.0375
2360.98161	338.9375
2363.80768	340.0375
2366.63195	335.8375
2369.45444	335.8375
2372.27514	329.8375
2375.09405	334.4375
2377.91118	332.4375
2380.72652	328.0375
2383.54009	325.2375
2386.35187	327.6375
2389.16188	328.1375
2391.97011	327.3375
2394.77657	327.5375
2397.58125	324.3375
2400.38416	327.1375
2403.18529	322.9375
2405.98466	322.2375
2408.78226	316.5375
2411.57809	316.5375
2414.37216	315.6375
2417.16446	315.1375
2419.955	318.8375
2422.74378	318.3375
2425.5308	314.9375
2428.31606	314.6375
2431.09956	313.2375
2433.88131	313.3375
2436.6613	306.5375
2439.43954	306.9375
2442.21603	305.5375
2444.99077	314.1375
2447.76377	309.6375
2450.53501	307.4375
2453.30451	308.4375
2456.07226	307.0375
2458.83827	308.3375
2461.60254	303.6375
2464.36507	299.8375
2467.12586	303.0375
2469.88492	298.4375
2472.64224	300.3375
2475.39782	295.1375
2478.15167	301.3375
2480.90379	300.3375
2483.65417	300.9375
2486.40283	299.8375
2489.14976	291.8375
2491.89497	292.0375
2494.63845	295.6375
2497.3802	297.0375
2500.12024	294.4375
2502.85855	290.7375
2505.59514	294.1375
2508.33002	290.0375
2511.06318	295.7375
2513.79462	292.3375
2516.52435	288.1375
2519.25237	291.1375
2521.97867	288.4375
2524.70327	288.0375
2527.42616	282.4375
2530.14734	285.6375
2532.86681	280.6375
2535.58458	282.4375
2538.30065	282.5375
2541.01501	278.0375
2543.72768	278.5375
2546.43864	279.6375
2549.14791	274.7375
2551.85548	277.0375
2554.56136	270.9375
2557.26554	279.7375
2559.96803	273.5375
2562.66883	272.7375
2565.36794	268.9375
2568.06536	269.8375
2570.7611	276.0375
2573.45514	267.5375
2576.14751	270.9375
2578.83819	270.5375
2581.52719	267.6375
2584.21451	260.6375
2586.90015	268.0375
2589.58411	265.9375
2592.2664	264.5375
2594.94701	259.0375
2597.62594	261.2375
2600.30321	262.4375
2602.9788	259.6375
2605.65273	259.1375
2608.32498	262.6375
2610.99557	255.3375
2613.66449	260.9375
2616.33175	257.0375
2618.99734	256.8375
2621.66128	255.5375
2624.32355	253.3375
2626.98416	259.5375
2629.64311	257.5375
2632.30041	255.2375
2634.95605	253.1375
2637.61004	250.6375
2640.26238	252.6375
2642.91306	246.0375
2645.56209	250.6375
2648.20948	248.2375
2650.85521	248.4375
2653.4993	245.4375
2656.14175	247.7375
2658.78255	244.5375
2661.42171	244.8375
2664.05923	248.2375
2666.6951	249.0375
2669.32934	243.0375
2671.96194	248.2375
2674.59291	244.2375
2677.22224	249.0375
2679.84993	244.7375
2682.476	240.5375
2685.10043	239.2375
2687.72324	244.7375
2690.34441	245.1375
2692.96396	243.9375
2695.58188	242.5375
2698.19818	237.1375
2700.81285	244.4375
2703.4259	249.7375
2706.03733	253.9375
2708.64714	250.9375
2711.25533	243.4375
2713.86191	241.0375
2716.46687	242.8375
2719.07021	244.0375
2721.67194	240.1375
2724.27206	238.7375
2726.87057	239.8375
2729.46747	241.8375
2732.06276	245.1375
2734.65644	244.1375
2737.24852	241.5375
2739.83899	241.0375
2742.42786	241.8375
2745.01513	240.3375
2747.60079	243.6375
2750.18486	244.8375
2752.76733	239.8375
2755.3482	236.5375
2757.92747	235.2375
2760.50515	236.0375
2763.08123	233.0375
2765.65573	236.6375
2768.22863	238.2375
2770.79994	238.4375
2773.36967	237.2375
2775.9378	237.5375
2778.50435	235.6375
2781.06932	234.5375
2783.6327	230.6375
2786.1945	237.0375
2788.75471	233.6375
2791.31335	231.6375
2793.87041	227.1375
2796.42589	232.0375
2798.97979	232.2375
2801.53212	234.2375
2804.08288	231.0375
2806.63206	230.9375
2809.17967	230.0375
2811.72571	226.2375
2814.27018	225.7375
2816.81308	232.2375
2819.35442	225.8375
2821.89419	229.7375
2824.43239	224.5375
2826.96904	225.5375
2829.50412	232.1375
2832.03763	223.2375
2834.56959	232.0375
2837.1	224.1375
2839.62884	220.3375
2842.15613	223.7375
2844.68186	226.3375
2847.20604	227.6375
2849.72867	225.7375
2852.24974	230.1375
2854.76927	224.5375
2857.28724	227.3375
2859.80367	229.2375
2862.31855	228.2375
2864.83189	229.8375
2867.34368	224.1375
2869.85393	226.6375
2872.36264	231.8375
2874.8698	227.7375
2877.37543	227.8375
2879.87952	223.4375
2882.38207	224.5375
2884.88308	223.3375
2887.38256	227.7375
2889.88051	225.5375
2892.37692	227.3375
2894.8718	230.6375
2897.36515	233.0375
2899.85698	230.5375
2902.34727	235.4375
2904.83604	233.4375
2907.32328	238.9375
2909.809	242.2375
2912.29319	239.3375
2914.77587	241.6375
2917.25702	238.0375
2919.73665	235.4375
2922.21476	239.9375
2924.69136	247.0375
2927.16644	245.1375
2929.64	244.0375
2932.11205	245.1375
2934.58258	240.6375
2937.05161	246.5375
2939.51912	249.6375
2941.98513	245.0375
2944.44962	249.0375
2946.91261	252.1375
2949.37409	246.6375
2951.83407	239.8375
2954.29254	244.6375
2956.74951	245.2375
2959.20498	241.5375
2961.65895	249.5375
2964.11142	245.9375
2966.56239	244.6375
2969.01186	244.7375
2971.45984	244.3375
2973.90632	247.4375
2976.35131	252.3375
2978.7948	250.2375
2981.23681	248.6375
2983.67732	250.2375
2986.11635	249.9375
2988.55388	250.6375
2990.98993	253.8375
2993.4245	253.2375
2995.85758	252.6375
2998.28917	254.3375
3000.71928	257.8375
3003.14791	257.6375
3005.57506	257.1375
3008.00073	257.8375
3010.42493	262.9375
3012.84764	260.5375
3015.26888	268.3375
3017.68865	264.3375
3020.10694	267.8375
3022.52376	268.0375
3024.9391	271.0375
3027.35298	269.5375
3029.76539	272.9375
3032.17632	275.7375
3034.5858	275.1375
3036.9938	277.2375
3039.40034	284.4375
3041.80542	284.9375
3044.20903	288.1375
3046.61118	293.0375
3049.01187	293.6375
3051.4111	295.0375
3053.80888	296.3375
3056.20519	297.8375
3058.60005	301.0375
3060.99345	306.7375
3063.3854	305.5375
3065.7759	312.6375
3068.16494	312.1375
3070.55254	318.5375
3072.93868	323.5375
3075.32338	318.4375
3077.70662	323.0375
3080.08842	324.8375
3082.46878	330.8375
3084.84769	339.9375
3087.22515	339.5375
3089.60118	344.8375
3091.97576	346.0375
3094.3489	353.6375
3096.72061	358.6375
3099.09087	365.4375
3101.4597	366.1375
3103.82709	370.5375
3106.19305	379.2375
3108.55757	389.4375
3110.92066	387.2375
3113.28232	397.3375
3115.64255	394.0375
3118.00134	399.4375
3120.35871	404.3375
3122.71466	414.8375
3125.06917	416.2375
3127.42226	418.8375
3129.77393	427.4375
3132.12417	430.7375
3134.47299	438.3375
3136.82039	444.2375
3139.16636	451.8375
3141.51092	452.1375
3143.85406	460.1375
3146.19579	472.3375
3148.53609	474.3375
3150.87499	476.2375
3153.21246	490.5375
3155.54853	498.4375
3157.88318	501.7375
3160.21642	512.0375
3162.54826	518.5375
3164.87868	524.6375
3167.2077	528.6375
3169.5353	534.3375
3171.86151	540.7375
3174.18631	546.0375
3176.5097	554.7375
3178.83169	556.6375
3181.15228	566.2375
3183.47147	569.5375
3185.78926	578.4375
3188.10565	582.1375
3190.42065	584.3375
3192.73424	588.3375
3195.04645	584.9375
3197.35725	597.4375
3199.66667	601.3375
3201.97469	613.6375
3204.28132	613.5375
3206.58656	618.5375
3208.8904	623.4375
3211.19287	626.5375
3213.49394	636.8375
3215.79363	633.4375
3218.09193	638.3375
3220.38884	636.1375
3222.68438	645.9375
3224.97853	654.1375
3227.2713	653.9375
3229.56269	649.2375
3231.8527	656.4375
3234.14133	655.1375
3236.42858	654.3375
3238.71446	654.8375
3240.99896	657.6375
3243.28209	660.9375
3245.56384	656.3375
3247.84423	661.1375
3250.12324	661.8375
3252.40088	664.7375
3254.67715	662.3375
3256.95205	664.3375
3259.22558	673.4375
3261.49775	665.1375
3263.76855	670.3375
3266.03799	670.6375
3268.30606	668.7375
3270.57277	670.4375
3272.83812	661.8375
3275.10211	665.6375
3277.36474	667.1375
3279.62601	667.7375
3281.88593	670.7375
3284.14448	665.5375
3286.40168	671.3375
3288.65753	670.2375
3290.91202	663.5375
3293.16516	666.5375
3295.41695	665.9375
3297.66738	664.2375
3299.91647	663.5375
3302.16421	659.3375
3304.4106	658.5375
3306.65564	659.8375
3308.89933	651.6375
3311.14169	651.8375
3313.38269	645.7375
3315.62236	647.1375
3317.86068	643.5375
3320.09766	638.3375
3322.3333	633.8375
3324.5676	625.9375
3326.80056	633.5375
3329.03219	623.9375
3331.26248	-0.9625
3333.49143	1.4375
3335.71905	0.2375
