Data from AgNP_FTO_APTES_UA_100uM_CRN_10uM_R6G_10uM_NaF_0.1M_Addition_RamanShift__50__16-15-20-461.txt Node

Date: Thu Mar 24 16:15:20 GMT 2022
User: TCL
Spectrometer: QEP01345
Trigger mode: 4
Integration Time (sec): 7.000000E0
Scans to average: 10
Electric dark correction enabled: true
Nonlinearity correction enabled: false
Boxcar width: 0
XAxis mode: Raman Shifts
Number of Pixels in Spectrum: 1044
>>>>>Begin Spectral Data<<<<<
46.04893	-0.8875
50.45542	0.1125
54.85868	-0.1875
59.25871	-0.3875
63.6555	32.2125
68.04907	34.0125
72.43941	32.7125
76.82654	33.5125
81.21044	38.1125
85.59113	39.5125
89.96862	40.3125
94.34289	39.1125
98.71396	42.3125
103.08183	43.9125
107.4465	45.7125
111.80798	45.0125
116.16626	46.2125
120.52136	47.5125
124.87327	49.5125
129.222	51.5125
133.56755	55.9125
137.90993	59.2125
142.24913	68.5125
146.58517	75.8125
150.91804	90.7125
155.24774	108.9125
159.57429	135.1125
163.89768	171.8125
168.21792	234.2125
172.53501	323.4125
176.84895	450.1125
181.15975	636.3125
185.46741	889.7125
189.77193	1227.9125
194.07331	1661.1125
198.37157	2158.5125
202.6667	2711.1125
206.9587	3252.9125
211.24758	3854.5125
215.53334	4493.0125
219.81599	5246.6125
224.09553	6120.5125
228.37195	7092.5125
232.64527	8060.5125
236.91549	9027.8125
241.18261	9769.7125
245.44663	10263.5125
249.70755	10593.9125
253.96539	10848.9125
258.22014	11159.0125
262.4718	11455.0125
266.72039	11588.1125
270.96589	11508.9125
275.20832	11214.6125
279.44768	10779.0125
283.68397	10432.8125
287.91719	10236.8125
292.14735	10336.6125
296.37445	10882.8125
300.59849	11790.7125
304.81948	12905.2125
309.03742	13828.8125
313.25231	14097.3125
317.46415	13276.1125
321.67296	11733.8125
325.87872	10381.6125
330.08145	9695.3125
334.28114	9616.4125
338.47781	9864.6125
342.67145	10310.7125
346.86207	10998.5125
351.04966	12068.8125
355.23424	13351.8125
359.4158	14200.4125
363.59435	14460.5125
367.76989	14331.8125
371.94243	14051.9125
376.11196	13704.6125
380.27849	13349.6125
384.44203	12923.6125
388.60257	12508.2125
392.76012	12263.1125
396.91468	12384.5125
401.06626	12800.2125
405.21485	13061.0125
409.36047	12555.3125
413.50311	11310.7125
417.64277	10185.7125
421.77947	9489.8125
425.9132	9199.5125
430.04396	9122.4125
434.17176	9139.7125
438.2966	9317.7125
442.41849	9683.7125
446.53742	10145.4125
450.6534	10541.2125
454.76644	10680.8125
458.87653	10527.8125
462.98368	10249.3125
467.08789	9921.9125
471.18916	9565.1125
475.2875	9162.1125
479.38291	8844.3125
483.4754	8567.9125
487.56496	8376.0125
491.6516	8270.3125
495.73531	8240.9125
499.81612	8283.1125
503.89401	8482.0125
507.96899	8713.6125
512.04106	9021.1125
516.11023	9348.0125
520.1765	9593.7125
524.23987	9613.1125
528.30034	9445.9125
532.35792	9295.8125
536.41261	9018.1125
540.46441	8644.1125
544.51333	8427.3125
548.55936	8459.5125
552.60252	8841.4125
556.64279	9306.8125
560.6802	9558.7125
564.71473	9950.3125
568.7464	10837.7125
572.7752	11190.6125
576.80114	10269.9125
580.82422	9358.2125
584.84444	9023.2125
588.86181	9076.0125
592.87633	9302.8125
596.888	9575.7125
600.89682	10014.2125
604.9028	12177.9125
608.90594	18739.9125
612.90624	27575.6125
616.90371	26009.8125
620.89834	14969.3125
624.89015	9801.1125
628.87913	8908.2125
632.86528	9217.9125
636.84862	9610.3125
640.82913	9229.2125
644.80683	8284.9125
648.78172	7654.7125
652.75379	7719.2125
656.72306	8460.9125
660.68952	9364.4125
664.65319	9053.1125
668.61405	8034.7125
672.57211	7530.3125
676.52738	7484.3125
680.47986	7463.1125
684.42955	7255.2125
688.37646	7137.6125
692.32058	7153.4125
696.26192	7287.2125
700.20048	7492.4125
704.13626	7639.3125
708.06928	7575.2125
711.99952	7485.9125
715.927	7484.7125
719.85171	7602.1125
723.77365	7698.7125
727.69284	7612.6125
731.60928	7492.3125
735.52295	7481.4125
739.43388	7556.1125
743.34206	7590.9125
747.24749	7598.0125
751.15017	7600.3125
755.05012	7864.1125
758.94733	8807.0125
762.8418	11227.2125
766.73354	15139.1125
770.62254	18681.4125
774.50882	20181.2125
778.39237	18796.7125
782.27321	15011.7125
786.15132	11182.1125
790.02671	8957.4125
793.89938	8006.5125
797.76935	7585.8125
801.6366	7420.8125
805.50115	7365.1125
809.36299	7282.8125
813.22213	7245.6125
817.07857	7209.6125
820.93231	7198.6125
824.78336	7255.9125
828.63172	7365.9125
832.47738	7403.0125
836.32036	7320.7125
840.16066	7165.1125
843.99827	7063.4125
847.8332	7019.7125
851.66546	7010.0125
855.49504	7005.6125
859.32195	6993.2125
863.1462	6932.4125
866.96777	6902.8125
870.78668	6879.8125
874.60293	6939.2125
878.41652	7029.1125
882.22745	7158.0125
886.03573	7245.9125
889.84136	7189.6125
893.64433	7113.6125
897.44466	7103.6125
901.24235	7127.4125
905.0374	7061.1125
908.8298	6949.6125
912.61957	6841.1125
916.40671	6843.0125
920.19121	6915.3125
923.97308	7091.4125
927.75233	7376.4125
931.52895	7681.7125
935.30295	7560.5125
939.07433	7062.0125
942.84309	6713.0125
946.60924	6527.8125
950.37278	6402.1125
954.13371	6328.8125
957.89203	6275.5125
961.64774	6240.7125
965.40086	6208.9125
969.15137	6177.2125
972.89929	6151.5125
976.64461	6154.3125
980.38733	6146.3125
984.12747	6175.4125
987.86502	6205.5125
991.59999	6278.3125
995.33237	6425.0125
999.06217	6637.9125
1002.78939	6964.8125
1006.51404	7291.2125
1010.23611	7552.9125
1013.95561	7595.7125
1017.67255	7503.3125
1021.38692	7333.8125
1025.09872	7085.9125
1028.80796	6976.7125
1032.51465	7045.1125
1036.21877	7203.2125
1039.92035	7308.0125
1043.61937	7320.3125
1047.31584	7331.6125
1051.00976	7258.3125
1054.70114	7156.5125
1058.38998	7098.6125
1062.07627	7082.6125
1065.76003	7098.9125
1069.44126	7177.4125
1073.11995	7322.7125
1076.79611	7612.5125
1080.46974	8055.0125
1084.14085	8673.8125
1087.80943	9229.7125
1091.47549	9369.8125
1095.13903	8969.2125
1098.80005	8310.6125
1102.45857	7895.0125
1106.11456	7813.1125
1109.76805	8087.2125
1113.41903	8645.8125
1117.06751	9532.6125
1120.71348	10681.4125
1124.35696	11932.9125
1127.99793	12636.1125
1131.63641	11930.0125
1135.2724	10491.6125
1138.90589	9406.1125
1142.5369	8749.8125
1146.16542	8321.8125
1149.79145	8096.9125
1153.415	8064.9125
1157.03607	8188.8125
1160.65467	8547.3125
1164.27079	9161.3125
1167.88443	10133.5125
1171.49561	11717.3125
1175.10432	14296.9125
1178.71056	17726.7125
1182.31434	20247.6125
1185.91565	20646.0125
1189.51451	19383.6125
1193.11091	17332.0125
1196.70485	15151.9125
1200.29634	13682.7125
1203.88538	12521.1125
1207.47197	11132.8125
1211.05612	9916.0125
1214.63782	9226.5125
1218.21708	8967.4125
1221.79391	8946.6125
1225.36829	8972.8125
1228.94024	8895.0125
1232.50976	8724.3125
1236.07685	8641.4125
1239.6415	8658.3125
1243.20374	8751.3125
1246.76355	8881.0125
1250.32093	9050.4125
1253.8759	9387.7125
1257.42845	9874.6125
1260.97859	10569.9125
1264.52631	11327.1125
1268.07163	12001.4125
1271.61453	12499.3125
1275.15503	12739.3125
1278.69312	12799.1125
1282.22882	13050.2125
1285.76211	13747.4125
1289.29301	14636.6125
1292.82151	15471.6125
1296.34761	16425.9125
1299.87133	18078.8125
1303.39266	21070.7125
1306.9116	25833.7125
1310.42815	30792.4125
1313.94233	32552.6125
1317.45412	29838.9125
1320.96354	25197.7125
1324.47058	20924.4125
1327.97525	17708.8125
1331.47754	15805.4125
1334.97747	15087.8125
1338.47502	15299.7125
1341.97022	16383.0125
1345.46305	18389.3125
1348.95352	21291.7125
1352.44163	24789.5125
1355.92738	29990.6125
1359.41078	38028.7125
1362.89183	44288.2125
1366.37053	40266.7125
1369.84688	29875.9125
1373.32088	21783.1125
1376.79254	17482.9125
1380.26186	15252.0125
1383.72883	13806.0125
1387.19347	12716.6125
1390.65578	11788.1125
1394.11575	11101.5125
1397.57339	10794.2125
1401.0287	10763.1125
1404.48168	10729.3125
1407.93234	10709.3125
1411.38068	10819.3125
1414.82669	10950.7125
1418.27039	11035.6125
1421.71177	10819.4125
1425.15083	10487.2125
1428.58758	10505.1125
1432.02203	10868.3125
1435.45416	11209.2125
1438.88399	11178.2125
1442.31151	11076.9125
1445.73673	11167.4125
1449.15965	11279.8125
1452.58027	11157.5125
1455.9986	10900.1125
1459.41463	10814.4125
1462.82837	11065.7125
1466.23982	11575.1125
1469.64898	12070.6125
1473.05586	12333.7125
1476.46045	12445.2125
1479.86276	12642.6125
1483.26279	13113.6125
1486.66054	13886.6125
1490.05602	15039.3125
1493.44922	16734.3125
1496.84016	19485.1125
1500.22882	23910.0125
1503.61521	30163.5125
1506.99934	37441.7125
1510.38121	43007.3125
1513.76081	43274.4125
1517.13816	37510.6125
1520.51324	29096.5125
1523.88607	22184.8125
1527.25665	18052.1125
1530.62498	15853.5125
1533.99105	14546.6125
1537.35488	13646.8125
1540.71647	13123.6125
1544.07581	12844.1125
1547.4329	12780.0125
1550.78776	12864.7125
1554.14038	13124.7125
1557.49077	13571.8125
1560.83892	14267.8125
1564.18484	15293.0125
1567.52853	16457.4125
1570.86999	17234.8125
1574.20922	17603.0125
1577.54624	17270.8125
1580.88103	15477.4125
1584.2136	13242.6125
1587.54395	11914.5125
1590.87208	11898.2125
1594.19801	12960.0125
1597.52172	14509.3125
1600.84321	15192.9125
1604.16251	14494.1125
1607.47959	13346.8125
1610.79447	12048.3125
1614.10715	10774.5125
1617.41763	9669.9125
1620.7259	8987.2125
1624.03199	8682.0125
1627.33587	8790.0125
1630.63757	9234.6125
1633.93707	10189.9125
1637.23439	11814.2125
1640.52951	14650.0125
1643.82246	19064.6125
1647.11321	24407.8125
1650.40179	27754.9125
1653.68819	25954.4125
1656.97241	20175.6125
1660.25446	14553.6125
1663.53433	10950.8125
1666.81203	9000.6125
1670.08756	7906.2125
1673.36092	7261.0125
1676.63211	6854.0125
1679.90115	6607.9125
1683.16801	6416.0125
1686.43272	6269.2125
1689.69527	6187.9125
1692.95567	6112.7125
1696.2139	6094.7125
1699.46999	6055.3125
1702.72392	6033.3125
1705.97571	5996.2125
1709.22535	5970.6125
1712.47284	5996.4125
1715.71819	5991.2125
1718.96139	5955.5125
1722.20246	5921.7125
1725.44139	5871.2125
1728.67818	5769.7125
1731.91284	5677.0125
1735.14537	5589.1125
1738.37576	5566.8125
1741.60403	5519.0125
1744.83017	5484.4125
1748.05418	5435.2125
1751.27607	5427.9125
1754.49584	5407.8125
1757.71349	5370.7125
1760.92903	5365.6125
1764.14244	5318.4125
1767.35375	5316.4125
1770.56294	5295.9125
1773.77002	5223.1125
1776.97499	5190.4125
1780.17785	5153.7125
1783.37861	5127.5125
1786.57727	5078.8125
1789.77382	5063.8125
1792.96828	5070.4125
1796.16064	5052.4125
1799.3509	5023.4125
1802.53907	5012.4125
1805.72514	4984.5125
1808.90913	4966.9125
1812.09102	4935.7125
1815.27083	4906.9125
1818.44856	4889.5125
1821.6242	4876.2125
1824.79776	4850.3125
1827.96924	4839.3125
1831.13864	4842.8125
1834.30597	4826.3125
1837.47122	4795.2125
1840.6344	4776.6125
1843.7955	4767.8125
1846.95454	4757.2125
1850.11151	4746.3125
1853.26642	4735.1125
1856.41926	4744.8125
1859.57004	4731.3125
1862.71876	4747.7125
1865.86542	4751.4125
1869.01003	4750.9125
1872.15258	4754.3125
1875.29308	4748.4125
1878.43152	4743.4125
1881.56792	4758.3125
1884.70227	4763.1125
1887.83457	4739.4125
1890.96482	4740.8125
1894.09304	4721.3125
1897.21921	4731.7125
1900.34335	4718.6125
1903.46544	4729.1125
1906.58551	4722.2125
1909.70353	4724.4125
1912.81953	4694.1125
1915.93349	4699.2125
1919.04543	4683.4125
1922.15534	4678.0125
1925.26322	4657.3125
1928.36908	4637.7125
1931.47292	4606.1125
1934.57473	4575.3125
1937.67453	4556.9125
1940.77232	4527.4125
1943.86808	4495.8125
1946.96184	4488.3125
1950.05358	4479.9125
1953.14331	4483.8125
1956.23103	4470.0125
1959.31675	4451.2125
1962.40046	4436.1125
1965.48217	4445.1125
1968.56188	4440.3125
1971.63959	4451.3125
1974.7153	4437.1125
1977.78901	4423.3125
1980.86073	4395.9125
1983.93046	4352.4125
1986.99819	4310.6125
1990.06394	4296.9125
1993.1277	4263.0125
1996.18947	4238.2125
1999.24925	4244.9125
2002.30706	4223.3125
2005.36288	4209.9125
2008.41672	4188.9125
2011.46859	4174.6125
2014.51848	4160.1125
2017.56639	4132.6125
2020.61233	4126.5125
2023.6563	4106.7125
2026.6983	4102.7125
2029.73833	4093.7125
2032.7764	4084.7125
2035.8125	4065.9125
2038.84664	4071.0125
2041.87881	4079.0125
2044.90903	4072.6125
2047.93729	4052.1125
2050.96359	4053.6125
2053.98794	4034.6125
2057.01034	4018.7125
2060.03078	4019.5125
2063.04927	4000.0125
2066.06582	3996.0125
2069.08042	3983.5125
2072.09307	3986.1125
2075.10378	3982.6125
2078.11255	3973.8125
2081.11938	3957.3125
2084.12426	3968.4125
2087.12722	3955.6125
2090.12824	3965.2125
2093.12732	3960.4125
2096.12447	3973.0125
2099.11969	3966.6125
2102.11299	3966.3125
2105.10435	3959.8125
2108.09379	3980.9125
2111.08131	3983.7125
2114.0669	3985.5125
2117.05057	3979.6125
2120.03233	4017.2125
2123.01216	4026.9125
2125.99008	4030.6125
2128.96609	4034.7125
2131.94018	4040.0125
2134.91236	4029.9125
2137.88263	4023.0125
2140.851	4000.0125
2143.81746	3994.6125
2146.78201	3989.4125
2149.74466	3962.8125
2152.7054	3966.4125
2155.66425	3944.8125
2158.6212	3933.8125
2161.57625	3923.6125
2164.52941	3945.4125
2167.48067	3924.0125
2170.43004	3928.9125
2173.37752	3939.7125
2176.32311	3936.6125
2179.26681	3938.6125
2182.20863	3931.4125
2185.14856	3948.2125
2188.08661	3939.4125
2191.02278	3926.9125
2193.95707	3926.3125
2196.88948	3917.0125
2199.82001	3919.5125
2202.74867	3898.4125
2205.67545	3906.9125
2208.60037	3894.7125
2211.52341	3895.4125
2214.44458	3868.6125
2217.36388	3875.3125
2220.28132	3878.9125
2223.1969	3851.1125
2226.11061	3838.3125
2229.02246	3832.9125
2231.93245	3828.7125
2234.84058	3824.2125
2237.74686	3811.8125
2240.65128	3818.2125
2243.55385	3830.7125
2246.45456	3803.1125
2249.35343	3808.6125
2252.25044	3835.0125
2255.14561	3846.0125
2258.03893	3863.8125
2260.93041	3888.0125
2263.82004	3869.2125
2266.70783	3863.0125
2269.59378	3852.8125
2272.4779	3849.4125
2275.36017	3844.8125
2278.24061	3818.2125
2281.11922	3810.1125
2283.996	3777.0125
2286.87094	3776.3125
2289.74405	3763.3125
2292.61534	3740.6125
2295.4848	3737.2125
2298.35243	3726.7125
2301.21824	3714.2125
2304.08223	3710.2125
2306.94439	3707.3125
2309.80474	3717.2125
2312.66327	3719.9125
2315.51999	3719.6125
2318.37489	3715.9125
2321.22797	3718.6125
2324.07925	3716.6125
2326.92871	3713.0125
2329.77637	3712.9125
2332.62222	3711.7125
2335.46626	3719.5125
2338.3085	3719.0125
2341.14893	3718.0125
2343.98756	3725.3125
2346.8244	3761.7125
2349.65943	3745.5125
2352.49267	3782.4125
2355.32411	3791.4125
2358.15376	3811.2125
2360.98161	3827.8125
2363.80768	3835.0125
2366.63195	3860.0125
2369.45444	3858.5125
2372.27514	3861.0125
2375.09405	3859.0125
2377.91118	3825.3125
2380.72652	3772.7125
2383.54009	3768.1125
2386.35187	3750.7125
2389.16188	3708.2125
2391.97011	3696.0125
2394.77657	3673.0125
2397.58125	3655.5125
2400.38416	3640.6125
2403.18529	3624.0125
2405.98466	3616.6125
2408.78226	3595.8125
2411.57809	3594.5125
2414.37216	3589.8125
2417.16446	3587.5125
2419.955	3589.1125
2422.74378	3588.4125
2425.5308	3596.1125
2428.31606	3588.4125
2431.09956	3597.2125
2433.88131	3597.6125
2436.6613	3618.0125
2439.43954	3639.0125
2442.21603	3635.0125
2444.99077	3615.8125
2447.76377	3635.1125
2450.53501	3662.7125
2453.30451	3659.4125
2456.07226	3677.6125
2458.83827	3653.0125
2461.60254	3660.1125
2464.36507	3650.1125
2467.12586	3635.6125
2469.88492	3660.2125
2472.64224	3668.3125
2475.39782	3688.1125
2478.15167	3694.1125
2480.90379	3719.7125
2483.65417	3748.0125
2486.40283	3772.7125
2489.14976	3783.4125
2491.89497	3786.9125
2494.63845	3805.1125
2497.3802	3803.2125
2500.12024	3757.4125
2502.85855	3730.3125
2505.59514	3716.2125
2508.33002	3680.2125
2511.06318	3656.8125
2513.79462	3614.4125
2516.52435	3604.8125
2519.25237	3566.3125
2521.97867	3549.7125
2524.70327	3521.6125
2527.42616	3516.7125
2530.14734	3521.7125
2532.86681	3525.7125
2535.58458	3525.7125
2538.30065	3526.6125
2541.01501	3535.4125
2543.72768	3542.6125
2546.43864	3549.9125
2549.14791	3551.9125
2551.85548	3553.5125
2554.56136	3551.2125
2557.26554	3556.3125
2559.96803	3542.5125
2562.66883	3557.8125
2565.36794	3541.9125
2568.06536	3550.5125
2570.7611	3537.0125
2573.45514	3531.6125
2576.14751	3518.0125
2578.83819	3497.6125
2581.52719	3508.5125
2584.21451	3486.9125
2586.90015	3496.2125
2589.58411	3474.7125
2592.2664	3478.3125
2594.94701	3485.7125
2597.62594	3475.0125
2600.30321	3485.5125
2602.9788	3475.4125
2605.65273	3481.3125
2608.32498	3490.4125
2610.99557	3489.9125
2613.66449	3484.6125
2616.33175	3486.3125
2618.99734	3499.6125
2621.66128	3501.9125
2624.32355	3496.8125
2626.98416	3495.9125
2629.64311	3477.9125
2632.30041	3470.1125
2634.95605	3468.8125
2637.61004	3453.2125
2640.26238	3438.1125
2642.91306	3438.2125
2645.56209	3437.5125
2648.20948	3434.7125
2650.85521	3433.0125
2653.4993	3441.8125
2656.14175	3440.3125
2658.78255	3449.1125
2661.42171	3470.1125
2664.05923	3475.7125
2666.6951	3482.8125
2669.32934	3505.0125
2671.96194	3510.4125
2674.59291	3495.5125
2677.22224	3510.6125
2679.84993	3513.1125
2682.476	3499.9125
2685.10043	3496.2125
2687.72324	3479.8125
2690.34441	3482.0125
2692.96396	3482.9125
2695.58188	3471.8125
2698.19818	3472.4125
2700.81285	3466.2125
2703.4259	3473.3125
2706.03733	3477.2125
2708.64714	3480.3125
2711.25533	3487.8125
2713.86191	3501.2125
2716.46687	3493.5125
2719.07021	3505.2125
2721.67194	3505.6125
2724.27206	3492.3125
2726.87057	3500.6125
2729.46747	3490.5125
2732.06276	3486.3125
2734.65644	3477.7125
2737.24852	3462.2125
2739.83899	3434.0125
2742.42786	3445.0125
2745.01513	3417.5125
2747.60079	3416.2125
2750.18486	3414.9125
2752.76733	3409.5125
2755.3482	3393.0125
2757.92747	3402.4125
2760.50515	3383.4125
2763.08123	3387.8125
2765.65573	3392.9125
2768.22863	3375.7125
2770.79994	3375.0125
2773.36967	3376.1125
2775.9378	3385.9125
2778.50435	3380.8125
2781.06932	3380.0125
2783.6327	3394.0125
2786.1945	3392.2125
2788.75471	3395.1125
2791.31335	3389.6125
2793.87041	3403.2125
2796.42589	3406.4125
2798.97979	3401.6125
2801.53212	3402.0125
2804.08288	3396.2125
2806.63206	3425.1125
2809.17967	3423.6125
2811.72571	3434.9125
2814.27018	3461.7125
2816.81308	3466.6125
2819.35442	3472.5125
2821.89419	3485.7125
2824.43239	3494.3125
2826.96904	3502.7125
2829.50412	3485.4125
2832.03763	3489.1125
2834.56959	3495.9125
2837.1	3490.3125
2839.62884	3473.5125
2842.15613	3484.6125
2844.68186	3494.6125
2847.20604	3495.3125
2849.72867	3506.5125
2852.24974	3522.6125
2854.76927	3537.7125
2857.28724	3544.9125
2859.80367	3547.6125
2862.31855	3569.6125
2864.83189	3577.8125
2867.34368	3581.0125
2869.85393	3585.8125
2872.36264	3602.5125
2874.8698	3605.1125
2877.37543	3602.1125
2879.87952	3602.9125
2882.38207	3584.5125
2884.88308	3571.4125
2887.38256	3563.0125
2889.88051	3553.4125
2892.37692	3561.2125
2894.8718	3550.0125
2897.36515	3548.4125
2899.85698	3556.0125
2902.34727	3551.9125
2904.83604	3542.3125
2907.32328	3547.6125
2909.809	3540.5125
2912.29319	3535.2125
2914.77587	3524.6125
2917.25702	3511.6125
2919.73665	3480.3125
2922.21476	3487.8125
2924.69136	3466.5125
2927.16644	3457.8125
2929.64	3452.6125
2932.11205	3437.0125
2934.58258	3433.6125
2937.05161	3435.6125
2939.51912	3431.4125
2941.98513	3421.7125
2944.44962	3423.3125
2946.91261	3413.4125
2949.37409	3411.6125
2951.83407	3416.7125
2954.29254	3422.4125
2956.74951	3417.8125
2959.20498	3416.5125
2961.65895	3402.6125
2964.11142	3411.4125
2966.56239	3409.5125
2969.01186	3399.1125
2971.45984	3395.4125
2973.90632	3379.5125
2976.35131	3366.0125
2978.7948	3333.0125
2981.23681	3334.4125
2983.67732	3318.0125
2986.11635	3313.5125
2988.55388	3295.7125
2990.98993	3309.2125
2993.4245	3306.9125
2995.85758	3312.1125
2998.28917	3308.5125
3000.71928	3317.3125
3003.14791	3323.0125
3005.57506	3318.3125
3008.00073	3311.8125
3010.42493	3317.8125
3012.84764	3310.4125
3015.26888	3311.5125
3017.68865	3316.7125
3020.10694	3309.3125
3022.52376	3301.8125
3024.9391	3290.3125
3027.35298	3265.4125
3029.76539	3260.3125
3032.17632	3246.5125
3034.5858	3226.2125
3036.9938	3223.4125
3039.40034	3201.6125
3041.80542	3197.8125
3044.20903	3178.3125
3046.61118	3172.6125
3049.01187	3158.9125
3051.4111	3158.2125
3053.80888	3166.5125
3056.20519	3155.5125
3058.60005	3149.4125
3060.99345	3147.6125
3063.3854	3137.9125
3065.7759	3120.3125
3068.16494	3129.4125
3070.55254	3104.9125
3072.93868	3107.1125
3075.32338	3086.2125
3077.70662	3079.8125
3080.08842	3066.7125
3082.46878	3077.6125
3084.84769	3065.3125
3087.22515	3061.3125
3089.60118	3072.7125
3091.97576	3068.8125
3094.3489	3073.2125
3096.72061	3058.9125
3099.09087	3056.6125
3101.4597	3068.3125
3103.82709	3057.9125
3106.19305	3061.5125
3108.55757	3063.0125
3110.92066	3053.7125
3113.28232	3045.1125
3115.64255	3053.9125
3118.00134	3044.3125
3120.35871	3045.4125
3122.71466	3036.3125
3125.06917	3039.4125
3127.42226	3036.0125
3129.77393	3054.3125
3132.12417	3049.9125
3134.47299	3045.1125
3136.82039	3050.7125
3139.16636	3049.7125
3141.51092	3056.0125
3143.85406	3061.9125
3146.19579	3069.4125
3148.53609	3066.2125
3150.87499	3091.2125
3153.21246	3095.2125
3155.54853	3098.5125
3157.88318	3101.1125
3160.21642	3119.4125
3162.54826	3113.8125
3164.87868	3106.7125
3167.2077	3106.8125
3169.5353	3105.1125
3171.86151	3117.7125
3174.18631	3099.6125
3176.5097	3101.5125
3178.83169	3103.2125
3181.15228	3105.0125
3183.47147	3095.5125
3185.78926	3103.4125
3188.10565	3111.0125
3190.42065	3125.1125
3192.73424	3128.5125
3195.04645	3129.3125
3197.35725	3132.5125
3199.66667	3139.8125
3201.97469	3145.2125
3204.28132	3166.1125
3206.58656	3168.5125
3208.8904	3169.7125
3211.19287	3196.1125
3213.49394	3203.2125
3215.79363	3205.4125
3218.09193	3216.7125
3220.38884	3237.2125
3222.68438	3241.4125
3224.97853	3249.0125
3227.2713	3241.0125
3229.56269	3239.2125
3231.8527	3229.4125
3234.14133	3226.8125
3236.42858	3247.0125
3238.71446	3227.7125
3240.99896	3226.8125
3243.28209	3229.3125
3245.56384	3228.1125
3247.84423	3240.2125
3250.12324	3238.6125
3252.40088	3227.9125
3254.67715	3224.1125
3256.95205	3219.4125
3259.22558	3230.8125
3261.49775	3218.1125
3263.76855	3224.1125
3266.03799	3218.8125
3268.30606	3225.5125
3270.57277	3217.0125
3272.83812	3218.3125
3275.10211	3218.2125
3277.36474	3220.6125
3279.62601	3220.5125
3281.88593	3208.6125
3284.14448	3227.2125
3286.40168	3229.8125
3288.65753	3243.4125
3290.91202	3238.6125
3293.16516	3223.4125
3295.41695	3220.1125
3297.66738	3207.1125
3299.91647	3204.4125
3302.16421	3168.9125
3304.4106	3163.7125
3306.65564	3138.5125
3308.89933	3095.5125
3311.14169	3088.2125
3313.38269	3050.8125
3315.62236	3021.3125
3317.86068	2993.8125
3320.09766	2979.0125
3322.3333	2945.4125
3324.5676	2936.4125
3326.80056	2879.1125
3329.03219	2864.6125
3331.26248	1.2125
3333.49143	-0.3875
3335.71905	0.5125
