Data from AgNP_FTO_APTES_UA_100uM_CRN_0uM_R6G_10uM_NaF_0.1M_Addition_RamanShift__24__11-13-10-112.txt Node

Date: Thu Mar 24 11:13:10 GMT 2022
User: TCL
Spectrometer: QEP01345
Trigger mode: 4
Integration Time (sec): 7.000000E0
Scans to average: 10
Electric dark correction enabled: true
Nonlinearity correction enabled: false
Boxcar width: 0
XAxis mode: Raman Shifts
Number of Pixels in Spectrum: 1044
>>>>>Begin Spectral Data<<<<<
46.04893	-1.2625
50.45542	0.5375
54.85868	1.0375
59.25871	0.1375
63.6555	33.1375
68.04907	38.7375
72.43941	38.2375
76.82654	36.9375
81.21044	41.4375
85.59113	42.9375
89.96862	46.8375
94.34289	46.8375
98.71396	50.6375
103.08183	48.7375
107.4465	51.0375
111.80798	53.2375
116.16626	54.5375
120.52136	53.6375
124.87327	55.6375
129.222	56.4375
133.56755	64.6375
137.90993	65.3375
142.24913	76.9375
146.58517	82.8375
150.91804	96.4375
155.24774	112.8375
159.57429	143.0375
163.89768	182.5375
168.21792	243.1375
172.53501	334.8375
176.84895	474.5375
181.15975	657.5375
185.46741	923.2375
189.77193	1266.6375
194.07331	1709.6375
198.37157	2215.3375
202.6667	2716.2375
206.9587	3243.9375
211.24758	3758.9375
215.53334	4289.9375
219.81599	4824.5375
224.09553	5444.4375
228.37195	6111.4375
232.64527	6874.1375
236.91549	7671.3375
241.18261	8451.9375
245.44663	9135.0375
249.70755	9766.2375
253.96539	10175.5375
258.22014	10550.2375
262.4718	10798.8375
266.72039	10974.3375
270.96589	11042.4375
275.20832	10968.4375
279.44768	10844.0375
283.68397	10707.2375
287.91719	10624.0375
292.14735	10480.7375
296.37445	10486.7375
300.59849	10547.6375
304.81948	10638.8375
309.03742	10754.5375
313.25231	10818.4375
317.46415	10742.0375
321.67296	10544.6375
325.87872	10366.8375
330.08145	10278.7375
334.28114	10240.9375
338.47781	10268.6375
342.67145	10368.3375
346.86207	10567.7375
351.04966	10799.2375
355.23424	11015.1375
359.4158	11190.5375
363.59435	11255.3375
367.76989	11292.7375
371.94243	11176.3375
376.11196	11163.3375
380.27849	11134.2375
384.44203	11143.5375
388.60257	11210.8375
392.76012	11326.7375
396.91468	11473.6375
401.06626	11654.7375
405.21485	11775.1375
409.36047	11579.3375
413.50311	11292.6375
417.64277	11010.9375
421.77947	11010.2375
425.9132	11066.4375
430.04396	11098.5375
434.17176	11169.5375
438.2966	11262.3375
442.41849	11470.7375
446.53742	11836.2375
450.6534	12245.6375
454.76644	12418.0375
458.87653	12443.9375
462.98368	12297.7375
467.08789	12145.0375
471.18916	11949.6375
475.2875	11707.0375
479.38291	11479.9375
483.4754	11285.0375
487.56496	11155.3375
491.6516	11064.8375
495.73531	10925.5375
499.81612	10836.7375
503.89401	10927.7375
507.96899	10942.4375
512.04106	10945.0375
516.11023	10879.8375
520.1765	10829.0375
524.23987	10776.7375
528.30034	10800.8375
532.35792	10729.3375
536.41261	10534.0375
540.46441	10276.6375
544.51333	10166.1375
548.55936	10209.0375
552.60252	10413.4375
556.64279	10752.1375
560.6802	11033.7375
564.71473	11199.8375
568.7464	11428.7375
572.7752	11941.5375
576.80114	12538.2375
580.82422	13072.8375
584.84444	13655.1375
588.86181	14769.0375
592.87633	16184.0375
596.888	16924.7375
600.89682	16118.1375
604.9028	14891.9375
608.90594	15134.3375
612.90624	16128.9375
616.90371	15093.1375
620.89834	12270.3375
624.89015	10870.4375
628.87913	10725.9375
632.86528	10908.5375
636.84862	10931.6375
640.82913	10648.0375
644.80683	10185.8375
648.78172	9941.6375
652.75379	9951.1375
656.72306	10087.9375
660.68952	10358.4375
664.65319	10284.3375
668.61405	9947.2375
672.57211	9851.0375
676.52738	9884.2375
680.47986	9891.5375
684.42955	9798.3375
688.37646	9685.2375
692.32058	9739.6375
696.26192	9903.5375
700.20048	10082.3375
704.13626	10226.2375
708.06928	10313.9375
711.99952	10325.2375
715.927	10300.0375
719.85171	10300.1375
723.77365	10203.9375
727.69284	9981.4375
731.60928	9844.1375
735.52295	9800.3375
739.43388	9888.2375
743.34206	9974.7375
747.24749	10079.2375
751.15017	10202.2375
755.05012	10425.9375
758.94733	10819.6375
762.8418	11593.4375
766.73354	12844.6375
770.62254	14100.8375
774.50882	14309.7375
778.39237	13453.2375
782.27321	12244.2375
786.15132	11229.5375
790.02671	10523.6375
793.89938	10133.6375
797.76935	9919.7375
801.6366	9808.7375
805.50115	9717.8375
809.36299	9644.7375
813.22213	9553.6375
817.07857	9500.2375
820.93231	9465.2375
824.78336	9432.1375
828.63172	9408.8375
832.47738	9370.6375
836.32036	9362.6375
840.16066	9370.1375
843.99827	9358.4375
847.8332	9381.2375
851.66546	9400.7375
855.49504	9430.6375
859.32195	9435.5375
863.1462	9358.7375
866.96777	9332.7375
870.78668	9308.3375
874.60293	9313.4375
878.41652	9307.3375
882.22745	9365.3375
886.03573	9435.5375
889.84136	9455.5375
893.64433	9411.9375
897.44466	9428.3375
901.24235	9438.8375
905.0374	9387.5375
908.8298	9330.6375
912.61957	9324.6375
916.40671	9387.5375
920.19121	9548.1375
923.97308	9753.8375
927.75233	9903.0375
931.52895	9806.2375
935.30295	9487.4375
939.07433	9189.5375
942.84309	8972.4375
946.60924	8835.1375
950.37278	8781.1375
954.13371	8802.1375
957.89203	8798.6375
961.64774	8777.5375
965.40086	8758.6375
969.15137	8774.6375
972.89929	8742.2375
976.64461	8707.4375
980.38733	8699.6375
984.12747	8663.5375
987.86502	8697.8375
991.59999	8728.9375
995.33237	8835.0375
999.06217	8998.8375
1002.78939	9260.2375
1006.51404	9576.4375
1010.23611	9870.2375
1013.95561	10023.0375
1017.67255	10029.0375
1021.38692	9845.4375
1025.09872	9545.2375
1028.80796	9280.2375
1032.51465	9171.8375
1036.21877	9180.3375
1039.92035	9233.7375
1043.61937	9281.1375
1047.31584	9345.2375
1051.00976	9416.3375
1054.70114	9473.0375
1058.38998	9493.6375
1062.07627	9535.1375
1065.76003	9637.3375
1069.44126	9823.4375
1073.11995	10072.3375
1076.79611	10326.7375
1080.46974	10480.1375
1084.14085	10643.1375
1087.80943	10842.7375
1091.47549	10993.8375
1095.13903	10990.4375
1098.80005	10698.2375
1102.45857	10304.2375
1106.11456	10060.9375
1109.76805	9997.6375
1113.41903	10043.5375
1117.06751	10201.8375
1120.71348	10395.3375
1124.35696	10652.9375
1127.99793	10869.1375
1131.63641	10934.7375
1135.2724	10877.1375
1138.90589	10767.1375
1142.5369	10724.9375
1146.16542	10823.9375
1149.79145	11030.0375
1153.415	11219.7375
1157.03607	11369.7375
1160.65467	11576.7375
1164.27079	12017.8375
1167.88443	12673.2375
1171.49561	13648.6375
1175.10432	15000.3375
1178.71056	16675.1375
1182.31434	18157.8375
1185.91565	18720.3375
1189.51451	18357.6375
1193.11091	17571.5375
1196.70485	16612.8375
1200.29634	15591.1375
1203.88538	14736.9375
1207.47197	14193.7375
1211.05612	13856.6375
1214.63782	13608.2375
1218.21708	13409.2375
1221.79391	13310.8375
1225.36829	13390.8375
1228.94024	13455.5375
1232.50976	13215.2375
1236.07685	12809.5375
1239.6415	12402.3375
1243.20374	12212.7375
1246.76355	12176.9375
1250.32093	12219.9375
1253.8759	12483.1375
1257.42845	12866.3375
1260.97859	13370.9375
1264.52631	13904.2375
1268.07163	14502.2375
1271.61453	14998.1375
1275.15503	15512.2375
1278.69312	16084.2375
1282.22882	16846.9375
1285.76211	17840.3375
1289.29301	18906.5375
1292.82151	19999.1375
1296.34761	21209.6375
1299.87133	22628.9375
1303.39266	24174.4375
1306.9116	25555.4375
1310.42815	26685.8375
1313.94233	27068.2375
1317.45412	26423.0375
1320.96354	25186.7375
1324.47058	24033.4375
1327.97525	23059.5375
1331.47754	22318.6375
1334.97747	21854.5375
1338.47502	21490.6375
1341.97022	21264.4375
1345.46305	21202.0375
1348.95352	21456.3375
1352.44163	22026.9375
1355.92738	23289.0375
1359.41078	25195.7375
1362.89183	27133.4375
1366.37053	27417.6375
1369.84688	25105.9375
1373.32088	21684.2375
1376.79254	19140.1375
1380.26186	18010.1375
1383.72883	17576.8375
1387.19347	17158.2375
1390.65578	16722.5375
1394.11575	16582.3375
1397.57339	16660.9375
1401.0287	16801.1375
1404.48168	16813.5375
1407.93234	16565.9375
1411.38068	16111.7375
1414.82669	15589.6375
1418.27039	15062.9375
1421.71177	14581.5375
1425.15083	14139.2375
1428.58758	13921.9375
1432.02203	13976.7375
1435.45416	14242.7375
1438.88399	14414.9375
1442.31151	14534.5375
1445.73673	14687.0375
1449.15965	14851.1375
1452.58027	14948.6375
1455.9986	14999.4375
1459.41463	15156.9375
1462.82837	15500.1375
1466.23982	15964.8375
1469.64898	16387.6375
1473.05586	16659.4375
1476.46045	16872.0375
1479.86276	16997.6375
1483.26279	17195.1375
1486.66054	17384.6375
1490.05602	17892.0375
1493.44922	18570.8375
1496.84016	19350.1375
1500.22882	20106.5375
1503.61521	20852.1375
1506.99934	21539.2375
1510.38121	21921.3375
1513.76081	21792.0375
1517.13816	21049.4375
1520.51324	20128.5375
1523.88607	19411.4375
1527.25665	19122.1375
1530.62498	18951.4375
1533.99105	18639.5375
1537.35488	18049.2375
1540.71647	17330.8375
1544.07581	16501.0375
1547.4329	15766.5375
1550.78776	15228.2375
1554.14038	14944.9375
1557.49077	14879.0375
1560.83892	14932.5375
1564.18484	15105.1375
1567.52853	15379.1375
1570.86999	15688.6375
1574.20922	15981.3375
1577.54624	16084.2375
1580.88103	15824.6375
1584.2136	15554.5375
1587.54395	15785.1375
1590.87208	16590.0375
1594.19801	17788.0375
1597.52172	18952.0375
1600.84321	19185.2375
1604.16251	18160.9375
1607.47959	16452.0375
1610.79447	14716.6375
1614.10715	13267.2375
1617.41763	12154.0375
1620.7259	11466.6375
1624.03199	11167.2375
1627.33587	11199.6375
1630.63757	11640.1375
1633.93707	12572.0375
1637.23439	14296.0375
1640.52951	17088.4375
1643.82246	20622.1375
1647.11321	23696.8375
1650.40179	24467.3375
1653.68819	22354.4375
1656.97241	18636.6375
1660.25446	15010.4375
1663.53433	12433.2375
1666.81203	10861.8375
1670.08756	9929.4375
1673.36092	9389.7375
1676.63211	9035.4375
1679.90115	8783.0375
1683.16801	8607.0375
1686.43272	8459.7375
1689.69527	8363.0375
1692.95567	8287.7375
1696.2139	8244.4375
1699.46999	8158.4375
1702.72392	8125.0375
1705.97571	8091.9375
1709.22535	8076.6375
1712.47284	8051.1375
1715.71819	8079.0375
1718.96139	8007.2375
1722.20246	7956.3375
1725.44139	7928.7375
1728.67818	7852.9375
1731.91284	7782.4375
1735.14537	7732.2375
1738.37576	7683.4375
1741.60403	7659.1375
1744.83017	7606.6375
1748.05418	7582.7375
1751.27607	7554.5375
1754.49584	7539.7375
1757.71349	7525.1375
1760.92903	7500.9375
1764.14244	7491.3375
1767.35375	7486.1375
1770.56294	7484.7375
1773.77002	7465.4375
1776.97499	7434.7375
1780.17785	7422.6375
1783.37861	7406.7375
1786.57727	7384.9375
1789.77382	7384.8375
1792.96828	7358.2375
1796.16064	7340.5375
1799.3509	7312.2375
1802.53907	7286.9375
1805.72514	7261.1375
1808.90913	7245.7375
1812.09102	7230.7375
1815.27083	7199.4375
1818.44856	7183.0375
1821.6242	7178.3375
1824.79776	7165.8375
1827.96924	7166.6375
1831.13864	7144.9375
1834.30597	7164.6375
1837.47122	7128.5375
1840.6344	7112.8375
1843.7955	7123.8375
1846.95454	7133.3375
1850.11151	7134.5375
1853.26642	7129.6375
1856.41926	7138.6375
1859.57004	7148.9375
1862.71876	7140.0375
1865.86542	7121.1375
1869.01003	7124.4375
1872.15258	7110.4375
1875.29308	7122.0375
1878.43152	7132.3375
1881.56792	7125.3375
1884.70227	7134.0375
1887.83457	7143.6375
1890.96482	7137.9375
1894.09304	7141.6375
1897.21921	7130.8375
1900.34335	7128.2375
1903.46544	7143.4375
1906.58551	7131.3375
1909.70353	7100.4375
1912.81953	7089.9375
1915.93349	7063.7375
1919.04543	7041.1375
1922.15534	7017.8375
1925.26322	6982.3375
1928.36908	6990.1375
1931.47292	6959.1375
1934.57473	6931.8375
1937.67453	6891.8375
1940.77232	6873.1375
1943.86808	6865.4375
1946.96184	6846.7375
1950.05358	6802.2375
1953.14331	6792.7375
1956.23103	6794.8375
1959.31675	6763.1375
1962.40046	6734.0375
1965.48217	6728.9375
1968.56188	6709.4375
1971.63959	6666.1375
1974.7153	6653.7375
1977.78901	6616.2375
1980.86073	6573.5375
1983.93046	6521.3375
1986.99819	6490.0375
1990.06394	6487.6375
1993.1277	6464.7375
1996.18947	6432.8375
1999.24925	6397.8375
2002.30706	6395.2375
2005.36288	6390.4375
2008.41672	6361.8375
2011.46859	6360.1375
2014.51848	6350.7375
2017.56639	6340.8375
2020.61233	6317.4375
2023.6563	6311.2375
2026.6983	6299.9375
2029.73833	6277.6375
2032.7764	6265.9375
2035.8125	6237.1375
2038.84664	6197.6375
2041.87881	6200.3375
2044.90903	6166.6375
2047.93729	6156.4375
2050.96359	6137.9375
2053.98794	6122.2375
2057.01034	6118.1375
2060.03078	6112.4375
2063.04927	6102.2375
2066.06582	6114.4375
2069.08042	6104.0375
2072.09307	6123.8375
2075.10378	6135.7375
2078.11255	6149.5375
2081.11938	6163.9375
2084.12426	6166.6375
2087.12722	6189.3375
2090.12824	6194.4375
2093.12732	6197.7375
2096.12447	6203.8375
2099.11969	6192.1375
2102.11299	6190.5375
2105.10435	6204.2375
2108.09379	6183.5375
2111.08131	6155.7375
2114.0669	6160.2375
2117.05057	6148.9375
2120.03233	6151.3375
2123.01216	6128.6375
2125.99008	6114.3375
2128.96609	6123.9375
2131.94018	6123.8375
2134.91236	6117.5375
2137.88263	6112.2375
2140.851	6090.6375
2143.81746	6100.4375
2146.78201	6076.4375
2149.74466	6090.1375
2152.7054	6072.8375
2155.66425	6059.4375
2158.6212	6065.4375
2161.57625	6056.4375
2164.52941	6023.2375
2167.48067	6021.6375
2170.43004	5967.7375
2173.37752	5965.7375
2176.32311	5941.3375
2179.26681	5942.4375
2182.20863	5919.6375
2185.14856	5931.8375
2188.08661	5914.1375
2191.02278	5903.6375
2193.95707	5890.2375
2196.88948	5880.0375
2199.82001	5860.7375
2202.74867	5840.9375
2205.67545	5845.9375
2208.60037	5834.9375
2211.52341	5818.4375
2214.44458	5805.9375
2217.36388	5779.7375
2220.28132	5779.5375
2223.1969	5748.9375
2226.11061	5750.5375
2229.02246	5742.0375
2231.93245	5739.1375
2234.84058	5734.9375
2237.74686	5730.4375
2240.65128	5733.7375
2243.55385	5729.8375
2246.45456	5719.8375
2249.35343	5702.7375
2252.25044	5695.1375
2255.14561	5660.0375
2258.03893	5642.0375
2260.93041	5642.3375
2263.82004	5610.2375
2266.70783	5593.4375
2269.59378	5576.9375
2272.4779	5561.6375
2275.36017	5566.1375
2278.24061	5540.4375
2281.11922	5543.4375
2283.996	5533.7375
2286.87094	5520.2375
2289.74405	5497.2375
2292.61534	5501.0375
2295.4848	5487.6375
2298.35243	5470.7375
2301.21824	5466.5375
2304.08223	5463.9375
2306.94439	5449.4375
2309.80474	5442.1375
2312.66327	5448.2375
2315.51999	5430.9375
2318.37489	5453.7375
2321.22797	5416.9375
2324.07925	5407.8375
2326.92871	5411.8375
2329.77637	5408.4375
2332.62222	5386.2375
2335.46626	5373.3375
2338.3085	5382.6375
2341.14893	5360.2375
2343.98756	5373.0375
2346.8244	5373.5375
2349.65943	5383.3375
2352.49267	5370.2375
2355.32411	5377.8375
2358.15376	5381.5375
2360.98161	5375.3375
2363.80768	5369.4375
2366.63195	5368.2375
2369.45444	5360.8375
2372.27514	5366.5375
2375.09405	5349.3375
2377.91118	5356.6375
2380.72652	5339.2375
2383.54009	5336.8375
2386.35187	5308.5375
2389.16188	5287.7375
2391.97011	5272.4375
2394.77657	5259.0375
2397.58125	5248.0375
2400.38416	5258.9375
2403.18529	5225.1375
2405.98466	5216.2375
2408.78226	5222.8375
2411.57809	5217.0375
2414.37216	5207.1375
2417.16446	5218.2375
2419.955	5185.3375
2422.74378	5190.0375
2425.5308	5201.2375
2428.31606	5193.4375
2431.09956	5183.4375
2433.88131	5170.7375
2436.6613	5159.5375
2439.43954	5159.9375
2442.21603	5160.3375
2444.99077	5154.9375
2447.76377	5160.5375
2450.53501	5162.4375
2453.30451	5167.9375
2456.07226	5157.9375
2458.83827	5163.9375
2461.60254	5149.2375
2464.36507	5164.5375
2467.12586	5144.7375
2469.88492	5147.3375
2472.64224	5147.1375
2475.39782	5153.3375
2478.15167	5144.1375
2480.90379	5141.0375
2483.65417	5150.7375
2486.40283	5151.9375
2489.14976	5141.7375
2491.89497	5124.3375
2494.63845	5127.5375
2497.3802	5118.9375
2500.12024	5135.4375
2502.85855	5114.9375
2505.59514	5125.4375
2508.33002	5105.5375
2511.06318	5098.9375
2513.79462	5110.7375
2516.52435	5084.0375
2519.25237	5081.3375
2521.97867	5056.2375
2524.70327	5070.8375
2527.42616	5063.2375
2530.14734	5057.1375
2532.86681	5042.2375
2535.58458	5038.6375
2538.30065	5032.7375
2541.01501	5024.1375
2543.72768	5026.7375
2546.43864	5010.7375
2549.14791	5008.3375
2551.85548	5005.6375
2554.56136	5009.2375
2557.26554	4998.3375
2559.96803	4991.9375
2562.66883	4990.6375
2565.36794	4989.0375
2568.06536	4990.6375
2570.7611	4995.3375
2573.45514	4976.8375
2576.14751	4961.6375
2578.83819	4966.0375
2581.52719	4958.9375
2584.21451	4942.1375
2586.90015	4937.2375
2589.58411	4928.8375
2592.2664	4929.1375
2594.94701	4921.7375
2597.62594	4909.6375
2600.30321	4898.4375
2602.9788	4906.2375
2605.65273	4889.5375
2608.32498	4886.3375
2610.99557	4889.0375
2613.66449	4897.7375
2616.33175	4888.9375
2618.99734	4884.7375
2621.66128	4869.8375
2624.32355	4871.6375
2626.98416	4868.3375
2629.64311	4860.2375
2632.30041	4845.8375
2634.95605	4848.8375
2637.61004	4848.5375
2640.26238	4827.3375
2642.91306	4837.1375
2645.56209	4862.8375
2648.20948	4839.1375
2650.85521	4842.1375
2653.4993	4851.1375
2656.14175	4856.8375
2658.78255	4864.3375
2661.42171	4849.0375
2664.05923	4862.5375
2666.6951	4867.9375
2669.32934	4864.8375
2671.96194	4861.8375
2674.59291	4872.3375
2677.22224	4863.0375
2679.84993	4878.1375
2682.476	4848.9375
2685.10043	4849.8375
2687.72324	4845.4375
2690.34441	4846.8375
2692.96396	4854.6375
2695.58188	4861.6375
2698.19818	4844.8375
2700.81285	4859.5375
2703.4259	4846.3375
2706.03733	4852.3375
2708.64714	4852.7375
2711.25533	4857.9375
2713.86191	4849.9375
2716.46687	4861.7375
2719.07021	4851.2375
2721.67194	4866.4375
2724.27206	4864.7375
2726.87057	4883.2375
2729.46747	4860.6375
2732.06276	4874.2375
2734.65644	4868.4375
2737.24852	4861.7375
2739.83899	4857.5375
2742.42786	4844.5375
2745.01513	4843.8375
2747.60079	4828.6375
2750.18486	4835.3375
2752.76733	4827.3375
2755.3482	4820.9375
2757.92747	4839.7375
2760.50515	4806.6375
2763.08123	4828.3375
2765.65573	4816.8375
2768.22863	4809.1375
2770.79994	4813.2375
2773.36967	4801.1375
2775.9378	4812.3375
2778.50435	4815.9375
2781.06932	4803.0375
2783.6327	4789.2375
2786.1945	4798.0375
2788.75471	4794.6375
2791.31335	4778.0375
2793.87041	4764.6375
2796.42589	4756.7375
2798.97979	4766.0375
2801.53212	4774.6375
2804.08288	4748.8375
2806.63206	4760.3375
2809.17967	4743.2375
2811.72571	4721.3375
2814.27018	4735.7375
2816.81308	4741.2375
2819.35442	4726.8375
2821.89419	4726.1375
2824.43239	4722.0375
2826.96904	4707.4375
2829.50412	4711.4375
2832.03763	4719.1375
2834.56959	4715.0375
2837.1	4704.7375
2839.62884	4713.8375
2842.15613	4695.3375
2844.68186	4716.5375
2847.20604	4725.9375
2849.72867	4733.1375
2852.24974	4742.1375
2854.76927	4731.7375
2857.28724	4736.5375
2859.80367	4730.5375
2862.31855	4719.5375
2864.83189	4730.7375
2867.34368	4724.2375
2869.85393	4747.5375
2872.36264	4711.9375
2874.8698	4737.7375
2877.37543	4734.7375
2879.87952	4729.8375
2882.38207	4723.1375
2884.88308	4731.7375
2887.38256	4734.5375
2889.88051	4733.1375
2892.37692	4729.3375
2894.8718	4730.7375
2897.36515	4746.5375
2899.85698	4728.4375
2902.34727	4735.5375
2904.83604	4730.0375
2907.32328	4759.0375
2909.809	4741.3375
2912.29319	4740.2375
2914.77587	4736.3375
2917.25702	4732.9375
2919.73665	4723.5375
2922.21476	4730.4375
2924.69136	4717.3375
2927.16644	4727.5375
2929.64	4713.1375
2932.11205	4705.3375
2934.58258	4686.1375
2937.05161	4696.8375
2939.51912	4694.9375
2941.98513	4679.8375
2944.44962	4666.7375
2946.91261	4631.6375
2949.37409	4645.7375
2951.83407	4633.7375
2954.29254	4630.3375
2956.74951	4612.4375
2959.20498	4603.2375
2961.65895	4574.7375
2964.11142	4583.9375
2966.56239	4556.7375
2969.01186	4552.1375
2971.45984	4530.3375
2973.90632	4512.3375
2976.35131	4515.8375
2978.7948	4498.3375
2981.23681	4475.1375
2983.67732	4472.8375
2986.11635	4450.6375
2988.55388	4434.1375
2990.98993	4433.8375
2993.4245	4423.8375
2995.85758	4411.6375
2998.28917	4411.4375
3000.71928	4391.3375
3003.14791	4386.7375
3005.57506	4388.9375
3008.00073	4373.9375
3010.42493	4362.1375
3012.84764	4366.8375
3015.26888	4351.0375
3017.68865	4342.0375
3020.10694	4339.0375
3022.52376	4323.0375
3024.9391	4309.9375
3027.35298	4296.5375
3029.76539	4303.9375
3032.17632	4277.3375
3034.5858	4262.5375
3036.9938	4285.6375
3039.40034	4261.8375
3041.80542	4258.5375
3044.20903	4239.6375
3046.61118	4251.8375
3049.01187	4238.6375
3051.4111	4245.8375
3053.80888	4232.5375
3056.20519	4226.1375
3058.60005	4208.6375
3060.99345	4201.4375
3063.3854	4205.8375
3065.7759	4177.6375
3068.16494	4181.4375
3070.55254	4158.3375
3072.93868	4167.6375
3075.32338	4150.8375
3077.70662	4142.5375
3080.08842	4138.4375
3082.46878	4130.2375
3084.84769	4126.0375
3087.22515	4131.3375
3089.60118	4118.4375
3091.97576	4104.9375
3094.3489	4103.0375
3096.72061	4113.9375
3099.09087	4099.5375
3101.4597	4112.5375
3103.82709	4099.1375
3106.19305	4075.4375
3108.55757	4085.1375
3110.92066	4069.7375
3113.28232	4066.0375
3115.64255	4048.7375
3118.00134	4046.3375
3120.35871	4044.7375
3122.71466	4039.4375
3125.06917	4024.3375
3127.42226	4011.3375
3129.77393	4022.5375
3132.12417	4027.3375
3134.47299	4027.3375
3136.82039	4059.5375
3139.16636	4047.7375
3141.51092	4038.7375
3143.85406	4035.5375
3146.19579	4038.4375
3148.53609	4037.4375
3150.87499	4041.7375
3153.21246	4048.1375
3155.54853	4055.0375
3157.88318	4032.6375
3160.21642	4028.4375
3162.54826	4038.9375
3164.87868	4043.2375
3167.2077	4027.3375
3169.5353	4035.3375
3171.86151	4025.3375
3174.18631	4026.5375
3176.5097	4031.0375
3178.83169	4028.0375
3181.15228	4033.1375
3183.47147	4011.0375
3185.78926	4019.0375
3188.10565	4023.5375
3190.42065	4026.6375
3192.73424	4008.1375
3195.04645	4013.4375
3197.35725	4025.6375
3199.66667	4023.4375
3201.97469	4012.5375
3204.28132	4017.9375
3206.58656	4015.5375
3208.8904	4019.8375
3211.19287	4026.7375
3213.49394	4020.6375
3215.79363	4004.2375
3218.09193	4011.5375
3220.38884	4002.1375
3222.68438	3995.6375
3224.97853	4008.9375
3227.2713	3998.4375
3229.56269	4001.6375
3231.8527	3993.5375
3234.14133	3995.0375
3236.42858	3994.6375
3238.71446	3979.9375
3240.99896	3985.1375
3243.28209	3983.6375
3245.56384	3986.4375
3247.84423	3967.8375
3250.12324	3970.3375
3252.40088	3968.7375
3254.67715	3960.0375
3256.95205	3959.0375
3259.22558	3938.8375
3261.49775	3926.6375
3263.76855	3919.5375
3266.03799	3905.9375
3268.30606	3901.5375
3270.57277	3901.9375
3272.83812	3883.8375
3275.10211	3879.1375
3277.36474	3896.9375
3279.62601	3900.8375
3281.88593	3898.2375
3284.14448	3887.8375
3286.40168	3873.6375
3288.65753	3888.0375
3290.91202	3876.2375
3293.16516	3859.9375
3295.41695	3837.3375
3297.66738	3836.5375
3299.91647	3823.6375
3302.16421	3800.0375
3304.4106	3769.1375
3306.65564	3764.6375
3308.89933	3735.7375
3311.14169	3712.7375
3313.38269	3684.2375
3315.62236	3665.6375
3317.86068	3617.2375
3320.09766	3585.5375
3322.3333	3529.9375
3324.5676	3557.7375
3326.80056	3497.9375
3329.03219	3470.5375
3331.26248	1.9375
3333.49143	-1.6625
3335.71905	0.2375
