Data from AgNP_FTO_APTES_UA_100uM_CRN_2uM_R6G_10uM_NaF_0.1M_Addition_RamanShift__43__14-35-00-346.txt Node

Date: Thu Mar 24 14:35:00 GMT 2022
User: TCL
Spectrometer: QEP01345
Trigger mode: 4
Integration Time (sec): 7.000000E0
Scans to average: 10
Electric dark correction enabled: true
Nonlinearity correction enabled: false
Boxcar width: 0
XAxis mode: Raman Shifts
Number of Pixels in Spectrum: 1044
>>>>>Begin Spectral Data<<<<<
46.04893	-1.2625
50.45542	0.8375
54.85868	-1.6625
59.25871	0.0375
63.6555	45.6375
68.04907	51.3375
72.43941	49.4375
76.82654	52.6375
81.21044	55.0375
85.59113	58.7375
89.96862	59.0375
94.34289	56.1375
98.71396	62.2375
103.08183	60.9375
107.4465	61.0375
111.80798	66.9375
116.16626	66.0375
120.52136	68.4375
124.87327	70.6375
129.222	73.8375
133.56755	81.5375
137.90993	85.0375
142.24913	97.9375
146.58517	108.9375
150.91804	124.6375
155.24774	152.8375
159.57429	184.7375
163.89768	239.1375
168.21792	326.6375
172.53501	439.6375
176.84895	616.8375
181.15975	871.4375
185.46741	1214.3375
189.77193	1688.5375
194.07331	2244.1375
198.37157	2903.9375
202.6667	3584.8375
206.9587	4276.6375
211.24758	4972.4375
215.53334	5689.4375
219.81599	6444.3375
224.09553	7290.4375
228.37195	8250.2375
232.64527	9313.2375
236.91549	10407.8375
241.18261	11447.8375
245.44663	12309.3375
249.70755	13018.9375
253.96539	13615.9375
258.22014	14079.4375
262.4718	14516.7375
266.72039	14799.7375
270.96589	14924.7375
275.20832	14909.9375
279.44768	14746.0375
283.68397	14519.6375
287.91719	14359.4375
292.14735	14308.8375
296.37445	14395.6375
300.59849	14630.4375
304.81948	14883.5375
309.03742	15170.6375
313.25231	15240.5375
317.46415	15057.1375
321.67296	14660.1375
325.87872	14273.9375
330.08145	14104.0375
334.28114	14084.2375
338.47781	14200.3375
342.67145	14458.2375
346.86207	14790.1375
351.04966	15193.8375
355.23424	15604.3375
359.4158	15936.1375
363.59435	16105.0375
367.76989	16100.3375
371.94243	16096.9375
376.11196	16067.2375
380.27849	16119.7375
384.44203	16084.5375
388.60257	16189.7375
392.76012	16242.8375
396.91468	16370.8375
401.06626	16614.3375
405.21485	16804.6375
409.36047	16606.6375
413.50311	16111.1375
417.64277	15692.1375
421.77947	15530.3375
425.9132	15516.8375
430.04396	15648.9375
434.17176	15797.4375
438.2966	16055.3375
442.41849	16491.1375
446.53742	17209.4375
450.6534	17880.5375
454.76644	18273.5375
458.87653	18281.3375
462.98368	17988.0375
467.08789	17552.3375
471.18916	17110.9375
475.2875	16664.4375
479.38291	16248.1375
483.4754	15858.8375
487.56496	15600.4375
491.6516	15387.5375
495.73531	15249.2375
499.81612	15204.0375
503.89401	15323.4375
507.96899	15417.3375
512.04106	15453.4375
516.11023	15430.3375
520.1765	15459.2375
524.23987	15430.4375
528.30034	15462.3375
532.35792	15440.0375
536.41261	15269.5375
540.46441	14945.3375
544.51333	14819.4375
548.55936	14915.7375
552.60252	15285.7375
556.64279	15795.6375
560.6802	16192.8375
564.71473	16289.9375
568.7464	16509.2375
572.7752	16874.6375
576.80114	17186.2375
580.82422	17493.6375
584.84444	18142.8375
588.86181	19349.4375
592.87633	20883.4375
596.888	21762.9375
600.89682	20974.6375
604.9028	20429.4375
608.90594	22321.4375
612.90624	25168.0375
616.90371	23743.7375
620.89834	18465.3375
624.89015	15887.4375
628.87913	15438.1375
632.86528	15602.9375
636.84862	15702.8375
640.82913	15415.4375
644.80683	14842.8375
648.78172	14429.9375
652.75379	14374.3375
656.72306	14770.0375
660.68952	15236.8375
664.65319	15089.5375
668.61405	14548.3375
672.57211	14360.6375
676.52738	14434.0375
680.47986	14403.6375
684.42955	14243.8375
688.37646	14133.5375
692.32058	14213.9375
696.26192	14432.7375
700.20048	14682.4375
704.13626	14861.7375
708.06928	14834.9375
711.99952	14730.7375
715.927	14738.0375
719.85171	14848.1375
723.77365	14832.7375
727.69284	14661.6375
731.60928	14530.9375
735.52295	14538.2375
739.43388	14604.1375
743.34206	14681.3375
747.24749	14746.6375
751.15017	14830.0375
755.05012	15058.6375
758.94733	15591.8375
762.8418	16867.9375
766.73354	18992.5375
770.62254	21054.1375
774.50882	21690.0375
778.39237	20596.1375
782.27321	18511.4375
786.15132	16615.6375
790.02671	15420.2375
793.89938	14770.2375
797.76935	14475.5375
801.6366	14308.0375
805.50115	14231.2375
809.36299	14124.6375
813.22213	14006.5375
817.07857	13986.0375
820.93231	13882.5375
824.78336	13895.2375
828.63172	13856.0375
832.47738	13865.0375
836.32036	13854.3375
840.16066	13832.3375
843.99827	13836.2375
847.8332	13823.5375
851.66546	13830.4375
855.49504	13867.3375
859.32195	13876.5375
863.1462	13799.5375
866.96777	13764.0375
870.78668	13737.2375
874.60293	13778.7375
878.41652	13802.9375
882.22745	13921.6375
886.03573	13978.1375
889.84136	13996.2375
893.64433	13926.2375
897.44466	13871.5375
901.24235	13800.9375
905.0374	13731.8375
908.8298	13635.3375
912.61957	13619.5375
916.40671	13685.1375
920.19121	13880.1375
923.97308	14064.4375
927.75233	14154.4375
931.52895	14083.1375
935.30295	13860.3375
939.07433	13512.2375
942.84309	13267.6375
946.60924	13158.0375
950.37278	13075.8375
954.13371	13097.8375
957.89203	13045.8375
961.64774	13089.2375
965.40086	13088.0375
969.15137	13054.4375
972.89929	13055.8375
976.64461	13023.0375
980.38733	13028.2375
984.12747	13062.9375
987.86502	13145.3375
991.59999	13231.6375
995.33237	13430.9375
999.06217	13763.0375
1002.78939	14202.7375
1006.51404	14685.9375
1010.23611	15053.8375
1013.95561	15239.8375
1017.67255	15268.4375
1021.38692	14976.2375
1025.09872	14476.9375
1028.80796	14113.9375
1032.51465	14033.9375
1036.21877	14117.8375
1039.92035	14154.7375
1043.61937	14215.5375
1047.31584	14197.7375
1051.00976	14159.0375
1054.70114	14167.3375
1058.38998	14195.8375
1062.07627	14281.1375
1065.76003	14417.0375
1069.44126	14586.1375
1073.11995	14865.2375
1076.79611	15183.8375
1080.46974	15457.2375
1084.14085	15752.1375
1087.80943	16044.0375
1091.47549	16230.7375
1095.13903	16091.9375
1098.80005	15735.1375
1102.45857	15371.0375
1106.11456	15139.9375
1109.76805	15136.4375
1113.41903	15318.2375
1117.06751	15667.6375
1120.71348	16044.4375
1124.35696	16457.0375
1127.99793	16837.0375
1131.63641	16850.6375
1135.2724	16522.7375
1138.90589	16213.1375
1142.5369	16043.8375
1146.16542	16031.2375
1149.79145	16103.4375
1153.415	16206.8375
1157.03607	16358.9375
1160.65467	16750.0375
1164.27079	17488.1375
1167.88443	18567.2375
1171.49561	20113.3375
1175.10432	22328.7375
1178.71056	25155.6375
1182.31434	27624.0375
1185.91565	28371.2375
1189.51451	27630.3375
1193.11091	26205.0375
1196.70485	24608.7375
1200.29634	23106.5375
1203.88538	21971.4375
1207.47197	20871.8375
1211.05612	20061.7375
1214.63782	19601.3375
1218.21708	19430.9375
1221.79391	19446.4375
1225.36829	19625.7375
1228.94024	19559.5375
1232.50976	19088.6375
1236.07685	18492.0375
1239.6415	18131.6375
1243.20374	18039.8375
1246.76355	18127.8375
1250.32093	18254.5375
1253.8759	18633.8375
1257.42845	19181.6375
1260.97859	19893.7375
1264.52631	20682.9375
1268.07163	21487.9375
1271.61453	22145.1375
1275.15503	22743.9375
1278.69312	23248.3375
1282.22882	23907.4375
1285.76211	24846.9375
1289.29301	26098.1375
1292.82151	27588.4375
1296.34761	29259.8375
1299.87133	31250.4375
1303.39266	33668.3375
1306.9116	36573.5375
1310.42815	39362.3375
1313.94233	40984.7375
1317.45412	40298.2375
1320.96354	38228.9375
1324.47058	35930.7375
1327.97525	33827.3375
1331.47754	32248.6375
1334.97747	31361.5375
1338.47502	31042.9375
1341.97022	31097.0375
1345.46305	31445.1375
1348.95352	32180.6375
1352.44163	33599.0375
1355.92738	36002.9375
1359.41078	39593.8375
1362.89183	42794.3375
1366.37053	42207.3375
1369.84688	37220.2375
1373.32088	31372.0375
1376.79254	27706.1375
1380.26186	26238.1375
1383.72883	25697.5375
1387.19347	25264.6375
1390.65578	24581.7375
1394.11575	24218.3375
1397.57339	24294.8375
1401.0287	24485.5375
1404.48168	24604.7375
1407.93234	24509.8375
1411.38068	24164.1375
1414.82669	23706.7375
1418.27039	23131.8375
1421.71177	22370.6375
1425.15083	21633.8375
1428.58758	21317.4375
1432.02203	21598.3375
1435.45416	22232.7375
1438.88399	22807.1375
1442.31151	23032.3375
1445.73673	23197.9375
1449.15965	23272.1375
1452.58027	23134.4375
1455.9986	22862.6375
1459.41463	22857.8375
1462.82837	23241.7375
1466.23982	23944.5375
1469.64898	24733.7375
1473.05586	25455.4375
1476.46045	25941.3375
1479.86276	26301.2375
1483.26279	26468.6375
1486.66054	26645.0375
1490.05602	27248.8375
1493.44922	28037.7375
1496.84016	28943.4375
1500.22882	30072.5375
1503.61521	31758.4375
1506.99934	33721.4375
1510.38121	35026.5375
1513.76081	34823.2375
1517.13816	32855.8375
1520.51324	30177.6375
1523.88607	28056.5375
1527.25665	26913.3375
1530.62498	26432.6375
1533.99105	26087.0375
1537.35488	25568.4375
1540.71647	24833.5375
1544.07581	24071.9375
1547.4329	23314.4375
1550.78776	22682.5375
1554.14038	22240.4375
1557.49077	22057.3375
1560.83892	22105.3375
1564.18484	22470.2375
1567.52853	23022.1375
1570.86999	23601.0375
1574.20922	24116.2375
1577.54624	24230.7375
1580.88103	23629.9375
1584.2136	22894.1375
1587.54395	22949.2375
1590.87208	24004.4375
1594.19801	26002.2375
1597.52172	28287.3375
1600.84321	29392.2375
1604.16251	28293.2375
1607.47959	25818.0375
1610.79447	23061.4375
1614.10715	20669.6375
1617.41763	18764.9375
1620.7259	17636.1375
1624.03199	17055.8375
1627.33587	17088.5375
1630.63757	17656.3375
1633.93707	19054.4375
1637.23439	21521.4375
1640.52951	25460.7375
1643.82246	30465.7375
1647.11321	34814.6375
1650.40179	35894.4375
1653.68819	32785.3375
1656.97241	27252.0375
1660.25446	22063.0375
1663.53433	18448.2375
1666.81203	16332.3375
1670.08756	15039.8375
1673.36092	14273.9375
1676.63211	13784.1375
1679.90115	13454.7375
1683.16801	13186.4375
1686.43272	12986.9375
1689.69527	12823.9375
1692.95567	12707.8375
1696.2139	12658.6375
1699.46999	12558.7375
1702.72392	12505.0375
1705.97571	12449.6375
1709.22535	12426.1375
1712.47284	12375.9375
1715.71819	12382.0375
1718.96139	12316.7375
1722.20246	12300.9375
1725.44139	12211.5375
1728.67818	12084.5375
1731.91284	11985.9375
1735.14537	11902.7375
1738.37576	11830.5375
1741.60403	11783.2375
1744.83017	11728.9375
1748.05418	11705.6375
1751.27607	11671.9375
1754.49584	11651.5375
1757.71349	11612.8375
1760.92903	11594.8375
1764.14244	11608.5375
1767.35375	11567.9375
1770.56294	11537.7375
1773.77002	11508.8375
1776.97499	11480.1375
1780.17785	11441.8375
1783.37861	11406.5375
1786.57727	11396.7375
1789.77382	11355.3375
1792.96828	11310.6375
1796.16064	11310.0375
1799.3509	11249.7375
1802.53907	11238.5375
1805.72514	11208.9375
1808.90913	11169.0375
1812.09102	11159.7375
1815.27083	11135.0375
1818.44856	11080.7375
1821.6242	11081.9375
1824.79776	11036.2375
1827.96924	11058.4375
1831.13864	11038.0375
1834.30597	11018.2375
1837.47122	10970.4375
1840.6344	10978.7375
1843.7955	10989.9375
1846.95454	10970.3375
1850.11151	10950.8375
1853.26642	10964.2375
1856.41926	10939.9375
1859.57004	10918.1375
1862.71876	10899.7375
1865.86542	10890.9375
1869.01003	10890.6375
1872.15258	10852.4375
1875.29308	10848.7375
1878.43152	10841.3375
1881.56792	10858.6375
1884.70227	10842.5375
1887.83457	10849.2375
1890.96482	10818.9375
1894.09304	10809.4375
1897.21921	10793.7375
1900.34335	10822.0375
1903.46544	10819.1375
1906.58551	10790.8375
1909.70353	10785.2375
1912.81953	10775.9375
1915.93349	10730.3375
1919.04543	10725.8375
1922.15534	10679.1375
1925.26322	10653.2375
1928.36908	10620.7375
1931.47292	10585.6375
1934.57473	10534.7375
1937.67453	10515.9375
1940.77232	10494.7375
1943.86808	10469.0375
1946.96184	10434.1375
1950.05358	10387.3375
1953.14331	10404.7375
1956.23103	10363.9375
1959.31675	10335.5375
1962.40046	10330.7375
1965.48217	10294.7375
1968.56188	10276.4375
1971.63959	10237.9375
1974.7153	10224.9375
1977.78901	10154.5375
1980.86073	10126.4375
1983.93046	10100.4375
1986.99819	10045.4375
1990.06394	10017.5375
1993.1277	9978.3375
1996.18947	9944.3375
1999.24925	9917.7375
2002.30706	9884.4375
2005.36288	9821.9375
2008.41672	9784.5375
2011.46859	9769.0375
2014.51848	9762.8375
2017.56639	9740.7375
2020.61233	9708.2375
2023.6563	9667.1375
2026.6983	9651.7375
2029.73833	9627.2375
2032.7764	9591.4375
2035.8125	9580.6375
2038.84664	9578.9375
2041.87881	9556.3375
2044.90903	9534.1375
2047.93729	9533.5375
2050.96359	9510.3375
2053.98794	9477.8375
2057.01034	9466.5375
2060.03078	9459.1375
2063.04927	9445.0375
2066.06582	9418.8375
2069.08042	9411.6375
2072.09307	9420.2375
2075.10378	9400.4375
2078.11255	9412.1375
2081.11938	9395.8375
2084.12426	9388.7375
2087.12722	9391.4375
2090.12824	9387.1375
2093.12732	9404.7375
2096.12447	9435.6375
2099.11969	9389.8375
2102.11299	9410.9375
2105.10435	9409.2375
2108.09379	9396.5375
2111.08131	9405.9375
2114.0669	9403.6375
2117.05057	9416.2375
2120.03233	9402.2375
2123.01216	9417.3375
2125.99008	9423.4375
2128.96609	9407.0375
2131.94018	9417.6375
2134.91236	9429.3375
2137.88263	9454.8375
2140.851	9409.8375
2143.81746	9416.5375
2146.78201	9417.3375
2149.74466	9382.4375
2152.7054	9392.0375
2155.66425	9377.7375
2158.6212	9398.3375
2161.57625	9396.4375
2164.52941	9381.2375
2167.48067	9380.3375
2170.43004	9364.3375
2173.37752	9378.6375
2176.32311	9380.9375
2179.26681	9352.3375
2182.20863	9354.5375
2185.14856	9373.0375
2188.08661	9340.0375
2191.02278	9322.6375
2193.95707	9348.8375
2196.88948	9321.1375
2199.82001	9323.1375
2202.74867	9309.5375
2205.67545	9281.5375
2208.60037	9288.9375
2211.52341	9262.2375
2214.44458	9241.3375
2217.36388	9221.8375
2220.28132	9222.4375
2223.1969	9191.3375
2226.11061	9185.2375
2229.02246	9160.1375
2231.93245	9139.3375
2234.84058	9137.6375
2237.74686	9127.0375
2240.65128	9088.6375
2243.55385	9098.0375
2246.45456	9066.7375
2249.35343	9073.6375
2252.25044	9074.3375
2255.14561	9038.9375
2258.03893	9031.8375
2260.93041	9003.5375
2263.82004	8987.5375
2266.70783	8975.8375
2269.59378	8942.1375
2272.4779	8914.3375
2275.36017	8883.7375
2278.24061	8891.4375
2281.11922	8865.6375
2283.996	8869.7375
2286.87094	8850.1375
2289.74405	8838.7375
2292.61534	8827.4375
2295.4848	8808.6375
2298.35243	8794.1375
2301.21824	8792.6375
2304.08223	8778.1375
2306.94439	8774.2375
2309.80474	8778.2375
2312.66327	8753.7375
2315.51999	8751.9375
2318.37489	8757.7375
2321.22797	8729.7375
2324.07925	8739.0375
2326.92871	8733.6375
2329.77637	8703.8375
2332.62222	8684.7375
2335.46626	8684.6375
2338.3085	8700.3375
2341.14893	8697.7375
2343.98756	8662.7375
2346.8244	8705.5375
2349.65943	8703.7375
2352.49267	8675.6375
2355.32411	8685.8375
2358.15376	8698.0375
2360.98161	8708.7375
2363.80768	8674.8375
2366.63195	8692.2375
2369.45444	8683.6375
2372.27514	8687.7375
2375.09405	8660.2375
2377.91118	8641.3375
2380.72652	8616.3375
2383.54009	8597.1375
2386.35187	8584.9375
2389.16188	8572.6375
2391.97011	8561.3375
2394.77657	8535.8375
2397.58125	8526.3375
2400.38416	8495.2375
2403.18529	8463.0375
2405.98466	8458.7375
2408.78226	8462.2375
2411.57809	8438.5375
2414.37216	8427.2375
2417.16446	8419.2375
2419.955	8390.6375
2422.74378	8406.1375
2425.5308	8417.3375
2428.31606	8386.5375
2431.09956	8394.6375
2433.88131	8371.9375
2436.6613	8357.4375
2439.43954	8360.7375
2442.21603	8367.4375
2444.99077	8345.3375
2447.76377	8383.1375
2450.53501	8361.8375
2453.30451	8380.3375
2456.07226	8364.7375
2458.83827	8375.5375
2461.60254	8358.1375
2464.36507	8351.6375
2467.12586	8351.2375
2469.88492	8373.8375
2472.64224	8377.7375
2475.39782	8383.8375
2478.15167	8369.9375
2480.90379	8364.8375
2483.65417	8400.4375
2486.40283	8423.4375
2489.14976	8415.1375
2491.89497	8408.9375
2494.63845	8406.2375
2497.3802	8406.0375
2500.12024	8386.5375
2502.85855	8382.4375
2505.59514	8380.3375
2508.33002	8388.0375
2511.06318	8360.4375
2513.79462	8343.2375
2516.52435	8345.9375
2519.25237	8312.7375
2521.97867	8297.8375
2524.70327	8285.1375
2527.42616	8291.5375
2530.14734	8257.8375
2532.86681	8269.6375
2535.58458	8229.2375
2538.30065	8270.8375
2541.01501	8247.3375
2543.72768	8232.2375
2546.43864	8250.5375
2549.14791	8234.0375
2551.85548	8210.3375
2554.56136	8227.5375
2557.26554	8219.4375
2559.96803	8219.0375
2562.66883	8202.2375
2565.36794	8208.7375
2568.06536	8190.3375
2570.7611	8206.7375
2573.45514	8193.4375
2576.14751	8164.0375
2578.83819	8186.7375
2581.52719	8149.4375
2584.21451	8156.1375
2586.90015	8137.2375
2589.58411	8089.8375
2592.2664	8113.9375
2594.94701	8119.7375
2597.62594	8082.7375
2600.30321	8092.5375
2602.9788	8083.5375
2605.65273	8072.8375
2608.32498	8101.7375
2610.99557	8086.3375
2613.66449	8074.5375
2616.33175	8069.5375
2618.99734	8103.6375
2621.66128	8062.9375
2624.32355	8049.6375
2626.98416	8050.4375
2629.64311	8028.7375
2632.30041	8043.2375
2634.95605	8035.5375
2637.61004	8027.4375
2640.26238	8016.5375
2642.91306	8021.1375
2645.56209	8031.3375
2648.20948	8041.7375
2650.85521	8037.6375
2653.4993	8037.4375
2656.14175	8043.9375
2658.78255	8053.4375
2661.42171	8046.7375
2664.05923	8027.4375
2666.6951	8046.9375
2669.32934	8070.9375
2671.96194	8032.3375
2674.59291	8044.9375
2677.22224	8070.1375
2679.84993	8040.8375
2682.476	8038.1375
2685.10043	8056.5375
2687.72324	8036.1375
2690.34441	8062.8375
2692.96396	8074.9375
2695.58188	8052.0375
2698.19818	8033.0375
2700.81285	8042.7375
2703.4259	8052.1375
2706.03733	8048.5375
2708.64714	8067.6375
2711.25533	8074.3375
2713.86191	8051.8375
2716.46687	8050.1375
2719.07021	8081.7375
2721.67194	8088.6375
2724.27206	8071.1375
2726.87057	8060.9375
2729.46747	8066.8375
2732.06276	8093.0375
2734.65644	8088.2375
2737.24852	8059.1375
2739.83899	8087.6375
2742.42786	8075.4375
2745.01513	8033.7375
2747.60079	8034.2375
2750.18486	8034.6375
2752.76733	8039.8375
2755.3482	8043.1375
2757.92747	8033.0375
2760.50515	8018.6375
2763.08123	8011.3375
2765.65573	8010.6375
2768.22863	8002.2375
2770.79994	8011.6375
2773.36967	8015.6375
2775.9378	8013.1375
2778.50435	7990.9375
2781.06932	7999.1375
2783.6327	7989.7375
2786.1945	7993.7375
2788.75471	7980.4375
2791.31335	7970.2375
2793.87041	7942.2375
2796.42589	7928.1375
2798.97979	7939.5375
2801.53212	7932.6375
2804.08288	7917.3375
2806.63206	7923.6375
2809.17967	7915.7375
2811.72571	7884.1375
2814.27018	7914.2375
2816.81308	7898.3375
2819.35442	7892.4375
2821.89419	7855.0375
2824.43239	7885.6375
2826.96904	7872.6375
2829.50412	7869.5375
2832.03763	7869.0375
2834.56959	7856.5375
2837.1	7832.6375
2839.62884	7825.3375
2842.15613	7824.7375
2844.68186	7803.7375
2847.20604	7798.0375
2849.72867	7802.6375
2852.24974	7808.5375
2854.76927	7800.2375
2857.28724	7786.0375
2859.80367	7783.7375
2862.31855	7764.3375
2864.83189	7775.2375
2867.34368	7810.7375
2869.85393	7785.0375
2872.36264	7798.0375
2874.8698	7790.5375
2877.37543	7791.8375
2879.87952	7783.3375
2882.38207	7775.9375
2884.88308	7773.8375
2887.38256	7782.4375
2889.88051	7760.5375
2892.37692	7753.8375
2894.8718	7770.8375
2897.36515	7752.4375
2899.85698	7765.8375
2902.34727	7790.8375
2904.83604	7810.3375
2907.32328	7802.1375
2909.809	7804.9375
2912.29319	7801.6375
2914.77587	7774.7375
2917.25702	7791.5375
2919.73665	7800.1375
2922.21476	7764.7375
2924.69136	7773.7375
2927.16644	7764.4375
2929.64	7757.4375
2932.11205	7756.7375
2934.58258	7699.0375
2937.05161	7734.0375
2939.51912	7730.3375
2941.98513	7726.4375
2944.44962	7680.1375
2946.91261	7666.4375
2949.37409	7690.7375
2951.83407	7667.8375
2954.29254	7666.5375
2956.74951	7668.1375
2959.20498	7660.5375
2961.65895	7638.6375
2964.11142	7648.2375
2966.56239	7616.0375
2969.01186	7617.4375
2971.45984	7568.0375
2973.90632	7565.5375
2976.35131	7544.7375
2978.7948	7530.0375
2981.23681	7509.8375
2983.67732	7484.2375
2986.11635	7479.8375
2988.55388	7462.4375
2990.98993	7435.9375
2993.4245	7442.9375
2995.85758	7417.9375
2998.28917	7394.6375
3000.71928	7380.0375
3003.14791	7392.1375
3005.57506	7354.9375
3008.00073	7352.4375
3010.42493	7349.7375
3012.84764	7350.9375
3015.26888	7305.8375
3017.68865	7288.8375
3020.10694	7297.0375
3022.52376	7252.9375
3024.9391	7246.4375
3027.35298	7236.8375
3029.76539	7216.3375
3032.17632	7221.9375
3034.5858	7197.6375
3036.9938	7207.5375
3039.40034	7183.4375
3041.80542	7166.7375
3044.20903	7146.1375
3046.61118	7153.1375
3049.01187	7132.6375
3051.4111	7114.4375
3053.80888	7078.4375
3056.20519	7085.2375
3058.60005	7085.6375
3060.99345	7082.4375
3063.3854	7055.6375
3065.7759	7001.8375
3068.16494	7018.4375
3070.55254	7009.1375
3072.93868	6998.6375
3075.32338	6953.7375
3077.70662	6960.8375
3080.08842	6914.8375
3082.46878	6941.3375
3084.84769	6905.9375
3087.22515	6929.1375
3089.60118	6908.1375
3091.97576	6909.7375
3094.3489	6894.3375
3096.72061	6873.5375
3099.09087	6891.7375
3101.4597	6884.4375
3103.82709	6868.6375
3106.19305	6848.8375
3108.55757	6844.3375
3110.92066	6819.5375
3113.28232	6823.3375
3115.64255	6788.0375
3118.00134	6755.3375
3120.35871	6764.3375
3122.71466	6739.9375
3125.06917	6760.8375
3127.42226	6752.7375
3129.77393	6761.2375
3132.12417	6752.9375
3134.47299	6754.7375
3136.82039	6744.3375
3139.16636	6749.3375
3141.51092	6740.1375
3143.85406	6745.7375
3146.19579	6749.8375
3148.53609	6739.7375
3150.87499	6731.8375
3153.21246	6720.4375
3155.54853	6735.4375
3157.88318	6699.7375
3160.21642	6688.3375
3162.54826	6694.2375
3164.87868	6682.2375
3167.2077	6684.3375
3169.5353	6684.2375
3171.86151	6666.6375
3174.18631	6684.4375
3176.5097	6672.6375
3178.83169	6674.9375
3181.15228	6670.5375
3183.47147	6649.2375
3185.78926	6645.8375
3188.10565	6657.4375
3190.42065	6658.8375
3192.73424	6653.3375
3195.04645	6643.6375
3197.35725	6638.1375
3199.66667	6665.6375
3201.97469	6640.4375
3204.28132	6642.2375
3206.58656	6657.5375
3208.8904	6637.1375
3211.19287	6656.2375
3213.49394	6654.8375
3215.79363	6648.4375
3218.09193	6646.4375
3220.38884	6617.8375
3222.68438	6639.3375
3224.97853	6611.1375
3227.2713	6608.8375
3229.56269	6597.0375
3231.8527	6590.9375
3234.14133	6579.0375
3236.42858	6575.9375
3238.71446	6583.6375
3240.99896	6580.1375
3243.28209	6558.4375
3245.56384	6574.1375
3247.84423	6557.8375
3250.12324	6555.9375
3252.40088	6554.4375
3254.67715	6531.3375
3256.95205	6527.9375
3259.22558	6508.8375
3261.49775	6473.2375
3263.76855	6461.5375
3266.03799	6480.2375
3268.30606	6443.7375
3270.57277	6429.4375
3272.83812	6428.3375
3275.10211	6427.5375
3277.36474	6415.0375
3279.62601	6423.6375
3281.88593	6433.6375
3284.14448	6442.8375
3286.40168	6435.8375
3288.65753	6422.7375
3290.91202	6428.7375
3293.16516	6395.8375
3295.41695	6394.3375
3297.66738	6364.1375
3299.91647	6344.1375
3302.16421	6302.3375
3304.4106	6297.7375
3306.65564	6262.7375
3308.89933	6211.0375
3311.14169	6179.9375
3313.38269	6134.0375
3315.62236	6115.2375
3317.86068	6049.9375
3320.09766	5979.1375
3322.3333	5914.6375
3324.5676	5928.4375
3326.80056	5837.3375
3329.03219	5799.5375
3331.26248	2.2375
3333.49143	-1.7625
3335.71905	2.0375
