Data from AgNP_FTO_APTES_UA_100uM_CRN_10uM_R6G_10uM_NaF_0.1M_Addition_RamanShift__32__15-54-20-437.txt Node

Date: Thu Mar 24 15:54:20 GMT 2022
User: TCL
Spectrometer: QEP01345
Trigger mode: 4
Integration Time (sec): 7.000000E0
Scans to average: 10
Electric dark correction enabled: true
Nonlinearity correction enabled: false
Boxcar width: 0
XAxis mode: Raman Shifts
Number of Pixels in Spectrum: 1044
>>>>>Begin Spectral Data<<<<<
46.04893	-1.1875
50.45542	-0.2875
54.85868	-0.0875
59.25871	0.0125
63.6555	29.3125
68.04907	32.6125
72.43941	29.6125
76.82654	31.4125
81.21044	34.6125
85.59113	38.0125
89.96862	38.3125
94.34289	35.9125
98.71396	40.5125
103.08183	39.0125
107.4465	40.3125
111.80798	42.2125
116.16626	41.3125
120.52136	44.0125
124.87327	43.1125
129.222	48.8125
133.56755	49.2125
137.90993	51.6125
142.24913	58.9125
146.58517	61.4125
150.91804	70.6125
155.24774	88.6125
159.57429	107.0125
163.89768	137.7125
168.21792	182.8125
172.53501	249.9125
176.84895	348.9125
181.15975	489.1125
185.46741	687.8125
189.77193	964.5125
194.07331	1282.9125
198.37157	1655.4125
202.6667	2058.1125
206.9587	2457.3125
211.24758	2857.4125
215.53334	3267.4125
219.81599	3720.5125
224.09553	4216.5125
228.37195	4768.7125
232.64527	5379.3125
236.91549	5992.1125
241.18261	6588.5125
245.44663	7069.0125
249.70755	7497.3125
253.96539	7825.5125
258.22014	8129.9125
262.4718	8361.3125
266.72039	8535.8125
270.96589	8605.4125
275.20832	8555.4125
279.44768	8454.5125
283.68397	8295.1125
287.91719	8202.8125
292.14735	8153.9125
296.37445	8211.2125
300.59849	8375.9125
304.81948	8610.4125
309.03742	8800.3125
313.25231	8867.8125
317.46415	8710.0125
321.67296	8417.0125
325.87872	8122.1125
330.08145	7947.2125
334.28114	7946.9125
338.47781	8023.0125
342.67145	8162.8125
346.86207	8377.1125
351.04966	8647.9125
355.23424	8930.9125
359.4158	9169.7125
363.59435	9267.8125
367.76989	9306.9125
371.94243	9291.8125
376.11196	9246.1125
380.27849	9260.0125
384.44203	9220.4125
388.60257	9208.8125
392.76012	9230.3125
396.91468	9329.3125
401.06626	9469.7125
405.21485	9594.0125
409.36047	9472.5125
413.50311	9118.2125
417.64277	8830.0125
421.77947	8664.9125
425.9132	8644.3125
430.04396	8691.7125
434.17176	8702.7125
438.2966	8830.9125
442.41849	9004.8125
446.53742	9290.6125
450.6534	9580.1125
454.76644	9720.1125
458.87653	9717.6125
462.98368	9589.4125
467.08789	9425.0125
471.18916	9260.7125
475.2875	9076.4125
479.38291	8893.4125
483.4754	8730.6125
487.56496	8632.5125
491.6516	8564.4125
495.73531	8521.7125
499.81612	8545.7125
503.89401	8593.6125
507.96899	8688.1125
512.04106	8725.5125
516.11023	8772.1125
520.1765	8814.0125
524.23987	8812.9125
528.30034	8834.4125
532.35792	8790.1125
536.41261	8696.9125
540.46441	8518.5125
544.51333	8423.7125
548.55936	8476.8125
552.60252	8631.4125
556.64279	8839.1125
560.6802	8961.8125
564.71473	9020.6125
568.7464	9132.6125
572.7752	9294.2125
576.80114	9329.3125
580.82422	9385.7125
584.84444	9621.0125
588.86181	10043.1125
592.87633	10674.0125
596.888	11058.6125
600.89682	10938.5125
604.9028	10961.0125
608.90594	12440.5125
612.90624	14669.0125
616.90371	13999.5125
620.89834	10659.7125
624.89015	9006.2125
628.87913	8724.1125
632.86528	8853.8125
636.84862	8997.7125
640.82913	8878.7125
644.80683	8524.3125
648.78172	8284.5125
652.75379	8272.9125
656.72306	8468.0125
660.68952	8778.3125
664.65319	8698.7125
668.61405	8364.3125
672.57211	8219.8125
676.52738	8256.0125
680.47986	8207.8125
684.42955	8145.7125
688.37646	8098.1125
692.32058	8075.8125
696.26192	8193.2125
700.20048	8298.9125
704.13626	8388.1125
708.06928	8378.2125
711.99952	8338.0125
715.927	8324.6125
719.85171	8378.3125
723.77365	8408.3125
727.69284	8331.3125
731.60928	8278.8125
735.52295	8285.4125
739.43388	8307.5125
743.34206	8365.9125
747.24749	8374.0125
751.15017	8375.2125
755.05012	8457.0125
758.94733	8745.2125
762.8418	9458.2125
766.73354	10780.8125
770.62254	12037.0125
774.50882	12511.6125
778.39237	11980.1125
782.27321	10706.3125
786.15132	9545.0125
790.02671	8796.2125
793.89938	8396.1125
797.76935	8223.7125
801.6366	8128.7125
805.50115	8074.7125
809.36299	8030.6125
813.22213	7991.2125
817.07857	7970.6125
820.93231	7941.5125
824.78336	7937.8125
828.63172	7967.5125
832.47738	7947.7125
836.32036	7957.1125
840.16066	7917.6125
843.99827	7920.0125
847.8332	7939.4125
851.66546	7906.5125
855.49504	7923.5125
859.32195	7927.5125
863.1462	7908.8125
866.96777	7875.3125
870.78668	7868.0125
874.60293	7896.6125
878.41652	7919.8125
882.22745	7967.5125
886.03573	8025.3125
889.84136	8006.7125
893.64433	7976.9125
897.44466	7942.8125
901.24235	7899.9125
905.0374	7879.0125
908.8298	7818.3125
912.61957	7789.6125
916.40671	7802.4125
920.19121	7859.9125
923.97308	7963.4125
927.75233	8040.0125
931.52895	8054.3125
935.30295	7944.6125
939.07433	7738.3125
942.84309	7600.4125
946.60924	7514.3125
950.37278	7476.0125
954.13371	7458.8125
957.89203	7455.2125
961.64774	7436.9125
965.40086	7421.3125
969.15137	7423.3125
972.89929	7388.0125
976.64461	7395.8125
980.38733	7383.5125
984.12747	7401.6125
987.86502	7407.4125
991.59999	7459.3125
995.33237	7526.3125
999.06217	7636.7125
1002.78939	7803.6125
1006.51404	7986.4125
1010.23611	8157.7125
1013.95561	8246.0125
1017.67255	8273.2125
1021.38692	8134.9125
1025.09872	7969.1125
1028.80796	7781.9125
1032.51465	7710.8125
1036.21877	7715.0125
1039.92035	7754.3125
1043.61937	7822.1125
1047.31584	7841.8125
1051.00976	7870.6125
1054.70114	7899.2125
1058.38998	7885.1125
1062.07627	7932.9125
1065.76003	7982.3125
1069.44126	8074.2125
1073.11995	8229.1125
1076.79611	8397.3125
1080.46974	8539.5125
1084.14085	8681.2125
1087.80943	8862.6125
1091.47549	8944.8125
1095.13903	8851.3125
1098.80005	8647.7125
1102.45857	8414.3125
1106.11456	8325.5125
1109.76805	8305.7125
1113.41903	8421.8125
1117.06751	8610.4125
1120.71348	8869.0125
1124.35696	9153.2125
1127.99793	9390.5125
1131.63641	9398.5125
1135.2724	9115.1125
1138.90589	8879.2125
1142.5369	8718.7125
1146.16542	8630.5125
1149.79145	8593.8125
1153.415	8594.0125
1157.03607	8648.2125
1160.65467	8785.5125
1164.27079	9076.5125
1167.88443	9537.0125
1171.49561	10279.4125
1175.10432	11357.5125
1178.71056	12752.4125
1182.31434	13951.7125
1185.91565	14258.5125
1189.51451	13870.6125
1193.11091	13175.2125
1196.70485	12372.3125
1200.29634	11668.7125
1203.88538	11031.9125
1207.47197	10422.2125
1211.05612	9929.5125
1214.63782	9647.0125
1218.21708	9553.5125
1221.79391	9584.2125
1225.36829	9644.7125
1228.94024	9620.9125
1232.50976	9468.4125
1236.07685	9288.4125
1239.6415	9215.4125
1243.20374	9175.6125
1246.76355	9235.2125
1250.32093	9275.8125
1253.8759	9405.1125
1257.42845	9667.3125
1260.97859	9988.3125
1264.52631	10343.9125
1268.07163	10678.3125
1271.61453	10972.4125
1275.15503	11220.0125
1278.69312	11401.5125
1282.22882	11656.3125
1285.76211	12057.0125
1289.29301	12567.6125
1292.82151	13108.6125
1296.34761	13699.9125
1299.87133	14499.7125
1303.39266	15592.7125
1306.9116	17022.4125
1310.42815	18457.0125
1313.94233	19173.4125
1317.45412	18616.5125
1320.96354	17439.1125
1324.47058	16204.5125
1327.97525	15084.5125
1331.47754	14320.1125
1334.97747	13901.6125
1338.47502	13820.8125
1341.97022	13995.1125
1345.46305	14390.2125
1348.95352	15102.7125
1352.44163	16121.1125
1355.92738	17618.1125
1359.41078	19702.6125
1362.89183	21685.9125
1366.37053	21413.9125
1369.84688	18498.9125
1373.32088	15314.9125
1376.79254	13357.6125
1380.26186	12479.8125
1383.72883	12005.6125
1387.19347	11579.4125
1390.65578	11117.2125
1394.11575	10867.6125
1397.57339	10756.6125
1401.0287	10761.4125
1404.48168	10767.5125
1407.93234	10742.3125
1411.38068	10622.9125
1414.82669	10539.7125
1418.27039	10424.7125
1421.71177	10220.1125
1425.15083	9971.9125
1428.58758	9880.1125
1432.02203	9928.2125
1435.45416	10122.7125
1438.88399	10261.8125
1442.31151	10350.5125
1445.73673	10393.4125
1449.15965	10436.5125
1452.58027	10385.1125
1455.9986	10329.0125
1459.41463	10285.0125
1462.82837	10430.9125
1466.23982	10746.7125
1469.64898	11102.9125
1473.05586	11394.7125
1476.46045	11614.5125
1479.86276	11864.7125
1483.26279	12060.7125
1486.66054	12327.2125
1490.05602	12768.8125
1493.44922	13367.9125
1496.84016	14128.1125
1500.22882	15215.6125
1503.61521	16674.1125
1506.99934	18228.5125
1510.38121	19302.0125
1513.76081	19265.6125
1517.13816	17855.4125
1520.51324	15850.4125
1523.88607	14163.2125
1527.25665	13108.1125
1530.62498	12531.5125
1533.99105	12181.7125
1537.35488	11841.8125
1540.71647	11505.8125
1544.07581	11192.3125
1547.4329	10932.3125
1550.78776	10744.0125
1554.14038	10648.5125
1557.49077	10633.5125
1560.83892	10773.4125
1564.18484	11050.5125
1567.52853	11441.0125
1570.86999	11807.8125
1574.20922	12048.5125
1577.54624	12026.0125
1580.88103	11508.2125
1584.2136	10852.0125
1587.54395	10564.7125
1590.87208	10809.5125
1594.19801	11487.8125
1597.52172	12386.6125
1600.84321	12779.9125
1604.16251	12404.3125
1607.47959	11533.1125
1610.79447	10635.4125
1614.10715	9767.1125
1617.41763	9094.8125
1620.7259	8660.4125
1624.03199	8423.2125
1627.33587	8425.8125
1630.63757	8616.7125
1633.93707	9102.6125
1637.23439	9988.2125
1640.52951	11505.4125
1643.82246	13617.5125
1647.11321	15754.2125
1650.40179	16724.5125
1653.68819	15697.7125
1656.97241	13360.2125
1660.25446	11009.0125
1663.53433	9298.0125
1666.81203	8365.4125
1670.08756	7786.5125
1673.36092	7457.8125
1676.63211	7227.3125
1679.90115	7076.9125
1683.16801	6944.0125
1686.43272	6852.3125
1689.69527	6771.2125
1692.95567	6726.8125
1696.2139	6690.9125
1699.46999	6668.6125
1702.72392	6639.7125
1705.97571	6620.6125
1709.22535	6592.6125
1712.47284	6576.7125
1715.71819	6566.3125
1718.96139	6521.3125
1722.20246	6498.8125
1725.44139	6475.1125
1728.67818	6428.7125
1731.91284	6372.3125
1735.14537	6329.9125
1738.37576	6283.4125
1741.60403	6251.8125
1744.83017	6217.4125
1748.05418	6215.0125
1751.27607	6194.3125
1754.49584	6173.3125
1757.71349	6168.2125
1760.92903	6169.7125
1764.14244	6153.1125
1767.35375	6147.3125
1770.56294	6137.0125
1773.77002	6090.0125
1776.97499	6043.5125
1780.17785	6043.0125
1783.37861	6015.5125
1786.57727	6006.8125
1789.77382	6003.0125
1792.96828	5984.3125
1796.16064	5957.5125
1799.3509	5963.5125
1802.53907	5924.1125
1805.72514	5912.6125
1808.90913	5881.8125
1812.09102	5874.1125
1815.27083	5854.2125
1818.44856	5832.5125
1821.6242	5832.3125
1824.79776	5810.7125
1827.96924	5812.4125
1831.13864	5798.9125
1834.30597	5792.1125
1837.47122	5782.7125
1840.6344	5766.1125
1843.7955	5764.9125
1846.95454	5738.2125
1850.11151	5735.3125
1853.26642	5713.6125
1856.41926	5717.8125
1859.57004	5733.4125
1862.71876	5710.0125
1865.86542	5724.2125
1869.01003	5710.3125
1872.15258	5701.7125
1875.29308	5690.9125
1878.43152	5696.3125
1881.56792	5692.3125
1884.70227	5675.2125
1887.83457	5672.1125
1890.96482	5655.2125
1894.09304	5662.4125
1897.21921	5632.4125
1900.34335	5633.3125
1903.46544	5616.3125
1906.58551	5618.1125
1909.70353	5605.4125
1912.81953	5605.8125
1915.93349	5586.1125
1919.04543	5578.6125
1922.15534	5582.5125
1925.26322	5558.3125
1928.36908	5533.4125
1931.47292	5532.8125
1934.57473	5529.7125
1937.67453	5490.4125
1940.77232	5464.0125
1943.86808	5426.0125
1946.96184	5425.5125
1950.05358	5409.7125
1953.14331	5398.5125
1956.23103	5363.3125
1959.31675	5376.7125
1962.40046	5335.6125
1965.48217	5335.0125
1968.56188	5326.5125
1971.63959	5308.6125
1974.7153	5279.7125
1977.78901	5288.3125
1980.86073	5252.9125
1983.93046	5230.8125
1986.99819	5192.6125
1990.06394	5165.6125
1993.1277	5169.5125
1996.18947	5143.6125
1999.24925	5142.9125
2002.30706	5120.9125
2005.36288	5110.6125
2008.41672	5074.7125
2011.46859	5073.7125
2014.51848	5048.2125
2017.56639	5025.0125
2020.61233	5008.6125
2023.6563	4999.4125
2026.6983	4976.5125
2029.73833	4979.2125
2032.7764	4958.0125
2035.8125	4932.8125
2038.84664	4953.1125
2041.87881	4925.5125
2044.90903	4925.8125
2047.93729	4920.1125
2050.96359	4898.9125
2053.98794	4892.5125
2057.01034	4885.3125
2060.03078	4867.3125
2063.04927	4855.5125
2066.06582	4872.2125
2069.08042	4861.8125
2072.09307	4860.9125
2075.10378	4864.2125
2078.11255	4859.1125
2081.11938	4844.5125
2084.12426	4823.8125
2087.12722	4845.0125
2090.12824	4839.2125
2093.12732	4849.9125
2096.12447	4852.3125
2099.11969	4831.4125
2102.11299	4833.6125
2105.10435	4843.0125
2108.09379	4847.4125
2111.08131	4833.1125
2114.0669	4831.9125
2117.05057	4830.6125
2120.03233	4844.9125
2123.01216	4853.2125
2125.99008	4845.0125
2128.96609	4835.2125
2131.94018	4861.7125
2134.91236	4854.7125
2137.88263	4836.3125
2140.851	4838.5125
2143.81746	4852.2125
2146.78201	4825.4125
2149.74466	4824.4125
2152.7054	4825.2125
2155.66425	4825.8125
2158.6212	4810.6125
2161.57625	4819.3125
2164.52941	4810.0125
2167.48067	4798.7125
2170.43004	4783.0125
2173.37752	4789.5125
2176.32311	4791.3125
2179.26681	4793.6125
2182.20863	4804.9125
2185.14856	4777.8125
2188.08661	4766.1125
2191.02278	4773.4125
2193.95707	4774.5125
2196.88948	4774.5125
2199.82001	4780.2125
2202.74867	4768.2125
2205.67545	4763.8125
2208.60037	4752.3125
2211.52341	4726.8125
2214.44458	4707.4125
2217.36388	4703.4125
2220.28132	4707.5125
2223.1969	4684.0125
2226.11061	4674.2125
2229.02246	4660.9125
2231.93245	4675.3125
2234.84058	4669.1125
2237.74686	4666.3125
2240.65128	4650.1125
2243.55385	4641.1125
2246.45456	4645.3125
2249.35343	4636.3125
2252.25044	4613.4125
2255.14561	4618.2125
2258.03893	4609.2125
2260.93041	4613.9125
2263.82004	4590.5125
2266.70783	4569.2125
2269.59378	4567.4125
2272.4779	4558.5125
2275.36017	4556.2125
2278.24061	4534.9125
2281.11922	4526.1125
2283.996	4513.2125
2286.87094	4496.4125
2289.74405	4479.9125
2292.61534	4487.4125
2295.4848	4468.3125
2298.35243	4475.7125
2301.21824	4467.2125
2304.08223	4459.3125
2306.94439	4471.2125
2309.80474	4449.3125
2312.66327	4440.2125
2315.51999	4443.5125
2318.37489	4446.1125
2321.22797	4421.8125
2324.07925	4424.4125
2326.92871	4408.8125
2329.77637	4429.2125
2332.62222	4409.8125
2335.46626	4391.7125
2338.3085	4379.5125
2341.14893	4391.1125
2343.98756	4380.7125
2346.8244	4388.3125
2349.65943	4389.9125
2352.49267	4375.0125
2355.32411	4388.7125
2358.15376	4397.0125
2360.98161	4398.8125
2363.80768	4392.2125
2366.63195	4405.2125
2369.45444	4410.1125
2372.27514	4398.6125
2375.09405	4388.3125
2377.91118	4382.7125
2380.72652	4358.5125
2383.54009	4347.6125
2386.35187	4338.8125
2389.16188	4323.6125
2391.97011	4304.4125
2394.77657	4287.4125
2397.58125	4271.1125
2400.38416	4278.0125
2403.18529	4252.6125
2405.98466	4242.9125
2408.78226	4242.0125
2411.57809	4230.5125
2414.37216	4220.1125
2417.16446	4225.1125
2419.955	4217.6125
2422.74378	4214.5125
2425.5308	4206.0125
2428.31606	4212.9125
2431.09956	4216.5125
2433.88131	4203.5125
2436.6613	4203.0125
2439.43954	4208.8125
2442.21603	4214.1125
2444.99077	4208.6125
2447.76377	4203.3125
2450.53501	4212.8125
2453.30451	4205.2125
2456.07226	4199.1125
2458.83827	4182.8125
2461.60254	4187.0125
2464.36507	4192.7125
2467.12586	4186.2125
2469.88492	4179.5125
2472.64224	4182.0125
2475.39782	4186.6125
2478.15167	4190.4125
2480.90379	4184.2125
2483.65417	4192.6125
2486.40283	4210.0125
2489.14976	4195.2125
2491.89497	4211.7125
2494.63845	4198.7125
2497.3802	4204.2125
2500.12024	4191.4125
2502.85855	4191.3125
2505.59514	4164.5125
2508.33002	4127.9125
2511.06318	4142.4125
2513.79462	4139.9125
2516.52435	4121.9125
2519.25237	4106.0125
2521.97867	4108.7125
2524.70327	4088.6125
2527.42616	4084.0125
2530.14734	4097.0125
2532.86681	4080.1125
2535.58458	4076.4125
2538.30065	4074.6125
2541.01501	4072.5125
2543.72768	4069.4125
2546.43864	4054.5125
2549.14791	4061.2125
2551.85548	4066.4125
2554.56136	4046.1125
2557.26554	4042.3125
2559.96803	4047.6125
2562.66883	4041.4125
2565.36794	4026.7125
2568.06536	4030.0125
2570.7611	4016.0125
2573.45514	4007.2125
2576.14751	4012.9125
2578.83819	3998.2125
2581.52719	3993.8125
2584.21451	3985.2125
2586.90015	3976.8125
2589.58411	3977.4125
2592.2664	3979.3125
2594.94701	3977.2125
2597.62594	3951.8125
2600.30321	3950.9125
2602.9788	3962.1125
2605.65273	3958.0125
2608.32498	3949.2125
2610.99557	3945.4125
2613.66449	3937.4125
2616.33175	3925.5125
2618.99734	3916.5125
2621.66128	3919.4125
2624.32355	3912.3125
2626.98416	3910.3125
2629.64311	3896.2125
2632.30041	3896.6125
2634.95605	3891.1125
2637.61004	3870.8125
2640.26238	3869.7125
2642.91306	3881.4125
2645.56209	3888.7125
2648.20948	3868.8125
2650.85521	3875.7125
2653.4993	3871.2125
2656.14175	3886.0125
2658.78255	3885.3125
2661.42171	3889.0125
2664.05923	3901.3125
2666.6951	3897.2125
2669.32934	3898.9125
2671.96194	3893.7125
2674.59291	3907.1125
2677.22224	3900.2125
2679.84993	3894.2125
2682.476	3885.5125
2685.10043	3883.5125
2687.72324	3882.4125
2690.34441	3874.1125
2692.96396	3884.4125
2695.58188	3883.4125
2698.19818	3864.6125
2700.81285	3851.5125
2703.4259	3878.5125
2706.03733	3898.1125
2708.64714	3882.8125
2711.25533	3885.6125
2713.86191	3869.3125
2716.46687	3878.1125
2719.07021	3884.0125
2721.67194	3881.7125
2724.27206	3881.4125
2726.87057	3885.2125
2729.46747	3896.6125
2732.06276	3887.5125
2734.65644	3872.7125
2737.24852	3879.0125
2739.83899	3854.7125
2742.42786	3850.8125
2745.01513	3843.9125
2747.60079	3851.8125
2750.18486	3833.9125
2752.76733	3827.2125
2755.3482	3829.2125
2757.92747	3818.9125
2760.50515	3811.4125
2763.08123	3820.9125
2765.65573	3809.0125
2768.22863	3817.8125
2770.79994	3807.6125
2773.36967	3808.1125
2775.9378	3790.1125
2778.50435	3804.2125
2781.06932	3790.7125
2783.6327	3772.0125
2786.1945	3776.1125
2788.75471	3787.4125
2791.31335	3792.3125
2793.87041	3775.7125
2796.42589	3762.4125
2798.97979	3764.9125
2801.53212	3756.4125
2804.08288	3757.0125
2806.63206	3752.1125
2809.17967	3734.9125
2811.72571	3737.7125
2814.27018	3745.2125
2816.81308	3747.1125
2819.35442	3739.7125
2821.89419	3718.3125
2824.43239	3724.8125
2826.96904	3719.7125
2829.50412	3734.9125
2832.03763	3718.7125
2834.56959	3709.8125
2837.1	3700.3125
2839.62884	3707.1125
2842.15613	3714.0125
2844.68186	3725.8125
2847.20604	3730.2125
2849.72867	3744.5125
2852.24974	3734.0125
2854.76927	3732.6125
2857.28724	3721.2125
2859.80367	3702.3125
2862.31855	3713.7125
2864.83189	3713.2125
2867.34368	3705.4125
2869.85393	3710.8125
2872.36264	3709.6125
2874.8698	3706.9125
2877.37543	3708.7125
2879.87952	3692.1125
2882.38207	3686.8125
2884.88308	3700.4125
2887.38256	3691.4125
2889.88051	3680.3125
2892.37692	3669.3125
2894.8718	3672.4125
2897.36515	3684.2125
2899.85698	3689.5125
2902.34727	3681.4125
2904.83604	3676.6125
2907.32328	3699.3125
2909.809	3708.3125
2912.29319	3701.0125
2914.77587	3709.0125
2917.25702	3700.8125
2919.73665	3708.0125
2922.21476	3699.2125
2924.69136	3696.4125
2927.16644	3686.8125
2929.64	3685.1125
2932.11205	3672.3125
2934.58258	3650.3125
2937.05161	3636.6125
2939.51912	3645.5125
2941.98513	3652.0125
2944.44962	3649.1125
2946.91261	3636.2125
2949.37409	3613.8125
2951.83407	3622.0125
2954.29254	3624.5125
2956.74951	3631.4125
2959.20498	3616.5125
2961.65895	3614.4125
2964.11142	3617.0125
2966.56239	3624.7125
2969.01186	3613.3125
2971.45984	3595.7125
2973.90632	3582.1125
2976.35131	3590.5125
2978.7948	3572.8125
2981.23681	3553.5125
2983.67732	3547.3125
2986.11635	3540.4125
2988.55388	3531.2125
2990.98993	3535.3125
2993.4245	3514.3125
2995.85758	3520.8125
2998.28917	3527.1125
3000.71928	3508.3125
3003.14791	3499.0125
3005.57506	3501.2125
3008.00073	3476.0125
3010.42493	3492.1125
3012.84764	3481.0125
3015.26888	3479.0125
3017.68865	3479.4125
3020.10694	3471.5125
3022.52376	3463.9125
3024.9391	3461.4125
3027.35298	3457.0125
3029.76539	3449.3125
3032.17632	3433.1125
3034.5858	3417.2125
3036.9938	3440.9125
3039.40034	3407.1125
3041.80542	3417.8125
3044.20903	3420.6125
3046.61118	3438.0125
3049.01187	3408.7125
3051.4111	3410.7125
3053.80888	3404.9125
3056.20519	3382.0125
3058.60005	3375.0125
3060.99345	3397.9125
3063.3854	3373.8125
3065.7759	3365.8125
3068.16494	3364.4125
3070.55254	3346.9125
3072.93868	3361.5125
3075.32338	3352.6125
3077.70662	3351.8125
3080.08842	3342.5125
3082.46878	3322.8125
3084.84769	3322.3125
3087.22515	3327.3125
3089.60118	3333.2125
3091.97576	3323.2125
3094.3489	3335.6125
3096.72061	3323.0125
3099.09087	3338.2125
3101.4597	3325.6125
3103.82709	3328.7125
3106.19305	3327.0125
3108.55757	3335.2125
3110.92066	3317.3125
3113.28232	3312.0125
3115.64255	3301.1125
3118.00134	3311.7125
3120.35871	3295.1125
3122.71466	3305.4125
3125.06917	3294.4125
3127.42226	3294.1125
3129.77393	3284.9125
3132.12417	3301.3125
3134.47299	3283.2125
3136.82039	3293.4125
3139.16636	3301.4125
3141.51092	3293.9125
3143.85406	3305.8125
3146.19579	3300.0125
3148.53609	3313.6125
3150.87499	3325.9125
3153.21246	3325.5125
3155.54853	3320.9125
3157.88318	3327.0125
3160.21642	3334.0125
3162.54826	3315.9125
3164.87868	3327.5125
3167.2077	3316.7125
3169.5353	3327.7125
3171.86151	3337.9125
3174.18631	3321.2125
3176.5097	3345.3125
3178.83169	3332.0125
3181.15228	3313.2125
3183.47147	3322.4125
3185.78926	3327.6125
3188.10565	3316.9125
3190.42065	3317.4125
3192.73424	3321.2125
3195.04645	3321.3125
3197.35725	3323.4125
3199.66667	3324.2125
3201.97469	3319.9125
3204.28132	3329.7125
3206.58656	3334.6125
3208.8904	3340.2125
3211.19287	3339.8125
3213.49394	3344.2125
3215.79363	3341.9125
3218.09193	3349.4125
3220.38884	3358.2125
3222.68438	3357.9125
3224.97853	3351.9125
3227.2713	3349.2125
3229.56269	3350.0125
3231.8527	3351.9125
3234.14133	3330.6125
3236.42858	3333.9125
3238.71446	3337.8125
3240.99896	3328.5125
3243.28209	3321.8125
3245.56384	3328.8125
3247.84423	3312.7125
3250.12324	3302.5125
3252.40088	3296.2125
3254.67715	3312.3125
3256.95205	3311.7125
3259.22558	3303.8125
3261.49775	3310.8125
3263.76855	3293.7125
3266.03799	3275.4125
3268.30606	3303.4125
3270.57277	3279.7125
3272.83812	3264.7125
3275.10211	3281.5125
3277.36474	3271.3125
3279.62601	3272.5125
3281.88593	3265.5125
3284.14448	3262.4125
3286.40168	3266.8125
3288.65753	3266.0125
3290.91202	3261.8125
3293.16516	3252.8125
3295.41695	3241.6125
3297.66738	3242.9125
3299.91647	3235.2125
3302.16421	3207.0125
3304.4106	3192.2125
3306.65564	3176.1125
3308.89933	3151.7125
3311.14169	3131.8125
3313.38269	3109.1125
3315.62236	3091.6125
3317.86068	3074.4125
3320.09766	3035.4125
3322.3333	3028.9125
3324.5676	3021.6125
3326.80056	2974.7125
3329.03219	2959.8125
3331.26248	1.5125
3333.49143	-0.7875
3335.71905	0.4125
