Data from AgNP_FTO_APTES_UA_100uM_CRN_1uM_R6G_10uM_NaF_0.1M_Addition_RamanShift__8__11-57-30-163.txt Node

Date: Thu Mar 24 11:57:30 GMT 2022
User: TCL
Spectrometer: QEP01345
Trigger mode: 4
Integration Time (sec): 7.000000E0
Scans to average: 10
Electric dark correction enabled: true
Nonlinearity correction enabled: false
Boxcar width: 0
XAxis mode: Raman Shifts
Number of Pixels in Spectrum: 1044
>>>>>Begin Spectral Data<<<<<
46.04893	-0.6125
50.45542	0.4875
54.85868	-0.1125
59.25871	-0.0125
63.6555	52.6875
68.04907	51.1875
72.43941	51.1875
76.82654	52.9875
81.21044	56.6875
85.59113	59.9875
89.96862	62.8875
94.34289	60.8875
98.71396	69.1875
103.08183	64.1875
107.4465	68.7875
111.80798	72.7875
116.16626	71.4875
120.52136	74.9875
124.87327	78.3875
129.222	81.0875
133.56755	86.9875
137.90993	91.3875
142.24913	106.0875
146.58517	116.5875
150.91804	136.7875
155.24774	167.7875
159.57429	206.2875
163.89768	271.2875
168.21792	366.3875
172.53501	496.0875
176.84895	693.5875
181.15975	973.8875
185.46741	1372.6875
189.77193	1888.2875
194.07331	2541.8875
198.37157	3271.5875
202.6667	4049.4875
206.9587	4837.6875
211.24758	5590.9875
215.53334	6381.5875
219.81599	7233.7875
224.09553	8184.1875
228.37195	9237.1875
232.64527	10412.4875
236.91549	11606.0875
241.18261	12778.2875
245.44663	13768.8875
249.70755	14580.0875
253.96539	15217.7875
258.22014	15768.1875
262.4718	16184.5875
266.72039	16473.3875
270.96589	16572.3875
275.20832	16545.7875
279.44768	16402.9875
283.68397	16285.6875
287.91719	16123.7875
292.14735	16064.3875
296.37445	16124.0875
300.59849	16243.2875
304.81948	16498.0875
309.03742	16716.5875
313.25231	16754.1875
317.46415	16595.5875
321.67296	16232.8875
325.87872	15945.2875
330.08145	15778.2875
334.28114	15711.4875
338.47781	15811.9875
342.67145	16031.1875
346.86207	16341.5875
351.04966	16757.4875
355.23424	17125.1875
359.4158	17376.1875
363.59435	17525.1875
367.76989	17482.1875
371.94243	17459.6875
376.11196	17465.9875
380.27849	17485.3875
384.44203	17548.1875
388.60257	17673.8875
392.76012	17819.5875
396.91468	17987.4875
401.06626	18250.4875
405.21485	18393.1875
409.36047	18169.7875
413.50311	17684.3875
417.64277	17312.0875
421.77947	17236.6875
425.9132	17357.8875
430.04396	17474.0875
434.17176	17575.7875
438.2966	17797.1875
442.41849	18344.7875
446.53742	19108.6875
450.6534	19922.8875
454.76644	20389.5875
458.87653	20408.1875
462.98368	20106.3875
467.08789	19748.1875
471.18916	19302.2875
475.2875	18833.7875
479.38291	18466.1875
483.4754	18211.7875
487.56496	17902.1875
491.6516	17590.7875
495.73531	17287.4875
499.81612	17099.6875
503.89401	17168.5875
507.96899	17255.3875
512.04106	17206.8875
516.11023	17112.5875
520.1765	16958.2875
524.23987	16940.4875
528.30034	16983.7875
532.35792	16915.2875
536.41261	16629.5875
540.46441	16243.6875
544.51333	16076.3875
548.55936	16204.3875
552.60252	16635.7875
556.64279	17295.4875
560.6802	17872.8875
564.71473	18200.5875
568.7464	18660.4875
572.7752	19577.1875
576.80114	20417.9875
580.82422	21037.9875
584.84444	21870.7875
588.86181	23509.1875
592.87633	25626.9875
596.888	26585.5875
600.89682	24954.4875
604.9028	23374.0875
608.90594	24524.6875
612.90624	26596.2875
616.90371	24666.3875
620.89834	19579.5875
624.89015	17182.5875
628.87913	16832.3875
632.86528	17071.1875
636.84862	17132.5875
640.82913	16686.7875
644.80683	16001.6875
648.78172	15552.9875
652.75379	15509.8875
656.72306	15851.7875
660.68952	16326.3875
664.65319	16184.6875
668.61405	15639.7875
672.57211	15511.7875
676.52738	15626.7875
680.47986	15605.9875
684.42955	15390.1875
688.37646	15261.3875
692.32058	15344.1875
696.26192	15648.3875
700.20048	15995.8875
704.13626	16245.3875
708.06928	16306.6875
711.99952	16220.6875
715.927	16229.4875
719.85171	16294.9875
723.77365	16162.3875
727.69284	15906.3875
731.60928	15680.6875
735.52295	15677.8875
739.43388	15800.6875
743.34206	15927.8875
747.24749	16057.1875
751.15017	16290.3875
755.05012	16623.2875
758.94733	17250.9875
762.8418	18602.4875
766.73354	20861.6875
770.62254	22947.1875
774.50882	23226.2875
778.39237	21770.1875
782.27321	19694.0875
786.15132	17991.7875
790.02671	16771.5875
793.89938	16104.9875
797.76935	15770.2875
801.6366	15583.7875
805.50115	15466.9875
809.36299	15347.9875
813.22213	15232.9875
817.07857	15151.7875
820.93231	15074.8875
824.78336	15005.2875
828.63172	14954.8875
832.47738	14916.3875
836.32036	14904.2875
840.16066	14914.5875
843.99827	14903.3875
847.8332	14914.1875
851.66546	14934.1875
855.49504	14995.1875
859.32195	14967.8875
863.1462	14898.4875
866.96777	14822.3875
870.78668	14777.3875
874.60293	14796.4875
878.41652	14854.0875
882.22745	14977.3875
886.03573	15033.9875
889.84136	15042.8875
893.64433	14970.0875
897.44466	14932.4875
901.24235	14864.3875
905.0374	14750.6875
908.8298	14700.6875
912.61957	14658.5875
916.40671	14766.5875
920.19121	15057.8875
923.97308	15383.5875
927.75233	15499.5875
931.52895	15320.3875
935.30295	14918.7875
939.07433	14451.5875
942.84309	14171.0875
946.60924	14018.3875
950.37278	13960.3875
954.13371	13989.1875
957.89203	14020.6875
961.64774	13993.6875
965.40086	14022.3875
969.15137	14044.8875
972.89929	13971.7875
976.64461	13939.0875
980.38733	13889.2875
984.12747	13887.5875
987.86502	13974.3875
991.59999	14085.3875
995.33237	14279.1875
999.06217	14653.5875
1002.78939	15183.0875
1006.51404	15799.9875
1010.23611	16283.3875
1013.95561	16578.0875
1017.67255	16589.4875
1021.38692	16207.7875
1025.09872	15606.2875
1028.80796	15108.7875
1032.51465	14932.5875
1036.21877	14999.3875
1039.92035	15067.5875
1043.61937	15170.5875
1047.31584	15197.4875
1051.00976	15298.9875
1054.70114	15307.4875
1058.38998	15365.8875
1062.07627	15504.1875
1065.76003	15711.4875
1069.44126	15993.3875
1073.11995	16394.0875
1076.79611	16754.7875
1080.46974	17022.1875
1084.14085	17339.0875
1087.80943	17723.1875
1091.47549	17943.5875
1095.13903	17879.8875
1098.80005	17438.0875
1102.45857	16843.9875
1106.11456	16513.8875
1109.76805	16389.3875
1113.41903	16506.0875
1117.06751	16779.7875
1120.71348	17157.3875
1124.35696	17573.6875
1127.99793	17927.5875
1131.63641	18001.3875
1135.2724	17850.4875
1138.90589	17601.7875
1142.5369	17609.2875
1146.16542	17781.9875
1149.79145	18068.6875
1153.415	18333.3875
1157.03607	18623.4875
1160.65467	19054.0875
1164.27079	19913.8875
1167.88443	21243.8875
1171.49561	23150.7875
1175.10432	25790.2875
1178.71056	29053.7875
1182.31434	31908.5875
1185.91565	32835.5875
1189.51451	31863.0875
1193.11091	30286.3875
1196.70485	28509.6875
1200.29634	26755.9875
1203.88538	25301.4875
1207.47197	24274.8875
1211.05612	23583.0875
1214.63782	23105.9875
1218.21708	22830.7875
1221.79391	22814.7875
1225.36829	22995.6875
1228.94024	22985.4875
1232.50976	22334.2875
1236.07685	21465.0875
1239.6415	20756.9875
1243.20374	20458.1875
1246.76355	20437.7875
1250.32093	20684.2875
1253.8759	21118.1875
1257.42845	21850.0875
1260.97859	22742.9875
1264.52631	23796.4875
1268.07163	24752.9875
1271.61453	25644.8875
1275.15503	26505.0875
1278.69312	27424.0875
1282.22882	28612.5875
1285.76211	30209.1875
1289.29301	32121.6875
1292.82151	34281.1875
1296.34761	36634.4875
1299.87133	39435.2875
1303.39266	42467.6875
1306.9116	45369.5875
1310.42815	47987.2875
1313.94233	49224.0875
1317.45412	48301.5875
1320.96354	46006.5875
1324.47058	43736.1875
1327.97525	41756.8875
1331.47754	40280.1875
1334.97747	39237.9875
1338.47502	38457.3875
1341.97022	38051.1875
1345.46305	37975.5875
1348.95352	38190.3875
1352.44163	39205.0875
1355.92738	41401.3875
1359.41078	44905.3875
1362.89183	48241.3875
1366.37053	48242.5875
1369.84688	43536.8875
1373.32088	37198.9875
1376.79254	33030.9875
1380.26186	31336.4875
1383.72883	30918.2875
1387.19347	30562.1875
1390.65578	30037.8875
1394.11575	29817.9875
1397.57339	30027.4875
1401.0287	30304.4875
1404.48168	30320.1875
1407.93234	29940.7875
1411.38068	29138.6875
1414.82669	28149.8875
1418.27039	27079.2875
1421.71177	25989.6875
1425.15083	25067.4875
1428.58758	24629.5875
1432.02203	24904.5875
1435.45416	25615.5875
1438.88399	26233.2875
1442.31151	26585.0875
1445.73673	26868.5875
1449.15965	27145.4875
1452.58027	27120.7875
1455.9986	27016.8875
1459.41463	27196.6875
1462.82837	27728.4875
1466.23982	28561.5875
1469.64898	29329.6875
1473.05586	29877.6875
1476.46045	30260.7875
1479.86276	30445.3875
1483.26279	30467.3875
1486.66054	30794.7875
1490.05602	31397.1875
1493.44922	32314.7875
1496.84016	33254.7875
1500.22882	34217.2875
1503.61521	35524.0875
1506.99934	36912.5875
1510.38121	37779.8875
1513.76081	37527.8875
1517.13816	36091.9875
1520.51324	34159.9875
1523.88607	32848.0875
1527.25665	32385.4875
1530.62498	32255.5875
1533.99105	32072.2875
1537.35488	31355.5875
1540.71647	30196.7875
1544.07581	28884.0875
1547.4329	27597.0875
1550.78776	26589.2875
1554.14038	25876.4875
1557.49077	25635.4875
1560.83892	25646.9875
1564.18484	25965.4875
1567.52853	26437.3875
1570.86999	27023.9875
1574.20922	27685.6875
1577.54624	27913.3875
1580.88103	27562.9875
1584.2136	27160.7875
1587.54395	27714.5875
1590.87208	29340.8875
1594.19801	31741.1875
1597.52172	34236.8875
1600.84321	35000.3875
1604.16251	33191.1875
1607.47959	29849.3875
1610.79447	26343.3875
1614.10715	23347.2875
1617.41763	21114.0875
1620.7259	19770.0875
1624.03199	19126.2875
1627.33587	19197.7875
1630.63757	19996.9875
1633.93707	21810.5875
1637.23439	25119.8875
1640.52951	30357.5875
1643.82246	36966.3875
1647.11321	42486.9875
1650.40179	43642.8875
1653.68819	39444.0875
1656.97241	32366.5875
1660.25446	25769.9875
1663.53433	21177.3875
1666.81203	18360.8875
1670.08756	16732.5875
1673.36092	15731.8875
1676.63211	15110.2875
1679.90115	14650.5875
1683.16801	14342.9875
1686.43272	14110.9875
1689.69527	13924.2875
1692.95567	13781.0875
1696.2139	13641.0875
1699.46999	13547.1875
1702.72392	13499.0875
1705.97571	13456.4875
1709.22535	13395.9875
1712.47284	13374.0875
1715.71819	13381.4875
1718.96139	13300.1875
1722.20246	13244.4875
1725.44139	13195.7875
1728.67818	13060.8875
1731.91284	12927.3875
1735.14537	12848.8875
1738.37576	12747.8875
1741.60403	12688.2875
1744.83017	12595.1875
1748.05418	12591.4875
1751.27607	12525.2875
1754.49584	12459.0875
1757.71349	12461.9875
1760.92903	12418.1875
1764.14244	12430.0875
1767.35375	12418.0875
1770.56294	12387.3875
1773.77002	12350.0875
1776.97499	12302.4875
1780.17785	12282.5875
1783.37861	12248.8875
1786.57727	12224.2875
1789.77382	12156.2875
1792.96828	12200.2875
1796.16064	12123.8875
1799.3509	12090.5875
1802.53907	12037.6875
1805.72514	12017.0875
1808.90913	11968.0875
1812.09102	11950.2875
1815.27083	11930.1875
1818.44856	11914.9875
1821.6242	11868.0875
1824.79776	11860.6875
1827.96924	11836.2875
1831.13864	11832.6875
1834.30597	11823.2875
1837.47122	11841.6875
1840.6344	11809.4875
1843.7955	11813.1875
1846.95454	11802.8875
1850.11151	11756.4875
1853.26642	11777.7875
1856.41926	11773.2875
1859.57004	11772.1875
1862.71876	11775.3875
1865.86542	11761.4875
1869.01003	11724.2875
1872.15258	11710.8875
1875.29308	11717.5875
1878.43152	11690.1875
1881.56792	11699.3875
1884.70227	11665.5875
1887.83457	11685.2875
1890.96482	11686.2875
1894.09304	11664.8875
1897.21921	11645.0875
1900.34335	11658.0875
1903.46544	11637.2875
1906.58551	11642.4875
1909.70353	11632.7875
1912.81953	11569.0875
1915.93349	11565.3875
1919.04543	11529.5875
1922.15534	11487.6875
1925.26322	11451.2875
1928.36908	11426.4875
1931.47292	11368.7875
1934.57473	11345.8875
1937.67453	11327.1875
1940.77232	11269.1875
1943.86808	11258.8875
1946.96184	11232.6875
1950.05358	11181.1875
1953.14331	11151.6875
1956.23103	11150.7875
1959.31675	11111.6875
1962.40046	11072.7875
1965.48217	11065.9875
1968.56188	11030.6875
1971.63959	10958.4875
1974.7153	10910.1875
1977.78901	10864.1875
1980.86073	10838.1875
1983.93046	10842.0875
1986.99819	10768.9875
1990.06394	10739.1875
1993.1277	10708.6875
1996.18947	10664.2875
1999.24925	10615.5875
2002.30706	10585.7875
2005.36288	10542.6875
2008.41672	10504.0875
2011.46859	10496.6875
2014.51848	10448.9875
2017.56639	10419.5875
2020.61233	10391.4875
2023.6563	10365.7875
2026.6983	10347.6875
2029.73833	10307.8875
2032.7764	10285.7875
2035.8125	10250.0875
2038.84664	10226.2875
2041.87881	10218.1875
2044.90903	10199.9875
2047.93729	10168.4875
2050.96359	10159.3875
2053.98794	10136.1875
2057.01034	10111.9875
2060.03078	10127.6875
2063.04927	10085.3875
2066.06582	10065.2875
2069.08042	10072.5875
2072.09307	10065.2875
2075.10378	10062.4875
2078.11255	10074.8875
2081.11938	10087.6875
2084.12426	10063.2875
2087.12722	10080.2875
2090.12824	10091.5875
2093.12732	10085.6875
2096.12447	10114.0875
2099.11969	10087.1875
2102.11299	10115.0875
2105.10435	10112.9875
2108.09379	10104.2875
2111.08131	10100.4875
2114.0669	10095.5875
2117.05057	10096.2875
2120.03233	10106.3875
2123.01216	10110.8875
2125.99008	10124.6875
2128.96609	10088.0875
2131.94018	10096.4875
2134.91236	10107.0875
2137.88263	10084.0875
2140.851	10103.8875
2143.81746	10096.8875
2146.78201	10079.9875
2149.74466	10077.8875
2152.7054	10077.2875
2155.66425	10063.8875
2158.6212	10050.4875
2161.57625	10012.9875
2164.52941	9992.6875
2167.48067	9991.2875
2170.43004	10006.1875
2173.37752	9971.0875
2176.32311	9973.5875
2179.26681	9966.8875
2182.20863	9978.8875
2185.14856	9961.0875
2188.08661	9951.3875
2191.02278	9951.6875
2193.95707	9916.5875
2196.88948	9892.0875
2199.82001	9898.9875
2202.74867	9873.8875
2205.67545	9875.5875
2208.60037	9857.2875
2211.52341	9821.8875
2214.44458	9816.9875
2217.36388	9802.0875
2220.28132	9797.0875
2223.1969	9752.2875
2226.11061	9742.2875
2229.02246	9731.7875
2231.93245	9729.6875
2234.84058	9732.8875
2237.74686	9706.1875
2240.65128	9708.1875
2243.55385	9693.2875
2246.45456	9670.7875
2249.35343	9655.9875
2252.25044	9618.1875
2255.14561	9574.9875
2258.03893	9590.3875
2260.93041	9581.0875
2263.82004	9525.5875
2266.70783	9492.0875
2269.59378	9496.2875
2272.4779	9451.1875
2275.36017	9427.6875
2278.24061	9428.4875
2281.11922	9407.5875
2283.996	9392.3875
2286.87094	9394.5875
2289.74405	9342.0875
2292.61534	9328.8875
2295.4848	9335.4875
2298.35243	9339.9875
2301.21824	9310.9875
2304.08223	9297.8875
2306.94439	9310.7875
2309.80474	9291.2875
2312.66327	9290.2875
2315.51999	9275.3875
2318.37489	9265.8875
2321.22797	9252.5875
2324.07925	9252.6875
2326.92871	9238.7875
2329.77637	9215.3875
2332.62222	9205.1875
2335.46626	9181.9875
2338.3085	9172.1875
2341.14893	9208.2875
2343.98756	9202.2875
2346.8244	9217.9875
2349.65943	9205.6875
2352.49267	9192.7875
2355.32411	9209.4875
2358.15376	9199.9875
2360.98161	9213.2875
2363.80768	9182.6875
2366.63195	9197.4875
2369.45444	9179.6875
2372.27514	9197.4875
2375.09405	9181.0875
2377.91118	9152.3875
2380.72652	9112.8875
2383.54009	9102.9875
2386.35187	9078.6875
2389.16188	9045.4875
2391.97011	9036.6875
2394.77657	9007.8875
2397.58125	8976.9875
2400.38416	8996.9875
2403.18529	8957.1875
2405.98466	8989.0875
2408.78226	8936.3875
2411.57809	8926.2875
2414.37216	8938.9875
2417.16446	8922.0875
2419.955	8906.8875
2422.74378	8920.6875
2425.5308	8874.0875
2428.31606	8884.5875
2431.09956	8859.9875
2433.88131	8871.9875
2436.6613	8857.7875
2439.43954	8890.1875
2442.21603	8851.8875
2444.99077	8873.8875
2447.76377	8878.2875
2450.53501	8869.5875
2453.30451	8868.1875
2456.07226	8883.3875
2458.83827	8880.3875
2461.60254	8878.9875
2464.36507	8878.2875
2467.12586	8875.2875
2469.88492	8878.7875
2472.64224	8862.0875
2475.39782	8838.4875
2478.15167	8856.5875
2480.90379	8889.8875
2483.65417	8876.2875
2486.40283	8863.6875
2489.14976	8869.6875
2491.89497	8872.0875
2494.63845	8900.8875
2497.3802	8880.7875
2500.12024	8885.6875
2502.85855	8893.1875
2505.59514	8895.7875
2508.33002	8846.0875
2511.06318	8859.7875
2513.79462	8848.0875
2516.52435	8838.2875
2519.25237	8800.5875
2521.97867	8792.9875
2524.70327	8785.1875
2527.42616	8775.4875
2530.14734	8769.9875
2532.86681	8757.1875
2535.58458	8773.8875
2538.30065	8750.9875
2541.01501	8746.3875
2543.72768	8734.5875
2546.43864	8725.5875
2549.14791	8713.7875
2551.85548	8719.2875
2554.56136	8715.5875
2557.26554	8710.6875
2559.96803	8708.5875
2562.66883	8675.8875
2565.36794	8711.9875
2568.06536	8723.3875
2570.7611	8707.2875
2573.45514	8667.4875
2576.14751	8679.6875
2578.83819	8674.5875
2581.52719	8675.1875
2584.21451	8668.8875
2586.90015	8633.8875
2589.58411	8608.8875
2592.2664	8591.1875
2594.94701	8584.1875
2597.62594	8610.8875
2600.30321	8585.7875
2602.9788	8574.3875
2605.65273	8577.6875
2608.32498	8579.3875
2610.99557	8572.7875
2613.66449	8611.3875
2616.33175	8575.5875
2618.99734	8571.2875
2621.66128	8584.2875
2624.32355	8563.6875
2626.98416	8567.5875
2629.64311	8558.4875
2632.30041	8548.6875
2634.95605	8533.1875
2637.61004	8531.2875
2640.26238	8522.0875
2642.91306	8509.3875
2645.56209	8512.9875
2648.20948	8531.3875
2650.85521	8542.1875
2653.4993	8570.0875
2656.14175	8561.1875
2658.78255	8602.2875
2661.42171	8547.0875
2664.05923	8624.8875
2666.6951	8590.9875
2669.32934	8586.3875
2671.96194	8583.6875
2674.59291	8615.2875
2677.22224	8596.2875
2679.84993	8594.4875
2682.476	8595.1875
2685.10043	8587.1875
2687.72324	8581.0875
2690.34441	8586.4875
2692.96396	8577.6875
2695.58188	8584.0875
2698.19818	8555.7875
2700.81285	8562.1875
2703.4259	8568.3875
2706.03733	8573.4875
2708.64714	8563.5875
2711.25533	8569.5875
2713.86191	8577.1875
2716.46687	8591.7875
2719.07021	8598.0875
2721.67194	8608.7875
2724.27206	8615.4875
2726.87057	8616.2875
2729.46747	8603.0875
2732.06276	8620.9875
2734.65644	8598.7875
2737.24852	8600.5875
2739.83899	8579.0875
2742.42786	8602.6875
2745.01513	8615.6875
2747.60079	8578.6875
2750.18486	8574.3875
2752.76733	8599.3875
2755.3482	8578.7875
2757.92747	8569.3875
2760.50515	8556.5875
2763.08123	8580.0875
2765.65573	8550.8875
2768.22863	8552.8875
2770.79994	8539.1875
2773.36967	8558.1875
2775.9378	8555.2875
2778.50435	8529.0875
2781.06932	8526.6875
2783.6327	8540.2875
2786.1945	8530.6875
2788.75471	8525.4875
2791.31335	8488.4875
2793.87041	8501.8875
2796.42589	8491.4875
2798.97979	8504.2875
2801.53212	8487.5875
2804.08288	8492.9875
2806.63206	8444.4875
2809.17967	8451.8875
2811.72571	8451.1875
2814.27018	8452.6875
2816.81308	8421.9875
2819.35442	8416.3875
2821.89419	8409.9875
2824.43239	8407.7875
2826.96904	8404.8875
2829.50412	8398.6875
2832.03763	8353.9875
2834.56959	8403.5875
2837.1	8396.8875
2839.62884	8363.1875
2842.15613	8373.3875
2844.68186	8358.7875
2847.20604	8354.7875
2849.72867	8370.7875
2852.24974	8375.0875
2854.76927	8338.7875
2857.28724	8334.9875
2859.80367	8350.8875
2862.31855	8323.6875
2864.83189	8355.0875
2867.34368	8306.4875
2869.85393	8315.0875
2872.36264	8329.0875
2874.8698	8320.6875
2877.37543	8355.1875
2879.87952	8333.5875
2882.38207	8312.4875
2884.88308	8320.2875
2887.38256	8348.0875
2889.88051	8312.2875
2892.37692	8334.2875
2894.8718	8310.6875
2897.36515	8330.7875
2899.85698	8334.1875
2902.34727	8344.4875
2904.83604	8345.3875
2907.32328	8354.2875
2909.809	8330.6875
2912.29319	8339.6875
2914.77587	8345.9875
2917.25702	8331.3875
2919.73665	8321.6875
2922.21476	8343.2875
2924.69136	8327.8875
2927.16644	8349.4875
2929.64	8317.3875
2932.11205	8298.9875
2934.58258	8252.7875
2937.05161	8289.1875
2939.51912	8277.9875
2941.98513	8260.6875
2944.44962	8243.8875
2946.91261	8211.2875
2949.37409	8222.8875
2951.83407	8222.8875
2954.29254	8217.6875
2956.74951	8190.6875
2959.20498	8174.8875
2961.65895	8149.6875
2964.11142	8133.4875
2966.56239	8097.0875
2969.01186	8101.5875
2971.45984	8065.6875
2973.90632	8069.6875
2976.35131	8031.4875
2978.7948	8007.0875
2981.23681	7974.1875
2983.67732	7965.1875
2986.11635	7948.2875
2988.55388	7911.7875
2990.98993	7884.1875
2993.4245	7871.9875
2995.85758	7858.5875
2998.28917	7843.4875
3000.71928	7826.3875
3003.14791	7796.1875
3005.57506	7802.7875
3008.00073	7771.4875
3010.42493	7774.1875
3012.84764	7752.1875
3015.26888	7754.9875
3017.68865	7734.4875
3020.10694	7712.2875
3022.52376	7674.8875
3024.9391	7652.2875
3027.35298	7640.3875
3029.76539	7641.0875
3032.17632	7626.6875
3034.5858	7612.8875
3036.9938	7616.5875
3039.40034	7580.4875
3041.80542	7595.5875
3044.20903	7569.9875
3046.61118	7565.7875
3049.01187	7508.3875
3051.4111	7534.8875
3053.80888	7524.5875
3056.20519	7482.2875
3058.60005	7476.4875
3060.99345	7479.9875
3063.3854	7443.2875
3065.7759	7428.5875
3068.16494	7425.7875
3070.55254	7402.2875
3072.93868	7379.2875
3075.32338	7343.1875
3077.70662	7320.9875
3080.08842	7320.1875
3082.46878	7312.6875
3084.84769	7296.0875
3087.22515	7287.0875
3089.60118	7277.0875
3091.97576	7275.0875
3094.3489	7257.1875
3096.72061	7249.4875
3099.09087	7246.0875
3101.4597	7232.4875
3103.82709	7229.1875
3106.19305	7176.3875
3108.55757	7210.3875
3110.92066	7146.0875
3113.28232	7143.8875
3115.64255	7141.1875
3118.00134	7120.5875
3120.35871	7109.3875
3122.71466	7093.4875
3125.06917	7082.7875
3127.42226	7045.9875
3129.77393	7064.3875
3132.12417	7049.7875
3134.47299	7053.8875
3136.82039	7061.8875
3139.16636	7062.8875
3141.51092	7063.7875
3143.85406	7043.4875
3146.19579	7060.4875
3148.53609	7033.7875
3150.87499	7025.4875
3153.21246	7029.2875
3155.54853	7023.0875
3157.88318	7005.2875
3160.21642	7018.7875
3162.54826	6995.1875
3164.87868	6982.5875
3167.2077	6984.9875
3169.5353	6966.4875
3171.86151	6988.1875
3174.18631	6980.7875
3176.5097	6981.9875
3178.83169	6969.7875
3181.15228	6961.7875
3183.47147	6933.5875
3185.78926	6943.0875
3188.10565	6939.4875
3190.42065	6940.7875
3192.73424	6940.6875
3195.04645	6950.3875
3197.35725	6942.3875
3199.66667	6921.3875
3201.97469	6933.3875
3204.28132	6924.4875
3206.58656	6927.7875
3208.8904	6910.5875
3211.19287	6914.6875
3213.49394	6887.2875
3215.79363	6881.8875
3218.09193	6897.7875
3220.38884	6878.3875
3222.68438	6888.2875
3224.97853	6889.0875
3227.2713	6865.2875
3229.56269	6858.6875
3231.8527	6865.1875
3234.14133	6857.0875
3236.42858	6830.9875
3238.71446	6829.0875
3240.99896	6819.8875
3243.28209	6834.4875
3245.56384	6820.7875
3247.84423	6821.9875
3250.12324	6798.5875
3252.40088	6782.7875
3254.67715	6766.2875
3256.95205	6742.4875
3259.22558	6719.0875
3261.49775	6697.8875
3263.76855	6707.1875
3266.03799	6675.5875
3268.30606	6676.8875
3270.57277	6663.0875
3272.83812	6662.5875
3275.10211	6669.7875
3277.36474	6636.8875
3279.62601	6646.4875
3281.88593	6643.8875
3284.14448	6659.5875
3286.40168	6676.6875
3288.65753	6655.6875
3290.91202	6644.9875
3293.16516	6633.2875
3295.41695	6622.9875
3297.66738	6573.8875
3299.91647	6545.6875
3302.16421	6504.3875
3304.4106	6485.6875
3306.65564	6461.1875
3308.89933	6412.7875
3311.14169	6366.8875
3313.38269	6308.9875
3315.62236	6272.8875
3317.86068	6210.2875
3320.09766	6135.3875
3322.3333	6095.1875
3324.5676	6080.4875
3326.80056	6003.7875
3329.03219	5954.3875
3331.26248	1.2875
3333.49143	-1.8125
3335.71905	0.5875
