Data from AgNP_FTO_APTES_UA_100uM_CRN_0uM_R6G_10uM_NaF_0.1M_Addition_RamanShift__12__10-59-10-096.txt Node

Date: Thu Mar 24 10:59:10 GMT 2022
User: TCL
Spectrometer: QEP01345
Trigger mode: 4
Integration Time (sec): 7.000000E0
Scans to average: 10
Electric dark correction enabled: true
Nonlinearity correction enabled: false
Boxcar width: 0
XAxis mode: Raman Shifts
Number of Pixels in Spectrum: 1044
>>>>>Begin Spectral Data<<<<<
46.04893	-0.9625
50.45542	0.2375
54.85868	0.7375
59.25871	0.6375
63.6555	22.8375
68.04907	26.0375
72.43941	24.0375
76.82654	23.6375
81.21044	29.0375
85.59113	30.1375
89.96862	32.5375
94.34289	28.4375
98.71396	34.1375
103.08183	30.7375
107.4465	33.6375
111.80798	38.7375
116.16626	31.9375
120.52136	33.3375
124.87327	36.5375
129.222	38.5375
133.56755	38.6375
137.90993	40.0375
142.24913	45.7375
146.58517	47.5375
150.91804	55.6375
155.24774	65.8375
159.57429	78.3375
163.89768	101.1375
168.21792	133.6375
172.53501	180.0375
176.84895	248.0375
181.15975	342.5375
185.46741	481.7375
189.77193	663.3375
194.07331	888.4375
198.37157	1157.1375
202.6667	1435.8375
206.9587	1723.6375
211.24758	2014.5375
215.53334	2332.6375
219.81599	2694.2375
224.09553	3126.2375
228.37195	3594.5375
232.64527	4076.6375
236.91549	4569.7375
241.18261	4979.5375
245.44663	5301.5375
249.70755	5524.3375
253.96539	5723.6375
258.22014	5878.0375
262.4718	5980.5375
266.72039	5974.6375
270.96589	5883.4375
275.20832	5684.9375
279.44768	5476.0375
283.68397	5303.8375
287.91719	5188.4375
292.14735	5219.3375
296.37445	5414.1375
300.59849	5789.6375
304.81948	6288.1375
309.03742	6713.8375
313.25231	6858.0375
317.46415	6550.8375
321.67296	5864.0375
325.87872	5254.2375
330.08145	4969.3375
334.28114	4932.4375
338.47781	5071.7375
342.67145	5263.2375
346.86207	5571.5375
351.04966	6046.0375
355.23424	6619.8375
359.4158	7060.7375
363.59435	7223.9375
367.76989	7250.1375
371.94243	7100.8375
376.11196	6976.7375
380.27849	6835.0375
384.44203	6650.7375
388.60257	6446.9375
392.76012	6320.5375
396.91468	6303.6375
401.06626	6501.7375
405.21485	6659.7375
409.36047	6434.4375
413.50311	5945.9375
417.64277	5522.7375
421.77947	5241.1375
425.9132	4951.5375
430.04396	4837.9375
434.17176	4893.1375
438.2966	5066.9375
442.41849	5352.5375
446.53742	5722.2375
450.6534	6029.9375
454.76644	6124.8375
458.87653	5969.2375
462.98368	5698.1375
467.08789	5413.2375
471.18916	5176.9375
475.2875	4908.8375
479.38291	4674.7375
483.4754	4485.7375
487.56496	4371.8375
491.6516	4308.2375
495.73531	4291.8375
499.81612	4320.5375
503.89401	4398.5375
507.96899	4507.1375
512.04106	4640.5375
516.11023	4810.3375
520.1765	4950.0375
524.23987	4992.4375
528.30034	4958.6375
532.35792	4844.0375
536.41261	4682.8375
540.46441	4460.9375
544.51333	4288.7375
548.55936	4292.1375
552.60252	4449.5375
556.64279	4695.0375
560.6802	4836.6375
564.71473	5010.5375
568.7464	5404.7375
572.7752	5596.1375
576.80114	5259.5375
580.82422	4852.2375
584.84444	4797.9375
588.86181	5064.5375
592.87633	5510.4375
596.888	5730.2375
600.89682	5660.3375
604.9028	6402.6375
608.90594	9220.8375
612.90624	13146.5375
616.90371	12772.8375
620.89834	7656.3375
624.89015	4979.8375
628.87913	4460.3375
632.86528	4572.1375
636.84862	4726.3375
640.82913	4571.7375
644.80683	4123.8375
648.78172	3792.3375
652.75379	3813.2375
656.72306	4171.2375
660.68952	4631.3375
664.65319	4533.4375
668.61405	4029.9375
672.57211	3798.3375
676.52738	3789.8375
680.47986	3749.2375
684.42955	3607.9375
688.37646	3568.9375
692.32058	3600.6375
696.26192	3711.6375
700.20048	3845.6375
704.13626	3916.5375
708.06928	3879.7375
711.99952	3819.8375
715.927	3813.1375
719.85171	3882.1375
723.77365	3890.3375
727.69284	3806.6375
731.60928	3756.4375
735.52295	3754.5375
739.43388	3806.4375
743.34206	3853.9375
747.24749	3849.8375
751.15017	3846.6375
755.05012	3968.0375
758.94733	4414.6375
762.8418	5515.5375
766.73354	7291.1375
770.62254	9011.1375
774.50882	9960.4375
778.39237	9713.3375
782.27321	7951.4375
786.15132	5928.6375
790.02671	4652.6375
793.89938	4126.7375
797.76935	3907.0375
801.6366	3810.9375
805.50115	3752.0375
809.36299	3715.2375
813.22213	3673.5375
817.07857	3646.1375
820.93231	3640.5375
824.78336	3674.7375
828.63172	3737.3375
832.47738	3760.0375
836.32036	3723.7375
840.16066	3652.5375
843.99827	3620.0375
847.8332	3584.0375
851.66546	3569.1375
855.49504	3581.4375
859.32195	3550.7375
863.1462	3510.8375
866.96777	3466.7375
870.78668	3470.0375
874.60293	3481.8375
878.41652	3515.9375
882.22745	3597.2375
886.03573	3644.1375
889.84136	3641.0375
893.64433	3601.4375
897.44466	3607.8375
901.24235	3601.8375
905.0374	3556.9375
908.8298	3496.8375
912.61957	3431.1375
916.40671	3416.7375
920.19121	3476.7375
923.97308	3566.1375
927.75233	3710.2375
931.52895	3848.6375
935.30295	3767.0375
939.07433	3539.7375
942.84309	3345.2375
946.60924	3233.5375
950.37278	3173.0375
954.13371	3126.5375
957.89203	3096.1375
961.64774	3064.9375
965.40086	3042.6375
969.15137	3036.8375
972.89929	3020.5375
976.64461	3009.7375
980.38733	3012.0375
984.12747	3028.1375
987.86502	3055.9375
991.59999	3083.2375
995.33237	3170.6375
999.06217	3307.6375
1002.78939	3474.3375
1006.51404	3651.3375
1010.23611	3778.1375
1013.95561	3849.6375
1017.67255	3791.7375
1021.38692	3637.3375
1025.09872	3459.5375
1028.80796	3340.7375
1032.51465	3319.7375
1036.21877	3375.7375
1039.92035	3447.5375
1043.61937	3499.4375
1047.31584	3526.2375
1051.00976	3520.0375
1054.70114	3489.3375
1058.38998	3450.3375
1062.07627	3445.8375
1065.76003	3436.5375
1069.44126	3490.2375
1073.11995	3612.1375
1076.79611	3806.2375
1080.46974	4045.9375
1084.14085	4348.1375
1087.80943	4608.5375
1091.47549	4658.6375
1095.13903	4446.8375
1098.80005	4091.2375
1102.45857	3822.5375
1106.11456	3767.6375
1109.76805	3879.9375
1113.41903	4117.9375
1117.06751	4520.6375
1120.71348	5063.6375
1124.35696	5697.6375
1127.99793	6116.5375
1131.63641	5826.0375
1135.2724	5136.7375
1138.90589	4588.1375
1142.5369	4270.5375
1146.16542	4086.7375
1149.79145	3976.7375
1153.415	3933.1375
1157.03607	3979.6375
1160.65467	4122.5375
1164.27079	4425.4375
1167.88443	4948.4375
1171.49561	5800.8375
1175.10432	7201.5375
1178.71056	9040.0375
1182.31434	10473.4375
1185.91565	10761.3375
1189.51451	10169.9375
1193.11091	9217.1375
1196.70485	8199.8375
1200.29634	7357.8375
1203.88538	6572.7375
1207.47197	5727.8375
1211.05612	5051.0375
1214.63782	4756.3375
1218.21708	4753.6375
1221.79391	4837.0375
1225.36829	4844.9375
1228.94024	4696.6375
1232.50976	4574.1375
1236.07685	4461.8375
1239.6415	4477.7375
1243.20374	4536.4375
1246.76355	4523.8375
1250.32093	4572.1375
1253.8759	4732.1375
1257.42845	5011.2375
1260.97859	5400.9375
1264.52631	5824.6375
1268.07163	6218.9375
1271.61453	6509.5375
1275.15503	6607.2375
1278.69312	6680.0375
1282.22882	6814.7375
1285.76211	7221.8375
1289.29301	7771.1375
1292.82151	8336.1375
1296.34761	8981.7375
1299.87133	9864.9375
1303.39266	11263.6375
1306.9116	13438.6375
1310.42815	15745.4375
1313.94233	16593.5375
1317.45412	15278.7375
1320.96354	13028.4375
1324.47058	10827.2375
1327.97525	9219.5375
1331.47754	8432.1375
1334.97747	8282.5375
1338.47502	8523.3375
1341.97022	9007.1375
1345.46305	9749.3375
1348.95352	10924.6375
1352.44163	12675.1375
1355.92738	15267.9375
1359.41078	18831.6375
1362.89183	21365.3375
1366.37053	19860.9375
1369.84688	15672.1375
1373.32088	12140.9375
1376.79254	9999.0375
1380.26186	8760.2375
1383.72883	7858.2375
1387.19347	7137.8375
1390.65578	6541.7375
1394.11575	6184.8375
1397.57339	6091.7375
1401.0287	6110.7375
1404.48168	6155.2375
1407.93234	6155.4375
1411.38068	6164.4375
1414.82669	6153.4375
1418.27039	6042.0375
1421.71177	5844.3375
1425.15083	5696.5375
1428.58758	5759.4375
1432.02203	5991.6375
1435.45416	6171.0375
1438.88399	6189.7375
1442.31151	6135.2375
1445.73673	6095.6375
1449.15965	6083.0375
1452.58027	5976.0375
1455.9986	5765.7375
1459.41463	5712.6375
1462.82837	5931.0375
1466.23982	6283.1375
1469.64898	6612.0375
1473.05586	6826.9375
1476.46045	6985.7375
1479.86276	7143.9375
1483.26279	7351.1375
1486.66054	7651.6375
1490.05602	8054.3375
1493.44922	8659.1375
1496.84016	9652.8375
1500.22882	11337.8375
1503.61521	13769.9375
1506.99934	16508.7375
1510.38121	18740.7375
1513.76081	18988.2375
1517.13816	16805.4375
1520.51324	13381.7375
1523.88607	10543.7375
1527.25665	8914.2375
1530.62498	8148.8375
1533.99105	7759.0375
1537.35488	7500.8375
1540.71647	7274.4375
1544.07581	7140.6375
1547.4329	7015.7375
1550.78776	6888.4375
1554.14038	6774.9375
1557.49077	6689.1375
1560.83892	6732.5375
1564.18484	7104.9375
1567.52853	7690.3375
1570.86999	8226.9375
1574.20922	8546.7375
1577.54624	8398.0375
1580.88103	7569.0375
1584.2136	6484.9375
1587.54395	5892.3375
1590.87208	6017.8375
1594.19801	6801.3375
1597.52172	7915.7375
1600.84321	8574.8375
1604.16251	8285.7375
1607.47959	7311.6375
1610.79447	6129.2375
1614.10715	5140.6375
1617.41763	4496.9375
1620.7259	4132.2375
1624.03199	3977.6375
1627.33587	3991.0375
1630.63757	4174.6375
1633.93707	4630.4375
1637.23439	5439.2375
1640.52951	6900.5375
1643.82246	9075.9375
1647.11321	11475.1375
1650.40179	12812.3375
1653.68819	11854.2375
1656.97241	9264.7375
1660.25446	6658.3375
1663.53433	4919.7375
1666.81203	3982.4375
1670.08756	3460.0375
1673.36092	3152.0375
1676.63211	2982.6375
1679.90115	2860.8375
1683.16801	2779.7375
1686.43272	2713.1375
1689.69527	2665.1375
1692.95567	2610.6375
1696.2139	2611.1375
1699.46999	2588.8375
1702.72392	2567.0375
1705.97571	2585.4375
1709.22535	2569.0375
1712.47284	2571.9375
1715.71819	2572.0375
1718.96139	2550.3375
1722.20246	2544.1375
1725.44139	2507.6375
1728.67818	2464.6375
1731.91284	2423.6375
1735.14537	2380.5375
1738.37576	2354.6375
1741.60403	2338.1375
1744.83017	2317.5375
1748.05418	2301.1375
1751.27607	2282.8375
1754.49584	2276.2375
1757.71349	2250.9375
1760.92903	2244.0375
1764.14244	2240.4375
1767.35375	2227.0375
1770.56294	2215.7375
1773.77002	2202.6375
1776.97499	2185.6375
1780.17785	2163.2375
1783.37861	2160.2375
1786.57727	2148.7375
1789.77382	2133.3375
1792.96828	2140.7375
1796.16064	2131.8375
1799.3509	2134.8375
1802.53907	2129.7375
1805.72514	2118.2375
1808.90913	2112.0375
1812.09102	2111.9375
1815.27083	2106.3375
1818.44856	2112.4375
1821.6242	2097.6375
1824.79776	2095.8375
1827.96924	2098.8375
1831.13864	2093.7375
1834.30597	2113.1375
1837.47122	2127.2375
1840.6344	2144.5375
1843.7955	2165.7375
1846.95454	2179.6375
1850.11151	2197.1375
1853.26642	2213.7375
1856.41926	2228.4375
1859.57004	2230.7375
1862.71876	2234.4375
1865.86542	2231.9375
1869.01003	2232.4375
1872.15258	2243.2375
1875.29308	2239.2375
1878.43152	2236.6375
1881.56792	2244.0375
1884.70227	2230.1375
1887.83457	2222.9375
1890.96482	2202.1375
1894.09304	2203.7375
1897.21921	2187.7375
1900.34335	2179.6375
1903.46544	2163.6375
1906.58551	2153.1375
1909.70353	2147.3375
1912.81953	2131.4375
1915.93349	2132.0375
1919.04543	2118.6375
1922.15534	2104.5375
1925.26322	2098.0375
1928.36908	2090.1375
1931.47292	2071.4375
1934.57473	2052.9375
1937.67453	2034.9375
1940.77232	2018.1375
1943.86808	2005.2375
1946.96184	1993.7375
1950.05358	1987.4375
1953.14331	1968.5375
1956.23103	1968.1375
1959.31675	1960.0375
1962.40046	1964.4375
1965.48217	1958.6375
1968.56188	1965.9375
1971.63959	1972.4375
1974.7153	1976.0375
1977.78901	1968.2375
1980.86073	1954.0375
1983.93046	1939.7375
1986.99819	1926.3375
1990.06394	1921.0375
1993.1277	1907.8375
1996.18947	1889.1375
1999.24925	1872.7375
2002.30706	1864.7375
2005.36288	1858.7375
2008.41672	1837.3375
2011.46859	1819.2375
2014.51848	1815.1375
2017.56639	1807.8375
2020.61233	1781.8375
2023.6563	1778.7375
2026.6983	1774.3375
2029.73833	1782.4375
2032.7764	1795.7375
2035.8125	1803.4375
2038.84664	1806.4375
2041.87881	1822.1375
2044.90903	1846.0375
2047.93729	1859.6375
2050.96359	1866.5375
2053.98794	1896.6375
2057.01034	1898.4375
2060.03078	1900.9375
2063.04927	1906.3375
2066.06582	1903.4375
2069.08042	1901.3375
2072.09307	1886.7375
2075.10378	1886.3375
2078.11255	1858.6375
2081.11938	1849.3375
2084.12426	1836.6375
2087.12722	1807.9375
2090.12824	1796.0375
2093.12732	1781.2375
2096.12447	1758.1375
2099.11969	1761.0375
2102.11299	1746.8375
2105.10435	1727.9375
2108.09379	1715.9375
2111.08131	1708.8375
2114.0669	1700.1375
2117.05057	1697.7375
2120.03233	1696.1375
2123.01216	1685.5375
2125.99008	1680.5375
2128.96609	1676.8375
2131.94018	1668.7375
2134.91236	1669.9375
2137.88263	1660.8375
2140.851	1647.5375
2143.81746	1648.9375
2146.78201	1623.9375
2149.74466	1602.7375
2152.7054	1590.3375
2155.66425	1586.4375
2158.6212	1563.1375
2161.57625	1566.2375
2164.52941	1554.3375
2167.48067	1540.3375
2170.43004	1542.0375
2173.37752	1532.6375
2176.32311	1533.2375
2179.26681	1524.0375
2182.20863	1530.9375
2185.14856	1524.0375
2188.08661	1520.6375
2191.02278	1513.4375
2193.95707	1512.7375
2196.88948	1497.6375
2199.82001	1492.4375
2202.74867	1487.5375
2205.67545	1490.0375
2208.60037	1481.1375
2211.52341	1473.3375
2214.44458	1475.2375
2217.36388	1457.7375
2220.28132	1461.2375
2223.1969	1451.1375
2226.11061	1440.0375
2229.02246	1433.8375
2231.93245	1434.3375
2234.84058	1439.0375
2237.74686	1433.5375
2240.65128	1432.1375
2243.55385	1431.9375
2246.45456	1427.7375
2249.35343	1422.9375
2252.25044	1430.9375
2255.14561	1424.8375
2258.03893	1432.8375
2260.93041	1431.7375
2263.82004	1434.8375
2266.70783	1435.7375
2269.59378	1418.3375
2272.4779	1418.1375
2275.36017	1409.0375
2278.24061	1405.8375
2281.11922	1414.0375
2283.996	1400.8375
2286.87094	1404.5375
2289.74405	1385.3375
2292.61534	1383.0375
2295.4848	1376.0375
2298.35243	1370.7375
2301.21824	1355.7375
2304.08223	1364.2375
2306.94439	1358.8375
2309.80474	1359.4375
2312.66327	1373.1375
2315.51999	1366.1375
2318.37489	1359.4375
2321.22797	1364.6375
2324.07925	1351.1375
2326.92871	1359.6375
2329.77637	1353.5375
2332.62222	1348.5375
2335.46626	1345.7375
2338.3085	1344.6375
2341.14893	1342.3375
2343.98756	1348.6375
2346.8244	1356.3375
2349.65943	1356.2375
2352.49267	1367.3375
2355.32411	1371.7375
2358.15376	1385.9375
2360.98161	1388.6375
2363.80768	1401.6375
2366.63195	1406.1375
2369.45444	1414.7375
2372.27514	1414.5375
2375.09405	1418.7375
2377.91118	1413.1375
2380.72652	1396.9375
2383.54009	1390.5375
2386.35187	1373.8375
2389.16188	1354.4375
2391.97011	1346.2375
2394.77657	1339.1375
2397.58125	1328.8375
2400.38416	1321.0375
2403.18529	1323.3375
2405.98466	1303.7375
2408.78226	1298.5375
2411.57809	1296.9375
2414.37216	1298.9375
2417.16446	1287.4375
2419.955	1292.7375
2422.74378	1294.9375
2425.5308	1287.8375
2428.31606	1299.1375
2431.09956	1291.7375
2433.88131	1289.5375
2436.6613	1297.1375
2439.43954	1308.9375
2442.21603	1313.3375
2444.99077	1310.8375
2447.76377	1312.8375
2450.53501	1316.1375
2453.30451	1318.3375
2456.07226	1324.1375
2458.83827	1327.5375
2461.60254	1312.0375
2464.36507	1314.1375
2467.12586	1318.9375
2469.88492	1323.7375
2472.64224	1318.6375
2475.39782	1329.5375
2478.15167	1333.5375
2480.90379	1346.4375
2483.65417	1354.6375
2486.40283	1365.8375
2489.14976	1371.7375
2491.89497	1377.8375
2494.63845	1381.4375
2497.3802	1384.5375
2500.12024	1372.7375
2502.85855	1362.5375
2505.59514	1354.8375
2508.33002	1335.2375
2511.06318	1326.0375
2513.79462	1300.7375
2516.52435	1289.0375
2519.25237	1280.8375
2521.97867	1271.5375
2524.70327	1271.0375
2527.42616	1263.8375
2530.14734	1264.3375
2532.86681	1259.8375
2535.58458	1250.2375
2538.30065	1257.8375
2541.01501	1258.5375
2543.72768	1267.7375
2546.43864	1268.5375
2549.14791	1276.6375
2551.85548	1276.8375
2554.56136	1287.1375
2557.26554	1269.3375
2559.96803	1278.2375
2562.66883	1274.4375
2565.36794	1271.8375
2568.06536	1279.4375
2570.7611	1271.3375
2573.45514	1269.4375
2576.14751	1264.8375
2578.83819	1260.4375
2581.52719	1257.2375
2584.21451	1262.2375
2586.90015	1262.0375
2589.58411	1246.1375
2592.2664	1255.0375
2594.94701	1244.8375
2597.62594	1255.4375
2600.30321	1245.7375
2602.9788	1249.1375
2605.65273	1240.8375
2608.32498	1254.0375
2610.99557	1257.5375
2613.66449	1256.1375
2616.33175	1255.8375
2618.99734	1255.0375
2621.66128	1245.5375
2624.32355	1255.9375
2626.98416	1250.9375
2629.64311	1246.1375
2632.30041	1244.3375
2634.95605	1239.0375
2637.61004	1233.9375
2640.26238	1225.5375
2642.91306	1232.4375
2645.56209	1229.2375
2648.20948	1227.8375
2650.85521	1224.4375
2653.4993	1228.1375
2656.14175	1240.1375
2658.78255	1249.2375
2661.42171	1246.5375
2664.05923	1250.7375
2666.6951	1261.6375
2669.32934	1264.6375
2671.96194	1266.6375
2674.59291	1275.1375
2677.22224	1275.9375
2679.84993	1263.6375
2682.476	1256.4375
2685.10043	1262.3375
2687.72324	1266.5375
2690.34441	1251.8375
2692.96396	1260.1375
2695.58188	1260.6375
2698.19818	1263.5375
2700.81285	1257.9375
2703.4259	1265.2375
2706.03733	1253.0375
2708.64714	1265.0375
2711.25533	1268.3375
2713.86191	1275.4375
2716.46687	1287.0375
2719.07021	1284.1375
2721.67194	1296.7375
2724.27206	1291.3375
2726.87057	1296.1375
2729.46747	1287.6375
2732.06276	1294.7375
2734.65644	1279.0375
2737.24852	1283.2375
2739.83899	1277.3375
2742.42786	1275.5375
2745.01513	1263.2375
2747.60079	1265.0375
2750.18486	1263.6375
2752.76733	1268.7375
2755.3482	1272.0375
2757.92747	1272.2375
2760.50515	1264.3375
2763.08123	1261.5375
2765.65573	1255.7375
2768.22863	1273.0375
2770.79994	1268.6375
2773.36967	1272.9375
2775.9378	1272.9375
2778.50435	1286.8375
2781.06932	1291.4375
2783.6327	1290.8375
2786.1945	1310.9375
2788.75471	1306.0375
2791.31335	1306.9375
2793.87041	1315.8375
2796.42589	1317.3375
2798.97979	1336.1375
2801.53212	1333.2375
2804.08288	1343.8375
2806.63206	1349.1375
2809.17967	1356.6375
2811.72571	1360.4375
2814.27018	1380.1375
2816.81308	1390.5375
2819.35442	1395.1375
2821.89419	1412.6375
2824.43239	1419.5375
2826.96904	1420.9375
2829.50412	1430.7375
2832.03763	1433.6375
2834.56959	1440.6375
2837.1	1453.4375
2839.62884	1457.6375
2842.15613	1480.0375
2844.68186	1517.7375
2847.20604	1553.6375
2849.72867	1582.8375
2852.24974	1590.5375
2854.76927	1619.6375
2857.28724	1612.9375
2859.80367	1624.7375
2862.31855	1626.0375
2864.83189	1629.3375
2867.34368	1642.0375
2869.85393	1637.3375
2872.36264	1638.1375
2874.8698	1645.2375
2877.37543	1641.2375
2879.87952	1640.1375
2882.38207	1623.0375
2884.88308	1632.6375
2887.38256	1621.6375
2889.88051	1617.8375
2892.37692	1608.3375
2894.8718	1612.7375
2897.36515	1606.7375
2899.85698	1597.1375
2902.34727	1597.0375
2904.83604	1594.8375
2907.32328	1587.8375
2909.809	1594.3375
2912.29319	1584.3375
2914.77587	1580.6375
2917.25702	1568.8375
2919.73665	1569.0375
2922.21476	1558.8375
2924.69136	1560.4375
2927.16644	1548.6375
2929.64	1539.3375
2932.11205	1525.3375
2934.58258	1499.5375
2937.05161	1492.4375
2939.51912	1474.9375
2941.98513	1450.7375
2944.44962	1430.7375
2946.91261	1399.5375
2949.37409	1384.2375
2951.83407	1369.7375
2954.29254	1349.8375
2956.74951	1338.7375
2959.20498	1334.6375
2961.65895	1320.2375
2964.11142	1301.9375
2966.56239	1296.1375
2969.01186	1285.0375
2971.45984	1279.8375
2973.90632	1259.7375
2976.35131	1251.1375
2978.7948	1240.8375
2981.23681	1229.9375
2983.67732	1222.8375
2986.11635	1214.7375
2988.55388	1207.3375
2990.98993	1202.5375
2993.4245	1195.5375
2995.85758	1204.5375
2998.28917	1205.0375
3000.71928	1197.3375
3003.14791	1197.2375
3005.57506	1190.2375
3008.00073	1197.0375
3010.42493	1198.1375
3012.84764	1188.9375
3015.26888	1185.1375
3017.68865	1195.3375
3020.10694	1189.5375
3022.52376	1178.3375
3024.9391	1174.8375
3027.35298	1166.4375
3029.76539	1165.7375
3032.17632	1157.0375
3034.5858	1152.4375
3036.9938	1148.4375
3039.40034	1147.5375
3041.80542	1140.4375
3044.20903	1130.7375
3046.61118	1140.0375
3049.01187	1130.7375
3051.4111	1140.8375
3053.80888	1135.4375
3056.20519	1132.6375
3058.60005	1128.0375
3060.99345	1137.8375
3063.3854	1129.0375
3065.7759	1127.1375
3068.16494	1126.2375
3070.55254	1125.9375
3072.93868	1127.0375
3075.32338	1107.4375
3077.70662	1108.0375
3080.08842	1100.9375
3082.46878	1110.4375
3084.84769	1105.5375
3087.22515	1095.4375
3089.60118	1105.8375
3091.97576	1105.2375
3094.3489	1094.4375
3096.72061	1099.0375
3099.09087	1100.8375
3101.4597	1097.6375
3103.82709	1102.6375
3106.19305	1092.3375
3108.55757	1095.0375
3110.92066	1093.5375
3113.28232	1091.3375
3115.64255	1089.7375
3118.00134	1099.8375
3120.35871	1091.5375
3122.71466	1104.6375
3125.06917	1096.6375
3127.42226	1112.7375
3129.77393	1104.3375
3132.12417	1110.0375
3134.47299	1116.9375
3136.82039	1127.9375
3139.16636	1137.3375
3141.51092	1123.2375
3143.85406	1134.8375
3146.19579	1130.9375
3148.53609	1133.4375
3150.87499	1145.1375
3153.21246	1144.1375
3155.54853	1141.1375
3157.88318	1138.9375
3160.21642	1140.1375
3162.54826	1148.0375
3164.87868	1159.9375
3167.2077	1158.0375
3169.5353	1161.3375
3171.86151	1165.7375
3174.18631	1169.1375
3176.5097	1172.5375
3178.83169	1174.5375
3181.15228	1173.4375
3183.47147	1177.9375
3185.78926	1182.5375
3188.10565	1195.4375
3190.42065	1193.0375
3192.73424	1191.8375
3195.04645	1203.3375
3197.35725	1205.3375
3199.66667	1215.6375
3201.97469	1217.6375
3204.28132	1211.3375
3206.58656	1228.8375
3208.8904	1227.8375
3211.19287	1231.0375
3213.49394	1238.5375
3215.79363	1237.1375
3218.09193	1238.4375
3220.38884	1237.2375
3222.68438	1238.6375
3224.97853	1244.9375
3227.2713	1247.2375
3229.56269	1249.0375
3231.8527	1259.4375
3234.14133	1251.0375
3236.42858	1256.9375
3238.71446	1255.3375
3240.99896	1259.3375
3243.28209	1260.8375
3245.56384	1265.7375
3247.84423	1260.7375
3250.12324	1265.0375
3252.40088	1272.3375
3254.67715	1271.4375
3256.95205	1271.5375
3259.22558	1264.0375
3261.49775	1269.7375
3263.76855	1258.5375
3266.03799	1263.2375
3268.30606	1263.1375
3270.57277	1253.9375
3272.83812	1262.1375
3275.10211	1260.6375
3277.36474	1267.8375
3279.62601	1270.4375
3281.88593	1268.0375
3284.14448	1276.6375
3286.40168	1267.9375
3288.65753	1273.1375
3290.91202	1271.4375
3293.16516	1279.5375
3295.41695	1265.2375
3297.66738	1258.6375
3299.91647	1260.1375
3302.16421	1234.2375
3304.4106	1240.0375
3306.65564	1235.6375
3308.89933	1221.1375
3311.14169	1207.5375
3313.38269	1191.4375
3315.62236	1198.0375
3317.86068	1176.3375
3320.09766	1171.7375
3322.3333	1150.6375
3324.5676	1149.3375
3326.80056	1136.0375
3329.03219	1119.8375
3331.26248	-0.4625
3333.49143	-1.6625
3335.71905	0.9375
