Data from AgNP_FTO_APTES_UA_100uM_CRN_1uM_R6G_10uM_NaF_0.1M_Addition_RamanShift__5__11-54-00-159.txt Node

Date: Thu Mar 24 11:54:00 GMT 2022
User: TCL
Spectrometer: QEP01345
Trigger mode: 4
Integration Time (sec): 7.000000E0
Scans to average: 10
Electric dark correction enabled: true
Nonlinearity correction enabled: false
Boxcar width: 0
XAxis mode: Raman Shifts
Number of Pixels in Spectrum: 1044
>>>>>Begin Spectral Data<<<<<
46.04893	-1.3125
50.45542	0.0875
54.85868	-0.6125
59.25871	0.5875
63.6555	51.3875
68.04907	53.8875
72.43941	51.4875
76.82654	54.7875
81.21044	55.6875
85.59113	60.5875
89.96862	64.8875
94.34289	61.6875
98.71396	64.6875
103.08183	68.9875
107.4465	68.6875
111.80798	70.6875
116.16626	73.8875
120.52136	75.5875
124.87327	75.1875
129.222	83.3875
133.56755	91.7875
137.90993	92.2875
142.24913	108.0875
146.58517	117.0875
150.91804	139.6875
155.24774	169.4875
159.57429	210.4875
163.89768	269.3875
168.21792	366.3875
172.53501	497.6875
176.84895	698.0875
181.15975	976.7875
185.46741	1373.8875
189.77193	1890.8875
194.07331	2540.3875
198.37157	3274.4875
202.6667	4042.4875
206.9587	4840.6875
211.24758	5607.5875
215.53334	6410.1875
219.81599	7284.2875
224.09553	8278.4875
228.37195	9374.5875
232.64527	10562.8875
236.91549	11771.7875
241.18261	12957.0875
245.44663	13951.7875
249.70755	14674.2875
253.96539	15262.6875
258.22014	15757.7875
262.4718	16188.7875
266.72039	16490.0875
270.96589	16595.8875
275.20832	16507.1875
279.44768	16351.0875
283.68397	16160.7875
287.91719	16020.2875
292.14735	15937.5875
296.37445	16037.2875
300.59849	16255.4875
304.81948	16620.8875
309.03742	16889.8875
313.25231	17027.1875
317.46415	16805.6875
321.67296	16356.9875
325.87872	15930.7875
330.08145	15705.7875
334.28114	15700.9875
338.47781	15764.0875
342.67145	16024.8875
346.86207	16386.4875
351.04966	16827.3875
355.23424	17266.2875
359.4158	17609.8875
363.59435	17737.1875
367.76989	17753.8875
371.94243	17716.2875
376.11196	17671.4875
380.27849	17703.9875
384.44203	17753.6875
388.60257	17866.6875
392.76012	17953.2875
396.91468	18134.9875
401.06626	18363.1875
405.21485	18536.1875
409.36047	18324.2875
413.50311	17728.8875
417.64277	17308.9875
421.77947	17226.1875
425.9132	17304.4875
430.04396	17391.9875
434.17176	17537.9875
438.2966	17835.5875
442.41849	18453.9875
446.53742	19425.2875
450.6534	20368.9875
454.76644	20851.7875
458.87653	20757.0875
462.98368	20361.6875
467.08789	19853.5875
471.18916	19306.2875
475.2875	18707.5875
479.38291	18251.2875
483.4754	17877.2875
487.56496	17587.6875
491.6516	17244.8875
495.73531	16906.1875
499.81612	16813.5875
503.89401	16887.7875
507.96899	16931.7875
512.04106	16899.2875
516.11023	16761.4875
520.1765	16651.6875
524.23987	16664.0875
528.30034	16728.2875
532.35792	16681.8875
536.41261	16376.4875
540.46441	15949.8875
544.51333	15684.2875
548.55936	15839.0875
552.60252	16340.1875
556.64279	17105.5875
560.6802	17783.4875
564.71473	18095.4875
568.7464	18583.4875
572.7752	19518.8875
576.80114	20227.0875
580.82422	20686.6875
584.84444	21609.4875
588.86181	23417.0875
592.87633	25864.6875
596.888	26851.4875
600.89682	24992.2875
604.9028	23337.1875
608.90594	24994.2875
612.90624	27859.5875
616.90371	25843.6875
620.89834	19836.4875
624.89015	16888.1875
628.87913	16450.9875
632.86528	16678.5875
636.84862	16712.3875
640.82913	16237.0875
644.80683	15475.2875
648.78172	14960.2875
652.75379	14966.6875
656.72306	15391.5875
660.68952	15937.2875
664.65319	15723.1875
668.61405	15098.8875
672.57211	14914.3875
676.52738	15069.9875
680.47986	15031.0875
684.42955	14792.9875
688.37646	14652.0875
692.32058	14776.0875
696.26192	15101.2875
700.20048	15467.3875
704.13626	15692.8875
708.06928	15712.8875
711.99952	15620.6875
715.927	15680.9875
719.85171	15784.9875
723.77365	15688.9875
727.69284	15398.9875
731.60928	15142.0875
735.52295	15170.2875
739.43388	15338.6875
743.34206	15455.7875
747.24749	15581.2875
751.15017	15748.7875
755.05012	16080.1875
758.94733	16812.8875
762.8418	18303.6875
766.73354	20879.6875
770.62254	23203.8875
774.50882	23671.9875
778.39237	22170.3875
782.27321	19856.5875
786.15132	17738.0875
790.02671	16343.0875
793.89938	15590.2875
797.76935	15257.5875
801.6366	15089.9875
805.50115	14928.4875
809.36299	14801.7875
813.22213	14663.9875
817.07857	14571.3875
820.93231	14483.7875
824.78336	14412.1875
828.63172	14373.1875
832.47738	14335.5875
836.32036	14348.8875
840.16066	14354.7875
843.99827	14363.5875
847.8332	14342.5875
851.66546	14357.5875
855.49504	14385.8875
859.32195	14336.5875
863.1462	14252.5875
866.96777	14179.7875
870.78668	14139.6875
874.60293	14160.8875
878.41652	14213.7875
882.22745	14377.8875
886.03573	14482.1875
889.84136	14468.7875
893.64433	14363.3875
897.44466	14288.9875
901.24235	14234.9875
905.0374	14111.5875
908.8298	14019.6875
912.61957	14002.1875
916.40671	14110.7875
920.19121	14396.6875
923.97308	14714.1875
927.75233	14877.8875
931.52895	14710.8875
935.30295	14322.1875
939.07433	13841.9875
942.84309	13520.5875
946.60924	13371.3875
950.37278	13326.9875
954.13371	13331.6875
957.89203	13354.0875
961.64774	13326.3875
965.40086	13349.7875
969.15137	13378.9875
972.89929	13296.8875
976.64461	13244.1875
980.38733	13230.2875
984.12747	13234.9875
987.86502	13337.5875
991.59999	13476.7875
995.33237	13754.8875
999.06217	14215.7875
1002.78939	14837.4875
1006.51404	15525.2875
1010.23611	16055.0875
1013.95561	16382.3875
1017.67255	16408.1875
1021.38692	15937.2875
1025.09872	15285.0875
1028.80796	14770.5875
1032.51465	14705.4875
1036.21877	14849.5875
1039.92035	14956.3875
1043.61937	14983.6875
1047.31584	14968.0875
1051.00976	14869.9875
1054.70114	14843.6875
1058.38998	14826.8875
1062.07627	14942.2875
1065.76003	15085.2875
1069.44126	15373.3875
1073.11995	15769.7875
1076.79611	16141.9875
1080.46974	16460.2875
1084.14085	16830.7875
1087.80943	17296.5875
1091.47549	17503.5875
1095.13903	17378.3875
1098.80005	16836.0875
1102.45857	16249.7875
1106.11456	15937.8875
1109.76805	15883.2875
1113.41903	16065.5875
1117.06751	16407.2875
1120.71348	16837.7875
1124.35696	17317.8875
1127.99793	17720.3875
1131.63641	17806.5875
1135.2724	17500.5875
1138.90589	17238.0875
1142.5369	17195.5875
1146.16542	17317.4875
1149.79145	17551.9875
1153.415	17846.0875
1157.03607	18114.2875
1160.65467	18648.4875
1164.27079	19674.5875
1167.88443	21225.1875
1171.49561	23411.2875
1175.10432	26502.7875
1178.71056	30360.1875
1182.31434	33777.5875
1185.91565	34739.0875
1189.51451	33400.4875
1193.11091	31328.7875
1196.70485	29115.7875
1200.29634	27068.4875
1203.88538	25463.4875
1207.47197	24290.0875
1211.05612	23458.3875
1214.63782	22911.1875
1218.21708	22721.7875
1221.79391	22872.8875
1225.36829	23222.6875
1228.94024	23153.7875
1232.50976	22396.1875
1236.07685	21316.6875
1239.6415	20552.6875
1243.20374	20294.7875
1246.76355	20287.8875
1250.32093	20534.4875
1253.8759	21075.9875
1257.42845	21869.2875
1260.97859	22890.4875
1264.52631	23964.2875
1268.07163	25111.2875
1271.61453	26053.9875
1275.15503	26992.4875
1278.69312	28000.6875
1282.22882	29213.5875
1285.76211	30959.0875
1289.29301	33046.2875
1292.82151	35449.7875
1296.34761	38097.2875
1299.87133	41218.7875
1303.39266	44819.6875
1306.9116	48525.2875
1310.42815	52029.5875
1313.94233	53800.4875
1317.45412	52644.1875
1320.96354	49730.7875
1324.47058	46611.7875
1327.97525	43968.8875
1331.47754	42027.5875
1334.97747	40709.9875
1338.47502	39832.8875
1341.97022	39271.5875
1345.46305	38919.5875
1348.95352	39329.8875
1352.44163	40765.6875
1355.92738	43830.9875
1359.41078	48526.0875
1362.89183	52656.3875
1366.37053	52390.6875
1369.84688	46488.2875
1373.32088	39054.8875
1376.79254	34318.6875
1380.26186	32517.9875
1383.72883	31960.3875
1387.19347	31555.5875
1390.65578	30924.5875
1394.11575	30743.0875
1397.57339	31067.4875
1401.0287	31478.1875
1404.48168	31558.9875
1407.93234	31241.9875
1411.38068	30393.4875
1414.82669	29333.1875
1418.27039	28187.1875
1421.71177	26994.0875
1425.15083	25963.6875
1428.58758	25531.0875
1432.02203	25984.5875
1435.45416	26829.0875
1438.88399	27520.0875
1442.31151	27909.9875
1445.73673	28141.3875
1449.15965	28310.9875
1452.58027	28249.5875
1455.9986	28006.4875
1459.41463	28059.9875
1462.82837	28645.8875
1466.23982	29548.9875
1469.64898	30422.2875
1473.05586	31011.2875
1476.46045	31410.1875
1479.86276	31548.5875
1483.26279	31606.3875
1486.66054	31934.2875
1490.05602	32627.7875
1493.44922	33534.3875
1496.84016	34472.0875
1500.22882	35608.0875
1503.61521	37161.7875
1506.99934	39027.0875
1510.38121	40343.3875
1513.76081	40150.0875
1517.13816	38269.4875
1520.51324	35684.4875
1523.88607	33685.0875
1527.25665	32908.6875
1530.62498	32728.7875
1533.99105	32538.7875
1537.35488	31887.5875
1540.71647	30782.5875
1544.07581	29327.8875
1547.4329	28048.6875
1550.78776	26960.7875
1554.14038	26216.4875
1557.49077	25872.4875
1560.83892	25887.6875
1564.18484	26266.9875
1567.52853	26911.6875
1570.86999	27616.8875
1574.20922	28310.9875
1577.54624	28672.0875
1580.88103	28146.3875
1584.2136	27659.3875
1587.54395	28281.7875
1590.87208	30233.8875
1594.19801	33086.3875
1597.52172	36144.8875
1600.84321	37227.6875
1604.16251	35114.9875
1607.47959	31244.4875
1610.79447	27096.1875
1614.10715	23619.3875
1617.41763	21100.9875
1620.7259	19615.0875
1624.03199	18970.1875
1627.33587	19107.5875
1630.63757	20097.1875
1633.93707	22158.3875
1637.23439	25883.5875
1640.52951	31733.3875
1643.82246	39154.5875
1647.11321	45296.3875
1650.40179	46505.6875
1653.68819	41587.6875
1656.97241	33466.7875
1660.25446	26134.0875
1663.53433	21069.4875
1666.81203	18082.8875
1670.08756	16318.6875
1673.36092	15311.6875
1676.63211	14641.9875
1679.90115	14171.3875
1683.16801	13843.2875
1686.43272	13577.9875
1689.69527	13409.3875
1692.95567	13230.8875
1696.2139	13146.9875
1699.46999	13034.1875
1702.72392	12981.7875
1705.97571	12946.0875
1709.22535	12908.0875
1712.47284	12882.0875
1715.71819	12857.8875
1718.96139	12811.6875
1722.20246	12743.0875
1725.44139	12704.4875
1728.67818	12514.0875
1731.91284	12423.2875
1735.14537	12303.6875
1738.37576	12192.1875
1741.60403	12109.7875
1744.83017	12091.6875
1748.05418	12028.6875
1751.27607	11951.4875
1754.49584	11945.9875
1757.71349	11932.3875
1760.92903	11893.5875
1764.14244	11896.7875
1767.35375	11854.9875
1770.56294	11849.6875
1773.77002	11804.1875
1776.97499	11767.4875
1780.17785	11759.6875
1783.37861	11695.5875
1786.57727	11697.3875
1789.77382	11657.2875
1792.96828	11612.8875
1796.16064	11585.7875
1799.3509	11575.4875
1802.53907	11530.2875
1805.72514	11454.9875
1808.90913	11431.5875
1812.09102	11393.0875
1815.27083	11386.9875
1818.44856	11376.5875
1821.6242	11331.8875
1824.79776	11311.5875
1827.96924	11304.2875
1831.13864	11288.4875
1834.30597	11288.3875
1837.47122	11281.2875
1840.6344	11259.7875
1843.7955	11294.7875
1846.95454	11272.7875
1850.11151	11248.7875
1853.26642	11266.4875
1856.41926	11250.2875
1859.57004	11231.3875
1862.71876	11218.8875
1865.86542	11214.2875
1869.01003	11205.9875
1872.15258	11205.6875
1875.29308	11201.3875
1878.43152	11180.5875
1881.56792	11178.7875
1884.70227	11184.0875
1887.83457	11183.5875
1890.96482	11197.9875
1894.09304	11152.7875
1897.21921	11161.2875
1900.34335	11164.3875
1903.46544	11162.8875
1906.58551	11159.2875
1909.70353	11127.5875
1912.81953	11101.6875
1915.93349	11080.4875
1919.04543	11027.0875
1922.15534	11022.4875
1925.26322	10974.4875
1928.36908	10933.9875
1931.47292	10889.1875
1934.57473	10858.2875
1937.67453	10813.2875
1940.77232	10812.0875
1943.86808	10779.5875
1946.96184	10737.9875
1950.05358	10697.6875
1953.14331	10702.2875
1956.23103	10663.9875
1959.31675	10614.8875
1962.40046	10589.8875
1965.48217	10585.0875
1968.56188	10556.6875
1971.63959	10521.7875
1974.7153	10460.5875
1977.78901	10418.0875
1980.86073	10406.3875
1983.93046	10351.6875
1986.99819	10324.4875
1990.06394	10270.1875
1993.1277	10255.1875
1996.18947	10222.7875
1999.24925	10174.7875
2002.30706	10146.1875
2005.36288	10104.3875
2008.41672	10073.4875
2011.46859	10059.7875
2014.51848	10014.8875
2017.56639	9989.9875
2020.61233	9966.3875
2023.6563	9928.1875
2026.6983	9903.6875
2029.73833	9900.3875
2032.7764	9866.5875
2035.8125	9846.3875
2038.84664	9801.3875
2041.87881	9775.5875
2044.90903	9785.4875
2047.93729	9762.7875
2050.96359	9743.3875
2053.98794	9734.1875
2057.01034	9741.7875
2060.03078	9703.7875
2063.04927	9695.0875
2066.06582	9702.1875
2069.08042	9679.9875
2072.09307	9679.1875
2075.10378	9670.0875
2078.11255	9696.3875
2081.11938	9695.2875
2084.12426	9688.4875
2087.12722	9695.1875
2090.12824	9694.4875
2093.12732	9702.7875
2096.12447	9708.5875
2099.11969	9700.1875
2102.11299	9709.6875
2105.10435	9690.0875
2108.09379	9700.7875
2111.08131	9698.8875
2114.0669	9713.2875
2117.05057	9694.7875
2120.03233	9684.1875
2123.01216	9700.7875
2125.99008	9698.5875
2128.96609	9669.3875
2131.94018	9694.3875
2134.91236	9714.7875
2137.88263	9695.2875
2140.851	9674.6875
2143.81746	9648.5875
2146.78201	9671.9875
2149.74466	9659.7875
2152.7054	9645.9875
2155.66425	9636.4875
2158.6212	9622.7875
2161.57625	9597.0875
2164.52941	9567.7875
2167.48067	9571.6875
2170.43004	9585.0875
2173.37752	9594.3875
2176.32311	9592.0875
2179.26681	9582.5875
2182.20863	9572.7875
2185.14856	9560.9875
2188.08661	9552.1875
2191.02278	9554.5875
2193.95707	9558.3875
2196.88948	9533.4875
2199.82001	9512.8875
2202.74867	9480.2875
2205.67545	9483.1875
2208.60037	9455.8875
2211.52341	9449.2875
2214.44458	9448.3875
2217.36388	9432.5875
2220.28132	9419.3875
2223.1969	9376.3875
2226.11061	9364.0875
2229.02246	9366.9875
2231.93245	9362.3875
2234.84058	9345.6875
2237.74686	9338.2875
2240.65128	9356.1875
2243.55385	9333.6875
2246.45456	9323.9875
2249.35343	9281.5875
2252.25044	9257.3875
2255.14561	9260.1875
2258.03893	9229.6875
2260.93041	9218.1875
2263.82004	9166.7875
2266.70783	9168.0875
2269.59378	9171.3875
2272.4779	9116.0875
2275.36017	9090.3875
2278.24061	9085.5875
2281.11922	9067.4875
2283.996	9040.8875
2286.87094	9018.5875
2289.74405	9024.0875
2292.61534	8981.0875
2295.4848	8974.0875
2298.35243	9001.4875
2301.21824	8992.3875
2304.08223	8969.9875
2306.94439	8962.3875
2309.80474	8975.6875
2312.66327	8984.2875
2315.51999	9001.2875
2318.37489	8961.4875
2321.22797	8951.2875
2324.07925	8972.3875
2326.92871	8925.8875
2329.77637	8952.2875
2332.62222	8916.7875
2335.46626	8919.0875
2338.3085	8903.1875
2341.14893	8924.9875
2343.98756	8926.4875
2346.8244	8940.3875
2349.65943	8926.8875
2352.49267	8946.6875
2355.32411	8933.4875
2358.15376	8938.6875
2360.98161	8917.6875
2363.80768	8928.3875
2366.63195	8918.0875
2369.45444	8934.2875
2372.27514	8922.0875
2375.09405	8906.6875
2377.91118	8881.9875
2380.72652	8850.8875
2383.54009	8831.9875
2386.35187	8826.1875
2389.16188	8786.5875
2391.97011	8774.2875
2394.77657	8751.6875
2397.58125	8733.7875
2400.38416	8726.5875
2403.18529	8712.3875
2405.98466	8711.2875
2408.78226	8672.5875
2411.57809	8672.6875
2414.37216	8670.1875
2417.16446	8665.0875
2419.955	8635.3875
2422.74378	8624.6875
2425.5308	8626.5875
2428.31606	8629.9875
2431.09956	8624.6875
2433.88131	8607.4875
2436.6613	8606.6875
2439.43954	8592.6875
2442.21603	8593.5875
2444.99077	8631.5875
2447.76377	8634.1875
2450.53501	8645.2875
2453.30451	8653.8875
2456.07226	8645.1875
2458.83827	8648.0875
2461.60254	8650.6875
2464.36507	8629.1875
2467.12586	8639.1875
2469.88492	8640.6875
2472.64224	8631.1875
2475.39782	8638.0875
2478.15167	8657.1875
2480.90379	8640.1875
2483.65417	8689.7875
2486.40283	8677.6875
2489.14976	8685.4875
2491.89497	8687.0875
2494.63845	8704.9875
2497.3802	8682.0875
2500.12024	8714.6875
2502.85855	8691.9875
2505.59514	8690.3875
2508.33002	8676.2875
2511.06318	8640.0875
2513.79462	8624.4875
2516.52435	8627.0875
2519.25237	8591.2875
2521.97867	8592.5875
2524.70327	8583.1875
2527.42616	8587.5875
2530.14734	8573.2875
2532.86681	8574.8875
2535.58458	8580.1875
2538.30065	8559.0875
2541.01501	8561.1875
2543.72768	8577.6875
2546.43864	8571.9875
2549.14791	8566.1875
2551.85548	8560.9875
2554.56136	8552.8875
2557.26554	8551.6875
2559.96803	8554.6875
2562.66883	8546.5875
2565.36794	8570.1875
2568.06536	8565.1875
2570.7611	8538.9875
2573.45514	8534.0875
2576.14751	8541.0875
2578.83819	8537.1875
2581.52719	8545.4875
2584.21451	8525.3875
2586.90015	8506.1875
2589.58411	8492.3875
2592.2664	8494.5875
2594.94701	8480.9875
2597.62594	8471.8875
2600.30321	8478.9875
2602.9788	8483.6875
2605.65273	8470.5875
2608.32498	8475.1875
2610.99557	8468.7875
2613.66449	8477.5875
2616.33175	8503.2875
2618.99734	8505.4875
2621.66128	8468.3875
2624.32355	8495.9875
2626.98416	8490.4875
2629.64311	8487.9875
2632.30041	8495.7875
2634.95605	8460.3875
2637.61004	8439.5875
2640.26238	8455.7875
2642.91306	8456.6875
2645.56209	8450.3875
2648.20948	8451.9875
2650.85521	8464.4875
2653.4993	8487.5875
2656.14175	8495.1875
2658.78255	8508.4875
2661.42171	8509.7875
2664.05923	8543.3875
2666.6951	8539.8875
2669.32934	8549.9875
2671.96194	8527.4875
2674.59291	8549.2875
2677.22224	8526.2875
2679.84993	8542.2875
2682.476	8515.5875
2685.10043	8531.8875
2687.72324	8522.9875
2690.34441	8512.3875
2692.96396	8519.2875
2695.58188	8524.9875
2698.19818	8523.9875
2700.81285	8534.2875
2703.4259	8503.7875
2706.03733	8504.7875
2708.64714	8511.0875
2711.25533	8518.1875
2713.86191	8529.9875
2716.46687	8530.6875
2719.07021	8535.8875
2721.67194	8572.6875
2724.27206	8582.1875
2726.87057	8556.9875
2729.46747	8557.5875
2732.06276	8582.4875
2734.65644	8560.1875
2737.24852	8560.1875
2739.83899	8556.9875
2742.42786	8563.2875
2745.01513	8542.0875
2747.60079	8538.4875
2750.18486	8539.0875
2752.76733	8552.4875
2755.3482	8560.8875
2757.92747	8566.1875
2760.50515	8559.2875
2763.08123	8573.1875
2765.65573	8563.9875
2768.22863	8537.5875
2770.79994	8553.5875
2773.36967	8551.6875
2775.9378	8543.0875
2778.50435	8539.1875
2781.06932	8527.1875
2783.6327	8536.7875
2786.1945	8547.5875
2788.75471	8531.1875
2791.31335	8495.3875
2793.87041	8515.9875
2796.42589	8500.5875
2798.97979	8513.9875
2801.53212	8473.5875
2804.08288	8483.4875
2806.63206	8495.0875
2809.17967	8471.4875
2811.72571	8472.7875
2814.27018	8441.3875
2816.81308	8437.9875
2819.35442	8444.2875
2821.89419	8428.0875
2824.43239	8434.5875
2826.96904	8433.2875
2829.50412	8423.7875
2832.03763	8405.0875
2834.56959	8433.1875
2837.1	8428.5875
2839.62884	8429.4875
2842.15613	8394.2875
2844.68186	8415.3875
2847.20604	8415.8875
2849.72867	8412.5875
2852.24974	8411.7875
2854.76927	8414.4875
2857.28724	8412.8875
2859.80367	8420.6875
2862.31855	8423.0875
2864.83189	8403.6875
2867.34368	8394.8875
2869.85393	8424.0875
2872.36264	8401.4875
2874.8698	8417.4875
2877.37543	8439.5875
2879.87952	8414.2875
2882.38207	8422.6875
2884.88308	8400.0875
2887.38256	8408.5875
2889.88051	8408.2875
2892.37692	8401.0875
2894.8718	8417.2875
2897.36515	8443.9875
2899.85698	8417.6875
2902.34727	8462.3875
2904.83604	8450.6875
2907.32328	8467.3875
2909.809	8454.5875
2912.29319	8458.4875
2914.77587	8443.5875
2917.25702	8445.7875
2919.73665	8440.2875
2922.21476	8456.1875
2924.69136	8423.7875
2927.16644	8437.7875
2929.64	8383.1875
2932.11205	8374.5875
2934.58258	8350.4875
2937.05161	8379.5875
2939.51912	8363.7875
2941.98513	8356.8875
2944.44962	8340.0875
2946.91261	8300.9875
2949.37409	8320.1875
2951.83407	8325.8875
2954.29254	8332.6875
2956.74951	8302.6875
2959.20498	8275.5875
2961.65895	8229.6875
2964.11142	8250.6875
2966.56239	8194.8875
2969.01186	8202.4875
2971.45984	8168.9875
2973.90632	8155.2875
2976.35131	8120.0875
2978.7948	8091.1875
2981.23681	8064.0875
2983.67732	8041.3875
2986.11635	8017.4875
2988.55388	7984.6875
2990.98993	7956.7875
2993.4245	7930.6875
2995.85758	7927.6875
2998.28917	7937.8875
3000.71928	7923.0875
3003.14791	7910.1875
3005.57506	7885.9875
3008.00073	7852.1875
3010.42493	7882.6875
3012.84764	7850.4875
3015.26888	7843.5875
3017.68865	7795.9875
3020.10694	7811.3875
3022.52376	7789.6875
3024.9391	7757.3875
3027.35298	7745.3875
3029.76539	7744.8875
3032.17632	7730.6875
3034.5858	7706.6875
3036.9938	7700.9875
3039.40034	7706.2875
3041.80542	7676.1875
3044.20903	7673.3875
3046.61118	7647.1875
3049.01187	7634.9875
3051.4111	7641.2875
3053.80888	7592.7875
3056.20519	7577.3875
3058.60005	7573.5875
3060.99345	7577.0875
3063.3854	7543.7875
3065.7759	7511.6875
3068.16494	7509.2875
3070.55254	7490.3875
3072.93868	7464.2875
3075.32338	7435.6875
3077.70662	7440.3875
3080.08842	7403.2875
3082.46878	7423.0875
3084.84769	7409.1875
3087.22515	7385.0875
3089.60118	7368.7875
3091.97576	7368.4875
3094.3489	7336.8875
3096.72061	7348.4875
3099.09087	7336.8875
3101.4597	7337.8875
3103.82709	7313.3875
3106.19305	7288.1875
3108.55757	7250.3875
3110.92066	7247.9875
3113.28232	7242.6875
3115.64255	7209.2875
3118.00134	7205.3875
3120.35871	7204.1875
3122.71466	7177.6875
3125.06917	7191.7875
3127.42226	7177.8875
3129.77393	7170.0875
3132.12417	7168.9875
3134.47299	7168.8875
3136.82039	7149.7875
3139.16636	7183.6875
3141.51092	7151.6875
3143.85406	7152.3875
3146.19579	7139.3875
3148.53609	7137.0875
3150.87499	7135.0875
3153.21246	7116.3875
3155.54853	7141.3875
3157.88318	7124.7875
3160.21642	7130.1875
3162.54826	7106.3875
3164.87868	7099.2875
3167.2077	7068.7875
3169.5353	7068.7875
3171.86151	7084.8875
3174.18631	7068.1875
3176.5097	7058.5875
3178.83169	7070.0875
3181.15228	7064.6875
3183.47147	7072.5875
3185.78926	7058.7875
3188.10565	7057.6875
3190.42065	7061.1875
3192.73424	7045.2875
3195.04645	7041.8875
3197.35725	7052.6875
3199.66667	7045.1875
3201.97469	7052.4875
3204.28132	7022.3875
3206.58656	7049.8875
3208.8904	7040.2875
3211.19287	7029.4875
3213.49394	7019.7875
3215.79363	7022.6875
3218.09193	7026.7875
3220.38884	7011.2875
3222.68438	7024.4875
3224.97853	7007.9875
3227.2713	6979.5875
3229.56269	6984.4875
3231.8527	7000.7875
3234.14133	6988.9875
3236.42858	6966.3875
3238.71446	6986.5875
3240.99896	6974.1875
3243.28209	6962.9875
3245.56384	6975.2875
3247.84423	6968.3875
3250.12324	6928.3875
3252.40088	6919.3875
3254.67715	6890.8875
3256.95205	6877.3875
3259.22558	6861.4875
3261.49775	6875.1875
3263.76855	6853.5875
3266.03799	6816.5875
3268.30606	6843.3875
3270.57277	6841.4875
3272.83812	6805.2875
3275.10211	6794.4875
3277.36474	6798.7875
3279.62601	6822.7875
3281.88593	6811.2875
3284.14448	6827.9875
3286.40168	6831.5875
3288.65753	6816.2875
3290.91202	6822.1875
3293.16516	6800.5875
3295.41695	6793.0875
3297.66738	6737.2875
3299.91647	6714.6875
3302.16421	6698.0875
3304.4106	6662.9875
3306.65564	6632.7875
3308.89933	6577.7875
3311.14169	6544.8875
3313.38269	6474.9875
3315.62236	6446.7875
3317.86068	6366.1875
3320.09766	6310.0875
3322.3333	6254.8875
3324.5676	6268.8875
3326.80056	6132.9875
3329.03219	6108.1875
3331.26248	2.1875
3333.49143	-1.6125
3335.71905	1.5875
