Data from AgNP_FTO_APTES_UA_100uM_CRN_0uM_R6G_10uM_NaF_0.1M_Addition_RamanShift__49__11-42-20-146.txt Node

Date: Thu Mar 24 11:42:20 GMT 2022
User: TCL
Spectrometer: QEP01345
Trigger mode: 4
Integration Time (sec): 7.000000E0
Scans to average: 10
Electric dark correction enabled: true
Nonlinearity correction enabled: false
Boxcar width: 0
XAxis mode: Raman Shifts
Number of Pixels in Spectrum: 1044
>>>>>Begin Spectral Data<<<<<
46.04893	-1.2625
50.45542	-0.7625
54.85868	-0.4625
59.25871	-0.1625
63.6555	49.8375
68.04907	53.3375
72.43941	56.4375
76.82654	54.0375
81.21044	57.7375
85.59113	59.4375
89.96862	62.2375
94.34289	59.4375
98.71396	68.1375
103.08183	65.5375
107.4465	68.3375
111.80798	73.4375
116.16626	69.4375
120.52136	75.9375
124.87327	76.4375
129.222	79.5375
133.56755	90.0375
137.90993	90.0375
142.24913	107.4375
146.58517	115.8375
150.91804	136.4375
155.24774	170.0375
159.57429	206.9375
163.89768	270.1375
168.21792	364.5375
172.53501	488.4375
176.84895	693.0375
181.15975	963.7375
185.46741	1369.5375
189.77193	1862.6375
194.07331	2500.2375
198.37157	3223.3375
202.6667	3958.4375
206.9587	4713.0375
211.24758	5484.6375
215.53334	6306.7375
219.81599	7158.3375
224.09553	8129.6375
228.37195	9237.2375
232.64527	10395.5375
236.91549	11605.6375
241.18261	12742.3375
245.44663	13712.9375
249.70755	14451.5375
253.96539	15032.8375
258.22014	15549.1375
262.4718	15978.8375
266.72039	16250.0375
270.96589	16345.0375
275.20832	16252.2375
279.44768	16053.3375
283.68397	15774.6375
287.91719	15589.2375
292.14735	15468.6375
296.37445	15516.6375
300.59849	15791.1375
304.81948	16127.3375
309.03742	16431.0375
313.25231	16583.7375
317.46415	16488.3375
321.67296	16197.7375
325.87872	15906.3375
330.08145	15807.4375
334.28114	15777.3375
338.47781	15902.7375
342.67145	16101.4375
346.86207	16446.6375
351.04966	16927.2375
355.23424	17352.2375
359.4158	17667.7375
363.59435	17752.1375
367.76989	17784.3375
371.94243	17730.4375
376.11196	17704.8375
380.27849	17744.3375
384.44203	17833.9375
388.60257	17915.6375
392.76012	17963.6375
396.91468	18056.6375
401.06626	18303.2375
405.21485	18490.5375
409.36047	18244.6375
413.50311	17692.8375
417.64277	17364.0375
421.77947	17267.2375
425.9132	17324.1375
430.04396	17485.0375
434.17176	17684.1375
438.2966	18129.7375
442.41849	18904.5375
446.53742	20038.4375
450.6534	21202.7375
454.76644	21712.9375
458.87653	21588.5375
462.98368	20962.8375
467.08789	20293.8375
471.18916	19597.9375
475.2875	18889.5375
479.38291	18318.4375
483.4754	17843.4375
487.56496	17440.5375
491.6516	17137.9375
495.73531	16858.6375
499.81612	16739.8375
503.89401	16779.1375
507.96899	16877.3375
512.04106	16811.9375
516.11023	16673.5375
520.1765	16610.2375
524.23987	16691.2375
528.30034	16878.0375
532.35792	16928.9375
536.41261	16563.0375
540.46441	16094.1375
544.51333	15803.0375
548.55936	15843.0375
552.60252	16358.0375
556.64279	17156.9375
560.6802	17916.4375
564.71473	18222.1375
568.7464	18627.3375
572.7752	19462.1375
576.80114	20000.7375
580.82422	20426.3375
584.84444	21507.4375
588.86181	23926.4375
592.87633	27362.4375
596.888	29152.7375
600.89682	26933.5375
604.9028	24344.0375
608.90594	25497.9375
612.90624	28214.6375
616.90371	26217.1375
620.89834	20193.6375
624.89015	17138.4375
628.87913	16648.5375
632.86528	16771.3375
636.84862	16733.6375
640.82913	16188.2375
644.80683	15392.1375
648.78172	14945.0375
652.75379	14973.6375
656.72306	15425.8375
660.68952	15981.7375
664.65319	15811.8375
668.61405	15140.5375
672.57211	14976.9375
676.52738	15086.7375
680.47986	15083.1375
684.42955	14800.9375
688.37646	14664.5375
692.32058	14809.2375
696.26192	15194.5375
700.20048	15591.9375
704.13626	15845.5375
708.06928	15780.8375
711.99952	15687.5375
715.927	15773.0375
719.85171	15941.3375
723.77365	15912.8375
727.69284	15587.0375
731.60928	15381.3375
735.52295	15477.6375
739.43388	15680.8375
743.34206	15815.4375
747.24749	15891.9375
751.15017	16020.3375
755.05012	16365.6375
758.94733	16987.1375
762.8418	18450.4375
766.73354	20868.2375
770.62254	23165.5375
774.50882	23723.5375
778.39237	22353.1375
782.27321	20072.6375
786.15132	17953.7375
790.02671	16569.7375
793.89938	15797.7375
797.76935	15419.4375
801.6366	15233.4375
805.50115	15144.1375
809.36299	15026.8375
813.22213	14895.0375
817.07857	14801.8375
820.93231	14720.0375
824.78336	14659.0375
828.63172	14628.5375
832.47738	14636.3375
836.32036	14686.1375
840.16066	14684.4375
843.99827	14696.9375
847.8332	14676.1375
851.66546	14647.1375
855.49504	14673.1375
859.32195	14633.1375
863.1462	14542.7375
866.96777	14447.9375
870.78668	14392.0375
874.60293	14444.4375
878.41652	14493.7375
882.22745	14641.3375
886.03573	14807.9375
889.84136	14738.3375
893.64433	14661.6375
897.44466	14602.5375
901.24235	14541.9375
905.0374	14467.6375
908.8298	14358.2375
912.61957	14283.3375
916.40671	14369.2375
920.19121	14623.1375
923.97308	14977.4375
927.75233	15204.7375
931.52895	15110.5375
935.30295	14672.3375
939.07433	14165.8375
942.84309	13873.9375
946.60924	13699.5375
950.37278	13690.3375
954.13371	13682.1375
957.89203	13704.8375
961.64774	13688.8375
965.40086	13714.0375
969.15137	13729.2375
972.89929	13671.9375
976.64461	13617.3375
980.38733	13625.3375
984.12747	13686.9375
987.86502	13781.6375
991.59999	13944.1375
995.33237	14232.7375
999.06217	14799.6375
1002.78939	15502.8375
1006.51404	16228.5375
1010.23611	16760.5375
1013.95561	17129.0375
1017.67255	17087.3375
1021.38692	16532.5375
1025.09872	15745.9375
1028.80796	15234.1375
1032.51465	15167.3375
1036.21877	15250.4375
1039.92035	15362.8375
1043.61937	15388.8375
1047.31584	15336.5375
1051.00976	15258.9375
1054.70114	15207.1375
1058.38998	15171.7375
1062.07627	15211.9375
1065.76003	15369.0375
1069.44126	15660.1375
1073.11995	16008.1375
1076.79611	16434.6375
1080.46974	16729.3375
1084.14085	17170.4375
1087.80943	17624.6375
1091.47549	17844.0375
1095.13903	17720.6375
1098.80005	17136.3375
1102.45857	16520.3375
1106.11456	16237.2375
1109.76805	16289.2375
1113.41903	16547.6375
1117.06751	16903.4375
1120.71348	17339.1375
1124.35696	17821.4375
1127.99793	18270.8375
1131.63641	18257.0375
1135.2724	17976.8375
1138.90589	17695.7375
1142.5369	17641.6375
1146.16542	17822.8375
1149.79145	18176.4375
1153.415	18455.4375
1157.03607	18687.2375
1160.65467	19213.0375
1164.27079	20231.0375
1167.88443	21848.8375
1171.49561	24121.2375
1175.10432	27477.0375
1178.71056	31743.9375
1182.31434	35367.2375
1185.91565	36265.0375
1189.51451	34591.9375
1193.11091	32027.6375
1196.70485	29528.9375
1200.29634	27443.0375
1203.88538	25774.1375
1207.47197	24540.6375
1211.05612	23729.6375
1214.63782	23341.6375
1218.21708	23362.2375
1221.79391	23801.2375
1225.36829	24398.9375
1228.94024	24443.4375
1232.50976	23500.0375
1236.07685	22220.6375
1239.6415	21416.8375
1243.20374	21184.5375
1246.76355	21176.5375
1250.32093	21320.4375
1253.8759	21841.4375
1257.42845	22641.1375
1260.97859	23715.4375
1264.52631	24889.4375
1268.07163	26063.1375
1271.61453	27054.9375
1275.15503	27947.7375
1278.69312	28881.7375
1282.22882	30133.9375
1285.76211	32120.3375
1289.29301	34509.6375
1292.82151	37209.0375
1296.34761	40068.8375
1299.87133	43375.3375
1303.39266	47086.3375
1306.9116	51016.5375
1310.42815	54903.1375
1313.94233	57168.8375
1317.45412	56111.8375
1320.96354	52655.7375
1324.47058	48770.5375
1327.97525	45414.3375
1331.47754	42874.7375
1334.97747	41330.6375
1338.47502	40373.4375
1341.97022	39566.6375
1345.46305	39084.7375
1348.95352	39496.6375
1352.44163	41394.5375
1355.92738	45459.1375
1359.41078	51174.1375
1362.89183	56160.2375
1366.37053	56225.5375
1369.84688	49914.1375
1373.32088	41508.0375
1376.79254	36256.6375
1380.26186	34423.8375
1383.72883	33893.3375
1387.19347	33187.2375
1390.65578	32274.8375
1394.11575	32029.8375
1397.57339	32499.5375
1401.0287	33117.6375
1404.48168	33486.6375
1407.93234	33211.6375
1411.38068	32420.1375
1414.82669	31406.6375
1418.27039	30214.1375
1421.71177	28878.3375
1425.15083	27699.0375
1428.58758	27289.2375
1432.02203	27776.3375
1435.45416	28775.0375
1438.88399	29626.8375
1442.31151	29995.4375
1445.73673	30131.4375
1449.15965	30224.2375
1452.58027	30018.4375
1455.9986	29402.2375
1459.41463	29207.2375
1462.82837	29720.1375
1466.23982	30824.1375
1469.64898	31932.6375
1473.05586	32846.7375
1476.46045	33459.2375
1479.86276	33831.8375
1483.26279	34088.3375
1486.66054	34432.7375
1490.05602	35240.9375
1493.44922	36119.0375
1496.84016	36611.9375
1500.22882	36916.2375
1503.61521	37613.8375
1506.99934	38925.6375
1510.38121	40074.8375
1513.76081	39998.8375
1517.13816	38336.1375
1520.51324	35852.5375
1523.88607	34082.5375
1527.25665	33486.6375
1530.62498	33510.0375
1533.99105	33353.3375
1537.35488	32715.7375
1540.71647	31591.5375
1544.07581	30261.2375
1547.4329	28893.1375
1550.78776	27681.9375
1554.14038	26782.7375
1557.49077	26274.0375
1560.83892	26095.2375
1564.18484	26356.0375
1567.52853	26966.5375
1570.86999	27790.2375
1574.20922	28549.7375
1577.54624	28909.3375
1580.88103	28535.0375
1584.2136	28189.8375
1587.54395	29062.9375
1590.87208	31438.2375
1594.19801	35021.5375
1597.52172	38806.9375
1600.84321	40491.0375
1604.16251	38412.8375
1607.47959	33757.6375
1610.79447	28574.9375
1614.10715	24378.4375
1617.41763	21625.4375
1620.7259	20102.0375
1624.03199	19573.8375
1627.33587	19749.0375
1630.63757	20877.6375
1633.93707	23159.3375
1637.23439	27211.9375
1640.52951	33664.8375
1643.82246	42046.7375
1647.11321	49135.7375
1650.40179	50350.5375
1653.68819	44567.0375
1656.97241	35361.4375
1660.25446	27228.3375
1663.53433	21896.4375
1666.81203	18767.0375
1670.08756	17024.1375
1673.36092	15953.4375
1676.63211	15292.9375
1679.90115	14862.6375
1683.16801	14526.0375
1686.43272	14280.4375
1689.69527	14060.5375
1692.95567	13935.2375
1696.2139	13838.9375
1699.46999	13740.2375
1702.72392	13681.8375
1705.97571	13635.5375
1709.22535	13615.3375
1712.47284	13560.8375
1715.71819	13552.1375
1718.96139	13500.7375
1722.20246	13433.4375
1725.44139	13329.4375
1728.67818	13197.3375
1731.91284	13102.2375
1735.14537	12985.0375
1738.37576	12917.6375
1741.60403	12831.4375
1744.83017	12783.9375
1748.05418	12743.5375
1751.27607	12700.4375
1754.49584	12663.9375
1757.71349	12625.0375
1760.92903	12608.3375
1764.14244	12601.2375
1767.35375	12589.8375
1770.56294	12540.9375
1773.77002	12507.3375
1776.97499	12479.9375
1780.17785	12451.9375
1783.37861	12408.1375
1786.57727	12363.1375
1789.77382	12354.0375
1792.96828	12316.4375
1796.16064	12283.5375
1799.3509	12236.4375
1802.53907	12220.3375
1805.72514	12170.9375
1808.90913	12157.1375
1812.09102	12141.0375
1815.27083	12086.0375
1818.44856	12059.8375
1821.6242	12035.9375
1824.79776	12021.7375
1827.96924	12021.0375
1831.13864	11992.2375
1834.30597	11994.0375
1837.47122	11942.5375
1840.6344	11954.9375
1843.7955	11956.1375
1846.95454	11927.5375
1850.11151	11916.1375
1853.26642	11912.7375
1856.41926	11915.5375
1859.57004	11936.6375
1862.71876	11900.9375
1865.86542	11882.5375
1869.01003	11888.1375
1872.15258	11886.1375
1875.29308	11875.9375
1878.43152	11876.4375
1881.56792	11914.0375
1884.70227	11932.5375
1887.83457	11914.5375
1890.96482	11915.7375
1894.09304	11902.0375
1897.21921	11953.2375
1900.34335	11911.4375
1903.46544	11930.4375
1906.58551	11941.6375
1909.70353	11903.3375
1912.81953	11846.3375
1915.93349	11819.7375
1919.04543	11835.1375
1922.15534	11759.4375
1925.26322	11736.2375
1928.36908	11699.7375
1931.47292	11666.5375
1934.57473	11614.0375
1937.67453	11573.0375
1940.77232	11541.3375
1943.86808	11509.4375
1946.96184	11483.0375
1950.05358	11452.3375
1953.14331	11431.1375
1956.23103	11425.9375
1959.31675	11405.7375
1962.40046	11343.6375
1965.48217	11335.1375
1968.56188	11290.1375
1971.63959	11260.8375
1974.7153	11234.2375
1977.78901	11198.4375
1980.86073	11131.0375
1983.93046	11069.9375
1986.99819	11026.4375
1990.06394	11007.3375
1993.1277	10963.3375
1996.18947	10902.3375
1999.24925	10871.0375
2002.30706	10838.1375
2005.36288	10829.2375
2008.41672	10807.1375
2011.46859	10767.8375
2014.51848	10741.9375
2017.56639	10696.1375
2020.61233	10688.3375
2023.6563	10655.4375
2026.6983	10613.6375
2029.73833	10613.3375
2032.7764	10569.0375
2035.8125	10551.9375
2038.84664	10524.2375
2041.87881	10525.7375
2044.90903	10508.6375
2047.93729	10487.3375
2050.96359	10466.7375
2053.98794	10466.0375
2057.01034	10437.6375
2060.03078	10431.4375
2063.04927	10408.9375
2066.06582	10416.0375
2069.08042	10425.4375
2072.09307	10403.0375
2075.10378	10404.3375
2078.11255	10413.8375
2081.11938	10431.1375
2084.12426	10434.4375
2087.12722	10431.0375
2090.12824	10423.2375
2093.12732	10434.3375
2096.12447	10453.6375
2099.11969	10448.6375
2102.11299	10449.7375
2105.10435	10446.0375
2108.09379	10446.2375
2111.08131	10431.0375
2114.0669	10397.8375
2117.05057	10426.2375
2120.03233	10410.0375
2123.01216	10398.2375
2125.99008	10403.6375
2128.96609	10439.1375
2131.94018	10408.0375
2134.91236	10384.1375
2137.88263	10376.9375
2140.851	10379.8375
2143.81746	10393.6375
2146.78201	10419.0375
2149.74466	10361.1375
2152.7054	10350.5375
2155.66425	10352.6375
2158.6212	10354.0375
2161.57625	10328.8375
2164.52941	10288.6375
2167.48067	10270.3375
2170.43004	10293.5375
2173.37752	10292.9375
2176.32311	10279.0375
2179.26681	10297.9375
2182.20863	10279.9375
2185.14856	10298.3375
2188.08661	10288.4375
2191.02278	10281.4375
2193.95707	10271.4375
2196.88948	10279.3375
2199.82001	10252.9375
2202.74867	10249.7375
2205.67545	10209.2375
2208.60037	10205.8375
2211.52341	10173.0375
2214.44458	10177.9375
2217.36388	10138.4375
2220.28132	10133.7375
2223.1969	10080.8375
2226.11061	10082.6375
2229.02246	10049.7375
2231.93245	10063.5375
2234.84058	10065.5375
2237.74686	10083.1375
2240.65128	10085.1375
2243.55385	10070.8375
2246.45456	10046.1375
2249.35343	10018.4375
2252.25044	9987.9375
2255.14561	9948.9375
2258.03893	9923.4375
2260.93041	9919.9375
2263.82004	9914.9375
2266.70783	9878.6375
2269.59378	9829.1375
2272.4779	9790.2375
2275.36017	9752.3375
2278.24061	9762.1375
2281.11922	9737.9375
2283.996	9727.4375
2286.87094	9720.7375
2289.74405	9687.8375
2292.61534	9685.5375
2295.4848	9657.0375
2298.35243	9667.6375
2301.21824	9647.3375
2304.08223	9674.4375
2306.94439	9668.4375
2309.80474	9674.4375
2312.66327	9657.9375
2315.51999	9644.0375
2318.37489	9657.5375
2321.22797	9663.0375
2324.07925	9624.1375
2326.92871	9620.3375
2329.77637	9626.9375
2332.62222	9604.0375
2335.46626	9601.8375
2338.3085	9611.3375
2341.14893	9595.0375
2343.98756	9594.1375
2346.8244	9604.6375
2349.65943	9619.5375
2352.49267	9616.4375
2355.32411	9601.6375
2358.15376	9616.2375
2360.98161	9589.1375
2363.80768	9605.5375
2366.63195	9602.3375
2369.45444	9582.6375
2372.27514	9604.8375
2375.09405	9588.2375
2377.91118	9574.2375
2380.72652	9523.5375
2383.54009	9516.5375
2386.35187	9505.8375
2389.16188	9471.6375
2391.97011	9440.0375
2394.77657	9434.0375
2397.58125	9429.9375
2400.38416	9412.2375
2403.18529	9373.3375
2405.98466	9388.2375
2408.78226	9353.9375
2411.57809	9342.2375
2414.37216	9329.4375
2417.16446	9319.4375
2419.955	9305.9375
2422.74378	9319.6375
2425.5308	9313.1375
2428.31606	9331.7375
2431.09956	9302.7375
2433.88131	9289.7375
2436.6613	9284.6375
2439.43954	9282.3375
2442.21603	9284.1375
2444.99077	9287.7375
2447.76377	9317.8375
2450.53501	9319.2375
2453.30451	9310.7375
2456.07226	9337.4375
2458.83827	9345.0375
2461.60254	9332.9375
2464.36507	9316.9375
2467.12586	9323.0375
2469.88492	9335.3375
2472.64224	9327.5375
2475.39782	9352.5375
2478.15167	9361.6375
2480.90379	9370.3375
2483.65417	9356.9375
2486.40283	9370.2375
2489.14976	9374.4375
2491.89497	9377.7375
2494.63845	9389.9375
2497.3802	9354.7375
2500.12024	9366.3375
2502.85855	9381.1375
2505.59514	9387.0375
2508.33002	9338.5375
2511.06318	9350.7375
2513.79462	9326.0375
2516.52435	9300.1375
2519.25237	9296.9375
2521.97867	9287.1375
2524.70327	9273.4375
2527.42616	9277.3375
2530.14734	9255.0375
2532.86681	9267.3375
2535.58458	9269.3375
2538.30065	9250.8375
2541.01501	9281.7375
2543.72768	9264.7375
2546.43864	9290.5375
2549.14791	9260.5375
2551.85548	9262.5375
2554.56136	9265.7375
2557.26554	9277.0375
2559.96803	9251.8375
2562.66883	9247.3375
2565.36794	9231.0375
2568.06536	9235.8375
2570.7611	9252.2375
2573.45514	9227.3375
2576.14751	9224.3375
2578.83819	9216.6375
2581.52719	9237.0375
2584.21451	9228.7375
2586.90015	9207.0375
2589.58411	9193.9375
2592.2664	9189.3375
2594.94701	9176.5375
2597.62594	9169.8375
2600.30321	9190.8375
2602.9788	9176.4375
2605.65273	9177.5375
2608.32498	9190.4375
2610.99557	9194.3375
2613.66449	9214.6375
2616.33175	9223.6375
2618.99734	9228.7375
2621.66128	9214.1375
2624.32355	9182.4375
2626.98416	9179.1375
2629.64311	9166.3375
2632.30041	9181.8375
2634.95605	9173.8375
2637.61004	9153.1375
2640.26238	9148.2375
2642.91306	9131.0375
2645.56209	9150.2375
2648.20948	9119.6375
2650.85521	9148.1375
2653.4993	9164.3375
2656.14175	9198.9375
2658.78255	9208.3375
2661.42171	9228.7375
2664.05923	9233.5375
2666.6951	9235.8375
2669.32934	9264.6375
2671.96194	9218.7375
2674.59291	9241.6375
2677.22224	9243.2375
2679.84993	9237.3375
2682.476	9217.3375
2685.10043	9251.0375
2687.72324	9238.5375
2690.34441	9239.0375
2692.96396	9215.6375
2695.58188	9223.5375
2698.19818	9196.9375
2700.81285	9246.3375
2703.4259	9265.5375
2706.03733	9220.2375
2708.64714	9230.7375
2711.25533	9243.3375
2713.86191	9232.4375
2716.46687	9266.9375
2719.07021	9256.4375
2721.67194	9283.2375
2724.27206	9274.5375
2726.87057	9307.0375
2729.46747	9290.9375
2732.06276	9325.0375
2734.65644	9287.4375
2737.24852	9319.3375
2739.83899	9290.2375
2742.42786	9291.5375
2745.01513	9271.8375
2747.60079	9272.7375
2750.18486	9242.8375
2752.76733	9275.2375
2755.3482	9255.8375
2757.92747	9281.3375
2760.50515	9288.4375
2763.08123	9285.7375
2765.65573	9285.0375
2768.22863	9274.9375
2770.79994	9270.5375
2773.36967	9288.1375
2775.9378	9296.2375
2778.50435	9287.5375
2781.06932	9254.3375
2783.6327	9302.2375
2786.1945	9275.3375
2788.75471	9270.3375
2791.31335	9258.6375
2793.87041	9251.1375
2796.42589	9241.6375
2798.97979	9256.7375
2801.53212	9205.6375
2804.08288	9218.5375
2806.63206	9210.3375
2809.17967	9220.0375
2811.72571	9189.2375
2814.27018	9206.6375
2816.81308	9183.5375
2819.35442	9175.5375
2821.89419	9158.4375
2824.43239	9170.3375
2826.96904	9176.1375
2829.50412	9176.9375
2832.03763	9162.7375
2834.56959	9180.7375
2837.1	9141.7375
2839.62884	9147.1375
2842.15613	9128.6375
2844.68186	9114.2375
2847.20604	9136.7375
2849.72867	9138.3375
2852.24974	9135.9375
2854.76927	9145.4375
2857.28724	9139.5375
2859.80367	9121.1375
2862.31855	9156.5375
2864.83189	9122.0375
2867.34368	9113.7375
2869.85393	9134.3375
2872.36264	9099.9375
2874.8698	9120.4375
2877.37543	9128.4375
2879.87952	9126.7375
2882.38207	9103.7375
2884.88308	9106.1375
2887.38256	9117.7375
2889.88051	9100.8375
2892.37692	9134.5375
2894.8718	9096.6375
2897.36515	9124.8375
2899.85698	9104.4375
2902.34727	9139.4375
2904.83604	9134.1375
2907.32328	9147.9375
2909.809	9142.4375
2912.29319	9168.7375
2914.77587	9136.8375
2917.25702	9125.6375
2919.73665	9120.8375
2922.21476	9126.0375
2924.69136	9118.2375
2927.16644	9124.2375
2929.64	9088.3375
2932.11205	9069.6375
2934.58258	9061.1375
2937.05161	9046.0375
2939.51912	9054.8375
2941.98513	9050.2375
2944.44962	9031.5375
2946.91261	8989.8375
2949.37409	9000.3375
2951.83407	9027.0375
2954.29254	9022.1375
2956.74951	9006.0375
2959.20498	8978.8375
2961.65895	8978.4375
2964.11142	8938.7375
2966.56239	8922.8375
2969.01186	8915.5375
2971.45984	8868.6375
2973.90632	8828.3375
2976.35131	8820.2375
2978.7948	8784.0375
2981.23681	8749.4375
2983.67732	8732.1375
2986.11635	8693.8375
2988.55388	8711.4375
2990.98993	8667.9375
2993.4245	8658.5375
2995.85758	8646.1375
2998.28917	8634.0375
3000.71928	8612.6375
3003.14791	8605.4375
3005.57506	8607.8375
3008.00073	8567.0375
3010.42493	8558.3375
3012.84764	8538.7375
3015.26888	8531.2375
3017.68865	8514.8375
3020.10694	8471.4375
3022.52376	8437.1375
3024.9391	8415.1375
3027.35298	8393.4375
3029.76539	8406.6375
3032.17632	8398.9375
3034.5858	8354.3375
3036.9938	8355.4375
3039.40034	8336.6375
3041.80542	8333.0375
3044.20903	8297.4375
3046.61118	8316.2375
3049.01187	8292.1375
3051.4111	8286.8375
3053.80888	8265.5375
3056.20519	8245.7375
3058.60005	8223.4375
3060.99345	8201.7375
3063.3854	8189.1375
3065.7759	8139.8375
3068.16494	8128.6375
3070.55254	8106.0375
3072.93868	8103.2375
3075.32338	8081.0375
3077.70662	8067.9375
3080.08842	8043.0375
3082.46878	8048.9375
3084.84769	8017.2375
3087.22515	8019.2375
3089.60118	8011.4375
3091.97576	7999.2375
3094.3489	8004.3375
3096.72061	7980.4375
3099.09087	7961.5375
3101.4597	7947.2375
3103.82709	7945.2375
3106.19305	7908.3375
3108.55757	7903.9375
3110.92066	7864.3375
3113.28232	7856.9375
3115.64255	7829.4375
3118.00134	7814.0375
3120.35871	7786.4375
3122.71466	7780.3375
3125.06917	7776.0375
3127.42226	7780.6375
3129.77393	7788.9375
3132.12417	7767.4375
3134.47299	7795.5375
3136.82039	7776.9375
3139.16636	7793.2375
3141.51092	7769.8375
3143.85406	7742.8375
3146.19579	7739.3375
3148.53609	7748.1375
3150.87499	7714.5375
3153.21246	7716.9375
3155.54853	7742.7375
3157.88318	7694.9375
3160.21642	7685.1375
3162.54826	7681.3375
3164.87868	7695.6375
3167.2077	7682.2375
3169.5353	7664.1375
3171.86151	7653.1375
3174.18631	7663.8375
3176.5097	7674.1375
3178.83169	7645.0375
3181.15228	7660.4375
3183.47147	7642.1375
3185.78926	7632.6375
3188.10565	7620.7375
3190.42065	7624.0375
3192.73424	7631.5375
3195.04645	7646.9375
3197.35725	7649.0375
3199.66667	7644.0375
3201.97469	7622.8375
3204.28132	7621.3375
3206.58656	7626.7375
3208.8904	7592.1375
3211.19287	7608.8375
3213.49394	7605.1375
3215.79363	7589.8375
3218.09193	7601.8375
3220.38884	7577.0375
3222.68438	7572.3375
3224.97853	7571.2375
3227.2713	7570.8375
3229.56269	7566.5375
3231.8527	7580.1375
3234.14133	7568.9375
3236.42858	7533.9375
3238.71446	7538.1375
3240.99896	7536.8375
3243.28209	7547.0375
3245.56384	7522.9375
3247.84423	7535.8375
3250.12324	7514.5375
3252.40088	7504.5375
3254.67715	7470.9375
3256.95205	7483.8375
3259.22558	7451.8375
3261.49775	7433.3375
3263.76855	7398.0375
3266.03799	7398.4375
3268.30606	7393.1375
3270.57277	7369.0375
3272.83812	7360.6375
3275.10211	7364.1375
3277.36474	7351.9375
3279.62601	7376.4375
3281.88593	7365.1375
3284.14448	7392.4375
3286.40168	7369.4375
3288.65753	7385.8375
3290.91202	7365.8375
3293.16516	7350.0375
3295.41695	7333.9375
3297.66738	7299.8375
3299.91647	7248.7375
3302.16421	7230.3375
3304.4106	7199.5375
3306.65564	7161.0375
3308.89933	7109.8375
3311.14169	7069.4375
3313.38269	7009.0375
3315.62236	6976.2375
3317.86068	6902.8375
3320.09766	6820.0375
3322.3333	6763.3375
3324.5676	6759.7375
3326.80056	6649.4375
3329.03219	6621.3375
3331.26248	3.2375
3333.49143	-0.6625
3335.71905	0.1375
