Data from AgNP_FTO_APTES_UA_100uM_CRN_5uM_R6G_10uM_NaF_0.1M_Addition_RamanShift__23__15-05-20-381.txt Node

Date: Thu Mar 24 15:05:20 GMT 2022
User: TCL
Spectrometer: QEP01345
Trigger mode: 4
Integration Time (sec): 7.000000E0
Scans to average: 10
Electric dark correction enabled: true
Nonlinearity correction enabled: false
Boxcar width: 0
XAxis mode: Raman Shifts
Number of Pixels in Spectrum: 1044
>>>>>Begin Spectral Data<<<<<
46.04893	-0.9375
50.45542	0.7625
54.85868	0.5625
59.25871	-1.3375
63.6555	32.3625
68.04907	34.7625
72.43941	33.8625
76.82654	30.5625
81.21044	39.2625
85.59113	38.5625
89.96862	43.9625
94.34289	38.2625
98.71396	41.4625
103.08183	41.8625
107.4465	44.6625
111.80798	48.6625
116.16626	44.0625
120.52136	46.2625
124.87327	47.4625
129.222	51.3625
133.56755	55.7625
137.90993	56.0625
142.24913	66.9625
146.58517	70.5625
150.91804	81.8625
155.24774	99.4625
159.57429	124.6625
163.89768	162.0625
168.21792	214.5625
172.53501	293.1625
176.84895	410.1625
181.15975	583.3625
185.46741	807.6625
189.77193	1120.3625
194.07331	1519.6625
198.37157	1961.2625
202.6667	2445.5625
206.9587	2941.9625
211.24758	3466.2625
215.53334	4009.0625
219.81599	4658.6625
224.09553	5391.6625
228.37195	6231.8625
232.64527	7106.1625
236.91549	7931.5625
241.18261	8634.5625
245.44663	9136.0625
249.70755	9478.1625
253.96539	9742.5625
258.22014	10004.4625
262.4718	10324.9625
266.72039	10500.4625
270.96589	10504.7625
275.20832	10308.0625
279.44768	9964.1625
283.68397	9670.6625
287.91719	9484.6625
292.14735	9522.2625
296.37445	9896.8625
300.59849	10546.1625
304.81948	11329.4625
309.03742	12031.2625
313.25231	12182.2625
317.46415	11601.5625
321.67296	10489.4625
325.87872	9499.9625
330.08145	8990.2625
334.28114	8923.7625
338.47781	9141.9625
342.67145	9468.0625
346.86207	9965.2625
351.04966	10755.8625
355.23424	11622.5625
359.4158	12347.8625
363.59435	12600.3625
367.76989	12600.2625
371.94243	12372.9625
376.11196	12174.3625
380.27849	11958.7625
384.44203	11687.0625
388.60257	11435.2625
392.76012	11267.6625
396.91468	11327.7625
401.06626	11659.8625
405.21485	11876.3625
409.36047	11520.0625
413.50311	10622.0625
417.64277	9762.1625
421.77947	9236.4625
425.9132	9000.1625
430.04396	8943.3625
434.17176	8992.5625
438.2966	9144.9625
442.41849	9464.1625
446.53742	9891.4625
450.6534	10244.3625
454.76644	10416.4625
458.87653	10346.3625
462.98368	10083.9625
467.08789	9813.9625
471.18916	9495.7625
475.2875	9170.7625
479.38291	8868.0625
483.4754	8646.6625
487.56496	8461.5625
491.6516	8377.7625
495.73531	8335.3625
499.81612	8372.4625
503.89401	8550.3625
507.96899	8723.0625
512.04106	8935.0625
516.11023	9168.7625
520.1765	9341.2625
524.23987	9378.0625
528.30034	9278.1625
532.35792	9155.4625
536.41261	8940.3625
540.46441	8637.8625
544.51333	8451.9625
548.55936	8471.8625
552.60252	8778.2625
556.64279	9155.3625
560.6802	9368.2625
564.71473	9615.4625
568.7464	10223.1625
572.7752	10487.1625
576.80114	9977.0625
580.82422	9423.4625
584.84444	9291.6625
588.86181	9496.3625
592.87633	9857.5625
596.888	10166.5625
600.89682	10414.3625
604.9028	11974.3625
608.90594	16805.9625
612.90624	23354.8625
616.90371	22515.0625
620.89834	14025.9625
624.89015	9761.8625
628.87913	8981.3625
632.86528	9202.5625
636.84862	9517.1625
640.82913	9247.0625
644.80683	8502.6625
648.78172	7955.5625
652.75379	7955.7625
656.72306	8532.3625
660.68952	9267.8625
664.65319	9073.3625
668.61405	8269.1625
672.57211	7878.8625
676.52738	7861.8625
680.47986	7806.3625
684.42955	7638.4625
688.37646	7530.1625
692.32058	7543.7625
696.26192	7639.0625
700.20048	7823.7625
704.13626	7930.8625
708.06928	7891.9625
711.99952	7817.1625
715.927	7800.2625
719.85171	7900.1625
723.77365	7967.7625
727.69284	7917.6625
731.60928	7814.4625
735.52295	7820.1625
739.43388	7884.9625
743.34206	7933.0625
747.24749	7944.1625
751.15017	7933.7625
755.05012	8118.2625
758.94733	8827.6625
762.8418	10618.2625
766.73354	13682.8625
770.62254	16634.0625
774.50882	17986.2625
778.39237	17024.6625
782.27321	13992.3625
786.15132	10893.9625
790.02671	9072.1625
793.89938	8214.9625
797.76935	7872.9625
801.6366	7711.3625
805.50115	7661.3625
809.36299	7596.9625
813.22213	7548.0625
817.07857	7505.2625
820.93231	7471.2625
824.78336	7506.8625
828.63172	7588.8625
832.47738	7616.8625
836.32036	7563.0625
840.16066	7473.6625
843.99827	7422.2625
847.8332	7394.8625
851.66546	7369.1625
855.49504	7381.6625
859.32195	7374.3625
863.1462	7328.3625
866.96777	7293.8625
870.78668	7311.7625
874.60293	7339.8625
878.41652	7367.8625
882.22745	7483.3625
886.03573	7559.8625
889.84136	7560.9625
893.64433	7477.5625
897.44466	7468.5625
901.24235	7418.6625
905.0374	7356.4625
908.8298	7264.0625
912.61957	7189.8625
916.40671	7195.6625
920.19121	7286.1625
923.97308	7431.8625
927.75233	7683.2625
931.52895	7888.8625
935.30295	7765.6625
939.07433	7399.0625
942.84309	7109.5625
946.60924	6934.0625
950.37278	6832.6625
954.13371	6774.7625
957.89203	6723.4625
961.64774	6689.7625
965.40086	6647.7625
969.15137	6604.4625
972.89929	6600.0625
976.64461	6602.9625
980.38733	6615.1625
984.12747	6632.8625
987.86502	6650.6625
991.59999	6743.5625
995.33237	6912.0625
999.06217	7131.9625
1002.78939	7463.6625
1006.51404	7779.4625
1010.23611	8025.2625
1013.95561	8087.3625
1017.67255	8061.0625
1021.38692	7888.4625
1025.09872	7650.1625
1028.80796	7534.9625
1032.51465	7629.6625
1036.21877	7809.4625
1039.92035	7884.7625
1043.61937	7896.2625
1047.31584	7861.7625
1051.00976	7708.2625
1054.70114	7623.5625
1058.38998	7537.7625
1062.07627	7548.5625
1065.76003	7569.6625
1069.44126	7615.7625
1073.11995	7759.1625
1076.79611	7981.9625
1080.46974	8350.1625
1084.14085	8837.8625
1087.80943	9288.7625
1091.47549	9390.5625
1095.13903	9103.9625
1098.80005	8596.1625
1102.45857	8207.0625
1106.11456	8154.1625
1109.76805	8340.6625
1113.41903	8780.2625
1117.06751	9423.7625
1120.71348	10287.8625
1124.35696	11190.9625
1127.99793	11836.6625
1131.63641	11451.9625
1135.2724	10433.4625
1138.90589	9574.5625
1142.5369	9010.7625
1146.16542	8670.5625
1149.79145	8452.5625
1153.415	8404.0625
1157.03607	8503.8625
1160.65467	8809.9625
1164.27079	9380.7625
1167.88443	10257.8625
1171.49561	11600.3625
1175.10432	13785.0625
1178.71056	16696.0625
1182.31434	19069.2625
1185.91565	19612.7625
1189.51451	18590.4625
1193.11091	16806.5625
1196.70485	14910.0625
1200.29634	13569.4625
1203.88538	12496.2625
1207.47197	11311.5625
1211.05612	10248.9625
1214.63782	9677.0625
1218.21708	9490.0625
1221.79391	9485.2625
1225.36829	9601.4625
1228.94024	9581.8625
1232.50976	9385.1625
1236.07685	9225.2625
1239.6415	9153.5625
1243.20374	9181.8625
1246.76355	9268.8625
1250.32093	9436.8625
1253.8759	9705.2625
1257.42845	10174.1625
1260.97859	10769.0625
1264.52631	11439.1625
1268.07163	12079.9625
1271.61453	12618.6625
1275.15503	12997.4625
1278.69312	13206.5625
1282.22882	13480.4625
1285.76211	14025.0625
1289.29301	14786.2625
1292.82151	15576.7625
1296.34761	16480.6625
1299.87133	17899.1625
1303.39266	20390.3625
1306.9116	24218.3625
1310.42815	28340.4625
1313.94233	29995.5625
1317.45412	28033.9625
1320.96354	24431.3625
1324.47058	20934.0625
1327.97525	18229.5625
1331.47754	16601.2625
1334.97747	15874.4625
1338.47502	15971.0625
1341.97022	16618.5625
1345.46305	18064.8625
1348.95352	20201.4625
1352.44163	23020.3625
1355.92738	27043.1625
1359.41078	33207.6625
1362.89183	38516.3625
1366.37053	36164.2625
1369.84688	27918.1625
1373.32088	20899.8625
1376.79254	17119.4625
1380.26186	15177.3625
1383.72883	13908.5625
1387.19347	12994.2625
1390.65578	12165.7625
1394.11575	11595.4625
1397.57339	11386.4625
1401.0287	11434.3625
1404.48168	11472.2625
1407.93234	11529.8625
1411.38068	11572.1625
1414.82669	11656.0625
1418.27039	11610.9625
1421.71177	11394.7625
1425.15083	11058.3625
1428.58758	10981.7625
1432.02203	11290.0625
1435.45416	11667.5625
1438.88399	11763.1625
1442.31151	11758.8625
1445.73673	11789.8625
1449.15965	11868.0625
1452.58027	11767.7625
1455.9986	11560.2625
1459.41463	11520.5625
1462.82837	11753.5625
1466.23982	12265.6625
1469.64898	12726.2625
1473.05586	13046.6625
1476.46045	13166.7625
1479.86276	13374.1625
1483.26279	13768.6625
1486.66054	14350.2625
1490.05602	15244.8625
1493.44922	16616.6625
1496.84016	18667.5625
1500.22882	22016.4625
1503.61521	26747.1625
1506.99934	32267.5625
1510.38121	36483.3625
1513.76081	36692.0625
1517.13816	32350.9625
1520.51324	25923.4625
1523.88607	20541.7625
1527.25665	17271.2625
1530.62498	15486.4625
1533.99105	14469.0625
1537.35488	13762.3625
1540.71647	13271.3625
1544.07581	13020.4625
1547.4329	12906.5625
1550.78776	12908.0625
1554.14038	13045.7625
1557.49077	13292.0625
1560.83892	13725.8625
1564.18484	14527.1625
1567.52853	15491.4625
1570.86999	16219.9625
1574.20922	16645.5625
1577.54624	16418.1625
1580.88103	15047.6625
1584.2136	13217.4625
1587.54395	12223.2625
1590.87208	12257.3625
1594.19801	13344.1625
1597.52172	14911.0625
1600.84321	15651.8625
1604.16251	15037.2625
1607.47959	13787.1625
1610.79447	12451.1625
1614.10715	11159.9625
1617.41763	10092.1625
1620.7259	9406.4625
1624.03199	9114.3625
1627.33587	9165.4625
1630.63757	9600.6625
1633.93707	10445.4625
1637.23439	11965.2625
1640.52951	14424.9625
1643.82246	18141.1625
1647.11321	22545.7625
1650.40179	25221.2625
1653.68819	23814.7625
1656.97241	19054.4625
1660.25446	14262.7625
1663.53433	11061.4625
1666.81203	9261.1625
1670.08756	8285.1625
1673.36092	7686.2625
1676.63211	7315.3625
1679.90115	7084.5625
1683.16801	6876.4625
1686.43272	6746.3625
1689.69527	6636.5625
1692.95567	6583.0625
1696.2139	6544.5625
1699.46999	6515.4625
1702.72392	6479.3625
1705.97571	6464.5625
1709.22535	6430.5625
1712.47284	6438.7625
1715.71819	6436.3625
1718.96139	6417.2625
1722.20246	6393.1625
1725.44139	6330.9625
1728.67818	6231.0625
1731.91284	6140.9625
1735.14537	6072.2625
1738.37576	6049.5625
1741.60403	6020.6625
1744.83017	5994.7625
1748.05418	5948.0625
1751.27607	5930.5625
1754.49584	5921.0625
1757.71349	5898.6625
1760.92903	5884.6625
1764.14244	5884.6625
1767.35375	5833.1625
1770.56294	5807.4625
1773.77002	5759.6625
1776.97499	5724.5625
1780.17785	5689.2625
1783.37861	5682.6625
1786.57727	5639.0625
1789.77382	5615.6625
1792.96828	5617.4625
1796.16064	5622.3625
1799.3509	5607.9625
1802.53907	5576.5625
1805.72514	5543.1625
1808.90913	5521.7625
1812.09102	5494.8625
1815.27083	5469.3625
1818.44856	5463.5625
1821.6242	5438.2625
1824.79776	5423.8625
1827.96924	5421.8625
1831.13864	5423.9625
1834.30597	5411.5625
1837.47122	5382.1625
1840.6344	5379.4625
1843.7955	5383.8625
1846.95454	5362.3625
1850.11151	5348.6625
1853.26642	5364.7625
1856.41926	5341.0625
1859.57004	5322.2625
1862.71876	5339.7625
1865.86542	5343.7625
1869.01003	5339.9625
1872.15258	5352.4625
1875.29308	5329.5625
1878.43152	5336.2625
1881.56792	5338.7625
1884.70227	5339.1625
1887.83457	5330.4625
1890.96482	5325.7625
1894.09304	5335.4625
1897.21921	5323.4625
1900.34335	5328.4625
1903.46544	5324.1625
1906.58551	5329.5625
1909.70353	5326.9625
1912.81953	5324.6625
1915.93349	5286.5625
1919.04543	5304.3625
1922.15534	5268.5625
1925.26322	5256.5625
1928.36908	5218.5625
1931.47292	5201.3625
1934.57473	5173.0625
1937.67453	5150.6625
1940.77232	5137.0625
1943.86808	5127.5625
1946.96184	5092.5625
1950.05358	5098.4625
1953.14331	5075.4625
1956.23103	5059.2625
1959.31675	5070.3625
1962.40046	5068.5625
1965.48217	5055.0625
1968.56188	5040.8625
1971.63959	5032.6625
1974.7153	5016.3625
1977.78901	5000.8625
1980.86073	4983.2625
1983.93046	4943.9625
1986.99819	4928.8625
1990.06394	4895.1625
1993.1277	4871.7625
1996.18947	4856.8625
1999.24925	4829.5625
2002.30706	4810.1625
2005.36288	4802.0625
2008.41672	4789.3625
2011.46859	4762.2625
2014.51848	4763.8625
2017.56639	4731.1625
2020.61233	4737.1625
2023.6563	4711.0625
2026.6983	4704.5625
2029.73833	4699.8625
2032.7764	4681.3625
2035.8125	4678.1625
2038.84664	4665.3625
2041.87881	4655.6625
2044.90903	4666.4625
2047.93729	4640.5625
2050.96359	4651.9625
2053.98794	4640.4625
2057.01034	4624.2625
2060.03078	4603.2625
2063.04927	4609.2625
2066.06582	4588.4625
2069.08042	4598.8625
2072.09307	4577.0625
2075.10378	4581.8625
2078.11255	4577.6625
2081.11938	4569.5625
2084.12426	4572.0625
2087.12722	4581.6625
2090.12824	4572.1625
2093.12732	4578.0625
2096.12447	4578.6625
2099.11969	4576.6625
2102.11299	4576.4625
2105.10435	4567.5625
2108.09379	4578.3625
2111.08131	4581.9625
2114.0669	4588.1625
2117.05057	4607.2625
2120.03233	4604.3625
2123.01216	4610.1625
2125.99008	4628.5625
2128.96609	4631.5625
2131.94018	4636.7625
2134.91236	4621.1625
2137.88263	4622.6625
2140.851	4613.8625
2143.81746	4617.2625
2146.78201	4600.3625
2149.74466	4592.9625
2152.7054	4592.4625
2155.66425	4575.6625
2158.6212	4578.7625
2161.57625	4576.3625
2164.52941	4564.2625
2167.48067	4572.3625
2170.43004	4566.9625
2173.37752	4571.3625
2176.32311	4573.7625
2179.26681	4562.7625
2182.20863	4554.4625
2185.14856	4560.3625
2188.08661	4565.0625
2191.02278	4544.5625
2193.95707	4549.0625
2196.88948	4553.9625
2199.82001	4549.6625
2202.74867	4539.5625
2205.67545	4540.7625
2208.60037	4532.0625
2211.52341	4531.4625
2214.44458	4535.1625
2217.36388	4505.8625
2220.28132	4513.3625
2223.1969	4494.6625
2226.11061	4498.8625
2229.02246	4471.8625
2231.93245	4472.3625
2234.84058	4459.2625
2237.74686	4470.8625
2240.65128	4449.2625
2243.55385	4442.2625
2246.45456	4458.0625
2249.35343	4444.0625
2252.25044	4468.6625
2255.14561	4463.7625
2258.03893	4468.6625
2260.93041	4487.7625
2263.82004	4480.0625
2266.70783	4468.1625
2269.59378	4463.7625
2272.4779	4439.5625
2275.36017	4441.1625
2278.24061	4422.7625
2281.11922	4418.5625
2283.996	4400.6625
2286.87094	4402.1625
2289.74405	4355.3625
2292.61534	4365.8625
2295.4848	4355.3625
2298.35243	4346.4625
2301.21824	4341.3625
2304.08223	4354.2625
2306.94439	4349.8625
2309.80474	4350.6625
2312.66327	4348.4625
2315.51999	4346.5625
2318.37489	4341.7625
2321.22797	4351.6625
2324.07925	4335.3625
2326.92871	4336.5625
2329.77637	4344.2625
2332.62222	4331.3625
2335.46626	4338.0625
2338.3085	4337.3625
2341.14893	4360.8625
2343.98756	4359.4625
2346.8244	4372.2625
2349.65943	4379.5625
2352.49267	4383.7625
2355.32411	4415.1625
2358.15376	4416.8625
2360.98161	4424.5625
2363.80768	4435.3625
2366.63195	4446.9625
2369.45444	4445.5625
2372.27514	4450.5625
2375.09405	4437.0625
2377.91118	4399.2625
2380.72652	4388.5625
2383.54009	4353.3625
2386.35187	4350.1625
2389.16188	4322.5625
2391.97011	4293.8625
2394.77657	4285.7625
2397.58125	4273.8625
2400.38416	4261.5625
2403.18529	4238.7625
2405.98466	4245.8625
2408.78226	4225.7625
2411.57809	4202.0625
2414.37216	4200.4625
2417.16446	4212.9625
2419.955	4176.2625
2422.74378	4186.9625
2425.5308	4197.5625
2428.31606	4199.8625
2431.09956	4197.6625
2433.88131	4212.0625
2436.6613	4209.3625
2439.43954	4213.9625
2442.21603	4214.5625
2444.99077	4244.2625
2447.76377	4229.8625
2450.53501	4237.9625
2453.30451	4251.4625
2456.07226	4235.6625
2458.83827	4258.2625
2461.60254	4261.3625
2464.36507	4243.4625
2467.12586	4258.8625
2469.88492	4252.0625
2472.64224	4253.4625
2475.39782	4257.0625
2478.15167	4278.2625
2480.90379	4287.2625
2483.65417	4302.8625
2486.40283	4343.3625
2489.14976	4364.3625
2491.89497	4358.3625
2494.63845	4369.6625
2497.3802	4362.2625
2500.12024	4343.4625
2502.85855	4329.7625
2505.59514	4303.8625
2508.33002	4274.9625
2511.06318	4252.2625
2513.79462	4228.5625
2516.52435	4200.3625
2519.25237	4174.4625
2521.97867	4172.1625
2524.70327	4158.0625
2527.42616	4152.5625
2530.14734	4156.0625
2532.86681	4138.1625
2535.58458	4134.1625
2538.30065	4142.3625
2541.01501	4159.5625
2543.72768	4144.3625
2546.43864	4159.6625
2549.14791	4150.9625
2551.85548	4160.0625
2554.56136	4158.4625
2557.26554	4171.0625
2559.96803	4157.0625
2562.66883	4162.4625
2565.36794	4159.7625
2568.06536	4154.7625
2570.7611	4132.8625
2573.45514	4138.0625
2576.14751	4140.6625
2578.83819	4130.9625
2581.52719	4130.3625
2584.21451	4104.3625
2586.90015	4114.7625
2589.58411	4098.1625
2592.2664	4118.4625
2594.94701	4097.6625
2597.62594	4107.5625
2600.30321	4081.1625
2602.9788	4096.6625
2605.65273	4094.8625
2608.32498	4103.2625
2610.99557	4097.0625
2613.66449	4108.1625
2616.33175	4104.5625
2618.99734	4107.3625
2621.66128	4104.5625
2624.32355	4106.3625
2626.98416	4112.2625
2629.64311	4095.4625
2632.30041	4091.4625
2634.95605	4104.6625
2637.61004	4076.8625
2640.26238	4081.5625
2642.91306	4076.5625
2645.56209	4059.7625
2648.20948	4042.7625
2650.85521	4055.3625
2653.4993	4061.5625
2656.14175	4064.0625
2658.78255	4061.9625
2661.42171	4078.6625
2664.05923	4094.1625
2666.6951	4078.0625
2669.32934	4093.9625
2671.96194	4095.6625
2674.59291	4100.8625
2677.22224	4098.9625
2679.84993	4105.1625
2682.476	4094.7625
2685.10043	4092.4625
2687.72324	4085.3625
2690.34441	4071.3625
2692.96396	4075.1625
2695.58188	4088.1625
2698.19818	4072.7625
2700.81285	4064.3625
2703.4259	4068.7625
2706.03733	4085.7625
2708.64714	4080.7625
2711.25533	4091.4625
2713.86191	4075.3625
2716.46687	4081.9625
2719.07021	4091.9625
2721.67194	4111.4625
2724.27206	4103.9625
2726.87057	4098.1625
2729.46747	4091.6625
2732.06276	4086.2625
2734.65644	4078.5625
2737.24852	4078.7625
2739.83899	4054.0625
2742.42786	4063.4625
2745.01513	4046.6625
2747.60079	4048.6625
2750.18486	4040.9625
2752.76733	4037.0625
2755.3482	4029.6625
2757.92747	4024.2625
2760.50515	4019.3625
2763.08123	4025.0625
2765.65573	4025.2625
2768.22863	4010.7625
2770.79994	4000.0625
2773.36967	4004.8625
2775.9378	4026.8625
2778.50435	4025.3625
2781.06932	4008.0625
2783.6327	4009.6625
2786.1945	4012.9625
2788.75471	3995.1625
2791.31335	3998.3625
2793.87041	3991.5625
2796.42589	4000.6625
2798.97979	4004.9625
2801.53212	4005.8625
2804.08288	4002.0625
2806.63206	4015.0625
2809.17967	4021.2625
2811.72571	4026.6625
2814.27018	4040.0625
2816.81308	4043.7625
2819.35442	4053.1625
2821.89419	4069.5625
2824.43239	4072.3625
2826.96904	4059.0625
2829.50412	4071.4625
2832.03763	4054.6625
2834.56959	4084.6625
2837.1	4063.4625
2839.62884	4044.2625
2842.15613	4038.3625
2844.68186	4035.6625
2847.20604	4048.3625
2849.72867	4044.4625
2852.24974	4064.6625
2854.76927	4061.6625
2857.28724	4080.8625
2859.80367	4073.5625
2862.31855	4099.4625
2864.83189	4098.0625
2867.34368	4111.6625
2869.85393	4116.0625
2872.36264	4139.1625
2874.8698	4131.0625
2877.37543	4136.6625
2879.87952	4143.1625
2882.38207	4133.1625
2884.88308	4128.9625
2887.38256	4105.4625
2889.88051	4114.2625
2892.37692	4087.6625
2894.8718	4091.6625
2897.36515	4096.5625
2899.85698	4095.9625
2902.34727	4118.7625
2904.83604	4097.6625
2907.32328	4099.9625
2909.809	4110.0625
2912.29319	4105.1625
2914.77587	4082.2625
2917.25702	4092.8625
2919.73665	4083.4625
2922.21476	4066.3625
2924.69136	4037.8625
2927.16644	4034.0625
2929.64	4027.6625
2932.11205	4025.4625
2934.58258	3999.5625
2937.05161	4015.7625
2939.51912	4004.5625
2941.98513	4003.6625
2944.44962	3992.1625
2946.91261	4003.7625
2949.37409	4011.4625
2951.83407	4000.9625
2954.29254	4009.6625
2956.74951	3984.8625
2959.20498	3993.9625
2961.65895	3978.6625
2964.11142	3972.9625
2966.56239	3978.4625
2969.01186	3949.5625
2971.45984	3944.8625
2973.90632	3925.6625
2976.35131	3923.2625
2978.7948	3904.7625
2981.23681	3898.4625
2983.67732	3894.9625
2986.11635	3868.6625
2988.55388	3876.3625
2990.98993	3875.6625
2993.4245	3868.0625
2995.85758	3870.7625
2998.28917	3873.4625
3000.71928	3856.5625
3003.14791	3867.0625
3005.57506	3853.0625
3008.00073	3851.6625
3010.42493	3874.1625
3012.84764	3854.4625
3015.26888	3860.9625
3017.68865	3851.8625
3020.10694	3840.4625
3022.52376	3821.7625
3024.9391	3823.9625
3027.35298	3807.2625
3029.76539	3799.6625
3032.17632	3789.4625
3034.5858	3772.4625
3036.9938	3754.8625
3039.40034	3740.4625
3041.80542	3748.1625
3044.20903	3730.3625
3046.61118	3743.9625
3049.01187	3717.3625
3051.4111	3711.5625
3053.80888	3703.3625
3056.20519	3696.8625
3058.60005	3697.5625
3060.99345	3701.1625
3063.3854	3674.4625
3065.7759	3672.4625
3068.16494	3658.4625
3070.55254	3667.6625
3072.93868	3649.4625
3075.32338	3637.9625
3077.70662	3641.8625
3080.08842	3624.5625
3082.46878	3637.7625
3084.84769	3618.8625
3087.22515	3619.7625
3089.60118	3613.4625
3091.97576	3611.6625
3094.3489	3622.1625
3096.72061	3604.1625
3099.09087	3603.2625
3101.4597	3601.8625
3103.82709	3606.6625
3106.19305	3595.5625
3108.55757	3594.6625
3110.92066	3574.3625
3113.28232	3583.4625
3115.64255	3576.6625
3118.00134	3572.2625
3120.35871	3571.4625
3122.71466	3583.4625
3125.06917	3578.2625
3127.42226	3580.9625
3129.77393	3573.0625
3132.12417	3590.0625
3134.47299	3574.9625
3136.82039	3574.9625
3139.16636	3582.2625
3141.51092	3579.8625
3143.85406	3585.3625
3146.19579	3600.0625
3148.53609	3599.2625
3150.87499	3607.4625
3153.21246	3615.7625
3155.54853	3617.9625
3157.88318	3603.1625
3160.21642	3610.8625
3162.54826	3597.2625
3164.87868	3607.6625
3167.2077	3622.3625
3169.5353	3607.2625
3171.86151	3613.1625
3174.18631	3614.9625
3176.5097	3596.9625
3178.83169	3608.6625
3181.15228	3606.8625
3183.47147	3607.2625
3185.78926	3604.2625
3188.10565	3607.7625
3190.42065	3627.7625
3192.73424	3615.8625
3195.04645	3620.3625
3197.35725	3624.3625
3199.66667	3650.3625
3201.97469	3648.1625
3204.28132	3654.4625
3206.58656	3673.7625
3208.8904	3675.7625
3211.19287	3666.3625
3213.49394	3670.8625
3215.79363	3696.4625
3218.09193	3714.0625
3220.38884	3695.8625
3222.68438	3704.5625
3224.97853	3708.4625
3227.2713	3690.7625
3229.56269	3688.9625
3231.8527	3703.5625
3234.14133	3694.0625
3236.42858	3705.3625
3238.71446	3702.3625
3240.99896	3715.3625
3243.28209	3705.1625
3245.56384	3693.5625
3247.84423	3691.8625
3250.12324	3693.3625
3252.40088	3696.6625
3254.67715	3698.1625
3256.95205	3700.5625
3259.22558	3700.4625
3261.49775	3691.9625
3263.76855	3674.9625
3266.03799	3675.5625
3268.30606	3682.6625
3270.57277	3680.3625
3272.83812	3687.4625
3275.10211	3678.0625
3277.36474	3684.7625
3279.62601	3695.3625
3281.88593	3695.0625
3284.14448	3704.0625
3286.40168	3707.3625
3288.65753	3707.7625
3290.91202	3701.8625
3293.16516	3713.7625
3295.41695	3686.2625
3297.66738	3671.3625
3299.91647	3662.8625
3302.16421	3646.4625
3304.4106	3633.9625
3306.65564	3607.2625
3308.89933	3584.3625
3311.14169	3567.4625
3313.38269	3531.8625
3315.62236	3512.4625
3317.86068	3469.8625
3320.09766	3432.9625
3322.3333	3394.4625
3324.5676	3410.0625
3326.80056	3342.1625
3329.03219	3339.3625
3331.26248	1.2625
3333.49143	-1.2375
3335.71905	0.8625
