Data from AgNP_FTO_APTES_UA_100uM_CRN_5uM_R6G_10uM_NaF_0.1M_Addition_RamanShift__29__15-12-20-389.txt Node

Date: Thu Mar 24 15:12:20 GMT 2022
User: TCL
Spectrometer: QEP01345
Trigger mode: 4
Integration Time (sec): 7.000000E0
Scans to average: 10
Electric dark correction enabled: true
Nonlinearity correction enabled: false
Boxcar width: 0
XAxis mode: Raman Shifts
Number of Pixels in Spectrum: 1044
>>>>>Begin Spectral Data<<<<<
46.04893	-1.675
50.45542	-0.475
54.85868	0.125
59.25871	0.425
63.6555	32.025
68.04907	35.325
72.43941	35.625
76.82654	36.025
81.21044	41.325
85.59113	40.925
89.96862	44.325
94.34289	39.825
98.71396	44.825
103.08183	45.325
107.4465	46.125
111.80798	48.025
116.16626	51.425
120.52136	49.625
124.87327	52.025
129.222	57.225
133.56755	59.025
137.90993	65.825
142.24913	70.725
146.58517	77.425
150.91804	92.725
155.24774	114.725
159.57429	144.125
163.89768	187.325
168.21792	248.925
172.53501	340.825
176.84895	478.725
181.15975	672.925
185.46741	952.925
189.77193	1319.125
194.07331	1769.825
198.37157	2332.025
202.6667	2915.425
206.9587	3525.425
211.24758	4180.525
215.53334	4887.025
219.81599	5731.925
224.09553	6680.625
228.37195	7784.425
232.64527	8934.325
236.91549	9947.525
241.18261	10738.225
245.44663	11233.325
249.70755	11566.025
253.96539	11842.925
258.22014	12098.025
262.4718	12323.825
266.72039	12362.225
270.96589	12160.725
275.20832	11769.025
279.44768	11273.025
283.68397	10864.125
287.91719	10712.325
292.14735	10897.925
296.37445	11607.825
300.59849	12777.225
304.81948	14234.425
309.03742	15523.825
313.25231	15977.225
317.46415	14987.125
321.67296	13026.325
325.87872	11255.025
330.08145	10368.725
334.28114	10256.225
338.47781	10620.725
342.67145	11177.625
346.86207	12117.125
351.04966	13517.825
355.23424	15188.725
359.4158	16318.125
363.59435	16706.425
367.76989	16447.725
371.94243	15888.625
376.11196	15296.725
380.27849	14809.225
384.44203	14196.125
388.60257	13657.425
392.76012	13279.125
396.91468	13398.025
401.06626	13885.725
405.21485	14258.725
409.36047	13645.025
413.50311	12152.425
417.64277	10706.425
421.77947	9839.425
425.9132	9441.725
430.04396	9317.225
434.17176	9299.825
438.2966	9516.725
442.41849	9964.525
446.53742	10440.925
450.6534	10855.125
454.76644	10958.325
458.87653	10784.625
462.98368	10447.425
467.08789	10062.625
471.18916	9624.225
475.2875	9167.225
479.38291	8762.325
483.4754	8497.825
487.56496	8307.125
491.6516	8228.125
495.73531	8210.425
499.81612	8309.325
503.89401	8517.025
507.96899	8829.325
512.04106	9241.525
516.11023	9678.525
520.1765	9998.325
524.23987	10077.925
528.30034	9873.225
532.35792	9660.125
536.41261	9334.225
540.46441	8857.625
544.51333	8515.925
548.55936	8561.225
552.60252	8982.525
556.64279	9523.025
560.6802	9823.525
564.71473	10371.225
568.7464	11606.325
572.7752	12059.125
576.80114	10736.925
580.82422	9366.425
584.84444	8763.325
588.86181	8607.925
592.87633	8643.325
596.888	8910.225
600.89682	9701.725
604.9028	12682.025
608.90594	20890.125
612.90624	31903.125
616.90371	30814.025
620.89834	17102.225
624.89015	10377.525
628.87913	9194.925
632.86528	9607.225
636.84862	10069.925
640.82913	9555.725
644.80683	8415.525
648.78172	7692.625
652.75379	7774.225
656.72306	8719.125
660.68952	9853.425
664.65319	9517.325
668.61405	8198.725
672.57211	7552.425
676.52738	7483.325
680.47986	7439.025
684.42955	7206.325
688.37646	7097.125
692.32058	7103.825
696.26192	7282.825
700.20048	7505.125
704.13626	7691.425
708.06928	7662.725
711.99952	7525.325
715.927	7510.625
719.85171	7649.325
723.77365	7803.025
727.69284	7702.625
731.60928	7555.725
735.52295	7526.525
739.43388	7549.425
743.34206	7612.025
747.24749	7614.125
751.15017	7617.625
755.05012	7961.925
758.94733	9198.125
762.8418	12217.425
766.73354	16946.125
770.62254	21080.325
774.50882	22900.525
778.39237	21649.825
782.27321	17214.825
786.15132	12280.825
790.02671	9466.425
793.89938	8222.925
797.76935	7724.425
801.6366	7524.225
805.50115	7409.525
809.36299	7359.625
813.22213	7301.925
817.07857	7285.725
820.93231	7295.925
824.78336	7405.025
828.63172	7571.725
832.47738	7611.025
836.32036	7502.025
840.16066	7303.725
843.99827	7141.025
847.8332	7081.725
851.66546	7088.525
855.49504	7080.725
859.32195	7037.125
863.1462	6973.925
866.96777	6930.425
870.78668	6925.725
874.60293	6987.625
878.41652	7089.225
882.22745	7239.825
886.03573	7344.825
889.84136	7292.825
893.64433	7227.925
897.44466	7231.725
901.24235	7285.125
905.0374	7201.825
908.8298	7020.725
912.61957	6887.225
916.40671	6877.325
920.19121	6945.825
923.97308	7155.725
927.75233	7566.225
931.52895	8011.225
935.30295	7818.525
939.07433	7182.925
942.84309	6718.825
946.60924	6481.525
950.37278	6337.925
954.13371	6263.725
957.89203	6214.525
961.64774	6175.825
965.40086	6163.925
969.15137	6146.225
972.89929	6114.725
976.64461	6108.425
980.38733	6119.825
984.12747	6114.825
987.86502	6162.425
991.59999	6237.125
995.33237	6347.025
999.06217	6556.225
1002.78939	6866.925
1006.51404	7216.725
1010.23611	7493.225
1013.95561	7550.125
1017.67255	7449.425
1021.38692	7260.825
1025.09872	7044.625
1028.80796	6914.325
1032.51465	7004.525
1036.21877	7202.225
1039.92035	7314.925
1043.61937	7372.025
1047.31584	7393.425
1051.00976	7335.725
1054.70114	7218.325
1058.38998	7120.025
1062.07627	7112.625
1065.76003	7119.225
1069.44126	7188.025
1073.11995	7373.425
1076.79611	7736.725
1080.46974	8325.525
1084.14085	9124.225
1087.80943	9792.425
1091.47549	9915.625
1095.13903	9388.525
1098.80005	8583.725
1102.45857	8038.225
1106.11456	7946.725
1109.76805	8252.025
1113.41903	8946.125
1117.06751	10079.225
1120.71348	11628.125
1124.35696	13410.325
1127.99793	14288.325
1131.63641	13199.025
1135.2724	11260.925
1138.90589	9825.825
1142.5369	8999.625
1146.16542	8475.025
1149.79145	8150.925
1153.415	8062.925
1157.03607	8195.725
1160.65467	8575.025
1164.27079	9251.625
1167.88443	10344.625
1171.49561	12146.725
1175.10432	15215.625
1178.71056	19169.025
1182.31434	21906.325
1185.91565	22344.625
1189.51451	21091.025
1193.11091	18760.525
1196.70485	16217.725
1200.29634	14403.525
1203.88538	13035.325
1207.47197	11326.025
1211.05612	9868.625
1214.63782	9029.225
1218.21708	8661.825
1221.79391	8569.425
1225.36829	8589.925
1228.94024	8583.725
1232.50976	8523.625
1236.07685	8498.125
1239.6415	8545.525
1243.20374	8700.425
1246.76355	8864.825
1250.32093	9086.225
1253.8759	9473.325
1257.42845	10094.425
1260.97859	10915.225
1264.52631	11735.425
1268.07163	12469.525
1271.61453	12941.625
1275.15503	13062.025
1278.69312	13055.325
1282.22882	13295.825
1285.76211	14095.525
1289.29301	15117.825
1292.82151	15910.025
1296.34761	16794.725
1299.87133	18532.025
1303.39266	21960.525
1306.9116	27669.425
1310.42815	33922.525
1313.94233	36200.325
1317.45412	32788.125
1320.96354	27086.425
1324.47058	21703.425
1327.97525	17589.225
1331.47754	15191.425
1334.97747	14358.825
1338.47502	14707.125
1341.97022	16187.425
1345.46305	18951.325
1348.95352	22568.125
1352.44163	26820.125
1355.92738	33285.625
1359.41078	43201.725
1362.89183	50676.725
1366.37053	45479.025
1369.84688	33198.025
1373.32088	23826.325
1376.79254	18666.725
1380.26186	15850.525
1383.72883	13985.125
1387.19347	12657.525
1390.65578	11411.025
1394.11575	10440.725
1397.57339	9949.925
1401.0287	9727.925
1404.48168	9648.025
1407.93234	9627.525
1411.38068	9806.325
1414.82669	10151.625
1418.27039	10411.625
1421.71177	10360.125
1425.15083	10192.325
1428.58758	10346.025
1432.02203	10798.325
1435.45416	11007.425
1438.88399	10846.225
1442.31151	10654.625
1445.73673	10703.825
1449.15965	10818.425
1452.58027	10695.125
1455.9986	10336.725
1459.41463	10206.625
1462.82837	10429.225
1466.23982	10960.625
1469.64898	11412.825
1473.05586	11610.425
1476.46045	11701.025
1479.86276	11975.125
1483.26279	12606.325
1486.66054	13607.025
1490.05602	15091.825
1493.44922	17286.125
1496.84016	20804.425
1500.22882	26383.025
1503.61521	34257.225
1506.99934	43374.125
1510.38121	50617.825
1513.76081	51737.325
1517.13816	45023.425
1520.51324	34366.825
1523.88607	25347.425
1527.25665	19812.325
1530.62498	16783.725
1533.99105	14963.525
1537.35488	13797.125
1540.71647	13148.825
1544.07581	12903.425
1547.4329	12974.325
1550.78776	13176.225
1554.14038	13535.625
1557.49077	14082.225
1560.83892	14948.325
1564.18484	16276.525
1567.52853	17729.425
1570.86999	18725.025
1574.20922	19125.425
1577.54624	18710.425
1580.88103	16607.325
1584.2136	13779.425
1587.54395	12002.225
1590.87208	11697.125
1594.19801	12697.825
1597.52172	14392.125
1600.84321	15194.825
1604.16251	14540.725
1607.47959	13439.925
1610.79447	12188.825
1614.10715	10854.125
1617.41763	9677.025
1620.7259	8953.525
1624.03199	8695.525
1627.33587	8785.925
1630.63757	9292.025
1633.93707	10311.425
1637.23439	12042.925
1640.52951	15080.925
1643.82246	20129.825
1647.11321	26483.225
1650.40179	30816.325
1653.68819	29031.425
1656.97241	22397.825
1660.25446	15793.525
1663.53433	11563.525
1666.81203	9278.925
1670.08756	8084.625
1673.36092	7352.925
1676.63211	6928.525
1679.90115	6652.425
1683.16801	6447.925
1686.43272	6291.325
1689.69527	6184.825
1692.95567	6107.225
1696.2139	6073.825
1699.46999	6064.725
1702.72392	6017.625
1705.97571	6022.725
1709.22535	6016.025
1712.47284	6038.725
1715.71819	6051.425
1718.96139	6056.225
1722.20246	6014.125
1725.44139	5932.425
1728.67818	5797.325
1731.91284	5719.925
1735.14537	5606.625
1738.37576	5569.725
1741.60403	5522.225
1744.83017	5491.825
1748.05418	5445.325
1751.27607	5405.125
1754.49584	5404.025
1757.71349	5359.625
1760.92903	5332.525
1764.14244	5316.725
1767.35375	5281.225
1770.56294	5221.025
1773.77002	5166.525
1776.97499	5115.425
1780.17785	5063.225
1783.37861	5033.225
1786.57727	4998.425
1789.77382	4987.625
1792.96828	4958.525
1796.16064	4957.725
1799.3509	4955.725
1802.53907	4949.225
1805.72514	4901.425
1808.90913	4859.225
1812.09102	4837.425
1815.27083	4817.825
1818.44856	4801.925
1821.6242	4784.425
1824.79776	4778.625
1827.96924	4754.525
1831.13864	4737.725
1834.30597	4732.625
1837.47122	4690.225
1840.6344	4693.425
1843.7955	4665.525
1846.95454	4644.325
1850.11151	4642.025
1853.26642	4631.625
1856.41926	4619.625
1859.57004	4626.425
1862.71876	4638.825
1865.86542	4649.125
1869.01003	4655.625
1872.15258	4648.225
1875.29308	4651.225
1878.43152	4653.425
1881.56792	4652.125
1884.70227	4642.625
1887.83457	4642.125
1890.96482	4633.025
1894.09304	4616.325
1897.21921	4618.125
1900.34335	4615.625
1903.46544	4600.025
1906.58551	4610.325
1909.70353	4633.625
1912.81953	4611.525
1915.93349	4601.725
1919.04543	4601.025
1922.15534	4570.925
1925.26322	4542.125
1928.36908	4522.725
1931.47292	4475.625
1934.57473	4464.125
1937.67453	4416.625
1940.77232	4391.025
1943.86808	4385.125
1946.96184	4355.625
1950.05358	4367.925
1953.14331	4351.025
1956.23103	4341.125
1959.31675	4344.725
1962.40046	4332.425
1965.48217	4333.725
1968.56188	4355.225
1971.63959	4353.425
1974.7153	4356.225
1977.78901	4316.825
1980.86073	4292.125
1983.93046	4248.325
1986.99819	4209.025
1990.06394	4176.925
1993.1277	4154.025
1996.18947	4117.925
1999.24925	4093.325
2002.30706	4067.925
2005.36288	4063.625
2008.41672	4049.825
2011.46859	4022.725
2014.51848	4028.725
2017.56639	4013.425
2020.61233	3990.225
2023.6563	3993.525
2026.6983	3969.225
2029.73833	3963.825
2032.7764	3950.425
2035.8125	3936.125
2038.84664	3938.725
2041.87881	3939.625
2044.90903	3925.125
2047.93729	3919.725
2050.96359	3903.925
2053.98794	3882.825
2057.01034	3877.025
2060.03078	3871.925
2063.04927	3863.225
2066.06582	3845.225
2069.08042	3836.925
2072.09307	3820.225
2075.10378	3818.825
2078.11255	3815.425
2081.11938	3829.025
2084.12426	3815.625
2087.12722	3822.725
2090.12824	3815.925
2093.12732	3811.225
2096.12447	3831.025
2099.11969	3819.325
2102.11299	3832.625
2105.10435	3833.925
2108.09379	3818.325
2111.08131	3848.725
2114.0669	3843.725
2117.05057	3857.425
2120.03233	3875.325
2123.01216	3881.225
2125.99008	3897.025
2128.96609	3905.125
2131.94018	3891.125
2134.91236	3887.125
2137.88263	3879.925
2140.851	3862.225
2143.81746	3854.325
2146.78201	3821.325
2149.74466	3821.125
2152.7054	3802.325
2155.66425	3799.025
2158.6212	3798.325
2161.57625	3784.625
2164.52941	3767.125
2167.48067	3768.625
2170.43004	3772.925
2173.37752	3789.625
2176.32311	3788.625
2179.26681	3787.125
2182.20863	3791.025
2185.14856	3781.325
2188.08661	3772.625
2191.02278	3759.025
2193.95707	3762.325
2196.88948	3740.625
2199.82001	3730.925
2202.74867	3723.725
2205.67545	3723.625
2208.60037	3726.225
2211.52341	3737.825
2214.44458	3727.525
2217.36388	3720.025
2220.28132	3712.525
2223.1969	3692.325
2226.11061	3687.525
2229.02246	3673.725
2231.93245	3667.425
2234.84058	3651.925
2237.74686	3635.925
2240.65128	3642.425
2243.55385	3632.725
2246.45456	3640.725
2249.35343	3658.825
2252.25044	3664.825
2255.14561	3684.125
2258.03893	3713.625
2260.93041	3729.725
2263.82004	3725.125
2266.70783	3727.425
2269.59378	3706.125
2272.4779	3704.525
2275.36017	3687.925
2278.24061	3677.125
2281.11922	3664.025
2283.996	3648.825
2286.87094	3634.425
2289.74405	3609.125
2292.61534	3597.825
2295.4848	3564.725
2298.35243	3550.825
2301.21824	3544.625
2304.08223	3552.625
2306.94439	3545.025
2309.80474	3564.525
2312.66327	3551.025
2315.51999	3548.625
2318.37489	3556.525
2321.22797	3548.425
2324.07925	3544.825
2326.92871	3531.325
2329.77637	3539.025
2332.62222	3562.225
2335.46626	3543.425
2338.3085	3557.625
2341.14893	3560.725
2343.98756	3571.825
2346.8244	3580.225
2349.65943	3598.025
2352.49267	3613.325
2355.32411	3648.625
2358.15376	3648.825
2360.98161	3677.925
2363.80768	3706.225
2366.63195	3713.625
2369.45444	3719.725
2372.27514	3718.125
2375.09405	3705.625
2377.91118	3683.625
2380.72652	3662.325
2383.54009	3627.225
2386.35187	3588.625
2389.16188	3559.025
2391.97011	3533.425
2394.77657	3521.725
2397.58125	3492.525
2400.38416	3473.925
2403.18529	3473.225
2405.98466	3450.025
2408.78226	3442.525
2411.57809	3412.325
2414.37216	3417.025
2417.16446	3424.425
2419.955	3408.225
2422.74378	3414.325
2425.5308	3400.225
2428.31606	3416.225
2431.09956	3438.725
2433.88131	3441.825
2436.6613	3440.025
2439.43954	3462.325
2442.21603	3488.725
2444.99077	3489.125
2447.76377	3490.725
2450.53501	3500.125
2453.30451	3498.125
2456.07226	3499.825
2458.83827	3503.025
2461.60254	3498.525
2464.36507	3488.025
2467.12586	3476.325
2469.88492	3497.525
2472.64224	3508.825
2475.39782	3514.125
2478.15167	3541.025
2480.90379	3558.025
2483.65417	3576.825
2486.40283	3621.425
2489.14976	3638.025
2491.89497	3648.625
2494.63845	3641.825
2497.3802	3634.125
2500.12024	3622.525
2502.85855	3589.525
2505.59514	3559.225
2508.33002	3525.725
2511.06318	3488.625
2513.79462	3442.325
2516.52435	3390.125
2519.25237	3374.225
2521.97867	3358.725
2524.70327	3347.325
2527.42616	3322.725
2530.14734	3335.725
2532.86681	3332.725
2535.58458	3325.225
2538.30065	3316.125
2541.01501	3338.825
2543.72768	3340.225
2546.43864	3343.725
2549.14791	3359.525
2551.85548	3362.925
2554.56136	3364.125
2557.26554	3362.425
2559.96803	3368.625
2562.66883	3369.225
2565.36794	3354.725
2568.06536	3353.425
2570.7611	3341.825
2573.45514	3325.425
2576.14751	3323.925
2578.83819	3288.825
2581.52719	3290.625
2584.21451	3289.825
2586.90015	3277.525
2589.58411	3256.825
2592.2664	3264.925
2594.94701	3265.725
2597.62594	3264.925
2600.30321	3274.025
2602.9788	3256.825
2605.65273	3271.625
2608.32498	3260.325
2610.99557	3262.625
2613.66449	3259.525
2616.33175	3275.325
2618.99734	3279.325
2621.66128	3290.625
2624.32355	3276.525
2626.98416	3270.925
2629.64311	3268.925
2632.30041	3253.625
2634.95605	3238.325
2637.61004	3246.025
2640.26238	3230.725
2642.91306	3219.225
2645.56209	3203.325
2648.20948	3204.525
2650.85521	3196.125
2653.4993	3193.225
2656.14175	3193.525
2658.78255	3210.425
2661.42171	3214.525
2664.05923	3225.125
2666.6951	3236.025
2669.32934	3256.025
2671.96194	3276.025
2674.59291	3279.525
2677.22224	3272.125
2679.84993	3267.925
2682.476	3251.525
2685.10043	3261.725
2687.72324	3242.925
2690.34441	3243.825
2692.96396	3239.225
2695.58188	3236.625
2698.19818	3249.325
2700.81285	3229.925
2703.4259	3242.525
2706.03733	3240.425
2708.64714	3254.425
2711.25533	3251.225
2713.86191	3254.325
2716.46687	3277.825
2719.07021	3254.025
2721.67194	3252.525
2724.27206	3262.625
2726.87057	3256.625
2729.46747	3241.025
2732.06276	3232.525
2734.65644	3211.525
2737.24852	3202.625
2739.83899	3183.725
2742.42786	3187.625
2745.01513	3158.525
2747.60079	3149.825
2750.18486	3160.125
2752.76733	3153.725
2755.3482	3137.825
2757.92747	3125.525
2760.50515	3111.425
2763.08123	3112.525
2765.65573	3107.525
2768.22863	3110.225
2770.79994	3113.225
2773.36967	3100.125
2775.9378	3112.925
2778.50435	3114.725
2781.06932	3103.425
2783.6327	3114.625
2786.1945	3106.225
2788.75471	3120.325
2791.31335	3104.825
2793.87041	3111.225
2796.42589	3123.025
2798.97979	3129.625
2801.53212	3142.525
2804.08288	3155.225
2806.63206	3174.625
2809.17967	3179.225
2811.72571	3200.825
2814.27018	3220.425
2816.81308	3233.825
2819.35442	3259.525
2821.89419	3262.325
2824.43239	3271.325
2826.96904	3288.325
2829.50412	3283.125
2832.03763	3281.825
2834.56959	3282.425
2837.1	3264.925
2839.62884	3264.225
2842.15613	3253.125
2844.68186	3272.625
2847.20604	3293.225
2849.72867	3301.825
2852.24974	3307.625
2854.76927	3330.825
2857.28724	3340.625
2859.80367	3344.725
2862.31855	3357.025
2864.83189	3393.025
2867.34368	3411.525
2869.85393	3433.025
2872.36264	3433.825
2874.8698	3454.125
2877.37543	3443.725
2879.87952	3424.325
2882.38207	3411.225
2884.88308	3392.725
2887.38256	3391.325
2889.88051	3370.325
2892.37692	3368.325
2894.8718	3343.725
2897.36515	3342.225
2899.85698	3354.225
2902.34727	3324.625
2904.83604	3328.825
2907.32328	3317.525
2909.809	3313.625
2912.29319	3309.825
2914.77587	3300.025
2917.25702	3276.225
2919.73665	3257.825
2922.21476	3247.625
2924.69136	3241.725
2927.16644	3227.525
2929.64	3212.425
2932.11205	3215.625
2934.58258	3196.525
2937.05161	3175.225
2939.51912	3191.925
2941.98513	3181.225
2944.44962	3175.625
2946.91261	3169.325
2949.37409	3171.325
2951.83407	3170.525
2954.29254	3160.625
2956.74951	3173.225
2959.20498	3170.725
2961.65895	3158.825
2964.11142	3173.525
2966.56239	3151.225
2969.01186	3147.025
2971.45984	3130.925
2973.90632	3107.625
2976.35131	3083.825
2978.7948	3081.725
2981.23681	3057.325
2983.67732	3050.325
2986.11635	3040.925
2988.55388	3042.225
2990.98993	3054.025
2993.4245	3051.525
2995.85758	3061.125
2998.28917	3066.125
3000.71928	3069.225
3003.14791	3064.225
3005.57506	3082.025
3008.00073	3068.825
3010.42493	3083.925
3012.84764	3086.025
3015.26888	3078.625
3017.68865	3067.825
3020.10694	3070.525
3022.52376	3048.725
3024.9391	3035.725
3027.35298	3038.025
3029.76539	3029.425
3032.17632	3004.425
3034.5858	2979.525
3036.9938	2964.925
3039.40034	2955.725
3041.80542	2920.125
3044.20903	2904.325
3046.61118	2906.725
3049.01187	2887.025
3051.4111	2883.325
3053.80888	2886.225
3056.20519	2885.025
3058.60005	2873.825
3060.99345	2858.225
3063.3854	2859.325
3065.7759	2858.325
3068.16494	2851.025
3070.55254	2832.125
3072.93868	2820.025
3075.32338	2816.925
3077.70662	2810.425
3080.08842	2807.825
3082.46878	2810.525
3084.84769	2791.025
3087.22515	2792.125
3089.60118	2786.125
3091.97576	2792.525
3094.3489	2794.825
3096.72061	2781.925
3099.09087	2780.625
3101.4597	2773.925
3103.82709	2787.525
3106.19305	2786.625
3108.55757	2775.225
3110.92066	2771.225
3113.28232	2778.125
3115.64255	2765.225
3118.00134	2771.025
3120.35871	2753.125
3122.71466	2767.525
3125.06917	2761.925
3127.42226	2774.425
3129.77393	2777.425
3132.12417	2781.425
3134.47299	2787.025
3136.82039	2795.125
3139.16636	2797.325
3141.51092	2791.925
3143.85406	2808.525
3146.19579	2819.125
3148.53609	2824.725
3150.87499	2835.925
3153.21246	2834.225
3155.54853	2861.425
3157.88318	2846.625
3160.21642	2855.525
3162.54826	2858.025
3164.87868	2865.225
3167.2077	2868.425
3169.5353	2866.525
3171.86151	2865.025
3174.18631	2867.825
3176.5097	2863.625
3178.83169	2863.125
3181.15228	2870.425
3183.47147	2877.125
3185.78926	2877.425
3188.10565	2878.725
3190.42065	2871.425
3192.73424	2880.225
3195.04645	2897.625
3197.35725	2908.925
3199.66667	2921.225
3201.97469	2938.125
3204.28132	2932.925
3206.58656	2952.025
3208.8904	2967.425
3211.19287	2983.425
3213.49394	2993.625
3215.79363	2992.825
3218.09193	2993.825
3220.38884	2994.225
3222.68438	2999.325
3224.97853	2994.125
3227.2713	3006.025
3229.56269	2993.725
3231.8527	2988.625
3234.14133	2989.825
3236.42858	2996.325
3238.71446	2987.025
3240.99896	2992.825
3243.28209	2994.925
3245.56384	2982.025
3247.84423	2979.125
3250.12324	2976.525
3252.40088	2989.525
3254.67715	2978.825
3256.95205	2977.925
3259.22558	2963.325
3261.49775	2956.625
3263.76855	2963.225
3266.03799	2951.325
3268.30606	2957.025
3270.57277	2936.425
3272.83812	2932.425
3275.10211	2945.725
3277.36474	2941.225
3279.62601	2945.825
3281.88593	2939.425
3284.14448	2938.225
3286.40168	2949.425
3288.65753	2946.225
3290.91202	2953.125
3293.16516	2947.925
3295.41695	2938.325
3297.66738	2922.525
3299.91647	2915.325
3302.16421	2889.425
3304.4106	2875.825
3306.65564	2855.125
3308.89933	2820.625
3311.14169	2810.025
3313.38269	2766.725
3315.62236	2755.325
3317.86068	2711.625
3320.09766	2677.525
3322.3333	2652.225
3324.5676	2644.825
3326.80056	2607.825
3329.03219	2584.425
3331.26248	1.325
3333.49143	-0.575
3335.71905	0.625
