Data from AgNP_FTO_APTES_UA_100uM_CRN_100uM_R6G_10uM_NaF_0.1M_Addition_RamanShift__10__17-59-10-575.txt Node

Date: Thu Mar 24 17:59:10 GMT 2022
User: TCL
Spectrometer: QEP01345
Trigger mode: 4
Integration Time (sec): 7.000000E0
Scans to average: 10
Electric dark correction enabled: true
Nonlinearity correction enabled: false
Boxcar width: 0
XAxis mode: Raman Shifts
Number of Pixels in Spectrum: 1044
>>>>>Begin Spectral Data<<<<<
46.04893	-0.5125
50.45542	0.1875
54.85868	-0.1125
59.25871	0.0875
63.6555	32.2875
68.04907	36.0875
72.43941	38.2875
76.82654	34.3875
81.21044	38.8875
85.59113	38.0875
89.96862	39.8875
94.34289	42.1875
98.71396	42.2875
103.08183	43.9875
107.4465	45.1875
111.80798	47.8875
116.16626	46.7875
120.52136	48.5875
124.87327	49.6875
129.222	50.1875
133.56755	56.3875
137.90993	53.3875
142.24913	62.4875
146.58517	65.1875
150.91804	76.6875
155.24774	92.6875
159.57429	112.6875
163.89768	139.6875
168.21792	183.2875
172.53501	252.1875
176.84895	347.6875
181.15975	494.8875
185.46741	685.5875
189.77193	943.5875
194.07331	1269.8875
198.37157	1652.1875
202.6667	2032.6875
206.9587	2439.9875
211.24758	2838.3875
215.53334	3229.2875
219.81599	3658.9875
224.09553	4147.6875
228.37195	4683.2875
232.64527	5274.9875
236.91549	5881.9875
241.18261	6479.5875
245.44663	6960.8875
249.70755	7387.9875
253.96539	7724.2875
258.22014	8040.4875
262.4718	8278.0875
266.72039	8449.0875
270.96589	8525.2875
275.20832	8513.2875
279.44768	8419.1875
283.68397	8327.5875
287.91719	8246.7875
292.14735	8237.2875
296.37445	8294.0875
300.59849	8441.9875
304.81948	8633.7875
309.03742	8763.5875
313.25231	8750.2875
317.46415	8581.3875
321.67296	8224.3875
325.87872	7912.2875
330.08145	7776.3875
334.28114	7740.2875
338.47781	7805.5875
342.67145	7941.1875
346.86207	8132.2875
351.04966	8382.8875
355.23424	8616.1875
359.4158	8817.8875
363.59435	8912.9875
367.76989	8969.0875
371.94243	8953.2875
376.11196	8959.0875
380.27849	8930.3875
384.44203	8899.1875
388.60257	8906.0875
392.76012	8961.9875
396.91468	9052.2875
401.06626	9193.4875
405.21485	9318.6875
409.36047	9210.4875
413.50311	8950.3875
417.64277	8690.0875
421.77947	8532.9875
425.9132	8482.7875
430.04396	8523.0875
434.17176	8554.1875
438.2966	8621.9875
442.41849	8771.2875
446.53742	8966.9875
450.6534	9155.8875
454.76644	9280.8875
458.87653	9308.0875
462.98368	9255.7875
467.08789	9155.6875
471.18916	9044.7875
475.2875	8959.4875
479.38291	8830.9875
483.4754	8748.0875
487.56496	8669.6875
491.6516	8598.5875
495.73531	8566.3875
499.81612	8555.6875
503.89401	8584.5875
507.96899	8616.1875
512.04106	8649.8875
516.11023	8671.9875
520.1765	8673.3875
524.23987	8650.9875
528.30034	8632.0875
532.35792	8565.1875
536.41261	8488.9875
540.46441	8366.9875
544.51333	8301.0875
548.55936	8384.8875
552.60252	8540.9875
556.64279	8682.5875
560.6802	8796.2875
564.71473	8862.9875
568.7464	9049.8875
572.7752	9257.5875
576.80114	9338.2875
580.82422	9431.9875
584.84444	9587.5875
588.86181	9772.4875
592.87633	9930.6875
596.888	10059.9875
600.89682	10067.2875
604.9028	10453.3875
608.90594	11916.8875
612.90624	13851.1875
616.90371	13144.9875
620.89834	10209.2875
624.89015	8801.8875
628.87913	8580.2875
632.86528	8772.7875
636.84862	8948.4875
640.82913	8868.5875
644.80683	8512.5875
648.78172	8247.1875
652.75379	8190.2875
656.72306	8331.0875
660.68952	8581.1875
664.65319	8531.1875
668.61405	8232.6875
672.57211	8096.8875
676.52738	8110.9875
680.47986	8097.1875
684.42955	8022.9875
688.37646	7986.2875
692.32058	7981.9875
696.26192	8031.0875
700.20048	8142.7875
704.13626	8207.4875
708.06928	8221.5875
711.99952	8189.0875
715.927	8200.6875
719.85171	8208.7875
723.77365	8221.1875
727.69284	8183.5875
731.60928	8125.6875
735.52295	8090.2875
739.43388	8096.0875
743.34206	8137.1875
747.24749	8144.9875
751.15017	8180.1875
755.05012	8300.8875
758.94733	8563.0875
762.8418	9244.6875
766.73354	10425.3875
770.62254	11550.8875
774.50882	11901.1875
778.39237	11358.0875
782.27321	10198.4875
786.15132	9132.6875
790.02671	8449.7875
793.89938	8135.6875
797.76935	7983.8875
801.6366	7914.9875
805.50115	7885.4875
809.36299	7835.7875
813.22213	7823.3875
817.07857	7814.0875
820.93231	7782.4875
824.78336	7767.4875
828.63172	7748.3875
832.47738	7755.5875
836.32036	7721.8875
840.16066	7700.7875
843.99827	7696.6875
847.8332	7694.0875
851.66546	7686.3875
855.49504	7686.0875
859.32195	7667.5875
863.1462	7633.6875
866.96777	7655.3875
870.78668	7640.3875
874.60293	7665.5875
878.41652	7691.5875
882.22745	7710.7875
886.03573	7756.9875
889.84136	7775.4875
893.64433	7735.6875
897.44466	7708.9875
901.24235	7668.0875
905.0374	7639.7875
908.8298	7590.1875
912.61957	7552.5875
916.40671	7569.8875
920.19121	7639.9875
923.97308	7717.2875
927.75233	7738.0875
931.52895	7730.7875
935.30295	7634.9875
939.07433	7466.6875
942.84309	7318.0875
946.60924	7230.7875
950.37278	7198.8875
954.13371	7186.2875
957.89203	7172.8875
961.64774	7163.8875
965.40086	7168.4875
969.15137	7127.8875
972.89929	7132.6875
976.64461	7092.8875
980.38733	7078.0875
984.12747	7071.8875
987.86502	7103.3875
991.59999	7134.7875
995.33237	7189.0875
999.06217	7267.4875
1002.78939	7412.5875
1006.51404	7574.2875
1010.23611	7709.5875
1013.95561	7772.9875
1017.67255	7767.1875
1021.38692	7680.2875
1025.09872	7584.2875
1028.80796	7436.2875
1032.51465	7381.0875
1036.21877	7375.4875
1039.92035	7419.4875
1043.61937	7463.3875
1047.31584	7502.0875
1051.00976	7546.1875
1054.70114	7568.8875
1058.38998	7573.2875
1062.07627	7622.3875
1065.76003	7682.8875
1069.44126	7782.5875
1073.11995	7910.9875
1076.79611	8069.1875
1080.46974	8182.8875
1084.14085	8278.8875
1087.80943	8416.2875
1091.47549	8465.4875
1095.13903	8403.8875
1098.80005	8221.2875
1102.45857	8023.6875
1106.11456	7884.2875
1109.76805	7860.7875
1113.41903	7955.7875
1117.06751	8105.8875
1120.71348	8350.0875
1124.35696	8583.8875
1127.99793	8846.1875
1131.63641	8836.7875
1135.2724	8634.2875
1138.90589	8419.6875
1142.5369	8242.3875
1146.16542	8151.4875
1149.79145	8098.5875
1153.415	8084.7875
1157.03607	8117.6875
1160.65467	8290.3875
1164.27079	8534.5875
1167.88443	8990.7875
1171.49561	9626.0875
1175.10432	10574.4875
1178.71056	11761.9875
1182.31434	12768.0875
1185.91565	13088.5875
1189.51451	12815.3875
1193.11091	12244.7875
1196.70485	11560.7875
1200.29634	10936.8875
1203.88538	10436.6875
1207.47197	9896.1875
1211.05612	9459.4875
1214.63782	9146.0875
1218.21708	9008.3875
1221.79391	8928.8875
1225.36829	8913.9875
1228.94024	8899.2875
1232.50976	8776.8875
1236.07685	8665.2875
1239.6415	8632.3875
1243.20374	8620.5875
1246.76355	8661.4875
1250.32093	8705.8875
1253.8759	8807.2875
1257.42845	9031.1875
1260.97859	9296.2875
1264.52631	9600.7875
1268.07163	9909.3875
1271.61453	10158.4875
1275.15503	10387.9875
1278.69312	10575.1875
1282.22882	10776.1875
1285.76211	11112.0875
1289.29301	11503.5875
1292.82151	11956.3875
1296.34761	12456.7875
1299.87133	13160.8875
1303.39266	14093.2875
1306.9116	15313.1875
1310.42815	16500.3875
1313.94233	17052.3875
1317.45412	16669.0875
1320.96354	15801.2875
1324.47058	14981.4875
1327.97525	14205.5875
1331.47754	13628.1875
1334.97747	13340.2875
1338.47502	13218.4875
1341.97022	13347.5875
1345.46305	13656.3875
1348.95352	14173.8875
1352.44163	14912.9875
1355.92738	15951.2875
1359.41078	17557.4875
1362.89183	19122.5875
1366.37053	18853.3875
1369.84688	16539.0875
1373.32088	14003.8875
1376.79254	12429.6875
1380.26186	11614.3875
1383.72883	11143.9875
1387.19347	10791.7875
1390.65578	10489.0875
1394.11575	10256.6875
1397.57339	10181.4875
1401.0287	10166.8875
1404.48168	10148.4875
1407.93234	10121.3875
1411.38068	9970.2875
1414.82669	9808.6875
1418.27039	9601.5875
1421.71177	9328.9875
1425.15083	9071.8875
1428.58758	8954.6875
1432.02203	8958.8875
1435.45416	9118.9875
1438.88399	9211.2875
1442.31151	9315.7875
1445.73673	9416.0875
1449.15965	9484.1875
1452.58027	9554.8875
1455.9986	9552.8875
1459.41463	9606.5875
1462.82837	9737.8875
1466.23982	10026.3875
1469.64898	10301.7875
1473.05586	10528.5875
1476.46045	10712.8875
1479.86276	10847.7875
1483.26279	10985.1875
1486.66054	11210.9875
1490.05602	11535.7875
1493.44922	12082.8875
1496.84016	12823.5875
1500.22882	13962.8875
1503.61521	15447.1875
1506.99934	16958.7875
1510.38121	17954.5875
1513.76081	17826.5875
1517.13816	16539.6875
1520.51324	14763.3875
1523.88607	13243.0875
1527.25665	12346.9875
1530.62498	11793.2875
1533.99105	11460.9875
1537.35488	11147.5875
1540.71647	10870.1875
1544.07581	10563.1875
1547.4329	10345.6875
1550.78776	10130.1875
1554.14038	10041.5875
1557.49077	10051.7875
1560.83892	10151.7875
1564.18484	10415.1875
1567.52853	10794.4875
1570.86999	11117.1875
1574.20922	11319.3875
1577.54624	11314.7875
1580.88103	10892.3875
1584.2136	10292.0875
1587.54395	10053.2875
1590.87208	10156.2875
1594.19801	10596.9875
1597.52172	11213.1875
1600.84321	11427.5875
1604.16251	11045.3875
1607.47959	10397.6875
1610.79447	9678.8875
1614.10715	9048.8875
1617.41763	8494.1875
1620.7259	8093.8875
1624.03199	7878.1875
1627.33587	7837.4875
1630.63757	7977.7875
1633.93707	8394.5875
1637.23439	9112.8875
1640.52951	10326.4875
1643.82246	11969.0875
1647.11321	13710.2875
1650.40179	14642.0875
1653.68819	14051.6875
1656.97241	12243.6875
1660.25446	10228.1875
1663.53433	8709.0875
1666.81203	7788.4875
1670.08756	7246.4875
1673.36092	6914.2875
1676.63211	6705.8875
1679.90115	6576.2875
1683.16801	6451.5875
1686.43272	6344.5875
1689.69527	6253.3875
1692.95567	6225.0875
1696.2139	6184.8875
1699.46999	6137.7875
1702.72392	6101.4875
1705.97571	6075.4875
1709.22535	6053.0875
1712.47284	6045.7875
1715.71819	6020.7875
1718.96139	5976.7875
1722.20246	5942.8875
1725.44139	5910.0875
1728.67818	5871.9875
1731.91284	5803.1875
1735.14537	5777.7875
1738.37576	5741.9875
1741.60403	5722.9875
1744.83017	5673.1875
1748.05418	5660.0875
1751.27607	5633.5875
1754.49584	5632.4875
1757.71349	5594.1875
1760.92903	5604.0875
1764.14244	5617.3875
1767.35375	5588.5875
1770.56294	5552.8875
1773.77002	5537.8875
1776.97499	5517.6875
1780.17785	5504.4875
1783.37861	5483.8875
1786.57727	5483.2875
1789.77382	5451.2875
1792.96828	5439.1875
1796.16064	5433.7875
1799.3509	5418.9875
1802.53907	5400.1875
1805.72514	5382.2875
1808.90913	5373.6875
1812.09102	5348.2875
1815.27083	5332.0875
1818.44856	5325.9875
1821.6242	5302.5875
1824.79776	5297.8875
1827.96924	5273.9875
1831.13864	5276.0875
1834.30597	5268.1875
1837.47122	5253.3875
1840.6344	5234.4875
1843.7955	5225.5875
1846.95454	5234.9875
1850.11151	5222.0875
1853.26642	5222.3875
1856.41926	5221.6875
1859.57004	5200.4875
1862.71876	5178.5875
1865.86542	5180.7875
1869.01003	5189.3875
1872.15258	5172.4875
1875.29308	5149.7875
1878.43152	5148.9875
1881.56792	5156.4875
1884.70227	5140.4875
1887.83457	5134.2875
1890.96482	5120.8875
1894.09304	5106.6875
1897.21921	5109.6875
1900.34335	5081.7875
1903.46544	5081.1875
1906.58551	5087.5875
1909.70353	5085.4875
1912.81953	5063.3875
1915.93349	5045.9875
1919.04543	5045.9875
1922.15534	5036.7875
1925.26322	5015.0875
1928.36908	4998.6875
1931.47292	4985.3875
1934.57473	4961.7875
1937.67453	4956.1875
1940.77232	4950.8875
1943.86808	4927.4875
1946.96184	4923.0875
1950.05358	4877.0875
1953.14331	4868.2875
1956.23103	4870.6875
1959.31675	4829.4875
1962.40046	4816.2875
1965.48217	4823.9875
1968.56188	4798.2875
1971.63959	4777.9875
1974.7153	4778.7875
1977.78901	4758.6875
1980.86073	4744.2875
1983.93046	4714.0875
1986.99819	4700.8875
1990.06394	4669.0875
1993.1277	4674.0875
1996.18947	4649.0875
1999.24925	4641.7875
2002.30706	4616.9875
2005.36288	4595.4875
2008.41672	4575.1875
2011.46859	4558.5875
2014.51848	4549.4875
2017.56639	4531.4875
2020.61233	4511.1875
2023.6563	4516.3875
2026.6983	4472.1875
2029.73833	4479.5875
2032.7764	4464.1875
2035.8125	4452.5875
2038.84664	4442.3875
2041.87881	4425.1875
2044.90903	4416.0875
2047.93729	4403.1875
2050.96359	4396.7875
2053.98794	4374.9875
2057.01034	4368.2875
2060.03078	4361.1875
2063.04927	4353.3875
2066.06582	4354.2875
2069.08042	4347.9875
2072.09307	4358.4875
2075.10378	4329.4875
2078.11255	4334.4875
2081.11938	4343.2875
2084.12426	4340.3875
2087.12722	4317.4875
2090.12824	4334.7875
2093.12732	4326.5875
2096.12447	4318.7875
2099.11969	4312.0875
2102.11299	4327.9875
2105.10435	4326.7875
2108.09379	4319.2875
2111.08131	4326.8875
2114.0669	4323.6875
2117.05057	4341.2875
2120.03233	4331.0875
2123.01216	4331.6875
2125.99008	4340.5875
2128.96609	4337.6875
2131.94018	4311.4875
2134.91236	4338.1875
2137.88263	4346.3875
2140.851	4324.6875
2143.81746	4334.5875
2146.78201	4321.5875
2149.74466	4319.8875
2152.7054	4323.3875
2155.66425	4309.1875
2158.6212	4296.2875
2161.57625	4292.0875
2164.52941	4303.2875
2167.48067	4272.8875
2170.43004	4292.3875
2173.37752	4280.3875
2176.32311	4257.2875
2179.26681	4276.7875
2182.20863	4268.7875
2185.14856	4268.9875
2188.08661	4252.2875
2191.02278	4276.3875
2193.95707	4253.5875
2196.88948	4247.7875
2199.82001	4262.2875
2202.74867	4237.1875
2205.67545	4239.6875
2208.60037	4236.8875
2211.52341	4217.3875
2214.44458	4192.4875
2217.36388	4196.7875
2220.28132	4183.3875
2223.1969	4163.8875
2226.11061	4163.5875
2229.02246	4146.9875
2231.93245	4143.7875
2234.84058	4143.6875
2237.74686	4130.9875
2240.65128	4125.4875
2243.55385	4107.3875
2246.45456	4123.1875
2249.35343	4103.0875
2252.25044	4114.8875
2255.14561	4103.4875
2258.03893	4102.8875
2260.93041	4073.0875
2263.82004	4064.9875
2266.70783	4074.1875
2269.59378	4061.8875
2272.4779	4039.4875
2275.36017	4036.8875
2278.24061	4019.9875
2281.11922	4014.7875
2283.996	3986.9875
2286.87094	3997.4875
2289.74405	4003.3875
2292.61534	3975.1875
2295.4848	3963.4875
2298.35243	3963.9875
2301.21824	3948.5875
2304.08223	3949.3875
2306.94439	3947.8875
2309.80474	3941.6875
2312.66327	3939.8875
2315.51999	3911.9875
2318.37489	3925.9875
2321.22797	3915.0875
2324.07925	3909.4875
2326.92871	3906.8875
2329.77637	3910.3875
2332.62222	3898.2875
2335.46626	3880.7875
2338.3085	3881.6875
2341.14893	3853.5875
2343.98756	3872.2875
2346.8244	3866.3875
2349.65943	3877.9875
2352.49267	3871.4875
2355.32411	3883.0875
2358.15376	3883.8875
2360.98161	3885.1875
2363.80768	3890.9875
2366.63195	3893.3875
2369.45444	3893.3875
2372.27514	3881.6875
2375.09405	3880.6875
2377.91118	3864.5875
2380.72652	3853.7875
2383.54009	3841.2875
2386.35187	3829.6875
2389.16188	3819.5875
2391.97011	3794.4875
2394.77657	3797.2875
2397.58125	3762.0875
2400.38416	3776.0875
2403.18529	3768.4875
2405.98466	3765.3875
2408.78226	3748.0875
2411.57809	3729.4875
2414.37216	3731.7875
2417.16446	3716.1875
2419.955	3707.1875
2422.74378	3718.4875
2425.5308	3713.5875
2428.31606	3709.6875
2431.09956	3698.5875
2433.88131	3707.7875
2436.6613	3695.1875
2439.43954	3699.2875
2442.21603	3686.7875
2444.99077	3691.9875
2447.76377	3685.1875
2450.53501	3683.2875
2453.30451	3688.4875
2456.07226	3695.3875
2458.83827	3675.9875
2461.60254	3694.7875
2464.36507	3685.2875
2467.12586	3681.0875
2469.88492	3676.2875
2472.64224	3684.8875
2475.39782	3667.7875
2478.15167	3675.3875
2480.90379	3687.8875
2483.65417	3681.2875
2486.40283	3687.9875
2489.14976	3693.7875
2491.89497	3687.1875
2494.63845	3694.0875
2497.3802	3675.0875
2500.12024	3674.2875
2502.85855	3670.0875
2505.59514	3672.4875
2508.33002	3643.5875
2511.06318	3630.0875
2513.79462	3613.3875
2516.52435	3610.6875
2519.25237	3609.0875
2521.97867	3589.4875
2524.70327	3599.8875
2527.42616	3582.0875
2530.14734	3579.3875
2532.86681	3562.7875
2535.58458	3558.9875
2538.30065	3564.1875
2541.01501	3575.4875
2543.72768	3567.5875
2546.43864	3556.3875
2549.14791	3553.4875
2551.85548	3537.4875
2554.56136	3543.4875
2557.26554	3518.6875
2559.96803	3520.0875
2562.66883	3522.5875
2565.36794	3518.1875
2568.06536	3512.7875
2570.7611	3492.6875
2573.45514	3491.4875
2576.14751	3481.0875
2578.83819	3483.1875
2581.52719	3481.1875
2584.21451	3481.3875
2586.90015	3482.2875
2589.58411	3464.7875
2592.2664	3457.9875
2594.94701	3455.1875
2597.62594	3435.6875
2600.30321	3443.5875
2602.9788	3444.0875
2605.65273	3428.2875
2608.32498	3427.1875
2610.99557	3422.2875
2613.66449	3424.0875
2616.33175	3425.3875
2618.99734	3430.1875
2621.66128	3416.6875
2624.32355	3413.4875
2626.98416	3408.7875
2629.64311	3395.5875
2632.30041	3392.0875
2634.95605	3391.9875
2637.61004	3383.4875
2640.26238	3376.6875
2642.91306	3385.3875
2645.56209	3380.8875
2648.20948	3379.2875
2650.85521	3372.7875
2653.4993	3368.8875
2656.14175	3370.3875
2658.78255	3390.7875
2661.42171	3374.0875
2664.05923	3383.8875
2666.6951	3379.4875
2669.32934	3402.6875
2671.96194	3382.0875
2674.59291	3384.0875
2677.22224	3370.7875
2679.84993	3369.9875
2682.476	3358.7875
2685.10043	3376.2875
2687.72324	3358.1875
2690.34441	3366.0875
2692.96396	3364.0875
2695.58188	3365.2875
2698.19818	3356.7875
2700.81285	3372.0875
2703.4259	3357.1875
2706.03733	3355.1875
2708.64714	3352.5875
2711.25533	3364.7875
2713.86191	3360.8875
2716.46687	3375.5875
2719.07021	3381.9875
2721.67194	3378.1875
2724.27206	3368.4875
2726.87057	3368.4875
2729.46747	3378.7875
2732.06276	3360.8875
2734.65644	3359.8875
2737.24852	3350.1875
2739.83899	3357.7875
2742.42786	3342.4875
2745.01513	3334.9875
2747.60079	3344.3875
2750.18486	3320.7875
2752.76733	3323.1875
2755.3482	3321.0875
2757.92747	3316.3875
2760.50515	3297.4875
2763.08123	3304.9875
2765.65573	3290.2875
2768.22863	3295.2875
2770.79994	3290.2875
2773.36967	3298.1875
2775.9378	3295.4875
2778.50435	3284.4875
2781.06932	3281.3875
2783.6327	3281.7875
2786.1945	3286.4875
2788.75471	3282.2875
2791.31335	3275.5875
2793.87041	3273.5875
2796.42589	3270.9875
2798.97979	3269.4875
2801.53212	3251.3875
2804.08288	3255.4875
2806.63206	3246.8875
2809.17967	3240.7875
2811.72571	3244.6875
2814.27018	3252.7875
2816.81308	3231.6875
2819.35442	3221.3875
2821.89419	3238.2875
2824.43239	3228.2875
2826.96904	3219.7875
2829.50412	3220.5875
2832.03763	3214.8875
2834.56959	3218.8875
2837.1	3207.0875
2839.62884	3227.6875
2842.15613	3213.0875
2844.68186	3222.4875
2847.20604	3216.7875
2849.72867	3233.7875
2852.24974	3232.0875
2854.76927	3219.3875
2857.28724	3210.3875
2859.80367	3227.1875
2862.31855	3214.8875
2864.83189	3214.0875
2867.34368	3225.6875
2869.85393	3206.5875
2872.36264	3224.5875
2874.8698	3211.4875
2877.37543	3213.2875
2879.87952	3210.1875
2882.38207	3201.7875
2884.88308	3200.1875
2887.38256	3225.5875
2889.88051	3198.4875
2892.37692	3199.0875
2894.8718	3209.3875
2897.36515	3208.7875
2899.85698	3202.2875
2902.34727	3198.0875
2904.83604	3193.1875
2907.32328	3204.3875
2909.809	3218.9875
2912.29319	3214.2875
2914.77587	3208.8875
2917.25702	3213.2875
2919.73665	3195.9875
2922.21476	3207.1875
2924.69136	3207.2875
2927.16644	3206.6875
2929.64	3191.9875
2932.11205	3176.5875
2934.58258	3173.7875
2937.05161	3176.1875
2939.51912	3171.9875
2941.98513	3152.4875
2944.44962	3157.0875
2946.91261	3145.0875
2949.37409	3157.0875
2951.83407	3154.8875
2954.29254	3146.3875
2956.74951	3139.4875
2959.20498	3138.8875
2961.65895	3131.1875
2964.11142	3129.9875
2966.56239	3129.5875
2969.01186	3103.5875
2971.45984	3106.2875
2973.90632	3100.2875
2976.35131	3092.6875
2978.7948	3079.7875
2981.23681	3070.4875
2983.67732	3061.4875
2986.11635	3057.1875
2988.55388	3058.7875
2990.98993	3045.4875
2993.4245	3047.7875
2995.85758	3054.3875
2998.28917	3046.2875
3000.71928	3046.8875
3003.14791	3030.2875
3005.57506	3029.7875
3008.00073	3018.1875
3010.42493	3024.4875
3012.84764	3018.7875
3015.26888	3007.8875
3017.68865	3011.3875
3020.10694	3013.6875
3022.52376	3011.4875
3024.9391	2986.0875
3027.35298	2979.7875
3029.76539	2978.5875
3032.17632	2978.7875
3034.5858	2969.4875
3036.9938	2965.8875
3039.40034	2951.0875
3041.80542	2954.2875
3044.20903	2956.9875
3046.61118	2968.0875
3049.01187	2956.0875
3051.4111	2944.1875
3053.80888	2941.9875
3056.20519	2936.7875
3058.60005	2929.7875
3060.99345	2928.4875
3063.3854	2922.0875
3065.7759	2905.9875
3068.16494	2909.7875
3070.55254	2893.7875
3072.93868	2905.2875
3075.32338	2887.1875
3077.70662	2888.2875
3080.08842	2883.5875
3082.46878	2887.4875
3084.84769	2887.4875
3087.22515	2890.0875
3089.60118	2900.5875
3091.97576	2898.6875
3094.3489	2887.7875
3096.72061	2891.6875
3099.09087	2882.8875
3101.4597	2887.2875
3103.82709	2896.2875
3106.19305	2894.4875
3108.55757	2884.5875
3110.92066	2886.1875
3113.28232	2889.9875
3115.64255	2886.0875
3118.00134	2887.0875
3120.35871	2874.1875
3122.71466	2887.5875
3125.06917	2878.0875
3127.42226	2878.4875
3129.77393	2861.2875
3132.12417	2869.8875
3134.47299	2864.7875
3136.82039	2877.1875
3139.16636	2868.4875
3141.51092	2870.6875
3143.85406	2884.1875
3146.19579	2870.1875
3148.53609	2881.9875
3150.87499	2900.8875
3153.21246	2898.0875
3155.54853	2908.5875
3157.88318	2909.6875
3160.21642	2913.6875
3162.54826	2918.1875
3164.87868	2930.9875
3167.2077	2918.8875
3169.5353	2930.1875
3171.86151	2934.1875
3174.18631	2918.9875
3176.5097	2917.0875
3178.83169	2921.0875
3181.15228	2906.9875
3183.47147	2913.5875
3185.78926	2923.8875
3188.10565	2927.3875
3190.42065	2926.1875
3192.73424	2920.2875
3195.04645	2922.6875
3197.35725	2920.0875
3199.66667	2919.0875
3201.97469	2919.7875
3204.28132	2921.6875
3206.58656	2939.0875
3208.8904	2934.4875
3211.19287	2934.8875
3213.49394	2936.4875
3215.79363	2942.6875
3218.09193	2937.2875
3220.38884	2957.1875
3222.68438	2960.9875
3224.97853	2951.8875
3227.2713	2950.1875
3229.56269	2946.9875
3231.8527	2957.0875
3234.14133	2949.0875
3236.42858	2937.7875
3238.71446	2932.7875
3240.99896	2921.2875
3243.28209	2913.9875
3245.56384	2922.5875
3247.84423	2911.7875
3250.12324	2923.2875
3252.40088	2909.3875
3254.67715	2912.7875
3256.95205	2908.5875
3259.22558	2906.8875
3261.49775	2905.7875
3263.76855	2901.1875
3266.03799	2894.8875
3268.30606	2893.9875
3270.57277	2885.6875
3272.83812	2887.0875
3275.10211	2877.1875
3277.36474	2882.7875
3279.62601	2878.0875
3281.88593	2881.5875
3284.14448	2870.1875
3286.40168	2884.8875
3288.65753	2882.3875
3290.91202	2885.9875
3293.16516	2872.7875
3295.41695	2862.9875
3297.66738	2852.8875
3299.91647	2837.2875
3302.16421	2815.8875
3304.4106	2816.9875
3306.65564	2805.4875
3308.89933	2776.3875
3311.14169	2771.5875
3313.38269	2736.6875
3315.62236	2728.9875
3317.86068	2711.8875
3320.09766	2680.9875
3322.3333	2676.8875
3324.5676	2672.6875
3326.80056	2622.1875
3329.03219	2601.5875
3331.26248	1.0875
3333.49143	-0.6125
3335.71905	-0.0125
