Data from AgNP_FTO_APTES_UA_100uM_CRN_5uM_R6G_10uM_NaF_0.1M_Addition_RamanShift__28__15-11-10-388.txt Node

Date: Thu Mar 24 15:11:10 GMT 2022
User: TCL
Spectrometer: QEP01345
Trigger mode: 4
Integration Time (sec): 7.000000E0
Scans to average: 10
Electric dark correction enabled: true
Nonlinearity correction enabled: false
Boxcar width: 0
XAxis mode: Raman Shifts
Number of Pixels in Spectrum: 1044
>>>>>Begin Spectral Data<<<<<
46.04893	-0.575
50.45542	-0.075
54.85868	-0.275
59.25871	0.325
63.6555	33.925
68.04907	35.225
72.43941	35.625
76.82654	34.325
81.21044	39.425
85.59113	40.525
89.96862	41.725
94.34289	39.225
98.71396	43.225
103.08183	44.325
107.4465	45.425
111.80798	49.825
116.16626	47.325
120.52136	49.725
124.87327	48.825
129.222	53.725
133.56755	60.925
137.90993	65.125
142.24913	72.325
146.58517	76.125
150.91804	90.625
155.24774	110.225
159.57429	138.325
163.89768	180.025
168.21792	240.225
172.53501	330.325
176.84895	453.225
181.15975	642.325
185.46741	902.425
189.77193	1256.625
194.07331	1698.425
198.37157	2226.425
202.6667	2767.925
206.9587	3336.625
211.24758	3937.325
215.53334	4617.925
219.81599	5381.225
224.09553	6293.425
228.37195	7262.125
232.64527	8366.425
236.91549	9313.825
241.18261	10064.525
245.44663	10544.625
249.70755	10891.125
253.96539	11142.825
258.22014	11431.425
262.4718	11700.025
266.72039	11784.425
270.96589	11654.225
275.20832	11319.825
279.44768	10878.825
283.68397	10511.825
287.91719	10323.725
292.14735	10464.725
296.37445	11044.825
300.59849	12071.825
304.81948	13353.725
309.03742	14419.425
313.25231	14778.325
317.46415	13939.225
321.67296	12240.025
325.87872	10669.525
330.08145	9919.425
334.28114	9815.425
338.47781	10116.525
342.67145	10648.525
346.86207	11421.625
351.04966	12621.825
355.23424	14061.025
359.4158	15071.225
363.59435	15421.625
367.76989	15252.225
371.94243	14790.725
376.11196	14346.325
380.27849	13923.525
384.44203	13428.825
388.60257	12917.825
392.76012	12650.125
396.91468	12706.925
401.06626	13179.325
405.21485	13513.925
409.36047	12978.825
413.50311	11655.425
417.64277	10370.125
421.77947	9628.125
425.9132	9268.825
430.04396	9171.725
434.17176	9176.025
438.2966	9374.025
442.41849	9793.725
446.53742	10256.325
450.6534	10651.225
454.76644	10812.525
458.87653	10635.725
462.98368	10323.725
467.08789	9973.925
471.18916	9592.425
475.2875	9152.325
479.38291	8767.525
483.4754	8500.925
487.56496	8299.725
491.6516	8218.825
495.73531	8173.125
499.81612	8284.025
503.89401	8484.325
507.96899	8758.425
512.04106	9091.125
516.11023	9496.225
520.1765	9758.225
524.23987	9796.025
528.30034	9632.925
532.35792	9442.225
536.41261	9171.025
540.46441	8742.025
544.51333	8478.025
548.55936	8527.525
552.60252	8922.125
556.64279	9431.525
560.6802	9684.725
564.71473	10170.925
568.7464	11175.425
572.7752	11580.725
576.80114	10480.725
580.82422	9334.725
584.84444	8904.325
588.86181	8859.825
592.87633	9031.425
596.888	9269.525
600.89682	9880.325
604.9028	12431.425
608.90594	19634.625
612.90624	29330.025
616.90371	28327.125
620.89834	16160.325
624.89015	10155.225
628.87913	9112.225
632.86528	9447.725
636.84862	9827.925
640.82913	9411.525
644.80683	8382.725
648.78172	7725.925
652.75379	7770.825
656.72306	8617.525
660.68952	9631.925
664.65319	9319.725
668.61405	8145.025
672.57211	7574.925
676.52738	7512.925
680.47986	7503.625
684.42955	7290.625
688.37646	7173.625
692.32058	7199.825
696.26192	7350.725
700.20048	7561.825
704.13626	7701.225
708.06928	7662.325
711.99952	7562.825
715.927	7545.925
719.85171	7723.925
723.77365	7815.925
727.69284	7711.725
731.60928	7607.025
735.52295	7590.725
739.43388	7606.625
743.34206	7652.225
747.24749	7658.325
751.15017	7686.925
755.05012	7969.425
758.94733	9033.725
762.8418	11714.325
766.73354	15926.325
770.62254	19713.625
774.50882	21372.125
778.39237	20158.025
782.27321	16102.725
786.15132	11797.725
790.02671	9289.525
793.89938	8185.425
797.76935	7717.325
801.6366	7551.325
805.50115	7461.625
809.36299	7416.825
813.22213	7378.625
817.07857	7346.525
820.93231	7323.325
824.78336	7428.125
828.63172	7529.425
832.47738	7600.925
836.32036	7517.125
840.16066	7348.225
843.99827	7227.825
847.8332	7181.125
851.66546	7166.525
855.49504	7155.425
859.32195	7125.825
863.1462	7056.725
866.96777	7022.425
870.78668	7014.825
874.60293	7088.825
878.41652	7150.725
882.22745	7284.925
886.03573	7385.125
889.84136	7340.425
893.64433	7279.525
897.44466	7284.025
901.24235	7310.025
905.0374	7241.425
908.8298	7099.225
912.61957	6969.725
916.40671	6960.625
920.19121	7029.325
923.97308	7230.025
927.75233	7600.625
931.52895	7968.925
935.30295	7825.325
939.07433	7262.825
942.84309	6879.725
946.60924	6677.225
950.37278	6534.925
954.13371	6451.925
957.89203	6395.025
961.64774	6331.525
965.40086	6310.725
969.15137	6273.625
972.89929	6254.425
976.64461	6268.525
980.38733	6266.425
984.12747	6277.525
987.86502	6329.925
991.59999	6392.125
995.33237	6507.425
999.06217	6768.125
1002.78939	7090.325
1006.51404	7448.325
1010.23611	7700.625
1013.95561	7766.725
1017.67255	7673.625
1021.38692	7503.925
1025.09872	7253.625
1028.80796	7146.225
1032.51465	7255.025
1036.21877	7446.325
1039.92035	7551.025
1043.61937	7580.825
1047.31584	7588.925
1051.00976	7485.625
1054.70114	7356.025
1058.38998	7271.225
1062.07627	7271.025
1065.76003	7271.325
1069.44126	7319.025
1073.11995	7491.625
1076.79611	7812.225
1080.46974	8307.525
1084.14085	9024.825
1087.80943	9632.325
1091.47549	9756.425
1095.13903	9331.925
1098.80005	8597.725
1102.45857	8120.725
1106.11456	8013.125
1109.76805	8304.825
1113.41903	8909.925
1117.06751	9936.025
1120.71348	11290.025
1124.35696	12760.825
1127.99793	13542.425
1131.63641	12663.925
1135.2724	11006.625
1138.90589	9741.425
1142.5369	9004.425
1146.16542	8534.425
1149.79145	8262.925
1153.415	8196.925
1157.03607	8313.125
1160.65467	8678.925
1164.27079	9337.325
1167.88443	10357.325
1171.49561	12059.225
1175.10432	14887.925
1178.71056	18537.725
1182.31434	21181.925
1185.91565	21707.725
1189.51451	20571.525
1193.11091	18392.825
1196.70485	15969.025
1200.29634	14249.925
1203.88538	12955.025
1207.47197	11405.925
1211.05612	10090.425
1214.63782	9315.225
1218.21708	8977.425
1221.79391	8970.625
1225.36829	9018.225
1228.94024	8987.225
1232.50976	8892.225
1236.07685	8803.425
1239.6415	8841.525
1243.20374	8929.725
1246.76355	9079.325
1250.32093	9261.025
1253.8759	9646.625
1257.42845	10242.425
1260.97859	10979.725
1264.52631	11792.625
1268.07163	12481.525
1271.61453	12946.625
1275.15503	13118.925
1278.69312	13149.125
1282.22882	13426.525
1285.76211	14196.325
1289.29301	15127.425
1292.82151	15953.725
1296.34761	16808.525
1299.87133	18457.925
1303.39266	21654.125
1306.9116	26910.725
1310.42815	32566.825
1313.94233	34816.225
1317.45412	31859.925
1320.96354	26739.925
1324.47058	21854.525
1327.97525	18070.725
1331.47754	15827.425
1334.97747	14994.525
1338.47502	15262.625
1341.97022	16526.625
1345.46305	18902.225
1348.95352	22128.925
1352.44163	26014.825
1355.92738	31740.325
1359.41078	40644.825
1362.89183	47630.025
1366.37053	43207.325
1369.84688	31919.025
1373.32088	23068.625
1376.79254	18306.925
1380.26186	15734.325
1383.72883	14120.125
1387.19347	12911.025
1390.65578	11832.125
1394.11575	10968.125
1397.57339	10586.425
1401.0287	10440.625
1404.48168	10380.825
1407.93234	10384.325
1411.38068	10537.725
1414.82669	10857.025
1418.27039	11007.525
1421.71177	10914.825
1425.15083	10663.725
1428.58758	10739.325
1432.02203	11147.225
1435.45416	11449.925
1438.88399	11335.425
1442.31151	11187.425
1445.73673	11259.825
1449.15965	11367.825
1452.58027	11253.925
1455.9986	10927.525
1459.41463	10772.025
1462.82837	11029.025
1466.23982	11530.925
1469.64898	12012.025
1473.05586	12242.525
1476.46045	12341.125
1479.86276	12600.425
1483.26279	13142.925
1486.66054	14050.025
1490.05602	15343.125
1493.44922	17274.025
1496.84016	20385.625
1500.22882	25351.325
1503.61521	32361.725
1506.99934	40558.625
1510.38121	47042.325
1513.76081	47842.825
1517.13816	41724.625
1520.51324	32165.025
1523.88607	24142.325
1527.25665	19249.425
1530.62498	16585.525
1533.99105	15016.825
1537.35488	13959.325
1540.71647	13366.125
1544.07581	13127.325
1547.4329	13140.025
1550.78776	13298.025
1554.14038	13580.025
1557.49077	14047.625
1560.83892	14800.925
1564.18484	15940.125
1567.52853	17235.825
1570.86999	18055.725
1574.20922	18500.925
1577.54624	18178.625
1580.88103	16289.225
1584.2136	13776.625
1587.54395	12255.825
1590.87208	12075.125
1594.19801	13113.825
1597.52172	14862.325
1600.84321	15695.525
1604.16251	15109.825
1607.47959	13926.525
1610.79447	12652.325
1614.10715	11270.125
1617.41763	10094.225
1620.7259	9319.425
1624.03199	9032.025
1627.33587	9119.325
1630.63757	9587.125
1633.93707	10543.325
1637.23439	12269.225
1640.52951	15197.425
1643.82246	19870.925
1647.11321	25803.025
1650.40179	29684.825
1653.68819	27971.425
1656.97241	21745.525
1660.25446	15585.625
1663.53433	11599.725
1666.81203	9435.325
1670.08756	8287.425
1673.36092	7584.725
1676.63211	7173.225
1679.90115	6905.725
1683.16801	6692.325
1686.43272	6547.425
1689.69527	6439.425
1692.95567	6379.025
1696.2139	6337.725
1699.46999	6308.725
1702.72392	6292.425
1705.97571	6274.425
1709.22535	6258.925
1712.47284	6248.525
1715.71819	6278.525
1718.96139	6266.725
1722.20246	6239.125
1725.44139	6161.125
1728.67818	6064.525
1731.91284	5966.025
1735.14537	5870.325
1738.37576	5826.425
1741.60403	5779.025
1744.83017	5750.725
1748.05418	5707.825
1751.27607	5673.925
1754.49584	5653.125
1757.71349	5650.625
1760.92903	5631.225
1764.14244	5601.925
1767.35375	5561.725
1770.56294	5515.625
1773.77002	5462.525
1776.97499	5416.325
1780.17785	5379.425
1783.37861	5349.625
1786.57727	5320.325
1789.77382	5288.225
1792.96828	5291.125
1796.16064	5279.225
1799.3509	5263.125
1802.53907	5254.225
1805.72514	5202.825
1808.90913	5183.925
1812.09102	5167.425
1815.27083	5127.525
1818.44856	5110.025
1821.6242	5103.025
1824.79776	5087.725
1827.96924	5074.825
1831.13864	5057.525
1834.30597	5056.425
1837.47122	5029.925
1840.6344	5010.625
1843.7955	4998.325
1846.95454	4987.325
1850.11151	4991.725
1853.26642	4981.925
1856.41926	4975.425
1859.57004	4971.825
1862.71876	4971.625
1865.86542	4979.125
1869.01003	4996.025
1872.15258	4989.825
1875.29308	4994.025
1878.43152	4979.525
1881.56792	4988.325
1884.70227	4984.925
1887.83457	4997.425
1890.96482	4977.725
1894.09304	4955.925
1897.21921	4954.525
1900.34335	4957.825
1903.46544	4955.125
1906.58551	4964.425
1909.70353	4951.325
1912.81953	4960.825
1915.93349	4941.525
1919.04543	4934.025
1922.15534	4902.525
1925.26322	4897.025
1928.36908	4869.025
1931.47292	4833.925
1934.57473	4795.525
1937.67453	4780.625
1940.77232	4757.725
1943.86808	4733.225
1946.96184	4719.425
1950.05358	4701.725
1953.14331	4701.525
1956.23103	4701.025
1959.31675	4679.325
1962.40046	4686.825
1965.48217	4679.925
1968.56188	4682.025
1971.63959	4697.825
1974.7153	4679.825
1977.78901	4660.225
1980.86073	4623.425
1983.93046	4603.525
1986.99819	4544.825
1990.06394	4514.025
1993.1277	4506.425
1996.18947	4473.925
1999.24925	4459.525
2002.30706	4438.825
2005.36288	4410.925
2008.41672	4391.425
2011.46859	4387.825
2014.51848	4369.725
2017.56639	4353.125
2020.61233	4336.925
2023.6563	4324.725
2026.6983	4316.725
2029.73833	4315.825
2032.7764	4304.925
2035.8125	4292.125
2038.84664	4295.225
2041.87881	4269.825
2044.90903	4292.425
2047.93729	4261.625
2050.96359	4270.825
2053.98794	4263.625
2057.01034	4236.325
2060.03078	4223.425
2063.04927	4206.825
2066.06582	4195.925
2069.08042	4203.725
2072.09307	4178.325
2075.10378	4175.925
2078.11255	4182.225
2081.11938	4184.325
2084.12426	4172.925
2087.12722	4165.525
2090.12824	4188.925
2093.12732	4179.525
2096.12447	4181.825
2099.11969	4170.525
2102.11299	4179.925
2105.10435	4196.425
2108.09379	4178.325
2111.08131	4193.325
2114.0669	4197.525
2117.05057	4219.825
2120.03233	4229.825
2123.01216	4258.125
2125.99008	4254.525
2128.96609	4243.625
2131.94018	4256.525
2134.91236	4245.425
2137.88263	4223.725
2140.851	4206.825
2143.81746	4216.725
2146.78201	4197.325
2149.74466	4186.425
2152.7054	4167.225
2155.66425	4159.625
2158.6212	4160.525
2161.57625	4145.925
2164.52941	4153.725
2167.48067	4140.925
2170.43004	4142.825
2173.37752	4155.125
2176.32311	4157.125
2179.26681	4159.725
2182.20863	4157.725
2185.14856	4150.525
2188.08661	4145.225
2191.02278	4125.725
2193.95707	4117.625
2196.88948	4127.025
2199.82001	4111.725
2202.74867	4111.125
2205.67545	4125.925
2208.60037	4107.525
2211.52341	4109.925
2214.44458	4098.525
2217.36388	4095.825
2220.28132	4091.925
2223.1969	4070.525
2226.11061	4065.825
2229.02246	4049.325
2231.93245	4044.725
2234.84058	4034.725
2237.74686	4027.425
2240.65128	4040.725
2243.55385	4018.925
2246.45456	4023.925
2249.35343	4025.925
2252.25044	4040.225
2255.14561	4063.525
2258.03893	4088.225
2260.93041	4093.725
2263.82004	4091.325
2266.70783	4083.925
2269.59378	4089.725
2272.4779	4065.125
2275.36017	4059.525
2278.24061	4043.825
2281.11922	4037.925
2283.996	4026.325
2286.87094	3997.225
2289.74405	3962.425
2292.61534	3967.025
2295.4848	3944.825
2298.35243	3945.425
2301.21824	3937.725
2304.08223	3928.725
2306.94439	3937.825
2309.80474	3934.825
2312.66327	3933.825
2315.51999	3928.725
2318.37489	3932.825
2321.22797	3923.025
2324.07925	3934.025
2326.92871	3934.925
2329.77637	3940.925
2332.62222	3935.825
2335.46626	3921.925
2338.3085	3933.125
2341.14893	3945.725
2343.98756	3961.125
2346.8244	3968.825
2349.65943	3980.925
2352.49267	3992.825
2355.32411	4022.925
2358.15376	4040.825
2360.98161	4059.525
2363.80768	4065.225
2366.63195	4078.325
2369.45444	4088.925
2372.27514	4089.325
2375.09405	4072.125
2377.91118	4061.225
2380.72652	4036.325
2383.54009	3988.925
2386.35187	3976.725
2389.16188	3923.625
2391.97011	3908.625
2394.77657	3906.925
2397.58125	3878.425
2400.38416	3857.625
2403.18529	3850.925
2405.98466	3821.225
2408.78226	3822.925
2411.57809	3795.225
2414.37216	3785.825
2417.16446	3784.825
2419.955	3781.325
2422.74378	3799.025
2425.5308	3782.225
2428.31606	3795.125
2431.09956	3808.125
2433.88131	3826.925
2436.6613	3828.725
2439.43954	3832.325
2442.21603	3840.725
2444.99077	3851.425
2447.76377	3866.825
2450.53501	3866.425
2453.30451	3858.225
2456.07226	3862.025
2458.83827	3859.725
2461.60254	3864.925
2464.36507	3863.725
2467.12586	3865.725
2469.88492	3880.525
2472.64224	3875.025
2475.39782	3897.425
2478.15167	3911.625
2480.90379	3922.125
2483.65417	3939.625
2486.40283	3976.625
2489.14976	4007.225
2491.89497	4008.425
2494.63845	4012.125
2497.3802	3995.825
2500.12024	3991.225
2502.85855	3952.725
2505.59514	3944.225
2508.33002	3901.625
2511.06318	3861.725
2513.79462	3823.025
2516.52435	3784.425
2519.25237	3767.625
2521.97867	3746.425
2524.70327	3751.925
2527.42616	3733.825
2530.14734	3707.325
2532.86681	3716.125
2535.58458	3717.625
2538.30065	3717.425
2541.01501	3721.225
2543.72768	3728.225
2546.43864	3747.425
2549.14791	3734.825
2551.85548	3762.925
2554.56136	3777.025
2557.26554	3749.225
2559.96803	3752.325
2562.66883	3742.225
2565.36794	3751.025
2568.06536	3750.325
2570.7611	3722.625
2573.45514	3719.825
2576.14751	3717.425
2578.83819	3702.725
2581.52719	3703.625
2584.21451	3672.625
2586.90015	3687.325
2589.58411	3666.725
2592.2664	3658.725
2594.94701	3669.325
2597.62594	3671.625
2600.30321	3655.325
2602.9788	3666.925
2605.65273	3663.025
2608.32498	3663.325
2610.99557	3677.925
2613.66449	3674.025
2616.33175	3671.925
2618.99734	3698.425
2621.66128	3693.025
2624.32355	3689.225
2626.98416	3690.325
2629.64311	3673.225
2632.30041	3668.925
2634.95605	3663.825
2637.61004	3645.925
2640.26238	3635.625
2642.91306	3622.325
2645.56209	3618.925
2648.20948	3604.025
2650.85521	3608.325
2653.4993	3617.725
2656.14175	3600.525
2658.78255	3630.225
2661.42171	3626.025
2664.05923	3645.925
2666.6951	3652.325
2669.32934	3673.825
2671.96194	3690.025
2674.59291	3680.525
2677.22224	3688.125
2679.84993	3672.925
2682.476	3671.725
2685.10043	3667.725
2687.72324	3659.925
2690.34441	3659.525
2692.96396	3656.625
2695.58188	3657.325
2698.19818	3637.125
2700.81285	3640.625
2703.4259	3655.525
2706.03733	3669.025
2708.64714	3672.025
2711.25533	3671.925
2713.86191	3664.425
2716.46687	3674.125
2719.07021	3676.225
2721.67194	3678.725
2724.27206	3677.925
2726.87057	3656.625
2729.46747	3651.925
2732.06276	3662.825
2734.65644	3636.125
2737.24852	3620.925
2739.83899	3602.625
2742.42786	3598.825
2745.01513	3576.825
2747.60079	3582.125
2750.18486	3579.925
2752.76733	3560.025
2755.3482	3553.525
2757.92747	3564.225
2760.50515	3534.825
2763.08123	3538.225
2765.65573	3546.725
2768.22863	3546.925
2770.79994	3530.025
2773.36967	3546.325
2775.9378	3543.625
2778.50435	3546.325
2781.06932	3555.225
2783.6327	3547.825
2786.1945	3550.725
2788.75471	3539.525
2791.31335	3540.225
2793.87041	3552.725
2796.42589	3550.525
2798.97979	3568.825
2801.53212	3552.625
2804.08288	3568.025
2806.63206	3588.825
2809.17967	3594.025
2811.72571	3612.025
2814.27018	3626.325
2816.81308	3640.425
2819.35442	3653.725
2821.89419	3664.425
2824.43239	3672.925
2826.96904	3677.125
2829.50412	3691.825
2832.03763	3669.325
2834.56959	3674.225
2837.1	3663.025
2839.62884	3661.525
2842.15613	3651.325
2844.68186	3670.325
2847.20604	3668.525
2849.72867	3679.425
2852.24974	3692.625
2854.76927	3717.025
2857.28724	3721.325
2859.80367	3718.925
2862.31855	3739.825
2864.83189	3765.125
2867.34368	3760.325
2869.85393	3788.825
2872.36264	3802.725
2874.8698	3811.725
2877.37543	3812.225
2879.87952	3797.225
2882.38207	3788.425
2884.88308	3760.825
2887.38256	3752.925
2889.88051	3735.425
2892.37692	3742.525
2894.8718	3739.825
2897.36515	3724.825
2899.85698	3716.325
2902.34727	3721.025
2904.83604	3718.625
2907.32328	3721.225
2909.809	3699.325
2912.29319	3718.025
2914.77587	3685.325
2917.25702	3679.425
2919.73665	3653.525
2922.21476	3651.225
2924.69136	3632.725
2927.16644	3619.325
2929.64	3622.025
2932.11205	3610.825
2934.58258	3578.325
2937.05161	3591.025
2939.51912	3595.525
2941.98513	3590.825
2944.44962	3576.925
2946.91261	3568.825
2949.37409	3582.325
2951.83407	3587.325
2954.29254	3577.925
2956.74951	3582.425
2959.20498	3585.225
2961.65895	3562.725
2964.11142	3560.125
2966.56239	3553.125
2969.01186	3551.725
2971.45984	3534.525
2973.90632	3505.625
2976.35131	3500.925
2978.7948	3491.125
2981.23681	3482.925
2983.67732	3461.825
2986.11635	3458.525
2988.55388	3458.425
2990.98993	3440.325
2993.4245	3466.625
2995.85758	3470.625
2998.28917	3465.425
3000.71928	3450.525
3003.14791	3468.825
3005.57506	3478.125
3008.00073	3465.225
3010.42493	3483.925
3012.84764	3474.125
3015.26888	3483.625
3017.68865	3470.425
3020.10694	3468.025
3022.52376	3442.725
3024.9391	3448.225
3027.35298	3431.025
3029.76539	3412.025
3032.17632	3408.625
3034.5858	3376.625
3036.9938	3350.825
3039.40034	3329.925
3041.80542	3329.525
3044.20903	3308.525
3046.61118	3318.925
3049.01187	3303.325
3051.4111	3289.725
3053.80888	3290.125
3056.20519	3278.025
3058.60005	3276.925
3060.99345	3272.725
3063.3854	3269.425
3065.7759	3268.925
3068.16494	3248.125
3070.55254	3254.425
3072.93868	3222.925
3075.32338	3218.425
3077.70662	3218.025
3080.08842	3201.825
3082.46878	3215.925
3084.84769	3196.025
3087.22515	3191.525
3089.60118	3190.025
3091.97576	3181.425
3094.3489	3180.425
3096.72061	3171.625
3099.09087	3165.925
3101.4597	3174.225
3103.82709	3166.925
3106.19305	3188.125
3108.55757	3175.925
3110.92066	3159.625
3113.28232	3163.125
3115.64255	3157.425
3118.00134	3148.225
3120.35871	3166.525
3122.71466	3156.625
3125.06917	3153.725
3127.42226	3168.725
3129.77393	3162.725
3132.12417	3161.425
3134.47299	3168.625
3136.82039	3173.725
3139.16636	3178.025
3141.51092	3183.125
3143.85406	3191.725
3146.19579	3189.325
3148.53609	3220.825
3150.87499	3223.025
3153.21246	3217.525
3155.54853	3223.225
3157.88318	3225.125
3160.21642	3241.725
3162.54826	3240.525
3164.87868	3234.725
3167.2077	3229.925
3169.5353	3227.825
3171.86151	3229.725
3174.18631	3232.425
3176.5097	3231.125
3178.83169	3232.525
3181.15228	3234.725
3183.47147	3228.825
3185.78926	3248.325
3188.10565	3241.325
3190.42065	3248.725
3192.73424	3245.325
3195.04645	3254.825
3197.35725	3272.325
3199.66667	3280.425
3201.97469	3301.825
3204.28132	3299.225
3206.58656	3317.925
3208.8904	3328.525
3211.19287	3330.725
3213.49394	3352.425
3215.79363	3358.525
3218.09193	3344.325
3220.38884	3353.125
3222.68438	3376.625
3224.97853	3361.525
3227.2713	3359.825
3229.56269	3356.125
3231.8527	3355.225
3234.14133	3357.225
3236.42858	3353.625
3238.71446	3357.725
3240.99896	3350.025
3243.28209	3357.525
3245.56384	3353.525
3247.84423	3347.625
3250.12324	3353.725
3252.40088	3342.125
3254.67715	3323.425
3256.95205	3344.025
3259.22558	3328.825
3261.49775	3329.325
3263.76855	3325.825
3266.03799	3327.225
3268.30606	3316.325
3270.57277	3316.825
3272.83812	3306.625
3275.10211	3307.525
3277.36474	3315.425
3279.62601	3320.425
3281.88593	3315.425
3284.14448	3322.225
3286.40168	3319.825
3288.65753	3306.525
3290.91202	3318.125
3293.16516	3316.725
3295.41695	3305.625
3297.66738	3288.325
3299.91647	3277.225
3302.16421	3265.725
3304.4106	3247.525
3306.65564	3218.225
3308.89933	3191.225
3311.14169	3168.925
3313.38269	3149.425
3315.62236	3134.225
3317.86068	3086.925
3320.09766	3045.425
3322.3333	3006.925
3324.5676	3013.825
3326.80056	2954.325
3329.03219	2939.625
3331.26248	1.025
3333.49143	0.325
3335.71905	-0.075
