Data from AgNP_FTO_APTES_UA_100uM_CRN_0uM_R6G_10uM_NaF_0.1M_Addition_RamanShift__26__11-15-30-115.txt Node

Date: Thu Mar 24 11:15:30 GMT 2022
User: TCL
Spectrometer: QEP01345
Trigger mode: 4
Integration Time (sec): 7.000000E0
Scans to average: 10
Electric dark correction enabled: true
Nonlinearity correction enabled: false
Boxcar width: 0
XAxis mode: Raman Shifts
Number of Pixels in Spectrum: 1044
>>>>>Begin Spectral Data<<<<<
46.04893	-1.3
50.45542	-0.1
54.85868	-0.9
59.25871	-0.6
63.6555	37.5
68.04907	39.8
72.43941	38.7
76.82654	40.4
81.21044	42.3
85.59113	41.6
89.96862	49.1
94.34289	46.3
98.71396	49.5
103.08183	48.2
107.4465	52.4
111.80798	55.8
116.16626	55.3
120.52136	53.9
124.87327	56.5
129.222	60
133.56755	62.6
137.90993	66.8
142.24913	76.6
146.58517	84.4
150.91804	96.5
155.24774	117.3
159.57429	146.8
163.89768	186.8
168.21792	249.8
172.53501	345.2
176.84895	480
181.15975	673.2
185.46741	944.7
189.77193	1297.8
194.07331	1750.3
198.37157	2255.8
202.6667	2800.4
206.9587	3344.6
211.24758	3862.7
215.53334	4431.5
219.81599	4995.5
224.09553	5641.4
228.37195	6356.7
232.64527	7144
236.91549	7968.4
241.18261	8754.6
245.44663	9450.8
249.70755	10011.9
253.96539	10482.5
258.22014	10844.4
262.4718	11131
266.72039	11330.7
270.96589	11381.3
275.20832	11348.2
279.44768	11244.4
283.68397	11094.4
287.91719	11000.6
292.14735	10930.9
296.37445	10944.6
300.59849	11049.5
304.81948	11228.3
309.03742	11387.8
313.25231	11408.4
317.46415	11268
321.67296	10898.3
325.87872	10592.1
330.08145	10406.3
334.28114	10345.5
338.47781	10410.1
342.67145	10535.1
346.86207	10739.1
351.04966	11068.8
355.23424	11349.9
359.4158	11576.1
363.59435	11696.8
367.76989	11761
371.94243	11744
376.11196	11679.1
380.27849	11678.6
384.44203	11680.3
388.60257	11727.5
392.76012	11792
396.91468	11908.3
401.06626	12113.5
405.21485	12226.7
409.36047	12084.5
413.50311	11715.3
417.64277	11416.5
421.77947	11303
425.9132	11325.3
430.04396	11405.9
434.17176	11429.9
438.2966	11525.6
442.41849	11736.5
446.53742	12072
450.6534	12429.5
454.76644	12635.9
458.87653	12635
462.98368	12546.1
467.08789	12396.3
471.18916	12184.7
475.2875	11953.9
479.38291	11767.4
483.4754	11611.1
487.56496	11489.1
491.6516	11372.9
495.73531	11219
499.81612	11176.2
503.89401	11225.2
507.96899	11297
512.04106	11327.7
516.11023	11260.8
520.1765	11202.9
524.23987	11157.1
528.30034	11124.9
532.35792	11030.9
536.41261	10839.1
540.46441	10614.1
544.51333	10505.5
548.55936	10572.9
552.60252	10807.9
556.64279	11175.1
560.6802	11428.9
564.71473	11595
568.7464	11904.7
572.7752	12438.5
576.80114	12894.5
580.82422	13231
584.84444	13664.4
588.86181	14399.8
592.87633	15304.4
596.888	15659.6
600.89682	15038.1
604.9028	14584.7
608.90594	15729.9
612.90624	17540.9
616.90371	16563.4
620.89834	13036.7
624.89015	11229.9
628.87913	10956.5
632.86528	11129
636.84862	11240.1
640.82913	11029.1
644.80683	10602.4
648.78172	10284.3
652.75379	10268.9
656.72306	10507.6
660.68952	10778.1
664.65319	10701.1
668.61405	10359.4
672.57211	10215.1
676.52738	10267.8
680.47986	10274
684.42955	10162
688.37646	10066.8
692.32058	10112.1
696.26192	10248.1
700.20048	10454.4
704.13626	10582.1
708.06928	10645.8
711.99952	10629.6
715.927	10614.2
719.85171	10612.7
723.77365	10521.3
727.69284	10367.6
731.60928	10189.6
735.52295	10170.1
739.43388	10219.9
743.34206	10283.7
747.24749	10365.3
751.15017	10491.2
755.05012	10699.5
758.94733	11091.3
762.8418	11983.7
766.73354	13468.4
770.62254	14946.7
774.50882	15303.8
778.39237	14452.1
782.27321	13102.1
786.15132	11847.8
790.02671	10994.2
793.89938	10541.8
797.76935	10315.3
801.6366	10200
805.50115	10116.2
809.36299	10025.2
813.22213	9933.7
817.07857	9902.6
820.93231	9837.2
824.78336	9837.3
828.63172	9789.6
832.47738	9751.6
836.32036	9743
840.16066	9740.4
843.99827	9741.2
847.8332	9735.7
851.66546	9758.7
855.49504	9762
859.32195	9771.6
863.1462	9737.4
866.96777	9683
870.78668	9684.3
874.60293	9710.2
878.41652	9693.5
882.22745	9740.6
886.03573	9816.7
889.84136	9842.6
893.64433	9821.2
897.44466	9836.7
901.24235	9809.7
905.0374	9771
908.8298	9687.5
912.61957	9676.4
916.40671	9716
920.19121	9879.2
923.97308	10036.3
927.75233	10152.9
931.52895	10104.8
935.30295	9829.7
939.07433	9555.5
942.84309	9345.2
946.60924	9190.7
950.37278	9151.1
954.13371	9127.9
957.89203	9133.8
961.64774	9115.7
965.40086	9111.8
969.15137	9111.7
972.89929	9100.2
976.64461	9058.2
980.38733	9041.5
984.12747	9017.6
987.86502	9061.5
991.59999	9109.6
995.33237	9208.9
999.06217	9398.9
1002.78939	9602.2
1006.51404	9885
1010.23611	10179.2
1013.95561	10361.2
1017.67255	10373.4
1021.38692	10198.9
1025.09872	9925.2
1028.80796	9659.5
1032.51465	9564.7
1036.21877	9570.1
1039.92035	9613.5
1043.61937	9681.3
1047.31584	9732
1051.00976	9822.3
1054.70114	9875
1058.38998	9898.6
1062.07627	9921.4
1065.76003	10028
1069.44126	10202.6
1073.11995	10467.9
1076.79611	10712.3
1080.46974	10858.1
1084.14085	11033.3
1087.80943	11257.2
1091.47549	11414.2
1095.13903	11376.6
1098.80005	11117.5
1102.45857	10775.3
1106.11456	10522.3
1109.76805	10447.4
1113.41903	10500.8
1117.06751	10667.1
1120.71348	10924
1124.35696	11204.2
1127.99793	11470.2
1131.63641	11569.5
1135.2724	11387.5
1138.90589	11212.2
1142.5369	11128.2
1146.16542	11153.4
1149.79145	11195.1
1153.415	11330.3
1157.03607	11495.4
1160.65467	11756.2
1164.27079	12204.9
1167.88443	12979
1171.49561	14004.3
1175.10432	15497.6
1178.71056	17364.9
1182.31434	18962.2
1185.91565	19554.2
1189.51451	19194.3
1193.11091	18446.2
1196.70485	17376.8
1200.29634	16303.4
1203.88538	15357.7
1207.47197	14639.1
1211.05612	14152.6
1214.63782	13806.2
1218.21708	13586.9
1221.79391	13506.3
1225.36829	13558
1228.94024	13563.3
1232.50976	13339.3
1236.07685	12955
1239.6415	12683.1
1243.20374	12530.4
1246.76355	12501.5
1250.32093	12607.5
1253.8759	12819
1257.42845	13231.3
1260.97859	13738.7
1264.52631	14336.5
1268.07163	14902.2
1271.61453	15435.7
1275.15503	15932.2
1278.69312	16433.8
1282.22882	17053.2
1285.76211	17863.4
1289.29301	18799.5
1292.82151	19783.3
1296.34761	20906
1299.87133	22268.2
1303.39266	23771.1
1306.9116	25399.6
1310.42815	26876.8
1313.94233	27554.3
1317.45412	27013.6
1320.96354	25785.3
1324.47058	24620.5
1327.97525	23586
1331.47754	22785.2
1334.97747	22251.6
1338.47502	21937.6
1341.97022	21816.7
1345.46305	21898.9
1348.95352	22301.7
1352.44163	22998.5
1355.92738	24241.1
1359.41078	26220.5
1362.89183	28325.8
1366.37053	28393.3
1369.84688	25568.1
1373.32088	21860.6
1376.79254	19316.9
1380.26186	18102.8
1383.72883	17627
1387.19347	17212.1
1390.65578	16808
1394.11575	16625.6
1397.57339	16633.7
1401.0287	16735.5
1404.48168	16751.8
1407.93234	16553.5
1411.38068	16169.1
1414.82669	15724
1418.27039	15173.7
1421.71177	14741.9
1425.15083	14325.5
1428.58758	14099.4
1432.02203	14188.7
1435.45416	14441.8
1438.88399	14669.9
1442.31151	14810.7
1445.73673	14948.4
1449.15965	15140.8
1452.58027	15244.9
1455.9986	15319.3
1459.41463	15486.6
1462.82837	15801.1
1466.23982	16198.8
1469.64898	16584.6
1473.05586	16820.2
1476.46045	16985.1
1479.86276	17044
1483.26279	17186.6
1486.66054	17475.6
1490.05602	17924
1493.44922	18597.5
1496.84016	19471
1500.22882	20598.9
1503.61521	21918.6
1506.99934	23273.6
1510.38121	24208.3
1513.76081	24250.3
1517.13816	23181.3
1520.51324	21548
1523.88607	20144.2
1527.25665	19352.6
1530.62498	18918.7
1533.99105	18513.1
1537.35488	17973.4
1540.71647	17286
1544.07581	16602.3
1547.4329	15976.9
1550.78776	15484.4
1554.14038	15247.6
1557.49077	15235.6
1560.83892	15316.7
1564.18484	15594.2
1567.52853	15976.7
1570.86999	16335.7
1574.20922	16683.6
1577.54624	16779.2
1580.88103	16383.2
1584.2136	15900.9
1587.54395	15932.9
1590.87208	16560.2
1594.19801	17593.9
1597.52172	18757.4
1600.84321	19038.4
1604.16251	18120.1
1607.47959	16593.4
1610.79447	15002.1
1614.10715	13604.2
1617.41763	12505.4
1620.7259	11766
1624.03199	11444.5
1627.33587	11430.9
1630.63757	11843.4
1633.93707	12703
1637.23439	14358.6
1640.52951	16885.4
1643.82246	20162
1647.11321	23117
1650.40179	24074.2
1653.68819	22325.5
1656.97241	18788.6
1660.25446	15233.1
1663.53433	12662.1
1666.81203	11079.8
1670.08756	10170.1
1673.36092	9593
1676.63211	9260.3
1679.90115	8987.6
1683.16801	8843.6
1686.43272	8692.4
1689.69527	8576.4
1692.95567	8523.7
1696.2139	8458
1699.46999	8410.5
1702.72392	8373.4
1705.97571	8347.1
1709.22535	8319.2
1712.47284	8319
1715.71819	8308.7
1718.96139	8259.5
1722.20246	8223.2
1725.44139	8170
1728.67818	8092.6
1731.91284	8033.3
1735.14537	7958.3
1738.37576	7922.6
1741.60403	7892.1
1744.83017	7836.5
1748.05418	7824.3
1751.27607	7812.4
1754.49584	7761.4
1757.71349	7753.9
1760.92903	7739
1764.14244	7729.7
1767.35375	7715.7
1770.56294	7712.7
1773.77002	7695.2
1776.97499	7685.3
1780.17785	7654
1783.37861	7647.9
1786.57727	7614.8
1789.77382	7598.5
1792.96828	7573.1
1796.16064	7573.2
1799.3509	7551.2
1802.53907	7501.7
1805.72514	7489.9
1808.90913	7476.9
1812.09102	7455.7
1815.27083	7435.9
1818.44856	7406.7
1821.6242	7398.5
1824.79776	7401.3
1827.96924	7359.7
1831.13864	7362.6
1834.30597	7362.1
1837.47122	7368
1840.6344	7344.8
1843.7955	7348.4
1846.95454	7346.6
1850.11151	7357.7
1853.26642	7352.7
1856.41926	7339.8
1859.57004	7339.7
1862.71876	7345.6
1865.86542	7324.7
1869.01003	7332.2
1872.15258	7317
1875.29308	7307.9
1878.43152	7308.1
1881.56792	7313.5
1884.70227	7338
1887.83457	7328.3
1890.96482	7310.5
1894.09304	7314
1897.21921	7318
1900.34335	7332.3
1903.46544	7308.4
1906.58551	7293
1909.70353	7282.4
1912.81953	7255.4
1915.93349	7250
1919.04543	7231.9
1922.15534	7206.6
1925.26322	7164.4
1928.36908	7141.2
1931.47292	7135.3
1934.57473	7105.3
1937.67453	7076.7
1940.77232	7048.4
1943.86808	7032.6
1946.96184	7014.7
1950.05358	6989.8
1953.14331	6964.9
1956.23103	6952.8
1959.31675	6947.4
1962.40046	6881.6
1965.48217	6898.5
1968.56188	6871.7
1971.63959	6859.8
1974.7153	6835
1977.78901	6795.9
1980.86073	6759.6
1983.93046	6732.2
1986.99819	6692.2
1990.06394	6661.5
1993.1277	6654.7
1996.18947	6628.5
1999.24925	6590.7
2002.30706	6582.8
2005.36288	6585.2
2008.41672	6550.4
2011.46859	6548.7
2014.51848	6522.2
2017.56639	6500.7
2020.61233	6498.1
2023.6563	6475.9
2026.6983	6451.2
2029.73833	6427.8
2032.7764	6435.3
2035.8125	6390.8
2038.84664	6382.5
2041.87881	6365.7
2044.90903	6319.8
2047.93729	6319.1
2050.96359	6310.6
2053.98794	6293.3
2057.01034	6276.1
2060.03078	6270.2
2063.04927	6288.4
2066.06582	6266.1
2069.08042	6296.8
2072.09307	6284.3
2075.10378	6266.6
2078.11255	6282.2
2081.11938	6304.6
2084.12426	6319.9
2087.12722	6325.4
2090.12824	6329.4
2093.12732	6325.4
2096.12447	6334.9
2099.11969	6333.3
2102.11299	6319.6
2105.10435	6321.3
2108.09379	6313
2111.08131	6305.3
2114.0669	6289
2117.05057	6310.3
2120.03233	6294.8
2123.01216	6280.4
2125.99008	6267.4
2128.96609	6278.4
2131.94018	6252.4
2134.91236	6259.4
2137.88263	6245
2140.851	6257.4
2143.81746	6254.1
2146.78201	6239.4
2149.74466	6245.2
2152.7054	6219.9
2155.66425	6194.4
2158.6212	6213.4
2161.57625	6201
2164.52941	6160.5
2167.48067	6155.8
2170.43004	6138.3
2173.37752	6121.7
2176.32311	6109.5
2179.26681	6110.2
2182.20863	6082.7
2185.14856	6099.9
2188.08661	6080.2
2191.02278	6077.5
2193.95707	6083.6
2196.88948	6065.1
2199.82001	6046
2202.74867	6033.1
2205.67545	6040.2
2208.60037	6023.3
2211.52341	5995.5
2214.44458	5985.9
2217.36388	5988.7
2220.28132	5972.3
2223.1969	5948.9
2226.11061	5936.8
2229.02246	5912.6
2231.93245	5923
2234.84058	5918.9
2237.74686	5897.7
2240.65128	5913.4
2243.55385	5881.1
2246.45456	5869.8
2249.35343	5872.6
2252.25044	5868.1
2255.14561	5821
2258.03893	5833
2260.93041	5810.1
2263.82004	5801.3
2266.70783	5793.2
2269.59378	5774.7
2272.4779	5742.1
2275.36017	5733.9
2278.24061	5736.2
2281.11922	5731.7
2283.996	5710.3
2286.87094	5688.7
2289.74405	5682.9
2292.61534	5680.2
2295.4848	5671.2
2298.35243	5656
2301.21824	5657.8
2304.08223	5638.6
2306.94439	5633.4
2309.80474	5647.4
2312.66327	5638.9
2315.51999	5632.2
2318.37489	5623
2321.22797	5608.7
2324.07925	5607
2326.92871	5591.1
2329.77637	5577.9
2332.62222	5560
2335.46626	5569.7
2338.3085	5558.7
2341.14893	5549.4
2343.98756	5573.5
2346.8244	5563.4
2349.65943	5561.5
2352.49267	5537.6
2355.32411	5558.6
2358.15376	5547.5
2360.98161	5552.5
2363.80768	5548.3
2366.63195	5551.3
2369.45444	5558.3
2372.27514	5561
2375.09405	5542.2
2377.91118	5536.7
2380.72652	5521.3
2383.54009	5505.1
2386.35187	5495.5
2389.16188	5449.2
2391.97011	5463.8
2394.77657	5435.3
2397.58125	5436.2
2400.38416	5425.3
2403.18529	5420.7
2405.98466	5415.5
2408.78226	5378.9
2411.57809	5369
2414.37216	5372.5
2417.16446	5357.3
2419.955	5367.1
2422.74378	5343.6
2425.5308	5348.8
2428.31606	5360.3
2431.09956	5348.4
2433.88131	5343
2436.6613	5332.8
2439.43954	5333.2
2442.21603	5335.6
2444.99077	5335.3
2447.76377	5337
2450.53501	5326.4
2453.30451	5339.1
2456.07226	5339.8
2458.83827	5339
2461.60254	5334.9
2464.36507	5318.2
2467.12586	5318.5
2469.88492	5315.2
2472.64224	5336.5
2475.39782	5312.7
2478.15167	5321.5
2480.90379	5328.6
2483.65417	5312.1
2486.40283	5310.8
2489.14976	5313.5
2491.89497	5303
2494.63845	5306.4
2497.3802	5295.4
2500.12024	5297.1
2502.85855	5302.3
2505.59514	5298.3
2508.33002	5276.3
2511.06318	5280.4
2513.79462	5251
2516.52435	5241.7
2519.25237	5244.4
2521.97867	5226.9
2524.70327	5205
2527.42616	5201.2
2530.14734	5194.1
2532.86681	5203.5
2535.58458	5188.1
2538.30065	5172.6
2541.01501	5179.4
2543.72768	5182.8
2546.43864	5169.5
2549.14791	5160.1
2551.85548	5171.1
2554.56136	5158.7
2557.26554	5154
2559.96803	5132.9
2562.66883	5144.9
2565.36794	5146.6
2568.06536	5135.3
2570.7611	5119.7
2573.45514	5123.7
2576.14751	5102.4
2578.83819	5103.8
2581.52719	5084.6
2584.21451	5102
2586.90015	5080.8
2589.58411	5076.3
2592.2664	5079.5
2594.94701	5063.9
2597.62594	5049.6
2600.30321	5056
2602.9788	5027.5
2605.65273	5037.5
2608.32498	5047
2610.99557	5025.2
2613.66449	5044
2616.33175	5014.4
2618.99734	5018
2621.66128	5022.3
2624.32355	5019.5
2626.98416	5006.4
2629.64311	4988.5
2632.30041	4998.3
2634.95605	4976.4
2637.61004	4984.2
2640.26238	4977
2642.91306	4977.3
2645.56209	4968.2
2648.20948	4969
2650.85521	4962.2
2653.4993	4959.9
2656.14175	4986.2
2658.78255	4973.2
2661.42171	4987
2664.05923	4974
2666.6951	4983.7
2669.32934	4998.6
2671.96194	4990.8
2674.59291	4976
2677.22224	4987.2
2679.84993	4981.7
2682.476	4988.5
2685.10043	4992.8
2687.72324	4973.1
2690.34441	4968.5
2692.96396	4970.9
2695.58188	4974.6
2698.19818	4959.6
2700.81285	4968.7
2703.4259	4968.7
2706.03733	4952.5
2708.64714	4953.7
2711.25533	4969.9
2713.86191	4985.5
2716.46687	4977.5
2719.07021	4963.2
2721.67194	4961.4
2724.27206	4969.4
2726.87057	4979.4
2729.46747	4966.7
2732.06276	4979.2
2734.65644	4963.3
2737.24852	4963.6
2739.83899	4951.2
2742.42786	4962
2745.01513	4954.7
2747.60079	4939.5
2750.18486	4935.3
2752.76733	4954.3
2755.3482	4936.5
2757.92747	4919.3
2760.50515	4927.1
2763.08123	4925.7
2765.65573	4923.4
2768.22863	4898.7
2770.79994	4915.2
2773.36967	4920
2775.9378	4911.7
2778.50435	4900.2
2781.06932	4890.7
2783.6327	4910.4
2786.1945	4904
2788.75471	4888.1
2791.31335	4862.2
2793.87041	4882.4
2796.42589	4868.7
2798.97979	4860.5
2801.53212	4860.3
2804.08288	4851.4
2806.63206	4829.3
2809.17967	4829.6
2811.72571	4817.7
2814.27018	4833.2
2816.81308	4830.7
2819.35442	4828.4
2821.89419	4829.1
2824.43239	4820.4
2826.96904	4813.4
2829.50412	4835.9
2832.03763	4809.9
2834.56959	4807.1
2837.1	4797.1
2839.62884	4818.9
2842.15613	4795
2844.68186	4786.4
2847.20604	4817.3
2849.72867	4840.5
2852.24974	4839.4
2854.76927	4835.6
2857.28724	4831.7
2859.80367	4828
2862.31855	4832.6
2864.83189	4820.6
2867.34368	4828.2
2869.85393	4829.3
2872.36264	4808.6
2874.8698	4841
2877.37543	4827.2
2879.87952	4830.7
2882.38207	4824.3
2884.88308	4830.8
2887.38256	4844.2
2889.88051	4832.6
2892.37692	4828.6
2894.8718	4834.1
2897.36515	4840.3
2899.85698	4819.3
2902.34727	4839.4
2904.83604	4832.2
2907.32328	4830.3
2909.809	4835
2912.29319	4835.6
2914.77587	4831.3
2917.25702	4835
2919.73665	4826.1
2922.21476	4839.1
2924.69136	4834.2
2927.16644	4815.4
2929.64	4829.6
2932.11205	4801.9
2934.58258	4770.3
2937.05161	4778
2939.51912	4770.5
2941.98513	4773
2944.44962	4741.3
2946.91261	4716.6
2949.37409	4728.9
2951.83407	4713.5
2954.29254	4713.6
2956.74951	4689.5
2959.20498	4682.8
2961.65895	4677.2
2964.11142	4656.6
2966.56239	4663.2
2969.01186	4646
2971.45984	4620.3
2973.90632	4603.9
2976.35131	4602
2978.7948	4572.5
2981.23681	4568.3
2983.67732	4555.1
2986.11635	4556.3
2988.55388	4518.1
2990.98993	4538.2
2993.4245	4508.1
2995.85758	4515.6
2998.28917	4497.1
3000.71928	4486.8
3003.14791	4491.3
3005.57506	4476.8
3008.00073	4463.1
3010.42493	4465.5
3012.84764	4445.2
3015.26888	4439.3
3017.68865	4425
3020.10694	4428.9
3022.52376	4408.2
3024.9391	4397.9
3027.35298	4395.7
3029.76539	4389.4
3032.17632	4375.4
3034.5858	4360.6
3036.9938	4369.6
3039.40034	4359.6
3041.80542	4346.7
3044.20903	4331.5
3046.61118	4329.4
3049.01187	4319.5
3051.4111	4327.9
3053.80888	4312.3
3056.20519	4308.7
3058.60005	4300.5
3060.99345	4288.7
3063.3854	4294.7
3065.7759	4261.9
3068.16494	4260.3
3070.55254	4275.4
3072.93868	4248.1
3075.32338	4245.5
3077.70662	4228.2
3080.08842	4233.2
3082.46878	4220.8
3084.84769	4212.2
3087.22515	4201.7
3089.60118	4203.5
3091.97576	4203.1
3094.3489	4190.5
3096.72061	4191.8
3099.09087	4199.3
3101.4597	4185
3103.82709	4167.7
3106.19305	4169.2
3108.55757	4175.4
3110.92066	4155.1
3113.28232	4151.8
3115.64255	4128
3118.00134	4128.4
3120.35871	4119.8
3122.71466	4109.1
3125.06917	4110.6
3127.42226	4112.6
3129.77393	4120.6
3132.12417	4112.7
3134.47299	4125
3136.82039	4125.7
3139.16636	4124.7
3141.51092	4123.6
3143.85406	4120.2
3146.19579	4117.8
3148.53609	4129.3
3150.87499	4115.7
3153.21246	4119.1
3155.54853	4131.3
3157.88318	4126.3
3160.21642	4114.4
3162.54826	4119.4
3164.87868	4112.5
3167.2077	4090.4
3169.5353	4102.8
3171.86151	4114.1
3174.18631	4113.9
3176.5097	4114.9
3178.83169	4117
3181.15228	4095.1
3183.47147	4101.6
3185.78926	4092.8
3188.10565	4097.6
3190.42065	4105.8
3192.73424	4109.5
3195.04645	4104.4
3197.35725	4105.9
3199.66667	4094.8
3201.97469	4111
3204.28132	4087.4
3206.58656	4111.1
3208.8904	4108.5
3211.19287	4101.3
3213.49394	4106.4
3215.79363	4086
3218.09193	4095.7
3220.38884	4084.5
3222.68438	4102.6
3224.97853	4097.3
3227.2713	4098.3
3229.56269	4103.4
3231.8527	4083.2
3234.14133	4077.6
3236.42858	4059.7
3238.71446	4062.6
3240.99896	4054
3243.28209	4064.7
3245.56384	4059.6
3247.84423	4059.7
3250.12324	4047.6
3252.40088	4051.4
3254.67715	4021.2
3256.95205	4034.8
3259.22558	4029.8
3261.49775	4010.6
3263.76855	4007.5
3266.03799	3991
3268.30606	3997.1
3270.57277	3970.9
3272.83812	3969.5
3275.10211	3965.1
3277.36474	3975.1
3279.62601	3978.7
3281.88593	3965.8
3284.14448	3967.4
3286.40168	3982.7
3288.65753	3965.6
3290.91202	3967.1
3293.16516	3945.2
3295.41695	3937.3
3297.66738	3912.9
3299.91647	3891.8
3302.16421	3872.5
3304.4106	3858.7
3306.65564	3833.6
3308.89933	3823.8
3311.14169	3800
3313.38269	3760.5
3315.62236	3753.9
3317.86068	3717
3320.09766	3667.1
3322.3333	3635.2
3324.5676	3646.9
3326.80056	3574.6
3329.03219	3567.9
3331.26248	2.6
3333.49143	-1
3335.71905	0.3
