Data from AgNP_FTO_APTES_UA_100uM_CRN_2uM_R6G_10uM_NaF_0.1M_Addition_RamanShift__11__13-57-40-302.txt Node

Date: Thu Mar 24 13:57:40 GMT 2022
User: TCL
Spectrometer: QEP01345
Trigger mode: 4
Integration Time (sec): 7.000000E0
Scans to average: 10
Electric dark correction enabled: true
Nonlinearity correction enabled: false
Boxcar width: 0
XAxis mode: Raman Shifts
Number of Pixels in Spectrum: 1044
>>>>>Begin Spectral Data<<<<<
46.04893	-0.6375
50.45542	0.1625
54.85868	-0.1375
59.25871	-0.5375
63.6555	37.9625
68.04907	40.4625
72.43941	38.5625
76.82654	41.0625
81.21044	46.6625
85.59113	44.9625
89.96862	49.8625
94.34289	48.0625
98.71396	51.4625
103.08183	50.3625
107.4465	51.4625
111.80798	53.5625
116.16626	57.2625
120.52136	56.9625
124.87327	56.3625
129.222	60.4625
133.56755	66.0625
137.90993	63.4625
142.24913	76.5625
146.58517	79.3625
150.91804	90.4625
155.24774	111.8625
159.57429	139.7625
163.89768	174.2625
168.21792	224.9625
172.53501	306.7625
176.84895	432.2625
181.15975	610.7625
185.46741	862.4625
189.77193	1196.0625
194.07331	1603.4625
198.37157	2091.7625
202.6667	2571.2625
206.9587	3080.7625
211.24758	3568.5625
215.53334	4074.7625
219.81599	4590.5625
224.09553	5164.3625
228.37195	5799.2625
232.64527	6507.6625
236.91549	7239.9625
241.18261	7975.5625
245.44663	8678.5625
249.70755	9278.7625
253.96539	9792.0625
258.22014	10221.4625
262.4718	10585.4625
266.72039	10809.3625
270.96589	10951.1625
275.20832	10968.4625
279.44768	10863.1625
283.68397	10737.3625
287.91719	10622.7625
292.14735	10545.6625
296.37445	10547.0625
300.59849	10594.5625
304.81948	10729.4625
309.03742	10829.2625
313.25231	10824.8625
317.46415	10668.7625
321.67296	10392.0625
325.87872	10098.7625
330.08145	9976.7625
334.28114	9981.1625
338.47781	10067.8625
342.67145	10263.9625
346.86207	10451.7625
351.04966	10670.6625
355.23424	10905.1625
359.4158	11127.4625
363.59435	11287.7625
367.76989	11368.9625
371.94243	11403.2625
376.11196	11458.0625
380.27849	11468.8625
384.44203	11504.2625
388.60257	11546.5625
392.76012	11621.3625
396.91468	11741.2625
401.06626	11923.5625
405.21485	12051.7625
409.36047	12030.0625
413.50311	11797.4625
417.64277	11567.5625
421.77947	11430.5625
425.9132	11413.8625
430.04396	11418.4625
434.17176	11506.1625
438.2966	11561.9625
442.41849	11637.1625
446.53742	11790.0625
450.6534	11956.3625
454.76644	12110.6625
458.87653	12161.0625
462.98368	12166.2625
467.08789	12146.6625
471.18916	12061.7625
475.2875	11994.6625
479.38291	11848.4625
483.4754	11773.4625
487.56496	11728.2625
491.6516	11721.9625
495.73531	11682.5625
499.81612	11733.6625
503.89401	11830.4625
507.96899	11882.8625
512.04106	11927.6625
516.11023	11971.3625
520.1765	11975.4625
524.23987	11986.4625
528.30034	11928.3625
532.35792	11811.2625
536.41261	11731.5625
540.46441	11641.0625
544.51333	11645.7625
548.55936	11704.1625
552.60252	11858.6625
556.64279	12026.1625
560.6802	12102.2625
564.71473	12119.0625
568.7464	12225.3625
572.7752	12338.0625
576.80114	12403.5625
580.82422	12505.6625
584.84444	12634.6625
588.86181	12684.4625
592.87633	12679.0625
596.888	12678.0625
600.89682	12847.0625
604.9028	13436.0625
608.90594	14958.8625
612.90624	16720.1625
616.90371	16202.7625
620.89834	13615.3625
624.89015	12328.6625
628.87913	12052.2625
632.86528	12165.8625
636.84862	12324.3625
640.82913	12269.8625
644.80683	12074.2625
648.78172	11896.4625
652.75379	11855.0625
656.72306	12049.0625
660.68952	12317.7625
664.65319	12261.4625
668.61405	12085.4625
672.57211	11994.2625
676.52738	12017.6625
680.47986	11996.0625
684.42955	11939.8625
688.37646	11927.9625
692.32058	11922.7625
696.26192	11978.9625
700.20048	12096.1625
704.13626	12176.5625
708.06928	12222.7625
711.99952	12150.2625
715.927	12097.6625
719.85171	12109.6625
723.77365	12084.1625
727.69284	12037.1625
731.60928	11965.1625
735.52295	11913.1625
739.43388	11922.8625
743.34206	11953.9625
747.24749	11979.1625
751.15017	12055.5625
755.05012	12134.4625
758.94733	12409.8625
762.8418	12977.5625
766.73354	14047.9625
770.62254	15121.0625
774.50882	15554.9625
778.39237	15020.4625
782.27321	14026.9625
786.15132	13092.0625
790.02671	12488.6625
793.89938	12177.6625
797.76935	12010.3625
801.6366	11936.1625
805.50115	11862.0625
809.36299	11847.9625
813.22213	11818.5625
817.07857	11806.6625
820.93231	11806.0625
824.78336	11773.1625
828.63172	11812.0625
832.47738	11796.7625
836.32036	11804.5625
840.16066	11762.9625
843.99827	11750.0625
847.8332	11774.6625
851.66546	11784.6625
855.49504	11782.0625
859.32195	11803.3625
863.1462	11797.3625
866.96777	11773.0625
870.78668	11789.4625
874.60293	11795.6625
878.41652	11839.8625
882.22745	11859.1625
886.03573	11873.0625
889.84136	11891.2625
893.64433	11888.9625
897.44466	11867.2625
901.24235	11840.2625
905.0374	11826.4625
908.8298	11767.4625
912.61957	11746.1625
916.40671	11791.0625
920.19121	11861.6625
923.97308	11909.6625
927.75233	11906.6625
931.52895	11914.1625
935.30295	11859.4625
939.07433	11697.8625
942.84309	11578.1625
946.60924	11471.0625
950.37278	11426.0625
954.13371	11421.2625
957.89203	11392.7625
961.64774	11401.8625
965.40086	11369.3625
969.15137	11377.6625
972.89929	11345.3625
976.64461	11353.8625
980.38733	11351.2625
984.12747	11323.4625
987.86502	11365.9625
991.59999	11419.5625
995.33237	11457.9625
999.06217	11534.5625
1002.78939	11625.2625
1006.51404	11759.6625
1010.23611	11880.8625
1013.95561	11950.5625
1017.67255	11966.8625
1021.38692	11935.0625
1025.09872	11822.7625
1028.80796	11719.5625
1032.51465	11695.2625
1036.21877	11718.2625
1039.92035	11732.9625
1043.61937	11792.4625
1047.31584	11837.3625
1051.00976	11865.2625
1054.70114	11937.8625
1058.38998	11981.4625
1062.07627	12005.4625
1065.76003	12085.0625
1069.44126	12184.2625
1073.11995	12328.2625
1076.79611	12528.0625
1080.46974	12654.5625
1084.14085	12728.6625
1087.80943	12795.5625
1091.47549	12864.2625
1095.13903	12856.2625
1098.80005	12699.0625
1102.45857	12566.8625
1106.11456	12452.2625
1109.76805	12394.6625
1113.41903	12381.2625
1117.06751	12521.3625
1120.71348	12660.8625
1124.35696	12841.3625
1127.99793	13028.1625
1131.63641	13062.0625
1135.2724	12875.2625
1138.90589	12667.4625
1142.5369	12574.8625
1146.16542	12461.9625
1149.79145	12393.2625
1153.415	12366.5625
1157.03607	12382.9625
1160.65467	12501.4625
1164.27079	12710.3625
1167.88443	13043.9625
1171.49561	13555.2625
1175.10432	14305.7625
1178.71056	15309.9625
1182.31434	16126.0625
1185.91565	16485.2625
1189.51451	16484.7625
1193.11091	16230.4625
1196.70485	15731.8625
1200.29634	15228.9625
1203.88538	14737.6625
1207.47197	14205.2625
1211.05612	13727.9625
1214.63782	13421.9625
1218.21708	13207.8625
1221.79391	13097.8625
1225.36829	13018.1625
1228.94024	13010.3625
1232.50976	13001.6625
1236.07685	12990.9625
1239.6415	12993.8625
1243.20374	12963.5625
1246.76355	13045.5625
1250.32093	13150.6625
1253.8759	13237.0625
1257.42845	13423.1625
1260.97859	13683.5625
1264.52631	13947.1625
1268.07163	14217.1625
1271.61453	14462.5625
1275.15503	14620.4625
1278.69312	14762.6625
1282.22882	14840.4625
1285.76211	14982.3625
1289.29301	15192.0625
1292.82151	15430.7625
1296.34761	15733.2625
1299.87133	16168.1625
1303.39266	16803.5625
1306.9116	17689.7625
1310.42815	18638.9625
1313.94233	19112.2625
1317.45412	18893.1625
1320.96354	18305.7625
1324.47058	17773.6625
1327.97525	17286.1625
1331.47754	16920.9625
1334.97747	16839.3625
1338.47502	16893.8625
1341.97022	17197.1625
1345.46305	17697.0625
1348.95352	18263.8625
1352.44163	18924.9625
1355.92738	19623.5625
1359.41078	20604.1625
1362.89183	21703.1625
1366.37053	21514.3625
1369.84688	19699.6625
1373.32088	17576.1625
1376.79254	16085.1625
1380.26186	15243.9625
1383.72883	14759.5625
1387.19347	14426.2625
1390.65578	14078.3625
1394.11575	13808.4625
1397.57339	13598.7625
1401.0287	13442.6625
1404.48168	13372.1625
1407.93234	13296.0625
1411.38068	13288.8625
1414.82669	13227.2625
1418.27039	13155.9625
1421.71177	13039.7625
1425.15083	12878.6625
1428.58758	12763.4625
1432.02203	12704.3625
1435.45416	12810.1625
1438.88399	12846.6625
1442.31151	12857.7625
1445.73673	12947.5625
1449.15965	13025.2625
1452.58027	13009.4625
1455.9986	13074.0625
1459.41463	13118.5625
1462.82837	13272.2625
1466.23982	13495.7625
1469.64898	13764.2625
1473.05586	13982.5625
1476.46045	14163.4625
1479.86276	14311.8625
1483.26279	14478.5625
1486.66054	14703.3625
1490.05602	14954.0625
1493.44922	15438.5625
1496.84016	16179.7625
1500.22882	17295.5625
1503.61521	18735.9625
1506.99934	20200.2625
1510.38121	21095.5625
1513.76081	21075.9625
1517.13816	19962.0625
1520.51324	18448.7625
1523.88607	17069.5625
1527.25665	16143.5625
1530.62498	15614.0625
1533.99105	15301.4625
1537.35488	15058.5625
1540.71647	14847.0625
1544.07581	14605.9625
1547.4329	14416.8625
1550.78776	14267.6625
1554.14038	14185.6625
1557.49077	14232.3625
1560.83892	14322.0625
1564.18484	14517.0625
1567.52853	14868.1625
1570.86999	15122.1625
1574.20922	15253.5625
1577.54624	15201.8625
1580.88103	14739.8625
1584.2136	14157.7625
1587.54395	13768.1625
1590.87208	13713.4625
1594.19801	13995.8625
1597.52172	14490.7625
1600.84321	14762.9625
1604.16251	14549.5625
1607.47959	14151.9625
1610.79447	13748.7625
1614.10715	13264.7625
1617.41763	12733.2625
1620.7259	12353.8625
1624.03199	12088.0625
1627.33587	12023.0625
1630.63757	12005.7625
1633.93707	12243.9625
1637.23439	12697.8625
1640.52951	13437.3625
1643.82246	14477.3625
1647.11321	15731.1625
1650.40179	16605.7625
1653.68819	16436.4625
1656.97241	15281.2625
1660.25446	13799.3625
1663.53433	12607.1625
1666.81203	11814.7625
1670.08756	11347.7625
1673.36092	11037.8625
1676.63211	10846.1625
1679.90115	10685.0625
1683.16801	10597.8625
1686.43272	10501.9625
1689.69527	10419.7625
1692.95567	10361.2625
1696.2139	10331.2625
1699.46999	10313.3625
1702.72392	10282.5625
1705.97571	10255.2625
1709.22535	10232.8625
1712.47284	10225.7625
1715.71819	10225.9625
1718.96139	10186.9625
1722.20246	10185.6625
1725.44139	10155.4625
1728.67818	10082.0625
1731.91284	10047.6625
1735.14537	9978.7625
1738.37576	9931.3625
1741.60403	9897.5625
1744.83017	9861.3625
1748.05418	9831.0625
1751.27607	9824.0625
1754.49584	9819.3625
1757.71349	9809.1625
1760.92903	9802.7625
1764.14244	9795.2625
1767.35375	9772.6625
1770.56294	9753.3625
1773.77002	9707.1625
1776.97499	9726.3625
1780.17785	9700.3625
1783.37861	9664.9625
1786.57727	9664.6625
1789.77382	9619.7625
1792.96828	9631.4625
1796.16064	9605.0625
1799.3509	9590.0625
1802.53907	9571.3625
1805.72514	9551.1625
1808.90913	9536.6625
1812.09102	9500.6625
1815.27083	9495.2625
1818.44856	9458.0625
1821.6242	9434.4625
1824.79776	9428.8625
1827.96924	9395.6625
1831.13864	9389.2625
1834.30597	9395.4625
1837.47122	9356.3625
1840.6344	9351.7625
1843.7955	9352.2625
1846.95454	9354.0625
1850.11151	9310.3625
1853.26642	9311.4625
1856.41926	9305.7625
1859.57004	9291.4625
1862.71876	9287.5625
1865.86542	9261.6625
1869.01003	9268.8625
1872.15258	9262.0625
1875.29308	9228.4625
1878.43152	9223.5625
1881.56792	9200.8625
1884.70227	9191.0625
1887.83457	9161.3625
1890.96482	9153.6625
1894.09304	9133.6625
1897.21921	9122.9625
1900.34335	9126.2625
1903.46544	9107.7625
1906.58551	9133.0625
1909.70353	9135.5625
1912.81953	9072.9625
1915.93349	9072.7625
1919.04543	9049.1625
1922.15534	9023.3625
1925.26322	9006.7625
1928.36908	8998.2625
1931.47292	8978.4625
1934.57473	8961.0625
1937.67453	8930.2625
1940.77232	8892.7625
1943.86808	8886.2625
1946.96184	8865.2625
1950.05358	8842.5625
1953.14331	8810.8625
1956.23103	8799.7625
1959.31675	8788.0625
1962.40046	8751.9625
1965.48217	8734.0625
1968.56188	8693.7625
1971.63959	8683.1625
1974.7153	8662.0625
1977.78901	8610.6625
1980.86073	8610.9625
1983.93046	8580.9625
1986.99819	8540.4625
1990.06394	8516.8625
1993.1277	8477.3625
1996.18947	8464.8625
1999.24925	8422.9625
2002.30706	8377.0625
2005.36288	8356.7625
2008.41672	8314.6625
2011.46859	8294.8625
2014.51848	8288.3625
2017.56639	8263.0625
2020.61233	8246.2625
2023.6563	8221.8625
2026.6983	8180.9625
2029.73833	8157.5625
2032.7764	8146.9625
2035.8125	8119.6625
2038.84664	8090.3625
2041.87881	8076.3625
2044.90903	8064.5625
2047.93729	8061.9625
2050.96359	8034.9625
2053.98794	8010.5625
2057.01034	7987.5625
2060.03078	7979.4625
2063.04927	7960.3625
2066.06582	7967.1625
2069.08042	7954.0625
2072.09307	7942.0625
2075.10378	7951.0625
2078.11255	7962.8625
2081.11938	7939.2625
2084.12426	7945.0625
2087.12722	7941.6625
2090.12824	7931.4625
2093.12732	7959.9625
2096.12447	7946.4625
2099.11969	7939.5625
2102.11299	7954.7625
2105.10435	7941.0625
2108.09379	7930.2625
2111.08131	7933.0625
2114.0669	7958.6625
2117.05057	7965.1625
2120.03233	7963.1625
2123.01216	7941.1625
2125.99008	7978.4625
2128.96609	7984.4625
2131.94018	7964.2625
2134.91236	7975.6625
2137.88263	7979.5625
2140.851	7977.8625
2143.81746	8000.1625
2146.78201	8002.3625
2149.74466	7985.2625
2152.7054	7972.7625
2155.66425	7964.0625
2158.6212	7963.4625
2161.57625	7983.9625
2164.52941	7942.4625
2167.48067	7970.6625
2170.43004	7939.5625
2173.37752	7944.8625
2176.32311	7935.9625
2179.26681	7949.4625
2182.20863	7912.1625
2185.14856	7925.6625
2188.08661	7895.4625
2191.02278	7901.8625
2193.95707	7880.8625
2196.88948	7885.0625
2199.82001	7872.8625
2202.74867	7867.2625
2205.67545	7851.8625
2208.60037	7839.1625
2211.52341	7820.8625
2214.44458	7811.0625
2217.36388	7797.0625
2220.28132	7799.4625
2223.1969	7780.4625
2226.11061	7757.9625
2229.02246	7731.3625
2231.93245	7717.1625
2234.84058	7690.2625
2237.74686	7663.2625
2240.65128	7661.1625
2243.55385	7639.0625
2246.45456	7649.3625
2249.35343	7629.9625
2252.25044	7642.9625
2255.14561	7629.1625
2258.03893	7621.8625
2260.93041	7605.4625
2263.82004	7584.0625
2266.70783	7575.5625
2269.59378	7552.8625
2272.4779	7520.1625
2275.36017	7499.5625
2278.24061	7511.0625
2281.11922	7475.0625
2283.996	7458.6625
2286.87094	7469.9625
2289.74405	7446.8625
2292.61534	7440.6625
2295.4848	7433.4625
2298.35243	7423.7625
2301.21824	7395.0625
2304.08223	7394.0625
2306.94439	7371.3625
2309.80474	7351.3625
2312.66327	7329.8625
2315.51999	7332.0625
2318.37489	7329.7625
2321.22797	7316.0625
2324.07925	7310.9625
2326.92871	7296.9625
2329.77637	7281.2625
2332.62222	7269.7625
2335.46626	7271.0625
2338.3085	7259.8625
2341.14893	7256.5625
2343.98756	7256.8625
2346.8244	7232.8625
2349.65943	7248.8625
2352.49267	7215.4625
2355.32411	7198.5625
2358.15376	7222.8625
2360.98161	7213.7625
2363.80768	7208.3625
2366.63195	7220.7625
2369.45444	7212.7625
2372.27514	7196.9625
2375.09405	7190.9625
2377.91118	7162.8625
2380.72652	7150.2625
2383.54009	7130.8625
2386.35187	7142.9625
2389.16188	7109.5625
2391.97011	7105.1625
2394.77657	7079.5625
2397.58125	7060.8625
2400.38416	7046.5625
2403.18529	7021.2625
2405.98466	7034.0625
2408.78226	7003.6625
2411.57809	6981.2625
2414.37216	6961.2625
2417.16446	6966.3625
2419.955	6935.8625
2422.74378	6935.9625
2425.5308	6938.4625
2428.31606	6943.5625
2431.09956	6933.5625
2433.88131	6920.3625
2436.6613	6900.9625
2439.43954	6930.4625
2442.21603	6897.3625
2444.99077	6885.1625
2447.76377	6896.7625
2450.53501	6862.0625
2453.30451	6879.6625
2456.07226	6849.4625
2458.83827	6864.4625
2461.60254	6837.9625
2464.36507	6835.3625
2467.12586	6846.2625
2469.88492	6843.1625
2472.64224	6856.8625
2475.39782	6834.9625
2478.15167	6851.5625
2480.90379	6799.8625
2483.65417	6813.6625
2486.40283	6817.1625
2489.14976	6831.0625
2491.89497	6817.1625
2494.63845	6816.1625
2497.3802	6795.4625
2500.12024	6801.1625
2502.85855	6809.5625
2505.59514	6789.7625
2508.33002	6751.2625
2511.06318	6739.5625
2513.79462	6752.2625
2516.52435	6718.2625
2519.25237	6717.3625
2521.97867	6724.2625
2524.70327	6707.0625
2527.42616	6689.1625
2530.14734	6678.4625
2532.86681	6639.9625
2535.58458	6645.4625
2538.30065	6638.2625
2541.01501	6622.4625
2543.72768	6602.0625
2546.43864	6593.3625
2549.14791	6564.2625
2551.85548	6567.2625
2554.56136	6563.0625
2557.26554	6554.3625
2559.96803	6533.1625
2562.66883	6516.1625
2565.36794	6529.9625
2568.06536	6515.1625
2570.7611	6515.0625
2573.45514	6498.9625
2576.14751	6471.3625
2578.83819	6464.7625
2581.52719	6465.5625
2584.21451	6447.1625
2586.90015	6440.5625
2589.58411	6407.8625
2592.2664	6405.9625
2594.94701	6381.2625
2597.62594	6381.8625
2600.30321	6353.6625
2602.9788	6332.1625
2605.65273	6333.8625
2608.32498	6339.2625
2610.99557	6310.7625
2613.66449	6299.9625
2616.33175	6291.4625
2618.99734	6308.0625
2621.66128	6288.6625
2624.32355	6270.6625
2626.98416	6247.4625
2629.64311	6246.3625
2632.30041	6224.0625
2634.95605	6235.0625
2637.61004	6219.8625
2640.26238	6198.7625
2642.91306	6215.7625
2645.56209	6231.4625
2648.20948	6205.8625
2650.85521	6201.1625
2653.4993	6185.9625
2656.14175	6199.3625
2658.78255	6183.8625
2661.42171	6184.9625
2664.05923	6187.8625
2666.6951	6189.4625
2669.32934	6187.4625
2671.96194	6174.9625
2674.59291	6157.9625
2677.22224	6171.0625
2679.84993	6178.9625
2682.476	6181.7625
2685.10043	6165.1625
2687.72324	6160.9625
2690.34441	6152.7625
2692.96396	6162.4625
2695.58188	6159.2625
2698.19818	6141.2625
2700.81285	6158.6625
2703.4259	6157.7625
2706.03733	6157.9625
2708.64714	6141.3625
2711.25533	6156.5625
2713.86191	6150.5625
2716.46687	6154.7625
2719.07021	6127.0625
2721.67194	6142.6625
2724.27206	6125.8625
2726.87057	6136.2625
2729.46747	6130.2625
2732.06276	6130.8625
2734.65644	6101.9625
2737.24852	6103.6625
2739.83899	6103.0625
2742.42786	6088.5625
2745.01513	6087.1625
2747.60079	6089.7625
2750.18486	6054.9625
2752.76733	6057.8625
2755.3482	6040.6625
2757.92747	6036.4625
2760.50515	6012.4625
2763.08123	6018.1625
2765.65573	6018.5625
2768.22863	6015.2625
2770.79994	5997.1625
2773.36967	6007.7625
2775.9378	5989.7625
2778.50435	5973.8625
2781.06932	5949.8625
2783.6327	5954.0625
2786.1945	5946.9625
2788.75471	5926.2625
2791.31335	5920.6625
2793.87041	5915.5625
2796.42589	5883.6625
2798.97979	5874.0625
2801.53212	5868.5625
2804.08288	5873.0625
2806.63206	5869.1625
2809.17967	5851.3625
2811.72571	5844.2625
2814.27018	5823.9625
2816.81308	5832.2625
2819.35442	5824.3625
2821.89419	5803.6625
2824.43239	5789.0625
2826.96904	5800.9625
2829.50412	5771.2625
2832.03763	5770.8625
2834.56959	5758.7625
2837.1	5755.7625
2839.62884	5754.5625
2842.15613	5729.7625
2844.68186	5749.1625
2847.20604	5760.9625
2849.72867	5728.0625
2852.24974	5727.7625
2854.76927	5726.1625
2857.28724	5704.9625
2859.80367	5691.3625
2862.31855	5694.3625
2864.83189	5709.2625
2867.34368	5693.5625
2869.85393	5697.9625
2872.36264	5697.6625
2874.8698	5690.2625
2877.37543	5684.8625
2879.87952	5673.6625
2882.38207	5677.7625
2884.88308	5677.8625
2887.38256	5683.2625
2889.88051	5684.4625
2892.37692	5666.5625
2894.8718	5660.6625
2897.36515	5655.1625
2899.85698	5661.9625
2902.34727	5675.9625
2904.83604	5674.1625
2907.32328	5663.7625
2909.809	5676.0625
2912.29319	5659.1625
2914.77587	5666.8625
2917.25702	5650.1625
2919.73665	5651.4625
2922.21476	5663.7625
2924.69136	5652.0625
2927.16644	5655.5625
2929.64	5640.2625
2932.11205	5641.1625
2934.58258	5616.5625
2937.05161	5615.3625
2939.51912	5630.6625
2941.98513	5633.5625
2944.44962	5592.5625
2946.91261	5558.0625
2949.37409	5589.6625
2951.83407	5572.6625
2954.29254	5574.9625
2956.74951	5549.5625
2959.20498	5555.5625
2961.65895	5551.9625
2964.11142	5549.6625
2966.56239	5529.6625
2969.01186	5532.2625
2971.45984	5516.8625
2973.90632	5519.9625
2976.35131	5507.0625
2978.7948	5481.1625
2981.23681	5479.0625
2983.67732	5472.0625
2986.11635	5460.8625
2988.55388	5467.6625
2990.98993	5452.4625
2993.4245	5437.3625
2995.85758	5427.3625
2998.28917	5423.3625
3000.71928	5393.9625
3003.14791	5400.6625
3005.57506	5385.0625
3008.00073	5377.0625
3010.42493	5403.5625
3012.84764	5370.1625
3015.26888	5365.7625
3017.68865	5361.5625
3020.10694	5363.3625
3022.52376	5331.0625
3024.9391	5312.9625
3027.35298	5317.7625
3029.76539	5314.1625
3032.17632	5313.9625
3034.5858	5293.9625
3036.9938	5301.7625
3039.40034	5283.6625
3041.80542	5270.8625
3044.20903	5246.8625
3046.61118	5259.0625
3049.01187	5246.1625
3051.4111	5222.2625
3053.80888	5215.5625
3056.20519	5212.4625
3058.60005	5208.3625
3060.99345	5201.1625
3063.3854	5179.4625
3065.7759	5183.6625
3068.16494	5183.9625
3070.55254	5167.2625
3072.93868	5156.1625
3075.32338	5130.8625
3077.70662	5129.5625
3080.08842	5149.0625
3082.46878	5146.1625
3084.84769	5124.0625
3087.22515	5124.5625
3089.60118	5103.0625
3091.97576	5103.4625
3094.3489	5101.5625
3096.72061	5119.7625
3099.09087	5112.0625
3101.4597	5115.6625
3103.82709	5108.4625
3106.19305	5111.9625
3108.55757	5104.5625
3110.92066	5074.6625
3113.28232	5085.0625
3115.64255	5076.8625
3118.00134	5049.4625
3120.35871	5042.9625
3122.71466	5045.8625
3125.06917	5035.7625
3127.42226	5040.0625
3129.77393	5044.1625
3132.12417	5040.4625
3134.47299	5039.3625
3136.82039	5039.0625
3139.16636	5046.0625
3141.51092	5047.1625
3143.85406	5032.0625
3146.19579	5065.9625
3148.53609	5037.0625
3150.87499	5064.8625
3153.21246	5064.2625
3155.54853	5064.9625
3157.88318	5051.3625
3160.21642	5044.2625
3162.54826	5032.6625
3164.87868	5044.0625
3167.2077	5036.7625
3169.5353	5041.8625
3171.86151	5034.8625
3174.18631	5031.1625
3176.5097	5035.1625
3178.83169	5025.9625
3181.15228	5047.1625
3183.47147	5019.3625
3185.78926	5015.1625
3188.10565	5028.6625
3190.42065	5027.1625
3192.73424	5025.7625
3195.04645	5012.6625
3197.35725	5022.4625
3199.66667	5026.0625
3201.97469	5065.3625
3204.28132	5053.8625
3206.58656	5039.2625
3208.8904	5052.2625
3211.19287	5041.6625
3213.49394	5060.1625
3215.79363	5062.1625
3218.09193	5024.4625
3220.38884	5020.8625
3222.68438	5027.4625
3224.97853	5012.7625
3227.2713	5011.6625
3229.56269	5002.0625
3231.8527	5000.6625
3234.14133	4979.9625
3236.42858	4976.6625
3238.71446	4988.9625
3240.99896	4978.0625
3243.28209	4980.2625
3245.56384	4972.2625
3247.84423	4986.8625
3250.12324	4964.0625
3252.40088	4948.6625
3254.67715	4960.4625
3256.95205	4959.0625
3259.22558	4938.5625
3261.49775	4924.0625
3263.76855	4919.6625
3266.03799	4898.5625
3268.30606	4909.8625
3270.57277	4882.3625
3272.83812	4875.2625
3275.10211	4881.5625
3277.36474	4882.9625
3279.62601	4872.1625
3281.88593	4860.4625
3284.14448	4860.9625
3286.40168	4871.1625
3288.65753	4855.2625
3290.91202	4837.6625
3293.16516	4826.5625
3295.41695	4788.9625
3297.66738	4790.0625
3299.91647	4789.9625
3302.16421	4753.1625
3304.4106	4750.7625
3306.65564	4732.5625
3308.89933	4715.7625
3311.14169	4684.0625
3313.38269	4653.6625
3315.62236	4627.6625
3317.86068	4582.7625
3320.09766	4524.6625
3322.3333	4486.9625
3324.5676	4488.7625
3326.80056	4419.8625
3329.03219	4404.8625
3331.26248	0.9625
3333.49143	-0.3375
3335.71905	0.5625
