Data from AgNP_FTO_APTES_UA_100uM_CRN_1uM_R6G_10uM_NaF_0.1M_Addition_RamanShift__12__12-02-10-169.txt Node

Date: Thu Mar 24 12:02:10 GMT 2022
User: TCL
Spectrometer: QEP01345
Trigger mode: 4
Integration Time (sec): 7.000000E0
Scans to average: 10
Electric dark correction enabled: true
Nonlinearity correction enabled: false
Boxcar width: 0
XAxis mode: Raman Shifts
Number of Pixels in Spectrum: 1044
>>>>>Begin Spectral Data<<<<<
46.04893	-1.3125
50.45542	-0.5125
54.85868	-0.0125
59.25871	0.4875
63.6555	48.3875
68.04907	48.5875
72.43941	52.1875
76.82654	50.1875
81.21044	57.8875
85.59113	58.1875
89.96862	60.6875
94.34289	57.1875
98.71396	65.0875
103.08183	62.7875
107.4465	67.1875
111.80798	68.7875
116.16626	70.2875
120.52136	73.4875
124.87327	71.6875
129.222	81.9875
133.56755	84.9875
137.90993	89.6875
142.24913	101.5875
146.58517	109.4875
150.91804	135.0875
155.24774	162.6875
159.57429	202.8875
163.89768	262.6875
168.21792	349.1875
172.53501	479.0875
176.84895	675.0875
181.15975	947.3875
185.46741	1327.6875
189.77193	1828.9875
194.07331	2461.1875
198.37157	3192.2875
202.6667	3952.1875
206.9587	4702.8875
211.24758	5449.7875
215.53334	6208.3875
219.81599	6979.0875
224.09553	7880.4875
228.37195	8836.9875
232.64527	9953.1875
236.91549	11079.7875
241.18261	12210.1875
245.44663	13229.1875
249.70755	14068.0875
253.96539	14788.5875
258.22014	15358.9875
262.4718	15804.5875
266.72039	16109.9875
270.96589	16235.4875
275.20832	16223.9875
279.44768	16107.1875
283.68397	15982.8875
287.91719	15873.0875
292.14735	15805.7875
296.37445	15809.8875
300.59849	15910.3875
304.81948	16060.3875
309.03742	16184.7875
313.25231	16204.8875
317.46415	16025.2875
321.67296	15657.4875
325.87872	15337.3875
330.08145	15175.8875
334.28114	15117.9875
338.47781	15231.2875
342.67145	15400.6875
346.86207	15701.1875
351.04966	16018.4875
355.23424	16353.7875
359.4158	16574.6875
363.59435	16711.2875
367.76989	16742.7875
371.94243	16726.0875
376.11196	16706.5875
380.27849	16668.3875
384.44203	16704.0875
388.60257	16815.3875
392.76012	16995.1875
396.91468	17268.5875
401.06626	17537.7875
405.21485	17691.5875
409.36047	17506.2875
413.50311	17111.4875
417.64277	16768.7875
421.77947	16698.0875
425.9132	16769.7875
430.04396	16876.5875
434.17176	16951.9875
438.2966	17090.8875
442.41849	17389.8875
446.53742	17869.2875
450.6534	18372.0875
454.76644	18723.2875
458.87653	18797.8875
462.98368	18720.8875
467.08789	18567.4875
471.18916	18319.2875
475.2875	18000.5875
479.38291	17756.1875
483.4754	17625.4875
487.56496	17432.7875
491.6516	17246.0875
495.73531	17021.1875
499.81612	16882.3875
503.89401	16937.8875
507.96899	17014.1875
512.04106	17003.3875
516.11023	16924.6875
520.1765	16797.5875
524.23987	16705.0875
528.30034	16669.2875
532.35792	16535.1875
536.41261	16342.5875
540.46441	16107.9875
544.51333	15988.2875
548.55936	16128.5875
552.60252	16455.2875
556.64279	16918.0875
560.6802	17268.6875
564.71473	17514.5875
568.7464	17961.0875
572.7752	18745.9875
576.80114	19577.1875
580.82422	20197.6875
584.84444	20702.0875
588.86181	21570.0875
592.87633	22734.5875
596.888	23260.0875
600.89682	22411.0875
604.9028	21681.8875
608.90594	22838.6875
612.90624	24524.1875
616.90371	22948.6875
620.89834	18891.3875
624.89015	16972.3875
628.87913	16777.4875
632.86528	17019.7875
636.84862	17116.2875
640.82913	16784.0875
644.80683	16225.3875
648.78172	15850.4875
652.75379	15757.6875
656.72306	16037.0875
660.68952	16403.1875
664.65319	16307.3875
668.61405	15907.5875
672.57211	15829.9875
676.52738	15870.5875
680.47986	15866.3875
684.42955	15686.6875
688.37646	15611.8875
692.32058	15699.7875
696.26192	15842.4875
700.20048	16135.0875
704.13626	16355.1875
708.06928	16458.3875
711.99952	16395.9875
715.927	16365.0875
719.85171	16347.5875
723.77365	16233.9875
727.69284	16018.1875
731.60928	15788.5875
735.52295	15760.6875
739.43388	15815.7875
743.34206	15906.3875
747.24749	16048.6875
751.15017	16169.1875
755.05012	16528.5875
758.94733	17075.0875
762.8418	18194.8875
766.73354	20059.1875
770.62254	21821.5875
774.50882	21979.5875
778.39237	20770.9875
782.27321	19053.6875
786.15132	17673.7875
790.02671	16742.2875
793.89938	16180.4875
797.76935	15918.5875
801.6366	15752.7875
805.50115	15676.7875
809.36299	15545.5875
813.22213	15461.1875
817.07857	15420.9875
820.93231	15385.7875
824.78336	15307.7875
828.63172	15285.4875
832.47738	15211.5875
836.32036	15200.3875
840.16066	15191.8875
843.99827	15194.5875
847.8332	15220.1875
851.66546	15270.1875
855.49504	15305.9875
859.32195	15293.8875
863.1462	15246.4875
866.96777	15214.8875
870.78668	15180.5875
874.60293	15188.7875
878.41652	15212.1875
882.22745	15291.0875
886.03573	15387.0875
889.84136	15397.0875
893.64433	15312.3875
897.44466	15301.1875
901.24235	15271.1875
905.0374	15209.1875
908.8298	15140.4875
912.61957	15137.9875
916.40671	15261.5875
920.19121	15517.5875
923.97308	15733.3875
927.75233	15854.3875
931.52895	15619.8875
935.30295	15314.5875
939.07433	14945.3875
942.84309	14666.3875
946.60924	14537.1875
950.37278	14489.1875
954.13371	14477.7875
957.89203	14483.2875
961.64774	14452.3875
965.40086	14485.9875
969.15137	14505.9875
972.89929	14450.4875
976.64461	14419.5875
980.38733	14338.8875
984.12747	14344.9875
987.86502	14416.8875
991.59999	14508.3875
995.33237	14599.5875
999.06217	14834.6875
1002.78939	15212.7875
1006.51404	15624.3875
1010.23611	15986.7875
1013.95561	16234.1875
1017.67255	16247.8875
1021.38692	16009.8875
1025.09872	15593.6875
1028.80796	15306.3875
1032.51465	15121.0875
1036.21877	15153.0875
1039.92035	15249.7875
1043.61937	15360.1875
1047.31584	15427.5875
1051.00976	15468.7875
1054.70114	15615.3875
1058.38998	15634.3875
1062.07627	15793.6875
1065.76003	15971.0875
1069.44126	16237.9875
1073.11995	16603.7875
1076.79611	16923.3875
1080.46974	17109.6875
1084.14085	17352.1875
1087.80943	17622.5875
1091.47549	17809.5875
1095.13903	17785.7875
1098.80005	17479.9875
1102.45857	17007.8875
1106.11456	16643.9875
1109.76805	16459.0875
1113.41903	16520.4875
1117.06751	16662.3875
1120.71348	16947.6875
1124.35696	17266.9875
1127.99793	17556.7875
1131.63641	17648.2875
1135.2724	17530.6875
1138.90589	17396.3875
1142.5369	17386.0875
1146.16542	17445.9875
1149.79145	17615.5875
1153.415	17888.2875
1157.03607	18137.4875
1160.65467	18476.4875
1164.27079	19095.3875
1167.88443	19962.2875
1171.49561	21283.7875
1175.10432	23065.6875
1178.71056	25308.3875
1182.31434	27353.2875
1185.91565	28156.5875
1189.51451	27969.7875
1193.11091	27132.5875
1196.70485	25985.9875
1200.29634	24646.9875
1203.88538	23528.7875
1207.47197	22689.5875
1211.05612	22122.8875
1214.63782	21667.8875
1218.21708	21274.6875
1221.79391	21049.0875
1225.36829	21001.5875
1228.94024	20940.4875
1232.50976	20622.9875
1236.07685	20111.8875
1239.6415	19725.7875
1243.20374	19509.1875
1246.76355	19537.0875
1250.32093	19691.1875
1253.8759	20052.8875
1257.42845	20607.5875
1260.97859	21306.9875
1264.52631	22084.6875
1268.07163	22860.1875
1271.61453	23508.0875
1275.15503	24201.7875
1278.69312	24897.3875
1282.22882	25704.7875
1285.76211	26720.7875
1289.29301	27973.5875
1292.82151	29322.5875
1296.34761	30855.6875
1299.87133	32707.9875
1303.39266	34694.7875
1306.9116	36689.9875
1310.42815	38362.2875
1313.94233	39100.3875
1317.45412	38453.2875
1320.96354	37239.9875
1324.47058	36028.3875
1327.97525	35009.4875
1331.47754	34354.7875
1334.97747	33844.6875
1338.47502	33563.3875
1341.97022	33497.0875
1345.46305	33654.8875
1348.95352	34026.8875
1352.44163	34536.5875
1355.92738	35492.4875
1359.41078	37378.1875
1362.89183	39327.0875
1366.37053	39267.1875
1369.84688	36159.8875
1373.32088	31804.8875
1376.79254	28702.4875
1380.26186	27319.0875
1383.72883	26831.9875
1387.19347	26541.9875
1390.65578	26151.8875
1394.11575	25818.6875
1397.57339	25797.7875
1401.0287	25812.5875
1404.48168	25747.3875
1407.93234	25415.4875
1411.38068	24898.2875
1414.82669	24136.3875
1418.27039	23333.4875
1421.71177	22618.9875
1425.15083	21963.1875
1428.58758	21670.9875
1432.02203	21713.9875
1435.45416	22108.8875
1438.88399	22490.5875
1442.31151	22780.5875
1445.73673	23033.6875
1449.15965	23287.0875
1452.58027	23466.0875
1455.9986	23582.8875
1459.41463	23925.9875
1462.82837	24406.9875
1466.23982	24980.5875
1469.64898	25508.1875
1473.05586	25820.9875
1476.46045	26054.9875
1479.86276	26199.7875
1483.26279	26322.8875
1486.66054	26562.4875
1490.05602	27107.2875
1493.44922	27930.0875
1496.84016	28986.8875
1500.22882	30232.0875
1503.61521	31660.6875
1506.99934	32976.7875
1510.38121	33697.9875
1513.76081	33420.7875
1517.13816	32179.1875
1520.51324	30654.9875
1523.88607	29511.0875
1527.25665	29009.6875
1530.62498	28772.1875
1533.99105	28469.2875
1537.35488	27837.3875
1540.71647	26954.9875
1544.07581	25923.1875
1547.4329	25004.2875
1550.78776	24256.7875
1554.14038	23817.0875
1557.49077	23666.5875
1560.83892	23781.5875
1564.18484	24031.0875
1567.52853	24415.5875
1570.86999	24801.8875
1574.20922	25202.8875
1577.54624	25325.6875
1580.88103	24892.0875
1584.2136	24466.3875
1587.54395	24665.9875
1590.87208	25545.3875
1594.19801	27012.3875
1597.52172	28548.8875
1600.84321	28849.2875
1604.16251	27571.4875
1607.47959	25544.0875
1610.79447	23486.2875
1614.10715	21568.7875
1617.41763	19998.4875
1620.7259	18884.5875
1624.03199	18317.7875
1627.33587	18271.7875
1630.63757	18753.5875
1633.93707	19971.8875
1637.23439	22157.1875
1640.52951	25594.3875
1643.82246	30023.0875
1647.11321	33864.1875
1650.40179	35084.0875
1653.68819	32710.5875
1656.97241	28062.7875
1660.25446	23360.2875
1663.53433	19889.3875
1666.81203	17665.9875
1670.08756	16393.7875
1673.36092	15545.8875
1676.63211	15050.3875
1679.90115	14678.2875
1683.16801	14422.2875
1686.43272	14227.1875
1689.69527	14073.3875
1692.95567	13960.1875
1696.2139	13863.6875
1699.46999	13782.2875
1702.72392	13724.4875
1705.97571	13675.4875
1709.22535	13658.8875
1712.47284	13639.4875
1715.71819	13582.5875
1718.96139	13548.0875
1722.20246	13518.2875
1725.44139	13455.9875
1728.67818	13367.7875
1731.91284	13262.1875
1735.14537	13149.3875
1738.37576	13075.7875
1741.60403	13018.1875
1744.83017	12955.8875
1748.05418	12940.0875
1751.27607	12881.3875
1754.49584	12831.1875
1757.71349	12833.1875
1760.92903	12787.8875
1764.14244	12801.1875
1767.35375	12799.0875
1770.56294	12756.4875
1773.77002	12730.5875
1776.97499	12702.1875
1780.17785	12673.6875
1783.37861	12650.6875
1786.57727	12613.0875
1789.77382	12620.4875
1792.96828	12584.0875
1796.16064	12546.9875
1799.3509	12530.6875
1802.53907	12502.4875
1805.72514	12445.9875
1808.90913	12403.9875
1812.09102	12387.4875
1815.27083	12350.7875
1818.44856	12357.7875
1821.6242	12319.2875
1824.79776	12285.5875
1827.96924	12272.4875
1831.13864	12233.7875
1834.30597	12246.5875
1837.47122	12247.0875
1840.6344	12256.1875
1843.7955	12241.6875
1846.95454	12204.4875
1850.11151	12211.7875
1853.26642	12230.4875
1856.41926	12223.6875
1859.57004	12198.5875
1862.71876	12194.1875
1865.86542	12166.4875
1869.01003	12152.4875
1872.15258	12156.9875
1875.29308	12131.4875
1878.43152	12129.2875
1881.56792	12082.3875
1884.70227	12064.6875
1887.83457	12055.2875
1890.96482	12069.7875
1894.09304	12035.8875
1897.21921	11989.9875
1900.34335	12005.3875
1903.46544	11999.7875
1906.58551	11996.2875
1909.70353	11975.4875
1912.81953	11957.6875
1915.93349	11911.8875
1919.04543	11884.8875
1922.15534	11881.2875
1925.26322	11815.1875
1928.36908	11781.7875
1931.47292	11756.3875
1934.57473	11730.0875
1937.67453	11687.7875
1940.77232	11669.8875
1943.86808	11616.7875
1946.96184	11586.0875
1950.05358	11547.6875
1953.14331	11519.4875
1956.23103	11537.2875
1959.31675	11468.1875
1962.40046	11458.4875
1965.48217	11412.3875
1968.56188	11354.5875
1971.63959	11345.7875
1974.7153	11304.9875
1977.78901	11256.5875
1980.86073	11215.1875
1983.93046	11192.5875
1986.99819	11141.8875
1990.06394	11099.9875
1993.1277	11047.4875
1996.18947	11017.8875
1999.24925	10977.8875
2002.30706	10927.2875
2005.36288	10889.0875
2008.41672	10884.3875
2011.46859	10830.7875
2014.51848	10827.2875
2017.56639	10767.6875
2020.61233	10726.3875
2023.6563	10738.6875
2026.6983	10692.2875
2029.73833	10659.4875
2032.7764	10639.2875
2035.8125	10603.9875
2038.84664	10541.2875
2041.87881	10534.3875
2044.90903	10542.6875
2047.93729	10492.8875
2050.96359	10484.8875
2053.98794	10464.1875
2057.01034	10436.5875
2060.03078	10404.8875
2063.04927	10390.2875
2066.06582	10396.3875
2069.08042	10410.5875
2072.09307	10381.5875
2075.10378	10358.8875
2078.11255	10369.7875
2081.11938	10381.1875
2084.12426	10371.5875
2087.12722	10376.1875
2090.12824	10379.1875
2093.12732	10413.8875
2096.12447	10401.4875
2099.11969	10418.9875
2102.11299	10409.0875
2105.10435	10404.4875
2108.09379	10413.8875
2111.08131	10378.9875
2114.0669	10442.6875
2117.05057	10412.6875
2120.03233	10399.4875
2123.01216	10438.6875
2125.99008	10432.2875
2128.96609	10429.7875
2131.94018	10441.1875
2134.91236	10437.9875
2137.88263	10427.0875
2140.851	10447.1875
2143.81746	10422.7875
2146.78201	10428.1875
2149.74466	10411.7875
2152.7054	10426.5875
2155.66425	10389.2875
2158.6212	10408.1875
2161.57625	10379.2875
2164.52941	10351.1875
2167.48067	10362.7875
2170.43004	10366.1875
2173.37752	10338.6875
2176.32311	10320.2875
2179.26681	10312.5875
2182.20863	10299.8875
2185.14856	10303.4875
2188.08661	10279.4875
2191.02278	10305.1875
2193.95707	10274.2875
2196.88948	10258.4875
2199.82001	10237.5875
2202.74867	10208.8875
2205.67545	10216.1875
2208.60037	10174.4875
2211.52341	10161.7875
2214.44458	10167.6875
2217.36388	10149.3875
2220.28132	10108.1875
2223.1969	10088.4875
2226.11061	10069.1875
2229.02246	10066.8875
2231.93245	10041.5875
2234.84058	10032.3875
2237.74686	10037.5875
2240.65128	10018.3875
2243.55385	10000.3875
2246.45456	9996.4875
2249.35343	9969.1875
2252.25044	9992.5875
2255.14561	9928.0875
2258.03893	9922.7875
2260.93041	9874.6875
2263.82004	9877.5875
2266.70783	9838.0875
2269.59378	9804.7875
2272.4779	9797.3875
2275.36017	9760.2875
2278.24061	9746.3875
2281.11922	9748.9875
2283.996	9689.1875
2286.87094	9666.6875
2289.74405	9668.1875
2292.61534	9642.7875
2295.4848	9640.3875
2298.35243	9634.6875
2301.21824	9623.1875
2304.08223	9639.9875
2306.94439	9613.2875
2309.80474	9598.1875
2312.66327	9619.8875
2315.51999	9572.9875
2318.37489	9547.3875
2321.22797	9570.5875
2324.07925	9546.7875
2326.92871	9538.0875
2329.77637	9531.2875
2332.62222	9509.2875
2335.46626	9500.7875
2338.3085	9458.5875
2341.14893	9480.9875
2343.98756	9479.0875
2346.8244	9478.1875
2349.65943	9464.3875
2352.49267	9483.0875
2355.32411	9468.0875
2358.15376	9464.7875
2360.98161	9488.2875
2363.80768	9433.0875
2366.63195	9458.5875
2369.45444	9459.0875
2372.27514	9457.1875
2375.09405	9425.6875
2377.91118	9423.9875
2380.72652	9388.2875
2383.54009	9360.0875
2386.35187	9330.4875
2389.16188	9328.5875
2391.97011	9280.4875
2394.77657	9263.2875
2397.58125	9252.5875
2400.38416	9235.6875
2403.18529	9213.4875
2405.98466	9203.1875
2408.78226	9183.8875
2411.57809	9185.2875
2414.37216	9162.0875
2417.16446	9163.2875
2419.955	9128.1875
2422.74378	9154.8875
2425.5308	9108.1875
2428.31606	9101.9875
2431.09956	9119.0875
2433.88131	9097.4875
2436.6613	9096.0875
2439.43954	9098.1875
2442.21603	9122.9875
2444.99077	9097.0875
2447.76377	9118.0875
2450.53501	9095.9875
2453.30451	9094.4875
2456.07226	9101.9875
2458.83827	9097.9875
2461.60254	9091.4875
2464.36507	9076.9875
2467.12586	9063.8875
2469.88492	9041.3875
2472.64224	9060.7875
2475.39782	9041.6875
2478.15167	9054.5875
2480.90379	9056.2875
2483.65417	9054.8875
2486.40283	9048.4875
2489.14976	9036.1875
2491.89497	9043.1875
2494.63845	9032.8875
2497.3802	9024.4875
2500.12024	9059.2875
2502.85855	9048.6875
2505.59514	9020.9875
2508.33002	9004.0875
2511.06318	8986.3875
2513.79462	8958.4875
2516.52435	8969.7875
2519.25237	8950.2875
2521.97867	8929.6875
2524.70327	8943.5875
2527.42616	8921.4875
2530.14734	8906.4875
2532.86681	8887.5875
2535.58458	8899.4875
2538.30065	8862.7875
2541.01501	8882.5875
2543.72768	8870.8875
2546.43864	8860.0875
2549.14791	8833.1875
2551.85548	8840.1875
2554.56136	8836.1875
2557.26554	8800.6875
2559.96803	8805.1875
2562.66883	8799.3875
2565.36794	8796.4875
2568.06536	8805.0875
2570.7611	8787.1875
2573.45514	8753.2875
2576.14751	8751.4875
2578.83819	8720.1875
2581.52719	8732.6875
2584.21451	8714.5875
2586.90015	8688.9875
2589.58411	8669.2875
2592.2664	8670.1875
2594.94701	8625.2875
2597.62594	8631.5875
2600.30321	8619.8875
2602.9788	8610.7875
2605.65273	8586.6875
2608.32498	8607.9875
2610.99557	8607.5875
2613.66449	8615.4875
2616.33175	8585.0875
2618.99734	8578.9875
2621.66128	8592.4875
2624.32355	8585.3875
2626.98416	8558.7875
2629.64311	8560.3875
2632.30041	8536.8875
2634.95605	8527.9875
2637.61004	8520.8875
2640.26238	8512.9875
2642.91306	8523.7875
2645.56209	8529.2875
2648.20948	8512.4875
2650.85521	8511.3875
2653.4993	8525.4875
2656.14175	8528.5875
2658.78255	8525.2875
2661.42171	8517.0875
2664.05923	8557.3875
2666.6951	8541.8875
2669.32934	8542.6875
2671.96194	8532.7875
2674.59291	8529.8875
2677.22224	8555.6875
2679.84993	8539.7875
2682.476	8532.6875
2685.10043	8526.3875
2687.72324	8539.2875
2690.34441	8524.6875
2692.96396	8527.6875
2695.58188	8555.3875
2698.19818	8543.2875
2700.81285	8547.9875
2703.4259	8526.2875
2706.03733	8520.5875
2708.64714	8518.4875
2711.25533	8526.9875
2713.86191	8500.9875
2716.46687	8535.6875
2719.07021	8518.9875
2721.67194	8529.3875
2724.27206	8539.1875
2726.87057	8530.6875
2729.46747	8510.9875
2732.06276	8543.2875
2734.65644	8555.3875
2737.24852	8517.1875
2739.83899	8528.1875
2742.42786	8522.1875
2745.01513	8479.7875
2747.60079	8484.1875
2750.18486	8481.1875
2752.76733	8488.0875
2755.3482	8468.3875
2757.92747	8468.1875
2760.50515	8477.5875
2763.08123	8480.2875
2765.65573	8443.8875
2768.22863	8441.1875
2770.79994	8410.8875
2773.36967	8420.9875
2775.9378	8410.1875
2778.50435	8403.4875
2781.06932	8399.4875
2783.6327	8389.1875
2786.1945	8381.9875
2788.75471	8364.9875
2791.31335	8350.1875
2793.87041	8341.4875
2796.42589	8330.5875
2798.97979	8323.9875
2801.53212	8316.8875
2804.08288	8322.4875
2806.63206	8312.4875
2809.17967	8296.4875
2811.72571	8275.9875
2814.27018	8275.5875
2816.81308	8250.5875
2819.35442	8243.4875
2821.89419	8208.5875
2824.43239	8202.4875
2826.96904	8211.1875
2829.50412	8212.5875
2832.03763	8183.1875
2834.56959	8189.3875
2837.1	8176.0875
2839.62884	8183.0875
2842.15613	8172.1875
2844.68186	8179.2875
2847.20604	8166.1875
2849.72867	8161.1875
2852.24974	8157.3875
2854.76927	8161.0875
2857.28724	8138.0875
2859.80367	8126.0875
2862.31855	8144.4875
2864.83189	8129.1875
2867.34368	8116.6875
2869.85393	8110.6875
2872.36264	8147.9875
2874.8698	8122.0875
2877.37543	8130.8875
2879.87952	8101.9875
2882.38207	8113.7875
2884.88308	8112.5875
2887.38256	8116.2875
2889.88051	8116.2875
2892.37692	8094.5875
2894.8718	8087.1875
2897.36515	8105.3875
2899.85698	8085.1875
2902.34727	8113.6875
2904.83604	8101.7875
2907.32328	8129.1875
2909.809	8103.7875
2912.29319	8108.1875
2914.77587	8087.7875
2917.25702	8119.6875
2919.73665	8079.7875
2922.21476	8093.7875
2924.69136	8095.1875
2927.16644	8100.3875
2929.64	8082.8875
2932.11205	8068.4875
2934.58258	8029.6875
2937.05161	8044.0875
2939.51912	8064.7875
2941.98513	8040.1875
2944.44962	8010.5875
2946.91261	7985.9875
2949.37409	7984.0875
2951.83407	7978.3875
2954.29254	7981.1875
2956.74951	7955.4875
2959.20498	7939.9875
2961.65895	7926.8875
2964.11142	7936.4875
2966.56239	7885.9875
2969.01186	7871.6875
2971.45984	7864.1875
2973.90632	7854.1875
2976.35131	7842.4875
2978.7948	7810.3875
2981.23681	7803.1875
2983.67732	7774.9875
2986.11635	7759.1875
2988.55388	7736.4875
2990.98993	7716.8875
2993.4245	7683.9875
2995.85758	7672.1875
2998.28917	7643.9875
3000.71928	7651.7875
3003.14791	7628.3875
3005.57506	7642.3875
3008.00073	7592.1875
3010.42493	7611.5875
3012.84764	7570.4875
3015.26888	7566.5875
3017.68865	7573.2875
3020.10694	7541.1875
3022.52376	7506.2875
3024.9391	7503.2875
3027.35298	7499.8875
3029.76539	7496.3875
3032.17632	7466.9875
3034.5858	7459.0875
3036.9938	7455.2875
3039.40034	7435.3875
3041.80542	7420.4875
3044.20903	7409.4875
3046.61118	7367.8875
3049.01187	7372.4875
3051.4111	7373.7875
3053.80888	7349.2875
3056.20519	7338.3875
3058.60005	7320.5875
3060.99345	7324.9875
3063.3854	7298.6875
3065.7759	7286.3875
3068.16494	7279.5875
3070.55254	7237.6875
3072.93868	7224.7875
3075.32338	7204.2875
3077.70662	7202.2875
3080.08842	7206.6875
3082.46878	7188.5875
3084.84769	7149.3875
3087.22515	7163.7875
3089.60118	7165.5875
3091.97576	7121.5875
3094.3489	7152.4875
3096.72061	7126.7875
3099.09087	7113.1875
3101.4597	7099.6875
3103.82709	7097.2875
3106.19305	7075.0875
3108.55757	7062.5875
3110.92066	7044.4875
3113.28232	7042.0875
3115.64255	7017.2875
3118.00134	7021.5875
3120.35871	7008.0875
3122.71466	6983.1875
3125.06917	6977.2875
3127.42226	6970.0875
3129.77393	6956.4875
3132.12417	6947.5875
3134.47299	6961.9875
3136.82039	6972.7875
3139.16636	6964.4875
3141.51092	6959.8875
3143.85406	6948.6875
3146.19579	6954.0875
3148.53609	6945.4875
3150.87499	6942.6875
3153.21246	6949.8875
3155.54853	6946.7875
3157.88318	6942.8875
3160.21642	6927.9875
3162.54826	6912.9875
3164.87868	6905.0875
3167.2077	6901.4875
3169.5353	6904.8875
3171.86151	6898.3875
3174.18631	6874.4875
3176.5097	6908.3875
3178.83169	6872.4875
3181.15228	6878.3875
3183.47147	6871.6875
3185.78926	6849.7875
3188.10565	6852.1875
3190.42065	6860.4875
3192.73424	6849.4875
3195.04645	6849.1875
3197.35725	6848.4875
3199.66667	6832.2875
3201.97469	6846.3875
3204.28132	6839.1875
3206.58656	6849.1875
3208.8904	6835.9875
3211.19287	6847.4875
3213.49394	6821.7875
3215.79363	6828.0875
3218.09193	6824.5875
3220.38884	6828.9875
3222.68438	6815.1875
3224.97853	6781.7875
3227.2713	6801.0875
3229.56269	6782.9875
3231.8527	6781.4875
3234.14133	6768.5875
3236.42858	6747.5875
3238.71446	6733.2875
3240.99896	6737.6875
3243.28209	6741.1875
3245.56384	6739.2875
3247.84423	6728.2875
3250.12324	6710.3875
3252.40088	6695.0875
3254.67715	6683.6875
3256.95205	6659.9875
3259.22558	6656.2875
3261.49775	6652.4875
3263.76855	6631.7875
3266.03799	6614.2875
3268.30606	6588.9875
3270.57277	6598.2875
3272.83812	6595.0875
3275.10211	6562.4875
3277.36474	6571.2875
3279.62601	6548.4875
3281.88593	6554.2875
3284.14448	6575.1875
3286.40168	6572.9875
3288.65753	6561.3875
3290.91202	6545.9875
3293.16516	6531.5875
3295.41695	6497.8875
3297.66738	6487.5875
3299.91647	6455.8875
3302.16421	6421.4875
3304.4106	6408.4875
3306.65564	6362.1875
3308.89933	6334.2875
3311.14169	6297.3875
3313.38269	6234.8875
3315.62236	6184.8875
3317.86068	6142.7875
3320.09766	6071.9875
3322.3333	6027.0875
3324.5676	6017.7875
3326.80056	5904.2875
3329.03219	5894.8875
3331.26248	2.7875
3333.49143	-1.2125
3335.71905	0.2875
