Data from AgNP_FTO_APTES_UA_100uM_CRN_2uM_R6G_10uM_NaF_0.1M_Addition_RamanShift__31__14-21-00-330.txt Node

Date: Thu Mar 24 14:21:00 GMT 2022
User: TCL
Spectrometer: QEP01345
Trigger mode: 4
Integration Time (sec): 7.000000E0
Scans to average: 10
Electric dark correction enabled: true
Nonlinearity correction enabled: false
Boxcar width: 0
XAxis mode: Raman Shifts
Number of Pixels in Spectrum: 1044
>>>>>Begin Spectral Data<<<<<
46.04893	-0.4625
50.45542	1.1375
54.85868	0.3375
59.25871	-0.3625
63.6555	41.3375
68.04907	44.6375
72.43941	45.3375
76.82654	45.7375
81.21044	47.8375
85.59113	49.6375
89.96862	54.3375
94.34289	51.7375
98.71396	55.2375
103.08183	53.3375
107.4465	55.8375
111.80798	57.7375
116.16626	58.5375
120.52136	62.4375
124.87327	63.0375
129.222	68.2375
133.56755	73.9375
137.90993	76.7375
142.24913	85.3375
146.58517	92.6375
150.91804	107.3375
155.24774	134.9375
159.57429	168.6375
163.89768	216.4375
168.21792	287.7375
172.53501	386.3375
176.84895	553.2375
181.15975	770.0375
185.46741	1080.0375
189.77193	1487.1375
194.07331	2012.1375
198.37157	2624.6375
202.6667	3281.5375
206.9587	3936.8375
211.24758	4653.5375
215.53334	5436.0375
219.81599	6319.7375
224.09553	7368.5375
228.37195	8538.7375
232.64527	9767.5375
236.91549	10909.9375
241.18261	11822.7375
245.44663	12442.3375
249.70755	12890.8375
253.96539	13242.2375
258.22014	13559.5375
262.4718	13792.1375
266.72039	13863.1375
270.96589	13737.2375
275.20832	13343.1375
279.44768	12902.1375
283.68397	12438.0375
287.91719	12248.7375
292.14735	12414.5375
296.37445	13091.0375
300.59849	14219.4375
304.81948	15703.0375
309.03742	16929.2375
313.25231	17280.6375
317.46415	16241.8375
321.67296	14294.4375
325.87872	12455.1375
330.08145	11540.9375
334.28114	11458.4375
338.47781	11811.2375
342.67145	12402.2375
346.86207	13365.5375
351.04966	14821.1375
355.23424	16467.6375
359.4158	17685.5375
363.59435	18059.2375
367.76989	17883.8375
371.94243	17433.5375
376.11196	16941.2375
380.27849	16492.4375
384.44203	15977.0375
388.60257	15437.1375
392.76012	15068.6375
396.91468	15134.4375
401.06626	15607.9375
405.21485	15956.7375
409.36047	15355.7375
413.50311	13814.1375
417.64277	12282.5375
421.77947	11356.4375
425.9132	10926.9375
430.04396	10801.9375
434.17176	10822.5375
438.2966	11026.2375
442.41849	11475.4375
446.53742	11963.0375
450.6534	12382.7375
454.76644	12577.1375
458.87653	12424.4375
462.98368	12113.5375
467.08789	11738.8375
471.18916	11309.2375
475.2875	10835.1375
479.38291	10359.2375
483.4754	10044.5375
487.56496	9830.8375
491.6516	9716.8375
495.73531	9702.2375
499.81612	9823.4375
503.89401	10075.9375
507.96899	10380.3375
512.04106	10801.0375
516.11023	11277.4375
520.1765	11603.9375
524.23987	11643.0375
528.30034	11389.6375
532.35792	11080.6375
536.41261	10689.1375
540.46441	10221.1375
544.51333	9897.3375
548.55936	9966.2375
552.60252	10377.9375
556.64279	10883.9375
560.6802	11186.1375
564.71473	11735.5375
568.7464	12937.7375
572.7752	13426.5375
576.80114	12257.4375
580.82422	10890.1375
584.84444	10308.9375
588.86181	10148.1375
592.87633	10212.3375
596.888	10452.8375
600.89682	11276.7375
604.9028	14377.7375
608.90594	22770.7375
612.90624	33987.1375
616.90371	32804.0375
620.89834	18848.0375
624.89015	11897.4375
628.87913	10659.9375
632.86528	11051.2375
636.84862	11632.6375
640.82913	11186.3375
644.80683	9987.3375
648.78172	9179.8375
652.75379	9257.0375
656.72306	10188.2375
660.68952	11350.7375
664.65319	10999.2375
668.61405	9671.2375
672.57211	9008.6375
676.52738	8951.1375
680.47986	8899.8375
684.42955	8663.1375
688.37646	8537.8375
692.32058	8596.7375
696.26192	8739.4375
700.20048	9014.1375
704.13626	9179.1375
708.06928	9116.9375
711.99952	9009.8375
715.927	8978.7375
719.85171	9165.7375
723.77365	9234.2375
727.69284	9149.7375
731.60928	8986.0375
735.52295	8928.6375
739.43388	8985.4375
743.34206	9050.9375
747.24749	9063.3375
751.15017	9103.7375
755.05012	9442.3375
758.94733	10663.9375
762.8418	13694.5375
766.73354	18522.6375
770.62254	22972.5375
774.50882	25194.5375
778.39237	24055.8375
782.27321	19301.4375
786.15132	14111.0375
790.02671	11085.4375
793.89938	9749.3375
797.76935	9194.4375
801.6366	8980.7375
805.50115	8843.5375
809.36299	8787.9375
813.22213	8728.3375
817.07857	8703.5375
820.93231	8693.3375
824.78336	8810.9375
828.63172	8964.8375
832.47738	9010.3375
836.32036	8874.4375
840.16066	8682.0375
843.99827	8549.0375
847.8332	8473.2375
851.66546	8478.5375
855.49504	8491.9375
859.32195	8471.0375
863.1462	8399.8375
866.96777	8343.4375
870.78668	8341.8375
874.60293	8414.8375
878.41652	8519.9375
882.22745	8673.0375
886.03573	8780.8375
889.84136	8744.1375
893.64433	8673.4375
897.44466	8660.0375
901.24235	8693.5375
905.0374	8604.7375
908.8298	8473.1375
912.61957	8327.9375
916.40671	8304.6375
920.19121	8387.2375
923.97308	8569.8375
927.75233	8910.6375
931.52895	9337.0375
935.30295	9183.5375
939.07433	8530.1375
942.84309	8036.5375
946.60924	7761.2375
950.37278	7603.4375
954.13371	7562.2375
957.89203	7516.8375
961.64774	7504.1375
965.40086	7465.9375
969.15137	7456.9375
972.89929	7430.6375
976.64461	7422.8375
980.38733	7419.4375
984.12747	7425.8375
987.86502	7503.4375
991.59999	7573.3375
995.33237	7700.1375
999.06217	7903.5375
1002.78939	8230.1375
1006.51404	8566.4375
1010.23611	8882.6375
1013.95561	8980.6375
1017.67255	8930.0375
1021.38692	8721.2375
1025.09872	8455.6375
1028.80796	8278.4375
1032.51465	8335.8375
1036.21877	8477.2375
1039.92035	8604.9375
1043.61937	8704.8375
1047.31584	8762.3375
1051.00976	8729.8375
1054.70114	8614.0375
1058.38998	8543.8375
1062.07627	8560.4375
1065.76003	8597.3375
1069.44126	8669.3375
1073.11995	8902.5375
1076.79611	9240.4375
1080.46974	9856.5375
1084.14085	10618.0375
1087.80943	11323.6375
1091.47549	11488.1375
1095.13903	10960.1375
1098.80005	10129.8375
1102.45857	9589.1375
1106.11456	9479.2375
1109.76805	9751.8375
1113.41903	10477.5375
1117.06751	11566.9375
1120.71348	13082.7375
1124.35696	14817.9375
1127.99793	15835.2375
1131.63641	14929.4375
1135.2724	13016.9375
1138.90589	11519.7375
1142.5369	10624.7375
1146.16542	10071.7375
1149.79145	9758.9375
1153.415	9660.5375
1157.03607	9772.8375
1160.65467	10143.8375
1164.27079	10839.4375
1167.88443	11947.1375
1171.49561	13795.9375
1175.10432	16886.4375
1178.71056	21015.5375
1182.31434	24166.3375
1185.91565	24669.2375
1189.51451	23167.7375
1193.11091	20649.8375
1196.70485	18047.9375
1200.29634	16286.8375
1203.88538	14968.6375
1207.47197	13232.9375
1211.05612	11698.6375
1214.63782	10803.1375
1218.21708	10422.6375
1221.79391	10309.9375
1225.36829	10298.7375
1228.94024	10244.5375
1232.50976	10184.7375
1236.07685	10156.9375
1239.6415	10267.5375
1243.20374	10448.1375
1246.76355	10642.4375
1250.32093	10826.5375
1253.8759	11213.6375
1257.42845	11839.0375
1260.97859	12630.9375
1264.52631	13504.0375
1268.07163	14301.5375
1271.61453	14872.9375
1275.15503	15080.6375
1278.69312	15059.2375
1282.22882	15261.7375
1285.76211	15971.4375
1289.29301	16958.3375
1292.82151	17915.3375
1296.34761	18923.1375
1299.87133	20756.7375
1303.39266	24290.3375
1306.9116	29879.8375
1310.42815	35681.3375
1313.94233	37629.8375
1317.45412	34276.2375
1320.96354	28774.7375
1324.47058	23695.8375
1327.97525	19907.1375
1331.47754	17777.8375
1334.97747	17082.2375
1338.47502	17507.5375
1341.97022	18976.9375
1345.46305	21550.4375
1348.95352	24998.8375
1352.44163	29232.1375
1355.92738	35550.2375
1359.41078	45184.0375
1362.89183	52839.2375
1366.37053	48467.2375
1369.84688	36525.4375
1373.32088	26908.7375
1376.79254	21511.5375
1380.26186	18548.6375
1383.72883	16638.4375
1387.19347	15157.7375
1390.65578	13814.9375
1394.11575	12831.1375
1397.57339	12327.8375
1401.0287	12131.3375
1404.48168	12064.5375
1407.93234	12128.4375
1411.38068	12325.2375
1414.82669	12599.1375
1418.27039	12749.9375
1421.71177	12579.6375
1425.15083	12297.1375
1428.58758	12360.0375
1432.02203	12729.0375
1435.45416	13003.4375
1438.88399	12946.7375
1442.31151	12820.5375
1445.73673	12898.2375
1449.15965	13020.1375
1452.58027	12918.8375
1455.9986	12599.6375
1459.41463	12490.7375
1462.82837	12714.0375
1466.23982	13304.2375
1469.64898	13834.4375
1473.05586	14126.2375
1476.46045	14292.3375
1479.86276	14675.8375
1483.26279	15372.9375
1486.66054	16376.6375
1490.05602	17766.2375
1493.44922	19843.6375
1496.84016	23231.9375
1500.22882	28574.4375
1503.61521	36167.4375
1506.99934	44833.9375
1510.38121	51728.5375
1513.76081	52675.5375
1517.13816	46286.0375
1520.51324	36259.2375
1523.88607	27560.3375
1527.25665	22194.8375
1530.62498	19268.9375
1533.99105	17553.2375
1537.35488	16422.2375
1540.71647	15846.7375
1544.07581	15621.9375
1547.4329	15689.5375
1550.78776	15855.4375
1554.14038	16109.3375
1557.49077	16479.5375
1560.83892	17186.5375
1564.18484	18456.0375
1567.52853	20035.3375
1570.86999	21220.3375
1574.20922	21767.4375
1577.54624	21288.8375
1580.88103	18993.7375
1584.2136	16006.3375
1587.54395	14203.7375
1590.87208	13884.0375
1594.19801	14982.0375
1597.52172	16771.2375
1600.84321	17621.1375
1604.16251	16856.0375
1607.47959	15482.4375
1610.79447	13989.8375
1614.10715	12468.7375
1617.41763	11272.9375
1620.7259	10548.2375
1624.03199	10268.1375
1627.33587	10353.2375
1630.63757	10813.1375
1633.93707	11775.1375
1637.23439	13457.1375
1640.52951	16390.6375
1643.82246	21040.3375
1647.11321	27079.0375
1650.40179	31255.2375
1653.68819	29878.9375
1656.97241	23789.5375
1660.25446	17397.8375
1663.53433	13161.0375
1666.81203	10799.2375
1670.08756	9506.5375
1673.36092	8758.0375
1676.63211	8298.8375
1679.90115	7966.8375
1683.16801	7775.2375
1686.43272	7612.4375
1689.69527	7504.2375
1692.95567	7423.6375
1696.2139	7388.7375
1699.46999	7324.6375
1702.72392	7328.3375
1705.97571	7305.1375
1709.22535	7278.7375
1712.47284	7310.4375
1715.71819	7339.4375
1718.96139	7289.5375
1722.20246	7281.7375
1725.44139	7158.7375
1728.67818	7046.9375
1731.91284	6943.9375
1735.14537	6846.7375
1738.37576	6781.9375
1741.60403	6737.5375
1744.83017	6703.8375
1748.05418	6684.1375
1751.27607	6647.2375
1754.49584	6613.4375
1757.71349	6576.7375
1760.92903	6568.4375
1764.14244	6524.9375
1767.35375	6480.6375
1770.56294	6439.9375
1773.77002	6406.6375
1776.97499	6327.0375
1780.17785	6309.6375
1783.37861	6241.6375
1786.57727	6236.2375
1789.77382	6205.9375
1792.96828	6189.1375
1796.16064	6188.1375
1799.3509	6164.0375
1802.53907	6164.2375
1805.72514	6129.3375
1808.90913	6106.9375
1812.09102	6061.2375
1815.27083	6040.4375
1818.44856	6028.2375
1821.6242	5998.5375
1824.79776	5965.9375
1827.96924	5939.6375
1831.13864	5944.2375
1834.30597	5929.6375
1837.47122	5878.1375
1840.6344	5875.3375
1843.7955	5868.2375
1846.95454	5846.7375
1850.11151	5859.0375
1853.26642	5840.2375
1856.41926	5831.3375
1859.57004	5817.7375
1862.71876	5846.4375
1865.86542	5837.3375
1869.01003	5838.1375
1872.15258	5829.2375
1875.29308	5842.3375
1878.43152	5828.8375
1881.56792	5836.3375
1884.70227	5822.1375
1887.83457	5824.5375
1890.96482	5804.2375
1894.09304	5809.6375
1897.21921	5823.4375
1900.34335	5807.6375
1903.46544	5789.7375
1906.58551	5805.2375
1909.70353	5808.0375
1912.81953	5784.6375
1915.93349	5799.8375
1919.04543	5792.0375
1922.15534	5755.6375
1925.26322	5730.1375
1928.36908	5714.1375
1931.47292	5693.0375
1934.57473	5632.0375
1937.67453	5631.1375
1940.77232	5602.5375
1943.86808	5579.0375
1946.96184	5549.9375
1950.05358	5547.1375
1953.14331	5534.2375
1956.23103	5508.6375
1959.31675	5515.3375
1962.40046	5505.8375
1965.48217	5510.7375
1968.56188	5528.9375
1971.63959	5535.8375
1974.7153	5523.9375
1977.78901	5486.4375
1980.86073	5444.9375
1983.93046	5416.8375
1986.99819	5380.7375
1990.06394	5351.6375
1993.1277	5308.6375
1996.18947	5285.2375
1999.24925	5251.2375
2002.30706	5234.2375
2005.36288	5212.7375
2008.41672	5201.2375
2011.46859	5170.6375
2014.51848	5144.6375
2017.56639	5152.5375
2020.61233	5121.2375
2023.6563	5107.3375
2026.6983	5090.2375
2029.73833	5074.2375
2032.7764	5057.2375
2035.8125	5037.8375
2038.84664	5037.1375
2041.87881	5026.5375
2044.90903	5029.4375
2047.93729	5024.9375
2050.96359	4992.5375
2053.98794	4974.5375
2057.01034	4971.0375
2060.03078	4945.2375
2063.04927	4955.7375
2066.06582	4924.4375
2069.08042	4915.5375
2072.09307	4890.2375
2075.10378	4904.1375
2078.11255	4905.6375
2081.11938	4906.9375
2084.12426	4912.6375
2087.12722	4902.1375
2090.12824	4916.1375
2093.12732	4902.5375
2096.12447	4904.7375
2099.11969	4902.5375
2102.11299	4897.6375
2105.10435	4914.0375
2108.09379	4902.8375
2111.08131	4913.4375
2114.0669	4935.1375
2117.05057	4926.6375
2120.03233	4931.9375
2123.01216	4953.9375
2125.99008	4983.1375
2128.96609	4973.8375
2131.94018	4967.4375
2134.91236	4965.7375
2137.88263	4967.6375
2140.851	4941.9375
2143.81746	4935.0375
2146.78201	4902.7375
2149.74466	4907.8375
2152.7054	4892.8375
2155.66425	4890.6375
2158.6212	4890.5375
2161.57625	4879.1375
2164.52941	4853.9375
2167.48067	4840.2375
2170.43004	4852.6375
2173.37752	4865.2375
2176.32311	4849.7375
2179.26681	4860.6375
2182.20863	4857.1375
2185.14856	4863.9375
2188.08661	4849.5375
2191.02278	4847.1375
2193.95707	4820.0375
2196.88948	4815.5375
2199.82001	4800.0375
2202.74867	4780.4375
2205.67545	4785.9375
2208.60037	4790.8375
2211.52341	4774.5375
2214.44458	4779.9375
2217.36388	4764.0375
2220.28132	4764.2375
2223.1969	4743.9375
2226.11061	4732.9375
2229.02246	4712.4375
2231.93245	4707.1375
2234.84058	4692.2375
2237.74686	4667.5375
2240.65128	4680.3375
2243.55385	4665.3375
2246.45456	4672.1375
2249.35343	4689.5375
2252.25044	4694.9375
2255.14561	4698.1375
2258.03893	4717.8375
2260.93041	4738.1375
2263.82004	4744.2375
2266.70783	4742.9375
2269.59378	4708.3375
2272.4779	4698.9375
2275.36017	4686.3375
2278.24061	4690.0375
2281.11922	4671.5375
2283.996	4663.9375
2286.87094	4625.4375
2289.74405	4609.8375
2292.61534	4597.2375
2295.4848	4581.8375
2298.35243	4564.1375
2301.21824	4562.1375
2304.08223	4556.3375
2306.94439	4549.2375
2309.80474	4552.5375
2312.66327	4551.5375
2315.51999	4539.2375
2318.37489	4535.8375
2321.22797	4525.2375
2324.07925	4516.3375
2326.92871	4537.4375
2329.77637	4530.6375
2332.62222	4517.2375
2335.46626	4515.5375
2338.3085	4517.3375
2341.14893	4549.8375
2343.98756	4526.6375
2346.8244	4536.0375
2349.65943	4554.9375
2352.49267	4573.1375
2355.32411	4602.9375
2358.15376	4613.1375
2360.98161	4633.9375
2363.80768	4667.0375
2366.63195	4681.5375
2369.45444	4693.8375
2372.27514	4693.4375
2375.09405	4684.5375
2377.91118	4663.1375
2380.72652	4608.9375
2383.54009	4595.7375
2386.35187	4575.0375
2389.16188	4527.7375
2391.97011	4498.6375
2394.77657	4488.6375
2397.58125	4452.2375
2400.38416	4429.8375
2403.18529	4402.1375
2405.98466	4386.3375
2408.78226	4374.2375
2411.57809	4363.6375
2414.37216	4366.1375
2417.16446	4359.4375
2419.955	4349.5375
2422.74378	4360.0375
2425.5308	4342.9375
2428.31606	4346.1375
2431.09956	4370.7375
2433.88131	4363.0375
2436.6613	4366.3375
2439.43954	4387.0375
2442.21603	4383.5375
2444.99077	4400.7375
2447.76377	4406.7375
2450.53501	4416.0375
2453.30451	4426.9375
2456.07226	4422.6375
2458.83827	4419.6375
2461.60254	4408.9375
2464.36507	4410.4375
2467.12586	4413.6375
2469.88492	4418.3375
2472.64224	4429.5375
2475.39782	4429.8375
2478.15167	4452.6375
2480.90379	4472.5375
2483.65417	4503.2375
2486.40283	4535.8375
2489.14976	4563.9375
2491.89497	4561.3375
2494.63845	4583.3375
2497.3802	4569.4375
2500.12024	4552.7375
2502.85855	4531.3375
2505.59514	4479.2375
2508.33002	4445.8375
2511.06318	4398.7375
2513.79462	4367.7375
2516.52435	4315.2375
2519.25237	4299.4375
2521.97867	4272.1375
2524.70327	4250.3375
2527.42616	4245.1375
2530.14734	4242.8375
2532.86681	4223.0375
2535.58458	4238.5375
2538.30065	4218.3375
2541.01501	4228.8375
2543.72768	4239.2375
2546.43864	4251.0375
2549.14791	4249.2375
2551.85548	4264.1375
2554.56136	4257.8375
2557.26554	4253.7375
2559.96803	4245.8375
2562.66883	4248.4375
2565.36794	4251.6375
2568.06536	4242.9375
2570.7611	4232.8375
2573.45514	4227.1375
2576.14751	4200.3375
2578.83819	4189.0375
2581.52719	4177.6375
2584.21451	4169.2375
2586.90015	4154.3375
2589.58411	4159.7375
2592.2664	4142.6375
2594.94701	4137.4375
2597.62594	4135.7375
2600.30321	4130.0375
2602.9788	4122.8375
2605.65273	4131.0375
2608.32498	4143.6375
2610.99557	4136.5375
2613.66449	4127.7375
2616.33175	4141.1375
2618.99734	4148.3375
2621.66128	4141.6375
2624.32355	4138.7375
2626.98416	4141.6375
2629.64311	4112.7375
2632.30041	4103.2375
2634.95605	4108.4375
2637.61004	4096.8375
2640.26238	4070.0375
2642.91306	4065.9375
2645.56209	4055.1375
2648.20948	4052.7375
2650.85521	4051.7375
2653.4993	4055.8375
2656.14175	4061.0375
2658.78255	4070.0375
2661.42171	4066.6375
2664.05923	4089.1375
2666.6951	4098.2375
2669.32934	4117.4375
2671.96194	4101.0375
2674.59291	4112.1375
2677.22224	4122.1375
2679.84993	4124.3375
2682.476	4120.4375
2685.10043	4116.0375
2687.72324	4119.9375
2690.34441	4099.7375
2692.96396	4115.3375
2695.58188	4099.2375
2698.19818	4098.5375
2700.81285	4088.8375
2703.4259	4095.0375
2706.03733	4100.1375
2708.64714	4100.7375
2711.25533	4102.2375
2713.86191	4109.3375
2716.46687	4136.8375
2719.07021	4112.7375
2721.67194	4114.9375
2724.27206	4123.2375
2726.87057	4120.3375
2729.46747	4112.7375
2732.06276	4107.3375
2734.65644	4089.4375
2737.24852	4071.7375
2739.83899	4057.9375
2742.42786	4059.9375
2745.01513	4034.0375
2747.60079	4032.9375
2750.18486	4008.0375
2752.76733	4005.9375
2755.3482	4007.0375
2757.92747	3997.8375
2760.50515	3993.4375
2763.08123	3980.1375
2765.65573	3971.8375
2768.22863	3980.2375
2770.79994	3979.9375
2773.36967	3964.8375
2775.9378	3960.4375
2778.50435	3963.8375
2781.06932	3963.1375
2783.6327	3963.8375
2786.1945	3969.1375
2788.75471	3976.3375
2791.31335	3970.3375
2793.87041	3979.3375
2796.42589	3976.1375
2798.97979	3990.0375
2801.53212	3987.2375
2804.08288	4000.4375
2806.63206	4013.4375
2809.17967	4022.4375
2811.72571	4026.3375
2814.27018	4058.4375
2816.81308	4054.2375
2819.35442	4069.8375
2821.89419	4098.6375
2824.43239	4098.1375
2826.96904	4104.7375
2829.50412	4114.0375
2832.03763	4116.2375
2834.56959	4088.9375
2837.1	4092.0375
2839.62884	4090.6375
2842.15613	4100.8375
2844.68186	4113.3375
2847.20604	4123.5375
2849.72867	4146.2375
2852.24974	4150.0375
2854.76927	4168.3375
2857.28724	4157.0375
2859.80367	4182.1375
2862.31855	4212.2375
2864.83189	4222.2375
2867.34368	4243.7375
2869.85393	4243.1375
2872.36264	4249.9375
2874.8698	4266.4375
2877.37543	4275.5375
2879.87952	4239.9375
2882.38207	4244.7375
2884.88308	4207.6375
2887.38256	4207.8375
2889.88051	4199.6375
2892.37692	4184.5375
2894.8718	4173.0375
2897.36515	4178.9375
2899.85698	4173.5375
2902.34727	4184.9375
2904.83604	4177.3375
2907.32328	4178.0375
2909.809	4148.1375
2912.29319	4138.7375
2914.77587	4142.5375
2917.25702	4119.2375
2919.73665	4111.5375
2922.21476	4096.7375
2924.69136	4084.9375
2927.16644	4084.2375
2929.64	4072.3375
2932.11205	4071.5375
2934.58258	4031.9375
2937.05161	4032.3375
2939.51912	4029.0375
2941.98513	4018.1375
2944.44962	3993.6375
2946.91261	3984.0375
2949.37409	3981.9375
2951.83407	3968.8375
2954.29254	3980.3375
2956.74951	3955.4375
2959.20498	3965.6375
2961.65895	3950.2375
2964.11142	3944.7375
2966.56239	3931.9375
2969.01186	3924.8375
2971.45984	3919.3375
2973.90632	3891.8375
2976.35131	3862.1375
2978.7948	3866.9375
2981.23681	3853.7375
2983.67732	3842.0375
2986.11635	3830.2375
2988.55388	3819.9375
2990.98993	3822.5375
2993.4245	3796.4375
2995.85758	3813.8375
2998.28917	3833.6375
3000.71928	3813.7375
3003.14791	3819.5375
3005.57506	3826.1375
3008.00073	3821.3375
3010.42493	3813.9375
3012.84764	3822.1375
3015.26888	3807.7375
3017.68865	3831.2375
3020.10694	3809.6375
3022.52376	3781.1375
3024.9391	3759.4375
3027.35298	3760.4375
3029.76539	3746.2375
3032.17632	3737.1375
3034.5858	3709.8375
3036.9938	3690.7375
3039.40034	3684.3375
3041.80542	3666.6375
3044.20903	3639.1375
3046.61118	3639.1375
3049.01187	3627.9375
3051.4111	3626.7375
3053.80888	3609.1375
3056.20519	3596.9375
3058.60005	3603.6375
3060.99345	3600.4375
3063.3854	3586.3375
3065.7759	3572.5375
3068.16494	3578.6375
3070.55254	3550.0375
3072.93868	3549.2375
3075.32338	3528.1375
3077.70662	3507.0375
3080.08842	3511.7375
3082.46878	3503.9375
3084.84769	3500.5375
3087.22515	3490.1375
3089.60118	3469.8375
3091.97576	3488.0375
3094.3489	3473.8375
3096.72061	3462.2375
3099.09087	3473.7375
3101.4597	3482.1375
3103.82709	3467.1375
3106.19305	3473.2375
3108.55757	3462.6375
3110.92066	3456.7375
3113.28232	3450.9375
3115.64255	3424.6375
3118.00134	3427.4375
3120.35871	3424.0375
3122.71466	3433.4375
3125.06917	3427.3375
3127.42226	3426.1375
3129.77393	3439.9375
3132.12417	3434.7375
3134.47299	3437.3375
3136.82039	3456.0375
3139.16636	3455.4375
3141.51092	3462.6375
3143.85406	3454.8375
3146.19579	3467.4375
3148.53609	3472.6375
3150.87499	3466.6375
3153.21246	3475.5375
3155.54853	3479.0375
3157.88318	3494.7375
3160.21642	3487.2375
3162.54826	3485.0375
3164.87868	3473.3375
3167.2077	3478.2375
3169.5353	3480.2375
3171.86151	3492.1375
3174.18631	3477.5375
3176.5097	3477.5375
3178.83169	3481.9375
3181.15228	3487.1375
3183.47147	3467.6375
3185.78926	3487.0375
3188.10565	3490.2375
3190.42065	3488.2375
3192.73424	3501.6375
3195.04645	3492.8375
3197.35725	3516.0375
3199.66667	3520.2375
3201.97469	3534.5375
3204.28132	3544.5375
3206.58656	3558.7375
3208.8904	3559.8375
3211.19287	3586.2375
3213.49394	3579.6375
3215.79363	3591.1375
3218.09193	3586.3375
3220.38884	3592.2375
3222.68438	3586.3375
3224.97853	3583.7375
3227.2713	3568.1375
3229.56269	3584.5375
3231.8527	3588.7375
3234.14133	3573.5375
3236.42858	3575.5375
3238.71446	3568.2375
3240.99896	3566.2375
3243.28209	3575.3375
3245.56384	3576.4375
3247.84423	3583.9375
3250.12324	3569.4375
3252.40088	3574.6375
3254.67715	3552.4375
3256.95205	3564.6375
3259.22558	3565.0375
3261.49775	3556.3375
3263.76855	3547.1375
3266.03799	3541.7375
3268.30606	3546.2375
3270.57277	3534.4375
3272.83812	3527.5375
3275.10211	3539.5375
3277.36474	3536.3375
3279.62601	3538.3375
3281.88593	3530.8375
3284.14448	3533.3375
3286.40168	3544.5375
3288.65753	3544.1375
3290.91202	3550.3375
3293.16516	3538.8375
3295.41695	3509.8375
3297.66738	3510.8375
3299.91647	3492.5375
3302.16421	3474.9375
3304.4106	3463.1375
3306.65564	3446.0375
3308.89933	3422.6375
3311.14169	3394.6375
3313.38269	3353.7375
3315.62236	3330.0375
3317.86068	3288.7375
3320.09766	3257.6375
3322.3333	3216.7375
3324.5676	3217.4375
3326.80056	3156.5375
3329.03219	3143.7375
3331.26248	0.9375
3333.49143	-1.3625
3335.71905	-0.2625
