Data from AgNP_FTO_APTES_UA_100uM_CRN_1uM_R6G_10uM_NaF_0.1M_Addition_RamanShift__32__12-25-30-196.txt Node

Date: Thu Mar 24 12:25:30 GMT 2022
User: TCL
Spectrometer: QEP01345
Trigger mode: 4
Integration Time (sec): 7.000000E0
Scans to average: 10
Electric dark correction enabled: true
Nonlinearity correction enabled: false
Boxcar width: 0
XAxis mode: Raman Shifts
Number of Pixels in Spectrum: 1044
>>>>>Begin Spectral Data<<<<<
46.04893	-1.0125
50.45542	0.8875
54.85868	0.0875
59.25871	-1.0125
63.6555	43.4875
68.04907	48.6875
72.43941	46.9875
76.82654	46.5875
81.21044	52.0875
85.59113	54.2875
89.96862	58.3875
94.34289	54.0875
98.71396	61.7875
103.08183	62.0875
107.4465	64.8875
111.80798	64.4875
116.16626	63.9875
120.52136	65.6875
124.87327	69.3875
129.222	76.1875
133.56755	83.2875
137.90993	87.8875
142.24913	98.4875
146.58517	107.6875
150.91804	128.4875
155.24774	153.7875
159.57429	194.4875
163.89768	252.8875
168.21792	341.0875
172.53501	462.0875
176.84895	647.2875
181.15975	903.1875
185.46741	1283.4875
189.77193	1774.8875
194.07331	2385.1875
198.37157	3116.4875
202.6667	3882.1875
206.9587	4675.3875
211.24758	5482.0875
215.53334	6416.1875
219.81599	7416.7875
224.09553	8601.2875
228.37195	9926.4875
232.64527	11331.6875
236.91549	12703.7875
241.18261	13855.5875
245.44663	14705.6875
249.70755	15309.4875
253.96539	15796.5875
258.22014	16209.8875
262.4718	16411.5875
266.72039	16476.2875
270.96589	16285.2875
275.20832	15892.6875
279.44768	15469.2875
283.68397	15112.7875
287.91719	14954.5875
292.14735	15179.9875
296.37445	15813.8875
300.59849	16932.1875
304.81948	18367.7875
309.03742	19575.3875
313.25231	19881.0875
317.46415	18865.9875
321.67296	16850.0875
325.87872	15015.4875
330.08145	14089.5875
334.28114	13982.4875
338.47781	14300.6875
342.67145	14876.9875
346.86207	15808.1875
351.04966	17280.9875
355.23424	18960.6875
359.4158	20211.3875
363.59435	20653.0875
367.76989	20496.4875
371.94243	20051.5875
376.11196	19536.3875
380.27849	19058.0875
384.44203	18447.7875
388.60257	17942.2875
392.76012	17637.3875
396.91468	17785.4875
401.06626	18354.2875
405.21485	18756.1875
409.36047	18162.4875
413.50311	16627.3875
417.64277	15091.6875
421.77947	14188.2875
425.9132	13846.9875
430.04396	13734.8875
434.17176	13799.6875
438.2966	14083.4875
442.41849	14605.1875
446.53742	15256.4875
450.6534	15800.7875
454.76644	16058.8875
458.87653	15838.2875
462.98368	15396.5875
467.08789	14956.6875
471.18916	14390.5875
475.2875	13767.5875
479.38291	13216.7875
483.4754	12891.7875
487.56496	12665.5875
491.6516	12484.6875
495.73531	12473.5875
499.81612	12609.3875
503.89401	12860.1875
507.96899	13186.4875
512.04106	13517.4875
516.11023	13878.1875
520.1765	14128.6875
524.23987	14135.1875
528.30034	13892.7875
532.35792	13548.1875
536.41261	13127.8875
540.46441	12576.0875
544.51333	12262.2875
548.55936	12398.0875
552.60252	12949.1875
556.64279	13602.2875
560.6802	13921.8875
564.71473	14498.4875
568.7464	15793.9875
572.7752	16495.7875
576.80114	15460.8875
580.82422	14247.0875
584.84444	13742.3875
588.86181	13628.2875
592.87633	13675.0875
596.888	13900.1875
600.89682	14618.8875
604.9028	17892.8875
608.90594	26759.6875
612.90624	38215.9875
616.90371	36516.3875
620.89834	21737.1875
624.89015	14471.2875
628.87913	13194.2875
632.86528	13624.1875
636.84862	14134.0875
640.82913	13581.2875
644.80683	12260.3875
648.78172	11375.9875
652.75379	11471.3875
656.72306	12541.4875
660.68952	13787.7875
664.65319	13489.0875
668.61405	12062.1875
672.57211	11372.9875
676.52738	11295.7875
680.47986	11211.5875
684.42955	10960.1875
688.37646	10781.3875
692.32058	10864.5875
696.26192	11104.5875
700.20048	11444.3875
704.13626	11719.6875
708.06928	11762.6875
711.99952	11594.0875
715.927	11525.5875
719.85171	11624.2875
723.77365	11671.1875
727.69284	11496.6875
731.60928	11253.1875
735.52295	11206.8875
739.43388	11309.1875
743.34206	11430.4875
747.24749	11501.8875
751.15017	11620.0875
755.05012	12111.8875
758.94733	13574.7875
762.8418	16998.4875
766.73354	22475.3875
770.62254	27387.1875
774.50882	29372.8875
778.39237	27643.7875
782.27321	22434.3875
786.15132	16893.6875
790.02671	13651.6875
793.89938	12203.7875
797.76935	11601.6875
801.6366	11347.4875
805.50115	11157.6875
809.36299	11059.2875
813.22213	10948.3875
817.07857	10911.9875
820.93231	10887.7875
824.78336	11010.8875
828.63172	11197.9875
832.47738	11250.4875
836.32036	11163.9875
840.16066	10969.8875
843.99827	10810.8875
847.8332	10765.2875
851.66546	10758.4875
855.49504	10770.0875
859.32195	10737.5875
863.1462	10622.9875
866.96777	10543.8875
870.78668	10521.1875
874.60293	10585.0875
878.41652	10705.9875
882.22745	10891.0875
886.03573	11013.7875
889.84136	11005.8875
893.64433	10888.2875
897.44466	10869.6875
901.24235	10923.3875
905.0374	10826.8875
908.8298	10642.5875
912.61957	10541.0875
916.40671	10619.1875
920.19121	10799.3875
923.97308	11077.9875
927.75233	11463.4875
931.52895	11718.6875
935.30295	11402.5875
939.07433	10653.9875
942.84309	10058.0875
946.60924	9791.8875
950.37278	9643.1875
954.13371	9588.7875
957.89203	9525.3875
961.64774	9514.4875
965.40086	9486.2875
969.15137	9447.8875
972.89929	9421.9875
976.64461	9415.0875
980.38733	9396.1875
984.12747	9424.1875
987.86502	9490.5875
991.59999	9606.7875
995.33237	9805.5875
999.06217	10154.3875
1002.78939	10606.7875
1006.51404	11079.3875
1010.23611	11428.7875
1013.95561	11618.2875
1017.67255	11508.3875
1021.38692	11235.5875
1025.09872	10871.5875
1028.80796	10704.8875
1032.51465	10828.7875
1036.21877	11105.4875
1039.92035	11345.1875
1043.61937	11415.5875
1047.31584	11432.1875
1051.00976	11335.0875
1054.70114	11219.3875
1058.38998	11154.8875
1062.07627	11185.5875
1065.76003	11308.9875
1069.44126	11488.6875
1073.11995	11833.2875
1076.79611	12214.0875
1080.46974	12772.7875
1084.14085	13588.5875
1087.80943	14285.7875
1091.47549	14415.1875
1095.13903	13897.1875
1098.80005	12966.0875
1102.45857	12270.2875
1106.11456	12005.6875
1109.76805	12248.0875
1113.41903	12904.3875
1117.06751	14036.6875
1120.71348	15602.3875
1124.35696	17449.3875
1127.99793	18415.9875
1131.63641	17429.1875
1135.2724	15507.4875
1138.90589	14018.5875
1142.5369	13179.1875
1146.16542	12646.5875
1149.79145	12373.7875
1153.415	12331.4875
1157.03607	12514.5875
1160.65467	12969.0875
1164.27079	13850.5875
1167.88443	15252.7875
1171.49561	17544.4875
1175.10432	21253.2875
1178.71056	26012.2875
1182.31434	29459.0875
1185.91565	30012.3875
1189.51451	28568.7875
1193.11091	26118.7875
1196.70485	23387.4875
1200.29634	21212.5875
1203.88538	19468.6875
1207.47197	17356.9875
1211.05612	15530.1875
1214.63782	14526.0875
1218.21708	14229.5875
1221.79391	14160.7875
1225.36829	14078.9875
1228.94024	13888.7875
1232.50976	13698.0875
1236.07685	13636.3875
1239.6415	13723.6875
1243.20374	13881.8875
1246.76355	14066.1875
1250.32093	14326.7875
1253.8759	14834.7875
1257.42845	15617.6875
1260.97859	16612.1875
1264.52631	17646.2875
1268.07163	18565.4875
1271.61453	19268.9875
1275.15503	19674.4875
1278.69312	19914.5875
1282.22882	20322.0875
1285.76211	21233.6875
1289.29301	22381.2875
1292.82151	23434.9875
1296.34761	24777.7875
1299.87133	27036.6875
1303.39266	31000.1875
1306.9116	37097.8875
1310.42815	43318.1875
1313.94233	45556.1875
1317.45412	42277.8875
1320.96354	36727.8875
1324.47058	31529.2875
1327.97525	27535.3875
1331.47754	25359.9875
1334.97747	24660.3875
1338.47502	25136.8875
1341.97022	26709.0875
1345.46305	29207.6875
1348.95352	32464.7875
1352.44163	36628.3875
1355.92738	43049.9875
1359.41078	52823.9875
1362.89183	59985.2875
1366.37053	55240.7875
1369.84688	43254.4875
1373.32088	33408.6875
1376.79254	27549.9875
1380.26186	24186.7875
1383.72883	22054.5875
1387.19347	20501.2875
1390.65578	19117.9875
1394.11575	18113.0875
1397.57339	17621.9875
1401.0287	17561.5875
1404.48168	17658.5875
1407.93234	17812.7875
1411.38068	18055.2875
1414.82669	18166.8875
1418.27039	17970.2875
1421.71177	17411.9875
1425.15083	16915.6875
1428.58758	16871.9875
1432.02203	17201.2875
1435.45416	17473.8875
1438.88399	17400.2875
1442.31151	17331.4875
1445.73673	17465.4875
1449.15965	17616.5875
1452.58027	17489.3875
1455.9986	17259.5875
1459.41463	17225.0875
1462.82837	17681.7875
1466.23982	18442.0875
1469.64898	19117.5875
1473.05586	19461.2875
1476.46045	19699.8875
1479.86276	20167.0875
1483.26279	20880.3875
1486.66054	22010.5875
1490.05602	23688.2875
1493.44922	26070.3875
1496.84016	29795.1875
1500.22882	35630.1875
1503.61521	43459.4875
1506.99934	51919.2875
1510.38121	58231.5875
1513.76081	58625.8875
1517.13816	52002.1875
1520.51324	41978.9875
1523.88607	33561.5875
1527.25665	28419.4875
1530.62498	25693.4875
1533.99105	24149.1875
1537.35488	23010.4875
1540.71647	22234.8875
1544.07581	21775.6875
1547.4329	21509.9875
1550.78776	21357.5875
1554.14038	21350.9875
1557.49077	21562.1875
1560.83892	22269.6875
1564.18484	23669.4875
1567.52853	25254.8875
1570.86999	26373.8875
1574.20922	26826.3875
1577.54624	26290.4875
1580.88103	23803.4875
1584.2136	20739.5875
1587.54395	19028.4875
1590.87208	19108.9875
1594.19801	20809.9875
1597.52172	23183.4875
1600.84321	24358.4875
1604.16251	23403.1875
1607.47959	21299.8875
1610.79447	18977.4875
1614.10715	16737.2875
1617.41763	15076.2875
1620.7259	14069.0875
1624.03199	13675.3875
1627.33587	13787.3875
1630.63757	14390.8875
1633.93707	15602.0875
1637.23439	17756.9875
1640.52951	21299.9875
1643.82246	26705.7875
1647.11321	33022.8875
1650.40179	36961.7875
1653.68819	34865.5875
1656.97241	28016.4875
1660.25446	21054.1875
1663.53433	16296.8875
1666.81203	13557.9875
1670.08756	12083.6875
1673.36092	11200.8875
1676.63211	10652.8875
1679.90115	10308.6875
1683.16801	10045.7875
1686.43272	9877.7875
1689.69527	9753.3875
1692.95567	9650.5875
1696.2139	9595.3875
1699.46999	9540.4875
1702.72392	9514.7875
1705.97571	9496.8875
1709.22535	9509.5875
1712.47284	9519.5875
1715.71819	9525.7875
1718.96139	9510.5875
1722.20246	9459.7875
1725.44139	9381.0875
1728.67818	9228.2875
1731.91284	9092.8875
1735.14537	8995.8875
1738.37576	8905.3875
1741.60403	8855.7875
1744.83017	8817.5875
1748.05418	8760.6875
1751.27607	8731.8875
1754.49584	8691.6875
1757.71349	8659.0875
1760.92903	8613.9875
1764.14244	8608.7875
1767.35375	8573.2875
1770.56294	8521.7875
1773.77002	8470.5875
1776.97499	8420.6875
1780.17785	8381.4875
1783.37861	8339.3875
1786.57727	8338.5875
1789.77382	8310.2875
1792.96828	8274.3875
1796.16064	8264.0875
1799.3509	8249.2875
1802.53907	8217.9875
1805.72514	8179.6875
1808.90913	8138.9875
1812.09102	8116.1875
1815.27083	8093.8875
1818.44856	8068.0875
1821.6242	8039.0875
1824.79776	8011.9875
1827.96924	7985.5875
1831.13864	7958.8875
1834.30597	7966.3875
1837.47122	7922.6875
1840.6344	7914.2875
1843.7955	7896.6875
1846.95454	7886.5875
1850.11151	7905.7875
1853.26642	7889.3875
1856.41926	7891.0875
1859.57004	7906.4875
1862.71876	7872.6875
1865.86542	7883.6875
1869.01003	7893.3875
1872.15258	7880.9875
1875.29308	7890.1875
1878.43152	7898.4875
1881.56792	7896.1875
1884.70227	7898.2875
1887.83457	7894.5875
1890.96482	7888.1875
1894.09304	7860.2875
1897.21921	7867.2875
1900.34335	7875.5875
1903.46544	7878.2875
1906.58551	7880.7875
1909.70353	7876.7875
1912.81953	7857.0875
1915.93349	7850.7875
1919.04543	7835.2875
1922.15534	7824.3875
1925.26322	7770.2875
1928.36908	7746.8875
1931.47292	7725.9875
1934.57473	7664.0875
1937.67453	7636.3875
1940.77232	7610.7875
1943.86808	7577.9875
1946.96184	7539.8875
1950.05358	7548.2875
1953.14331	7526.1875
1956.23103	7501.9875
1959.31675	7483.6875
1962.40046	7477.7875
1965.48217	7486.2875
1968.56188	7487.4875
1971.63959	7484.9875
1974.7153	7455.4875
1977.78901	7410.6875
1980.86073	7401.0875
1983.93046	7363.7875
1986.99819	7315.2875
1990.06394	7253.4875
1993.1277	7222.9875
1996.18947	7186.2875
1999.24925	7152.4875
2002.30706	7099.6875
2005.36288	7093.5875
2008.41672	7081.0875
2011.46859	7053.4875
2014.51848	7022.1875
2017.56639	7012.0875
2020.61233	6967.6875
2023.6563	6959.7875
2026.6983	6936.3875
2029.73833	6918.1875
2032.7764	6916.9875
2035.8125	6888.5875
2038.84664	6871.6875
2041.87881	6871.0875
2044.90903	6871.5875
2047.93729	6822.9875
2050.96359	6832.6875
2053.98794	6798.8875
2057.01034	6769.6875
2060.03078	6771.2875
2063.04927	6742.3875
2066.06582	6732.1875
2069.08042	6728.7875
2072.09307	6698.6875
2075.10378	6709.7875
2078.11255	6705.8875
2081.11938	6711.1875
2084.12426	6705.2875
2087.12722	6720.6875
2090.12824	6699.7875
2093.12732	6724.7875
2096.12447	6735.4875
2099.11969	6707.3875
2102.11299	6718.6875
2105.10435	6739.5875
2108.09379	6723.8875
2111.08131	6728.8875
2114.0669	6738.6875
2117.05057	6752.9875
2120.03233	6750.5875
2123.01216	6746.3875
2125.99008	6783.9875
2128.96609	6774.7875
2131.94018	6777.2875
2134.91236	6776.4875
2137.88263	6771.0875
2140.851	6740.8875
2143.81746	6742.5875
2146.78201	6721.8875
2149.74466	6725.8875
2152.7054	6696.3875
2155.66425	6673.5875
2158.6212	6685.8875
2161.57625	6660.7875
2164.52941	6652.1875
2167.48067	6652.6875
2170.43004	6664.9875
2173.37752	6650.2875
2176.32311	6647.1875
2179.26681	6652.4875
2182.20863	6644.1875
2185.14856	6642.2875
2188.08661	6631.4875
2191.02278	6632.0875
2193.95707	6630.7875
2196.88948	6606.4875
2199.82001	6595.0875
2202.74867	6580.1875
2205.67545	6578.5875
2208.60037	6550.8875
2211.52341	6570.2875
2214.44458	6558.4875
2217.36388	6550.9875
2220.28132	6521.0875
2223.1969	6497.5875
2226.11061	6498.3875
2229.02246	6492.0875
2231.93245	6455.6875
2234.84058	6452.7875
2237.74686	6432.3875
2240.65128	6438.8875
2243.55385	6444.0875
2246.45456	6407.7875
2249.35343	6442.1875
2252.25044	6433.2875
2255.14561	6461.0875
2258.03893	6470.6875
2260.93041	6472.7875
2263.82004	6468.7875
2266.70783	6470.0875
2269.59378	6426.9875
2272.4779	6427.4875
2275.36017	6394.1875
2278.24061	6397.0875
2281.11922	6360.3875
2283.996	6351.1875
2286.87094	6335.4875
2289.74405	6309.8875
2292.61534	6292.9875
2295.4848	6267.9875
2298.35243	6251.1875
2301.21824	6236.7875
2304.08223	6240.1875
2306.94439	6259.1875
2309.80474	6262.2875
2312.66327	6262.3875
2315.51999	6233.4875
2318.37489	6246.8875
2321.22797	6243.2875
2324.07925	6220.2875
2326.92871	6207.5875
2329.77637	6228.1875
2332.62222	6225.3875
2335.46626	6202.4875
2338.3085	6214.2875
2341.14893	6227.9875
2343.98756	6240.8875
2346.8244	6249.2875
2349.65943	6273.0875
2352.49267	6291.3875
2355.32411	6320.8875
2358.15376	6318.1875
2360.98161	6360.7875
2363.80768	6365.0875
2366.63195	6381.8875
2369.45444	6381.6875
2372.27514	6395.6875
2375.09405	6380.2875
2377.91118	6361.0875
2380.72652	6306.3875
2383.54009	6268.0875
2386.35187	6245.7875
2389.16188	6203.8875
2391.97011	6149.1875
2394.77657	6137.7875
2397.58125	6121.8875
2400.38416	6098.5875
2403.18529	6050.3875
2405.98466	6041.6875
2408.78226	6009.9875
2411.57809	6008.1875
2414.37216	5983.3875
2417.16446	6013.1875
2419.955	5986.0875
2422.74378	5982.4875
2425.5308	5987.8875
2428.31606	5993.4875
2431.09956	5999.1875
2433.88131	6009.2875
2436.6613	6000.8875
2439.43954	6008.3875
2442.21603	6009.0875
2444.99077	6024.7875
2447.76377	6038.9875
2450.53501	6046.5875
2453.30451	6044.3875
2456.07226	6055.9875
2458.83827	6070.4875
2461.60254	6056.0875
2464.36507	6045.0875
2467.12586	6041.4875
2469.88492	6052.1875
2472.64224	6047.9875
2475.39782	6047.4875
2478.15167	6089.0875
2480.90379	6124.8875
2483.65417	6137.9875
2486.40283	6175.4875
2489.14976	6173.8875
2491.89497	6208.1875
2494.63845	6226.0875
2497.3802	6206.5875
2500.12024	6220.1875
2502.85855	6169.1875
2505.59514	6141.5875
2508.33002	6089.4875
2511.06318	6041.5875
2513.79462	6006.8875
2516.52435	5960.3875
2519.25237	5938.7875
2521.97867	5911.7875
2524.70327	5900.4875
2527.42616	5874.8875
2530.14734	5862.7875
2532.86681	5858.8875
2535.58458	5859.0875
2538.30065	5847.9875
2541.01501	5874.6875
2543.72768	5865.7875
2546.43864	5867.9875
2549.14791	5854.0875
2551.85548	5862.2875
2554.56136	5880.8875
2557.26554	5856.6875
2559.96803	5857.7875
2562.66883	5871.3875
2565.36794	5851.9875
2568.06536	5853.3875
2570.7611	5848.6875
2573.45514	5826.8875
2576.14751	5829.9875
2578.83819	5798.7875
2581.52719	5787.9875
2584.21451	5788.6875
2586.90015	5775.8875
2589.58411	5748.0875
2592.2664	5751.3875
2594.94701	5757.7875
2597.62594	5721.1875
2600.30321	5728.8875
2602.9788	5728.1875
2605.65273	5740.4875
2608.32498	5746.1875
2610.99557	5736.9875
2613.66449	5740.0875
2616.33175	5755.7875
2618.99734	5763.6875
2621.66128	5778.0875
2624.32355	5748.2875
2626.98416	5760.8875
2629.64311	5749.3875
2632.30041	5724.2875
2634.95605	5712.8875
2637.61004	5711.0875
2640.26238	5687.2875
2642.91306	5687.4875
2645.56209	5682.6875
2648.20948	5667.7875
2650.85521	5666.1875
2653.4993	5658.8875
2656.14175	5666.5875
2658.78255	5685.0875
2661.42171	5693.4875
2664.05923	5700.0875
2666.6951	5726.3875
2669.32934	5730.2875
2671.96194	5739.2875
2674.59291	5738.4875
2677.22224	5744.5875
2679.84993	5728.3875
2682.476	5734.9875
2685.10043	5751.9875
2687.72324	5730.3875
2690.34441	5723.7875
2692.96396	5736.9875
2695.58188	5726.4875
2698.19818	5706.6875
2700.81285	5724.9875
2703.4259	5708.8875
2706.03733	5717.9875
2708.64714	5730.7875
2711.25533	5728.7875
2713.86191	5718.0875
2716.46687	5744.9875
2719.07021	5734.8875
2721.67194	5730.9875
2724.27206	5746.6875
2726.87057	5739.0875
2729.46747	5742.1875
2732.06276	5729.9875
2734.65644	5717.1875
2737.24852	5712.8875
2739.83899	5692.9875
2742.42786	5700.1875
2745.01513	5661.7875
2747.60079	5646.5875
2750.18486	5648.3875
2752.76733	5649.3875
2755.3482	5645.7875
2757.92747	5621.1875
2760.50515	5621.5875
2763.08123	5622.3875
2765.65573	5634.8875
2768.22863	5620.6875
2770.79994	5611.6875
2773.36967	5613.2875
2775.9378	5601.3875
2778.50435	5611.1875
2781.06932	5623.8875
2783.6327	5622.2875
2786.1945	5624.3875
2788.75471	5618.8875
2791.31335	5619.6875
2793.87041	5617.8875
2796.42589	5617.3875
2798.97979	5640.7875
2801.53212	5634.6875
2804.08288	5644.0875
2806.63206	5665.4875
2809.17967	5683.6875
2811.72571	5687.7875
2814.27018	5705.6875
2816.81308	5732.8875
2819.35442	5731.7875
2821.89419	5734.6875
2824.43239	5755.4875
2826.96904	5761.2875
2829.50412	5763.8875
2832.03763	5773.2875
2834.56959	5775.0875
2837.1	5775.6875
2839.62884	5766.7875
2842.15613	5769.8875
2844.68186	5805.9875
2847.20604	5802.1875
2849.72867	5844.0875
2852.24974	5859.1875
2854.76927	5857.5875
2857.28724	5880.0875
2859.80367	5871.8875
2862.31855	5900.0875
2864.83189	5906.5875
2867.34368	5927.2875
2869.85393	5921.4875
2872.36264	5936.6875
2874.8698	5936.6875
2877.37543	5948.9875
2879.87952	5916.5875
2882.38207	5917.4875
2884.88308	5888.1875
2887.38256	5890.7875
2889.88051	5868.0875
2892.37692	5864.9875
2894.8718	5850.9875
2897.36515	5840.0875
2899.85698	5835.1875
2902.34727	5840.8875
2904.83604	5830.3875
2907.32328	5831.8875
2909.809	5823.4875
2912.29319	5815.8875
2914.77587	5799.3875
2917.25702	5755.8875
2919.73665	5748.1875
2922.21476	5750.4875
2924.69136	5734.2875
2927.16644	5733.1875
2929.64	5692.3875
2932.11205	5683.7875
2934.58258	5651.4875
2937.05161	5650.3875
2939.51912	5641.0875
2941.98513	5617.4875
2944.44962	5594.6875
2946.91261	5573.4875
2949.37409	5569.2875
2951.83407	5544.8875
2954.29254	5549.0875
2956.74951	5540.4875
2959.20498	5509.0875
2961.65895	5492.0875
2964.11142	5476.3875
2966.56239	5464.8875
2969.01186	5448.1875
2971.45984	5426.2875
2973.90632	5419.9875
2976.35131	5383.2875
2978.7948	5357.0875
2981.23681	5348.3875
2983.67732	5327.8875
2986.11635	5323.3875
2988.55388	5311.1875
2990.98993	5311.4875
2993.4245	5297.2875
2995.85758	5290.9875
2998.28917	5296.6875
3000.71928	5287.9875
3003.14791	5279.1875
3005.57506	5278.1875
3008.00073	5278.8875
3010.42493	5271.5875
3012.84764	5257.2875
3015.26888	5268.7875
3017.68865	5270.3875
3020.10694	5253.3875
3022.52376	5214.7875
3024.9391	5217.5875
3027.35298	5190.9875
3029.76539	5182.3875
3032.17632	5157.5875
3034.5858	5127.7875
3036.9938	5142.5875
3039.40034	5102.2875
3041.80542	5094.1875
3044.20903	5065.1875
3046.61118	5061.0875
3049.01187	5040.0875
3051.4111	5038.7875
3053.80888	5029.6875
3056.20519	4983.3875
3058.60005	4991.3875
3060.99345	4980.5875
3063.3854	4961.2875
3065.7759	4949.0875
3068.16494	4954.3875
3070.55254	4919.7875
3072.93868	4921.5875
3075.32338	4886.2875
3077.70662	4876.7875
3080.08842	4864.7875
3082.46878	4855.0875
3084.84769	4840.2875
3087.22515	4835.6875
3089.60118	4820.6875
3091.97576	4834.4875
3094.3489	4803.5875
3096.72061	4801.8875
3099.09087	4799.1875
3101.4597	4791.5875
3103.82709	4797.0875
3106.19305	4766.6875
3108.55757	4768.9875
3110.92066	4759.2875
3113.28232	4742.8875
3115.64255	4747.1875
3118.00134	4713.4875
3120.35871	4708.9875
3122.71466	4725.3875
3125.06917	4711.8875
3127.42226	4706.6875
3129.77393	4713.7875
3132.12417	4728.4875
3134.47299	4736.4875
3136.82039	4732.2875
3139.16636	4750.4875
3141.51092	4741.3875
3143.85406	4757.0875
3146.19579	4746.3875
3148.53609	4755.0875
3150.87499	4773.9875
3153.21246	4764.5875
3155.54853	4772.6875
3157.88318	4761.8875
3160.21642	4764.3875
3162.54826	4764.8875
3164.87868	4768.1875
3167.2077	4772.1875
3169.5353	4752.8875
3171.86151	4744.9875
3174.18631	4750.1875
3176.5097	4739.3875
3178.83169	4745.3875
3181.15228	4759.4875
3183.47147	4748.6875
3185.78926	4737.9875
3188.10565	4739.3875
3190.42065	4741.8875
3192.73424	4773.5875
3195.04645	4769.0875
3197.35725	4769.7875
3199.66667	4789.0875
3201.97469	4784.5875
3204.28132	4798.5875
3206.58656	4802.0875
3208.8904	4801.0875
3211.19287	4819.5875
3213.49394	4815.3875
3215.79363	4817.8875
3218.09193	4816.6875
3220.38884	4811.0875
3222.68438	4803.0875
3224.97853	4805.4875
3227.2713	4804.6875
3229.56269	4806.0875
3231.8527	4783.2875
3234.14133	4782.3875
3236.42858	4772.4875
3238.71446	4781.1875
3240.99896	4767.7875
3243.28209	4771.3875
3245.56384	4767.7875
3247.84423	4768.6875
3250.12324	4753.4875
3252.40088	4740.8875
3254.67715	4742.6875
3256.95205	4725.1875
3259.22558	4732.0875
3261.49775	4741.9875
3263.76855	4722.6875
3266.03799	4700.3875
3268.30606	4714.6875
3270.57277	4690.8875
3272.83812	4687.8875
3275.10211	4692.7875
3277.36474	4689.2875
3279.62601	4695.5875
3281.88593	4667.9875
3284.14448	4684.5875
3286.40168	4677.8875
3288.65753	4686.4875
3290.91202	4684.3875
3293.16516	4659.9875
3295.41695	4652.8875
3297.66738	4629.7875
3299.91647	4605.4875
3302.16421	4580.1875
3304.4106	4567.6875
3306.65564	4539.9875
3308.89933	4484.6875
3311.14169	4459.5875
3313.38269	4411.1875
3315.62236	4379.9875
3317.86068	4341.7875
3320.09766	4280.7875
3322.3333	4238.0875
3324.5676	4228.7875
3326.80056	4156.2875
3329.03219	4117.9875
3331.26248	1.7875
3333.49143	-1.2125
3335.71905	0.8875
