Data from AgNP_FTO_APTES_UA_100uM_CRN_50uM_R6G_10uM_NaF_0.1M_Addition_RamanShift__27__17-39-20-554.txt Node

Date: Thu Mar 24 17:39:20 GMT 2022
User: TCL
Spectrometer: QEP01345
Trigger mode: 4
Integration Time (sec): 7.000000E0
Scans to average: 10
Electric dark correction enabled: true
Nonlinearity correction enabled: false
Boxcar width: 0
XAxis mode: Raman Shifts
Number of Pixels in Spectrum: 1044
>>>>>Begin Spectral Data<<<<<
46.04893	-1.5375
50.45542	0.0625
54.85868	-0.8375
59.25871	-0.2375
63.6555	32.1625
68.04907	37.8625
72.43941	37.0625
76.82654	37.9625
81.21044	40.7625
85.59113	42.9625
89.96862	46.3625
94.34289	41.4625
98.71396	50.9625
103.08183	46.9625
107.4465	48.4625
111.80798	53.3625
116.16626	49.2625
120.52136	53.5625
124.87327	56.7625
129.222	56.2625
133.56755	62.7625
137.90993	64.6625
142.24913	76.4625
146.58517	80.2625
150.91804	97.9625
155.24774	114.0625
159.57429	141.0625
163.89768	183.8625
168.21792	248.9625
172.53501	334.6625
176.84895	472.3625
181.15975	666.8625
185.46741	939.0625
189.77193	1295.6625
194.07331	1729.9625
198.37157	2241.2625
202.6667	2776.8625
206.9587	3309.4625
211.24758	3849.0625
215.53334	4389.0625
219.81599	5001.3625
224.09553	5653.7625
228.37195	6386.7625
232.64527	7207.1625
236.91549	8087.4625
241.18261	8878.4625
245.44663	9581.6625
249.70755	10154.7625
253.96539	10620.7625
258.22014	11000.5625
262.4718	11373.1625
266.72039	11628.6625
270.96589	11759.5625
275.20832	11775.4625
279.44768	11689.1625
283.68397	11560.3625
287.91719	11477.6625
292.14735	11455.3625
296.37445	11553.8625
300.59849	11770.7625
304.81948	12019.4625
309.03742	12150.6625
313.25231	12105.6625
317.46415	11810.1625
321.67296	11303.8625
325.87872	10857.2625
330.08145	10646.5625
334.28114	10610.2625
338.47781	10705.5625
342.67145	10893.8625
346.86207	11135.8625
351.04966	11478.5625
355.23424	11822.3625
359.4158	12086.9625
363.59435	12205.2625
367.76989	12304.9625
371.94243	12305.8625
376.11196	12283.3625
380.27849	12290.6625
384.44203	12285.2625
388.60257	12278.7625
392.76012	12321.3625
396.91468	12403.6625
401.06626	12623.3625
405.21485	12775.5625
409.36047	12595.5625
413.50311	12187.3625
417.64277	11818.5625
421.77947	11627.4625
425.9132	11606.6625
430.04396	11656.1625
434.17176	11737.5625
438.2966	11857.8625
442.41849	12103.1625
446.53742	12455.9625
450.6534	12806.0625
454.76644	12983.6625
458.87653	13032.2625
462.98368	12941.6625
467.08789	12775.2625
471.18916	12632.5625
475.2875	12409.4625
479.38291	12253.7625
483.4754	12108.6625
487.56496	11907.0625
491.6516	11768.7625
495.73531	11666.4625
499.81612	11634.9625
503.89401	11717.5625
507.96899	11750.3625
512.04106	11772.6625
516.11023	11814.5625
520.1765	11822.9625
524.23987	11763.8625
528.30034	11651.1625
532.35792	11596.0625
536.41261	11476.7625
540.46441	11333.5625
544.51333	11275.3625
548.55936	11388.5625
552.60252	11616.8625
556.64279	11934.0625
560.6802	12103.7625
564.71473	12204.4625
568.7464	12431.3625
572.7752	12766.4625
576.80114	12894.1625
580.82422	13010.0625
584.84444	13100.1625
588.86181	13308.9625
592.87633	13637.4625
596.888	13821.2625
600.89682	13922.5625
604.9028	14529.4625
608.90594	16630.8625
612.90624	19270.5625
616.90371	18219.2625
620.89834	13976.5625
624.89015	12022.4625
628.87913	11731.7625
632.86528	11924.4625
636.84862	12091.6625
640.82913	11934.0625
644.80683	11462.7625
648.78172	11089.3625
652.75379	10979.3625
656.72306	11191.9625
660.68952	11538.1625
664.65319	11419.0625
668.61405	11009.0625
672.57211	10854.3625
676.52738	10883.3625
680.47986	10872.6625
684.42955	10779.6625
688.37646	10674.9625
692.32058	10733.1625
696.26192	10823.7625
700.20048	10987.3625
704.13626	11065.4625
708.06928	11059.0625
711.99952	10973.1625
715.927	10929.4625
719.85171	10993.9625
723.77365	11003.4625
727.69284	10917.9625
731.60928	10862.7625
735.52295	10843.6625
739.43388	10873.9625
743.34206	10916.0625
747.24749	10932.3625
751.15017	10962.3625
755.05012	11158.7625
758.94733	11557.5625
762.8418	12606.0625
766.73354	14318.2625
770.62254	16026.2625
774.50882	16589.8625
778.39237	15703.7625
782.27321	13904.0625
786.15132	12311.4625
790.02671	11351.5625
793.89938	10912.0625
797.76935	10706.0625
801.6366	10589.7625
805.50115	10557.5625
809.36299	10492.0625
813.22213	10474.5625
817.07857	10436.0625
820.93231	10402.8625
824.78336	10350.0625
828.63172	10337.4625
832.47738	10326.4625
836.32036	10294.7625
840.16066	10281.3625
843.99827	10284.6625
847.8332	10255.6625
851.66546	10248.1625
855.49504	10232.3625
859.32195	10247.6625
863.1462	10211.8625
866.96777	10225.1625
870.78668	10192.8625
874.60293	10229.0625
878.41652	10230.4625
882.22745	10300.9625
886.03573	10371.5625
889.84136	10375.0625
893.64433	10327.1625
897.44466	10256.0625
901.24235	10217.3625
905.0374	10154.5625
908.8298	10106.9625
912.61957	10092.9625
916.40671	10143.3625
920.19121	10251.2625
923.97308	10361.4625
927.75233	10389.1625
931.52895	10353.2625
935.30295	10191.0625
939.07433	9971.6625
942.84309	9760.8625
946.60924	9658.6625
950.37278	9629.7625
954.13371	9603.4625
957.89203	9574.1625
961.64774	9560.1625
965.40086	9555.6625
969.15137	9545.5625
972.89929	9496.4625
976.64461	9447.4625
980.38733	9425.9625
984.12747	9470.2625
987.86502	9503.9625
991.59999	9554.3625
995.33237	9671.3625
999.06217	9881.8625
1002.78939	10148.7625
1006.51404	10376.3625
1010.23611	10599.4625
1013.95561	10720.1625
1017.67255	10730.9625
1021.38692	10569.6625
1025.09872	10376.9625
1028.80796	10233.0625
1032.51465	10217.1625
1036.21877	10301.9625
1039.92035	10371.2625
1043.61937	10370.2625
1047.31584	10353.5625
1051.00976	10337.8625
1054.70114	10329.3625
1058.38998	10391.1625
1062.07627	10437.1625
1065.76003	10523.8625
1069.44126	10619.9625
1073.11995	10751.8625
1076.79611	10885.9625
1080.46974	11011.6625
1084.14085	11230.7625
1087.80943	11411.6625
1091.47549	11525.2625
1095.13903	11440.2625
1098.80005	11173.1625
1102.45857	10930.1625
1106.11456	10785.6625
1109.76805	10810.1625
1113.41903	10969.6625
1117.06751	11235.7625
1120.71348	11585.1625
1124.35696	11918.8625
1127.99793	12227.7625
1131.63641	12265.9625
1135.2724	11931.4625
1138.90589	11659.5625
1142.5369	11467.0625
1146.16542	11333.8625
1149.79145	11250.4625
1153.415	11298.5625
1157.03607	11382.9625
1160.65467	11670.4625
1164.27079	12151.4625
1167.88443	12851.8625
1171.49561	13876.2625
1175.10432	15367.1625
1178.71056	17271.7625
1182.31434	18882.1625
1185.91565	19455.2625
1189.51451	19047.9625
1193.11091	18182.7625
1196.70485	17079.9625
1200.29634	16072.8625
1203.88538	15301.7625
1207.47197	14524.2625
1211.05612	13808.6625
1214.63782	13330.9625
1218.21708	13094.5625
1221.79391	13053.1625
1225.36829	13042.8625
1228.94024	12953.7625
1232.50976	12710.7625
1236.07685	12469.2625
1239.6415	12340.4625
1243.20374	12311.9625
1246.76355	12358.2625
1250.32093	12516.8625
1253.8759	12701.6625
1257.42845	13037.4625
1260.97859	13423.4625
1264.52631	13884.0625
1268.07163	14358.4625
1271.61453	14806.2625
1275.15503	15184.8625
1278.69312	15533.5625
1282.22882	15830.8625
1285.76211	16254.6625
1289.29301	16848.3625
1292.82151	17552.6625
1296.34761	18404.5625
1299.87133	19580.9625
1303.39266	21113.2625
1306.9116	23076.1625
1310.42815	24974.0625
1313.94233	25992.8625
1317.45412	25614.3625
1320.96354	24442.2625
1324.47058	23153.7625
1327.97525	21956.9625
1331.47754	21068.5625
1334.97747	20582.1625
1338.47502	20473.6625
1341.97022	20753.9625
1345.46305	21249.6625
1348.95352	21940.9625
1352.44163	22922.0625
1355.92738	24414.1625
1359.41078	26798.6625
1362.89183	29062.5625
1366.37053	28501.3625
1369.84688	24880.4625
1373.32088	21031.0625
1376.79254	18644.2625
1380.26186	17461.0625
1383.72883	16955.5625
1387.19347	16560.4625
1390.65578	16182.4625
1394.11575	15944.0625
1397.57339	15829.6625
1401.0287	15902.8625
1404.48168	15994.7625
1407.93234	15880.8625
1411.38068	15655.4625
1414.82669	15324.7625
1418.27039	14841.4625
1421.71177	14329.6625
1425.15083	13828.8625
1428.58758	13596.7625
1432.02203	13651.5625
1435.45416	13885.5625
1438.88399	14169.6625
1442.31151	14408.6625
1445.73673	14558.7625
1449.15965	14744.5625
1452.58027	14827.6625
1455.9986	14845.6625
1459.41463	14991.3625
1462.82837	15292.9625
1466.23982	15755.4625
1469.64898	16239.0625
1473.05586	16602.8625
1476.46045	16829.7625
1479.86276	16927.9625
1483.26279	16998.7625
1486.66054	17161.4625
1490.05602	17543.9625
1493.44922	18108.0625
1496.84016	18990.2625
1500.22882	20402.5625
1503.61521	22324.9625
1506.99934	24404.4625
1510.38121	25698.9625
1513.76081	25560.7625
1517.13816	23898.1625
1520.51324	21590.5625
1523.88607	19624.5625
1527.25665	18420.6625
1530.62498	17842.3625
1533.99105	17487.2625
1537.35488	17117.8625
1540.71647	16719.4625
1544.07581	16202.8625
1547.4329	15779.0625
1550.78776	15451.6625
1554.14038	15272.0625
1557.49077	15298.0625
1560.83892	15485.2625
1564.18484	15842.4625
1567.52853	16246.0625
1570.86999	16677.9625
1574.20922	16934.8625
1577.54624	16918.4625
1580.88103	16342.6625
1584.2136	15568.1625
1587.54395	15305.1625
1590.87208	15609.0625
1594.19801	16543.2625
1597.52172	17662.6625
1600.84321	18039.8625
1604.16251	17397.6625
1607.47959	16241.3625
1610.79447	14994.3625
1614.10715	13855.9625
1617.41763	12840.3625
1620.7259	12109.4625
1624.03199	11687.6625
1627.33587	11667.7625
1630.63757	11909.0625
1633.93707	12644.4625
1637.23439	13882.4625
1640.52951	15882.4625
1643.82246	18446.4625
1647.11321	20931.1625
1650.40179	22040.2625
1653.68819	20880.2625
1656.97241	17988.6625
1660.25446	14902.6625
1663.53433	12661.9625
1666.81203	11278.7625
1670.08756	10454.1625
1673.36092	9924.5625
1676.63211	9569.3625
1679.90115	9342.9625
1683.16801	9139.5625
1686.43272	9010.2625
1689.69527	8894.9625
1692.95567	8801.7625
1696.2139	8749.2625
1699.46999	8698.5625
1702.72392	8639.7625
1705.97571	8584.5625
1709.22535	8560.7625
1712.47284	8526.6625
1715.71819	8502.6625
1718.96139	8438.6625
1722.20246	8424.2625
1725.44139	8361.0625
1728.67818	8297.7625
1731.91284	8222.1625
1735.14537	8156.8625
1738.37576	8131.1625
1741.60403	8108.7625
1744.83017	8046.1625
1748.05418	8026.8625
1751.27607	7990.8625
1754.49584	7976.5625
1757.71349	7961.0625
1760.92903	7921.9625
1764.14244	7972.8625
1767.35375	7924.8625
1770.56294	7888.6625
1773.77002	7866.9625
1776.97499	7839.6625
1780.17785	7809.2625
1783.37861	7792.6625
1786.57727	7796.1625
1789.77382	7751.6625
1792.96828	7756.6625
1796.16064	7747.6625
1799.3509	7703.9625
1802.53907	7682.0625
1805.72514	7665.1625
1808.90913	7629.0625
1812.09102	7611.0625
1815.27083	7592.1625
1818.44856	7566.9625
1821.6242	7552.8625
1824.79776	7527.3625
1827.96924	7516.4625
1831.13864	7497.5625
1834.30597	7480.5625
1837.47122	7450.9625
1840.6344	7459.9625
1843.7955	7461.0625
1846.95454	7458.6625
1850.11151	7426.7625
1853.26642	7434.8625
1856.41926	7418.5625
1859.57004	7421.6625
1862.71876	7411.3625
1865.86542	7393.3625
1869.01003	7383.0625
1872.15258	7381.3625
1875.29308	7367.1625
1878.43152	7363.2625
1881.56792	7364.7625
1884.70227	7364.6625
1887.83457	7351.2625
1890.96482	7348.4625
1894.09304	7330.0625
1897.21921	7327.1625
1900.34335	7299.0625
1903.46544	7304.2625
1906.58551	7291.3625
1909.70353	7287.8625
1912.81953	7295.5625
1915.93349	7275.5625
1919.04543	7237.3625
1922.15534	7231.8625
1925.26322	7212.9625
1928.36908	7213.6625
1931.47292	7176.6625
1934.57473	7149.1625
1937.67453	7163.1625
1940.77232	7146.5625
1943.86808	7102.1625
1946.96184	7080.3625
1950.05358	7060.4625
1953.14331	7015.3625
1956.23103	7005.3625
1959.31675	6986.3625
1962.40046	6960.3625
1965.48217	6952.1625
1968.56188	6969.4625
1971.63959	6908.0625
1974.7153	6919.4625
1977.78901	6886.8625
1980.86073	6852.1625
1983.93046	6836.6625
1986.99819	6796.3625
1990.06394	6764.1625
1993.1277	6750.3625
1996.18947	6732.0625
1999.24925	6717.9625
2002.30706	6691.9625
2005.36288	6652.3625
2008.41672	6640.7625
2011.46859	6602.2625
2014.51848	6597.7625
2017.56639	6570.4625
2020.61233	6554.1625
2023.6563	6527.0625
2026.6983	6524.2625
2029.73833	6493.9625
2032.7764	6486.1625
2035.8125	6472.5625
2038.84664	6461.6625
2041.87881	6438.1625
2044.90903	6423.5625
2047.93729	6425.2625
2050.96359	6397.7625
2053.98794	6388.3625
2057.01034	6366.8625
2060.03078	6358.4625
2063.04927	6356.9625
2066.06582	6358.6625
2069.08042	6364.6625
2072.09307	6345.8625
2075.10378	6352.9625
2078.11255	6341.8625
2081.11938	6354.1625
2084.12426	6349.9625
2087.12722	6348.8625
2090.12824	6331.6625
2093.12732	6335.6625
2096.12447	6334.2625
2099.11969	6341.2625
2102.11299	6331.2625
2105.10435	6338.7625
2108.09379	6327.8625
2111.08131	6339.2625
2114.0669	6330.5625
2117.05057	6336.1625
2120.03233	6350.6625
2123.01216	6339.5625
2125.99008	6350.5625
2128.96609	6342.6625
2131.94018	6354.0625
2134.91236	6346.8625
2137.88263	6348.5625
2140.851	6351.0625
2143.81746	6352.2625
2146.78201	6344.6625
2149.74466	6337.5625
2152.7054	6332.5625
2155.66425	6323.6625
2158.6212	6345.1625
2161.57625	6328.4625
2164.52941	6321.3625
2167.48067	6307.1625
2170.43004	6308.9625
2173.37752	6318.3625
2176.32311	6288.8625
2179.26681	6305.5625
2182.20863	6282.5625
2185.14856	6287.6625
2188.08661	6280.9625
2191.02278	6288.8625
2193.95707	6280.6625
2196.88948	6265.6625
2199.82001	6264.1625
2202.74867	6265.8625
2205.67545	6244.7625
2208.60037	6241.8625
2211.52341	6241.8625
2214.44458	6219.4625
2217.36388	6204.5625
2220.28132	6212.8625
2223.1969	6199.0625
2226.11061	6184.3625
2229.02246	6187.0625
2231.93245	6153.1625
2234.84058	6148.3625
2237.74686	6148.2625
2240.65128	6136.1625
2243.55385	6130.3625
2246.45456	6107.3625
2249.35343	6124.0625
2252.25044	6116.9625
2255.14561	6082.5625
2258.03893	6100.4625
2260.93041	6064.2625
2263.82004	6055.6625
2266.70783	6056.0625
2269.59378	6023.3625
2272.4779	6025.3625
2275.36017	5994.1625
2278.24061	5998.0625
2281.11922	5994.9625
2283.996	5968.7625
2286.87094	5965.3625
2289.74405	5933.7625
2292.61534	5946.4625
2295.4848	5940.9625
2298.35243	5919.0625
2301.21824	5915.4625
2304.08223	5911.3625
2306.94439	5904.1625
2309.80474	5912.9625
2312.66327	5898.7625
2315.51999	5894.5625
2318.37489	5897.4625
2321.22797	5876.9625
2324.07925	5883.0625
2326.92871	5876.7625
2329.77637	5880.2625
2332.62222	5859.4625
2335.46626	5865.8625
2338.3085	5851.2625
2341.14893	5854.7625
2343.98756	5863.9625
2346.8244	5850.8625
2349.65943	5860.3625
2352.49267	5869.8625
2355.32411	5880.5625
2358.15376	5883.7625
2360.98161	5897.1625
2363.80768	5859.8625
2366.63195	5896.8625
2369.45444	5889.8625
2372.27514	5880.0625
2375.09405	5853.2625
2377.91118	5847.9625
2380.72652	5829.5625
2383.54009	5808.6625
2386.35187	5783.1625
2389.16188	5777.8625
2391.97011	5753.9625
2394.77657	5740.8625
2397.58125	5720.1625
2400.38416	5723.8625
2403.18529	5712.5625
2405.98466	5686.4625
2408.78226	5682.6625
2411.57809	5656.1625
2414.37216	5662.1625
2417.16446	5645.9625
2419.955	5651.1625
2422.74378	5650.8625
2425.5308	5637.6625
2428.31606	5642.8625
2431.09956	5618.8625
2433.88131	5625.6625
2436.6613	5638.6625
2439.43954	5631.4625
2442.21603	5622.3625
2444.99077	5619.6625
2447.76377	5639.3625
2450.53501	5622.4625
2453.30451	5631.5625
2456.07226	5627.8625
2458.83827	5627.6625
2461.60254	5634.9625
2464.36507	5622.4625
2467.12586	5610.7625
2469.88492	5630.3625
2472.64224	5618.3625
2475.39782	5615.1625
2478.15167	5624.0625
2480.90379	5646.2625
2483.65417	5653.0625
2486.40283	5661.2625
2489.14976	5669.8625
2491.89497	5678.0625
2494.63845	5666.4625
2497.3802	5677.3625
2500.12024	5652.7625
2502.85855	5650.0625
2505.59514	5636.6625
2508.33002	5617.9625
2511.06318	5595.9625
2513.79462	5584.8625
2516.52435	5562.9625
2519.25237	5562.7625
2521.97867	5575.8625
2524.70327	5535.2625
2527.42616	5553.3625
2530.14734	5541.9625
2532.86681	5529.6625
2535.58458	5532.7625
2538.30065	5527.1625
2541.01501	5537.4625
2543.72768	5521.0625
2546.43864	5523.8625
2549.14791	5513.3625
2551.85548	5503.9625
2554.56136	5502.4625
2557.26554	5484.2625
2559.96803	5471.4625
2562.66883	5458.3625
2565.36794	5471.5625
2568.06536	5475.7625
2570.7611	5452.6625
2573.45514	5445.6625
2576.14751	5435.4625
2578.83819	5433.5625
2581.52719	5442.6625
2584.21451	5436.6625
2586.90015	5426.7625
2589.58411	5418.5625
2592.2664	5409.4625
2594.94701	5415.3625
2597.62594	5403.5625
2600.30321	5394.7625
2602.9788	5387.4625
2605.65273	5395.4625
2608.32498	5394.0625
2610.99557	5383.2625
2613.66449	5389.2625
2616.33175	5403.4625
2618.99734	5377.5625
2621.66128	5379.8625
2624.32355	5393.0625
2626.98416	5390.4625
2629.64311	5395.2625
2632.30041	5367.6625
2634.95605	5371.1625
2637.61004	5361.5625
2640.26238	5384.0625
2642.91306	5362.0625
2645.56209	5363.8625
2648.20948	5341.5625
2650.85521	5342.0625
2653.4993	5340.3625
2656.14175	5342.5625
2658.78255	5363.1625
2661.42171	5352.9625
2664.05923	5384.3625
2666.6951	5385.6625
2669.32934	5361.3625
2671.96194	5391.7625
2674.59291	5387.9625
2677.22224	5373.7625
2679.84993	5382.6625
2682.476	5357.8625
2685.10043	5351.1625
2687.72324	5341.4625
2690.34441	5346.5625
2692.96396	5344.1625
2695.58188	5359.9625
2698.19818	5359.8625
2700.81285	5347.4625
2703.4259	5343.9625
2706.03733	5369.4625
2708.64714	5355.0625
2711.25533	5363.4625
2713.86191	5356.2625
2716.46687	5382.3625
2719.07021	5382.7625
2721.67194	5394.0625
2724.27206	5381.1625
2726.87057	5385.5625
2729.46747	5370.8625
2732.06276	5384.3625
2734.65644	5368.3625
2737.24852	5370.1625
2739.83899	5348.2625
2742.42786	5349.9625
2745.01513	5356.5625
2747.60079	5335.9625
2750.18486	5337.1625
2752.76733	5343.5625
2755.3482	5318.2625
2757.92747	5309.8625
2760.50515	5320.7625
2763.08123	5319.1625
2765.65573	5306.8625
2768.22863	5315.1625
2770.79994	5301.1625
2773.36967	5308.4625
2775.9378	5305.9625
2778.50435	5307.8625
2781.06932	5309.4625
2783.6327	5312.2625
2786.1945	5309.1625
2788.75471	5303.8625
2791.31335	5283.0625
2793.87041	5294.6625
2796.42589	5279.1625
2798.97979	5277.9625
2801.53212	5269.3625
2804.08288	5264.8625
2806.63206	5253.8625
2809.17967	5241.0625
2811.72571	5255.4625
2814.27018	5250.3625
2816.81308	5233.9625
2819.35442	5221.3625
2821.89419	5217.3625
2824.43239	5223.7625
2826.96904	5218.5625
2829.50412	5199.7625
2832.03763	5200.0625
2834.56959	5212.9625
2837.1	5198.1625
2839.62884	5204.5625
2842.15613	5209.0625
2844.68186	5207.0625
2847.20604	5229.6625
2849.72867	5230.4625
2852.24974	5233.9625
2854.76927	5216.0625
2857.28724	5216.1625
2859.80367	5215.5625
2862.31855	5221.1625
2864.83189	5225.1625
2867.34368	5207.9625
2869.85393	5223.2625
2872.36264	5215.9625
2874.8698	5225.6625
2877.37543	5219.9625
2879.87952	5221.2625
2882.38207	5228.7625
2884.88308	5186.7625
2887.38256	5221.5625
2889.88051	5214.3625
2892.37692	5206.5625
2894.8718	5225.9625
2897.36515	5232.6625
2899.85698	5226.8625
2902.34727	5227.5625
2904.83604	5239.4625
2907.32328	5238.4625
2909.809	5243.7625
2912.29319	5245.5625
2914.77587	5250.9625
2917.25702	5251.1625
2919.73665	5233.2625
2922.21476	5257.7625
2924.69136	5245.9625
2927.16644	5237.1625
2929.64	5234.0625
2932.11205	5212.3625
2934.58258	5181.2625
2937.05161	5201.4625
2939.51912	5185.7625
2941.98513	5172.5625
2944.44962	5155.1625
2946.91261	5140.2625
2949.37409	5140.8625
2951.83407	5131.7625
2954.29254	5131.3625
2956.74951	5137.1625
2959.20498	5139.9625
2961.65895	5129.8625
2964.11142	5139.9625
2966.56239	5121.2625
2969.01186	5126.7625
2971.45984	5093.4625
2973.90632	5092.4625
2976.35131	5076.3625
2978.7948	5060.6625
2981.23681	5028.7625
2983.67732	5044.4625
2986.11635	5033.0625
2988.55388	5017.5625
2990.98993	5025.4625
2993.4245	5010.8625
2995.85758	5007.9625
2998.28917	4979.6625
3000.71928	4975.5625
3003.14791	4967.4625
3005.57506	4965.6625
3008.00073	4971.3625
3010.42493	4960.6625
3012.84764	4950.4625
3015.26888	4939.0625
3017.68865	4936.1625
3020.10694	4942.1625
3022.52376	4918.3625
3024.9391	4910.2625
3027.35298	4896.5625
3029.76539	4891.3625
3032.17632	4885.0625
3034.5858	4878.5625
3036.9938	4874.4625
3039.40034	4866.1625
3041.80542	4888.1625
3044.20903	4872.1625
3046.61118	4857.6625
3049.01187	4853.8625
3051.4111	4854.8625
3053.80888	4847.1625
3056.20519	4833.8625
3058.60005	4817.5625
3060.99345	4807.7625
3063.3854	4792.1625
3065.7759	4794.3625
3068.16494	4775.2625
3070.55254	4773.7625
3072.93868	4756.9625
3075.32338	4764.4625
3077.70662	4755.4625
3080.08842	4754.3625
3082.46878	4738.8625
3084.84769	4754.0625
3087.22515	4744.4625
3089.60118	4756.1625
3091.97576	4742.6625
3094.3489	4745.9625
3096.72061	4729.5625
3099.09087	4724.6625
3101.4597	4759.9625
3103.82709	4761.2625
3106.19305	4740.2625
3108.55757	4751.9625
3110.92066	4733.1625
3113.28232	4729.2625
3115.64255	4715.8625
3118.00134	4703.5625
3120.35871	4702.7625
3122.71466	4695.3625
3125.06917	4693.2625
3127.42226	4684.5625
3129.77393	4687.5625
3132.12417	4673.7625
3134.47299	4689.0625
3136.82039	4685.4625
3139.16636	4669.2625
3141.51092	4677.4625
3143.85406	4679.5625
3146.19579	4685.0625
3148.53609	4692.4625
3150.87499	4716.0625
3153.21246	4717.4625
3155.54853	4732.0625
3157.88318	4704.0625
3160.21642	4719.7625
3162.54826	4725.9625
3164.87868	4716.7625
3167.2077	4735.3625
3169.5353	4731.9625
3171.86151	4727.9625
3174.18631	4730.1625
3176.5097	4721.2625
3178.83169	4721.5625
3181.15228	4715.9625
3183.47147	4716.9625
3185.78926	4731.8625
3188.10565	4703.5625
3190.42065	4710.0625
3192.73424	4708.9625
3195.04645	4714.9625
3197.35725	4705.2625
3199.66667	4706.8625
3201.97469	4737.1625
3204.28132	4727.9625
3206.58656	4733.2625
3208.8904	4722.6625
3211.19287	4706.7625
3213.49394	4726.6625
3215.79363	4736.8625
3218.09193	4741.0625
3220.38884	4760.4625
3222.68438	4768.9625
3224.97853	4758.5625
3227.2713	4745.5625
3229.56269	4737.2625
3231.8527	4756.9625
3234.14133	4756.2625
3236.42858	4734.6625
3238.71446	4735.1625
3240.99896	4711.2625
3243.28209	4709.2625
3245.56384	4705.4625
3247.84423	4714.8625
3250.12324	4696.3625
3252.40088	4710.2625
3254.67715	4695.2625
3256.95205	4693.3625
3259.22558	4702.2625
3261.49775	4693.5625
3263.76855	4677.1625
3266.03799	4685.7625
3268.30606	4680.3625
3270.57277	4654.7625
3272.83812	4658.4625
3275.10211	4645.7625
3277.36474	4642.2625
3279.62601	4656.1625
3281.88593	4642.6625
3284.14448	4661.3625
3286.40168	4664.2625
3288.65753	4659.9625
3290.91202	4664.4625
3293.16516	4637.1625
3295.41695	4614.3625
3297.66738	4617.4625
3299.91647	4599.7625
3302.16421	4561.8625
3304.4106	4560.7625
3306.65564	4547.3625
3308.89933	4492.0625
3311.14169	4480.6625
3313.38269	4442.0625
3315.62236	4425.6625
3317.86068	4385.5625
3320.09766	4372.4625
3322.3333	4316.3625
3324.5676	4317.2625
3326.80056	4238.7625
3329.03219	4222.4625
3331.26248	1.5625
3333.49143	-0.6375
3335.71905	0.6625
