Data from AgNP_FTO_APTES_UA_100uM_CRN_50uM_R6G_10uM_NaF_0.1M_Addition_RamanShift__25__17-37-00-551.txt Node

Date: Thu Mar 24 17:37:00 GMT 2022
User: TCL
Spectrometer: QEP01345
Trigger mode: 4
Integration Time (sec): 7.000000E0
Scans to average: 10
Electric dark correction enabled: true
Nonlinearity correction enabled: false
Boxcar width: 0
XAxis mode: Raman Shifts
Number of Pixels in Spectrum: 1044
>>>>>Begin Spectral Data<<<<<
46.04893	-1.7625
50.45542	0.3375
54.85868	-1.7625
59.25871	-0.3625
63.6555	34.2375
68.04907	38.3375
72.43941	37.2375
76.82654	37.7375
81.21044	45.1375
85.59113	42.9375
89.96862	47.1375
94.34289	41.0375
98.71396	51.4375
103.08183	48.8375
107.4465	49.1375
111.80798	50.3375
116.16626	52.5375
120.52136	53.5375
124.87327	54.0375
129.222	56.2375
133.56755	63.4375
137.90993	63.0375
142.24913	75.8375
146.58517	83.4375
150.91804	93.8375
155.24774	119.2375
159.57429	138.6375
163.89768	186.5375
168.21792	249.6375
172.53501	335.2375
176.84895	480.4375
181.15975	672.4375
185.46741	936.3375
189.77193	1296.4375
194.07331	1741.1375
198.37157	2241.9375
202.6667	2781.3375
206.9587	3324.4375
211.24758	3854.3375
215.53334	4398.2375
219.81599	4992.3375
224.09553	5637.7375
228.37195	6371.5375
232.64527	7181.7375
236.91549	8031.8375
241.18261	8831.7375
245.44663	9547.4375
249.70755	10153.2375
253.96539	10651.0375
258.22014	11045.2375
262.4718	11402.6375
266.72039	11640.8375
270.96589	11804.0375
275.20832	11832.2375
279.44768	11735.8375
283.68397	11635.0375
287.91719	11537.9375
292.14735	11504.8375
296.37445	11576.3375
300.59849	11782.1375
304.81948	11967.8375
309.03742	12126.8375
313.25231	12055.1375
317.46415	11739.9375
321.67296	11314.4375
325.87872	10900.8375
330.08145	10681.1375
334.28114	10661.8375
338.47781	10786.7375
342.67145	10965.6375
346.86207	11208.0375
351.04966	11505.7375
355.23424	11809.6375
359.4158	12062.6375
363.59435	12160.1375
367.76989	12219.7375
371.94243	12248.3375
376.11196	12272.9375
380.27849	12282.1375
384.44203	12285.0375
388.60257	12287.2375
392.76012	12334.9375
396.91468	12438.9375
401.06626	12651.5375
405.21485	12772.4375
409.36047	12638.0375
413.50311	12266.8375
417.64277	11922.3375
421.77947	11764.6375
425.9132	11727.8375
430.04396	11783.3375
434.17176	11883.0375
438.2966	11990.7375
442.41849	12226.6375
446.53742	12544.3375
450.6534	12869.3375
454.76644	13069.5375
458.87653	13128.7375
462.98368	13019.5375
467.08789	12909.2375
471.18916	12721.3375
475.2875	12561.7375
479.38291	12425.7375
483.4754	12254.6375
487.56496	12092.6375
491.6516	11931.9375
495.73531	11827.7375
499.81612	11792.4375
503.89401	11862.4375
507.96899	11906.0375
512.04106	11923.1375
516.11023	11973.5375
520.1765	11952.0375
524.23987	11896.5375
528.30034	11839.4375
532.35792	11739.9375
536.41261	11617.9375
540.46441	11492.8375
544.51333	11464.9375
548.55936	11578.4375
552.60252	11831.7375
556.64279	12078.5375
560.6802	12278.3375
564.71473	12352.4375
568.7464	12547.7375
572.7752	12836.2375
576.80114	13030.0375
580.82422	13145.9375
584.84444	13243.4375
588.86181	13448.9375
592.87633	13729.9375
596.888	13921.4375
600.89682	13992.4375
604.9028	14561.6375
608.90594	16481.1375
612.90624	18878.7375
616.90371	17852.4375
620.89834	13968.8375
624.89015	12149.9375
628.87913	11879.4375
632.86528	12059.2375
636.84862	12257.0375
640.82913	12100.8375
644.80683	11656.0375
648.78172	11296.0375
652.75379	11211.0375
656.72306	11378.2375
660.68952	11707.8375
664.65319	11618.6375
668.61405	11222.8375
672.57211	11084.2375
676.52738	11105.5375
680.47986	11115.5375
684.42955	11038.1375
688.37646	10942.0375
692.32058	11005.4375
696.26192	11076.6375
700.20048	11206.4375
704.13626	11292.7375
708.06928	11288.2375
711.99952	11227.9375
715.927	11177.6375
719.85171	11224.1375
723.77365	11243.1375
727.69284	11178.9375
731.60928	11109.9375
735.52295	11082.7375
739.43388	11100.5375
743.34206	11134.7375
747.24749	11173.9375
751.15017	11207.5375
755.05012	11360.8375
758.94733	11766.9375
762.8418	12717.0375
766.73354	14351.2375
770.62254	15909.9375
774.50882	16435.5375
778.39237	15551.8375
782.27321	13914.1375
786.15132	12415.8375
790.02671	11573.5375
793.89938	11124.9375
797.76935	10922.1375
801.6366	10842.0375
805.50115	10783.9375
809.36299	10745.2375
813.22213	10706.0375
817.07857	10687.9375
820.93231	10636.5375
824.78336	10607.1375
828.63172	10596.2375
832.47738	10579.0375
836.32036	10557.4375
840.16066	10507.2375
843.99827	10499.1375
847.8332	10509.6375
851.66546	10488.3375
855.49504	10508.6375
859.32195	10485.7375
863.1462	10482.3375
866.96777	10453.4375
870.78668	10468.9375
874.60293	10468.2375
878.41652	10482.7375
882.22745	10559.5375
886.03573	10590.0375
889.84136	10602.1375
893.64433	10543.5375
897.44466	10494.9375
901.24235	10436.5375
905.0374	10393.0375
908.8298	10354.9375
912.61957	10350.0375
916.40671	10387.0375
920.19121	10516.1375
923.97308	10603.6375
927.75233	10590.6375
931.52895	10541.2375
935.30295	10409.0375
939.07433	10187.0375
942.84309	10022.3375
946.60924	9902.1375
950.37278	9876.4375
954.13371	9854.2375
957.89203	9833.6375
961.64774	9823.2375
965.40086	9804.6375
969.15137	9787.2375
972.89929	9724.0375
976.64461	9707.2375
980.38733	9705.3375
984.12747	9721.4375
987.86502	9736.0375
991.59999	9813.8375
995.33237	9887.8375
999.06217	10081.8375
1002.78939	10315.4375
1006.51404	10557.9375
1010.23611	10769.8375
1013.95561	10883.5375
1017.67255	10853.4375
1021.38692	10759.9375
1025.09872	10559.0375
1028.80796	10380.4375
1032.51465	10382.2375
1036.21877	10432.3375
1039.92035	10469.7375
1043.61937	10493.5375
1047.31584	10511.5375
1051.00976	10544.2375
1054.70114	10530.3375
1058.38998	10550.9375
1062.07627	10624.9375
1065.76003	10731.1375
1069.44126	10830.2375
1073.11995	10947.0375
1076.79611	11113.7375
1080.46974	11214.5375
1084.14085	11383.8375
1087.80943	11542.8375
1091.47549	11680.5375
1095.13903	11619.7375
1098.80005	11337.7375
1102.45857	11113.6375
1106.11456	10972.1375
1109.76805	10970.2375
1113.41903	11117.9375
1117.06751	11338.6375
1120.71348	11657.8375
1124.35696	11989.9375
1127.99793	12237.6375
1131.63641	12287.0375
1135.2724	12039.6375
1138.90589	11767.5375
1142.5369	11585.0375
1146.16542	11463.9375
1149.79145	11429.5375
1153.415	11437.3375
1157.03607	11536.9375
1160.65467	11781.0375
1164.27079	12224.4375
1167.88443	12922.4375
1171.49561	13852.2375
1175.10432	15227.6375
1178.71056	16987.7375
1182.31434	18480.0375
1185.91565	19034.5375
1189.51451	18694.2375
1193.11091	17915.7375
1196.70485	16914.5375
1200.29634	15980.2375
1203.88538	15238.8375
1207.47197	14518.3375
1211.05612	13834.9375
1214.63782	13362.4375
1218.21708	13123.3375
1221.79391	13066.8375
1225.36829	13054.4375
1228.94024	12964.8375
1232.50976	12737.5375
1236.07685	12537.1375
1239.6415	12440.1375
1243.20374	12411.7375
1246.76355	12428.6375
1250.32093	12561.6375
1253.8759	12775.3375
1257.42845	13078.0375
1260.97859	13475.8375
1264.52631	13864.4375
1268.07163	14284.4375
1271.61453	14719.0375
1275.15503	15065.6375
1278.69312	15373.1375
1282.22882	15647.1375
1285.76211	16069.3375
1289.29301	16628.0375
1292.82151	17310.8375
1296.34761	18109.1375
1299.87133	19141.1375
1303.39266	20577.3375
1306.9116	22308.2375
1310.42815	24009.5375
1313.94233	24957.5375
1317.45412	24635.8375
1320.96354	23610.1375
1324.47058	22493.8375
1327.97525	21410.0375
1331.47754	20598.5375
1334.97747	20215.1375
1338.47502	20136.7375
1341.97022	20395.0375
1345.46305	20838.3375
1348.95352	21501.3375
1352.44163	22319.7375
1355.92738	23680.5375
1359.41078	25765.8375
1362.89183	27803.1375
1366.37053	27313.1375
1369.84688	24058.7375
1373.32088	20514.0375
1376.79254	18281.8375
1380.26186	17166.1375
1383.72883	16652.3375
1387.19347	16334.1375
1390.65578	15982.0375
1394.11575	15693.0375
1397.57339	15578.3375
1401.0287	15618.8375
1404.48168	15686.5375
1407.93234	15602.4375
1411.38068	15394.7375
1414.82669	15070.1375
1418.27039	14644.6375
1421.71177	14155.0375
1425.15083	13704.4375
1428.58758	13448.6375
1432.02203	13501.6375
1435.45416	13720.1375
1438.88399	13973.7375
1442.31151	14177.0375
1445.73673	14355.4375
1449.15965	14542.3375
1452.58027	14617.9375
1455.9986	14655.8375
1459.41463	14792.3375
1462.82837	15087.7375
1466.23982	15502.5375
1469.64898	15956.7375
1473.05586	16299.7375
1476.46045	16568.4375
1479.86276	16642.4375
1483.26279	16747.6375
1486.66054	16901.6375
1490.05602	17230.1375
1493.44922	17773.5375
1496.84016	18606.0375
1500.22882	19906.5375
1503.61521	21659.1375
1506.99934	23498.1375
1510.38121	24700.8375
1513.76081	24577.3375
1517.13816	23033.1375
1520.51324	20956.3375
1523.88607	19168.7375
1527.25665	18083.7375
1530.62498	17562.5375
1533.99105	17211.4375
1537.35488	16888.0375
1540.71647	16465.4375
1544.07581	16039.2375
1547.4329	15570.0375
1550.78776	15270.4375
1554.14038	15073.1375
1557.49077	15086.1375
1560.83892	15283.1375
1564.18484	15600.9375
1567.52853	15973.7375
1570.86999	16355.0375
1574.20922	16640.3375
1577.54624	16601.7375
1580.88103	16084.2375
1584.2136	15356.1375
1587.54395	15102.2375
1590.87208	15393.9375
1594.19801	16231.6375
1597.52172	17224.9375
1600.84321	17620.4375
1604.16251	17010.8375
1607.47959	15948.1375
1610.79447	14841.7375
1614.10715	13751.6375
1617.41763	12783.2375
1620.7259	12056.2375
1624.03199	11688.7375
1627.33587	11628.1375
1630.63757	11901.7375
1633.93707	12530.6375
1637.23439	13696.5375
1640.52951	15557.8375
1643.82246	17967.7375
1647.11321	20220.7375
1650.40179	21250.5375
1653.68819	20189.8375
1656.97241	17498.3375
1660.25446	14669.4375
1663.53433	12557.3375
1666.81203	11299.8375
1670.08756	10475.8375
1673.36092	9982.7375
1676.63211	9656.1375
1679.90115	9427.3375
1683.16801	9245.3375
1686.43272	9084.2375
1689.69527	9001.3375
1692.95567	8925.6375
1696.2139	8849.5375
1699.46999	8799.2375
1702.72392	8759.4375
1705.97571	8726.3375
1709.22535	8697.7375
1712.47284	8653.6375
1715.71819	8610.1375
1718.96139	8566.3375
1722.20246	8532.1375
1725.44139	8496.4375
1728.67818	8427.3375
1731.91284	8333.8375
1735.14537	8292.2375
1738.37576	8241.1375
1741.60403	8219.6375
1744.83017	8161.3375
1748.05418	8168.7375
1751.27607	8129.0375
1754.49584	8102.4375
1757.71349	8102.4375
1760.92903	8080.4375
1764.14244	8083.5375
1767.35375	8079.3375
1770.56294	8023.1375
1773.77002	8005.7375
1776.97499	7950.1375
1780.17785	7935.1375
1783.37861	7923.8375
1786.57727	7915.2375
1789.77382	7890.2375
1792.96828	7884.6375
1796.16064	7846.1375
1799.3509	7842.1375
1802.53907	7821.4375
1805.72514	7785.3375
1808.90913	7747.8375
1812.09102	7743.2375
1815.27083	7727.2375
1818.44856	7695.0375
1821.6242	7695.2375
1824.79776	7661.5375
1827.96924	7640.5375
1831.13864	7628.8375
1834.30597	7614.1375
1837.47122	7613.8375
1840.6344	7594.4375
1843.7955	7587.9375
1846.95454	7566.1375
1850.11151	7580.7375
1853.26642	7580.2375
1856.41926	7550.0375
1859.57004	7554.8375
1862.71876	7539.3375
1865.86542	7531.6375
1869.01003	7526.8375
1872.15258	7502.9375
1875.29308	7496.6375
1878.43152	7484.7375
1881.56792	7480.9375
1884.70227	7495.5375
1887.83457	7477.4375
1890.96482	7475.4375
1894.09304	7455.5375
1897.21921	7454.9375
1900.34335	7415.9375
1903.46544	7420.1375
1906.58551	7415.7375
1909.70353	7418.7375
1912.81953	7398.4375
1915.93349	7377.2375
1919.04543	7356.9375
1922.15534	7347.9375
1925.26322	7339.8375
1928.36908	7310.9375
1931.47292	7287.6375
1934.57473	7274.8375
1937.67453	7262.9375
1940.77232	7241.4375
1943.86808	7225.8375
1946.96184	7203.7375
1950.05358	7170.9375
1953.14331	7155.0375
1956.23103	7130.8375
1959.31675	7087.4375
1962.40046	7056.2375
1965.48217	7055.9375
1968.56188	7046.2375
1971.63959	7020.9375
1974.7153	7002.8375
1977.78901	6980.0375
1980.86073	6981.1375
1983.93046	6921.7375
1986.99819	6881.2375
1990.06394	6868.9375
1993.1277	6840.8375
1996.18947	6839.9375
1999.24925	6837.5375
2002.30706	6801.6375
2005.36288	6776.3375
2008.41672	6724.5375
2011.46859	6725.8375
2014.51848	6718.1375
2017.56639	6671.0375
2020.61233	6657.0375
2023.6563	6647.9375
2026.6983	6608.5375
2029.73833	6582.0375
2032.7764	6596.2375
2035.8125	6567.1375
2038.84664	6541.7375
2041.87881	6535.6375
2044.90903	6553.0375
2047.93729	6504.6375
2050.96359	6504.8375
2053.98794	6484.8375
2057.01034	6479.7375
2060.03078	6460.6375
2063.04927	6452.2375
2066.06582	6454.0375
2069.08042	6444.5375
2072.09307	6462.4375
2075.10378	6439.7375
2078.11255	6437.7375
2081.11938	6434.0375
2084.12426	6455.8375
2087.12722	6440.4375
2090.12824	6431.2375
2093.12732	6416.8375
2096.12447	6424.6375
2099.11969	6417.4375
2102.11299	6428.8375
2105.10435	6419.7375
2108.09379	6423.5375
2111.08131	6419.7375
2114.0669	6422.9375
2117.05057	6441.5375
2120.03233	6429.4375
2123.01216	6440.0375
2125.99008	6439.5375
2128.96609	6423.2375
2131.94018	6428.9375
2134.91236	6423.5375
2137.88263	6447.6375
2140.851	6460.6375
2143.81746	6452.1375
2146.78201	6445.6375
2149.74466	6431.1375
2152.7054	6433.4375
2155.66425	6420.9375
2158.6212	6416.8375
2161.57625	6404.1375
2164.52941	6382.9375
2167.48067	6391.1375
2170.43004	6406.3375
2173.37752	6379.3375
2176.32311	6395.3375
2179.26681	6364.0375
2182.20863	6369.1375
2185.14856	6390.2375
2188.08661	6393.8375
2191.02278	6377.8375
2193.95707	6375.0375
2196.88948	6363.1375
2199.82001	6357.2375
2202.74867	6344.0375
2205.67545	6341.8375
2208.60037	6348.5375
2211.52341	6314.8375
2214.44458	6305.2375
2217.36388	6289.5375
2220.28132	6301.4375
2223.1969	6282.0375
2226.11061	6267.7375
2229.02246	6262.0375
2231.93245	6228.7375
2234.84058	6231.4375
2237.74686	6232.6375
2240.65128	6228.9375
2243.55385	6207.0375
2246.45456	6203.6375
2249.35343	6195.6375
2252.25044	6163.5375
2255.14561	6172.1375
2258.03893	6164.7375
2260.93041	6146.2375
2263.82004	6132.1375
2266.70783	6106.7375
2269.59378	6104.1375
2272.4779	6077.5375
2275.36017	6083.6375
2278.24061	6048.2375
2281.11922	6052.6375
2283.996	6021.3375
2286.87094	6020.4375
2289.74405	6007.1375
2292.61534	5998.4375
2295.4848	6016.2375
2298.35243	5980.0375
2301.21824	5981.6375
2304.08223	5978.3375
2306.94439	5972.9375
2309.80474	5991.5375
2312.66327	5964.9375
2315.51999	5969.7375
2318.37489	5960.2375
2321.22797	5947.6375
2324.07925	5957.4375
2326.92871	5947.0375
2329.77637	5941.9375
2332.62222	5946.8375
2335.46626	5906.1375
2338.3085	5917.5375
2341.14893	5919.3375
2343.98756	5925.3375
2346.8244	5905.5375
2349.65943	5918.9375
2352.49267	5906.3375
2355.32411	5911.3375
2358.15376	5925.0375
2360.98161	5934.1375
2363.80768	5917.8375
2366.63195	5922.1375
2369.45444	5921.7375
2372.27514	5921.6375
2375.09405	5913.8375
2377.91118	5896.8375
2380.72652	5882.5375
2383.54009	5844.5375
2386.35187	5842.3375
2389.16188	5827.6375
2391.97011	5815.2375
2394.77657	5782.8375
2397.58125	5774.3375
2400.38416	5756.9375
2403.18529	5766.6375
2405.98466	5754.4375
2408.78226	5719.4375
2411.57809	5720.5375
2414.37216	5713.6375
2417.16446	5705.6375
2419.955	5705.6375
2422.74378	5702.7375
2425.5308	5699.2375
2428.31606	5688.7375
2431.09956	5700.9375
2433.88131	5684.1375
2436.6613	5685.6375
2439.43954	5696.2375
2442.21603	5677.4375
2444.99077	5663.9375
2447.76377	5656.8375
2450.53501	5688.4375
2453.30451	5674.4375
2456.07226	5680.2375
2458.83827	5639.0375
2461.60254	5666.3375
2464.36507	5651.4375
2467.12586	5645.4375
2469.88492	5654.0375
2472.64224	5650.1375
2475.39782	5656.0375
2478.15167	5678.4375
2480.90379	5671.8375
2483.65417	5679.8375
2486.40283	5682.5375
2489.14976	5688.3375
2491.89497	5707.7375
2494.63845	5703.1375
2497.3802	5690.7375
2500.12024	5676.5375
2502.85855	5655.0375
2505.59514	5655.3375
2508.33002	5648.9375
2511.06318	5639.9375
2513.79462	5624.8375
2516.52435	5595.2375
2519.25237	5594.9375
2521.97867	5582.1375
2524.70327	5597.4375
2527.42616	5578.0375
2530.14734	5557.3375
2532.86681	5567.4375
2535.58458	5569.8375
2538.30065	5562.5375
2541.01501	5553.3375
2543.72768	5532.7375
2546.43864	5551.4375
2549.14791	5536.9375
2551.85548	5525.5375
2554.56136	5520.8375
2557.26554	5484.3375
2559.96803	5500.0375
2562.66883	5488.2375
2565.36794	5486.4375
2568.06536	5497.5375
2570.7611	5460.0375
2573.45514	5468.3375
2576.14751	5468.2375
2578.83819	5460.2375
2581.52719	5459.5375
2584.21451	5436.6375
2586.90015	5431.7375
2589.58411	5431.0375
2592.2664	5430.8375
2594.94701	5432.1375
2597.62594	5418.4375
2600.30321	5402.4375
2602.9788	5408.3375
2605.65273	5403.5375
2608.32498	5397.9375
2610.99557	5384.6375
2613.66449	5380.0375
2616.33175	5402.2375
2618.99734	5405.3375
2621.66128	5394.4375
2624.32355	5394.2375
2626.98416	5369.9375
2629.64311	5365.6375
2632.30041	5371.5375
2634.95605	5382.3375
2637.61004	5373.3375
2640.26238	5359.7375
2642.91306	5359.7375
2645.56209	5336.4375
2648.20948	5346.7375
2650.85521	5332.2375
2653.4993	5347.8375
2656.14175	5356.4375
2658.78255	5353.2375
2661.42171	5353.6375
2664.05923	5377.8375
2666.6951	5370.7375
2669.32934	5385.7375
2671.96194	5377.0375
2674.59291	5374.7375
2677.22224	5367.8375
2679.84993	5376.5375
2682.476	5362.3375
2685.10043	5344.2375
2687.72324	5341.5375
2690.34441	5356.9375
2692.96396	5350.8375
2695.58188	5357.5375
2698.19818	5359.2375
2700.81285	5343.0375
2703.4259	5353.3375
2706.03733	5359.9375
2708.64714	5345.6375
2711.25533	5344.1375
2713.86191	5365.0375
2716.46687	5370.2375
2719.07021	5368.1375
2721.67194	5377.8375
2724.27206	5395.2375
2726.87057	5379.4375
2729.46747	5383.8375
2732.06276	5369.0375
2734.65644	5374.6375
2737.24852	5384.7375
2739.83899	5361.9375
2742.42786	5355.8375
2745.01513	5334.7375
2747.60079	5331.6375
2750.18486	5327.3375
2752.76733	5317.7375
2755.3482	5309.7375
2757.92747	5317.4375
2760.50515	5305.8375
2763.08123	5303.9375
2765.65573	5299.8375
2768.22863	5310.9375
2770.79994	5286.8375
2773.36967	5304.1375
2775.9378	5290.2375
2778.50435	5283.6375
2781.06932	5281.9375
2783.6327	5290.4375
2786.1945	5298.9375
2788.75471	5295.6375
2791.31335	5258.8375
2793.87041	5277.3375
2796.42589	5277.8375
2798.97979	5264.4375
2801.53212	5255.1375
2804.08288	5261.5375
2806.63206	5226.4375
2809.17967	5237.4375
2811.72571	5219.9375
2814.27018	5224.5375
2816.81308	5216.4375
2819.35442	5204.7375
2821.89419	5210.3375
2824.43239	5207.1375
2826.96904	5190.4375
2829.50412	5177.9375
2832.03763	5193.3375
2834.56959	5178.6375
2837.1	5183.7375
2839.62884	5181.2375
2842.15613	5181.8375
2844.68186	5196.6375
2847.20604	5199.5375
2849.72867	5200.8375
2852.24974	5200.6375
2854.76927	5205.8375
2857.28724	5189.4375
2859.80367	5206.8375
2862.31855	5201.3375
2864.83189	5200.8375
2867.34368	5195.7375
2869.85393	5178.5375
2872.36264	5193.3375
2874.8698	5185.2375
2877.37543	5184.3375
2879.87952	5191.4375
2882.38207	5179.4375
2884.88308	5197.2375
2887.38256	5176.2375
2889.88051	5175.1375
2892.37692	5193.3375
2894.8718	5188.3375
2897.36515	5196.2375
2899.85698	5198.7375
2902.34727	5173.0375
2904.83604	5181.7375
2907.32328	5227.1375
2909.809	5213.4375
2912.29319	5226.7375
2914.77587	5215.9375
2917.25702	5223.9375
2919.73665	5198.0375
2922.21476	5206.4375
2924.69136	5196.5375
2927.16644	5203.0375
2929.64	5176.2375
2932.11205	5174.3375
2934.58258	5166.0375
2937.05161	5157.8375
2939.51912	5151.9375
2941.98513	5148.0375
2944.44962	5133.0375
2946.91261	5093.8375
2949.37409	5124.0375
2951.83407	5113.9375
2954.29254	5112.2375
2956.74951	5123.8375
2959.20498	5113.7375
2961.65895	5117.6375
2964.11142	5086.7375
2966.56239	5089.4375
2969.01186	5090.5375
2971.45984	5073.7375
2973.90632	5056.2375
2976.35131	5054.5375
2978.7948	5026.9375
2981.23681	5021.5375
2983.67732	5030.7375
2986.11635	4999.5375
2988.55388	4981.1375
2990.98993	4978.8375
2993.4245	4974.1375
2995.85758	4959.5375
2998.28917	4956.0375
3000.71928	4956.1375
3003.14791	4938.9375
3005.57506	4947.9375
3008.00073	4939.4375
3010.42493	4939.1375
3012.84764	4908.5375
3015.26888	4918.4375
3017.68865	4907.9375
3020.10694	4906.9375
3022.52376	4907.1375
3024.9391	4880.3375
3027.35298	4873.3375
3029.76539	4866.6375
3032.17632	4875.3375
3034.5858	4870.8375
3036.9938	4865.1375
3039.40034	4844.4375
3041.80542	4857.0375
3044.20903	4850.7375
3046.61118	4846.0375
3049.01187	4833.8375
3051.4111	4843.7375
3053.80888	4835.4375
3056.20519	4803.2375
3058.60005	4780.3375
3060.99345	4790.0375
3063.3854	4788.3375
3065.7759	4762.8375
3068.16494	4764.7375
3070.55254	4746.7375
3072.93868	4749.8375
3075.32338	4743.7375
3077.70662	4746.0375
3080.08842	4728.2375
3082.46878	4732.1375
3084.84769	4721.2375
3087.22515	4721.0375
3089.60118	4728.5375
3091.97576	4729.2375
3094.3489	4718.7375
3096.72061	4711.2375
3099.09087	4700.7375
3101.4597	4705.6375
3103.82709	4719.6375
3106.19305	4724.0375
3108.55757	4699.7375
3110.92066	4716.5375
3113.28232	4709.3375
3115.64255	4696.1375
3118.00134	4692.1375
3120.35871	4679.7375
3122.71466	4670.3375
3125.06917	4656.9375
3127.42226	4670.3375
3129.77393	4652.7375
3132.12417	4661.8375
3134.47299	4663.1375
3136.82039	4654.0375
3139.16636	4657.6375
3141.51092	4652.1375
3143.85406	4654.0375
3146.19579	4651.2375
3148.53609	4663.2375
3150.87499	4688.4375
3153.21246	4685.9375
3155.54853	4719.0375
3157.88318	4710.6375
3160.21642	4699.1375
3162.54826	4701.9375
3164.87868	4692.0375
3167.2077	4691.4375
3169.5353	4693.7375
3171.86151	4712.1375
3174.18631	4705.1375
3176.5097	4720.2375
3178.83169	4694.2375
3181.15228	4700.1375
3183.47147	4690.0375
3185.78926	4697.9375
3188.10565	4690.5375
3190.42065	4685.8375
3192.73424	4690.9375
3195.04645	4685.3375
3197.35725	4685.8375
3199.66667	4692.6375
3201.97469	4711.2375
3204.28132	4690.1375
3206.58656	4713.2375
3208.8904	4696.5375
3211.19287	4693.6375
3213.49394	4723.7375
3215.79363	4713.0375
3218.09193	4720.3375
3220.38884	4730.7375
3222.68438	4721.7375
3224.97853	4742.5375
3227.2713	4725.5375
3229.56269	4709.2375
3231.8527	4732.7375
3234.14133	4708.4375
3236.42858	4710.2375
3238.71446	4713.2375
3240.99896	4687.8375
3243.28209	4685.9375
3245.56384	4686.6375
3247.84423	4677.2375
3250.12324	4679.3375
3252.40088	4678.6375
3254.67715	4668.3375
3256.95205	4654.3375
3259.22558	4662.9375
3261.49775	4669.2375
3263.76855	4653.1375
3266.03799	4636.9375
3268.30606	4649.1375
3270.57277	4646.1375
3272.83812	4635.4375
3275.10211	4630.8375
3277.36474	4637.2375
3279.62601	4626.9375
3281.88593	4614.8375
3284.14448	4638.6375
3286.40168	4622.5375
3288.65753	4635.8375
3290.91202	4623.0375
3293.16516	4618.5375
3295.41695	4589.9375
3297.66738	4572.7375
3299.91647	4563.6375
3302.16421	4547.5375
3304.4106	4514.9375
3306.65564	4514.7375
3308.89933	4476.9375
3311.14169	4438.9375
3313.38269	4407.6375
3315.62236	4388.2375
3317.86068	4345.6375
3320.09766	4318.8375
3322.3333	4281.2375
3324.5676	4273.0375
3326.80056	4206.0375
3329.03219	4193.4375
3331.26248	2.2375
3333.49143	-0.1625
3335.71905	0.3375
