Data from AgNP_FTO_APTES_UA_100uM_CRN_0uM_R6G_10uM_NaF_0.1M_Addition_RamanShift__23__11-12-00-111.txt Node

Date: Thu Mar 24 11:12:00 GMT 2022
User: TCL
Spectrometer: QEP01345
Trigger mode: 4
Integration Time (sec): 7.000000E0
Scans to average: 10
Electric dark correction enabled: true
Nonlinearity correction enabled: false
Boxcar width: 0
XAxis mode: Raman Shifts
Number of Pixels in Spectrum: 1044
>>>>>Begin Spectral Data<<<<<
46.04893	-1.6
50.45542	0.1
54.85868	-0.4
59.25871	-0.3
63.6555	38.3
68.04907	40.3
72.43941	39.4
76.82654	39.8
81.21044	44.1
85.59113	44.8
89.96862	48.4
94.34289	47.4
98.71396	53.8
103.08183	49.2
107.4465	52.4
111.80798	54
116.16626	50.9
120.52136	56.3
124.87327	57.5
129.222	60.8
133.56755	65.6
137.90993	65.8
142.24913	77.2
146.58517	85.9
150.91804	97.9
155.24774	115.3
159.57429	143.7
163.89768	187
168.21792	248.8
172.53501	340.7
176.84895	475.6
181.15975	671.1
185.46741	935.4
189.77193	1292
194.07331	1729.7
198.37157	2230.4
202.6667	2767.2
206.9587	3283.1
211.24758	3791.4
215.53334	4324.4
219.81599	4876.4
224.09553	5504.7
228.37195	6190.3
232.64527	6970.4
236.91549	7760.9
241.18261	8555.3
245.44663	9287.2
249.70755	9835
253.96539	10309.4
258.22014	10651
262.4718	10938.6
266.72039	11091.4
270.96589	11127.9
275.20832	11088.2
279.44768	10961.9
283.68397	10811.9
287.91719	10670.8
292.14735	10617
296.37445	10554.2
300.59849	10645.1
304.81948	10738.4
309.03742	10837.8
313.25231	10934.3
317.46415	10857.1
321.67296	10691.1
325.87872	10561.9
330.08145	10476.8
334.28114	10437.9
338.47781	10465.3
342.67145	10568.6
346.86207	10779.4
351.04966	11012
355.23424	11219.3
359.4158	11376.9
363.59435	11428.9
367.76989	11439.9
371.94243	11387.3
376.11196	11322
380.27849	11324.3
384.44203	11359
388.60257	11429.1
392.76012	11535.4
396.91468	11681.6
401.06626	11864.5
405.21485	11973.8
409.36047	11777.2
413.50311	11481.7
417.64277	11234
421.77947	11202.5
425.9132	11256.7
430.04396	11308.4
434.17176	11361.2
438.2966	11486.6
442.41849	11734
446.53742	12125.7
450.6534	12593.1
454.76644	12805.5
458.87653	12775.4
462.98368	12643.8
467.08789	12464.8
471.18916	12223.2
475.2875	11927.3
479.38291	11706.6
483.4754	11513
487.56496	11348.4
491.6516	11239.2
495.73531	11085.5
499.81612	11001.1
503.89401	11046.6
507.96899	11110.4
512.04106	11072.4
516.11023	11019.2
520.1765	10927.4
524.23987	10943.9
528.30034	10962.3
532.35792	10908.7
536.41261	10688.5
540.46441	10430.1
544.51333	10270.1
548.55936	10294.8
552.60252	10519.8
556.64279	10906.5
560.6802	11253.8
564.71473	11380
568.7464	11616.9
572.7752	12157.3
576.80114	12798.4
580.82422	13313.1
584.84444	13996.2
588.86181	15233.4
592.87633	16956.3
596.888	17895.3
600.89682	16904.7
604.9028	15383.7
608.90594	15499.8
612.90624	16453.5
616.90371	15362.5
620.89834	12447.2
624.89015	10999.6
628.87913	10838.4
632.86528	11039.1
636.84862	11056.6
640.82913	10728.8
644.80683	10283.5
648.78172	10027.2
652.75379	10011
656.72306	10206.4
660.68952	10438.2
664.65319	10352.9
668.61405	10039.9
672.57211	9915.6
676.52738	9929.2
680.47986	9963.1
684.42955	9872.4
688.37646	9768.5
692.32058	9822.9
696.26192	9966.4
700.20048	10200.7
704.13626	10341.8
708.06928	10431.9
711.99952	10454.1
715.927	10431.8
719.85171	10415.6
723.77365	10355.6
727.69284	10085.8
731.60928	9935.4
735.52295	9923.4
739.43388	10007
743.34206	10124.2
747.24749	10217.1
751.15017	10388.1
755.05012	10591.9
758.94733	10997.2
762.8418	11787.4
766.73354	13104.7
770.62254	14364.2
774.50882	14573.5
778.39237	13705.4
782.27321	12450.2
786.15132	11390.3
790.02671	10680.8
793.89938	10272
797.76935	10041.8
801.6366	9923.1
805.50115	9831.8
809.36299	9736.2
813.22213	9658.4
817.07857	9613
820.93231	9567.2
824.78336	9511.7
828.63172	9497.7
832.47738	9455.3
836.32036	9474.5
840.16066	9456.7
843.99827	9461.5
847.8332	9469
851.66546	9493.4
855.49504	9511.6
859.32195	9503.4
863.1462	9452
866.96777	9400.1
870.78668	9379.6
874.60293	9375.5
878.41652	9400.1
882.22745	9458.3
886.03573	9513.3
889.84136	9516.6
893.64433	9520.1
897.44466	9498.1
901.24235	9503.8
905.0374	9467.3
908.8298	9419.2
912.61957	9383.8
916.40671	9457.7
920.19121	9647
923.97308	9877
927.75233	10041
931.52895	9909.3
935.30295	9591.8
939.07433	9236.7
942.84309	9010.6
946.60924	8900.3
950.37278	8845.4
954.13371	8861.4
957.89203	8847.9
961.64774	8840
965.40086	8848
969.15137	8838.3
972.89929	8825.3
976.64461	8766.4
980.38733	8751.5
984.12747	8728.5
987.86502	8773
991.59999	8808.1
995.33237	8909.2
999.06217	9126
1002.78939	9383.5
1006.51404	9728.8
1010.23611	10019.4
1013.95561	10226.2
1017.67255	10230.6
1021.38692	10016.1
1025.09872	9672.3
1028.80796	9383.7
1032.51465	9279
1036.21877	9282.6
1039.92035	9323
1043.61937	9394.8
1047.31584	9458.2
1051.00976	9522.3
1054.70114	9569.9
1058.38998	9591.6
1062.07627	9635.3
1065.76003	9751.3
1069.44126	9912.1
1073.11995	10210.6
1076.79611	10460.9
1080.46974	10596.7
1084.14085	10799.5
1087.80943	11014.7
1091.47549	11178.8
1095.13903	11146.7
1098.80005	10841.4
1102.45857	10438.7
1106.11456	10209.6
1109.76805	10129.1
1113.41903	10218.8
1117.06751	10358.4
1120.71348	10555.9
1124.35696	10829.5
1127.99793	11081.6
1131.63641	11148.5
1135.2724	11085.4
1138.90589	10966.2
1142.5369	10963.6
1146.16542	11059.5
1149.79145	11290.7
1153.415	11533.3
1157.03607	11688.3
1160.65467	11895.2
1164.27079	12329.7
1167.88443	13055.3
1171.49561	14136.2
1175.10432	15583.3
1178.71056	17405.9
1182.31434	18972.9
1185.91565	19570.9
1189.51451	19032.6
1193.11091	18125.3
1196.70485	17080.6
1200.29634	16023.2
1203.88538	15152.8
1207.47197	14597.7
1211.05612	14251.2
1214.63782	14024.2
1218.21708	13828.6
1221.79391	13780.8
1225.36829	13914.5
1228.94024	14013.6
1232.50976	13707.9
1236.07685	13207.6
1239.6415	12809.8
1243.20374	12546
1246.76355	12490.5
1250.32093	12570.7
1253.8759	12809.5
1257.42845	13231.6
1260.97859	13779.6
1264.52631	14374.4
1268.07163	14951.5
1271.61453	15486.5
1275.15503	16065
1278.69312	16692.2
1282.22882	17578.5
1285.76211	18642.9
1289.29301	19865
1292.82151	21105.9
1296.34761	22460.6
1299.87133	24018
1303.39266	25658.6
1306.9116	27196.2
1310.42815	28360.3
1313.94233	28785.7
1317.45412	28086.7
1320.96354	26660.5
1324.47058	25329.5
1327.97525	24162.3
1331.47754	23311.8
1334.97747	22690.9
1338.47502	22278.6
1341.97022	21963
1345.46305	21895.7
1348.95352	22134.5
1352.44163	22795.1
1355.92738	24335.4
1359.41078	26548.8
1362.89183	28675.1
1366.37053	29046.7
1369.84688	26522.3
1373.32088	22727.6
1376.79254	19980.5
1380.26186	18856.9
1383.72883	18372.2
1387.19347	17977.6
1390.65578	17504.3
1394.11575	17359.8
1397.57339	17522.7
1401.0287	17673.3
1404.48168	17769.1
1407.93234	17473.8
1411.38068	16980.6
1414.82669	16404.7
1418.27039	15780
1421.71177	15240.6
1425.15083	14778
1428.58758	14556.2
1432.02203	14679.2
1435.45416	14908.4
1438.88399	15112.3
1442.31151	15255.6
1445.73673	15381.1
1449.15965	15553.9
1452.58027	15663.6
1455.9986	15655.9
1459.41463	15789.7
1462.82837	16175
1466.23982	16680.3
1469.64898	17147.8
1473.05586	17490.2
1476.46045	17694.2
1479.86276	17855.9
1483.26279	17991.6
1486.66054	18211.2
1490.05602	18729.7
1493.44922	19421.5
1496.84016	20095.8
1500.22882	20780.9
1503.61521	21379.4
1506.99934	22016.4
1510.38121	22386.2
1513.76081	22252
1517.13816	21536
1520.51324	20691.7
1523.88607	20095.9
1527.25665	19875.7
1530.62498	19757.2
1533.99105	19476.6
1537.35488	18823.7
1540.71647	18021.4
1544.07581	17154.3
1547.4329	16362.8
1550.78776	15764.1
1554.14038	15436.8
1557.49077	15350.3
1560.83892	15367.6
1564.18484	15535.9
1567.52853	15820.8
1570.86999	16132
1574.20922	16452.5
1577.54624	16600.6
1580.88103	16352.7
1584.2136	16113
1587.54395	16444
1590.87208	17338.8
1594.19801	18730.3
1597.52172	20053.2
1600.84321	20360.5
1604.16251	19178.8
1607.47959	17243.9
1610.79447	15287.6
1614.10715	13648.5
1617.41763	12448
1620.7259	11763.5
1624.03199	11421.3
1627.33587	11503.3
1630.63757	11988.6
1633.93707	13033.7
1637.23439	14977.4
1640.52951	17985.7
1643.82246	21898.8
1647.11321	25284.2
1650.40179	26016.3
1653.68819	23571.5
1656.97241	19402.9
1660.25446	15508
1663.53433	12780.4
1666.81203	11109.9
1670.08756	10152.7
1673.36092	9573.9
1676.63211	9223.1
1679.90115	8945
1683.16801	8757.8
1686.43272	8602.7
1689.69527	8507.3
1692.95567	8423.4
1696.2139	8364.8
1699.46999	8308.3
1702.72392	8246.7
1705.97571	8235.2
1709.22535	8213.2
1712.47284	8190.3
1715.71819	8184.6
1718.96139	8122.6
1722.20246	8096.9
1725.44139	8048.1
1728.67818	7977.8
1731.91284	7941
1735.14537	7840.9
1738.37576	7812.7
1741.60403	7768.8
1744.83017	7733.3
1748.05418	7691.1
1751.27607	7666.9
1754.49584	7659.2
1757.71349	7636.2
1760.92903	7622.5
1764.14244	7595.1
1767.35375	7609
1770.56294	7577.2
1773.77002	7559.1
1776.97499	7555.9
1780.17785	7518.1
1783.37861	7525.6
1786.57727	7495.4
1789.77382	7445
1792.96828	7435
1796.16064	7428.7
1799.3509	7418.5
1802.53907	7372
1805.72514	7369.2
1808.90913	7344.7
1812.09102	7338
1815.27083	7292.2
1818.44856	7275.5
1821.6242	7271.9
1824.79776	7260.6
1827.96924	7259
1831.13864	7250.7
1834.30597	7238.5
1837.47122	7233.8
1840.6344	7231.2
1843.7955	7245.3
1846.95454	7229.9
1850.11151	7227.5
1853.26642	7230.5
1856.41926	7236.1
1859.57004	7224.2
1862.71876	7229
1865.86542	7236.1
1869.01003	7226.7
1872.15258	7220.2
1875.29308	7223.5
1878.43152	7238.4
1881.56792	7234.5
1884.70227	7250.9
1887.83457	7237.4
1890.96482	7251.3
1894.09304	7255
1897.21921	7270.6
1900.34335	7262.1
1903.46544	7270.2
1906.58551	7243
1909.70353	7235.8
1912.81953	7220.5
1915.93349	7197.1
1919.04543	7174.5
1922.15534	7140.2
1925.26322	7111.2
1928.36908	7104.4
1931.47292	7061.4
1934.57473	7049.9
1937.67453	7010.6
1940.77232	6997
1943.86808	6977.8
1946.96184	6951.1
1950.05358	6928.5
1953.14331	6904.6
1956.23103	6910.7
1959.31675	6890.5
1962.40046	6864.4
1965.48217	6844.5
1968.56188	6804.7
1971.63959	6789.3
1974.7153	6756.8
1977.78901	6728.8
1980.86073	6674.7
1983.93046	6652.1
1986.99819	6591.4
1990.06394	6571.8
1993.1277	6567.9
1996.18947	6561.2
1999.24925	6522.4
2002.30706	6518.9
2005.36288	6485.8
2008.41672	6485.5
2011.46859	6479.4
2014.51848	6477
2017.56639	6461.2
2020.61233	6448
2023.6563	6427.9
2026.6983	6421.4
2029.73833	6381.9
2032.7764	6375.2
2035.8125	6346.5
2038.84664	6343
2041.87881	6315.9
2044.90903	6287.8
2047.93729	6236
2050.96359	6247.4
2053.98794	6226.8
2057.01034	6207.4
2060.03078	6195.9
2063.04927	6221.8
2066.06582	6216.2
2069.08042	6238.9
2072.09307	6249.5
2075.10378	6243.5
2078.11255	6262.2
2081.11938	6291.3
2084.12426	6294.8
2087.12722	6308
2090.12824	6304.5
2093.12732	6326.9
2096.12447	6331.1
2099.11969	6316
2102.11299	6317.3
2105.10435	6309.3
2108.09379	6314.7
2111.08131	6290.5
2114.0669	6271.8
2117.05057	6265.6
2120.03233	6266.6
2123.01216	6239.5
2125.99008	6233.1
2128.96609	6221.7
2131.94018	6221.6
2134.91236	6206.9
2137.88263	6205.9
2140.851	6205.4
2143.81746	6222.9
2146.78201	6191
2149.74466	6196.4
2152.7054	6201.7
2155.66425	6178.8
2158.6212	6154.9
2161.57625	6149.5
2164.52941	6118.9
2167.48067	6109.6
2170.43004	6080.8
2173.37752	6065.5
2176.32311	6038.4
2179.26681	6032.4
2182.20863	6012.1
2185.14856	6002.8
2188.08661	6007.4
2191.02278	5997.1
2193.95707	5993.4
2196.88948	5974.6
2199.82001	5957.1
2202.74867	5947.8
2205.67545	5942.1
2208.60037	5910.5
2211.52341	5906.2
2214.44458	5876.9
2217.36388	5879.2
2220.28132	5877.3
2223.1969	5851.3
2226.11061	5827.5
2229.02246	5836.8
2231.93245	5831.2
2234.84058	5829.8
2237.74686	5844.2
2240.65128	5835.6
2243.55385	5834.8
2246.45456	5815.3
2249.35343	5796.1
2252.25044	5770.8
2255.14561	5750.8
2258.03893	5732.2
2260.93041	5729.6
2263.82004	5698.5
2266.70783	5696.2
2269.59378	5669.3
2272.4779	5655.3
2275.36017	5656.5
2278.24061	5640.2
2281.11922	5637
2283.996	5617
2286.87094	5609.6
2289.74405	5587.3
2292.61534	5592.4
2295.4848	5577
2298.35243	5579.2
2301.21824	5561.2
2304.08223	5551.2
2306.94439	5547.1
2309.80474	5547.3
2312.66327	5543.5
2315.51999	5533.1
2318.37489	5523.6
2321.22797	5506.2
2324.07925	5506.9
2326.92871	5497.8
2329.77637	5502.2
2332.62222	5490.6
2335.46626	5481.8
2338.3085	5463.6
2341.14893	5462.1
2343.98756	5474.3
2346.8244	5440.7
2349.65943	5464
2352.49267	5462.6
2355.32411	5490.7
2358.15376	5466.4
2360.98161	5465.5
2363.80768	5457.2
2366.63195	5463.4
2369.45444	5463.4
2372.27514	5450.3
2375.09405	5429.5
2377.91118	5424.5
2380.72652	5421.6
2383.54009	5406.9
2386.35187	5407.3
2389.16188	5383.7
2391.97011	5367.1
2394.77657	5357.9
2397.58125	5364.8
2400.38416	5365.8
2403.18529	5336.3
2405.98466	5320.9
2408.78226	5304.9
2411.57809	5307.2
2414.37216	5293.4
2417.16446	5291.8
2419.955	5280.1
2422.74378	5296.7
2425.5308	5276.9
2428.31606	5284.5
2431.09956	5277.6
2433.88131	5263.3
2436.6613	5259.5
2439.43954	5252.1
2442.21603	5262.6
2444.99077	5244.2
2447.76377	5267.8
2450.53501	5258.8
2453.30451	5257.9
2456.07226	5269.2
2458.83827	5263.6
2461.60254	5257.1
2464.36507	5264.8
2467.12586	5245.9
2469.88492	5252
2472.64224	5260.5
2475.39782	5232.7
2478.15167	5250.9
2480.90379	5246.8
2483.65417	5246.1
2486.40283	5238.7
2489.14976	5225
2491.89497	5228.3
2494.63845	5238.2
2497.3802	5231.5
2500.12024	5237.7
2502.85855	5229.5
2505.59514	5231.1
2508.33002	5209.9
2511.06318	5200.4
2513.79462	5195.5
2516.52435	5195.5
2519.25237	5184.4
2521.97867	5165.5
2524.70327	5151.5
2527.42616	5165.9
2530.14734	5159.4
2532.86681	5128.4
2535.58458	5130.8
2538.30065	5140.7
2541.01501	5157
2543.72768	5143.4
2546.43864	5134.8
2549.14791	5110.8
2551.85548	5104.3
2554.56136	5129.7
2557.26554	5110.1
2559.96803	5120
2562.66883	5106.6
2565.36794	5113.6
2568.06536	5077
2570.7611	5089.3
2573.45514	5073
2576.14751	5069.5
2578.83819	5059
2581.52719	5070.1
2584.21451	5063.5
2586.90015	5049.9
2589.58411	5041.4
2592.2664	5051.9
2594.94701	5025.2
2597.62594	5025.3
2600.30321	5023.4
2602.9788	5018.8
2605.65273	5011.1
2608.32498	5012.9
2610.99557	5005.3
2613.66449	5002.1
2616.33175	5012.3
2618.99734	5000.8
2621.66128	4996.6
2624.32355	4995.7
2626.98416	4987.8
2629.64311	5002.1
2632.30041	4981.9
2634.95605	4976.2
2637.61004	4968.2
2640.26238	4953.2
2642.91306	4957.9
2645.56209	4960.3
2648.20948	4976.5
2650.85521	4978.8
2653.4993	4955.5
2656.14175	4972.8
2658.78255	4983
2661.42171	4964.9
2664.05923	4981.5
2666.6951	4988.4
2669.32934	4988.7
2671.96194	4991.1
2674.59291	4993.3
2677.22224	5007.7
2679.84993	4987.2
2682.476	4984.6
2685.10043	4993.7
2687.72324	4962.1
2690.34441	4979.9
2692.96396	4984.9
2695.58188	4962.8
2698.19818	4985.6
2700.81285	4962.4
2703.4259	4989.8
2706.03733	4973.8
2708.64714	4958
2711.25533	4987.8
2713.86191	4980.8
2716.46687	4992.8
2719.07021	4988.2
2721.67194	4988.3
2724.27206	4996.8
2726.87057	5013.6
2729.46747	4997.3
2732.06276	5003.4
2734.65644	4995.2
2737.24852	5003.8
2739.83899	4976.7
2742.42786	4987.5
2745.01513	4959.7
2747.60079	4962.5
2750.18486	4956.2
2752.76733	4967.8
2755.3482	4970.4
2757.92747	4971.2
2760.50515	4957.6
2763.08123	4960.8
2765.65573	4958.5
2768.22863	4942.6
2770.79994	4937.3
2773.36967	4942.8
2775.9378	4958.1
2778.50435	4936.8
2781.06932	4934.1
2783.6327	4930.7
2786.1945	4927.9
2788.75471	4938.5
2791.31335	4915.6
2793.87041	4915.6
2796.42589	4897.4
2798.97979	4919.3
2801.53212	4888.6
2804.08288	4894.8
2806.63206	4892.2
2809.17967	4886.8
2811.72571	4871.1
2814.27018	4864.2
2816.81308	4857.1
2819.35442	4855.3
2821.89419	4864.8
2824.43239	4848.6
2826.96904	4859.5
2829.50412	4859
2832.03763	4854.6
2834.56959	4849.6
2837.1	4843.1
2839.62884	4841.7
2842.15613	4839.4
2844.68186	4850.3
2847.20604	4852.1
2849.72867	4869.4
2852.24974	4874.3
2854.76927	4886.2
2857.28724	4868.4
2859.80367	4867.9
2862.31855	4864.6
2864.83189	4854.5
2867.34368	4861.8
2869.85393	4873.6
2872.36264	4865.6
2874.8698	4860.5
2877.37543	4864.6
2879.87952	4865
2882.38207	4878.3
2884.88308	4878.3
2887.38256	4863.4
2889.88051	4866.7
2892.37692	4861.9
2894.8718	4888.7
2897.36515	4877.5
2899.85698	4874.7
2902.34727	4880.3
2904.83604	4880.8
2907.32328	4882
2909.809	4892.2
2912.29319	4882.3
2914.77587	4884.2
2917.25702	4888.7
2919.73665	4871.6
2922.21476	4875.4
2924.69136	4870.3
2927.16644	4865.8
2929.64	4852.2
2932.11205	4833
2934.58258	4812.1
2937.05161	4817.5
2939.51912	4826.3
2941.98513	4815.6
2944.44962	4794.2
2946.91261	4767.3
2949.37409	4784.8
2951.83407	4777.1
2954.29254	4757.3
2956.74951	4746.4
2959.20498	4728.6
2961.65895	4718.8
2964.11142	4720
2966.56239	4685.6
2969.01186	4683
2971.45984	4669.7
2973.90632	4658.1
2976.35131	4646.4
2978.7948	4617
2981.23681	4608.7
2983.67732	4601
2986.11635	4583.4
2988.55388	4578.2
2990.98993	4560.4
2993.4245	4558.7
2995.85758	4537.9
2998.28917	4533.8
3000.71928	4527.5
3003.14791	4530.5
3005.57506	4500.5
3008.00073	4484.8
3010.42493	4501.2
3012.84764	4496.9
3015.26888	4472.9
3017.68865	4457
3020.10694	4457.9
3022.52376	4440.3
3024.9391	4439.8
3027.35298	4408.9
3029.76539	4417.3
3032.17632	4415.6
3034.5858	4403.8
3036.9938	4394.2
3039.40034	4379.9
3041.80542	4382.2
3044.20903	4359.3
3046.61118	4369.8
3049.01187	4355.7
3051.4111	4362.3
3053.80888	4345.4
3056.20519	4336.1
3058.60005	4326.4
3060.99345	4323.1
3063.3854	4316.4
3065.7759	4307.5
3068.16494	4307.5
3070.55254	4280.5
3072.93868	4285.6
3075.32338	4261
3077.70662	4262.2
3080.08842	4244.2
3082.46878	4245.5
3084.84769	4237.8
3087.22515	4247.7
3089.60118	4239
3091.97576	4224.3
3094.3489	4224.7
3096.72061	4215.4
3099.09087	4208.5
3101.4597	4214.4
3103.82709	4212
3106.19305	4196.8
3108.55757	4190
3110.92066	4166.8
3113.28232	4183.4
3115.64255	4152.7
3118.00134	4162.6
3120.35871	4160.7
3122.71466	4151.8
3125.06917	4137.8
3127.42226	4143.6
3129.77393	4147.7
3132.12417	4139.7
3134.47299	4143.6
3136.82039	4163.1
3139.16636	4136
3141.51092	4147.3
3143.85406	4147.1
3146.19579	4136.1
3148.53609	4134.4
3150.87499	4152.3
3153.21246	4156.9
3155.54853	4142.2
3157.88318	4140.5
3160.21642	4151.7
3162.54826	4126.9
3164.87868	4127.2
3167.2077	4134.1
3169.5353	4126.8
3171.86151	4145.4
3174.18631	4134
3176.5097	4111.6
3178.83169	4110.6
3181.15228	4130.3
3183.47147	4118.7
3185.78926	4125.1
3188.10565	4109.9
3190.42065	4108.4
3192.73424	4106.1
3195.04645	4124
3197.35725	4122.5
3199.66667	4136.8
3201.97469	4125.1
3204.28132	4110.8
3206.58656	4118
3208.8904	4111.8
3211.19287	4106.2
3213.49394	4108.4
3215.79363	4116.1
3218.09193	4106
3220.38884	4105
3222.68438	4124
3224.97853	4105.8
3227.2713	4094.7
3229.56269	4116.8
3231.8527	4097.9
3234.14133	4098.8
3236.42858	4085.7
3238.71446	4086.6
3240.99896	4079.3
3243.28209	4079.1
3245.56384	4090.8
3247.84423	4060.1
3250.12324	4067.8
3252.40088	4038.8
3254.67715	4048.8
3256.95205	4043.8
3259.22558	4043.2
3261.49775	4024.1
3263.76855	4011.6
3266.03799	4001.4
3268.30606	4003.7
3270.57277	3985.2
3272.83812	3986.2
3275.10211	3965.9
3277.36474	3980
3279.62601	3971.6
3281.88593	3974.7
3284.14448	3986.9
3286.40168	3980.4
3288.65753	3980.3
3290.91202	3981.2
3293.16516	3973.1
3295.41695	3960.1
3297.66738	3919.2
3299.91647	3909.1
3302.16421	3896.4
3304.4106	3862
3306.65564	3854.1
3308.89933	3821.9
3311.14169	3798.3
3313.38269	3771
3315.62236	3733.9
3317.86068	3709.3
3320.09766	3670
3322.3333	3626.2
3324.5676	3638.5
3326.80056	3568.9
3329.03219	3555
3331.26248	3.1
3333.49143	-1.6
3335.71905	0.2
