Data from AgNP_FTO_APTES_UA_100uM_CRN_2uM_R6G_10uM_NaF_0.1M_Addition_RamanShift__30__14-19-50-328.txt Node

Date: Thu Mar 24 14:19:50 GMT 2022
User: TCL
Spectrometer: QEP01345
Trigger mode: 4
Integration Time (sec): 7.000000E0
Scans to average: 10
Electric dark correction enabled: true
Nonlinearity correction enabled: false
Boxcar width: 0
XAxis mode: Raman Shifts
Number of Pixels in Spectrum: 1044
>>>>>Begin Spectral Data<<<<<
46.04893	-2.9125
50.45542	1.5875
54.85868	-0.5125
59.25871	0.1875
63.6555	39.7875
68.04907	42.2875
72.43941	43.3875
76.82654	43.3875
81.21044	46.3875
85.59113	50.5875
89.96862	52.6875
94.34289	53.1875
98.71396	56.7875
103.08183	54.0875
107.4465	58.0875
111.80798	61.3875
116.16626	58.9875
120.52136	61.5875
124.87327	65.7875
129.222	67.0875
133.56755	71.8875
137.90993	75.8875
142.24913	89.7875
146.58517	94.3875
150.91804	111.7875
155.24774	137.5875
159.57429	163.9875
163.89768	214.6875
168.21792	293.0875
172.53501	398.2875
176.84895	559.5875
181.15975	782.9875
185.46741	1102.0875
189.77193	1529.6875
194.07331	2078.0875
198.37157	2705.3875
202.6667	3370.6875
206.9587	4061.9875
211.24758	4805.3875
215.53334	5598.1875
219.81599	6525.8875
224.09553	7612.5875
228.37195	8815.9875
232.64527	10112.0875
236.91549	11302.3875
241.18261	12235.1875
245.44663	12896.0875
249.70755	13336.7875
253.96539	13670.5875
258.22014	13957.7875
262.4718	14152.7875
266.72039	14216.2875
270.96589	14029.1875
275.20832	13647.2875
279.44768	13146.9875
283.68397	12732.7875
287.91719	12568.9875
292.14735	12752.6875
296.37445	13480.3875
300.59849	14764.7875
304.81948	16269.5875
309.03742	17600.5875
313.25231	18000.6875
317.46415	16951.7875
321.67296	14797.1875
325.87872	12875.2875
330.08145	11926.0875
334.28114	11834.2875
338.47781	12231.2875
342.67145	12830.1875
346.86207	13844.9875
351.04966	15367.5875
355.23424	17159.3875
359.4158	18462.1875
363.59435	18891.6875
367.76989	18689.4875
371.94243	18149.4875
376.11196	17598.7875
380.27849	17098.6875
384.44203	16504.2875
388.60257	15953.8875
392.76012	15530.9875
396.91468	15588.8875
401.06626	16114.9875
405.21485	16534.8875
409.36047	15832.6875
413.50311	14239.3875
417.64277	12640.1875
421.77947	11674.0875
425.9132	11188.9875
430.04396	11053.8875
434.17176	11080.0875
438.2966	11270.3875
442.41849	11685.9875
446.53742	12198.6875
450.6534	12633.3875
454.76644	12777.8875
458.87653	12601.0875
462.98368	12317.5875
467.08789	11941.3875
471.18916	11495.5875
475.2875	10954.7875
479.38291	10530.7875
483.4754	10195.0875
487.56496	9992.6875
491.6516	9911.0875
495.73531	9899.3875
499.81612	10018.3875
503.89401	10290.3875
507.96899	10645.7875
512.04106	11087.7875
516.11023	11580.0875
520.1765	11910.5875
524.23987	11952.9875
528.30034	11716.5875
532.35792	11366.1875
536.41261	10986.8875
540.46441	10450.8875
544.51333	10100.9875
548.55936	10193.4875
552.60252	10628.5875
556.64279	11175.2875
560.6802	11475.7875
564.71473	12064.2875
568.7464	13295.6875
572.7752	13827.9875
576.80114	12522.1875
580.82422	11089.5875
584.84444	10453.8875
588.86181	10213.8875
592.87633	10197.2875
596.888	10456.2875
600.89682	11406.5875
604.9028	14704.4875
608.90594	23546.4875
612.90624	35397.2875
616.90371	34339.3875
620.89834	19569.3875
624.89015	12247.4875
628.87913	10953.3875
632.86528	11405.3875
636.84862	11940.6875
640.82913	11497.0875
644.80683	10234.0875
648.78172	9418.4875
652.75379	9483.5875
656.72306	10508.4875
660.68952	11716.2875
664.65319	11348.7875
668.61405	9968.1875
672.57211	9267.9875
676.52738	9180.1875
680.47986	9135.4875
684.42955	8914.0875
688.37646	8761.4875
692.32058	8805.5875
696.26192	8987.0875
700.20048	9277.0875
704.13626	9434.8875
708.06928	9393.8875
711.99952	9254.7875
715.927	9214.7875
719.85171	9395.6875
723.77365	9525.6875
727.69284	9380.1875
731.60928	9227.4875
735.52295	9174.0875
739.43388	9213.8875
743.34206	9280.9875
747.24749	9286.2875
751.15017	9338.1875
755.05012	9766.5875
758.94733	10994.1875
762.8418	14199.3875
766.73354	19335.1875
770.62254	23935.0875
774.50882	26192.2875
778.39237	24997.9875
782.27321	20019.6875
786.15132	14608.5875
790.02671	11432.8875
793.89938	10046.2875
797.76935	9494.3875
801.6366	9237.1875
805.50115	9109.1875
809.36299	9026.4875
813.22213	8984.6875
817.07857	8931.6875
820.93231	8928.9875
824.78336	9084.3875
828.63172	9217.0875
832.47738	9277.0875
836.32036	9157.4875
840.16066	8955.4875
843.99827	8802.3875
847.8332	8732.2875
851.66546	8734.2875
855.49504	8750.3875
859.32195	8736.2875
863.1462	8641.2875
866.96777	8591.1875
870.78668	8576.3875
874.60293	8666.3875
878.41652	8767.6875
882.22745	8937.4875
886.03573	9035.4875
889.84136	9016.7875
893.64433	8943.3875
897.44466	8959.3875
901.24235	8972.1875
905.0374	8902.8875
908.8298	8703.6875
912.61957	8575.8875
916.40671	8593.8875
920.19121	8637.7875
923.97308	8870.9875
927.75233	9235.9875
931.52895	9669.7875
935.30295	9486.5875
939.07433	8818.3875
942.84309	8279.6875
946.60924	7959.0875
950.37278	7830.3875
954.13371	7780.4875
957.89203	7760.8875
961.64774	7744.0875
965.40086	7713.0875
969.15137	7704.5875
972.89929	7676.2875
976.64461	7674.8875
980.38733	7664.6875
984.12747	7672.2875
987.86502	7725.3875
991.59999	7791.4875
995.33237	7929.3875
999.06217	8126.9875
1002.78939	8443.3875
1006.51404	8816.1875
1010.23611	9139.5875
1013.95561	9244.4875
1017.67255	9155.4875
1021.38692	8958.1875
1025.09872	8737.0875
1028.80796	8570.4875
1032.51465	8641.4875
1036.21877	8821.6875
1039.92035	8939.6875
1043.61937	9041.5875
1047.31584	9055.4875
1051.00976	9052.3875
1054.70114	8958.0875
1058.38998	8889.9875
1062.07627	8916.9875
1065.76003	8926.0875
1069.44126	9020.3875
1073.11995	9216.4875
1076.79611	9625.2875
1080.46974	10200.6875
1084.14085	11034.3875
1087.80943	11737.9875
1091.47549	11880.0875
1095.13903	11353.0875
1098.80005	10509.2875
1102.45857	9911.5875
1106.11456	9798.5875
1109.76805	10100.8875
1113.41903	10827.6875
1117.06751	11993.4875
1120.71348	13590.7875
1124.35696	15451.6875
1127.99793	16448.0875
1131.63641	15464.7875
1135.2724	13410.4875
1138.90589	11865.9875
1142.5369	10942.9875
1146.16542	10364.0875
1149.79145	10023.6875
1153.415	9916.1875
1157.03607	10053.8875
1160.65467	10441.0875
1164.27079	11151.6875
1167.88443	12312.8875
1171.49561	14210.1875
1175.10432	17406.1875
1178.71056	21663.2875
1182.31434	24743.2875
1185.91565	25184.5875
1189.51451	23673.6875
1193.11091	21218.3875
1196.70485	18529.3875
1200.29634	16709.6875
1203.88538	15329.1875
1207.47197	13578.7875
1211.05612	11965.9875
1214.63782	11026.8875
1218.21708	10631.0875
1221.79391	10472.0875
1225.36829	10452.2875
1228.94024	10433.7875
1232.50976	10418.2875
1236.07685	10434.6875
1239.6415	10555.6875
1243.20374	10742.2875
1246.76355	10945.0875
1250.32093	11137.2875
1253.8759	11571.9875
1257.42845	12186.8875
1260.97859	13010.1875
1264.52631	13866.9875
1268.07163	14677.3875
1271.61453	15178.6875
1275.15503	15407.2875
1278.69312	15385.5875
1282.22882	15615.1875
1285.76211	16356.0875
1289.29301	17346.5875
1292.82151	18191.2875
1296.34761	19203.2875
1299.87133	21067.2875
1303.39266	24642.6875
1306.9116	30440.1875
1310.42815	36555.0875
1313.94233	38584.1875
1317.45412	35051.2875
1320.96354	29293.1875
1324.47058	23954.8875
1327.97525	19986.2875
1331.47754	17775.8875
1334.97747	17095.9875
1338.47502	17534.7875
1341.97022	19179.6875
1345.46305	21930.8875
1348.95352	25597.9875
1352.44163	29974.1875
1355.92738	36563.3875
1359.41078	46554.5875
1362.89183	54239.5875
1366.37053	49459.1875
1369.84688	37112.2875
1373.32088	27367.0875
1376.79254	21809.8875
1380.26186	18684.5875
1383.72883	16757.1875
1387.19347	15285.0875
1390.65578	13934.9875
1394.11575	12874.1875
1397.57339	12282.4875
1401.0287	12028.3875
1404.48168	11892.2875
1407.93234	11954.6875
1411.38068	12199.8875
1414.82669	12547.0875
1418.27039	12784.9875
1421.71177	12689.9875
1425.15083	12485.6875
1428.58758	12576.0875
1432.02203	12946.8875
1435.45416	13158.6875
1438.88399	13002.6875
1442.31151	12825.6875
1445.73673	12892.9875
1449.15965	13020.3875
1452.58027	12901.6875
1455.9986	12608.0875
1459.41463	12499.5875
1462.82837	12734.5875
1466.23982	13299.2875
1469.64898	13781.5875
1473.05586	14068.4875
1476.46045	14170.6875
1479.86276	14576.6875
1483.26279	15320.5875
1486.66054	16338.5875
1490.05602	17857.5875
1493.44922	20129.6875
1496.84016	23836.4875
1500.22882	29587.7875
1503.61521	37697.7875
1506.99934	46819.8875
1510.38121	53933.5875
1513.76081	54836.1875
1517.13816	48091.7875
1520.51324	37526.7875
1523.88607	28467.4875
1527.25665	22826.4875
1530.62498	19747.8875
1533.99105	17884.8875
1537.35488	16739.2875
1540.71647	16110.2875
1544.07581	15925.1875
1547.4329	15990.5875
1550.78776	16210.4875
1554.14038	16503.5875
1557.49077	16966.6875
1560.83892	17783.2875
1564.18484	19129.5875
1567.52853	20732.0875
1570.86999	21876.7875
1574.20922	22380.3875
1577.54624	21835.5875
1580.88103	19491.0875
1584.2136	16385.7875
1587.54395	14492.9875
1590.87208	14124.9875
1594.19801	15119.8875
1597.52172	16907.1875
1600.84321	17668.9875
1604.16251	16954.4875
1607.47959	15663.7875
1610.79447	14272.9875
1614.10715	12800.3875
1617.41763	11601.7875
1620.7259	10903.4875
1624.03199	10629.9875
1627.33587	10734.9875
1630.63757	11203.5875
1633.93707	12148.9875
1637.23439	13858.6875
1640.52951	16802.4875
1643.82246	21586.1875
1647.11321	27693.1875
1650.40179	31965.3875
1653.68819	30485.0875
1656.97241	24245.4875
1660.25446	17801.9875
1663.53433	13506.2875
1666.81203	11135.5875
1670.08756	9861.0875
1673.36092	9103.6875
1676.63211	8658.8875
1679.90115	8351.0875
1683.16801	8142.1875
1686.43272	7955.4875
1689.69527	7860.2875
1692.95567	7774.8875
1696.2139	7728.0875
1699.46999	7687.6875
1702.72392	7666.1875
1705.97571	7637.3875
1709.22535	7663.5875
1712.47284	7671.9875
1715.71819	7683.5875
1718.96139	7683.7875
1722.20246	7645.5875
1725.44139	7537.6875
1728.67818	7406.1875
1731.91284	7285.1875
1735.14537	7184.3875
1738.37576	7146.4875
1741.60403	7085.5875
1744.83017	7033.3875
1748.05418	7032.5875
1751.27607	6979.8875
1754.49584	6959.7875
1757.71349	6918.8875
1760.92903	6919.9875
1764.14244	6860.8875
1767.35375	6844.4875
1770.56294	6774.9875
1773.77002	6700.3875
1776.97499	6668.1875
1780.17785	6619.9875
1783.37861	6592.2875
1786.57727	6582.4875
1789.77382	6553.2875
1792.96828	6543.6875
1796.16064	6510.8875
1799.3509	6518.8875
1802.53907	6497.4875
1805.72514	6461.2875
1808.90913	6432.0875
1812.09102	6400.2875
1815.27083	6365.9875
1818.44856	6359.6875
1821.6242	6331.4875
1824.79776	6301.3875
1827.96924	6293.7875
1831.13864	6281.6875
1834.30597	6254.2875
1837.47122	6241.4875
1840.6344	6226.7875
1843.7955	6220.1875
1846.95454	6187.6875
1850.11151	6177.3875
1853.26642	6181.8875
1856.41926	6170.2875
1859.57004	6184.6875
1862.71876	6171.5875
1865.86542	6162.5875
1869.01003	6171.9875
1872.15258	6157.3875
1875.29308	6169.4875
1878.43152	6173.4875
1881.56792	6173.0875
1884.70227	6158.3875
1887.83457	6166.5875
1890.96482	6143.8875
1894.09304	6133.1875
1897.21921	6111.7875
1900.34335	6127.5875
1903.46544	6142.9875
1906.58551	6142.5875
1909.70353	6133.0875
1912.81953	6128.4875
1915.93349	6110.1875
1919.04543	6119.2875
1922.15534	6091.0875
1925.26322	6060.8875
1928.36908	6035.2875
1931.47292	6011.5875
1934.57473	5976.8875
1937.67453	5956.5875
1940.77232	5931.7875
1943.86808	5901.2875
1946.96184	5886.3875
1950.05358	5859.8875
1953.14331	5851.1875
1956.23103	5848.3875
1959.31675	5842.5875
1962.40046	5845.5875
1965.48217	5841.2875
1968.56188	5839.3875
1971.63959	5851.2875
1974.7153	5827.5875
1977.78901	5813.6875
1980.86073	5781.2875
1983.93046	5743.6875
1986.99819	5694.9875
1990.06394	5668.6875
1993.1277	5636.6875
1996.18947	5600.9875
1999.24925	5585.0875
2002.30706	5562.2875
2005.36288	5522.4875
2008.41672	5515.7875
2011.46859	5474.9875
2014.51848	5476.1875
2017.56639	5451.3875
2020.61233	5430.3875
2023.6563	5410.1875
2026.6983	5386.9875
2029.73833	5366.8875
2032.7764	5378.1875
2035.8125	5340.2875
2038.84664	5358.0875
2041.87881	5336.3875
2044.90903	5324.6875
2047.93729	5308.8875
2050.96359	5312.9875
2053.98794	5270.5875
2057.01034	5253.4875
2060.03078	5246.2875
2063.04927	5235.6875
2066.06582	5247.4875
2069.08042	5219.2875
2072.09307	5202.5875
2075.10378	5210.2875
2078.11255	5194.8875
2081.11938	5204.3875
2084.12426	5203.4875
2087.12722	5206.6875
2090.12824	5234.0875
2093.12732	5198.2875
2096.12447	5213.6875
2099.11969	5218.8875
2102.11299	5187.8875
2105.10435	5217.5875
2108.09379	5220.7875
2111.08131	5205.5875
2114.0669	5236.1875
2117.05057	5252.3875
2120.03233	5259.0875
2123.01216	5266.8875
2125.99008	5287.3875
2128.96609	5288.0875
2131.94018	5289.2875
2134.91236	5286.6875
2137.88263	5259.6875
2140.851	5260.3875
2143.81746	5236.3875
2146.78201	5231.1875
2149.74466	5217.6875
2152.7054	5207.8875
2155.66425	5185.7875
2158.6212	5192.2875
2161.57625	5175.4875
2164.52941	5177.7875
2167.48067	5167.2875
2170.43004	5169.7875
2173.37752	5162.2875
2176.32311	5180.9875
2179.26681	5173.5875
2182.20863	5161.4875
2185.14856	5144.0875
2188.08661	5151.6875
2191.02278	5154.4875
2193.95707	5139.1875
2196.88948	5132.8875
2199.82001	5120.2875
2202.74867	5099.2875
2205.67545	5101.3875
2208.60037	5096.6875
2211.52341	5095.2875
2214.44458	5073.5875
2217.36388	5064.1875
2220.28132	5076.6875
2223.1969	5044.4875
2226.11061	5024.0875
2229.02246	5028.1875
2231.93245	5015.0875
2234.84058	4996.0875
2237.74686	4971.8875
2240.65128	4955.5875
2243.55385	4979.9875
2246.45456	4974.9875
2249.35343	4990.0875
2252.25044	4986.1875
2255.14561	5008.5875
2258.03893	5006.9875
2260.93041	5058.9875
2263.82004	5045.6875
2266.70783	5029.8875
2269.59378	5026.4875
2272.4779	4980.2875
2275.36017	5007.1875
2278.24061	4993.8875
2281.11922	4980.6875
2283.996	4958.4875
2286.87094	4930.5875
2289.74405	4898.6875
2292.61534	4898.3875
2295.4848	4879.1875
2298.35243	4850.6875
2301.21824	4853.7875
2304.08223	4853.2875
2306.94439	4853.5875
2309.80474	4841.5875
2312.66327	4850.9875
2315.51999	4836.7875
2318.37489	4837.0875
2321.22797	4827.2875
2324.07925	4821.2875
2326.92871	4817.1875
2329.77637	4813.9875
2332.62222	4807.9875
2335.46626	4811.1875
2338.3085	4817.2875
2341.14893	4830.1875
2343.98756	4849.8875
2346.8244	4857.7875
2349.65943	4862.7875
2352.49267	4869.4875
2355.32411	4883.0875
2358.15376	4913.2875
2360.98161	4938.2875
2363.80768	4964.8875
2366.63195	4982.4875
2369.45444	4978.6875
2372.27514	4985.4875
2375.09405	4974.2875
2377.91118	4948.6875
2380.72652	4908.8875
2383.54009	4889.8875
2386.35187	4840.1875
2389.16188	4797.6875
2391.97011	4780.7875
2394.77657	4768.8875
2397.58125	4733.6875
2400.38416	4707.3875
2403.18529	4699.0875
2405.98466	4680.0875
2408.78226	4669.7875
2411.57809	4659.4875
2414.37216	4643.9875
2417.16446	4633.0875
2419.955	4626.2875
2422.74378	4632.9875
2425.5308	4636.8875
2428.31606	4645.2875
2431.09956	4655.2875
2433.88131	4653.2875
2436.6613	4650.8875
2439.43954	4694.3875
2442.21603	4698.8875
2444.99077	4687.1875
2447.76377	4691.2875
2450.53501	4704.3875
2453.30451	4706.5875
2456.07226	4695.2875
2458.83827	4703.1875
2461.60254	4699.2875
2464.36507	4697.2875
2467.12586	4697.0875
2469.88492	4702.3875
2472.64224	4717.2875
2475.39782	4727.5875
2478.15167	4738.9875
2480.90379	4731.6875
2483.65417	4774.2875
2486.40283	4823.7875
2489.14976	4839.2875
2491.89497	4860.0875
2494.63845	4862.1875
2497.3802	4848.7875
2500.12024	4829.3875
2502.85855	4810.3875
2505.59514	4767.2875
2508.33002	4737.2875
2511.06318	4683.3875
2513.79462	4632.3875
2516.52435	4593.5875
2519.25237	4580.5875
2521.97867	4550.6875
2524.70327	4536.3875
2527.42616	4524.1875
2530.14734	4516.7875
2532.86681	4490.7875
2535.58458	4487.4875
2538.30065	4487.9875
2541.01501	4513.6875
2543.72768	4504.0875
2546.43864	4539.7875
2549.14791	4525.3875
2551.85548	4537.7875
2554.56136	4542.3875
2557.26554	4521.9875
2559.96803	4519.2875
2562.66883	4516.3875
2565.36794	4500.3875
2568.06536	4506.3875
2570.7611	4498.7875
2573.45514	4490.4875
2576.14751	4457.5875
2578.83819	4467.0875
2581.52719	4424.1875
2584.21451	4434.4875
2586.90015	4409.6875
2589.58411	4401.6875
2592.2664	4405.6875
2594.94701	4399.8875
2597.62594	4397.9875
2600.30321	4377.9875
2602.9788	4379.8875
2605.65273	4369.9875
2608.32498	4383.7875
2610.99557	4391.0875
2613.66449	4401.4875
2616.33175	4379.5875
2618.99734	4390.6875
2621.66128	4396.7875
2624.32355	4408.2875
2626.98416	4377.1875
2629.64311	4382.4875
2632.30041	4351.8875
2634.95605	4355.0875
2637.61004	4333.7875
2640.26238	4312.8875
2642.91306	4312.4875
2645.56209	4302.7875
2648.20948	4290.6875
2650.85521	4296.6875
2653.4993	4305.9875
2656.14175	4307.8875
2658.78255	4298.5875
2661.42171	4331.4875
2664.05923	4336.5875
2666.6951	4357.3875
2669.32934	4367.4875
2671.96194	4364.9875
2674.59291	4366.2875
2677.22224	4368.3875
2679.84993	4361.0875
2682.476	4369.2875
2685.10043	4367.0875
2687.72324	4364.3875
2690.34441	4355.7875
2692.96396	4357.7875
2695.58188	4353.8875
2698.19818	4339.1875
2700.81285	4349.4875
2703.4259	4352.4875
2706.03733	4335.3875
2708.64714	4354.5875
2711.25533	4368.4875
2713.86191	4356.1875
2716.46687	4379.5875
2719.07021	4368.8875
2721.67194	4367.9875
2724.27206	4359.3875
2726.87057	4353.1875
2729.46747	4351.7875
2732.06276	4332.2875
2734.65644	4322.2875
2737.24852	4323.5875
2739.83899	4297.3875
2742.42786	4298.7875
2745.01513	4282.7875
2747.60079	4257.3875
2750.18486	4247.2875
2752.76733	4252.6875
2755.3482	4234.0875
2757.92747	4239.4875
2760.50515	4219.6875
2763.08123	4222.8875
2765.65573	4206.5875
2768.22863	4208.9875
2770.79994	4202.4875
2773.36967	4215.7875
2775.9378	4219.1875
2778.50435	4199.8875
2781.06932	4209.9875
2783.6327	4215.5875
2786.1945	4199.6875
2788.75471	4211.1875
2791.31335	4203.5875
2793.87041	4201.3875
2796.42589	4205.5875
2798.97979	4217.5875
2801.53212	4203.9875
2804.08288	4232.2875
2806.63206	4242.2875
2809.17967	4259.0875
2811.72571	4261.8875
2814.27018	4284.4875
2816.81308	4298.5875
2819.35442	4335.3875
2821.89419	4327.8875
2824.43239	4338.4875
2826.96904	4339.7875
2829.50412	4346.7875
2832.03763	4349.1875
2834.56959	4348.8875
2837.1	4344.2875
2839.62884	4349.6875
2842.15613	4327.4875
2844.68186	4354.9875
2847.20604	4364.5875
2849.72867	4399.9875
2852.24974	4410.3875
2854.76927	4414.2875
2857.28724	4410.1875
2859.80367	4425.6875
2862.31855	4436.9875
2864.83189	4468.0875
2867.34368	4475.3875
2869.85393	4494.1875
2872.36264	4490.2875
2874.8698	4512.0875
2877.37543	4498.0875
2879.87952	4486.2875
2882.38207	4482.9875
2884.88308	4450.3875
2887.38256	4450.3875
2889.88051	4437.6875
2892.37692	4422.0875
2894.8718	4422.6875
2897.36515	4419.0875
2899.85698	4423.7875
2902.34727	4389.5875
2904.83604	4385.2875
2907.32328	4402.8875
2909.809	4395.2875
2912.29319	4374.7875
2914.77587	4360.8875
2917.25702	4342.7875
2919.73665	4338.5875
2922.21476	4320.4875
2924.69136	4316.3875
2927.16644	4317.4875
2929.64	4301.1875
2932.11205	4285.7875
2934.58258	4251.0875
2937.05161	4271.3875
2939.51912	4254.5875
2941.98513	4250.9875
2944.44962	4228.0875
2946.91261	4197.6875
2949.37409	4202.8875
2951.83407	4199.7875
2954.29254	4209.7875
2956.74951	4196.8875
2959.20498	4179.4875
2961.65895	4172.2875
2964.11142	4166.2875
2966.56239	4158.2875
2969.01186	4143.8875
2971.45984	4116.8875
2973.90632	4112.5875
2976.35131	4098.2875
2978.7948	4075.3875
2981.23681	4076.0875
2983.67732	4058.9875
2986.11635	4051.8875
2988.55388	4033.0875
2990.98993	4040.1875
2993.4245	4038.3875
2995.85758	4032.6875
2998.28917	4056.0875
3000.71928	4037.1875
3003.14791	4039.0875
3005.57506	4042.1875
3008.00073	4034.8875
3010.42493	4057.2875
3012.84764	4060.0875
3015.26888	4044.0875
3017.68865	4038.0875
3020.10694	4039.3875
3022.52376	4009.4875
3024.9391	3990.8875
3027.35298	3986.5875
3029.76539	3971.5875
3032.17632	3952.5875
3034.5858	3938.3875
3036.9938	3915.7875
3039.40034	3911.1875
3041.80542	3884.5875
3044.20903	3870.1875
3046.61118	3863.2875
3049.01187	3838.9875
3051.4111	3838.9875
3053.80888	3827.9875
3056.20519	3821.1875
3058.60005	3812.6875
3060.99345	3823.3875
3063.3854	3783.6875
3065.7759	3793.3875
3068.16494	3763.4875
3070.55254	3769.7875
3072.93868	3750.9875
3075.32338	3759.2875
3077.70662	3742.5875
3080.08842	3729.0875
3082.46878	3717.1875
3084.84769	3703.2875
3087.22515	3699.8875
3089.60118	3703.1875
3091.97576	3689.0875
3094.3489	3683.6875
3096.72061	3685.6875
3099.09087	3683.6875
3101.4597	3690.9875
3103.82709	3674.2875
3106.19305	3668.9875
3108.55757	3682.7875
3110.92066	3660.7875
3113.28232	3662.0875
3115.64255	3644.3875
3118.00134	3648.3875
3120.35871	3635.5875
3122.71466	3648.5875
3125.06917	3626.5875
3127.42226	3639.2875
3129.77393	3642.7875
3132.12417	3641.9875
3134.47299	3656.4875
3136.82039	3659.7875
3139.16636	3674.4875
3141.51092	3662.6875
3143.85406	3663.4875
3146.19579	3675.2875
3148.53609	3688.5875
3150.87499	3696.1875
3153.21246	3701.2875
3155.54853	3708.3875
3157.88318	3708.3875
3160.21642	3707.3875
3162.54826	3703.0875
3164.87868	3693.1875
3167.2077	3709.7875
3169.5353	3699.4875
3171.86151	3703.8875
3174.18631	3699.7875
3176.5097	3702.7875
3178.83169	3698.5875
3181.15228	3713.1875
3183.47147	3694.5875
3185.78926	3705.8875
3188.10565	3700.5875
3190.42065	3697.8875
3192.73424	3727.2875
3195.04645	3727.7875
3197.35725	3738.9875
3199.66667	3760.1875
3201.97469	3752.9875
3204.28132	3765.9875
3206.58656	3784.5875
3208.8904	3787.5875
3211.19287	3795.0875
3213.49394	3800.7875
3215.79363	3798.6875
3218.09193	3814.7875
3220.38884	3806.4875
3222.68438	3800.4875
3224.97853	3804.4875
3227.2713	3791.3875
3229.56269	3798.4875
3231.8527	3807.0875
3234.14133	3788.2875
3236.42858	3786.3875
3238.71446	3790.1875
3240.99896	3771.1875
3243.28209	3772.6875
3245.56384	3792.0875
3247.84423	3785.3875
3250.12324	3777.4875
3252.40088	3773.1875
3254.67715	3778.0875
3256.95205	3777.6875
3259.22558	3770.7875
3261.49775	3761.1875
3263.76855	3737.9875
3266.03799	3738.1875
3268.30606	3748.5875
3270.57277	3721.5875
3272.83812	3707.6875
3275.10211	3721.9875
3277.36474	3706.9875
3279.62601	3716.0875
3281.88593	3720.5875
3284.14448	3709.7875
3286.40168	3720.8875
3288.65753	3739.9875
3290.91202	3728.2875
3293.16516	3715.5875
3295.41695	3700.4875
3297.66738	3687.6875
3299.91647	3669.1875
3302.16421	3653.0875
3304.4106	3645.8875
3306.65564	3615.3875
3308.89933	3592.0875
3311.14169	3549.4875
3313.38269	3529.1875
3315.62236	3486.3875
3317.86068	3467.5875
3320.09766	3422.5875
3322.3333	3365.4875
3324.5676	3381.8875
3326.80056	3305.9875
3329.03219	3287.5875
3331.26248	1.8875
3333.49143	-1.1125
3335.71905	0.6875
