Data from AgNP_FTO_APTES_UA_100uM_CRN_0uM_R6G_10uM_NaF_0.1M_Addition_RamanShift__29__11-19-00-119.txt Node

Date: Thu Mar 24 11:19:00 GMT 2022
User: TCL
Spectrometer: QEP01345
Trigger mode: 4
Integration Time (sec): 7.000000E0
Scans to average: 10
Electric dark correction enabled: true
Nonlinearity correction enabled: false
Boxcar width: 0
XAxis mode: Raman Shifts
Number of Pixels in Spectrum: 1044
>>>>>Begin Spectral Data<<<<<
46.04893	-0.8625
50.45542	-0.9625
54.85868	-0.0625
59.25871	-0.3625
63.6555	38.4375
68.04907	43.9375
72.43941	40.9375
76.82654	40.7375
81.21044	47.8375
85.59113	46.8375
89.96862	49.1375
94.34289	46.2375
98.71396	51.9375
103.08183	51.6375
107.4465	55.6375
111.80798	57.8375
116.16626	56.2375
120.52136	58.9375
124.87327	60.8375
129.222	67.9375
133.56755	68.1375
137.90993	71.1375
142.24913	82.7375
146.58517	92.9375
150.91804	105.7375
155.24774	128.6375
159.57429	157.7375
163.89768	204.6375
168.21792	281.2375
172.53501	380.4375
176.84895	532.4375
181.15975	744.5375
185.46741	1050.9375
189.77193	1443.5375
194.07331	1928.6375
198.37157	2500.6375
202.6667	3071.2375
206.9587	3666.8375
211.24758	4271.3375
215.53334	4921.8375
219.81599	5629.6375
224.09553	6440.8375
228.37195	7341.4375
232.64527	8314.6375
236.91549	9282.4375
241.18261	10187.0375
245.44663	10895.2375
249.70755	11401.9375
253.96539	11807.3375
258.22014	12143.6375
262.4718	12501.8375
266.72039	12704.6375
270.96589	12799.4375
275.20832	12695.4375
279.44768	12502.0375
283.68397	12294.0375
287.91719	12187.5375
292.14735	12181.8375
296.37445	12383.1375
300.59849	12811.5375
304.81948	13356.0375
309.03742	13757.0375
313.25231	13875.8375
317.46415	13447.5375
321.67296	12624.2375
325.87872	11877.6375
330.08145	11443.8375
334.28114	11385.7375
338.47781	11483.3375
342.67145	11768.6375
346.86207	12116.9375
351.04966	12701.8375
355.23424	13342.6375
359.4158	13821.9375
363.59435	14023.5375
367.76989	14055.8375
371.94243	13959.0375
376.11196	13845.0375
380.27849	13805.9375
384.44203	13695.3375
388.60257	13690.1375
392.76012	13627.6375
396.91468	13702.2375
401.06626	13982.7375
405.21485	14187.7375
409.36047	13884.1375
413.50311	13203.9375
417.64277	12604.8375
421.77947	12306.7375
425.9132	12270.7375
430.04396	12286.8375
434.17176	12340.7375
438.2966	12505.7375
442.41849	12873.2375
446.53742	13453.0375
450.6534	14005.4375
454.76644	14313.2375
458.87653	14266.4375
462.98368	13951.3375
467.08789	13578.5375
471.18916	13262.9375
475.2875	12861.0375
479.38291	12583.4375
483.4754	12427.4375
487.56496	12224.7375
491.6516	12026.9375
495.73531	11844.5375
499.81612	11768.4375
503.89401	11859.7375
507.96899	11969.9375
512.04106	12027.8375
516.11023	12054.9375
520.1765	12039.0375
524.23987	12028.6375
528.30034	11937.8375
532.35792	11788.2375
536.41261	11521.4375
540.46441	11169.7375
544.51333	10982.8375
548.55936	11044.6375
552.60252	11454.5375
556.64279	12010.0375
560.6802	12504.3375
564.71473	12758.4375
568.7464	13385.3375
572.7752	14113.0375
576.80114	14185.6375
580.82422	14054.6375
584.84444	14257.9375
588.86181	14875.1375
592.87633	15669.5375
596.888	15920.0375
600.89682	15287.7375
604.9028	15675.7375
608.90594	19100.6375
612.90624	23738.3375
616.90371	22509.7375
620.89834	15570.2375
624.89015	11973.8375
628.87913	11370.8375
632.86528	11563.6375
636.84862	11785.6375
640.82913	11555.7375
644.80683	10885.3375
648.78172	10376.5375
652.75379	10344.2375
656.72306	10766.2375
660.68952	11408.5375
664.65319	11243.2375
668.61405	10581.5375
672.57211	10326.5375
676.52738	10353.7375
680.47986	10362.2375
684.42955	10190.4375
688.37646	10015.1375
692.32058	10039.3375
696.26192	10237.9375
700.20048	10494.4375
704.13626	10659.2375
708.06928	10696.9375
711.99952	10566.8375
715.927	10549.2375
719.85171	10595.1375
723.77365	10608.8375
727.69284	10434.4375
731.60928	10283.6375
735.52295	10257.8375
739.43388	10343.2375
743.34206	10446.1375
747.24749	10511.8375
751.15017	10579.4375
755.05012	10824.9375
758.94733	11463.8375
762.8418	13042.2375
766.73354	15807.1375
770.62254	18496.0375
774.50882	19423.3375
778.39237	18243.8375
782.27321	15705.7375
786.15132	13212.5375
790.02671	11585.2375
793.89938	10778.0375
797.76935	10419.6375
801.6366	10256.4375
805.50115	10147.4375
809.36299	10020.0375
813.22213	9926.7375
817.07857	9822.5375
820.93231	9778.5375
824.78336	9758.0375
828.63172	9755.5375
832.47738	9744.4375
836.32036	9720.0375
840.16066	9673.7375
843.99827	9646.7375
847.8332	9623.6375
851.66546	9616.7375
855.49504	9634.1375
859.32195	9645.5375
863.1462	9583.1375
866.96777	9539.8375
870.78668	9518.9375
874.60293	9521.4375
878.41652	9547.5375
882.22745	9652.2375
886.03573	9729.8375
889.84136	9763.1375
893.64433	9750.1375
897.44466	9714.0375
901.24235	9667.0375
905.0374	9536.0375
908.8298	9440.1375
912.61957	9360.2375
916.40671	9371.1375
920.19121	9546.0375
923.97308	9761.0375
927.75233	9937.4375
931.52895	9966.8375
935.30295	9745.5375
939.07433	9337.3375
942.84309	9023.3375
946.60924	8843.8375
950.37278	8806.1375
954.13371	8768.9375
957.89203	8752.5375
961.64774	8738.7375
965.40086	8699.1375
969.15137	8658.7375
972.89929	8642.2375
976.64461	8617.1375
980.38733	8569.6375
984.12747	8588.8375
987.86502	8661.8375
991.59999	8771.8375
995.33237	8968.8375
999.06217	9312.4375
1002.78939	9724.5375
1006.51404	10139.4375
1010.23611	10510.8375
1013.95561	10732.0375
1017.67255	10704.3375
1021.38692	10419.3375
1025.09872	9985.4375
1028.80796	9714.6375
1032.51465	9675.1375
1036.21877	9722.3375
1039.92035	9819.5375
1043.61937	9850.1375
1047.31584	9870.7375
1051.00976	9826.3375
1054.70114	9801.3375
1058.38998	9795.0375
1062.07627	9835.3375
1065.76003	9910.2375
1069.44126	10068.4375
1073.11995	10350.4375
1076.79611	10692.5375
1080.46974	10969.2375
1084.14085	11351.2375
1087.80943	11770.7375
1091.47549	11956.9375
1095.13903	11803.0375
1098.80005	11345.8375
1102.45857	10865.9375
1106.11456	10621.1375
1109.76805	10621.8375
1113.41903	10839.6375
1117.06751	11240.3375
1120.71348	11762.7375
1124.35696	12392.1375
1127.99793	12958.3375
1131.63641	12912.0375
1135.2724	12397.1375
1138.90589	11868.3375
1142.5369	11576.5375
1146.16542	11397.1375
1149.79145	11340.5375
1153.415	11405.0375
1157.03607	11562.8375
1160.65467	11973.6375
1164.27079	12725.2375
1167.88443	13902.8375
1171.49561	15598.2375
1175.10432	18117.5375
1178.71056	21439.4375
1182.31434	24187.1375
1185.91565	25138.5375
1189.51451	24281.6375
1193.11091	22673.7375
1196.70485	20792.6375
1200.29634	19040.7375
1203.88538	17582.6375
1207.47197	16260.4375
1211.05612	15227.9375
1214.63782	14673.9375
1218.21708	14530.9375
1221.79391	14709.6375
1225.36829	14906.5375
1228.94024	14760.3375
1232.50976	14234.5375
1236.07685	13636.6375
1239.6415	13311.2375
1243.20374	13192.2375
1246.76355	13178.0375
1250.32093	13368.1375
1253.8759	13734.3375
1257.42845	14348.9375
1260.97859	15092.4375
1264.52631	15957.0375
1268.07163	16838.1375
1271.61453	17635.9375
1275.15503	18301.6375
1278.69312	18874.8375
1282.22882	19504.5375
1285.76211	20437.2375
1289.29301	21631.7375
1292.82151	23000.6375
1296.34761	24593.4375
1299.87133	26632.2375
1303.39266	29369.5375
1306.9116	32806.5375
1310.42815	36357.8375
1313.94233	38293.0375
1317.45412	37372.9375
1320.96354	34682.8375
1324.47058	31880.1375
1327.97525	29609.1375
1331.47754	27966.5375
1334.97747	27082.5375
1338.47502	26659.7375
1341.97022	26609.4375
1345.46305	26912.1375
1348.95352	27869.1375
1352.44163	29470.8375
1355.92738	32238.6375
1359.41078	36627.9375
1362.89183	40853.6375
1366.37053	40155.2375
1369.84688	34056.6375
1373.32088	27553.3375
1376.79254	23534.5375
1380.26186	21647.0375
1383.72883	20738.5375
1387.19347	20103.5375
1390.65578	19582.8375
1394.11575	19416.7375
1397.57339	19601.0375
1401.0287	19881.0375
1404.48168	20043.7375
1407.93234	19880.7375
1411.38068	19400.7375
1414.82669	18739.7375
1418.27039	18024.8375
1421.71177	17259.4375
1425.15083	16603.1375
1428.58758	16308.4375
1432.02203	16539.0375
1435.45416	17018.2375
1438.88399	17385.5375
1442.31151	17562.0375
1445.73673	17751.5375
1449.15965	18013.7375
1452.58027	18164.0375
1455.9986	18217.3375
1459.41463	18401.1375
1462.82837	18877.9375
1466.23982	19399.3375
1469.64898	19871.5375
1473.05586	20089.2375
1476.46045	20059.0375
1479.86276	19980.5375
1483.26279	20048.2375
1486.66054	20323.7375
1490.05602	20928.1375
1493.44922	21873.8375
1496.84016	23250.5375
1500.22882	25425.2375
1503.61521	28486.3375
1506.99934	31990.8375
1510.38121	34814.8375
1513.76081	35326.7375
1517.13816	32823.1375
1520.51324	28649.1375
1523.88607	25026.2375
1527.25665	22829.3375
1530.62498	21808.0375
1533.99105	21189.4375
1537.35488	20618.9375
1540.71647	19977.8375
1544.07581	19242.4375
1547.4329	18567.7375
1550.78776	18019.1375
1554.14038	17733.3375
1557.49077	17741.8375
1560.83892	17949.9375
1564.18484	18526.1375
1567.52853	19238.8375
1570.86999	19948.7375
1574.20922	20442.9375
1577.54624	20474.8375
1580.88103	19555.0375
1584.2136	18401.4375
1587.54395	18116.7375
1590.87208	18927.3375
1594.19801	20662.3375
1597.52172	22742.9375
1600.84321	23481.1375
1604.16251	22250.9375
1607.47959	19903.7375
1610.79447	17428.7375
1614.10715	15310.8375
1617.41763	13683.9375
1620.7259	12614.8375
1624.03199	12130.4375
1627.33587	12152.1375
1630.63757	12691.9375
1633.93707	13982.4375
1637.23439	16259.8375
1640.52951	19839.3375
1643.82246	24534.0375
1647.11321	29116.9375
1650.40179	31083.9375
1653.68819	28784.0375
1656.97241	23294.8375
1660.25446	17786.1375
1663.53433	13979.6375
1666.81203	11691.6375
1670.08756	10379.0375
1673.36092	9642.9375
1676.63211	9133.0375
1679.90115	8821.2375
1683.16801	8584.0375
1686.43272	8407.3375
1689.69527	8278.1375
1692.95567	8179.4375
1696.2139	8126.7375
1699.46999	8065.9375
1702.72392	8020.0375
1705.97571	7999.3375
1709.22535	7969.6375
1712.47284	7964.1375
1715.71819	7951.0375
1718.96139	7936.3375
1722.20246	7855.2375
1725.44139	7793.0375
1728.67818	7685.9375
1731.91284	7586.8375
1735.14537	7517.5375
1738.37576	7445.5375
1741.60403	7410.8375
1744.83017	7349.8375
1748.05418	7321.9375
1751.27607	7314.7375
1754.49584	7278.8375
1757.71349	7267.1375
1760.92903	7239.1375
1764.14244	7203.0375
1767.35375	7183.7375
1770.56294	7155.6375
1773.77002	7148.7375
1776.97499	7114.6375
1780.17785	7093.7375
1783.37861	7061.6375
1786.57727	7058.8375
1789.77382	7017.0375
1792.96828	6983.3375
1796.16064	6975.1375
1799.3509	6944.3375
1802.53907	6935.1375
1805.72514	6902.1375
1808.90913	6888.0375
1812.09102	6851.8375
1815.27083	6835.3375
1818.44856	6813.3375
1821.6242	6794.3375
1824.79776	6795.7375
1827.96924	6775.8375
1831.13864	6773.3375
1834.30597	6772.9375
1837.47122	6752.0375
1840.6344	6730.8375
1843.7955	6755.3375
1846.95454	6738.2375
1850.11151	6735.4375
1853.26642	6715.9375
1856.41926	6727.9375
1859.57004	6730.0375
1862.71876	6732.6375
1865.86542	6740.1375
1869.01003	6736.2375
1872.15258	6723.1375
1875.29308	6738.8375
1878.43152	6765.2375
1881.56792	6769.4375
1884.70227	6758.0375
1887.83457	6763.2375
1890.96482	6767.1375
1894.09304	6764.8375
1897.21921	6756.0375
1900.34335	6767.5375
1903.46544	6759.6375
1906.58551	6771.2375
1909.70353	6729.1375
1912.81953	6706.6375
1915.93349	6705.0375
1919.04543	6677.8375
1922.15534	6636.4375
1925.26322	6614.3375
1928.36908	6573.4375
1931.47292	6551.8375
1934.57473	6530.2375
1937.67453	6540.9375
1940.77232	6540.5375
1943.86808	6452.6375
1946.96184	6422.6375
1950.05358	6408.2375
1953.14331	6396.5375
1956.23103	6384.6375
1959.31675	6341.7375
1962.40046	6327.6375
1965.48217	6328.8375
1968.56188	6298.3375
1971.63959	6304.0375
1974.7153	6311.4375
1977.78901	6267.4375
1980.86073	6237.7375
1983.93046	6204.6375
1986.99819	6170.3375
1990.06394	6154.9375
1993.1277	6130.0375
1996.18947	6112.1375
1999.24925	6091.5375
2002.30706	6071.2375
2005.36288	6046.5375
2008.41672	6037.2375
2011.46859	6002.7375
2014.51848	5977.8375
2017.56639	5959.0375
2020.61233	5947.6375
2023.6563	5927.4375
2026.6983	5900.8375
2029.73833	5875.6375
2032.7764	5859.7375
2035.8125	5848.1375
2038.84664	5831.4375
2041.87881	5828.8375
2044.90903	5780.0375
2047.93729	5785.6375
2050.96359	5787.4375
2053.98794	5771.3375
2057.01034	5757.1375
2060.03078	5764.1375
2063.04927	5773.7375
2066.06582	5770.9375
2069.08042	5758.3375
2072.09307	5763.3375
2075.10378	5768.5375
2078.11255	5779.3375
2081.11938	5795.0375
2084.12426	5790.2375
2087.12722	5789.3375
2090.12824	5799.1375
2093.12732	5800.8375
2096.12447	5774.1375
2099.11969	5785.1375
2102.11299	5779.0375
2105.10435	5790.5375
2108.09379	5756.7375
2111.08131	5753.2375
2114.0669	5730.8375
2117.05057	5738.9375
2120.03233	5730.9375
2123.01216	5721.2375
2125.99008	5723.9375
2128.96609	5706.3375
2131.94018	5706.0375
2134.91236	5704.0375
2137.88263	5700.8375
2140.851	5678.4375
2143.81746	5675.1375
2146.78201	5663.9375
2149.74466	5671.9375
2152.7054	5675.1375
2155.66425	5643.9375
2158.6212	5628.9375
2161.57625	5628.0375
2164.52941	5618.4375
2167.48067	5591.6375
2170.43004	5590.1375
2173.37752	5593.7375
2176.32311	5573.1375
2179.26681	5594.5375
2182.20863	5556.9375
2185.14856	5576.4375
2188.08661	5581.6375
2191.02278	5560.5375
2193.95707	5556.2375
2196.88948	5544.9375
2199.82001	5542.1375
2202.74867	5518.0375
2205.67545	5507.3375
2208.60037	5512.9375
2211.52341	5504.6375
2214.44458	5511.6375
2217.36388	5480.6375
2220.28132	5468.3375
2223.1969	5460.2375
2226.11061	5444.5375
2229.02246	5427.3375
2231.93245	5415.7375
2234.84058	5426.1375
2237.74686	5397.2375
2240.65128	5424.3375
2243.55385	5386.6375
2246.45456	5386.4375
2249.35343	5377.7375
2252.25044	5358.8375
2255.14561	5353.3375
2258.03893	5354.6375
2260.93041	5351.1375
2263.82004	5343.9375
2266.70783	5320.5375
2269.59378	5306.3375
2272.4779	5292.3375
2275.36017	5288.9375
2278.24061	5273.9375
2281.11922	5263.8375
2283.996	5269.7375
2286.87094	5233.6375
2289.74405	5217.7375
2292.61534	5222.2375
2295.4848	5219.8375
2298.35243	5191.6375
2301.21824	5193.4375
2304.08223	5195.1375
2306.94439	5178.0375
2309.80474	5198.4375
2312.66327	5196.8375
2315.51999	5210.2375
2318.37489	5217.9375
2321.22797	5196.4375
2324.07925	5179.3375
2326.92871	5174.0375
2329.77637	5176.9375
2332.62222	5168.9375
2335.46626	5157.2375
2338.3085	5160.9375
2341.14893	5155.8375
2343.98756	5175.4375
2346.8244	5187.4375
2349.65943	5193.8375
2352.49267	5190.4375
2355.32411	5218.8375
2358.15376	5211.9375
2360.98161	5209.1375
2363.80768	5227.9375
2366.63195	5222.6375
2369.45444	5226.6375
2372.27514	5228.8375
2375.09405	5209.9375
2377.91118	5201.8375
2380.72652	5177.6375
2383.54009	5160.2375
2386.35187	5121.9375
2389.16188	5096.3375
2391.97011	5105.1375
2394.77657	5069.9375
2397.58125	5077.6375
2400.38416	5044.5375
2403.18529	5043.4375
2405.98466	5024.7375
2408.78226	5020.5375
2411.57809	5009.4375
2414.37216	5008.9375
2417.16446	4983.6375
2419.955	4989.1375
2422.74378	5015.9375
2425.5308	4981.7375
2428.31606	4994.7375
2431.09956	5005.2375
2433.88131	4997.0375
2436.6613	4983.6375
2439.43954	4988.2375
2442.21603	4995.7375
2444.99077	4994.5375
2447.76377	5005.0375
2450.53501	5004.2375
2453.30451	5031.1375
2456.07226	5028.9375
2458.83827	5023.1375
2461.60254	5043.6375
2464.36507	5038.1375
2467.12586	5026.1375
2469.88492	5024.3375
2472.64224	5041.2375
2475.39782	5037.5375
2478.15167	5043.2375
2480.90379	5055.5375
2483.65417	5067.2375
2486.40283	5072.4375
2489.14976	5075.5375
2491.89497	5095.2375
2494.63845	5098.4375
2497.3802	5080.4375
2500.12024	5084.1375
2502.85855	5072.3375
2505.59514	5056.7375
2508.33002	5035.9375
2511.06318	5017.8375
2513.79462	5010.5375
2516.52435	4974.9375
2519.25237	4962.9375
2521.97867	4959.1375
2524.70327	4950.9375
2527.42616	4922.4375
2530.14734	4921.0375
2532.86681	4935.8375
2535.58458	4925.9375
2538.30065	4917.7375
2541.01501	4925.5375
2543.72768	4940.0375
2546.43864	4944.7375
2549.14791	4932.8375
2551.85548	4931.3375
2554.56136	4939.0375
2557.26554	4918.9375
2559.96803	4926.5375
2562.66883	4918.4375
2565.36794	4907.9375
2568.06536	4913.5375
2570.7611	4911.7375
2573.45514	4909.7375
2576.14751	4897.4375
2578.83819	4891.6375
2581.52719	4910.3375
2584.21451	4870.7375
2586.90015	4878.4375
2589.58411	4881.2375
2592.2664	4871.6375
2594.94701	4884.6375
2597.62594	4869.8375
2600.30321	4866.8375
2602.9788	4874.8375
2605.65273	4854.2375
2608.32498	4858.5375
2610.99557	4868.1375
2613.66449	4868.8375
2616.33175	4883.0375
2618.99734	4875.3375
2621.66128	4881.0375
2624.32355	4874.6375
2626.98416	4870.3375
2629.64311	4868.1375
2632.30041	4859.0375
2634.95605	4838.9375
2637.61004	4846.0375
2640.26238	4843.2375
2642.91306	4842.6375
2645.56209	4830.7375
2648.20948	4828.6375
2650.85521	4833.8375
2653.4993	4847.5375
2656.14175	4853.4375
2658.78255	4865.4375
2661.42171	4852.3375
2664.05923	4881.7375
2666.6951	4891.1375
2669.32934	4886.2375
2671.96194	4882.4375
2674.59291	4864.3375
2677.22224	4880.2375
2679.84993	4882.0375
2682.476	4865.6375
2685.10043	4880.9375
2687.72324	4869.5375
2690.34441	4853.7375
2692.96396	4850.1375
2695.58188	4865.2375
2698.19818	4850.1375
2700.81285	4852.2375
2703.4259	4852.6375
2706.03733	4855.4375
2708.64714	4848.8375
2711.25533	4873.0375
2713.86191	4864.2375
2716.46687	4864.1375
2719.07021	4855.1375
2721.67194	4870.9375
2724.27206	4874.3375
2726.87057	4899.1375
2729.46747	4873.5375
2732.06276	4881.1375
2734.65644	4884.1375
2737.24852	4881.2375
2739.83899	4870.4375
2742.42786	4869.2375
2745.01513	4837.8375
2747.60079	4834.9375
2750.18486	4831.1375
2752.76733	4833.4375
2755.3482	4841.7375
2757.92747	4848.8375
2760.50515	4836.5375
2763.08123	4837.9375
2765.65573	4830.3375
2768.22863	4825.5375
2770.79994	4829.0375
2773.36967	4840.4375
2775.9378	4836.5375
2778.50435	4834.8375
2781.06932	4833.2375
2783.6327	4843.0375
2786.1945	4830.2375
2788.75471	4823.3375
2791.31335	4833.1375
2793.87041	4823.6375
2796.42589	4817.6375
2798.97979	4833.2375
2801.53212	4817.0375
2804.08288	4818.9375
2806.63206	4809.1375
2809.17967	4801.6375
2811.72571	4796.0375
2814.27018	4823.7375
2816.81308	4809.9375
2819.35442	4800.4375
2821.89419	4824.0375
2824.43239	4832.3375
2826.96904	4829.5375
2829.50412	4840.1375
2832.03763	4840.0375
2834.56959	4818.8375
2837.1	4831.3375
2839.62884	4806.0375
2842.15613	4813.8375
2844.68186	4841.5375
2847.20604	4853.6375
2849.72867	4875.3375
2852.24974	4878.6375
2854.76927	4868.3375
2857.28724	4876.4375
2859.80367	4881.3375
2862.31855	4884.9375
2864.83189	4895.6375
2867.34368	4910.4375
2869.85393	4923.2375
2872.36264	4907.4375
2874.8698	4916.8375
2877.37543	4921.7375
2879.87952	4928.3375
2882.38207	4925.5375
2884.88308	4918.0375
2887.38256	4909.8375
2889.88051	4923.7375
2892.37692	4925.4375
2894.8718	4925.5375
2897.36515	4931.4375
2899.85698	4910.9375
2902.34727	4920.0375
2904.83604	4933.8375
2907.32328	4939.0375
2909.809	4943.8375
2912.29319	4931.8375
2914.77587	4931.7375
2917.25702	4922.3375
2919.73665	4924.8375
2922.21476	4931.3375
2924.69136	4913.9375
2927.16644	4902.6375
2929.64	4870.7375
2932.11205	4866.0375
2934.58258	4839.8375
2937.05161	4857.9375
2939.51912	4827.5375
2941.98513	4819.5375
2944.44962	4799.4375
2946.91261	4769.2375
2949.37409	4781.8375
2951.83407	4763.0375
2954.29254	4759.7375
2956.74951	4738.8375
2959.20498	4737.2375
2961.65895	4716.1375
2964.11142	4711.1375
2966.56239	4695.0375
2969.01186	4678.3375
2971.45984	4653.3375
2973.90632	4646.3375
2976.35131	4619.0375
2978.7948	4610.1375
2981.23681	4594.5375
2983.67732	4587.3375
2986.11635	4572.5375
2988.55388	4554.4375
2990.98993	4549.4375
2993.4245	4553.7375
2995.85758	4525.4375
2998.28917	4512.2375
3000.71928	4520.4375
3003.14791	4518.1375
3005.57506	4501.3375
3008.00073	4487.4375
3010.42493	4496.2375
3012.84764	4485.3375
3015.26888	4481.6375
3017.68865	4478.0375
3020.10694	4457.6375
3022.52376	4421.2375
3024.9391	4433.2375
3027.35298	4410.8375
3029.76539	4410.1375
3032.17632	4403.7375
3034.5858	4396.4375
3036.9938	4391.1375
3039.40034	4372.5375
3041.80542	4375.2375
3044.20903	4358.2375
3046.61118	4350.5375
3049.01187	4352.4375
3051.4111	4333.7375
3053.80888	4325.6375
3056.20519	4322.5375
3058.60005	4321.2375
3060.99345	4316.0375
3063.3854	4311.3375
3065.7759	4280.4375
3068.16494	4268.8375
3070.55254	4266.5375
3072.93868	4252.7375
3075.32338	4231.9375
3077.70662	4214.9375
3080.08842	4209.5375
3082.46878	4217.2375
3084.84769	4204.2375
3087.22515	4195.5375
3089.60118	4199.2375
3091.97576	4177.1375
3094.3489	4173.8375
3096.72061	4178.5375
3099.09087	4170.7375
3101.4597	4164.6375
3103.82709	4149.2375
3106.19305	4151.1375
3108.55757	4147.4375
3110.92066	4133.9375
3113.28232	4135.2375
3115.64255	4115.0375
3118.00134	4106.1375
3120.35871	4100.3375
3122.71466	4109.3375
3125.06917	4079.1375
3127.42226	4079.2375
3129.77393	4104.3375
3132.12417	4083.0375
3134.47299	4101.4375
3136.82039	4102.2375
3139.16636	4113.6375
3141.51092	4104.4375
3143.85406	4087.3375
3146.19579	4097.9375
3148.53609	4096.8375
3150.87499	4105.0375
3153.21246	4101.4375
3155.54853	4119.6375
3157.88318	4096.0375
3160.21642	4100.5375
3162.54826	4099.2375
3164.87868	4108.1375
3167.2077	4089.6375
3169.5353	4099.2375
3171.86151	4100.5375
3174.18631	4088.0375
3176.5097	4088.0375
3178.83169	4096.3375
3181.15228	4096.8375
3183.47147	4091.7375
3185.78926	4104.9375
3188.10565	4094.6375
3190.42065	4110.1375
3192.73424	4099.2375
3195.04645	4116.8375
3197.35725	4116.7375
3199.66667	4114.8375
3201.97469	4119.9375
3204.28132	4109.2375
3206.58656	4115.2375
3208.8904	4119.9375
3211.19287	4119.6375
3213.49394	4118.5375
3215.79363	4112.0375
3218.09193	4114.8375
3220.38884	4113.7375
3222.68438	4123.5375
3224.97853	4117.1375
3227.2713	4111.6375
3229.56269	4118.5375
3231.8527	4126.0375
3234.14133	4100.1375
3236.42858	4113.1375
3238.71446	4097.5375
3240.99896	4100.2375
3243.28209	4096.6375
3245.56384	4088.1375
3247.84423	4093.5375
3250.12324	4099.7375
3252.40088	4093.1375
3254.67715	4087.7375
3256.95205	4061.9375
3259.22558	4064.9375
3261.49775	4059.6375
3263.76855	4056.5375
3266.03799	4042.6375
3268.30606	4042.6375
3270.57277	4026.7375
3272.83812	4028.0375
3275.10211	4045.8375
3277.36474	4039.8375
3279.62601	4035.9375
3281.88593	4038.4375
3284.14448	4048.4375
3286.40168	4041.7375
3288.65753	4043.7375
3290.91202	4045.3375
3293.16516	4040.6375
3295.41695	4035.8375
3297.66738	4009.0375
3299.91647	3996.9375
3302.16421	3972.6375
3304.4106	3952.3375
3306.65564	3935.0375
3308.89933	3919.7375
3311.14169	3888.9375
3313.38269	3854.7375
3315.62236	3830.3375
3317.86068	3796.6375
3320.09766	3765.8375
3322.3333	3728.8375
3324.5676	3721.7375
3326.80056	3648.8375
3329.03219	3639.6375
3331.26248	3.0375
3333.49143	-1.1625
3335.71905	0.6375
