Data from AgNP_FTO_APTES_UA_100uM_CRN_100uM_R6G_10uM_NaF_0.1M_Addition_RamanShift__34__18-27-10-607.txt Node

Date: Thu Mar 24 18:27:10 GMT 2022
User: TCL
Spectrometer: QEP01345
Trigger mode: 4
Integration Time (sec): 7.000000E0
Scans to average: 10
Electric dark correction enabled: true
Nonlinearity correction enabled: false
Boxcar width: 0
XAxis mode: Raman Shifts
Number of Pixels in Spectrum: 1044
>>>>>Begin Spectral Data<<<<<
46.04893	-2.275
50.45542	-1.075
54.85868	0.525
59.25871	-1.075
63.6555	31.825
68.04907	34.625
72.43941	34.425
76.82654	35.225
81.21044	41.925
85.59113	43.725
89.96862	44.725
94.34289	42.925
98.71396	46.225
103.08183	46.225
107.4465	48.125
111.80798	49.425
116.16626	49.825
120.52136	49.325
124.87327	51.125
129.222	49.825
133.56755	58.825
137.90993	56.925
142.24913	66.525
146.58517	69.825
150.91804	82.525
155.24774	95.925
159.57429	114.025
163.89768	147.425
168.21792	190.325
172.53501	258.125
176.84895	358.525
181.15975	506.625
185.46741	702.325
189.77193	969.125
194.07331	1295.825
198.37157	1662.125
202.6667	2068.725
206.9587	2460.625
211.24758	2872.925
215.53334	3288.725
219.81599	3740.125
224.09553	4236.025
228.37195	4807.525
232.64527	5429.625
236.91549	6053.925
241.18261	6648.025
245.44663	7158.725
249.70755	7562.825
253.96539	7883.325
258.22014	8177.425
262.4718	8437.625
266.72039	8595.725
270.96589	8684.625
275.20832	8661.625
279.44768	8557.025
283.68397	8455.825
287.91719	8371.825
292.14735	8318.125
296.37445	8426.325
300.59849	8621.725
304.81948	8858.925
309.03742	9053.225
313.25231	9025.625
317.46415	8782.825
321.67296	8349.625
325.87872	7991.825
330.08145	7815.225
334.28114	7769.825
338.47781	7839.025
342.67145	7980.725
346.86207	8177.925
351.04966	8469.725
355.23424	8799.525
359.4158	9024.525
363.59435	9142.125
367.76989	9163.525
371.94243	9153.825
376.11196	9135.125
380.27849	9122.925
384.44203	9075.525
388.60257	9065.125
392.76012	9073.425
396.91468	9164.725
401.06626	9320.425
405.21485	9421.925
409.36047	9290.625
413.50311	8964.325
417.64277	8612.925
421.77947	8452.725
425.9132	8415.825
430.04396	8452.025
434.17176	8500.525
438.2966	8594.025
442.41849	8814.525
446.53742	9097.725
450.6534	9404.125
454.76644	9552.725
458.87653	9573.025
462.98368	9450.625
467.08789	9316.925
471.18916	9175.225
475.2875	8990.225
479.38291	8855.525
483.4754	8694.725
487.56496	8553.225
491.6516	8457.525
495.73531	8373.625
499.81612	8335.525
503.89401	8413.225
507.96899	8448.025
512.04106	8464.125
516.11023	8500.125
520.1765	8485.325
524.23987	8465.125
528.30034	8412.125
532.35792	8347.025
536.41261	8235.425
540.46441	8081.825
544.51333	8027.825
548.55936	8069.725
552.60252	8298.125
556.64279	8534.525
560.6802	8675.025
564.71473	8772.625
568.7464	9004.225
572.7752	9289.625
576.80114	9378.825
580.82422	9429.925
584.84444	9576.925
588.86181	9813.125
592.87633	10137.825
596.888	10386.225
600.89682	10338.325
604.9028	10711.625
608.90594	12430.225
612.90624	14709.825
616.90371	13855.425
620.89834	10298.325
624.89015	8575.425
628.87913	8308.025
632.86528	8469.625
636.84862	8639.825
640.82913	8523.425
644.80683	8128.225
648.78172	7812.425
652.75379	7741.625
656.72306	7937.225
660.68952	8209.125
664.65319	8118.025
668.61405	7756.425
672.57211	7607.825
676.52738	7609.825
680.47986	7610.625
684.42955	7536.125
688.37646	7457.525
692.32058	7453.925
696.26192	7548.525
700.20048	7669.625
704.13626	7737.525
708.06928	7740.925
711.99952	7697.725
715.927	7673.625
719.85171	7717.425
723.77365	7747.725
727.69284	7703.225
731.60928	7664.125
735.52295	7663.125
739.43388	7666.425
743.34206	7691.225
747.24749	7724.625
751.15017	7739.025
755.05012	7838.125
758.94733	8194.825
762.8418	8998.725
766.73354	10411.525
770.62254	11777.925
774.50882	12236.525
778.39237	11561.025
782.27321	10170.925
786.15132	8827.425
790.02671	8022.225
793.89938	7639.825
797.76935	7463.825
801.6366	7388.825
805.50115	7349.425
809.36299	7300.425
813.22213	7277.925
817.07857	7256.625
820.93231	7230.925
824.78336	7181.125
828.63172	7196.425
832.47738	7167.925
836.32036	7142.525
840.16066	7132.325
843.99827	7097.925
847.8332	7064.625
851.66546	7091.325
855.49504	7098.225
859.32195	7073.625
863.1462	7053.725
866.96777	7062.525
870.78668	7044.325
874.60293	7078.225
878.41652	7108.025
882.22745	7138.325
886.03573	7176.225
889.84136	7194.425
893.64433	7142.925
897.44466	7126.625
901.24235	7075.125
905.0374	7016.425
908.8298	6980.225
912.61957	6952.525
916.40671	6965.325
920.19121	7039.125
923.97308	7137.325
927.75233	7167.725
931.52895	7148.825
935.30295	7064.225
939.07433	6859.225
942.84309	6690.125
946.60924	6628.525
950.37278	6562.625
954.13371	6539.025
957.89203	6536.525
961.64774	6540.625
965.40086	6530.225
969.15137	6516.825
972.89929	6478.125
976.64461	6435.025
980.38733	6450.025
984.12747	6438.625
987.86502	6460.825
991.59999	6528.925
995.33237	6616.725
999.06217	6776.725
1002.78939	7003.925
1006.51404	7196.825
1010.23611	7402.925
1013.95561	7513.325
1017.67255	7420.125
1021.38692	7254.125
1025.09872	7058.525
1028.80796	6905.425
1032.51465	6854.725
1036.21877	6890.725
1039.92035	6928.225
1043.61937	6970.525
1047.31584	6977.725
1051.00976	7007.025
1054.70114	7038.125
1058.38998	7018.125
1062.07627	7054.925
1065.76003	7137.925
1069.44126	7207.825
1073.11995	7347.525
1076.79611	7477.925
1080.46974	7592.925
1084.14085	7771.825
1087.80943	7948.425
1091.47549	8016.225
1095.13903	7945.625
1098.80005	7740.225
1102.45857	7515.325
1106.11456	7380.325
1109.76805	7385.125
1113.41903	7522.825
1117.06751	7749.325
1120.71348	8043.825
1124.35696	8384.525
1127.99793	8637.525
1131.63641	8640.525
1135.2724	8388.225
1138.90589	8107.325
1142.5369	7904.425
1146.16542	7803.025
1149.79145	7748.225
1153.415	7771.125
1157.03607	7870.925
1160.65467	8052.725
1164.27079	8413.225
1167.88443	8985.225
1171.49561	9811.025
1175.10432	11017.125
1178.71056	12598.525
1182.31434	13916.025
1185.91565	14330.125
1189.51451	13915.325
1193.11091	13127.925
1196.70485	12214.025
1200.29634	11360.525
1203.88538	10734.225
1207.47197	10078.725
1211.05612	9570.825
1214.63782	9243.325
1218.21708	9086.025
1221.79391	9064.125
1225.36829	9053.325
1228.94024	8971.925
1232.50976	8795.725
1236.07685	8598.825
1239.6415	8504.925
1243.20374	8510.725
1246.76355	8523.925
1250.32093	8615.525
1253.8759	8764.525
1257.42845	9022.925
1260.97859	9353.925
1264.52631	9739.225
1268.07163	10118.225
1271.61453	10465.525
1275.15503	10733.225
1278.69312	10959.625
1282.22882	11227.525
1285.76211	11619.825
1289.29301	12130.825
1292.82151	12759.625
1296.34761	13465.225
1299.87133	14405.325
1303.39266	15696.725
1306.9116	17346.825
1310.42815	18974.025
1313.94233	19772.525
1317.45412	19315.125
1320.96354	18254.025
1324.47058	17110.925
1327.97525	16066.725
1331.47754	15269.425
1334.97747	14834.125
1338.47502	14691.625
1341.97022	14850.925
1345.46305	15191.625
1348.95352	15748.225
1352.44163	16636.525
1355.92738	17997.225
1359.41078	20130.425
1362.89183	22197.425
1366.37053	21756.925
1369.84688	18672.825
1373.32088	15473.525
1376.79254	13541.725
1380.26186	12633.725
1383.72883	12075.425
1387.19347	11662.125
1390.65578	11298.625
1394.11575	11107.625
1397.57339	11126.425
1401.0287	11219.925
1404.48168	11383.825
1407.93234	11375.325
1411.38068	11241.725
1414.82669	10996.225
1418.27039	10622.825
1421.71177	10215.825
1425.15083	9819.325
1428.58758	9599.325
1432.02203	9660.225
1435.45416	9888.225
1438.88399	10125.525
1442.31151	10249.125
1445.73673	10393.525
1449.15965	10536.125
1452.58027	10590.625
1455.9986	10563.225
1459.41463	10603.725
1462.82837	10830.525
1466.23982	11223.325
1469.64898	11640.125
1473.05586	11974.525
1476.46045	12201.325
1479.86276	12379.125
1483.26279	12514.925
1486.66054	12700.425
1490.05602	13072.125
1493.44922	13565.025
1496.84016	14305.025
1500.22882	15388.125
1503.61521	16939.425
1506.99934	18646.425
1510.38121	19804.225
1513.76081	19625.425
1517.13816	18121.425
1520.51324	15965.425
1523.88607	14180.425
1527.25665	13098.025
1530.62498	12552.525
1533.99105	12233.325
1537.35488	11929.325
1540.71647	11603.525
1544.07581	11275.525
1547.4329	10968.325
1550.78776	10742.625
1554.14038	10596.925
1557.49077	10594.625
1560.83892	10707.925
1564.18484	11018.525
1567.52853	11429.525
1570.86999	11837.425
1574.20922	12124.025
1577.54624	12117.225
1580.88103	11596.025
1584.2136	10963.525
1587.54395	10742.425
1590.87208	11027.025
1594.19801	11790.125
1597.52172	12678.625
1600.84321	13044.625
1604.16251	12547.325
1607.47959	11554.125
1610.79447	10493.125
1614.10715	9544.125
1617.41763	8738.125
1620.7259	8212.625
1624.03199	7903.525
1627.33587	7897.025
1630.63757	8134.725
1633.93707	8697.125
1637.23439	9773.625
1640.52951	11466.525
1643.82246	13736.425
1647.11321	15995.025
1650.40179	17081.525
1653.68819	16106.725
1656.97241	13592.125
1660.25446	10928.125
1663.53433	8995.625
1666.81203	7831.325
1670.08756	7147.825
1673.36092	6723.425
1676.63211	6460.625
1679.90115	6275.025
1683.16801	6123.625
1686.43272	6004.325
1689.69527	5904.825
1692.95567	5827.125
1696.2139	5787.425
1699.46999	5752.025
1702.72392	5710.025
1705.97571	5681.925
1709.22535	5664.525
1712.47284	5641.625
1715.71819	5614.925
1718.96139	5570.525
1722.20246	5537.225
1725.44139	5505.825
1728.67818	5428.725
1731.91284	5371.225
1735.14537	5326.025
1738.37576	5321.525
1741.60403	5280.525
1744.83017	5248.925
1748.05418	5242.825
1751.27607	5212.825
1754.49584	5191.325
1757.71349	5176.125
1760.92903	5161.925
1764.14244	5153.425
1767.35375	5149.525
1770.56294	5129.525
1773.77002	5097.125
1776.97499	5079.925
1780.17785	5062.825
1783.37861	5038.925
1786.57727	5022.325
1789.77382	5014.225
1792.96828	5011.725
1796.16064	4983.125
1799.3509	4982.025
1802.53907	4951.925
1805.72514	4924.525
1808.90913	4906.925
1812.09102	4908.025
1815.27083	4885.925
1818.44856	4884.725
1821.6242	4877.425
1824.79776	4851.125
1827.96924	4837.625
1831.13864	4816.425
1834.30597	4808.125
1837.47122	4811.225
1840.6344	4806.725
1843.7955	4795.525
1846.95454	4777.625
1850.11151	4779.125
1853.26642	4761.225
1856.41926	4758.125
1859.57004	4768.625
1862.71876	4737.625
1865.86542	4746.725
1869.01003	4743.625
1872.15258	4715.525
1875.29308	4728.125
1878.43152	4732.725
1881.56792	4720.025
1884.70227	4712.225
1887.83457	4704.725
1890.96482	4701.225
1894.09304	4705.225
1897.21921	4701.425
1900.34335	4666.925
1903.46544	4678.325
1906.58551	4654.525
1909.70353	4663.725
1912.81953	4661.225
1915.93349	4651.025
1919.04543	4631.925
1922.15534	4631.725
1925.26322	4610.925
1928.36908	4582.525
1931.47292	4570.225
1934.57473	4568.125
1937.67453	4549.025
1940.77232	4533.425
1943.86808	4530.525
1946.96184	4503.825
1950.05358	4493.325
1953.14331	4481.025
1956.23103	4448.625
1959.31675	4434.625
1962.40046	4423.625
1965.48217	4423.925
1968.56188	4412.125
1971.63959	4393.425
1974.7153	4388.225
1977.78901	4362.525
1980.86073	4348.925
1983.93046	4317.225
1986.99819	4320.825
1990.06394	4288.525
1993.1277	4270.625
1996.18947	4253.025
1999.24925	4233.325
2002.30706	4241.425
2005.36288	4195.725
2008.41672	4192.925
2011.46859	4174.625
2014.51848	4159.125
2017.56639	4150.425
2020.61233	4134.025
2023.6563	4126.525
2026.6983	4115.925
2029.73833	4095.725
2032.7764	4090.025
2035.8125	4058.625
2038.84664	4061.925
2041.87881	4058.525
2044.90903	4051.225
2047.93729	4039.725
2050.96359	4024.825
2053.98794	4015.125
2057.01034	4026.625
2060.03078	4016.925
2063.04927	3996.525
2066.06582	3992.225
2069.08042	3994.025
2072.09307	3977.725
2075.10378	3988.025
2078.11255	3976.025
2081.11938	3986.225
2084.12426	3981.025
2087.12722	3977.325
2090.12824	3971.225
2093.12732	3968.125
2096.12447	3980.425
2099.11969	3975.825
2102.11299	3961.625
2105.10435	3957.825
2108.09379	3965.925
2111.08131	3967.525
2114.0669	3963.125
2117.05057	3971.925
2120.03233	3971.925
2123.01216	3982.425
2125.99008	3955.225
2128.96609	3966.525
2131.94018	3962.325
2134.91236	3959.225
2137.88263	3957.825
2140.851	3949.725
2143.81746	3962.525
2146.78201	3955.025
2149.74466	3953.025
2152.7054	3941.025
2155.66425	3939.725
2158.6212	3947.525
2161.57625	3926.925
2164.52941	3919.025
2167.48067	3927.125
2170.43004	3907.225
2173.37752	3927.725
2176.32311	3911.325
2179.26681	3912.425
2182.20863	3898.225
2185.14856	3913.225
2188.08661	3895.125
2191.02278	3910.525
2193.95707	3902.825
2196.88948	3876.325
2199.82001	3890.425
2202.74867	3891.125
2205.67545	3867.125
2208.60037	3869.825
2211.52341	3844.525
2214.44458	3837.925
2217.36388	3831.725
2220.28132	3830.425
2223.1969	3816.625
2226.11061	3817.225
2229.02246	3794.525
2231.93245	3794.325
2234.84058	3788.925
2237.74686	3772.925
2240.65128	3773.025
2243.55385	3772.125
2246.45456	3765.625
2249.35343	3769.325
2252.25044	3771.625
2255.14561	3752.325
2258.03893	3752.725
2260.93041	3737.525
2263.82004	3735.725
2266.70783	3726.925
2269.59378	3720.325
2272.4779	3699.025
2275.36017	3689.425
2278.24061	3690.925
2281.11922	3683.525
2283.996	3667.825
2286.87094	3651.325
2289.74405	3645.525
2292.61534	3642.925
2295.4848	3642.325
2298.35243	3629.525
2301.21824	3623.125
2304.08223	3617.825
2306.94439	3611.625
2309.80474	3620.225
2312.66327	3610.025
2315.51999	3607.325
2318.37489	3606.925
2321.22797	3605.525
2324.07925	3602.525
2326.92871	3582.625
2329.77637	3590.325
2332.62222	3591.525
2335.46626	3572.625
2338.3085	3581.725
2341.14893	3575.525
2343.98756	3564.325
2346.8244	3595.125
2349.65943	3578.325
2352.49267	3584.525
2355.32411	3595.925
2358.15376	3589.525
2360.98161	3605.525
2363.80768	3592.625
2366.63195	3614.725
2369.45444	3613.025
2372.27514	3596.425
2375.09405	3585.925
2377.91118	3579.625
2380.72652	3566.525
2383.54009	3560.125
2386.35187	3550.625
2389.16188	3530.625
2391.97011	3521.925
2394.77657	3500.325
2397.58125	3489.125
2400.38416	3484.925
2403.18529	3470.125
2405.98466	3477.725
2408.78226	3450.825
2411.57809	3444.325
2414.37216	3436.125
2417.16446	3439.525
2419.955	3436.225
2422.74378	3440.125
2425.5308	3428.425
2428.31606	3418.625
2431.09956	3428.825
2433.88131	3429.825
2436.6613	3427.125
2439.43954	3424.225
2442.21603	3428.225
2444.99077	3436.525
2447.76377	3412.025
2450.53501	3418.625
2453.30451	3434.525
2456.07226	3418.625
2458.83827	3422.625
2461.60254	3416.825
2464.36507	3424.225
2467.12586	3411.825
2469.88492	3408.725
2472.64224	3427.825
2475.39782	3414.225
2478.15167	3440.425
2480.90379	3426.825
2483.65417	3462.325
2486.40283	3439.525
2489.14976	3454.525
2491.89497	3467.825
2494.63845	3465.525
2497.3802	3447.825
2500.12024	3466.225
2502.85855	3449.025
2505.59514	3440.325
2508.33002	3411.625
2511.06318	3400.525
2513.79462	3397.825
2516.52435	3372.925
2519.25237	3369.825
2521.97867	3360.725
2524.70327	3348.425
2527.42616	3349.925
2530.14734	3356.425
2532.86681	3360.425
2535.58458	3354.825
2538.30065	3339.325
2541.01501	3347.025
2543.72768	3341.725
2546.43864	3338.125
2549.14791	3339.525
2551.85548	3342.325
2554.56136	3331.825
2557.26554	3313.925
2559.96803	3321.025
2562.66883	3311.925
2565.36794	3316.625
2568.06536	3318.525
2570.7611	3307.325
2573.45514	3291.025
2576.14751	3293.425
2578.83819	3293.125
2581.52719	3293.625
2584.21451	3291.225
2586.90015	3292.325
2589.58411	3270.025
2592.2664	3278.125
2594.94701	3271.025
2597.62594	3267.025
2600.30321	3261.425
2602.9788	3257.725
2605.65273	3267.325
2608.32498	3263.525
2610.99557	3258.025
2613.66449	3263.025
2616.33175	3252.125
2618.99734	3261.125
2621.66128	3255.125
2624.32355	3260.925
2626.98416	3250.525
2629.64311	3250.525
2632.30041	3247.725
2634.95605	3240.125
2637.61004	3239.325
2640.26238	3245.625
2642.91306	3238.825
2645.56209	3218.725
2648.20948	3231.125
2650.85521	3233.225
2653.4993	3240.225
2656.14175	3232.925
2658.78255	3242.925
2661.42171	3255.625
2664.05923	3238.925
2666.6951	3260.025
2669.32934	3263.325
2671.96194	3252.925
2674.59291	3261.225
2677.22224	3263.925
2679.84993	3254.625
2682.476	3239.625
2685.10043	3249.125
2687.72324	3231.925
2690.34441	3239.725
2692.96396	3232.325
2695.58188	3251.025
2698.19818	3229.725
2700.81285	3238.525
2703.4259	3234.225
2706.03733	3240.625
2708.64714	3235.125
2711.25533	3252.525
2713.86191	3245.325
2716.46687	3254.725
2719.07021	3254.425
2721.67194	3266.625
2724.27206	3248.325
2726.87057	3258.325
2729.46747	3260.125
2732.06276	3255.425
2734.65644	3250.925
2737.24852	3261.025
2739.83899	3239.625
2742.42786	3245.225
2745.01513	3235.325
2747.60079	3226.125
2750.18486	3217.825
2752.76733	3221.425
2755.3482	3216.525
2757.92747	3214.425
2760.50515	3209.625
2763.08123	3205.725
2765.65573	3198.725
2768.22863	3218.725
2770.79994	3205.825
2773.36967	3196.525
2775.9378	3215.625
2778.50435	3206.225
2781.06932	3214.625
2783.6327	3207.025
2786.1945	3211.625
2788.75471	3202.525
2791.31335	3204.425
2793.87041	3210.125
2796.42589	3192.225
2798.97979	3193.225
2801.53212	3192.625
2804.08288	3181.225
2806.63206	3183.725
2809.17967	3184.025
2811.72571	3172.925
2814.27018	3187.125
2816.81308	3178.625
2819.35442	3160.625
2821.89419	3165.325
2824.43239	3174.725
2826.96904	3170.125
2829.50412	3166.525
2832.03763	3163.125
2834.56959	3162.425
2837.1	3161.625
2839.62884	3169.225
2842.15613	3158.525
2844.68186	3160.825
2847.20604	3163.725
2849.72867	3183.125
2852.24974	3180.225
2854.76927	3171.025
2857.28724	3170.025
2859.80367	3171.325
2862.31855	3167.525
2864.83189	3181.025
2867.34368	3179.425
2869.85393	3168.625
2872.36264	3178.025
2874.8698	3170.225
2877.37543	3176.225
2879.87952	3173.525
2882.38207	3161.125
2884.88308	3175.025
2887.38256	3171.425
2889.88051	3162.025
2892.37692	3158.225
2894.8718	3164.625
2897.36515	3168.725
2899.85698	3158.825
2902.34727	3169.625
2904.83604	3166.825
2907.32328	3172.425
2909.809	3179.725
2912.29319	3180.025
2914.77587	3175.525
2917.25702	3174.725
2919.73665	3168.125
2922.21476	3178.925
2924.69136	3158.225
2927.16644	3171.225
2929.64	3142.125
2932.11205	3160.225
2934.58258	3124.925
2937.05161	3136.925
2939.51912	3131.525
2941.98513	3133.525
2944.44962	3121.725
2946.91261	3115.225
2949.37409	3100.625
2951.83407	3108.425
2954.29254	3108.925
2956.74951	3108.525
2959.20498	3105.125
2961.65895	3092.425
2964.11142	3101.425
2966.56239	3097.925
2969.01186	3085.925
2971.45984	3070.925
2973.90632	3075.125
2976.35131	3061.225
2978.7948	3050.525
2981.23681	3045.025
2983.67732	3028.725
2986.11635	3025.525
2988.55388	3027.925
2990.98993	3016.325
2993.4245	3007.025
2995.85758	3005.225
2998.28917	3011.625
3000.71928	2989.025
3003.14791	2989.525
3005.57506	2995.125
3008.00073	2985.925
3010.42493	2987.325
3012.84764	2974.125
3015.26888	2974.825
3017.68865	2964.625
3020.10694	2969.325
3022.52376	2944.725
3024.9391	2948.725
3027.35298	2940.125
3029.76539	2937.525
3032.17632	2936.525
3034.5858	2928.625
3036.9938	2931.325
3039.40034	2918.325
3041.80542	2916.925
3044.20903	2908.125
3046.61118	2931.625
3049.01187	2911.725
3051.4111	2927.125
3053.80888	2902.325
3056.20519	2904.625
3058.60005	2889.425
3060.99345	2898.125
3063.3854	2879.825
3065.7759	2872.125
3068.16494	2881.925
3070.55254	2859.825
3072.93868	2863.125
3075.32338	2858.825
3077.70662	2853.225
3080.08842	2846.525
3082.46878	2847.525
3084.84769	2852.925
3087.22515	2846.025
3089.60118	2835.225
3091.97576	2848.525
3094.3489	2851.025
3096.72061	2847.025
3099.09087	2855.225
3101.4597	2849.525
3103.82709	2856.125
3106.19305	2845.525
3108.55757	2835.925
3110.92066	2838.825
3113.28232	2841.025
3115.64255	2825.725
3118.00134	2834.425
3120.35871	2832.725
3122.71466	2834.225
3125.06917	2828.525
3127.42226	2817.625
3129.77393	2823.825
3132.12417	2830.925
3134.47299	2824.725
3136.82039	2818.025
3139.16636	2831.025
3141.51092	2835.325
3143.85406	2818.125
3146.19579	2824.625
3148.53609	2835.125
3150.87499	2844.325
3153.21246	2850.125
3155.54853	2865.225
3157.88318	2859.525
3160.21642	2859.725
3162.54826	2863.725
3164.87868	2858.125
3167.2077	2857.725
3169.5353	2860.925
3171.86151	2875.025
3174.18631	2869.725
3176.5097	2865.425
3178.83169	2861.225
3181.15228	2858.325
3183.47147	2858.025
3185.78926	2864.325
3188.10565	2870.625
3190.42065	2862.525
3192.73424	2865.625
3195.04645	2868.425
3197.35725	2857.625
3199.66667	2866.025
3201.97469	2877.825
3204.28132	2875.525
3206.58656	2871.325
3208.8904	2885.325
3211.19287	2876.625
3213.49394	2884.025
3215.79363	2904.825
3218.09193	2891.525
3220.38884	2897.325
3222.68438	2910.525
3224.97853	2901.525
3227.2713	2907.825
3229.56269	2896.525
3231.8527	2900.025
3234.14133	2896.725
3236.42858	2879.525
3238.71446	2887.425
3240.99896	2869.425
3243.28209	2872.025
3245.56384	2873.725
3247.84423	2879.325
3250.12324	2873.625
3252.40088	2874.625
3254.67715	2872.325
3256.95205	2870.725
3259.22558	2867.125
3261.49775	2869.325
3263.76855	2848.725
3266.03799	2865.525
3268.30606	2852.525
3270.57277	2841.825
3272.83812	2844.925
3275.10211	2845.925
3277.36474	2851.225
3279.62601	2846.625
3281.88593	2838.725
3284.14448	2856.825
3286.40168	2855.325
3288.65753	2838.125
3290.91202	2842.125
3293.16516	2828.525
3295.41695	2828.725
3297.66738	2821.725
3299.91647	2815.025
3302.16421	2794.725
3304.4106	2786.925
3306.65564	2786.625
3308.89933	2751.325
3311.14169	2737.325
3313.38269	2711.425
3315.62236	2694.525
3317.86068	2676.725
3320.09766	2661.825
3322.3333	2633.325
3324.5676	2629.625
3326.80056	2590.225
3329.03219	2576.125
3331.26248	1.025
3333.49143	0.225
3335.71905	1.825
