Data from AgNP_FTO_APTES_UA_100uM_CRN_50uM_R6G_10uM_NaF_0.1M_Addition_RamanShift__12__17-21-50-535.txt Node

Date: Thu Mar 24 17:21:50 GMT 2022
User: TCL
Spectrometer: QEP01345
Trigger mode: 4
Integration Time (sec): 7.000000E0
Scans to average: 10
Electric dark correction enabled: true
Nonlinearity correction enabled: false
Boxcar width: 0
XAxis mode: Raman Shifts
Number of Pixels in Spectrum: 1044
>>>>>Begin Spectral Data<<<<<
46.04893	-0.3625
50.45542	-0.4625
54.85868	-0.3625
59.25871	-0.1625
63.6555	37.0375
68.04907	43.7375
72.43941	40.3375
76.82654	41.1375
81.21044	45.4375
85.59113	46.5375
89.96862	47.2375
94.34289	46.2375
98.71396	49.2375
103.08183	50.2375
107.4465	50.9375
111.80798	54.6375
116.16626	54.6375
120.52136	54.5375
124.87327	57.8375
129.222	60.4375
133.56755	68.9375
137.90993	71.1375
142.24913	82.6375
146.58517	88.2375
150.91804	102.2375
155.24774	120.8375
159.57429	159.8375
163.89768	225.8375
168.21792	277.1375
172.53501	362.1375
176.84895	513.3375
181.15975	730.9375
185.46741	1022.7375
189.77193	1421.6375
194.07331	1896.0375
198.37157	2453.8375
202.6667	3039.0375
206.9587	3628.7375
211.24758	4185.6375
215.53334	4769.9375
219.81599	5390.4375
224.09553	6046.1375
228.37195	6800.7375
232.64527	7644.4375
236.91549	8519.8375
241.18261	9397.9375
245.44663	10190.1375
249.70755	10904.0375
253.96539	11499.2375
258.22014	12008.7375
262.4718	12407.1375
266.72039	12726.0375
270.96589	12887.4375
275.20832	12914.1375
279.44768	12831.2375
283.68397	12675.1375
287.91719	12576.9375
292.14735	12505.6375
296.37445	12539.9375
300.59849	12659.8375
304.81948	12752.0375
309.03742	12819.1375
313.25231	12782.1375
317.46415	12540.7375
321.67296	12279.8375
325.87872	12015.4375
330.08145	11884.4375
334.28114	11900.6375
338.47781	12023.6375
342.67145	12184.0375
346.86207	12407.1375
351.04966	12668.6375
355.23424	12928.7375
359.4158	13139.9375
363.59435	13272.7375
367.76989	13349.1375
371.94243	13428.3375
376.11196	13488.2375
380.27849	13507.7375
384.44203	13521.9375
388.60257	13576.8375
392.76012	13698.0375
396.91468	13821.6375
401.06626	14001.4375
405.21485	14147.5375
409.36047	14034.8375
413.50311	13752.6375
417.64277	13523.5375
421.77947	13432.9375
425.9132	13416.8375
430.04396	13490.6375
434.17176	13558.1375
438.2966	13683.5375
442.41849	13872.6375
446.53742	14155.6375
450.6534	14458.2375
454.76644	14652.6375
458.87653	14694.8375
462.98368	14670.2375
467.08789	14563.2375
471.18916	14451.0375
475.2875	14292.4375
479.38291	14198.0375
483.4754	14059.5375
487.56496	13904.5375
491.6516	13828.3375
495.73531	13738.3375
499.81612	13716.2375
503.89401	13780.9375
507.96899	13845.0375
512.04106	13879.7375
516.11023	13904.5375
520.1765	13917.6375
524.23987	13849.9375
528.30034	13792.0375
532.35792	13769.3375
536.41261	13678.9375
540.46441	13583.3375
544.51333	13541.7375
548.55936	13656.3375
552.60252	13835.8375
556.64279	14103.3375
560.6802	14240.9375
564.71473	14324.3375
568.7464	14415.5375
572.7752	14645.6375
576.80114	14821.7375
580.82422	14969.5375
584.84444	15154.6375
588.86181	15442.4375
592.87633	15759.9375
596.888	16019.0375
600.89682	15984.2375
604.9028	16332.1375
608.90594	17670.7375
612.90624	19476.5375
616.90371	18631.4375
620.89834	15657.6375
624.89015	14210.4375
628.87913	13975.2375
632.86528	14194.3375
636.84862	14362.4375
640.82913	14259.6375
644.80683	13915.5375
648.78172	13650.6375
652.75379	13549.1375
656.72306	13710.8375
660.68952	13964.2375
664.65319	13934.4375
668.61405	13626.6375
672.57211	13555.5375
676.52738	13557.7375
680.47986	13584.3375
684.42955	13509.2375
688.37646	13461.9375
692.32058	13467.5375
696.26192	13548.9375
700.20048	13706.5375
704.13626	13793.4375
708.06928	13792.8375
711.99952	13748.8375
715.927	13718.5375
719.85171	13735.3375
723.77365	13753.9375
727.69284	13708.6375
731.60928	13655.2375
735.52295	13622.5375
739.43388	13627.0375
743.34206	13665.1375
747.24749	13691.1375
751.15017	13728.4375
755.05012	13880.4375
758.94733	14210.6375
762.8418	14938.7375
766.73354	16188.8375
770.62254	17422.2375
774.50882	17801.6375
778.39237	17111.4375
782.27321	15853.6375
786.15132	14757.6375
790.02671	14076.5375
793.89938	13709.4375
797.76935	13487.8375
801.6366	13425.1375
805.50115	13386.0375
809.36299	13349.1375
813.22213	13323.7375
817.07857	13312.9375
820.93231	13284.0375
824.78336	13234.4375
828.63172	13240.6375
832.47738	13227.0375
836.32036	13178.6375
840.16066	13169.3375
843.99827	13178.2375
847.8332	13173.1375
851.66546	13178.0375
855.49504	13209.6375
859.32195	13180.1375
863.1462	13161.1375
866.96777	13189.0375
870.78668	13180.0375
874.60293	13185.7375
878.41652	13224.1375
882.22745	13254.0375
886.03573	13302.3375
889.84136	13320.3375
893.64433	13267.9375
897.44466	13224.0375
901.24235	13206.0375
905.0374	13150.1375
908.8298	13118.3375
912.61957	13080.5375
916.40671	13135.9375
920.19121	13211.7375
923.97308	13281.3375
927.75233	13301.2375
931.52895	13205.1375
935.30295	13085.2375
939.07433	12894.8375
942.84309	12752.1375
946.60924	12666.6375
950.37278	12651.7375
954.13371	12615.4375
957.89203	12601.1375
961.64774	12597.4375
965.40086	12570.8375
969.15137	12564.2375
972.89929	12512.9375
976.64461	12495.5375
980.38733	12469.0375
984.12747	12500.5375
987.86502	12515.1375
991.59999	12539.9375
995.33237	12603.2375
999.06217	12741.2375
1002.78939	12919.1375
1006.51404	13117.5375
1010.23611	13277.1375
1013.95561	13385.9375
1017.67255	13385.5375
1021.38692	13300.6375
1025.09872	13151.6375
1028.80796	12988.9375
1032.51465	12879.7375
1036.21877	12873.7375
1039.92035	12921.5375
1043.61937	12990.1375
1047.31584	13059.5375
1051.00976	13109.4375
1054.70114	13168.0375
1058.38998	13178.0375
1062.07627	13264.9375
1065.76003	13374.0375
1069.44126	13467.8375
1073.11995	13668.9375
1076.79611	13837.9375
1080.46974	13954.8375
1084.14085	14042.7375
1087.80943	14170.9375
1091.47549	14284.3375
1095.13903	14223.0375
1098.80005	14083.5375
1102.45857	13872.3375
1106.11456	13719.8375
1109.76805	13684.6375
1113.41903	13738.9375
1117.06751	13866.6375
1120.71348	14108.9375
1124.35696	14333.9375
1127.99793	14551.2375
1131.63641	14644.0375
1135.2724	14497.5375
1138.90589	14290.7375
1142.5369	14169.6375
1146.16542	14067.2375
1149.79145	14051.2375
1153.415	14038.3375
1157.03607	14067.1375
1160.65467	14276.7375
1164.27079	14591.4375
1167.88443	15097.2375
1171.49561	15857.1375
1175.10432	16853.6375
1178.71056	18163.2375
1182.31434	19366.8375
1185.91565	19839.0375
1189.51451	19701.6375
1193.11091	19189.8375
1196.70485	18549.3375
1200.29634	17870.1375
1203.88538	17263.3375
1207.47197	16653.0375
1211.05612	16081.5375
1214.63782	15712.6375
1218.21708	15505.7375
1221.79391	15373.9375
1225.36829	15310.4375
1228.94024	15228.4375
1232.50976	15117.7375
1236.07685	14930.8375
1239.6415	14861.9375
1243.20374	14820.2375
1246.76355	14853.9375
1250.32093	14920.6375
1253.8759	15076.6375
1257.42845	15356.3375
1260.97859	15678.3375
1264.52631	16022.5375
1268.07163	16367.2375
1271.61453	16682.3375
1275.15503	16975.3375
1278.69312	17183.8375
1282.22882	17408.6375
1285.76211	17785.7375
1289.29301	18274.2375
1292.82151	18826.4375
1296.34761	19503.4375
1299.87133	20330.7375
1303.39266	21408.2375
1306.9116	22592.2375
1310.42815	23819.0375
1313.94233	24458.8375
1317.45412	24211.5375
1320.96354	23541.4375
1324.47058	22721.0375
1327.97525	21940.1375
1331.47754	21315.2375
1334.97747	20970.4375
1338.47502	20954.4375
1341.97022	21170.0375
1345.46305	21662.4375
1348.95352	22244.3375
1352.44163	22905.5375
1355.92738	23817.8375
1359.41078	25198.8375
1362.89183	26677.2375
1366.37053	26486.8375
1369.84688	24120.2375
1373.32088	21259.4375
1376.79254	19348.5375
1380.26186	18392.0375
1383.72883	18022.4375
1387.19347	17701.8375
1390.65578	17323.8375
1394.11575	17052.7375
1397.57339	16892.3375
1401.0287	16812.3375
1404.48168	16814.4375
1407.93234	16688.9375
1411.38068	16509.7375
1414.82669	16268.8375
1418.27039	15912.9375
1421.71177	15526.4375
1425.15083	15175.0375
1428.58758	15005.3375
1432.02203	15011.4375
1435.45416	15093.7375
1438.88399	15252.8375
1442.31151	15443.9375
1445.73673	15526.7375
1449.15965	15634.5375
1452.58027	15729.8375
1455.9986	15728.2375
1459.41463	15784.4375
1462.82837	16006.8375
1466.23982	16328.6375
1469.64898	16692.9375
1473.05586	17011.4375
1476.46045	17256.3375
1479.86276	17368.9375
1483.26279	17496.3375
1486.66054	17669.5375
1490.05602	17971.9375
1493.44922	18465.1375
1496.84016	19186.6375
1500.22882	20268.6375
1503.61521	21672.7375
1506.99934	23110.7375
1510.38121	24012.2375
1513.76081	23955.7375
1517.13816	22809.7375
1520.51324	21298.5375
1523.88607	20030.1375
1527.25665	19252.0375
1530.62498	18880.7375
1533.99105	18540.8375
1537.35488	18237.5375
1540.71647	17830.7375
1544.07581	17421.2375
1547.4329	17039.0375
1550.78776	16733.1375
1554.14038	16523.7375
1557.49077	16431.7375
1560.83892	16554.5375
1564.18484	16743.1375
1567.52853	17084.1375
1570.86999	17386.5375
1574.20922	17604.4375
1577.54624	17654.4375
1580.88103	17219.9375
1584.2136	16684.7375
1587.54395	16463.6375
1590.87208	16662.4375
1594.19801	17290.3375
1597.52172	18070.8375
1600.84321	18358.2375
1604.16251	17888.9375
1607.47959	17101.2375
1610.79447	16205.1375
1614.10715	15318.3375
1617.41763	14554.6375
1620.7259	13971.8375
1624.03199	13618.8375
1627.33587	13513.2375
1630.63757	13675.3375
1633.93707	14127.4375
1637.23439	15005.2375
1640.52951	16454.9375
1643.82246	18381.4375
1647.11321	20237.7375
1650.40179	21110.2375
1653.68819	20286.1375
1656.97241	18218.2375
1660.25446	15934.5375
1663.53433	14234.5375
1666.81203	13156.4375
1670.08756	12509.3375
1673.36092	12061.2375
1676.63211	11815.1375
1679.90115	11619.8375
1683.16801	11457.0375
1686.43272	11332.0375
1689.69527	11246.2375
1692.95567	11168.2375
1696.2139	11113.3375
1699.46999	11060.7375
1702.72392	10995.7375
1705.97571	10978.0375
1709.22535	10918.6375
1712.47284	10936.6375
1715.71819	10892.3375
1718.96139	10834.9375
1722.20246	10773.7375
1725.44139	10750.8375
1728.67818	10671.6375
1731.91284	10611.1375
1735.14537	10558.3375
1738.37576	10524.1375
1741.60403	10471.1375
1744.83017	10443.8375
1748.05418	10408.5375
1751.27607	10370.3375
1754.49584	10353.7375
1757.71349	10328.5375
1760.92903	10314.8375
1764.14244	10335.6375
1767.35375	10315.1375
1770.56294	10265.5375
1773.77002	10240.5375
1776.97499	10196.6375
1780.17785	10178.5375
1783.37861	10160.4375
1786.57727	10133.2375
1789.77382	10120.3375
1792.96828	10081.8375
1796.16064	10054.0375
1799.3509	10051.9375
1802.53907	10018.6375
1805.72514	10003.0375
1808.90913	9983.6375
1812.09102	9938.0375
1815.27083	9914.6375
1818.44856	9919.2375
1821.6242	9880.3375
1824.79776	9856.2375
1827.96924	9815.5375
1831.13864	9795.2375
1834.30597	9825.8375
1837.47122	9780.2375
1840.6344	9748.5375
1843.7955	9752.6375
1846.95454	9737.0375
1850.11151	9711.6375
1853.26642	9709.8375
1856.41926	9717.5375
1859.57004	9711.4375
1862.71876	9674.8375
1865.86542	9667.3375
1869.01003	9656.3375
1872.15258	9622.0375
1875.29308	9632.6375
1878.43152	9609.5375
1881.56792	9618.3375
1884.70227	9625.8375
1887.83457	9604.1375
1890.96482	9582.3375
1894.09304	9574.9375
1897.21921	9541.3375
1900.34335	9511.4375
1903.46544	9502.1375
1906.58551	9503.3375
1909.70353	9475.7375
1912.81953	9472.8375
1915.93349	9465.1375
1919.04543	9412.8375
1922.15534	9402.6375
1925.26322	9361.8375
1928.36908	9352.0375
1931.47292	9330.4375
1934.57473	9298.6375
1937.67453	9284.9375
1940.77232	9277.1375
1943.86808	9237.1375
1946.96184	9202.1375
1950.05358	9185.0375
1953.14331	9136.3375
1956.23103	9084.9375
1959.31675	9069.0375
1962.40046	9028.2375
1965.48217	9014.4375
1968.56188	8998.5375
1971.63959	8973.9375
1974.7153	8936.0375
1977.78901	8898.1375
1980.86073	8873.6375
1983.93046	8839.8375
1986.99819	8815.8375
1990.06394	8808.9375
1993.1277	8757.6375
1996.18947	8717.0375
1999.24925	8702.0375
2002.30706	8673.5375
2005.36288	8641.6375
2008.41672	8611.5375
2011.46859	8573.3375
2014.51848	8568.7375
2017.56639	8511.6375
2020.61233	8487.4375
2023.6563	8476.3375
2026.6983	8466.6375
2029.73833	8444.9375
2032.7764	8377.8375
2035.8125	8357.0375
2038.84664	8348.9375
2041.87881	8318.2375
2044.90903	8291.1375
2047.93729	8271.1375
2050.96359	8262.3375
2053.98794	8231.1375
2057.01034	8226.6375
2060.03078	8214.8375
2063.04927	8186.2375
2066.06582	8198.9375
2069.08042	8193.3375
2072.09307	8166.6375
2075.10378	8154.2375
2078.11255	8164.5375
2081.11938	8181.5375
2084.12426	8162.3375
2087.12722	8154.4375
2090.12824	8150.8375
2093.12732	8150.3375
2096.12447	8137.4375
2099.11969	8141.3375
2102.11299	8146.6375
2105.10435	8164.3375
2108.09379	8138.0375
2111.08131	8153.4375
2114.0669	8164.2375
2117.05057	8173.2375
2120.03233	8161.0375
2123.01216	8159.1375
2125.99008	8143.6375
2128.96609	8166.6375
2131.94018	8159.4375
2134.91236	8150.3375
2137.88263	8166.1375
2140.851	8145.4375
2143.81746	8164.0375
2146.78201	8134.2375
2149.74466	8136.3375
2152.7054	8130.6375
2155.66425	8113.5375
2158.6212	8133.0375
2161.57625	8093.1375
2164.52941	8119.5375
2167.48067	8087.1375
2170.43004	8091.9375
2173.37752	8093.2375
2176.32311	8090.5375
2179.26681	8064.4375
2182.20863	8065.2375
2185.14856	8084.8375
2188.08661	8074.1375
2191.02278	8037.0375
2193.95707	8032.2375
2196.88948	7999.7375
2199.82001	8015.8375
2202.74867	8024.8375
2205.67545	8010.9375
2208.60037	7982.3375
2211.52341	7970.8375
2214.44458	7949.6375
2217.36388	7925.4375
2220.28132	7934.7375
2223.1969	7919.7375
2226.11061	7905.9375
2229.02246	7871.7375
2231.93245	7844.0375
2234.84058	7830.0375
2237.74686	7810.9375
2240.65128	7833.4375
2243.55385	7777.3375
2246.45456	7790.1375
2249.35343	7773.1375
2252.25044	7755.1375
2255.14561	7729.5375
2258.03893	7749.2375
2260.93041	7719.1375
2263.82004	7698.8375
2266.70783	7669.1375
2269.59378	7653.5375
2272.4779	7639.1375
2275.36017	7606.3375
2278.24061	7602.7375
2281.11922	7573.0375
2283.996	7559.6375
2286.87094	7565.2375
2289.74405	7530.1375
2292.61534	7514.6375
2295.4848	7509.3375
2298.35243	7491.3375
2301.21824	7483.0375
2304.08223	7487.6375
2306.94439	7459.0375
2309.80474	7480.1375
2312.66327	7457.8375
2315.51999	7435.1375
2318.37489	7415.3375
2321.22797	7417.5375
2324.07925	7392.1375
2326.92871	7392.2375
2329.77637	7376.8375
2332.62222	7365.4375
2335.46626	7353.8375
2338.3085	7336.3375
2341.14893	7326.5375
2343.98756	7308.7375
2346.8244	7321.4375
2349.65943	7311.6375
2352.49267	7309.4375
2355.32411	7318.9375
2358.15376	7305.1375
2360.98161	7304.9375
2363.80768	7318.9375
2366.63195	7314.8375
2369.45444	7316.8375
2372.27514	7266.9375
2375.09405	7257.8375
2377.91118	7280.2375
2380.72652	7241.2375
2383.54009	7223.0375
2386.35187	7202.7375
2389.16188	7198.1375
2391.97011	7156.1375
2394.77657	7142.1375
2397.58125	7101.3375
2400.38416	7108.6375
2403.18529	7094.3375
2405.98466	7065.6375
2408.78226	7060.9375
2411.57809	7032.2375
2414.37216	7035.8375
2417.16446	7035.1375
2419.955	7017.8375
2422.74378	7026.9375
2425.5308	7007.3375
2428.31606	7016.8375
2431.09956	6993.6375
2433.88131	6978.6375
2436.6613	6967.4375
2439.43954	6973.6375
2442.21603	6964.2375
2444.99077	6937.2375
2447.76377	6970.9375
2450.53501	6925.6375
2453.30451	6931.2375
2456.07226	6934.2375
2458.83827	6934.2375
2461.60254	6903.5375
2464.36507	6932.8375
2467.12586	6891.0375
2469.88492	6905.4375
2472.64224	6886.0375
2475.39782	6886.6375
2478.15167	6893.2375
2480.90379	6901.9375
2483.65417	6890.7375
2486.40283	6895.8375
2489.14976	6886.2375
2491.89497	6900.6375
2494.63845	6882.8375
2497.3802	6871.8375
2500.12024	6857.4375
2502.85855	6848.1375
2505.59514	6843.3375
2508.33002	6823.9375
2511.06318	6800.4375
2513.79462	6804.2375
2516.52435	6790.2375
2519.25237	6753.6375
2521.97867	6760.2375
2524.70327	6749.6375
2527.42616	6744.9375
2530.14734	6729.6375
2532.86681	6726.3375
2535.58458	6720.6375
2538.30065	6701.5375
2541.01501	6701.3375
2543.72768	6678.5375
2546.43864	6671.5375
2549.14791	6660.0375
2551.85548	6648.7375
2554.56136	6634.5375
2557.26554	6621.2375
2559.96803	6593.5375
2562.66883	6581.7375
2565.36794	6564.0375
2568.06536	6566.9375
2570.7611	6568.1375
2573.45514	6531.8375
2576.14751	6538.5375
2578.83819	6515.3375
2581.52719	6512.3375
2584.21451	6510.7375
2586.90015	6509.9375
2589.58411	6483.5375
2592.2664	6469.7375
2594.94701	6474.6375
2597.62594	6465.9375
2600.30321	6430.1375
2602.9788	6420.7375
2605.65273	6399.9375
2608.32498	6410.2375
2610.99557	6416.3375
2613.66449	6386.4375
2616.33175	6377.5375
2618.99734	6375.9375
2621.66128	6362.7375
2624.32355	6364.2375
2626.98416	6349.8375
2629.64311	6359.8375
2632.30041	6330.8375
2634.95605	6318.1375
2637.61004	6325.0375
2640.26238	6330.2375
2642.91306	6326.1375
2645.56209	6308.8375
2648.20948	6289.4375
2650.85521	6292.6375
2653.4993	6297.6375
2656.14175	6301.8375
2658.78255	6292.2375
2661.42171	6284.7375
2664.05923	6285.8375
2666.6951	6297.5375
2669.32934	6313.3375
2671.96194	6301.1375
2674.59291	6295.4375
2677.22224	6288.7375
2679.84993	6287.5375
2682.476	6255.8375
2685.10043	6253.3375
2687.72324	6250.4375
2690.34441	6253.2375
2692.96396	6253.6375
2695.58188	6261.1375
2698.19818	6251.0375
2700.81285	6242.9375
2703.4259	6254.5375
2706.03733	6242.3375
2708.64714	6234.3375
2711.25533	6252.7375
2713.86191	6249.4375
2716.46687	6277.0375
2719.07021	6248.9375
2721.67194	6247.4375
2724.27206	6241.4375
2726.87057	6241.2375
2729.46747	6238.7375
2732.06276	6246.7375
2734.65644	6238.0375
2737.24852	6234.0375
2739.83899	6204.8375
2742.42786	6214.9375
2745.01513	6199.3375
2747.60079	6186.4375
2750.18486	6176.9375
2752.76733	6161.2375
2755.3482	6148.3375
2757.92747	6148.9375
2760.50515	6140.9375
2763.08123	6129.2375
2765.65573	6118.6375
2768.22863	6117.0375
2770.79994	6135.9375
2773.36967	6106.5375
2775.9378	6099.8375
2778.50435	6094.4375
2781.06932	6072.8375
2783.6327	6086.3375
2786.1945	6086.1375
2788.75471	6064.1375
2791.31335	6067.2375
2793.87041	6049.8375
2796.42589	6029.6375
2798.97979	6029.9375
2801.53212	6015.3375
2804.08288	6005.3375
2806.63206	5994.4375
2809.17967	6000.9375
2811.72571	5987.4375
2814.27018	5960.0375
2816.81308	5953.5375
2819.35442	5929.2375
2821.89419	5928.5375
2824.43239	5920.0375
2826.96904	5889.0375
2829.50412	5922.5375
2832.03763	5883.4375
2834.56959	5888.2375
2837.1	5879.5375
2839.62884	5888.5375
2842.15613	5889.7375
2844.68186	5888.7375
2847.20604	5884.4375
2849.72867	5905.6375
2852.24974	5906.6375
2854.76927	5907.8375
2857.28724	5888.9375
2859.80367	5884.8375
2862.31855	5871.4375
2864.83189	5839.3375
2867.34368	5877.4375
2869.85393	5854.9375
2872.36264	5845.7375
2874.8698	5840.3375
2877.37543	5828.8375
2879.87952	5815.5375
2882.38207	5820.7375
2884.88308	5821.1375
2887.38256	5815.4375
2889.88051	5820.9375
2892.37692	5817.9375
2894.8718	5804.3375
2897.36515	5832.0375
2899.85698	5804.4375
2902.34727	5802.9375
2904.83604	5794.6375
2907.32328	5825.1375
2909.809	5833.2375
2912.29319	5831.7375
2914.77587	5836.0375
2917.25702	5830.1375
2919.73665	5807.7375
2922.21476	5819.5375
2924.69136	5808.4375
2927.16644	5804.4375
2929.64	5793.0375
2932.11205	5775.9375
2934.58258	5770.0375
2937.05161	5768.7375
2939.51912	5757.2375
2941.98513	5741.7375
2944.44962	5707.7375
2946.91261	5709.1375
2949.37409	5701.0375
2951.83407	5695.3375
2954.29254	5703.3375
2956.74951	5720.7375
2959.20498	5701.6375
2961.65895	5711.5375
2964.11142	5683.2375
2966.56239	5654.4375
2969.01186	5651.7375
2971.45984	5651.9375
2973.90632	5639.7375
2976.35131	5626.3375
2978.7948	5613.0375
2981.23681	5598.1375
2983.67732	5591.6375
2986.11635	5570.8375
2988.55388	5550.7375
2990.98993	5556.3375
2993.4245	5531.0375
2995.85758	5531.1375
2998.28917	5531.9375
3000.71928	5514.8375
3003.14791	5513.0375
3005.57506	5514.6375
3008.00073	5494.0375
3010.42493	5493.8375
3012.84764	5471.9375
3015.26888	5466.0375
3017.68865	5460.1375
3020.10694	5466.7375
3022.52376	5440.4375
3024.9391	5400.4375
3027.35298	5405.8375
3029.76539	5394.4375
3032.17632	5390.2375
3034.5858	5380.9375
3036.9938	5387.6375
3039.40034	5377.2375
3041.80542	5356.4375
3044.20903	5375.8375
3046.61118	5363.1375
3049.01187	5343.5375
3051.4111	5345.5375
3053.80888	5336.6375
3056.20519	5308.1375
3058.60005	5283.2375
3060.99345	5298.9375
3063.3854	5272.7375
3065.7759	5277.5375
3068.16494	5260.8375
3070.55254	5248.3375
3072.93868	5254.4375
3075.32338	5223.7375
3077.70662	5228.2375
3080.08842	5204.5375
3082.46878	5222.2375
3084.84769	5201.4375
3087.22515	5204.4375
3089.60118	5211.0375
3091.97576	5217.7375
3094.3489	5214.2375
3096.72061	5187.3375
3099.09087	5204.9375
3101.4597	5208.7375
3103.82709	5192.5375
3106.19305	5179.4375
3108.55757	5183.0375
3110.92066	5160.5375
3113.28232	5185.2375
3115.64255	5155.0375
3118.00134	5160.5375
3120.35871	5132.3375
3122.71466	5132.9375
3125.06917	5118.0375
3127.42226	5117.8375
3129.77393	5124.3375
3132.12417	5109.5375
3134.47299	5102.7375
3136.82039	5095.3375
3139.16636	5102.7375
3141.51092	5100.8375
3143.85406	5098.3375
3146.19579	5110.7375
3148.53609	5123.5375
3150.87499	5125.8375
3153.21246	5135.0375
3155.54853	5152.8375
3157.88318	5123.0375
3160.21642	5123.5375
3162.54826	5130.6375
3164.87868	5121.6375
3167.2077	5116.6375
3169.5353	5125.1375
3171.86151	5135.1375
3174.18631	5136.6375
3176.5097	5124.4375
3178.83169	5117.9375
3181.15228	5098.0375
3183.47147	5106.5375
3185.78926	5110.7375
3188.10565	5108.2375
3190.42065	5105.6375
3192.73424	5091.3375
3195.04645	5091.1375
3197.35725	5088.2375
3199.66667	5088.2375
3201.97469	5091.0375
3204.28132	5089.4375
3206.58656	5102.1375
3208.8904	5087.4375
3211.19287	5085.0375
3213.49394	5083.6375
3215.79363	5108.4375
3218.09193	5094.4375
3220.38884	5113.3375
3222.68438	5108.3375
3224.97853	5102.5375
3227.2713	5096.8375
3229.56269	5104.2375
3231.8527	5090.2375
3234.14133	5100.9375
3236.42858	5072.2375
3238.71446	5086.7375
3240.99896	5051.5375
3243.28209	5057.1375
3245.56384	5033.8375
3247.84423	5041.0375
3250.12324	5039.6375
3252.40088	5038.5375
3254.67715	5023.4375
3256.95205	5015.0375
3259.22558	5000.4375
3261.49775	4997.7375
3263.76855	5000.1375
3266.03799	4992.0375
3268.30606	4964.3375
3270.57277	4968.8375
3272.83812	4970.0375
3275.10211	4958.2375
3277.36474	4933.2375
3279.62601	4947.6375
3281.88593	4933.3375
3284.14448	4942.3375
3286.40168	4942.4375
3288.65753	4929.2375
3290.91202	4947.0375
3293.16516	4925.4375
3295.41695	4888.1375
3297.66738	4875.9375
3299.91647	4861.5375
3302.16421	4832.3375
3304.4106	4804.9375
3306.65564	4802.8375
3308.89933	4766.1375
3311.14169	4728.5375
3313.38269	4697.1375
3315.62236	4669.4375
3317.86068	4619.3375
3320.09766	4578.6375
3322.3333	4550.6375
3324.5676	4547.8375
3326.80056	4472.0375
3329.03219	4455.2375
3331.26248	1.6375
3333.49143	-0.2625
3335.71905	0.9375
