Data from AgNP_FTO_APTES_UA_100uM_CRN_2uM_R6G_10uM_NaF_0.1M_Addition_RamanShift__32__14-22-10-331.txt Node

Date: Thu Mar 24 14:22:10 GMT 2022
User: TCL
Spectrometer: QEP01345
Trigger mode: 4
Integration Time (sec): 7.000000E0
Scans to average: 10
Electric dark correction enabled: true
Nonlinearity correction enabled: false
Boxcar width: 0
XAxis mode: Raman Shifts
Number of Pixels in Spectrum: 1044
>>>>>Begin Spectral Data<<<<<
46.04893	-1.4
50.45542	0
54.85868	-1.2
59.25871	-0.2
63.6555	41.1
68.04907	44.2
72.43941	45
76.82654	45
81.21044	47.9
85.59113	50.1
89.96862	48.7
94.34289	50.6
98.71396	55.5
103.08183	58.9
107.4465	56.4
111.80798	56.6
116.16626	60.2
120.52136	63
124.87327	61.6
129.222	68
133.56755	73.4
137.90993	73.6
142.24913	85.2
146.58517	93.3
150.91804	108.4
155.24774	136.6
159.57429	161.1
163.89768	209.9
168.21792	282.2
172.53501	388.3
176.84895	536.2
181.15975	752.7
185.46741	1057.2
189.77193	1456.3
194.07331	1952
198.37157	2517.3
202.6667	3125.9
206.9587	3771.2
211.24758	4413.1
215.53334	5129.8
219.81599	5910.9
224.09553	6829.7
228.37195	7879.7
232.64527	8942.5
236.91549	9971.9
241.18261	10840.2
245.44663	11437.3
249.70755	11901.2
253.96539	12276.3
258.22014	12683.8
262.4718	13104.6
266.72039	13349.4
270.96589	13389.7
275.20832	13174.2
279.44768	12796.2
283.68397	12375.2
287.91719	12146.3
292.14735	12184.1
296.37445	12577.9
300.59849	13318.2
304.81948	14287.6
309.03742	15076.2
313.25231	15364.9
317.46415	14727.1
321.67296	13407.6
325.87872	12250.9
330.08145	11637.9
334.28114	11608.8
338.47781	11829.7
342.67145	12257.4
346.86207	12887.5
351.04966	13823.1
355.23424	14907.9
359.4158	15672.3
363.59435	15932.5
367.76989	15862.8
371.94243	15720.2
376.11196	15505.7
380.27849	15312.9
384.44203	15047.5
388.60257	14756.3
392.76012	14608.5
396.91468	14624.4
401.06626	14977.1
405.21485	15254.1
409.36047	14811.5
413.50311	13753.2
417.64277	12681
421.77947	12091.7
425.9132	11827.7
430.04396	11798.4
434.17176	11913.6
438.2966	12192.7
442.41849	12762.7
446.53742	13462
450.6534	14081.6
454.76644	14392.9
458.87653	14252.1
462.98368	13842.7
467.08789	13367.6
471.18916	12893
475.2875	12398.7
479.38291	11977.2
483.4754	11588.8
487.56496	11323.1
491.6516	11142
495.73531	11039.1
499.81612	11065.1
503.89401	11220.2
507.96899	11444.1
512.04106	11668.7
516.11023	11934.6
520.1765	12163.9
524.23987	12199.9
528.30034	12081.4
532.35792	11931.7
536.41261	11651.4
540.46441	11307.4
544.51333	11095.3
548.55936	11166.6
552.60252	11477.2
556.64279	11951.1
560.6802	12332.7
564.71473	12754.9
568.7464	13510.1
572.7752	13971
576.80114	13325.8
580.82422	12593.1
584.84444	12457.7
588.86181	12913.4
592.87633	13829.5
596.888	14433.6
600.89682	14589
604.9028	16090.4
608.90594	21668.5
612.90624	29297.5
616.90371	28121.7
620.89834	17906.4
624.89015	12727.5
628.87913	11767.1
632.86528	12028.8
636.84862	12345.3
640.82913	12020.1
644.80683	11075.7
648.78172	10446.9
652.75379	10438.6
656.72306	11166.1
660.68952	12036.9
664.65319	11801
668.61405	10764.1
672.57211	10295.1
676.52738	10264.9
680.47986	10203.2
684.42955	10002
688.37646	9881.6
692.32058	9955.1
696.26192	10112.8
700.20048	10388.5
704.13626	10504.7
708.06928	10415.9
711.99952	10313.7
715.927	10330.8
719.85171	10494.4
723.77365	10592.3
727.69284	10468.9
731.60928	10348.5
735.52295	10339.7
739.43388	10419.1
743.34206	10481.5
747.24749	10475.8
751.15017	10494.9
755.05012	10706.3
758.94733	11563
762.8418	13717.1
766.73354	17306.4
770.62254	20746.3
774.50882	22471.5
778.39237	21474
782.27321	17930.9
786.15132	14186.4
790.02671	11903.1
793.89938	10879.1
797.76935	10455.6
801.6366	10277.7
805.50115	10154.5
809.36299	10105.9
813.22213	10052.8
817.07857	9999.9
820.93231	9998.7
824.78336	10048.8
828.63172	10128.2
832.47738	10153.4
836.32036	10089.3
840.16066	9970.7
843.99827	9908.3
847.8332	9891.4
851.66546	9853.4
855.49504	9852.7
859.32195	9848
863.1462	9765
866.96777	9719.5
870.78668	9711.5
874.60293	9755.2
878.41652	9839.2
882.22745	9967.2
886.03573	10069.6
889.84136	10057.5
893.64433	9970
897.44466	9939.5
901.24235	9905.6
905.0374	9827.4
908.8298	9705.8
912.61957	9643.6
916.40671	9633.8
920.19121	9729
923.97308	9863.9
927.75233	10127.2
931.52895	10369.8
935.30295	10238.8
939.07433	9801.5
942.84309	9379.3
946.60924	9166.7
950.37278	9052.5
954.13371	9014.5
957.89203	9005.3
961.64774	8954.3
965.40086	8944.6
969.15137	8936
972.89929	8912
976.64461	8902.7
980.38733	8905.5
984.12747	8945.6
987.86502	9016.4
991.59999	9152
995.33237	9360.6
999.06217	9707.5
1002.78939	10139.3
1006.51404	10497
1010.23611	10813
1013.95561	10921.3
1017.67255	10883.7
1021.38692	10577.4
1025.09872	10193.2
1028.80796	9988.7
1032.51465	10017.2
1036.21877	10157.6
1039.92035	10233.2
1043.61937	10230.1
1047.31584	10174
1051.00976	10092.6
1054.70114	9986.9
1058.38998	9958.9
1062.07627	9958
1065.76003	10004.7
1069.44126	10052.3
1073.11995	10239
1076.79611	10570.3
1080.46974	11035.1
1084.14085	11646
1087.80943	12197.3
1091.47549	12387.7
1095.13903	12037.1
1098.80005	11385.6
1102.45857	10932.2
1106.11456	10865.8
1109.76805	11050
1113.41903	11559.1
1117.06751	12316.7
1120.71348	13300.7
1124.35696	14393.4
1127.99793	15131.2
1131.63641	14794.7
1135.2724	13552.7
1138.90589	12484.6
1142.5369	11905.2
1146.16542	11584.8
1149.79145	11387.5
1153.415	11332.3
1157.03607	11471.1
1160.65467	11825.4
1164.27079	12521.4
1167.88443	13621.9
1171.49561	15373.3
1175.10432	18215.4
1178.71056	22048.8
1182.31434	25317
1185.91565	26078.7
1189.51451	24670.2
1193.11091	22237.2
1196.70485	19832.7
1200.29634	18125
1203.88538	16789.1
1207.47197	15250.5
1211.05612	13985.2
1214.63782	13330.7
1218.21708	13188.6
1221.79391	13288.9
1225.36829	13451.3
1228.94024	13328.8
1232.50976	12951.9
1236.07685	12622.7
1239.6415	12560.8
1243.20374	12658
1246.76355	12780
1250.32093	12956.9
1253.8759	13348.5
1257.42845	13969.8
1260.97859	14763.5
1264.52631	15665.1
1268.07163	16514.5
1271.61453	17093.1
1275.15503	17410.2
1278.69312	17555.2
1282.22882	17829.2
1285.76211	18639.6
1289.29301	19854.1
1292.82151	21103
1296.34761	22596.9
1299.87133	24587.9
1303.39266	27815.3
1306.9116	32514.9
1310.42815	37428.9
1313.94233	39506.7
1317.45412	37308.1
1320.96354	33078.9
1324.47058	28840.6
1327.97525	25393.7
1331.47754	23201.6
1334.97747	22375
1338.47502	22470.1
1341.97022	23183.8
1345.46305	24496.4
1348.95352	26722.7
1352.44163	30049.1
1355.92738	35117.2
1359.41078	42687.6
1362.89183	49400.2
1366.37053	46946.5
1369.84688	37243.3
1373.32088	28514.1
1376.79254	23782.5
1380.26186	21588.4
1383.72883	20285.5
1387.19347	19011.7
1390.65578	17815.2
1394.11575	17170.5
1397.57339	17041.8
1401.0287	17209.1
1404.48168	17390.3
1407.93234	17392.1
1411.38068	17331.7
1414.82669	17237.3
1418.27039	16934.1
1421.71177	16390.2
1425.15083	15753.4
1428.58758	15623.4
1432.02203	16112.3
1435.45416	16819.7
1438.88399	17172.8
1442.31151	17231.8
1445.73673	17313.9
1449.15965	17393.5
1452.58027	17198.2
1455.9986	16716.2
1459.41463	16499.2
1462.82837	16779.3
1466.23982	17472.9
1469.64898	18229.1
1473.05586	18832.5
1476.46045	19142.5
1479.86276	19582.8
1483.26279	20093.3
1486.66054	20694.8
1490.05602	21587.3
1493.44922	22880.9
1496.84016	24838.6
1500.22882	28042
1503.61521	32930.9
1506.99934	38749.8
1510.38121	43399.6
1513.76081	43948
1517.13816	39433.9
1520.51324	32432.4
1523.88607	26323.3
1527.25665	22696.8
1530.62498	20839.9
1533.99105	19849.8
1537.35488	19199.6
1540.71647	18665.1
1544.07581	18323.5
1547.4329	18058.1
1550.78776	17796.3
1554.14038	17629.7
1557.49077	17575.2
1560.83892	17837.9
1564.18484	18709.9
1567.52853	19953.6
1570.86999	21113.4
1574.20922	21774.9
1577.54624	21584.9
1580.88103	19983.1
1584.2136	17895.9
1587.54395	16844.6
1590.87208	17268.9
1594.19801	19063
1597.52172	21573.9
1600.84321	22865.3
1604.16251	22058.8
1607.47959	19865.9
1610.79447	17385.8
1614.10715	15102.8
1617.41763	13486.5
1620.7259	12541.8
1624.03199	12181.6
1627.33587	12265.8
1630.63757	12783.7
1633.93707	13970.9
1637.23439	16074.5
1640.52951	19592.5
1643.82246	24751.4
1647.11321	30488
1650.40179	33532.8
1653.68819	31333.6
1656.97241	25141.1
1660.25446	18832
1663.53433	14714.1
1666.81203	12338.5
1670.08756	11034
1673.36092	10278.7
1676.63211	9764
1679.90115	9471.4
1683.16801	9232.7
1686.43272	9056
1689.69527	8933.9
1692.95567	8856.2
1696.2139	8789.2
1699.46999	8734.7
1702.72392	8711.8
1705.97571	8683
1709.22535	8647.8
1712.47284	8661.3
1715.71819	8644.9
1718.96139	8627.4
1722.20246	8592.6
1725.44139	8510.2
1728.67818	8391.3
1731.91284	8290.4
1735.14537	8194.2
1738.37576	8131.7
1741.60403	8085.1
1744.83017	8050.5
1748.05418	8031.6
1751.27607	7989.4
1754.49584	7973
1757.71349	7948.9
1760.92903	7932.1
1764.14244	7913.4
1767.35375	7893.3
1770.56294	7824.8
1773.77002	7773.8
1776.97499	7762.6
1780.17785	7732.2
1783.37861	7701.4
1786.57727	7658.4
1789.77382	7618.2
1792.96828	7611.9
1796.16064	7590.8
1799.3509	7594.1
1802.53907	7585.4
1805.72514	7528.7
1808.90913	7525.1
1812.09102	7487.8
1815.27083	7441.9
1818.44856	7418.3
1821.6242	7408.5
1824.79776	7377.5
1827.96924	7370.4
1831.13864	7358
1834.30597	7329.9
1837.47122	7305.6
1840.6344	7299.5
1843.7955	7274.9
1846.95454	7274.3
1850.11151	7254
1853.26642	7247.1
1856.41926	7235.7
1859.57004	7238.6
1862.71876	7239.8
1865.86542	7230.2
1869.01003	7216.4
1872.15258	7240.1
1875.29308	7229.9
1878.43152	7214.1
1881.56792	7244.2
1884.70227	7227.3
1887.83457	7216.2
1890.96482	7208.6
1894.09304	7218.8
1897.21921	7208.3
1900.34335	7211
1903.46544	7209.3
1906.58551	7212.4
1909.70353	7228.6
1912.81953	7207.4
1915.93349	7204.3
1919.04543	7179.7
1922.15534	7175
1925.26322	7127.4
1928.36908	7110.1
1931.47292	7082.3
1934.57473	7062.3
1937.67453	7033.3
1940.77232	7011.2
1943.86808	6964.8
1946.96184	6962.2
1950.05358	6934
1953.14331	6933.7
1956.23103	6933.5
1959.31675	6900.7
1962.40046	6881.3
1965.48217	6882.6
1968.56188	6874.8
1971.63959	6884.8
1974.7153	6885.2
1977.78901	6818.7
1980.86073	6815.5
1983.93046	6759.9
1986.99819	6711.1
1990.06394	6674.5
1993.1277	6662.1
1996.18947	6644.6
1999.24925	6613.5
2002.30706	6572.5
2005.36288	6555.9
2008.41672	6524.7
2011.46859	6507.5
2014.51848	6485.6
2017.56639	6482.3
2020.61233	6465.6
2023.6563	6439.5
2026.6983	6420.9
2029.73833	6396.3
2032.7764	6378.6
2035.8125	6382.9
2038.84664	6353.3
2041.87881	6339.2
2044.90903	6329.9
2047.93729	6327
2050.96359	6326.5
2053.98794	6315.1
2057.01034	6300.4
2060.03078	6287.7
2063.04927	6272.3
2066.06582	6266.1
2069.08042	6248.7
2072.09307	6236.8
2075.10378	6249.4
2078.11255	6239.4
2081.11938	6236.1
2084.12426	6223.5
2087.12722	6235.5
2090.12824	6239.6
2093.12732	6245.3
2096.12447	6245.7
2099.11969	6246.8
2102.11299	6227
2105.10435	6237.8
2108.09379	6241
2111.08131	6229.5
2114.0669	6246.6
2117.05057	6254.3
2120.03233	6259.2
2123.01216	6273.2
2125.99008	6274.9
2128.96609	6270.9
2131.94018	6272.3
2134.91236	6257.8
2137.88263	6258.8
2140.851	6253.6
2143.81746	6253
2146.78201	6259.3
2149.74466	6236.2
2152.7054	6223.2
2155.66425	6230.3
2158.6212	6201.3
2161.57625	6202.2
2164.52941	6205.4
2167.48067	6196.7
2170.43004	6176.8
2173.37752	6196.6
2176.32311	6181.4
2179.26681	6200.2
2182.20863	6177.5
2185.14856	6205.1
2188.08661	6180.9
2191.02278	6193.4
2193.95707	6164.2
2196.88948	6169.6
2199.82001	6144.3
2202.74867	6142.6
2205.67545	6162.6
2208.60037	6139.6
2211.52341	6137.7
2214.44458	6131.4
2217.36388	6104.4
2220.28132	6092.3
2223.1969	6088.8
2226.11061	6091.9
2229.02246	6054.6
2231.93245	6044.7
2234.84058	6032.8
2237.74686	6015.9
2240.65128	6012.7
2243.55385	6010.5
2246.45456	6022.2
2249.35343	5991.8
2252.25044	6003.4
2255.14561	6004.4
2258.03893	6003.7
2260.93041	6016.4
2263.82004	5998.3
2266.70783	5987.3
2269.59378	5975.7
2272.4779	5965.4
2275.36017	5939.7
2278.24061	5917.9
2281.11922	5923.9
2283.996	5911.7
2286.87094	5897.5
2289.74405	5855.5
2292.61534	5862.6
2295.4848	5837.4
2298.35243	5836.8
2301.21824	5840.8
2304.08223	5824.1
2306.94439	5820.5
2309.80474	5824.4
2312.66327	5826.8
2315.51999	5822
2318.37489	5799.9
2321.22797	5816.9
2324.07925	5804.8
2326.92871	5809.9
2329.77637	5784.9
2332.62222	5796
2335.46626	5800.6
2338.3085	5812.8
2341.14893	5812.9
2343.98756	5791.4
2346.8244	5804.1
2349.65943	5830.8
2352.49267	5814.7
2355.32411	5844.7
2358.15376	5864.8
2360.98161	5862.3
2363.80768	5865.2
2366.63195	5893.2
2369.45444	5890.6
2372.27514	5890.4
2375.09405	5888.3
2377.91118	5881.5
2380.72652	5839.9
2383.54009	5824.1
2386.35187	5797.4
2389.16188	5762.7
2391.97011	5746.9
2394.77657	5705.6
2397.58125	5707.3
2400.38416	5687.6
2403.18529	5646.9
2405.98466	5650.4
2408.78226	5627.2
2411.57809	5621.2
2414.37216	5593.8
2417.16446	5573.6
2419.955	5579
2422.74378	5593.9
2425.5308	5584.7
2428.31606	5599.5
2431.09956	5615.3
2433.88131	5582.9
2436.6613	5592.1
2439.43954	5603.8
2442.21603	5612.7
2444.99077	5596.1
2447.76377	5627.6
2450.53501	5632.5
2453.30451	5636.9
2456.07226	5638.3
2458.83827	5629.9
2461.60254	5638.4
2464.36507	5636.5
2467.12586	5628.8
2469.88492	5650
2472.64224	5642.8
2475.39782	5648.7
2478.15167	5678.4
2480.90379	5682.3
2483.65417	5715.8
2486.40283	5733.6
2489.14976	5762.5
2491.89497	5774.3
2494.63845	5775.2
2497.3802	5772.8
2500.12024	5772.4
2502.85855	5753
2505.59514	5719.9
2508.33002	5687.3
2511.06318	5640.4
2513.79462	5612.5
2516.52435	5593.7
2519.25237	5548.6
2521.97867	5530.1
2524.70327	5529.2
2527.42616	5509.5
2530.14734	5505.3
2532.86681	5496.4
2535.58458	5487.6
2538.30065	5480.3
2541.01501	5507
2543.72768	5481.8
2546.43864	5493.1
2549.14791	5513.6
2551.85548	5490.6
2554.56136	5520.7
2557.26554	5503.1
2559.96803	5504.9
2562.66883	5507.9
2565.36794	5499.6
2568.06536	5503.7
2570.7611	5515.2
2573.45514	5485.7
2576.14751	5482.4
2578.83819	5466.3
2581.52719	5461.8
2584.21451	5446.3
2586.90015	5444.6
2589.58411	5420.4
2592.2664	5436.1
2594.94701	5425.9
2597.62594	5420.1
2600.30321	5416.5
2602.9788	5419.5
2605.65273	5417.2
2608.32498	5428.6
2610.99557	5415.4
2613.66449	5413.7
2616.33175	5420
2618.99734	5429.5
2621.66128	5436.2
2624.32355	5444.5
2626.98416	5420.2
2629.64311	5415.9
2632.30041	5404.2
2634.95605	5397.6
2637.61004	5375.4
2640.26238	5358.5
2642.91306	5367.3
2645.56209	5376.2
2648.20948	5351.2
2650.85521	5379.3
2653.4993	5366.6
2656.14175	5380.5
2658.78255	5387.6
2661.42171	5391.5
2664.05923	5385.3
2666.6951	5410.6
2669.32934	5405.2
2671.96194	5417.7
2674.59291	5423.8
2677.22224	5434.7
2679.84993	5436.8
2682.476	5416.3
2685.10043	5429.3
2687.72324	5416.4
2690.34441	5405.6
2692.96396	5411
2695.58188	5386.9
2698.19818	5386.1
2700.81285	5390.7
2703.4259	5389.9
2706.03733	5387.2
2708.64714	5394.8
2711.25533	5408.6
2713.86191	5389.7
2716.46687	5426.1
2719.07021	5407.3
2721.67194	5438.3
2724.27206	5427.1
2726.87057	5429.2
2729.46747	5434.2
2732.06276	5421.5
2734.65644	5395.2
2737.24852	5409.3
2739.83899	5379.1
2742.42786	5390.7
2745.01513	5378.2
2747.60079	5368.4
2750.18486	5352.2
2752.76733	5359.1
2755.3482	5356.7
2757.92747	5326
2760.50515	5343.6
2763.08123	5326.2
2765.65573	5352
2768.22863	5346.6
2770.79994	5323.9
2773.36967	5312.7
2775.9378	5325.2
2778.50435	5331.9
2781.06932	5313.9
2783.6327	5317
2786.1945	5327.7
2788.75471	5325.8
2791.31335	5322.9
2793.87041	5323.4
2796.42589	5314.9
2798.97979	5327.6
2801.53212	5319.3
2804.08288	5324.6
2806.63206	5317.1
2809.17967	5350
2811.72571	5352.4
2814.27018	5350.4
2816.81308	5353.8
2819.35442	5351
2821.89419	5358
2824.43239	5380.8
2826.96904	5369.6
2829.50412	5378.8
2832.03763	5371.2
2834.56959	5374.2
2837.1	5345.6
2839.62884	5360.1
2842.15613	5329.3
2844.68186	5376.9
2847.20604	5352.8
2849.72867	5371.1
2852.24974	5381.8
2854.76927	5379
2857.28724	5375.6
2859.80367	5382
2862.31855	5380.1
2864.83189	5408
2867.34368	5416.6
2869.85393	5433.3
2872.36264	5425.2
2874.8698	5445.7
2877.37543	5421.8
2879.87952	5441.9
2882.38207	5442.6
2884.88308	5427.2
2887.38256	5423.9
2889.88051	5397
2892.37692	5400.3
2894.8718	5386.7
2897.36515	5381.7
2899.85698	5390.6
2902.34727	5401.3
2904.83604	5395.6
2907.32328	5410
2909.809	5413
2912.29319	5390.9
2914.77587	5374.2
2917.25702	5370.9
2919.73665	5373.5
2922.21476	5353.5
2924.69136	5356.9
2927.16644	5348.8
2929.64	5324.9
2932.11205	5331.9
2934.58258	5291.7
2937.05161	5287.4
2939.51912	5285.1
2941.98513	5291.9
2944.44962	5254.7
2946.91261	5243.9
2949.37409	5251.6
2951.83407	5262.7
2954.29254	5241.2
2956.74951	5240.8
2959.20498	5221.1
2961.65895	5202.7
2964.11142	5197.7
2966.56239	5204.4
2969.01186	5188.5
2971.45984	5160.1
2973.90632	5142.9
2976.35131	5124.5
2978.7948	5108.5
2981.23681	5103.3
2983.67732	5080.3
2986.11635	5063.1
2988.55388	5061.3
2990.98993	5058.5
2993.4245	5052.7
2995.85758	5046.8
2998.28917	5036.3
3000.71928	5039
3003.14791	5023.2
3005.57506	5016.6
3008.00073	5017.2
3010.42493	5032.7
3012.84764	5009.5
3015.26888	5012.6
3017.68865	5003.4
3020.10694	5000.7
3022.52376	4956
3024.9391	4955.8
3027.35298	4933.5
3029.76539	4918.4
3032.17632	4912.8
3034.5858	4905.8
3036.9938	4879.4
3039.40034	4870.6
3041.80542	4849.5
3044.20903	4840.3
3046.61118	4843.8
3049.01187	4818.1
3051.4111	4831
3053.80888	4793.7
3056.20519	4803.7
3058.60005	4785.9
3060.99345	4800.6
3063.3854	4779.5
3065.7759	4749.8
3068.16494	4737.8
3070.55254	4737.9
3072.93868	4723.5
3075.32338	4697.7
3077.70662	4689.9
3080.08842	4695.6
3082.46878	4694.5
3084.84769	4668.3
3087.22515	4667
3089.60118	4662.7
3091.97576	4649.4
3094.3489	4662.5
3096.72061	4660.5
3099.09087	4660.8
3101.4597	4646.8
3103.82709	4645.7
3106.19305	4626.8
3108.55757	4634.7
3110.92066	4610.5
3113.28232	4596
3115.64255	4586.8
3118.00134	4577.2
3120.35871	4573.2
3122.71466	4572.1
3125.06917	4555
3127.42226	4554
3129.77393	4570.1
3132.12417	4562.3
3134.47299	4565.7
3136.82039	4579.5
3139.16636	4571.3
3141.51092	4576.1
3143.85406	4569.2
3146.19579	4595.5
3148.53609	4572.3
3150.87499	4574.2
3153.21246	4573.2
3155.54853	4568
3157.88318	4563.5
3160.21642	4548.1
3162.54826	4553
3164.87868	4536.6
3167.2077	4544.7
3169.5353	4537.9
3171.86151	4534.7
3174.18631	4537.5
3176.5097	4544.4
3178.83169	4548.4
3181.15228	4540.1
3183.47147	4531.6
3185.78926	4529.5
3188.10565	4539.6
3190.42065	4537.9
3192.73424	4531.1
3195.04645	4536.5
3197.35725	4559.7
3199.66667	4554.9
3201.97469	4572
3204.28132	4578.4
3206.58656	4586.6
3208.8904	4588.7
3211.19287	4589.5
3213.49394	4597.1
3215.79363	4595.9
3218.09193	4589.3
3220.38884	4596.3
3222.68438	4592.3
3224.97853	4574.5
3227.2713	4579.6
3229.56269	4573.9
3231.8527	4588.2
3234.14133	4576.6
3236.42858	4573.2
3238.71446	4592.6
3240.99896	4589.3
3243.28209	4597.6
3245.56384	4598.7
3247.84423	4597.1
3250.12324	4586.4
3252.40088	4590.9
3254.67715	4582.9
3256.95205	4574.1
3259.22558	4569.1
3261.49775	4562.4
3263.76855	4565.4
3266.03799	4543.7
3268.30606	4541.6
3270.57277	4527.4
3272.83812	4533.8
3275.10211	4543.8
3277.36474	4534.1
3279.62601	4557.6
3281.88593	4562.3
3284.14448	4562.9
3286.40168	4570.7
3288.65753	4581.8
3290.91202	4573.3
3293.16516	4576.5
3295.41695	4560.5
3297.66738	4551.9
3299.91647	4544.5
3302.16421	4511.7
3304.4106	4516.3
3306.65564	4479.9
3308.89933	4443.6
3311.14169	4410.1
3313.38269	4380.5
3315.62236	4357.4
3317.86068	4316.1
3320.09766	4258.9
3322.3333	4223.6
3324.5676	4221.1
3326.80056	4145.8
3329.03219	4130.4
3331.26248	4.1
3333.49143	-1.8
3335.71905	1.1
