Data from AgNP_FTO_APTES_UA_100uM_CRN_20uM_R6G_10uM_NaF_0.1M_Addition_RamanShift__20__16-49-10-498.txt Node

Date: Thu Mar 24 16:49:10 GMT 2022
User: TCL
Spectrometer: QEP01345
Trigger mode: 4
Integration Time (sec): 7.000000E0
Scans to average: 10
Electric dark correction enabled: true
Nonlinearity correction enabled: false
Boxcar width: 0
XAxis mode: Raman Shifts
Number of Pixels in Spectrum: 1044
>>>>>Begin Spectral Data<<<<<
46.04893	-2.3
50.45542	0.9
54.85868	-0.3
59.25871	-0.5
63.6555	40.4
68.04907	41.8
72.43941	45.5
76.82654	44.6
81.21044	50
85.59113	50
89.96862	51.1
94.34289	49.3
98.71396	55
103.08183	54.1
107.4465	56.5
111.80798	62.7
116.16626	58.9
120.52136	64
124.87327	65.7
129.222	67.9
133.56755	74.3
137.90993	74.3
142.24913	90.7
146.58517	100
150.91804	113.8
155.24774	140.6
159.57429	176.7
163.89768	227.7
168.21792	307.7
172.53501	420.2
176.84895	587.8
181.15975	832.5
185.46741	1183.5
189.77193	1606.6
194.07331	2169.4
198.37157	2802.8
202.6667	3478.2
206.9587	4157.2
211.24758	4840.7
215.53334	5553.8
219.81599	6300
224.09553	7156.5
228.37195	8131.2
232.64527	9188.6
236.91549	10252.8
241.18261	11244.1
245.44663	12075.2
249.70755	12754.7
253.96539	13332.5
258.22014	13830
262.4718	14242.5
266.72039	14565.9
270.96589	14691.5
275.20832	14679.8
279.44768	14478.3
283.68397	14250.8
287.91719	14102.4
292.14735	14106.1
296.37445	14278.7
300.59849	14660.9
304.81948	15104.5
309.03742	15397.2
313.25231	15362.5
317.46415	14955.7
321.67296	14243
325.87872	13610.2
330.08145	13269.5
334.28114	13193.3
338.47781	13350.6
342.67145	13624.1
346.86207	13975.6
351.04966	14471.8
355.23424	15045.2
359.4158	15398.6
363.59435	15661.9
367.76989	15757.5
371.94243	15737.9
376.11196	15731.6
380.27849	15651.5
384.44203	15608.6
388.60257	15554.1
392.76012	15587.4
396.91468	15744.5
401.06626	16013.8
405.21485	16184.8
409.36047	15957.8
413.50311	15339.1
417.64277	14746
421.77947	14465.3
425.9132	14361.1
430.04396	14388.1
434.17176	14492.6
438.2966	14667.3
442.41849	14962.7
446.53742	15422.5
450.6534	15849.6
454.76644	16074.2
458.87653	16103.5
462.98368	15947.5
467.08789	15730.8
471.18916	15436.1
475.2875	15163
479.38291	14926.6
483.4754	14691.7
487.56496	14495.9
491.6516	14327.5
495.73531	14247.8
499.81612	14215.5
503.89401	14340.4
507.96899	14444.3
512.04106	14488.9
516.11023	14579.7
520.1765	14622.1
524.23987	14619.2
528.30034	14539.3
532.35792	14414.5
536.41261	14241.9
540.46441	13990.1
544.51333	13934.2
548.55936	14069.5
552.60252	14407.7
556.64279	14775.7
560.6802	14932.5
564.71473	15060.6
568.7464	15405.6
572.7752	15756.1
576.80114	15774.7
580.82422	15730.6
584.84444	15856.6
588.86181	16150.3
592.87633	16510.5
596.888	16691.4
600.89682	16731.1
604.9028	17740.3
608.90594	21133.6
612.90624	25394.6
616.90371	23983
620.89834	17850.1
624.89015	14894.2
628.87913	14437.5
632.86528	14650.2
636.84862	14896.7
640.82913	14698.2
644.80683	14052.8
648.78172	13579.5
652.75379	13543.2
656.72306	13936.1
660.68952	14436.8
664.65319	14263.5
668.61405	13696.8
672.57211	13483.5
676.52738	13538.9
680.47986	13520.7
684.42955	13395
688.37646	13271.8
692.32058	13286.8
696.26192	13421.7
700.20048	13609
704.13626	13723.4
708.06928	13712.5
711.99952	13587.7
715.927	13559.5
719.85171	13636.5
723.77365	13691.5
727.69284	13601.4
731.60928	13468.7
735.52295	13475.1
739.43388	13486.3
743.34206	13540.5
747.24749	13606.4
751.15017	13628.9
755.05012	13854.1
758.94733	14423.2
762.8418	15852.2
766.73354	18237.6
770.62254	20605.5
774.50882	21452.2
778.39237	20289.8
782.27321	17899.7
786.15132	15679.2
790.02671	14326.8
793.89938	13692.4
797.76935	13388.9
801.6366	13236.7
805.50115	13169.9
809.36299	13089
813.22213	13047
817.07857	12985.4
820.93231	12926.4
824.78336	12933.9
828.63172	12918.7
832.47738	12916.1
836.32036	12874.9
840.16066	12838.4
843.99827	12855.2
847.8332	12829.7
851.66546	12814.1
855.49504	12802.7
859.32195	12846.6
863.1462	12790.5
866.96777	12780.1
870.78668	12769.6
874.60293	12820.5
878.41652	12828.6
882.22745	12929.8
886.03573	12991.9
889.84136	12976.7
893.64433	12896.7
897.44466	12831.9
901.24235	12795.6
905.0374	12725.3
908.8298	12664.8
912.61957	12645
916.40671	12693.8
920.19121	12781.7
923.97308	12967.6
927.75233	13002.9
931.52895	13054.1
935.30295	12852.5
939.07433	12558.1
942.84309	12317.1
946.60924	12169.3
950.37278	12103
954.13371	12076.8
957.89203	12038.5
961.64774	12035.1
965.40086	12015.6
969.15137	11954.9
972.89929	11922.5
976.64461	11912.2
980.38733	11881.1
984.12747	11950.5
987.86502	12019.7
991.59999	12114
995.33237	12249.1
999.06217	12534.8
1002.78939	12786.7
1006.51404	13139.9
1010.23611	13403.7
1013.95561	13518.1
1017.67255	13547
1021.38692	13336
1025.09872	13094.3
1028.80796	12910.9
1032.51465	12937.8
1036.21877	13032.8
1039.92035	13134.1
1043.61937	13149.9
1047.31584	13138.7
1051.00976	13128
1054.70114	13063.6
1058.38998	13061.8
1062.07627	13153.8
1065.76003	13237.9
1069.44126	13332.7
1073.11995	13547
1076.79611	13773.4
1080.46974	14031.5
1084.14085	14334.7
1087.80943	14611.6
1091.47549	14765.4
1095.13903	14593
1098.80005	14232.1
1102.45857	13906.3
1106.11456	13745.1
1109.76805	13781.1
1113.41903	14045.7
1117.06751	14391.1
1120.71348	14898.4
1124.35696	15396.1
1127.99793	15834.2
1131.63641	15765.4
1135.2724	15295.4
1138.90589	14772.2
1142.5369	14453.6
1146.16542	14259.1
1149.79145	14139
1153.415	14122.1
1157.03607	14274.1
1160.65467	14602.5
1164.27079	15193.2
1167.88443	16125.5
1171.49561	17400.9
1175.10432	19303.3
1178.71056	21805.2
1182.31434	23917.2
1185.91565	24637.7
1189.51451	24062
1193.11091	22851.7
1196.70485	21399.6
1200.29634	20078.3
1203.88538	19012
1207.47197	17934.3
1211.05612	17006.1
1214.63782	16385.9
1218.21708	16099.9
1221.79391	16050.2
1225.36829	16061.7
1228.94024	15984
1232.50976	15726.5
1236.07685	15453.6
1239.6415	15379.3
1243.20374	15382.9
1246.76355	15462.8
1250.32093	15656.2
1253.8759	15936.8
1257.42845	16397
1260.97859	16898.6
1264.52631	17512.3
1268.07163	18135.2
1271.61453	18699.4
1275.15503	19183.6
1278.69312	19479.8
1282.22882	19839.9
1285.76211	20400.1
1289.29301	21131.6
1292.82151	21949.4
1296.34761	22985.3
1299.87133	24430.1
1303.39266	26481.7
1306.9116	29102.7
1310.42815	31770.3
1313.94233	33025.9
1317.45412	32141.6
1320.96354	30255.8
1324.47058	28254.1
1327.97525	26544.7
1331.47754	25314.1
1334.97747	24739.9
1338.47502	24696.5
1341.97022	25119.2
1345.46305	25976.4
1348.95352	27227.4
1352.44163	28847.2
1355.92738	31310.9
1359.41078	34821.2
1362.89183	38034.6
1366.37053	36914.8
1369.84688	31572.6
1373.32088	26267.8
1376.79254	23077.8
1380.26186	21516.2
1383.72883	20712.2
1387.19347	20125.9
1390.65578	19551.3
1394.11575	19112.4
1397.57339	18926.8
1401.0287	18917.2
1404.48168	18983.2
1407.93234	18887.3
1411.38068	18743.5
1414.82669	18529.1
1418.27039	18121.5
1421.71177	17622.8
1425.15083	17131.8
1428.58758	16887.3
1432.02203	17067.1
1435.45416	17384.2
1438.88399	17653.7
1442.31151	17811.6
1445.73673	18007.5
1449.15965	18123.4
1452.58027	18158.4
1455.9986	18161.3
1459.41463	18241
1462.82837	18557.1
1466.23982	19048.5
1469.64898	19579.8
1473.05586	19984.3
1476.46045	20237.4
1479.86276	20456.1
1483.26279	20652.8
1486.66054	20968.4
1490.05602	21585.9
1493.44922	22544.6
1496.84016	24042.8
1500.22882	26219.5
1503.61521	29297.1
1506.99934	32498
1510.38121	34643.2
1513.76081	34400.1
1517.13816	31679.5
1520.51324	27890.4
1523.88607	24770.6
1527.25665	22910.4
1530.62498	21945.7
1533.99105	21399.2
1537.35488	20913.9
1540.71647	20432.5
1544.07581	19890
1547.4329	19461
1550.78776	19160.3
1554.14038	19005
1557.49077	19073.9
1560.83892	19380.9
1564.18484	19867.5
1567.52853	20533.9
1570.86999	21083.8
1574.20922	21466.2
1577.54624	21366
1580.88103	20422.2
1584.2136	19249
1587.54395	18703.5
1590.87208	19034.6
1594.19801	20120.4
1597.52172	21562.2
1600.84321	22147.3
1604.16251	21433.6
1607.47959	20072.1
1610.79447	18649.7
1614.10715	17237.9
1617.41763	15974.2
1620.7259	15100.8
1624.03199	14625.5
1627.33587	14618.1
1630.63757	14970.1
1633.93707	15840.2
1637.23439	17358.3
1640.52951	19797.7
1643.82246	23031.5
1647.11321	26353.8
1650.40179	27878.9
1653.68819	26336.5
1656.97241	22483.1
1660.25446	18541.1
1663.53433	15782.7
1666.81203	14121.4
1670.08756	13119.5
1673.36092	12476.9
1676.63211	12075.6
1679.90115	11797.8
1683.16801	11607
1686.43272	11445.1
1689.69527	11304.3
1692.95567	11206.5
1696.2139	11119.9
1699.46999	11082.4
1702.72392	11034.8
1705.97571	11002.8
1709.22535	10974.9
1712.47284	10968.3
1715.71819	10952.9
1718.96139	10914.1
1722.20246	10865.9
1725.44139	10791.6
1728.67818	10705.8
1731.91284	10635.3
1735.14537	10559.3
1738.37576	10504.3
1741.60403	10451.3
1744.83017	10414.2
1748.05418	10400.3
1751.27607	10328.1
1754.49584	10316.4
1757.71349	10314.1
1760.92903	10287
1764.14244	10275.7
1767.35375	10251.1
1770.56294	10195.2
1773.77002	10171.7
1776.97499	10131.8
1780.17785	10119.7
1783.37861	10093.2
1786.57727	10070.4
1789.77382	10055
1792.96828	10035.2
1796.16064	10009
1799.3509	9988.2
1802.53907	9981.8
1805.72514	9907
1808.90913	9906.9
1812.09102	9860.5
1815.27083	9829
1818.44856	9830.9
1821.6242	9807.6
1824.79776	9770.1
1827.96924	9761.1
1831.13864	9742.5
1834.30597	9720.1
1837.47122	9707
1840.6344	9691.4
1843.7955	9678.2
1846.95454	9678.3
1850.11151	9659.5
1853.26642	9653.8
1856.41926	9654.8
1859.57004	9637.5
1862.71876	9603.1
1865.86542	9613.9
1869.01003	9615.1
1872.15258	9556.6
1875.29308	9597
1878.43152	9570.5
1881.56792	9589.9
1884.70227	9593.6
1887.83457	9563.5
1890.96482	9552.6
1894.09304	9542
1897.21921	9509.8
1900.34335	9492.9
1903.46544	9504.8
1906.58551	9530.8
1909.70353	9476.6
1912.81953	9482.4
1915.93349	9452.4
1919.04543	9424.4
1922.15534	9409.8
1925.26322	9371.7
1928.36908	9376.4
1931.47292	9344
1934.57473	9318.3
1937.67453	9294.5
1940.77232	9291.9
1943.86808	9258.5
1946.96184	9224.8
1950.05358	9203.9
1953.14331	9168.4
1956.23103	9137.6
1959.31675	9119.1
1962.40046	9081.1
1965.48217	9061.3
1968.56188	9037.9
1971.63959	9037.8
1974.7153	9019.6
1977.78901	8976
1980.86073	8933.7
1983.93046	8901.3
1986.99819	8871.2
1990.06394	8834.4
1993.1277	8805.5
1996.18947	8783.7
1999.24925	8754
2002.30706	8727.8
2005.36288	8699
2008.41672	8668.8
2011.46859	8618
2014.51848	8604.8
2017.56639	8567
2020.61233	8549.3
2023.6563	8545.4
2026.6983	8507.2
2029.73833	8487.5
2032.7764	8469.5
2035.8125	8443.8
2038.84664	8431.4
2041.87881	8416.6
2044.90903	8402.1
2047.93729	8387.6
2050.96359	8362.6
2053.98794	8352.8
2057.01034	8337.5
2060.03078	8312.6
2063.04927	8305.7
2066.06582	8298.1
2069.08042	8303.2
2072.09307	8296
2075.10378	8287
2078.11255	8288.7
2081.11938	8300.7
2084.12426	8270.4
2087.12722	8287.9
2090.12824	8287.5
2093.12732	8310.6
2096.12447	8275
2099.11969	8273.5
2102.11299	8292.2
2105.10435	8299.9
2108.09379	8277.3
2111.08131	8295.9
2114.0669	8295.6
2117.05057	8312.5
2120.03233	8313.5
2123.01216	8319.3
2125.99008	8327.4
2128.96609	8337.6
2131.94018	8324.3
2134.91236	8322.8
2137.88263	8329.5
2140.851	8331.1
2143.81746	8348.2
2146.78201	8340
2149.74466	8308.5
2152.7054	8326
2155.66425	8282.4
2158.6212	8285.6
2161.57625	8284
2164.52941	8281.7
2167.48067	8270.6
2170.43004	8279.7
2173.37752	8263.7
2176.32311	8280
2179.26681	8287.7
2182.20863	8278.5
2185.14856	8286.7
2188.08661	8272.6
2191.02278	8252.3
2193.95707	8252.9
2196.88948	8265
2199.82001	8252.2
2202.74867	8215
2205.67545	8234.3
2208.60037	8210.3
2211.52341	8198.4
2214.44458	8216.3
2217.36388	8160.2
2220.28132	8151.5
2223.1969	8134
2226.11061	8116.6
2229.02246	8089.9
2231.93245	8088.7
2234.84058	8068.5
2237.74686	8078
2240.65128	8085.3
2243.55385	8040.6
2246.45456	8037.4
2249.35343	7993.2
2252.25044	8024.3
2255.14561	8024.1
2258.03893	8010.6
2260.93041	7990.7
2263.82004	7984.7
2266.70783	7958.2
2269.59378	7943.7
2272.4779	7932.5
2275.36017	7913.8
2278.24061	7885.2
2281.11922	7883.4
2283.996	7840.9
2286.87094	7880
2289.74405	7843.8
2292.61534	7816.9
2295.4848	7815.1
2298.35243	7787.3
2301.21824	7792.6
2304.08223	7792.9
2306.94439	7799.2
2309.80474	7788.7
2312.66327	7793.5
2315.51999	7787.3
2318.37489	7787.2
2321.22797	7761.2
2324.07925	7757.9
2326.92871	7749.4
2329.77637	7745.1
2332.62222	7734.6
2335.46626	7715.7
2338.3085	7704.5
2341.14893	7715
2343.98756	7721.3
2346.8244	7713.4
2349.65943	7758.8
2352.49267	7746.4
2355.32411	7744.9
2358.15376	7735.6
2360.98161	7753.4
2363.80768	7740.6
2366.63195	7785.4
2369.45444	7758.7
2372.27514	7736.1
2375.09405	7708.5
2377.91118	7713
2380.72652	7689.2
2383.54009	7650.7
2386.35187	7642.2
2389.16188	7607.6
2391.97011	7589.6
2394.77657	7572.3
2397.58125	7551.4
2400.38416	7562
2403.18529	7531.4
2405.98466	7509.4
2408.78226	7487.7
2411.57809	7480.1
2414.37216	7471.7
2417.16446	7483.2
2419.955	7452.3
2422.74378	7447.3
2425.5308	7446.9
2428.31606	7450.4
2431.09956	7446.2
2433.88131	7451.4
2436.6613	7434.4
2439.43954	7443.5
2442.21603	7430.3
2444.99077	7413.8
2447.76377	7422.7
2450.53501	7434.1
2453.30451	7442.1
2456.07226	7433.6
2458.83827	7429
2461.60254	7432.9
2464.36507	7435.1
2467.12586	7421.8
2469.88492	7413.3
2472.64224	7434.1
2475.39782	7427.6
2478.15167	7444.9
2480.90379	7441.3
2483.65417	7466.3
2486.40283	7477.8
2489.14976	7495.3
2491.89497	7494.1
2494.63845	7494.3
2497.3802	7463.6
2500.12024	7466.7
2502.85855	7453.4
2505.59514	7451
2508.33002	7400.9
2511.06318	7384.9
2513.79462	7374.5
2516.52435	7369.4
2519.25237	7338.5
2521.97867	7325.6
2524.70327	7333.1
2527.42616	7306.6
2530.14734	7318.3
2532.86681	7308.6
2535.58458	7302.5
2538.30065	7286
2541.01501	7290
2543.72768	7282.5
2546.43864	7294.9
2549.14791	7255.8
2551.85548	7281.6
2554.56136	7258.5
2557.26554	7233.7
2559.96803	7226.7
2562.66883	7217.3
2565.36794	7220.7
2568.06536	7198.3
2570.7611	7191.5
2573.45514	7194.8
2576.14751	7199.8
2578.83819	7176.2
2581.52719	7158.5
2584.21451	7155.4
2586.90015	7191.3
2589.58411	7148.2
2592.2664	7152.6
2594.94701	7145.7
2597.62594	7147.8
2600.30321	7112.2
2602.9788	7116.2
2605.65273	7112
2608.32498	7085.2
2610.99557	7077.1
2613.66449	7093.2
2616.33175	7093.7
2618.99734	7112.9
2621.66128	7099.8
2624.32355	7104.8
2626.98416	7075.8
2629.64311	7057.1
2632.30041	7067.1
2634.95605	7047
2637.61004	7055.7
2640.26238	7050.5
2642.91306	7063.5
2645.56209	7037.8
2648.20948	7040.1
2650.85521	7028.8
2653.4993	7022.4
2656.14175	7047.7
2658.78255	7044.1
2661.42171	7046
2664.05923	7055
2666.6951	7070.2
2669.32934	7080.7
2671.96194	7081.9
2674.59291	7070.4
2677.22224	7068.3
2679.84993	7065.7
2682.476	7032.6
2685.10043	7054
2687.72324	7037.9
2690.34441	7035
2692.96396	7069.1
2695.58188	7034.6
2698.19818	7049.7
2700.81285	7053.3
2703.4259	7026.4
2706.03733	7056.4
2708.64714	7035.7
2711.25533	7053.7
2713.86191	7049.4
2716.46687	7088
2719.07021	7067.8
2721.67194	7060.7
2724.27206	7074
2726.87057	7076.3
2729.46747	7064.8
2732.06276	7062.5
2734.65644	7063.3
2737.24852	7059.5
2739.83899	7022.9
2742.42786	7042.9
2745.01513	7009.2
2747.60079	7022.2
2750.18486	6997.6
2752.76733	7014
2755.3482	7008.4
2757.92747	6990.6
2760.50515	6973.7
2763.08123	6960.3
2765.65573	6981.3
2768.22863	6984.9
2770.79994	6957.1
2773.36967	6969.7
2775.9378	6971.5
2778.50435	6971.2
2781.06932	6948.6
2783.6327	6967.6
2786.1945	6969.6
2788.75471	6962.3
2791.31335	6946
2793.87041	6939.1
2796.42589	6940.8
2798.97979	6919.8
2801.53212	6904.2
2804.08288	6896.5
2806.63206	6882.8
2809.17967	6867.5
2811.72571	6886.4
2814.27018	6873.5
2816.81308	6856
2819.35442	6868.3
2821.89419	6860.1
2824.43239	6873.8
2826.96904	6839.2
2829.50412	6847.1
2832.03763	6830.6
2834.56959	6825.2
2837.1	6835
2839.62884	6857.7
2842.15613	6841.4
2844.68186	6852.9
2847.20604	6837.5
2849.72867	6864.5
2852.24974	6859
2854.76927	6835.5
2857.28724	6853.6
2859.80367	6840
2862.31855	6850.9
2864.83189	6846.4
2867.34368	6844.9
2869.85393	6859.8
2872.36264	6837.2
2874.8698	6848.8
2877.37543	6849.4
2879.87952	6849.7
2882.38207	6827
2884.88308	6817.7
2887.38256	6827.3
2889.88051	6834
2892.37692	6822.1
2894.8718	6818.3
2897.36515	6844.7
2899.85698	6809.7
2902.34727	6848.2
2904.83604	6840
2907.32328	6860.4
2909.809	6843.2
2912.29319	6856.5
2914.77587	6849.5
2917.25702	6869.8
2919.73665	6845.3
2922.21476	6854.7
2924.69136	6834.8
2927.16644	6816.3
2929.64	6816.5
2932.11205	6804.8
2934.58258	6795.9
2937.05161	6786.7
2939.51912	6764.2
2941.98513	6755.7
2944.44962	6725.8
2946.91261	6723
2949.37409	6732.8
2951.83407	6711.6
2954.29254	6721.3
2956.74951	6741.9
2959.20498	6744
2961.65895	6736.8
2964.11142	6714.5
2966.56239	6702.1
2969.01186	6685.6
2971.45984	6690.7
2973.90632	6669.7
2976.35131	6661.6
2978.7948	6638.4
2981.23681	6624
2983.67732	6616.1
2986.11635	6607.5
2988.55388	6584.2
2990.98993	6572.5
2993.4245	6586.1
2995.85758	6542.2
2998.28917	6541
3000.71928	6538.4
3003.14791	6530.7
3005.57506	6530.1
3008.00073	6494.4
3010.42493	6519.5
3012.84764	6507.5
3015.26888	6491.4
3017.68865	6474.5
3020.10694	6484.8
3022.52376	6445.3
3024.9391	6453.6
3027.35298	6433.6
3029.76539	6424.2
3032.17632	6407.4
3034.5858	6387.6
3036.9938	6400.6
3039.40034	6384.7
3041.80542	6397.1
3044.20903	6389.7
3046.61118	6362.8
3049.01187	6352.3
3051.4111	6345.3
3053.80888	6326
3056.20519	6328.1
3058.60005	6317.8
3060.99345	6311.8
3063.3854	6279.5
3065.7759	6264.8
3068.16494	6261.2
3070.55254	6259.6
3072.93868	6229.7
3075.32338	6226.9
3077.70662	6207.6
3080.08842	6204.7
3082.46878	6206.6
3084.84769	6197.7
3087.22515	6198.9
3089.60118	6196.8
3091.97576	6200.4
3094.3489	6172.3
3096.72061	6170.8
3099.09087	6188.9
3101.4597	6192.3
3103.82709	6180.4
3106.19305	6173.2
3108.55757	6200.2
3110.92066	6154.5
3113.28232	6157.1
3115.64255	6148.9
3118.00134	6132.8
3120.35871	6125.5
3122.71466	6116.3
3125.06917	6095.4
3127.42226	6099.3
3129.77393	6081.2
3132.12417	6088
3134.47299	6084.4
3136.82039	6090.3
3139.16636	6089.2
3141.51092	6084
3143.85406	6088.3
3146.19579	6088.9
3148.53609	6103.4
3150.87499	6111.3
3153.21246	6103.9
3155.54853	6122.2
3157.88318	6100.5
3160.21642	6104.6
3162.54826	6101.8
3164.87868	6108
3167.2077	6102.3
3169.5353	6116.7
3171.86151	6106.7
3174.18631	6088.3
3176.5097	6111.3
3178.83169	6099.2
3181.15228	6092
3183.47147	6075.8
3185.78926	6077.3
3188.10565	6083.4
3190.42065	6086.1
3192.73424	6086.6
3195.04645	6078.1
3197.35725	6071.4
3199.66667	6070.7
3201.97469	6096
3204.28132	6103.9
3206.58656	6095.6
3208.8904	6098.9
3211.19287	6107.9
3213.49394	6107.4
3215.79363	6132.4
3218.09193	6113.9
3220.38884	6111.1
3222.68438	6131.2
3224.97853	6142.6
3227.2713	6128
3229.56269	6121.8
3231.8527	6136.8
3234.14133	6108.1
3236.42858	6106.3
3238.71446	6097.9
3240.99896	6091
3243.28209	6090.3
3245.56384	6066
3247.84423	6067.9
3250.12324	6071.4
3252.40088	6044.3
3254.67715	6055.6
3256.95205	6057
3259.22558	6061.8
3261.49775	6051.6
3263.76855	6036.6
3266.03799	6016.3
3268.30606	6034.2
3270.57277	6004
3272.83812	5992.4
3275.10211	5990.1
3277.36474	5981.5
3279.62601	6001.9
3281.88593	5978.4
3284.14448	6028.1
3286.40168	6002.2
3288.65753	5991.4
3290.91202	6007.9
3293.16516	5989.6
3295.41695	5982.3
3297.66738	5967.4
3299.91647	5927.7
3302.16421	5890.6
3304.4106	5880.2
3306.65564	5856.2
3308.89933	5819.1
3311.14169	5794
3313.38269	5729
3315.62236	5713.1
3317.86068	5656.4
3320.09766	5599.7
3322.3333	5579.8
3324.5676	5568.3
3326.80056	5468.4
3329.03219	5440
3331.26248	2.6
3333.49143	-1.3
3335.71905	1.2
