Data from AgNP_FTO_APTES_UA_100uM_CRN_0uM_R6G_10uM_NaF_0.1M_Addition_RamanShift__48__11-41-10-144.txt Node

Date: Thu Mar 24 11:41:10 GMT 2022
User: TCL
Spectrometer: QEP01345
Trigger mode: 4
Integration Time (sec): 7.000000E0
Scans to average: 10
Electric dark correction enabled: true
Nonlinearity correction enabled: false
Boxcar width: 0
XAxis mode: Raman Shifts
Number of Pixels in Spectrum: 1044
>>>>>Begin Spectral Data<<<<<
46.04893	-1.7
50.45542	-0.5
54.85868	-1
59.25871	-0.3
63.6555	50.4
68.04907	53.2
72.43941	51.5
76.82654	51.1
81.21044	56.4
85.59113	58.4
89.96862	61.7
94.34289	60.2
98.71396	63.8
103.08183	64.5
107.4465	66.6
111.80798	69.1
116.16626	69.1
120.52136	70.4
124.87327	73.7
129.222	79.5
133.56755	84.1
137.90993	90.6
142.24913	101.4
146.58517	111.9
150.91804	131.8
155.24774	155.4
159.57429	193.3
163.89768	249.6
168.21792	342.2
172.53501	464
176.84895	658.7
181.15975	921.4
185.46741	1288.1
189.77193	1765.4
194.07331	2348.6
198.37157	3023.3
202.6667	3748.8
206.9587	4467
211.24758	5191.3
215.53334	5948.1
219.81599	6799.7
224.09553	7739.2
228.37195	8801.4
232.64527	9926.7
236.91549	11068
241.18261	12133.9
245.44663	13014
249.70755	13677.3
253.96539	14223.1
258.22014	14673.6
262.4718	15102.9
266.72039	15358.3
270.96589	15443.9
275.20832	15369.8
279.44768	15121.3
283.68397	14871.4
287.91719	14656.5
292.14735	14568.2
296.37445	14610.9
300.59849	14936.5
304.81948	15314.2
309.03742	15660.8
313.25231	15866.4
317.46415	15742.3
321.67296	15379.4
325.87872	15069.7
330.08145	14921.5
334.28114	14918.3
338.47781	15025.6
342.67145	15261.5
346.86207	15600.2
351.04966	16074.8
355.23424	16558.2
359.4158	16862.5
363.59435	16941.4
367.76989	16949
371.94243	16887.3
376.11196	16884.7
380.27849	16906.4
384.44203	16985.6
388.60257	17025.9
392.76012	17025.3
396.91468	17109.9
401.06626	17317.9
405.21485	17521.3
409.36047	17358.1
413.50311	16777.8
417.64277	16392.5
421.77947	16268.9
425.9132	16276.9
430.04396	16454.1
434.17176	16647
438.2966	17137.9
442.41849	17950.2
446.53742	19110.4
450.6534	20273.6
454.76644	20812.8
458.87653	20607.8
462.98368	19955.9
467.08789	19203.3
471.18916	18514.5
475.2875	17832.4
479.38291	17201.5
483.4754	16712.3
487.56496	16365.4
491.6516	16034.1
495.73531	15777.2
499.81612	15660.9
503.89401	15756.4
507.96899	15785.2
512.04106	15734.7
516.11023	15632.8
520.1765	15615.2
524.23987	15744.4
528.30034	15924.5
532.35792	15989.5
536.41261	15671.5
540.46441	15198.7
544.51333	14874.7
548.55936	14952.9
552.60252	15407.1
556.64279	16218.8
560.6802	16925.7
564.71473	17232.7
568.7464	17629.8
572.7752	18356.3
576.80114	18761.2
580.82422	19024.6
584.84444	19990.4
588.86181	22334
592.87633	25614.9
596.888	27355.2
600.89682	25346.1
604.9028	23068.5
608.90594	24519.4
612.90624	27617.2
616.90371	25691.9
620.89834	19404.4
624.89015	16248.6
628.87913	15689.3
632.86528	15819.3
636.84862	15754.2
640.82913	15205.9
644.80683	14491.1
648.78172	13990.3
652.75379	14031.1
656.72306	14529.7
660.68952	15142.2
664.65319	14925.1
668.61405	14263.7
672.57211	14037.4
676.52738	14185.4
680.47986	14145.4
684.42955	13910.7
688.37646	13734.7
692.32058	13898.4
696.26192	14254.1
700.20048	14648.6
704.13626	14856.4
708.06928	14817.7
711.99952	14699.2
715.927	14765.9
719.85171	14954.8
723.77365	14912.6
727.69284	14668.4
731.60928	14494.3
735.52295	14598.2
739.43388	14790.4
743.34206	14935.6
747.24749	14974.6
751.15017	15091.3
755.05012	15329.6
758.94733	15982
762.8418	17418.2
766.73354	19911.4
770.62254	22207.4
774.50882	22870.4
778.39237	21590.1
782.27321	19348.3
786.15132	17104.8
790.02671	15677.8
793.89938	14916.7
797.76935	14487.6
801.6366	14367
805.50115	14246.2
809.36299	14136.3
813.22213	14003.3
817.07857	13937.7
820.93231	13857.3
824.78336	13786.4
828.63172	13832.5
832.47738	13862.5
836.32036	13851.2
840.16066	13878.1
843.99827	13885.9
847.8332	13820.4
851.66546	13822.8
855.49504	13812.1
859.32195	13808.7
863.1462	13675.8
866.96777	13611.1
870.78668	13589
874.60293	13633.2
878.41652	13706.1
882.22745	13848.5
886.03573	13948.4
889.84136	13935.1
893.64433	13850.6
897.44466	13791.1
901.24235	13725.4
905.0374	13679.5
908.8298	13558.3
912.61957	13467.5
916.40671	13578.3
920.19121	13780.3
923.97308	14083.9
927.75233	14296.1
931.52895	14265.3
935.30295	13894.9
939.07433	13415.7
942.84309	13067.5
946.60924	12950
950.37278	12914.3
954.13371	12927.4
957.89203	12932.5
961.64774	12901.4
965.40086	12884.6
969.15137	12927.9
972.89929	12892.3
976.64461	12847.2
980.38733	12867
984.12747	12955.9
987.86502	13026.4
991.59999	13219.4
995.33237	13504.8
999.06217	14072.3
1002.78939	14791.2
1006.51404	15461.1
1010.23611	15978.1
1013.95561	16303.6
1017.67255	16274
1021.38692	15717.9
1025.09872	14935.9
1028.80796	14451.4
1032.51465	14431.2
1036.21877	14571.3
1039.92035	14635.2
1043.61937	14664.8
1047.31584	14588.4
1051.00976	14481.2
1054.70114	14422.3
1058.38998	14378.7
1062.07627	14407
1065.76003	14498
1069.44126	14707.5
1073.11995	15088
1076.79611	15458.3
1080.46974	15804.8
1084.14085	16283.9
1087.80943	16700.8
1091.47549	16904.4
1095.13903	16761.1
1098.80005	16168.4
1102.45857	15604.3
1106.11456	15384.5
1109.76805	15434.6
1113.41903	15660.8
1117.06751	16068.8
1120.71348	16538.4
1124.35696	17075.5
1127.99793	17511.6
1131.63641	17505.5
1135.2724	17142.9
1138.90589	16786
1142.5369	16667.8
1146.16542	16862.3
1149.79145	17116.8
1153.415	17381.7
1157.03607	17597.2
1160.65467	18023.2
1164.27079	19034.1
1167.88443	20567.7
1171.49561	22845.7
1175.10432	26170.8
1178.71056	30416.9
1182.31434	34088.3
1185.91565	35036.9
1189.51451	33316
1193.11091	30766.2
1196.70485	28313.8
1200.29634	26130
1203.88538	24395.7
1207.47197	23075
1211.05612	22257.9
1214.63782	21862.3
1218.21708	21974.3
1221.79391	22550.4
1225.36829	23204
1228.94024	23190.6
1232.50976	22216.5
1236.07685	21023.7
1239.6415	20265.1
1243.20374	20078.6
1246.76355	20080.6
1250.32093	20268.2
1253.8759	20658.9
1257.42845	21541.3
1260.97859	22558.9
1264.52631	23749
1268.07163	24855.3
1271.61453	25771.2
1275.15503	26556.5
1278.69312	27379.1
1282.22882	28518.3
1285.76211	30389.5
1289.29301	32679.6
1292.82151	35233.2
1296.34761	37960.8
1299.87133	41036.8
1303.39266	44712.1
1306.9116	48801.2
1310.42815	52849.6
1313.94233	55225.6
1317.45412	54244
1320.96354	50759.5
1324.47058	46760.7
1327.97525	43170.6
1331.47754	40514.2
1334.97747	38993.1
1338.47502	38109.1
1341.97022	37447.3
1345.46305	37003.5
1348.95352	37566.2
1352.44163	39685.9
1355.92738	43961.3
1359.41078	49866.3
1362.89183	55052.1
1366.37053	54979.9
1369.84688	48354.5
1373.32088	39877.7
1376.79254	34772.5
1380.26186	33052.1
1383.72883	32405
1387.19347	31547.1
1390.65578	30577.3
1394.11575	30273
1397.57339	30733.4
1401.0287	31370.3
1404.48168	31759.6
1407.93234	31481
1411.38068	30830.3
1414.82669	29903.6
1418.27039	28773.1
1421.71177	27515.8
1425.15083	26386.5
1428.58758	26009.7
1432.02203	26587
1435.45416	27617
1438.88399	28436.5
1442.31151	28700
1445.73673	28846.6
1449.15965	28930.4
1452.58027	28605.5
1455.9986	27953.1
1459.41463	27616.9
1462.82837	28132.5
1466.23982	29174.7
1469.64898	30311.1
1473.05586	31235.5
1476.46045	31870.6
1479.86276	32318.4
1483.26279	32615.4
1486.66054	32959.4
1490.05602	33722.5
1493.44922	34645.3
1496.84016	35153.2
1500.22882	35429.8
1503.61521	36307.9
1506.99934	37809.8
1510.38121	39176.6
1513.76081	39164.6
1517.13816	37331.2
1520.51324	34584.1
1523.88607	32461.1
1527.25665	31686
1530.62498	31618.4
1533.99105	31484.7
1537.35488	30925.9
1540.71647	29916.9
1544.07581	28754.7
1547.4329	27469.8
1550.78776	26335.6
1554.14038	25372.5
1557.49077	24810.7
1560.83892	24646.4
1564.18484	24924.1
1567.52853	25586.2
1570.86999	26422.8
1574.20922	27186.2
1577.54624	27552.1
1580.88103	27074.2
1584.2136	26570.8
1587.54395	27286.8
1590.87208	29601.9
1594.19801	33169.9
1597.52172	37053.3
1600.84321	38837.3
1604.16251	36967.4
1607.47959	32374
1610.79447	27267.1
1614.10715	23178.5
1617.41763	20455.4
1620.7259	19023.9
1624.03199	18535.9
1627.33587	18747.8
1630.63757	19796.6
1633.93707	21933.3
1637.23439	25813.6
1640.52951	32056.4
1643.82246	40156.8
1647.11321	47094.9
1650.40179	48351.6
1653.68819	42747.8
1656.97241	33796.3
1660.25446	25958.3
1663.53433	20731.9
1666.81203	17758.3
1670.08756	16105.7
1673.36092	15101.9
1676.63211	14494.3
1679.90115	14103.6
1683.16801	13778.5
1686.43272	13530.7
1689.69527	13350.2
1692.95567	13231.8
1696.2139	13138.3
1699.46999	13059.4
1702.72392	12981.6
1705.97571	12932.3
1709.22535	12923.9
1712.47284	12889.8
1715.71819	12885.7
1718.96139	12806.8
1722.20246	12767.7
1725.44139	12666.5
1728.67818	12536.3
1731.91284	12463.3
1735.14537	12331.4
1738.37576	12262.9
1741.60403	12198.4
1744.83017	12173.9
1748.05418	12101
1751.27607	12064.5
1754.49584	12042.3
1757.71349	12002.1
1760.92903	12003.1
1764.14244	11982.9
1767.35375	11959.2
1770.56294	11912.9
1773.77002	11881.9
1776.97499	11865.7
1780.17785	11816.1
1783.37861	11810.6
1786.57727	11772.4
1789.77382	11709.2
1792.96828	11721.1
1796.16064	11691.8
1799.3509	11664.5
1802.53907	11623.3
1805.72514	11594.4
1808.90913	11549.8
1812.09102	11513.5
1815.27083	11492.4
1818.44856	11491.8
1821.6242	11431.7
1824.79776	11414.5
1827.96924	11416.8
1831.13864	11385.3
1834.30597	11385
1837.47122	11369.6
1840.6344	11369.7
1843.7955	11337.4
1846.95454	11331.7
1850.11151	11339.8
1853.26642	11322.3
1856.41926	11327.8
1859.57004	11306.9
1862.71876	11299.4
1865.86542	11292.9
1869.01003	11309.6
1872.15258	11295.3
1875.29308	11310.2
1878.43152	11329.7
1881.56792	11322.4
1884.70227	11356.9
1887.83457	11330
1890.96482	11354.7
1894.09304	11331.5
1897.21921	11356.2
1900.34335	11337.5
1903.46544	11364.7
1906.58551	11340.8
1909.70353	11323
1912.81953	11295
1915.93349	11293.4
1919.04543	11277.7
1922.15534	11206.5
1925.26322	11161.1
1928.36908	11156.2
1931.47292	11126
1934.57473	11064.2
1937.67453	11068
1940.77232	11014.4
1943.86808	10969.9
1946.96184	10963.9
1950.05358	10930.4
1953.14331	10902.9
1956.23103	10877
1959.31675	10828.1
1962.40046	10815.3
1965.48217	10780.8
1968.56188	10749.6
1971.63959	10747.4
1974.7153	10698.9
1977.78901	10670.7
1980.86073	10618.3
1983.93046	10588.3
1986.99819	10519.3
1990.06394	10488.7
1993.1277	10448.7
1996.18947	10420.3
1999.24925	10390.1
2002.30706	10371.4
2005.36288	10346.5
2008.41672	10305.6
2011.46859	10274.9
2014.51848	10234.1
2017.56639	10206.8
2020.61233	10185.7
2023.6563	10174.8
2026.6983	10128.7
2029.73833	10100.9
2032.7764	10078.7
2035.8125	10053.8
2038.84664	10075.3
2041.87881	10040.9
2044.90903	10025.2
2047.93729	10018.2
2050.96359	9998.3
2053.98794	9971.7
2057.01034	9969.5
2060.03078	9968.1
2063.04927	9973.9
2066.06582	9970.3
2069.08042	9941.4
2072.09307	9936.8
2075.10378	9919.9
2078.11255	9943.3
2081.11938	9959.3
2084.12426	9951.8
2087.12722	9930.4
2090.12824	9956.9
2093.12732	9976.4
2096.12447	9978.6
2099.11969	9975.7
2102.11299	9994.1
2105.10435	9978.6
2108.09379	9959
2111.08131	9953.8
2114.0669	9970.9
2117.05057	9950.9
2120.03233	9934.2
2123.01216	9927.4
2125.99008	9898
2128.96609	9936.1
2131.94018	9929.1
2134.91236	9910.9
2137.88263	9936.6
2140.851	9909.9
2143.81746	9919.4
2146.78201	9891.1
2149.74466	9899
2152.7054	9896.9
2155.66425	9866.8
2158.6212	9861.9
2161.57625	9856.2
2164.52941	9813.3
2167.48067	9804.6
2170.43004	9840.5
2173.37752	9814.9
2176.32311	9804.8
2179.26681	9825.7
2182.20863	9817.3
2185.14856	9841.4
2188.08661	9832.2
2191.02278	9835.8
2193.95707	9836.1
2196.88948	9800.6
2199.82001	9815.1
2202.74867	9774.5
2205.67545	9769.4
2208.60037	9741.9
2211.52341	9737.3
2214.44458	9742.2
2217.36388	9684.5
2220.28132	9678.8
2223.1969	9660.4
2226.11061	9650.4
2229.02246	9623.6
2231.93245	9633.6
2234.84058	9623.1
2237.74686	9606.1
2240.65128	9625.7
2243.55385	9612.4
2246.45456	9582.8
2249.35343	9576.8
2252.25044	9534.3
2255.14561	9516
2258.03893	9509.3
2260.93041	9463.9
2263.82004	9459.2
2266.70783	9431.5
2269.59378	9410.5
2272.4779	9370.9
2275.36017	9361.5
2278.24061	9346
2281.11922	9333.1
2283.996	9309.6
2286.87094	9282.3
2289.74405	9269.7
2292.61534	9268.3
2295.4848	9257.9
2298.35243	9264.4
2301.21824	9276
2304.08223	9256.5
2306.94439	9258.5
2309.80474	9252.1
2312.66327	9280.4
2315.51999	9242.4
2318.37489	9261.9
2321.22797	9243.7
2324.07925	9209.4
2326.92871	9206.4
2329.77637	9204.2
2332.62222	9176.5
2335.46626	9180.7
2338.3085	9197.1
2341.14893	9183
2343.98756	9187.7
2346.8244	9210.8
2349.65943	9197.1
2352.49267	9192.7
2355.32411	9199.4
2358.15376	9207.9
2360.98161	9206.2
2363.80768	9170.3
2366.63195	9199.5
2369.45444	9212.8
2372.27514	9197.3
2375.09405	9179.1
2377.91118	9171.7
2380.72652	9143.2
2383.54009	9122.9
2386.35187	9125.1
2389.16188	9055
2391.97011	9059.6
2394.77657	9042.8
2397.58125	9019.7
2400.38416	9022
2403.18529	8978.4
2405.98466	8989
2408.78226	8964.5
2411.57809	8941
2414.37216	8959.4
2417.16446	8918.1
2419.955	8906.6
2422.74378	8918.5
2425.5308	8912.4
2428.31606	8923.4
2431.09956	8910.6
2433.88131	8907.6
2436.6613	8887
2439.43954	8895.8
2442.21603	8914.5
2444.99077	8909.6
2447.76377	8927.5
2450.53501	8915.6
2453.30451	8941.6
2456.07226	8925.9
2458.83827	8932.7
2461.60254	8949.5
2464.36507	8971.9
2467.12586	8940.5
2469.88492	8970.3
2472.64224	8929.1
2475.39782	8957.3
2478.15167	8955.8
2480.90379	8957.9
2483.65417	8993.4
2486.40283	8988
2489.14976	9016.1
2491.89497	8996.9
2494.63845	9025.9
2497.3802	9012.3
2500.12024	8999.6
2502.85855	9031.8
2505.59514	9018.5
2508.33002	8964.1
2511.06318	8961.6
2513.79462	8937.3
2516.52435	8909.6
2519.25237	8919.3
2521.97867	8905.8
2524.70327	8913.7
2527.42616	8896.7
2530.14734	8903.9
2532.86681	8883.4
2535.58458	8882.1
2538.30065	8881.5
2541.01501	8893.3
2543.72768	8892.4
2546.43864	8894.7
2549.14791	8884.7
2551.85548	8880
2554.56136	8907.8
2557.26554	8863.7
2559.96803	8888.9
2562.66883	8857.7
2565.36794	8892
2568.06536	8867.8
2570.7611	8873.4
2573.45514	8861.7
2576.14751	8858.7
2578.83819	8860
2581.52719	8848.2
2584.21451	8857.2
2586.90015	8852.7
2589.58411	8839.1
2592.2664	8836.7
2594.94701	8811.8
2597.62594	8824.2
2600.30321	8794.9
2602.9788	8819.8
2605.65273	8805.2
2608.32498	8834.1
2610.99557	8827.2
2613.66449	8827.8
2616.33175	8839.7
2618.99734	8851.1
2621.66128	8850.8
2624.32355	8822.9
2626.98416	8821.8
2629.64311	8792.2
2632.30041	8814.7
2634.95605	8799.7
2637.61004	8779.3
2640.26238	8783.4
2642.91306	8773.2
2645.56209	8779.1
2648.20948	8779.9
2650.85521	8799
2653.4993	8792
2656.14175	8817.1
2658.78255	8848.5
2661.42171	8855.8
2664.05923	8866.5
2666.6951	8845.1
2669.32934	8872.4
2671.96194	8873.5
2674.59291	8874
2677.22224	8884.5
2679.84993	8874.7
2682.476	8866.5
2685.10043	8861.6
2687.72324	8853.2
2690.34441	8869.9
2692.96396	8851.8
2695.58188	8847.1
2698.19818	8835.4
2700.81285	8835.1
2703.4259	8858.4
2706.03733	8856.4
2708.64714	8855.8
2711.25533	8903.4
2713.86191	8870.2
2716.46687	8886.2
2719.07021	8915.1
2721.67194	8926.7
2724.27206	8907.4
2726.87057	8914.9
2729.46747	8925.7
2732.06276	8917.8
2734.65644	8911.4
2737.24852	8931.6
2739.83899	8896.4
2742.42786	8916.5
2745.01513	8888.4
2747.60079	8908.1
2750.18486	8876.6
2752.76733	8910.9
2755.3482	8892.1
2757.92747	8926.3
2760.50515	8916.9
2763.08123	8914.7
2765.65573	8881.5
2768.22863	8907.4
2770.79994	8890.7
2773.36967	8924.9
2775.9378	8916.1
2778.50435	8903.5
2781.06932	8884.1
2783.6327	8913.9
2786.1945	8907.5
2788.75471	8913
2791.31335	8895.7
2793.87041	8893.3
2796.42589	8879.6
2798.97979	8888.4
2801.53212	8847.6
2804.08288	8850.1
2806.63206	8845.5
2809.17967	8825.8
2811.72571	8805.7
2814.27018	8841.3
2816.81308	8809.8
2819.35442	8837.7
2821.89419	8812
2824.43239	8810.2
2826.96904	8831.4
2829.50412	8851.7
2832.03763	8817.3
2834.56959	8826.1
2837.1	8809.2
2839.62884	8774.6
2842.15613	8769.5
2844.68186	8788.4
2847.20604	8773.3
2849.72867	8784.5
2852.24974	8815.1
2854.76927	8805.8
2857.28724	8773.4
2859.80367	8814.6
2862.31855	8793.9
2864.83189	8782.3
2867.34368	8793.4
2869.85393	8775.2
2872.36264	8772.3
2874.8698	8773
2877.37543	8795.9
2879.87952	8788.4
2882.38207	8763.6
2884.88308	8778.4
2887.38256	8794.8
2889.88051	8787.6
2892.37692	8792.3
2894.8718	8783.8
2897.36515	8782.3
2899.85698	8778.2
2902.34727	8796.9
2904.83604	8791.5
2907.32328	8835
2909.809	8825.7
2912.29319	8808.5
2914.77587	8789.2
2917.25702	8809.6
2919.73665	8757.1
2922.21476	8818
2924.69136	8767.1
2927.16644	8788.5
2929.64	8757
2932.11205	8734.5
2934.58258	8705.1
2937.05161	8715.5
2939.51912	8719
2941.98513	8703.2
2944.44962	8691
2946.91261	8632.5
2949.37409	8693.7
2951.83407	8672.3
2954.29254	8668
2956.74951	8681.1
2959.20498	8665.3
2961.65895	8632
2964.11142	8634.3
2966.56239	8596.6
2969.01186	8561.2
2971.45984	8532.2
2973.90632	8505.2
2976.35131	8492.7
2978.7948	8436.3
2981.23681	8426.7
2983.67732	8385.9
2986.11635	8370.7
2988.55388	8363.2
2990.98993	8347.1
2993.4245	8321
2995.85758	8317.3
2998.28917	8287.1
3000.71928	8283.4
3003.14791	8275.5
3005.57506	8271.2
3008.00073	8238.9
3010.42493	8222.1
3012.84764	8185.8
3015.26888	8199.9
3017.68865	8170.3
3020.10694	8154.5
3022.52376	8116.1
3024.9391	8099.5
3027.35298	8092.2
3029.76539	8088.3
3032.17632	8058.3
3034.5858	8051
3036.9938	8035
3039.40034	8040.6
3041.80542	8018.5
3044.20903	7995.6
3046.61118	8022.8
3049.01187	7988.8
3051.4111	7986.9
3053.80888	7966.2
3056.20519	7928.3
3058.60005	7912.3
3060.99345	7913.9
3063.3854	7892.5
3065.7759	7846.8
3068.16494	7845.2
3070.55254	7830.4
3072.93868	7796.2
3075.32338	7770.6
3077.70662	7760.7
3080.08842	7758.8
3082.46878	7747.2
3084.84769	7731.5
3087.22515	7720.6
3089.60118	7730.2
3091.97576	7718
3094.3489	7699.2
3096.72061	7693.4
3099.09087	7692.9
3101.4597	7662.9
3103.82709	7649.4
3106.19305	7615.8
3108.55757	7606.1
3110.92066	7566.7
3113.28232	7566.6
3115.64255	7536.6
3118.00134	7528.5
3120.35871	7499.9
3122.71466	7490.7
3125.06917	7491.6
3127.42226	7476.8
3129.77393	7487.3
3132.12417	7504.2
3134.47299	7479.2
3136.82039	7511
3139.16636	7510.7
3141.51092	7511.6
3143.85406	7474.9
3146.19579	7442
3148.53609	7455.4
3150.87499	7444.9
3153.21246	7451.9
3155.54853	7443.7
3157.88318	7425.8
3160.21642	7443.1
3162.54826	7433
3164.87868	7421
3167.2077	7398.7
3169.5353	7385.4
3171.86151	7380.3
3174.18631	7388.5
3176.5097	7391.2
3178.83169	7384.3
3181.15228	7386.4
3183.47147	7369
3185.78926	7360
3188.10565	7365
3190.42065	7370.9
3192.73424	7376.1
3195.04645	7362.4
3197.35725	7383.8
3199.66667	7360.9
3201.97469	7388.3
3204.28132	7347
3206.58656	7353.9
3208.8904	7347.6
3211.19287	7341.9
3213.49394	7331.9
3215.79363	7323.7
3218.09193	7347.8
3220.38884	7343.1
3222.68438	7327.4
3224.97853	7327.8
3227.2713	7314.5
3229.56269	7319.9
3231.8527	7329.9
3234.14133	7314.6
3236.42858	7279
3238.71446	7303
3240.99896	7289.9
3243.28209	7298
3245.56384	7259
3247.84423	7305
3250.12324	7262.2
3252.40088	7265.2
3254.67715	7259.4
3256.95205	7244.2
3259.22558	7219.5
3261.49775	7188
3263.76855	7175.3
3266.03799	7156.3
3268.30606	7155.9
3270.57277	7131
3272.83812	7124.3
3275.10211	7123.5
3277.36474	7130
3279.62601	7133.5
3281.88593	7135.2
3284.14448	7150.8
3286.40168	7131.9
3288.65753	7171
3290.91202	7138.5
3293.16516	7115.9
3295.41695	7121.5
3297.66738	7065.1
3299.91647	7040.8
3302.16421	6997.6
3304.4106	6968.4
3306.65564	6935.5
3308.89933	6892.4
3311.14169	6858.5
3313.38269	6787.6
3315.62236	6766.7
3317.86068	6684.1
3320.09766	6622.9
3322.3333	6545.4
3324.5676	6557
3326.80056	6442.6
3329.03219	6415.3
3331.26248	2.9
3333.49143	-2
3335.71905	1.8
