Data from AgNP_FTO_APTES_UA_100uM_CRN_100uM_R6G_10uM_NaF_0.1M_Addition_RamanShift__7__17-55-40-572.txt Node

Date: Thu Mar 24 17:55:40 GMT 2022
User: TCL
Spectrometer: QEP01345
Trigger mode: 4
Integration Time (sec): 7.000000E0
Scans to average: 10
Electric dark correction enabled: true
Nonlinearity correction enabled: false
Boxcar width: 0
XAxis mode: Raman Shifts
Number of Pixels in Spectrum: 1044
>>>>>Begin Spectral Data<<<<<
46.04893	-0.6125
50.45542	-0.4125
54.85868	-0.0125
59.25871	0.7875
63.6555	33.0875
68.04907	38.7875
72.43941	37.8875
76.82654	38.6875
81.21044	42.0875
85.59113	45.5875
89.96862	45.1875
94.34289	45.3875
98.71396	47.6875
103.08183	45.8875
107.4465	49.8875
111.80798	52.5875
116.16626	49.0875
120.52136	51.0875
124.87327	51.0875
129.222	53.4875
133.56755	61.3875
137.90993	58.3875
142.24913	65.7875
146.58517	73.0875
150.91804	81.3875
155.24774	93.5875
159.57429	117.0875
163.89768	146.7875
168.21792	193.5875
172.53501	263.4875
176.84895	362.6875
181.15975	513.4875
185.46741	711.7875
189.77193	990.9875
194.07331	1326.6875
198.37157	1712.9875
202.6667	2123.7875
206.9587	2518.0875
211.24758	2937.0875
215.53334	3365.6875
219.81599	3810.3875
224.09553	4313.3875
228.37195	4890.0875
232.64527	5487.5875
236.91549	6099.8875
241.18261	6718.2875
245.44663	7239.6875
249.70755	7662.3875
253.96539	8022.5875
258.22014	8298.8875
262.4718	8600.2875
266.72039	8765.2875
270.96589	8852.3875
275.20832	8807.6875
279.44768	8742.2875
283.68397	8591.6875
287.91719	8547.0875
292.14735	8502.2875
296.37445	8585.5875
300.59849	8722.0875
304.81948	8965.9875
309.03742	9131.3875
313.25231	9147.7875
317.46415	8905.1875
321.67296	8541.1875
325.87872	8191.4875
330.08145	8009.3875
334.28114	8010.5875
338.47781	8105.1875
342.67145	8232.0875
346.86207	8449.4875
351.04966	8683.9875
355.23424	8954.1875
359.4158	9172.5875
363.59435	9302.0875
367.76989	9315.9875
371.94243	9319.8875
376.11196	9308.1875
380.27849	9290.7875
384.44203	9287.2875
388.60257	9268.1875
392.76012	9294.7875
396.91468	9393.6875
401.06626	9569.5875
405.21485	9685.4875
409.36047	9574.6875
413.50311	9268.1875
417.64277	8996.0875
421.77947	8818.2875
425.9132	8772.3875
430.04396	8782.3875
434.17176	8822.2875
438.2966	8911.4875
442.41849	9103.5875
446.53742	9313.4875
450.6534	9514.3875
454.76644	9639.4875
458.87653	9656.9875
462.98368	9593.8875
467.08789	9496.1875
471.18916	9368.6875
475.2875	9240.5875
479.38291	9129.8875
483.4754	9011.2875
487.56496	8937.5875
491.6516	8868.6875
495.73531	8794.1875
499.81612	8801.9875
503.89401	8862.1875
507.96899	8885.8875
512.04106	8939.7875
516.11023	8935.5875
520.1765	8944.3875
524.23987	8935.3875
528.30034	8902.2875
532.35792	8838.6875
536.41261	8724.9875
540.46441	8593.2875
544.51333	8529.5875
548.55936	8630.2875
552.60252	8762.1875
556.64279	8979.6875
560.6802	9090.2875
564.71473	9167.4875
568.7464	9353.4875
572.7752	9577.0875
576.80114	9687.8875
580.82422	9748.3875
584.84444	9933.6875
588.86181	10156.3875
592.87633	10340.9875
596.888	10485.3875
600.89682	10452.5875
604.9028	10856.1875
608.90594	12406.4875
612.90624	14541.2875
616.90371	13780.0875
620.89834	10577.6875
624.89015	9086.1875
628.87913	8838.7875
632.86528	9021.1875
636.84862	9192.0875
640.82913	9109.8875
644.80683	8756.7875
648.78172	8457.5875
652.75379	8404.2875
656.72306	8573.6875
660.68952	8819.9875
664.65319	8767.5875
668.61405	8448.2875
672.57211	8302.8875
676.52738	8335.6875
680.47986	8299.4875
684.42955	8243.1875
688.37646	8173.8875
692.32058	8196.8875
696.26192	8267.8875
700.20048	8345.2875
704.13626	8441.2875
708.06928	8429.4875
711.99952	8415.4875
715.927	8404.5875
719.85171	8421.1875
723.77365	8443.7875
727.69284	8389.2875
731.60928	8343.8875
735.52295	8317.0875
739.43388	8340.8875
743.34206	8346.5875
747.24749	8384.8875
751.15017	8401.0875
755.05012	8499.6875
758.94733	8823.3875
762.8418	9530.8875
766.73354	10805.3875
770.62254	12012.4875
774.50882	12401.2875
778.39237	11792.9875
782.27321	10582.9875
786.15132	9418.7875
790.02671	8689.2875
793.89938	8347.7875
797.76935	8188.4875
801.6366	8120.5875
805.50115	8075.4875
809.36299	8044.8875
813.22213	8036.1875
817.07857	8008.1875
820.93231	7989.9875
824.78336	7962.8875
828.63172	7964.4875
832.47738	7959.2875
836.32036	7932.5875
840.16066	7901.4875
843.99827	7871.2875
847.8332	7853.6875
851.66546	7858.3875
855.49504	7870.5875
859.32195	7850.8875
863.1462	7853.3875
866.96777	7831.4875
870.78668	7856.7875
874.60293	7853.2875
878.41652	7867.9875
882.22745	7913.5875
886.03573	7956.2875
889.84136	7972.8875
893.64433	7929.8875
897.44466	7892.5875
901.24235	7860.9875
905.0374	7831.1875
908.8298	7783.2875
912.61957	7748.2875
916.40671	7761.7875
920.19121	7833.0875
923.97308	7908.3875
927.75233	7950.6875
931.52895	7932.7875
935.30295	7820.8875
939.07433	7655.7875
942.84309	7489.5875
946.60924	7402.3875
950.37278	7368.5875
954.13371	7349.6875
957.89203	7339.6875
961.64774	7330.3875
965.40086	7335.4875
969.15137	7308.6875
972.89929	7271.9875
976.64461	7260.8875
980.38733	7252.6875
984.12747	7238.2875
987.86502	7253.3875
991.59999	7313.1875
995.33237	7350.8875
999.06217	7487.9875
1002.78939	7630.4875
1006.51404	7780.1875
1010.23611	7954.0875
1013.95561	8031.4875
1017.67255	7992.3875
1021.38692	7898.4875
1025.09872	7747.7875
1028.80796	7598.8875
1032.51465	7576.5875
1036.21877	7565.6875
1039.92035	7629.0875
1043.61937	7664.7875
1047.31584	7694.7875
1051.00976	7745.2875
1054.70114	7778.1875
1058.38998	7769.9875
1062.07627	7841.1875
1065.76003	7899.8875
1069.44126	8009.4875
1073.11995	8130.8875
1076.79611	8294.3875
1080.46974	8395.0875
1084.14085	8525.4875
1087.80943	8654.5875
1091.47549	8718.9875
1095.13903	8662.9875
1098.80005	8455.6875
1102.45857	8253.3875
1106.11456	8108.5875
1109.76805	8092.2875
1113.41903	8180.8875
1117.06751	8349.8875
1120.71348	8614.0875
1124.35696	8887.0875
1127.99793	9158.0875
1131.63641	9154.3875
1135.2724	8919.2875
1138.90589	8654.9875
1142.5369	8484.0875
1146.16542	8406.6875
1149.79145	8327.8875
1153.415	8328.3875
1157.03607	8365.8875
1160.65467	8536.8875
1164.27079	8860.6875
1167.88443	9338.9875
1171.49561	10033.8875
1175.10432	11033.6875
1178.71056	12323.0875
1182.31434	13414.4875
1185.91565	13714.1875
1189.51451	13390.6875
1193.11091	12755.5875
1196.70485	12020.5875
1200.29634	11349.3875
1203.88538	10828.6875
1207.47197	10266.4875
1211.05612	9783.6875
1214.63782	9475.9875
1218.21708	9301.2875
1221.79391	9280.8875
1225.36829	9264.9875
1228.94024	9206.6875
1232.50976	9099.4875
1236.07685	8983.3875
1239.6415	8922.9875
1243.20374	8909.4875
1246.76355	8947.7875
1250.32093	8993.0875
1253.8759	9141.6875
1257.42845	9367.7875
1260.97859	9671.3875
1264.52631	9978.2875
1268.07163	10308.2875
1271.61453	10581.4875
1275.15503	10831.1875
1278.69312	11010.2875
1282.22882	11264.8875
1285.76211	11624.7875
1289.29301	12057.7875
1292.82151	12560.8875
1296.34761	13110.4875
1299.87133	13903.4875
1303.39266	14930.7875
1306.9116	16266.1875
1310.42815	17563.4875
1313.94233	18150.2875
1317.45412	17728.4875
1320.96354	16785.6875
1324.47058	15817.1875
1327.97525	14942.0875
1331.47754	14318.4875
1334.97747	13974.2875
1338.47502	13887.8875
1341.97022	14010.0875
1345.46305	14302.6875
1348.95352	14861.5875
1352.44163	15620.1875
1355.92738	16826.8875
1359.41078	18625.5875
1362.89183	20333.2875
1366.37053	20011.4875
1369.84688	17461.3875
1373.32088	14708.4875
1376.79254	13030.1875
1380.26186	12168.9875
1383.72883	11689.6875
1387.19347	11317.3875
1390.65578	10966.7875
1394.11575	10773.2875
1397.57339	10660.7875
1401.0287	10666.9875
1404.48168	10698.1875
1407.93234	10637.8875
1411.38068	10507.2875
1414.82669	10329.2875
1418.27039	10085.9875
1421.71177	9793.8875
1425.15083	9530.1875
1428.58758	9376.3875
1432.02203	9402.4875
1435.45416	9565.4875
1438.88399	9694.2875
1442.31151	9793.6875
1445.73673	9911.0875
1449.15965	10013.6875
1452.58027	10043.9875
1455.9986	10067.0875
1459.41463	10087.1875
1462.82837	10277.2875
1466.23982	10552.2875
1469.64898	10863.2875
1473.05586	11118.6875
1476.46045	11295.5875
1479.86276	11425.0875
1483.26279	11570.5875
1486.66054	11828.9875
1490.05602	12185.7875
1493.44922	12756.4875
1496.84016	13553.9875
1500.22882	14717.2875
1503.61521	16265.8875
1506.99934	17910.3875
1510.38121	18969.2875
1513.76081	18868.3875
1517.13816	17460.4875
1520.51324	15485.8875
1523.88607	13873.4875
1527.25665	12891.5875
1530.62498	12315.4875
1533.99105	11935.9875
1537.35488	11649.6875
1540.71647	11328.2875
1544.07581	11026.7875
1547.4329	10784.9875
1550.78776	10577.8875
1554.14038	10451.8875
1557.49077	10477.5875
1560.83892	10614.3875
1564.18484	10870.7875
1567.52853	11279.4875
1570.86999	11617.2875
1574.20922	11872.5875
1577.54624	11837.4875
1580.88103	11366.8875
1584.2136	10759.4875
1587.54395	10477.3875
1590.87208	10651.3875
1594.19801	11182.5875
1597.52172	11849.9875
1600.84321	12102.2875
1604.16251	11694.5875
1607.47959	10926.8875
1610.79447	10155.4875
1614.10715	9428.9875
1617.41763	8813.7875
1620.7259	8402.3875
1624.03199	8162.8875
1627.33587	8155.7875
1630.63757	8322.8875
1633.93707	8757.1875
1637.23439	9581.6875
1640.52951	10918.8875
1643.82246	12763.4875
1647.11321	14651.1875
1650.40179	15596.2875
1653.68819	14939.0875
1656.97241	12918.4875
1660.25446	10740.9875
1663.53433	9122.1875
1666.81203	8111.5875
1670.08756	7521.8875
1673.36092	7181.6875
1676.63211	6956.6875
1679.90115	6774.8875
1683.16801	6675.7875
1686.43272	6564.5875
1689.69527	6470.7875
1692.95567	6425.2875
1696.2139	6382.9875
1699.46999	6333.9875
1702.72392	6292.4875
1705.97571	6264.1875
1709.22535	6241.4875
1712.47284	6227.0875
1715.71819	6198.8875
1718.96139	6156.3875
1722.20246	6134.5875
1725.44139	6109.5875
1728.67818	6051.0875
1731.91284	5990.1875
1735.14537	5967.9875
1738.37576	5936.7875
1741.60403	5894.1875
1744.83017	5855.1875
1748.05418	5851.0875
1751.27607	5828.6875
1754.49584	5806.7875
1757.71349	5802.4875
1760.92903	5785.1875
1764.14244	5784.9875
1767.35375	5759.5875
1770.56294	5753.4875
1773.77002	5722.0875
1776.97499	5697.1875
1780.17785	5685.0875
1783.37861	5667.5875
1786.57727	5650.0875
1789.77382	5651.2875
1792.96828	5634.8875
1796.16064	5611.8875
1799.3509	5595.8875
1802.53907	5571.8875
1805.72514	5568.1875
1808.90913	5536.2875
1812.09102	5526.9875
1815.27083	5521.1875
1818.44856	5502.0875
1821.6242	5509.8875
1824.79776	5471.0875
1827.96924	5463.8875
1831.13864	5468.5875
1834.30597	5449.0875
1837.47122	5424.6875
1840.6344	5422.1875
1843.7955	5404.5875
1846.95454	5411.9875
1850.11151	5395.1875
1853.26642	5386.6875
1856.41926	5372.9875
1859.57004	5373.8875
1862.71876	5363.4875
1865.86542	5348.3875
1869.01003	5351.0875
1872.15258	5341.6875
1875.29308	5346.4875
1878.43152	5341.7875
1881.56792	5338.7875
1884.70227	5323.1875
1887.83457	5303.3875
1890.96482	5306.6875
1894.09304	5305.0875
1897.21921	5295.3875
1900.34335	5283.3875
1903.46544	5273.9875
1906.58551	5267.5875
1909.70353	5266.1875
1912.81953	5244.1875
1915.93349	5230.5875
1919.04543	5242.3875
1922.15534	5207.9875
1925.26322	5197.7875
1928.36908	5177.1875
1931.47292	5153.4875
1934.57473	5148.1875
1937.67453	5128.2875
1940.77232	5134.4875
1943.86808	5106.1875
1946.96184	5085.8875
1950.05358	5050.4875
1953.14331	5046.3875
1956.23103	5031.8875
1959.31675	5004.2875
1962.40046	4992.1875
1965.48217	4988.3875
1968.56188	4964.1875
1971.63959	4951.4875
1974.7153	4949.1875
1977.78901	4923.6875
1980.86073	4913.4875
1983.93046	4887.3875
1986.99819	4848.0875
1990.06394	4853.3875
1993.1277	4839.4875
1996.18947	4805.8875
1999.24925	4800.3875
2002.30706	4771.9875
2005.36288	4757.5875
2008.41672	4726.6875
2011.46859	4729.9875
2014.51848	4703.6875
2017.56639	4700.2875
2020.61233	4675.2875
2023.6563	4686.4875
2026.6983	4661.5875
2029.73833	4635.0875
2032.7764	4623.1875
2035.8125	4597.1875
2038.84664	4597.1875
2041.87881	4583.9875
2044.90903	4587.3875
2047.93729	4564.3875
2050.96359	4552.6875
2053.98794	4535.8875
2057.01034	4538.3875
2060.03078	4534.3875
2063.04927	4507.9875
2066.06582	4512.4875
2069.08042	4509.0875
2072.09307	4512.9875
2075.10378	4503.4875
2078.11255	4493.3875
2081.11938	4495.9875
2084.12426	4510.0875
2087.12722	4491.4875
2090.12824	4480.4875
2093.12732	4488.5875
2096.12447	4495.2875
2099.11969	4485.6875
2102.11299	4479.6875
2105.10435	4484.6875
2108.09379	4476.1875
2111.08131	4498.5875
2114.0669	4494.0875
2117.05057	4499.8875
2120.03233	4501.9875
2123.01216	4496.2875
2125.99008	4490.5875
2128.96609	4498.0875
2131.94018	4498.8875
2134.91236	4491.8875
2137.88263	4488.9875
2140.851	4486.4875
2143.81746	4487.5875
2146.78201	4481.3875
2149.74466	4484.9875
2152.7054	4480.1875
2155.66425	4459.2875
2158.6212	4448.4875
2161.57625	4466.1875
2164.52941	4462.1875
2167.48067	4457.3875
2170.43004	4442.8875
2173.37752	4437.2875
2176.32311	4434.8875
2179.26681	4424.3875
2182.20863	4441.9875
2185.14856	4422.3875
2188.08661	4419.0875
2191.02278	4413.0875
2193.95707	4412.3875
2196.88948	4413.4875
2199.82001	4419.6875
2202.74867	4411.7875
2205.67545	4411.4875
2208.60037	4389.6875
2211.52341	4365.5875
2214.44458	4372.8875
2217.36388	4351.1875
2220.28132	4343.4875
2223.1969	4337.8875
2226.11061	4322.5875
2229.02246	4313.7875
2231.93245	4311.4875
2234.84058	4307.7875
2237.74686	4298.7875
2240.65128	4286.9875
2243.55385	4281.1875
2246.45456	4279.3875
2249.35343	4252.1875
2252.25044	4268.6875
2255.14561	4256.1875
2258.03893	4250.4875
2260.93041	4236.1875
2263.82004	4237.1875
2266.70783	4215.7875
2269.59378	4215.8875
2272.4779	4209.0875
2275.36017	4200.2875
2278.24061	4173.8875
2281.11922	4180.3875
2283.996	4160.4875
2286.87094	4149.6875
2289.74405	4136.8875
2292.61534	4135.3875
2295.4848	4118.0875
2298.35243	4121.4875
2301.21824	4106.4875
2304.08223	4111.8875
2306.94439	4108.4875
2309.80474	4107.8875
2312.66327	4101.7875
2315.51999	4078.8875
2318.37489	4072.6875
2321.22797	4079.5875
2324.07925	4075.3875
2326.92871	4074.8875
2329.77637	4076.0875
2332.62222	4066.1875
2335.46626	4036.2875
2338.3085	4033.4875
2341.14893	4046.5875
2343.98756	4039.4875
2346.8244	4053.1875
2349.65943	4031.9875
2352.49267	4053.6875
2355.32411	4041.4875
2358.15376	4058.2875
2360.98161	4050.9875
2363.80768	4043.6875
2366.63195	4055.2875
2369.45444	4051.8875
2372.27514	4053.3875
2375.09405	4045.4875
2377.91118	4044.2875
2380.72652	4014.8875
2383.54009	3992.9875
2386.35187	4009.1875
2389.16188	3984.4875
2391.97011	3969.9875
2394.77657	3946.5875
2397.58125	3928.4875
2400.38416	3936.5875
2403.18529	3917.3875
2405.98466	3925.3875
2408.78226	3904.4875
2411.57809	3889.4875
2414.37216	3882.9875
2417.16446	3864.1875
2419.955	3884.7875
2422.74378	3879.6875
2425.5308	3873.2875
2428.31606	3861.6875
2431.09956	3872.5875
2433.88131	3864.6875
2436.6613	3867.5875
2439.43954	3863.8875
2442.21603	3853.8875
2444.99077	3843.7875
2447.76377	3866.3875
2450.53501	3843.8875
2453.30451	3847.4875
2456.07226	3851.8875
2458.83827	3852.3875
2461.60254	3856.6875
2464.36507	3833.9875
2467.12586	3845.9875
2469.88492	3841.9875
2472.64224	3825.8875
2475.39782	3851.2875
2478.15167	3838.3875
2480.90379	3860.4875
2483.65417	3851.8875
2486.40283	3862.6875
2489.14976	3863.7875
2491.89497	3855.9875
2494.63845	3871.6875
2497.3802	3853.0875
2500.12024	3853.8875
2502.85855	3836.4875
2505.59514	3835.2875
2508.33002	3807.6875
2511.06318	3802.6875
2513.79462	3784.5875
2516.52435	3778.2875
2519.25237	3754.6875
2521.97867	3755.0875
2524.70327	3745.4875
2527.42616	3748.3875
2530.14734	3733.3875
2532.86681	3732.2875
2535.58458	3730.8875
2538.30065	3731.2875
2541.01501	3718.9875
2543.72768	3722.5875
2546.43864	3722.1875
2549.14791	3713.4875
2551.85548	3719.7875
2554.56136	3693.8875
2557.26554	3696.5875
2559.96803	3700.5875
2562.66883	3675.5875
2565.36794	3675.7875
2568.06536	3672.3875
2570.7611	3662.9875
2573.45514	3655.5875
2576.14751	3648.7875
2578.83819	3650.0875
2581.52719	3646.7875
2584.21451	3642.6875
2586.90015	3632.6875
2589.58411	3632.2875
2592.2664	3632.5875
2594.94701	3623.6875
2597.62594	3610.6875
2600.30321	3603.8875
2602.9788	3610.0875
2605.65273	3601.4875
2608.32498	3596.4875
2610.99557	3596.6875
2613.66449	3594.9875
2616.33175	3589.4875
2618.99734	3586.4875
2621.66128	3589.5875
2624.32355	3581.3875
2626.98416	3552.3875
2629.64311	3577.3875
2632.30041	3546.6875
2634.95605	3563.2875
2637.61004	3556.9875
2640.26238	3561.0875
2642.91306	3535.3875
2645.56209	3546.5875
2648.20948	3540.6875
2650.85521	3560.5875
2653.4993	3542.4875
2656.14175	3546.4875
2658.78255	3541.9875
2661.42171	3546.5875
2664.05923	3547.1875
2666.6951	3558.1875
2669.32934	3565.5875
2671.96194	3571.6875
2674.59291	3555.4875
2677.22224	3537.9875
2679.84993	3545.6875
2682.476	3551.5875
2685.10043	3548.8875
2687.72324	3524.2875
2690.34441	3536.2875
2692.96396	3520.3875
2695.58188	3530.2875
2698.19818	3533.8875
2700.81285	3512.3875
2703.4259	3521.2875
2706.03733	3508.3875
2708.64714	3526.6875
2711.25533	3533.3875
2713.86191	3520.7875
2716.46687	3543.5875
2719.07021	3541.2875
2721.67194	3547.1875
2724.27206	3551.4875
2726.87057	3547.1875
2729.46747	3547.1875
2732.06276	3539.3875
2734.65644	3532.2875
2737.24852	3528.7875
2739.83899	3514.1875
2742.42786	3527.0875
2745.01513	3510.0875
2747.60079	3515.5875
2750.18486	3489.2875
2752.76733	3500.0875
2755.3482	3487.8875
2757.92747	3480.6875
2760.50515	3478.4875
2763.08123	3483.5875
2765.65573	3462.5875
2768.22863	3468.7875
2770.79994	3476.2875
2773.36967	3475.9875
2775.9378	3470.4875
2778.50435	3470.5875
2781.06932	3450.7875
2783.6327	3470.2875
2786.1945	3454.0875
2788.75471	3452.9875
2791.31335	3440.8875
2793.87041	3448.3875
2796.42589	3428.5875
2798.97979	3437.9875
2801.53212	3443.0875
2804.08288	3426.2875
2806.63206	3418.8875
2809.17967	3416.8875
2811.72571	3413.6875
2814.27018	3406.2875
2816.81308	3394.1875
2819.35442	3402.9875
2821.89419	3408.0875
2824.43239	3387.1875
2826.96904	3384.1875
2829.50412	3402.5875
2832.03763	3381.4875
2834.56959	3383.2875
2837.1	3393.7875
2839.62884	3384.5875
2842.15613	3391.4875
2844.68186	3397.4875
2847.20604	3391.3875
2849.72867	3393.8875
2852.24974	3407.6875
2854.76927	3394.4875
2857.28724	3398.2875
2859.80367	3390.3875
2862.31855	3389.0875
2864.83189	3389.6875
2867.34368	3388.7875
2869.85393	3381.1875
2872.36264	3388.7875
2874.8698	3388.2875
2877.37543	3390.5875
2879.87952	3381.3875
2882.38207	3384.5875
2884.88308	3360.4875
2887.38256	3381.8875
2889.88051	3360.6875
2892.37692	3365.7875
2894.8718	3375.1875
2897.36515	3376.9875
2899.85698	3382.4875
2902.34727	3375.4875
2904.83604	3383.9875
2907.32328	3366.7875
2909.809	3389.9875
2912.29319	3398.7875
2914.77587	3400.5875
2917.25702	3384.8875
2919.73665	3374.3875
2922.21476	3376.8875
2924.69136	3381.2875
2927.16644	3369.2875
2929.64	3370.2875
2932.11205	3359.0875
2934.58258	3347.9875
2937.05161	3348.2875
2939.51912	3348.6875
2941.98513	3341.9875
2944.44962	3328.5875
2946.91261	3315.8875
2949.37409	3307.1875
2951.83407	3318.8875
2954.29254	3321.6875
2956.74951	3304.8875
2959.20498	3306.7875
2961.65895	3300.7875
2964.11142	3299.8875
2966.56239	3291.9875
2969.01186	3279.5875
2971.45984	3279.2875
2973.90632	3273.2875
2976.35131	3258.9875
2978.7948	3263.4875
2981.23681	3239.2875
2983.67732	3238.8875
2986.11635	3244.7875
2988.55388	3219.1875
2990.98993	3217.0875
2993.4245	3219.5875
2995.85758	3220.4875
2998.28917	3213.6875
3000.71928	3195.5875
3003.14791	3200.0875
3005.57506	3189.3875
3008.00073	3196.3875
3010.42493	3196.6875
3012.84764	3183.3875
3015.26888	3163.9875
3017.68865	3178.1875
3020.10694	3176.2875
3022.52376	3156.6875
3024.9391	3152.6875
3027.35298	3144.7875
3029.76539	3147.5875
3032.17632	3135.8875
3034.5858	3132.5875
3036.9938	3120.5875
3039.40034	3125.6875
3041.80542	3113.3875
3044.20903	3117.0875
3046.61118	3125.3875
3049.01187	3109.6875
3051.4111	3106.3875
3053.80888	3110.6875
3056.20519	3086.7875
3058.60005	3080.8875
3060.99345	3082.4875
3063.3854	3076.2875
3065.7759	3078.0875
3068.16494	3071.0875
3070.55254	3066.1875
3072.93868	3054.1875
3075.32338	3052.7875
3077.70662	3053.1875
3080.08842	3036.6875
3082.46878	3045.5875
3084.84769	3036.3875
3087.22515	3048.2875
3089.60118	3043.7875
3091.97576	3061.9875
3094.3489	3044.6875
3096.72061	3053.7875
3099.09087	3044.5875
3101.4597	3054.5875
3103.82709	3045.2875
3106.19305	3057.2875
3108.55757	3040.8875
3110.92066	3042.9875
3113.28232	3038.1875
3115.64255	3041.7875
3118.00134	3027.5875
3120.35871	3035.5875
3122.71466	3022.4875
3125.06917	3019.8875
3127.42226	3023.4875
3129.77393	3018.4875
3132.12417	3029.2875
3134.47299	3015.2875
3136.82039	3012.0875
3139.16636	3025.8875
3141.51092	3008.8875
3143.85406	3024.0875
3146.19579	3023.5875
3148.53609	3031.2875
3150.87499	3028.9875
3153.21246	3054.6875
3155.54853	3053.4875
3157.88318	3066.2875
3160.21642	3056.0875
3162.54826	3066.5875
3164.87868	3072.5875
3167.2077	3063.7875
3169.5353	3063.7875
3171.86151	3084.1875
3174.18631	3066.7875
3176.5097	3073.2875
3178.83169	3062.1875
3181.15228	3070.6875
3183.47147	3077.5875
3185.78926	3069.7875
3188.10565	3057.1875
3190.42065	3072.0875
3192.73424	3068.8875
3195.04645	3064.2875
3197.35725	3069.2875
3199.66667	3070.0875
3201.97469	3067.6875
3204.28132	3073.1875
3206.58656	3077.4875
3208.8904	3073.4875
3211.19287	3070.3875
3213.49394	3078.5875
3215.79363	3093.0875
3218.09193	3091.1875
3220.38884	3103.8875
3222.68438	3094.7875
3224.97853	3103.7875
3227.2713	3103.6875
3229.56269	3100.0875
3231.8527	3089.0875
3234.14133	3090.8875
3236.42858	3069.8875
3238.71446	3061.8875
3240.99896	3058.7875
3243.28209	3069.8875
3245.56384	3068.7875
3247.84423	3065.1875
3250.12324	3054.0875
3252.40088	3055.7875
3254.67715	3050.4875
3256.95205	3050.4875
3259.22558	3051.0875
3261.49775	3050.6875
3263.76855	3036.8875
3266.03799	3025.8875
3268.30606	3037.7875
3270.57277	3035.5875
3272.83812	3023.5875
3275.10211	3032.8875
3277.36474	3026.0875
3279.62601	3030.1875
3281.88593	3027.3875
3284.14448	3031.3875
3286.40168	3014.3875
3288.65753	3029.4875
3290.91202	3034.2875
3293.16516	3019.7875
3295.41695	3008.6875
3297.66738	2997.6875
3299.91647	2976.1875
3302.16421	2963.4875
3304.4106	2953.5875
3306.65564	2945.2875
3308.89933	2912.9875
3311.14169	2905.8875
3313.38269	2878.9875
3315.62236	2867.3875
3317.86068	2838.1875
3320.09766	2812.2875
3322.3333	2800.5875
3324.5676	2791.8875
3326.80056	2732.8875
3329.03219	2731.6875
3331.26248	1.1875
3333.49143	-1.5125
3335.71905	0.9875
