Data from AgNP_FTO_APTES_UA_100uM_CRN_100uM_R6G_10uM_NaF_0.1M_Addition_RamanShift__8__17-56-50-573.txt Node

Date: Thu Mar 24 17:56:50 GMT 2022
User: TCL
Spectrometer: QEP01345
Trigger mode: 4
Integration Time (sec): 7.000000E0
Scans to average: 10
Electric dark correction enabled: true
Nonlinearity correction enabled: false
Boxcar width: 0
XAxis mode: Raman Shifts
Number of Pixels in Spectrum: 1044
>>>>>Begin Spectral Data<<<<<
46.04893	-0.5875
50.45542	0.6125
54.85868	0.5125
59.25871	-0.1875
63.6555	36.3125
68.04907	37.2125
72.43941	34.6125
76.82654	35.7125
81.21044	41.8125
85.59113	41.0125
89.96862	44.1125
94.34289	42.3125
98.71396	45.3125
103.08183	45.5125
107.4465	49.3125
111.80798	50.3125
116.16626	47.5125
120.52136	48.6125
124.87327	48.7125
129.222	54.1125
133.56755	57.1125
137.90993	53.7125
142.24913	65.2125
146.58517	69.1125
150.91804	81.4125
155.24774	92.3125
159.57429	111.7125
163.89768	147.3125
168.21792	190.6125
172.53501	258.3125
176.84895	360.3125
181.15975	505.9125
185.46741	701.0125
189.77193	969.8125
194.07331	1291.9125
198.37157	1668.2125
202.6667	2079.8125
206.9587	2475.2125
211.24758	2879.6125
215.53334	3293.5125
219.81599	3727.5125
224.09553	4238.3125
228.37195	4787.0125
232.64527	5390.4125
236.91549	5999.6125
241.18261	6574.2125
245.44663	7092.4125
249.70755	7531.8125
253.96539	7877.2125
258.22014	8169.8125
262.4718	8404.5125
266.72039	8590.0125
270.96589	8671.4125
275.20832	8661.0125
279.44768	8562.6125
283.68397	8464.2125
287.91719	8389.1125
292.14735	8361.6125
296.37445	8448.2125
300.59849	8580.5125
304.81948	8805.4125
309.03742	8944.9125
313.25231	8955.5125
317.46415	8735.0125
321.67296	8380.6125
325.87872	8042.0125
330.08145	7878.7125
334.28114	7853.4125
338.47781	7935.8125
342.67145	8082.2125
346.86207	8275.5125
351.04966	8532.7125
355.23424	8799.8125
359.4158	8987.2125
363.59435	9107.8125
367.76989	9157.1125
371.94243	9135.1125
376.11196	9103.7125
380.27849	9101.6125
384.44203	9067.6125
388.60257	9062.5125
392.76012	9141.9125
396.91468	9224.1125
401.06626	9356.1125
405.21485	9480.9125
409.36047	9374.0125
413.50311	9099.7125
417.64277	8824.0125
421.77947	8654.9125
425.9132	8636.7125
430.04396	8646.5125
434.17176	8683.8125
438.2966	8756.1125
442.41849	8896.8125
446.53742	9129.6125
450.6534	9317.5125
454.76644	9449.1125
458.87653	9466.1125
462.98368	9412.3125
467.08789	9319.6125
471.18916	9194.5125
475.2875	9074.0125
479.38291	8963.8125
483.4754	8849.3125
487.56496	8749.1125
491.6516	8711.8125
495.73531	8660.0125
499.81612	8662.1125
503.89401	8710.2125
507.96899	8730.3125
512.04106	8786.3125
516.11023	8795.1125
520.1765	8794.5125
524.23987	8778.5125
528.30034	8746.1125
532.35792	8700.5125
536.41261	8568.6125
540.46441	8465.5125
544.51333	8412.7125
548.55936	8483.9125
552.60252	8629.3125
556.64279	8830.8125
560.6802	8934.0125
564.71473	8982.1125
568.7464	9190.6125
572.7752	9409.8125
576.80114	9511.8125
580.82422	9573.4125
584.84444	9754.2125
588.86181	9975.3125
592.87633	10151.9125
596.888	10235.3125
600.89682	10253.7125
604.9028	10639.3125
608.90594	12196.1125
612.90624	14209.6125
616.90371	13474.2125
620.89834	10419.9125
624.89015	8930.9125
628.87913	8702.3125
632.86528	8875.5125
636.84862	9042.3125
640.82913	8939.5125
644.80683	8593.6125
648.78172	8324.5125
652.75379	8259.2125
656.72306	8440.5125
660.68952	8682.9125
664.65319	8615.2125
668.61405	8304.0125
672.57211	8168.5125
676.52738	8206.1125
680.47986	8179.7125
684.42955	8116.0125
688.37646	8058.5125
692.32058	8079.3125
696.26192	8131.0125
700.20048	8220.7125
704.13626	8300.4125
708.06928	8315.9125
711.99952	8302.0125
715.927	8279.7125
719.85171	8291.0125
723.77365	8314.4125
727.69284	8274.2125
731.60928	8229.1125
735.52295	8195.1125
739.43388	8204.1125
743.34206	8212.3125
747.24749	8236.0125
751.15017	8269.3125
755.05012	8379.0125
758.94733	8679.1125
762.8418	9391.8125
766.73354	10618.9125
770.62254	11780.7125
774.50882	12162.5125
778.39237	11568.7125
782.27321	10383.1125
786.15132	9273.4125
790.02671	8570.5125
793.89938	8217.6125
797.76935	8045.6125
801.6366	8004.4125
805.50115	7947.2125
809.36299	7938.2125
813.22213	7904.8125
817.07857	7895.1125
820.93231	7855.3125
824.78336	7837.8125
828.63172	7832.3125
832.47738	7813.2125
836.32036	7797.0125
840.16066	7801.7125
843.99827	7755.3125
847.8332	7755.6125
851.66546	7736.2125
855.49504	7757.7125
859.32195	7752.9125
863.1462	7723.9125
866.96777	7737.8125
870.78668	7729.2125
874.60293	7738.5125
878.41652	7756.3125
882.22745	7809.6125
886.03573	7836.1125
889.84136	7846.5125
893.64433	7802.2125
897.44466	7762.5125
901.24235	7738.5125
905.0374	7687.7125
908.8298	7684.3125
912.61957	7628.6125
916.40671	7655.7125
920.19121	7714.7125
923.97308	7782.0125
927.75233	7816.6125
931.52895	7805.4125
935.30295	7717.6125
939.07433	7539.8125
942.84309	7393.3125
946.60924	7302.6125
950.37278	7262.3125
954.13371	7254.3125
957.89203	7221.9125
961.64774	7234.0125
965.40086	7205.4125
969.15137	7207.3125
972.89929	7184.3125
976.64461	7168.5125
980.38733	7142.0125
984.12747	7154.2125
987.86502	7184.2125
991.59999	7226.8125
995.33237	7257.0125
999.06217	7353.8125
1002.78939	7508.6125
1006.51404	7665.8125
1010.23611	7812.7125
1013.95561	7890.1125
1017.67255	7852.2125
1021.38692	7761.8125
1025.09872	7619.4125
1028.80796	7499.4125
1032.51465	7444.0125
1036.21877	7448.5125
1039.92035	7501.7125
1043.61937	7532.7125
1047.31584	7596.1125
1051.00976	7621.3125
1054.70114	7628.0125
1058.38998	7660.8125
1062.07627	7720.4125
1065.76003	7780.7125
1069.44126	7880.1125
1073.11995	8014.2125
1076.79611	8166.9125
1080.46974	8283.7125
1084.14085	8388.5125
1087.80943	8504.8125
1091.47549	8586.7125
1095.13903	8518.0125
1098.80005	8310.6125
1102.45857	8097.6125
1106.11456	7972.6125
1109.76805	7969.1125
1113.41903	8021.7125
1117.06751	8212.6125
1120.71348	8460.1125
1124.35696	8747.1125
1127.99793	8991.2125
1131.63641	8988.9125
1135.2724	8765.3125
1138.90589	8522.2125
1142.5369	8373.0125
1146.16542	8237.0125
1149.79145	8179.9125
1153.415	8208.8125
1157.03607	8246.2125
1160.65467	8403.4125
1164.27079	8684.7125
1167.88443	9150.0125
1171.49561	9801.3125
1175.10432	10812.4125
1178.71056	12064.1125
1182.31434	13076.6125
1185.91565	13407.5125
1189.51451	13109.0125
1193.11091	12521.9125
1196.70485	11772.1125
1200.29634	11145.8125
1203.88538	10614.2125
1207.47197	10087.4125
1211.05612	9606.6125
1214.63782	9304.9125
1218.21708	9165.9125
1221.79391	9101.1125
1225.36829	9068.6125
1228.94024	9037.7125
1232.50976	8938.6125
1236.07685	8819.4125
1239.6415	8754.6125
1243.20374	8743.1125
1246.76355	8792.9125
1250.32093	8833.9125
1253.8759	8987.2125
1257.42845	9196.8125
1260.97859	9486.0125
1264.52631	9791.0125
1268.07163	10101.7125
1271.61453	10365.3125
1275.15503	10573.9125
1278.69312	10780.0125
1282.22882	11005.9125
1285.76211	11383.7125
1289.29301	11812.4125
1292.82151	12281.8125
1296.34761	12796.4125
1299.87133	13556.9125
1303.39266	14524.2125
1306.9116	15833.5125
1310.42815	17102.3125
1313.94233	17670.0125
1317.45412	17226.3125
1320.96354	16342.5125
1324.47058	15418.9125
1327.97525	14582.3125
1331.47754	13982.8125
1334.97747	13657.9125
1338.47502	13542.5125
1341.97022	13661.0125
1345.46305	13973.1125
1348.95352	14538.0125
1352.44163	15255.3125
1355.92738	16392.3125
1359.41078	18151.8125
1362.89183	19803.3125
1366.37053	19468.2125
1369.84688	17022.6125
1373.32088	14360.9125
1376.79254	12717.7125
1380.26186	11876.6125
1383.72883	11440.7125
1387.19347	11062.3125
1390.65578	10719.4125
1394.11575	10503.5125
1397.57339	10414.0125
1401.0287	10402.7125
1404.48168	10437.5125
1407.93234	10387.9125
1411.38068	10230.0125
1414.82669	10102.2125
1418.27039	9833.4125
1421.71177	9574.1125
1425.15083	9283.0125
1428.58758	9145.3125
1432.02203	9195.2125
1435.45416	9346.6125
1438.88399	9461.5125
1442.31151	9577.9125
1445.73673	9664.1125
1449.15965	9755.0125
1452.58027	9808.5125
1455.9986	9796.8125
1459.41463	9834.1125
1462.82837	9996.0125
1466.23982	10301.9125
1469.64898	10578.3125
1473.05586	10845.5125
1476.46045	11013.7125
1479.86276	11139.8125
1483.26279	11288.8125
1486.66054	11514.3125
1490.05602	11881.7125
1493.44922	12429.8125
1496.84016	13187.4125
1500.22882	14356.8125
1503.61521	15882.9125
1506.99934	17471.8125
1510.38121	18533.4125
1513.76081	18387.3125
1517.13816	17019.5125
1520.51324	15164.8125
1523.88607	13578.7125
1527.25665	12576.7125
1530.62498	12019.3125
1533.99105	11697.9125
1537.35488	11394.8125
1540.71647	11089.8125
1544.07581	10796.4125
1547.4329	10554.3125
1550.78776	10324.4125
1554.14038	10236.8125
1557.49077	10255.8125
1560.83892	10374.5125
1564.18484	10665.2125
1567.52853	11031.5125
1570.86999	11337.8125
1574.20922	11570.0125
1577.54624	11578.9125
1580.88103	11114.9125
1584.2136	10526.9125
1587.54395	10265.6125
1590.87208	10405.5125
1594.19801	10885.7125
1597.52172	11557.0125
1600.84321	11794.4125
1604.16251	11372.9125
1607.47959	10675.6125
1610.79447	9924.5125
1614.10715	9266.0125
1617.41763	8658.2125
1620.7259	8243.6125
1624.03199	8024.7125
1627.33587	7987.1125
1630.63757	8139.8125
1633.93707	8567.3125
1637.23439	9367.7125
1640.52951	10644.2125
1643.82246	12386.0125
1647.11321	14203.6125
1650.40179	15157.4125
1653.68819	14548.5125
1656.97241	12649.9125
1660.25446	10469.2125
1663.53433	8945.0125
1666.81203	7953.5125
1670.08756	7385.5125
1673.36092	7041.4125
1676.63211	6824.7125
1679.90115	6676.4125
1683.16801	6547.8125
1686.43272	6437.5125
1689.69527	6365.5125
1692.95567	6303.1125
1696.2139	6248.0125
1699.46999	6233.4125
1702.72392	6205.8125
1705.97571	6163.6125
1709.22535	6139.6125
1712.47284	6124.9125
1715.71819	6088.6125
1718.96139	6062.3125
1722.20246	6028.8125
1725.44139	5998.9125
1728.67818	5928.0125
1731.91284	5913.2125
1735.14537	5850.8125
1738.37576	5829.9125
1741.60403	5803.5125
1744.83017	5772.4125
1748.05418	5763.1125
1751.27607	5730.7125
1754.49584	5704.9125
1757.71349	5697.2125
1760.92903	5676.0125
1764.14244	5691.6125
1767.35375	5677.1125
1770.56294	5638.8125
1773.77002	5612.5125
1776.97499	5610.0125
1780.17785	5580.9125
1783.37861	5572.3125
1786.57727	5556.6125
1789.77382	5545.3125
1792.96828	5531.3125
1796.16064	5511.9125
1799.3509	5488.2125
1802.53907	5474.7125
1805.72514	5461.7125
1808.90913	5444.9125
1812.09102	5419.9125
1815.27083	5408.8125
1818.44856	5412.2125
1821.6242	5375.6125
1824.79776	5369.2125
1827.96924	5352.8125
1831.13864	5343.1125
1834.30597	5337.9125
1837.47122	5341.4125
1840.6344	5337.9125
1843.7955	5299.8125
1846.95454	5306.9125
1850.11151	5298.9125
1853.26642	5309.8125
1856.41926	5278.9125
1859.57004	5271.6125
1862.71876	5266.3125
1865.86542	5269.4125
1869.01003	5259.4125
1872.15258	5246.1125
1875.29308	5242.1125
1878.43152	5222.3125
1881.56792	5247.4125
1884.70227	5227.6125
1887.83457	5208.4125
1890.96482	5202.9125
1894.09304	5189.7125
1897.21921	5209.1125
1900.34335	5181.8125
1903.46544	5177.9125
1906.58551	5175.9125
1909.70353	5168.2125
1912.81953	5148.0125
1915.93349	5128.2125
1919.04543	5126.7125
1922.15534	5112.4125
1925.26322	5092.3125
1928.36908	5099.9125
1931.47292	5078.5125
1934.57473	5045.0125
1937.67453	5046.5125
1940.77232	5039.7125
1943.86808	5001.9125
1946.96184	4977.1125
1950.05358	4988.7125
1953.14331	4946.9125
1956.23103	4928.6125
1959.31675	4922.1125
1962.40046	4899.0125
1965.48217	4908.8125
1968.56188	4880.7125
1971.63959	4852.1125
1974.7153	4854.7125
1977.78901	4843.8125
1980.86073	4819.1125
1983.93046	4800.0125
1986.99819	4775.7125
1990.06394	4752.8125
1993.1277	4735.3125
1996.18947	4722.9125
1999.24925	4715.2125
2002.30706	4699.5125
2005.36288	4678.5125
2008.41672	4632.2125
2011.46859	4631.4125
2014.51848	4621.9125
2017.56639	4609.6125
2020.61233	4586.0125
2023.6563	4589.7125
2026.6983	4565.1125
2029.73833	4551.7125
2032.7764	4529.3125
2035.8125	4524.6125
2038.84664	4517.6125
2041.87881	4500.3125
2044.90903	4502.6125
2047.93729	4477.1125
2050.96359	4474.1125
2053.98794	4464.6125
2057.01034	4460.8125
2060.03078	4431.0125
2063.04927	4421.2125
2066.06582	4417.7125
2069.08042	4428.5125
2072.09307	4417.9125
2075.10378	4421.6125
2078.11255	4405.3125
2081.11938	4423.7125
2084.12426	4407.5125
2087.12722	4419.8125
2090.12824	4402.1125
2093.12732	4398.2125
2096.12447	4410.1125
2099.11969	4409.4125
2102.11299	4405.2125
2105.10435	4401.8125
2108.09379	4411.7125
2111.08131	4412.1125
2114.0669	4422.3125
2117.05057	4402.4125
2120.03233	4412.8125
2123.01216	4410.1125
2125.99008	4419.5125
2128.96609	4394.2125
2131.94018	4402.5125
2134.91236	4414.7125
2137.88263	4417.2125
2140.851	4394.7125
2143.81746	4398.8125
2146.78201	4391.4125
2149.74466	4402.9125
2152.7054	4372.6125
2155.66425	4370.4125
2158.6212	4374.6125
2161.57625	4375.6125
2164.52941	4366.6125
2167.48067	4386.3125
2170.43004	4361.1125
2173.37752	4355.9125
2176.32311	4351.5125
2179.26681	4339.1125
2182.20863	4345.0125
2185.14856	4352.2125
2188.08661	4333.1125
2191.02278	4343.2125
2193.95707	4339.7125
2196.88948	4320.8125
2199.82001	4338.9125
2202.74867	4322.1125
2205.67545	4319.6125
2208.60037	4311.1125
2211.52341	4287.0125
2214.44458	4281.4125
2217.36388	4274.8125
2220.28132	4267.1125
2223.1969	4248.7125
2226.11061	4245.9125
2229.02246	4221.2125
2231.93245	4221.0125
2234.84058	4215.5125
2237.74686	4209.7125
2240.65128	4203.6125
2243.55385	4199.2125
2246.45456	4186.2125
2249.35343	4186.7125
2252.25044	4180.8125
2255.14561	4174.6125
2258.03893	4169.0125
2260.93041	4164.7125
2263.82004	4144.5125
2266.70783	4134.9125
2269.59378	4138.9125
2272.4779	4123.2125
2275.36017	4110.1125
2278.24061	4100.3125
2281.11922	4089.3125
2283.996	4093.2125
2286.87094	4068.6125
2289.74405	4067.4125
2292.61534	4048.7125
2295.4848	4039.2125
2298.35243	4030.1125
2301.21824	4041.7125
2304.08223	4036.0125
2306.94439	4025.8125
2309.80474	4020.1125
2312.66327	4034.1125
2315.51999	4005.5125
2318.37489	4004.0125
2321.22797	4001.2125
2324.07925	3993.2125
2326.92871	3997.0125
2329.77637	3985.6125
2332.62222	3964.6125
2335.46626	3958.5125
2338.3085	3942.5125
2341.14893	3955.5125
2343.98756	3959.1125
2346.8244	3963.7125
2349.65943	3954.2125
2352.49267	3956.0125
2355.32411	3965.8125
2358.15376	3963.4125
2360.98161	3962.5125
2363.80768	3977.3125
2366.63195	3970.7125
2369.45444	3967.7125
2372.27514	3964.9125
2375.09405	3942.5125
2377.91118	3952.1125
2380.72652	3937.0125
2383.54009	3921.5125
2386.35187	3928.8125
2389.16188	3897.1125
2391.97011	3885.8125
2394.77657	3868.9125
2397.58125	3866.2125
2400.38416	3838.4125
2403.18529	3836.5125
2405.98466	3819.9125
2408.78226	3836.6125
2411.57809	3815.4125
2414.37216	3807.9125
2417.16446	3797.8125
2419.955	3795.1125
2422.74378	3808.6125
2425.5308	3790.9125
2428.31606	3786.0125
2431.09956	3776.5125
2433.88131	3777.7125
2436.6613	3780.3125
2439.43954	3787.0125
2442.21603	3770.7125
2444.99077	3756.6125
2447.76377	3778.8125
2450.53501	3770.5125
2453.30451	3773.6125
2456.07226	3768.0125
2458.83827	3762.4125
2461.60254	3769.7125
2464.36507	3762.6125
2467.12586	3766.5125
2469.88492	3756.8125
2472.64224	3764.3125
2475.39782	3750.9125
2478.15167	3776.9125
2480.90379	3771.5125
2483.65417	3767.3125
2486.40283	3770.0125
2489.14976	3786.2125
2491.89497	3784.6125
2494.63845	3781.3125
2497.3802	3773.8125
2500.12024	3751.0125
2502.85855	3749.4125
2505.59514	3750.1125
2508.33002	3744.1125
2511.06318	3709.8125
2513.79462	3713.0125
2516.52435	3685.6125
2519.25237	3678.6125
2521.97867	3671.3125
2524.70327	3664.9125
2527.42616	3657.1125
2530.14734	3657.5125
2532.86681	3644.0125
2535.58458	3645.0125
2538.30065	3636.9125
2541.01501	3652.3125
2543.72768	3654.7125
2546.43864	3632.1125
2549.14791	3653.5125
2551.85548	3630.9125
2554.56136	3618.2125
2557.26554	3608.2125
2559.96803	3624.8125
2562.66883	3616.6125
2565.36794	3601.2125
2568.06536	3596.1125
2570.7611	3584.7125
2573.45514	3572.1125
2576.14751	3570.3125
2578.83819	3562.5125
2581.52719	3574.5125
2584.21451	3571.7125
2586.90015	3556.1125
2589.58411	3551.3125
2592.2664	3555.1125
2594.94701	3547.9125
2597.62594	3546.0125
2600.30321	3512.7125
2602.9788	3532.2125
2605.65273	3526.3125
2608.32498	3522.7125
2610.99557	3507.3125
2613.66449	3516.0125
2616.33175	3504.5125
2618.99734	3506.1125
2621.66128	3499.5125
2624.32355	3503.7125
2626.98416	3492.5125
2629.64311	3486.1125
2632.30041	3473.8125
2634.95605	3468.6125
2637.61004	3470.1125
2640.26238	3458.0125
2642.91306	3476.8125
2645.56209	3453.4125
2648.20948	3465.0125
2650.85521	3479.6125
2653.4993	3454.6125
2656.14175	3457.2125
2658.78255	3458.0125
2661.42171	3476.9125
2664.05923	3483.8125
2666.6951	3464.2125
2669.32934	3472.9125
2671.96194	3475.9125
2674.59291	3474.3125
2677.22224	3463.3125
2679.84993	3466.4125
2682.476	3456.9125
2685.10043	3455.8125
2687.72324	3442.8125
2690.34441	3451.0125
2692.96396	3464.1125
2695.58188	3462.8125
2698.19818	3428.2125
2700.81285	3444.8125
2703.4259	3447.1125
2706.03733	3437.6125
2708.64714	3434.9125
2711.25533	3457.9125
2713.86191	3464.3125
2716.46687	3466.7125
2719.07021	3455.6125
2721.67194	3473.5125
2724.27206	3452.6125
2726.87057	3459.8125
2729.46747	3477.5125
2732.06276	3455.0125
2734.65644	3447.9125
2737.24852	3453.3125
2739.83899	3431.5125
2742.42786	3449.7125
2745.01513	3433.9125
2747.60079	3430.3125
2750.18486	3416.0125
2752.76733	3411.6125
2755.3482	3416.9125
2757.92747	3395.2125
2760.50515	3402.1125
2763.08123	3391.7125
2765.65573	3393.7125
2768.22863	3387.1125
2770.79994	3383.6125
2773.36967	3385.3125
2775.9378	3376.3125
2778.50435	3374.1125
2781.06932	3382.1125
2783.6327	3380.8125
2786.1945	3381.9125
2788.75471	3373.7125
2791.31335	3367.0125
2793.87041	3367.1125
2796.42589	3355.9125
2798.97979	3359.6125
2801.53212	3350.1125
2804.08288	3335.8125
2806.63206	3332.1125
2809.17967	3329.9125
2811.72571	3335.8125
2814.27018	3334.8125
2816.81308	3329.7125
2819.35442	3314.2125
2821.89419	3321.1125
2824.43239	3320.7125
2826.96904	3295.4125
2829.50412	3314.4125
2832.03763	3312.3125
2834.56959	3313.1125
2837.1	3312.9125
2839.62884	3312.1125
2842.15613	3303.9125
2844.68186	3317.1125
2847.20604	3314.7125
2849.72867	3315.9125
2852.24974	3318.9125
2854.76927	3320.2125
2857.28724	3313.3125
2859.80367	3307.7125
2862.31855	3314.3125
2864.83189	3315.6125
2867.34368	3317.0125
2869.85393	3308.3125
2872.36264	3316.0125
2874.8698	3309.8125
2877.37543	3302.1125
2879.87952	3312.1125
2882.38207	3304.3125
2884.88308	3301.1125
2887.38256	3297.6125
2889.88051	3289.1125
2892.37692	3282.9125
2894.8718	3281.8125
2897.36515	3299.9125
2899.85698	3297.9125
2902.34727	3299.3125
2904.83604	3287.3125
2907.32328	3305.6125
2909.809	3303.3125
2912.29319	3313.8125
2914.77587	3302.6125
2917.25702	3298.5125
2919.73665	3308.8125
2922.21476	3294.4125
2924.69136	3291.0125
2927.16644	3305.8125
2929.64	3296.5125
2932.11205	3284.7125
2934.58258	3265.8125
2937.05161	3260.5125
2939.51912	3269.4125
2941.98513	3260.1125
2944.44962	3254.4125
2946.91261	3226.8125
2949.37409	3227.5125
2951.83407	3237.3125
2954.29254	3234.2125
2956.74951	3233.1125
2959.20498	3234.9125
2961.65895	3220.3125
2964.11142	3218.3125
2966.56239	3199.7125
2969.01186	3219.0125
2971.45984	3194.3125
2973.90632	3192.2125
2976.35131	3190.7125
2978.7948	3170.7125
2981.23681	3161.2125
2983.67732	3162.8125
2986.11635	3150.1125
2988.55388	3133.1125
2990.98993	3156.5125
2993.4245	3132.7125
2995.85758	3137.4125
2998.28917	3134.3125
3000.71928	3125.4125
3003.14791	3121.6125
3005.57506	3118.1125
3008.00073	3107.8125
3010.42493	3102.7125
3012.84764	3095.7125
3015.26888	3108.2125
3017.68865	3088.8125
3020.10694	3096.7125
3022.52376	3091.3125
3024.9391	3069.5125
3027.35298	3062.1125
3029.76539	3065.2125
3032.17632	3054.7125
3034.5858	3069.7125
3036.9938	3062.2125
3039.40034	3044.7125
3041.80542	3059.1125
3044.20903	3035.7125
3046.61118	3053.9125
3049.01187	3036.5125
3051.4111	3050.2125
3053.80888	3025.8125
3056.20519	3021.9125
3058.60005	3014.4125
3060.99345	3010.9125
3063.3854	3008.8125
3065.7759	2994.8125
3068.16494	3000.0125
3070.55254	2996.4125
3072.93868	2985.8125
3075.32338	2981.9125
3077.70662	2983.8125
3080.08842	2986.3125
3082.46878	2968.2125
3084.84769	2952.2125
3087.22515	2969.3125
3089.60118	2977.1125
3091.97576	2976.4125
3094.3489	2974.6125
3096.72061	2976.6125
3099.09087	2974.6125
3101.4597	2962.4125
3103.82709	2987.1125
3106.19305	2970.1125
3108.55757	2981.8125
3110.92066	2971.6125
3113.28232	2965.2125
3115.64255	2956.0125
3118.00134	2966.8125
3120.35871	2949.9125
3122.71466	2943.7125
3125.06917	2946.5125
3127.42226	2950.4125
3129.77393	2944.1125
3132.12417	2946.9125
3134.47299	2963.0125
3136.82039	2943.8125
3139.16636	2944.4125
3141.51092	2946.8125
3143.85406	2948.8125
3146.19579	2948.0125
3148.53609	2960.1125
3150.87499	2987.3125
3153.21246	2979.9125
3155.54853	2993.9125
3157.88318	2981.8125
3160.21642	2988.0125
3162.54826	2988.8125
3164.87868	2996.2125
3167.2077	2995.7125
3169.5353	3007.3125
3171.86151	3006.2125
3174.18631	3005.4125
3176.5097	2993.4125
3178.83169	3001.8125
3181.15228	2996.1125
3183.47147	2999.7125
3185.78926	3010.9125
3188.10565	3004.2125
3190.42065	3005.4125
3192.73424	3002.5125
3195.04645	2989.4125
3197.35725	3015.3125
3199.66667	3004.5125
3201.97469	3012.0125
3204.28132	3003.9125
3206.58656	3016.5125
3208.8904	2994.4125
3211.19287	3001.0125
3213.49394	3012.0125
3215.79363	3030.3125
3218.09193	3018.4125
3220.38884	3026.4125
3222.68438	3017.7125
3224.97853	3027.9125
3227.2713	3027.6125
3229.56269	3013.2125
3231.8527	3028.5125
3234.14133	3029.1125
3236.42858	3019.3125
3238.71446	3010.0125
3240.99896	3005.7125
3243.28209	3007.0125
3245.56384	3002.2125
3247.84423	3005.7125
3250.12324	3002.1125
3252.40088	2982.4125
3254.67715	2982.9125
3256.95205	2978.1125
3259.22558	2998.0125
3261.49775	2977.2125
3263.76855	2984.3125
3266.03799	2962.7125
3268.30606	2972.6125
3270.57277	2966.3125
3272.83812	2959.6125
3275.10211	2951.7125
3277.36474	2949.5125
3279.62601	2953.8125
3281.88593	2950.3125
3284.14448	2958.2125
3286.40168	2955.0125
3288.65753	2969.8125
3290.91202	2964.3125
3293.16516	2962.2125
3295.41695	2948.6125
3297.66738	2929.2125
3299.91647	2909.3125
3302.16421	2889.3125
3304.4106	2881.2125
3306.65564	2883.2125
3308.89933	2849.2125
3311.14169	2838.0125
3313.38269	2806.4125
3315.62236	2796.1125
3317.86068	2781.2125
3320.09766	2754.3125
3322.3333	2727.7125
3324.5676	2730.1125
3326.80056	2681.8125
3329.03219	2681.9125
3331.26248	0.9125
3333.49143	-1.0875
3335.71905	0.7125
