Data from AgNP_FTO_APTES_UA_100uM_CRN_1uM_R6G_10uM_NaF_0.1M_Addition_RamanShift__4__11-52-50-158.txt Node

Date: Thu Mar 24 11:52:50 GMT 2022
User: TCL
Spectrometer: QEP01345
Trigger mode: 4
Integration Time (sec): 7.000000E0
Scans to average: 10
Electric dark correction enabled: true
Nonlinearity correction enabled: false
Boxcar width: 0
XAxis mode: Raman Shifts
Number of Pixels in Spectrum: 1044
>>>>>Begin Spectral Data<<<<<
46.04893	-1.8125
50.45542	0.4875
54.85868	-0.5125
59.25871	-0.3125
63.6555	49.0875
68.04907	50.1875
72.43941	53.0875
76.82654	54.5875
81.21044	59.0875
85.59113	60.3875
89.96862	58.8875
94.34289	59.5875
98.71396	65.6875
103.08183	61.5875
107.4465	67.4875
111.80798	69.4875
116.16626	72.3875
120.52136	74.6875
124.87327	73.5875
129.222	82.5875
133.56755	86.8875
137.90993	93.2875
142.24913	104.7875
146.58517	114.3875
150.91804	136.8875
155.24774	167.6875
159.57429	207.1875
163.89768	265.2875
168.21792	362.6875
172.53501	490.2875
176.84895	691.9875
181.15975	980.1875
185.46741	1361.8875
189.77193	1874.3875
194.07331	2517.2875
198.37157	3244.6875
202.6667	4012.4875
206.9587	4787.0875
211.24758	5566.2875
215.53334	6369.5875
219.81599	7227.8875
224.09553	8219.4875
228.37195	9308.4875
232.64527	10499.2875
236.91549	11689.8875
241.18261	12851.0875
245.44663	13793.3875
249.70755	14585.7875
253.96539	15167.6875
258.22014	15658.6875
262.4718	16068.0875
266.72039	16374.5875
270.96589	16463.3875
275.20832	16400.4875
279.44768	16260.2875
283.68397	16017.3875
287.91719	15882.5875
292.14735	15820.6875
296.37445	15921.6875
300.59849	16142.9875
304.81948	16467.2875
309.03742	16812.4875
313.25231	16902.8875
317.46415	16645.5875
321.67296	16216.8875
325.87872	15819.5875
330.08145	15605.7875
334.28114	15533.8875
338.47781	15613.4875
342.67145	15874.6875
346.86207	16220.4875
351.04966	16707.2875
355.23424	17165.8875
359.4158	17502.5875
363.59435	17623.0875
367.76989	17619.4875
371.94243	17569.3875
376.11196	17580.0875
380.27849	17570.3875
384.44203	17628.8875
388.60257	17722.5875
392.76012	17812.5875
396.91468	17968.3875
401.06626	18226.3875
405.21485	18408.1875
409.36047	18116.8875
413.50311	17585.4875
417.64277	17192.4875
421.77947	17073.7875
425.9132	17090.6875
430.04396	17243.1875
434.17176	17384.1875
438.2966	17645.2875
442.41849	18265.5875
446.53742	19226.1875
450.6534	20136.8875
454.76644	20603.4875
458.87653	20501.7875
462.98368	20130.9875
467.08789	19637.7875
471.18916	19088.4875
475.2875	18521.7875
479.38291	18051.5875
483.4754	17731.7875
487.56496	17373.8875
491.6516	17052.1875
495.73531	16766.1875
499.81612	16646.8875
503.89401	16715.7875
507.96899	16801.6875
512.04106	16758.6875
516.11023	16634.3875
520.1765	16544.2875
524.23987	16534.0875
528.30034	16633.1875
532.35792	16574.3875
536.41261	16248.5875
540.46441	15772.5875
544.51333	15572.9875
548.55936	15708.1875
552.60252	16194.2875
556.64279	16963.6875
560.6802	17589.0875
564.71473	17905.9875
568.7464	18422.4875
572.7752	19315.5875
576.80114	19987.2875
580.82422	20444.8875
584.84444	21322.2875
588.86181	23128.8875
592.87633	25527.6875
596.888	26551.9875
600.89682	24724.0875
604.9028	23107.7875
608.90594	24800.9875
612.90624	27738.7875
616.90371	25778.3875
620.89834	19726.2875
624.89015	16778.3875
628.87913	16339.1875
632.86528	16572.2875
636.84862	16612.6875
640.82913	16133.7875
644.80683	15350.5875
648.78172	14896.9875
652.75379	14873.6875
656.72306	15297.6875
660.68952	15855.7875
664.65319	15651.4875
668.61405	15026.1875
672.57211	14853.0875
676.52738	14980.8875
680.47986	14934.4875
684.42955	14721.6875
688.37646	14551.6875
692.32058	14708.5875
696.26192	15020.6875
700.20048	15393.5875
704.13626	15616.9875
708.06928	15606.5875
711.99952	15527.1875
715.927	15572.1875
719.85171	15700.5875
723.77365	15616.6875
727.69284	15302.6875
731.60928	15065.7875
735.52295	15081.8875
739.43388	15240.6875
743.34206	15352.5875
747.24749	15459.9875
751.15017	15669.9875
755.05012	15998.8875
758.94733	16721.9875
762.8418	18211.3875
766.73354	20714.0875
770.62254	23117.2875
774.50882	23593.9875
778.39237	22113.4875
782.27321	19792.1875
786.15132	17618.1875
790.02671	16273.5875
793.89938	15522.3875
797.76935	15203.9875
801.6366	14992.8875
805.50115	14866.7875
809.36299	14751.9875
813.22213	14606.2875
817.07857	14538.7875
820.93231	14424.5875
824.78336	14365.7875
828.63172	14338.2875
832.47738	14315.6875
836.32036	14290.6875
840.16066	14315.8875
843.99827	14295.5875
847.8332	14300.0875
851.66546	14314.1875
855.49504	14309.3875
859.32195	14299.3875
863.1462	14204.9875
866.96777	14125.7875
870.78668	14100.1875
874.60293	14102.9875
878.41652	14185.8875
882.22745	14295.3875
886.03573	14406.7875
889.84136	14403.9875
893.64433	14333.3875
897.44466	14253.3875
901.24235	14192.2875
905.0374	14080.8875
908.8298	13987.1875
912.61957	13979.9875
916.40671	14067.7875
920.19121	14335.6875
923.97308	14645.0875
927.75233	14831.0875
931.52895	14710.8875
935.30295	14289.0875
939.07433	13842.2875
942.84309	13507.4875
946.60924	13345.2875
950.37278	13307.0875
954.13371	13322.9875
957.89203	13306.0875
961.64774	13324.5875
965.40086	13314.6875
969.15137	13332.0875
972.89929	13288.1875
976.64461	13246.5875
980.38733	13216.9875
984.12747	13233.5875
987.86502	13318.9875
991.59999	13478.8875
995.33237	13738.2875
999.06217	14189.8875
1002.78939	14820.7875
1006.51404	15464.7875
1010.23611	15971.1875
1013.95561	16301.4875
1017.67255	16320.7875
1021.38692	15916.6875
1025.09872	15223.2875
1028.80796	14735.4875
1032.51465	14653.4875
1036.21877	14764.1875
1039.92035	14906.4875
1043.61937	14936.8875
1047.31584	14913.6875
1051.00976	14847.3875
1054.70114	14827.0875
1058.38998	14826.2875
1062.07627	14896.9875
1065.76003	15015.0875
1069.44126	15315.8875
1073.11995	15704.4875
1076.79611	16069.4875
1080.46974	16420.3875
1084.14085	16803.5875
1087.80943	17215.3875
1091.47549	17451.5875
1095.13903	17294.2875
1098.80005	16802.1875
1102.45857	16196.9875
1106.11456	15895.4875
1109.76805	15827.3875
1113.41903	16022.1875
1117.06751	16373.4875
1120.71348	16797.7875
1124.35696	17279.1875
1127.99793	17689.9875
1131.63641	17773.2875
1135.2724	17455.6875
1138.90589	17165.4875
1142.5369	17086.8875
1146.16542	17207.3875
1149.79145	17472.4875
1153.415	17717.2875
1157.03607	17987.0875
1160.65467	18530.5875
1164.27079	19536.2875
1167.88443	20983.5875
1171.49561	23197.8875
1175.10432	26238.9875
1178.71056	30054.5875
1182.31434	33409.9875
1185.91565	34353.9875
1189.51451	33032.7875
1193.11091	30933.8875
1196.70485	28744.2875
1200.29634	26806.5875
1203.88538	25217.2875
1207.47197	24016.8875
1211.05612	23169.3875
1214.63782	22652.8875
1218.21708	22465.2875
1221.79391	22630.2875
1225.36829	22970.5875
1228.94024	22934.1875
1232.50976	22192.5875
1236.07685	21131.1875
1239.6415	20392.0875
1243.20374	20129.2875
1246.76355	20157.5875
1250.32093	20397.9875
1253.8759	20885.2875
1257.42845	21674.9875
1260.97859	22685.0875
1264.52631	23740.2875
1268.07163	24837.3875
1271.61453	25791.7875
1275.15503	26734.3875
1278.69312	27699.4875
1282.22882	28900.7875
1285.76211	30601.7875
1289.29301	32669.0875
1292.82151	35020.2875
1296.34761	37569.1875
1299.87133	40713.0875
1303.39266	44119.9875
1306.9116	47861.1875
1310.42815	51251.0875
1313.94233	53038.7875
1317.45412	51939.1875
1320.96354	48923.4875
1324.47058	45840.7875
1327.97525	43177.4875
1331.47754	41250.7875
1334.97747	39981.4875
1338.47502	39079.5875
1341.97022	38563.0875
1345.46305	38299.4875
1348.95352	38728.2875
1352.44163	40204.8875
1355.92738	43295.5875
1359.41078	47968.8875
1362.89183	52177.7875
1366.37053	51901.7875
1369.84688	46032.0875
1373.32088	38609.4875
1376.79254	33903.5875
1380.26186	32088.0875
1383.72883	31516.0875
1387.19347	31078.9875
1390.65578	30463.6875
1394.11575	30249.4875
1397.57339	30554.9875
1401.0287	30902.0875
1404.48168	31047.7875
1407.93234	30675.0875
1411.38068	29878.4875
1414.82669	28879.2875
1418.27039	27808.7875
1421.71177	26590.0875
1425.15083	25624.6875
1428.58758	25195.1875
1432.02203	25627.7875
1435.45416	26438.6875
1438.88399	27151.6875
1442.31151	27528.7875
1445.73673	27764.7875
1449.15965	27896.8875
1452.58027	27795.4875
1455.9986	27569.6875
1459.41463	27623.4875
1462.82837	28205.8875
1466.23982	29071.1875
1469.64898	29971.2875
1473.05586	30556.1875
1476.46045	30947.3875
1479.86276	31111.4875
1483.26279	31162.3875
1486.66054	31497.9875
1490.05602	32192.6875
1493.44922	33181.0875
1496.84016	34103.7875
1500.22882	35225.2875
1503.61521	36828.4875
1506.99934	38740.4875
1510.38121	40097.3875
1513.76081	39907.1875
1517.13816	38032.8875
1520.51324	35359.3875
1523.88607	33381.4875
1527.25665	32535.9875
1530.62498	32324.1875
1533.99105	32111.9875
1537.35488	31431.1875
1540.71647	30328.5875
1544.07581	29019.7875
1547.4329	27710.7875
1550.78776	26655.9875
1554.14038	25922.5875
1557.49077	25566.0875
1560.83892	25634.1875
1564.18484	26008.1875
1567.52853	26638.5875
1570.86999	27360.6875
1574.20922	28052.8875
1577.54624	28358.3875
1580.88103	27833.6875
1584.2136	27315.8875
1587.54395	27923.5875
1590.87208	29702.5875
1594.19801	32593.4875
1597.52172	35570.0875
1600.84321	36616.4875
1604.16251	34655.6875
1607.47959	30850.5875
1610.79447	26781.6875
1614.10715	23338.9875
1617.41763	20901.7875
1620.7259	19454.8875
1624.03199	18807.4875
1627.33587	18944.2875
1630.63757	19892.6875
1633.93707	21937.2875
1637.23439	25536.1875
1640.52951	31344.9875
1643.82246	38620.5875
1647.11321	44704.1875
1650.40179	45889.7875
1653.68819	41083.3875
1656.97241	33140.8875
1660.25446	25880.3875
1663.53433	20917.4875
1666.81203	17956.1875
1670.08756	16240.5875
1673.36092	15249.6875
1676.63211	14588.2875
1679.90115	14143.7875
1683.16801	13825.1875
1686.43272	13566.3875
1689.69527	13362.8875
1692.95567	13244.7875
1696.2139	13134.5875
1699.46999	13052.0875
1702.72392	12965.3875
1705.97571	12930.0875
1709.22535	12918.0875
1712.47284	12896.4875
1715.71819	12887.0875
1718.96139	12818.5875
1722.20246	12764.2875
1725.44139	12660.0875
1728.67818	12534.1875
1731.91284	12426.8875
1735.14537	12305.8875
1738.37576	12225.9875
1741.60403	12167.1875
1744.83017	12110.2875
1748.05418	12068.9875
1751.27607	12000.1875
1754.49584	11977.2875
1757.71349	11913.7875
1760.92903	11918.5875
1764.14244	11882.1875
1767.35375	11896.1875
1770.56294	11852.0875
1773.77002	11827.0875
1776.97499	11791.4875
1780.17785	11776.0875
1783.37861	11721.8875
1786.57727	11692.3875
1789.77382	11663.3875
1792.96828	11644.9875
1796.16064	11608.7875
1799.3509	11593.3875
1802.53907	11541.8875
1805.72514	11475.9875
1808.90913	11441.9875
1812.09102	11421.8875
1815.27083	11417.9875
1818.44856	11382.0875
1821.6242	11332.9875
1824.79776	11336.6875
1827.96924	11311.7875
1831.13864	11303.8875
1834.30597	11303.8875
1837.47122	11331.8875
1840.6344	11305.8875
1843.7955	11310.7875
1846.95454	11313.2875
1850.11151	11265.4875
1853.26642	11284.2875
1856.41926	11269.6875
1859.57004	11250.6875
1862.71876	11258.5875
1865.86542	11230.9875
1869.01003	11218.8875
1872.15258	11234.8875
1875.29308	11213.5875
1878.43152	11219.9875
1881.56792	11210.5875
1884.70227	11234.6875
1887.83457	11218.9875
1890.96482	11198.5875
1894.09304	11188.2875
1897.21921	11199.3875
1900.34335	11202.5875
1903.46544	11186.6875
1906.58551	11160.9875
1909.70353	11147.9875
1912.81953	11131.3875
1915.93349	11110.1875
1919.04543	11055.6875
1922.15534	11048.4875
1925.26322	11022.7875
1928.36908	10943.2875
1931.47292	10917.6875
1934.57473	10886.7875
1937.67453	10875.5875
1940.77232	10842.5875
1943.86808	10819.4875
1946.96184	10761.9875
1950.05358	10726.3875
1953.14331	10712.4875
1956.23103	10708.6875
1959.31675	10672.8875
1962.40046	10634.2875
1965.48217	10602.1875
1968.56188	10600.4875
1971.63959	10549.7875
1974.7153	10501.3875
1977.78901	10456.5875
1980.86073	10421.7875
1983.93046	10422.0875
1986.99819	10349.2875
1990.06394	10316.6875
1993.1277	10285.3875
1996.18947	10250.4875
1999.24925	10232.2875
2002.30706	10172.4875
2005.36288	10150.1875
2008.41672	10117.4875
2011.46859	10083.8875
2014.51848	10059.9875
2017.56639	10007.2875
2020.61233	10001.7875
2023.6563	9974.5875
2026.6983	9951.4875
2029.73833	9919.7875
2032.7764	9912.4875
2035.8125	9889.9875
2038.84664	9840.9875
2041.87881	9833.4875
2044.90903	9820.7875
2047.93729	9798.6875
2050.96359	9786.2875
2053.98794	9792.4875
2057.01034	9748.5875
2060.03078	9733.6875
2063.04927	9754.5875
2066.06582	9738.9875
2069.08042	9694.6875
2072.09307	9718.8875
2075.10378	9699.5875
2078.11255	9709.3875
2081.11938	9720.9875
2084.12426	9704.4875
2087.12722	9720.8875
2090.12824	9725.1875
2093.12732	9744.9875
2096.12447	9736.3875
2099.11969	9733.2875
2102.11299	9777.1875
2105.10435	9746.2875
2108.09379	9734.3875
2111.08131	9749.5875
2114.0669	9723.8875
2117.05057	9728.9875
2120.03233	9715.2875
2123.01216	9754.7875
2125.99008	9746.5875
2128.96609	9733.5875
2131.94018	9739.2875
2134.91236	9732.3875
2137.88263	9736.7875
2140.851	9712.3875
2143.81746	9719.2875
2146.78201	9694.6875
2149.74466	9695.9875
2152.7054	9689.9875
2155.66425	9682.8875
2158.6212	9661.0875
2161.57625	9629.8875
2164.52941	9656.8875
2167.48067	9647.5875
2170.43004	9634.7875
2173.37752	9618.1875
2176.32311	9616.6875
2179.26681	9627.7875
2182.20863	9614.7875
2185.14856	9618.2875
2188.08661	9602.7875
2191.02278	9598.0875
2193.95707	9586.5875
2196.88948	9563.9875
2199.82001	9555.3875
2202.74867	9554.7875
2205.67545	9542.7875
2208.60037	9498.9875
2211.52341	9500.0875
2214.44458	9518.9875
2217.36388	9480.9875
2220.28132	9466.5875
2223.1969	9420.4875
2226.11061	9415.3875
2229.02246	9392.5875
2231.93245	9398.3875
2234.84058	9398.3875
2237.74686	9384.6875
2240.65128	9390.3875
2243.55385	9366.7875
2246.45456	9358.8875
2249.35343	9344.1875
2252.25044	9299.3875
2255.14561	9295.4875
2258.03893	9286.4875
2260.93041	9251.3875
2263.82004	9232.0875
2266.70783	9199.6875
2269.59378	9192.5875
2272.4779	9152.3875
2275.36017	9126.3875
2278.24061	9119.5875
2281.11922	9118.4875
2283.996	9086.1875
2286.87094	9080.8875
2289.74405	9049.3875
2292.61534	9034.5875
2295.4848	9031.5875
2298.35243	9027.8875
2301.21824	9023.5875
2304.08223	9037.6875
2306.94439	9026.5875
2309.80474	9037.8875
2312.66327	9011.4875
2315.51999	9005.1875
2318.37489	9010.6875
2321.22797	9016.7875
2324.07925	8983.2875
2326.92871	8981.3875
2329.77637	8978.7875
2332.62222	8971.3875
2335.46626	8940.9875
2338.3085	8939.6875
2341.14893	8959.4875
2343.98756	8970.5875
2346.8244	8981.1875
2349.65943	8978.9875
2352.49267	8958.8875
2355.32411	8995.1875
2358.15376	8965.2875
2360.98161	8973.0875
2363.80768	8980.7875
2366.63195	8957.4875
2369.45444	8936.8875
2372.27514	8945.4875
2375.09405	8960.0875
2377.91118	8926.1875
2380.72652	8921.1875
2383.54009	8893.5875
2386.35187	8865.5875
2389.16188	8827.2875
2391.97011	8805.5875
2394.77657	8818.0875
2397.58125	8785.4875
2400.38416	8773.5875
2403.18529	8769.9875
2405.98466	8751.8875
2408.78226	8720.1875
2411.57809	8718.5875
2414.37216	8702.9875
2417.16446	8707.2875
2419.955	8675.6875
2422.74378	8699.6875
2425.5308	8658.9875
2428.31606	8685.1875
2431.09956	8643.1875
2433.88131	8635.7875
2436.6613	8637.9875
2439.43954	8666.6875
2442.21603	8666.4875
2444.99077	8674.0875
2447.76377	8684.9875
2450.53501	8674.4875
2453.30451	8694.6875
2456.07226	8690.8875
2458.83827	8687.9875
2461.60254	8702.2875
2464.36507	8682.9875
2467.12586	8675.9875
2469.88492	8692.0875
2472.64224	8701.4875
2475.39782	8687.8875
2478.15167	8674.4875
2480.90379	8682.0875
2483.65417	8702.8875
2486.40283	8709.4875
2489.14976	8722.1875
2491.89497	8749.8875
2494.63845	8743.1875
2497.3802	8737.6875
2500.12024	8747.9875
2502.85855	8753.6875
2505.59514	8740.3875
2508.33002	8712.6875
2511.06318	8684.4875
2513.79462	8690.8875
2516.52435	8661.2875
2519.25237	8657.2875
2521.97867	8655.8875
2524.70327	8624.1875
2527.42616	8629.7875
2530.14734	8621.3875
2532.86681	8614.0875
2535.58458	8595.3875
2538.30065	8621.3875
2541.01501	8616.2875
2543.72768	8617.7875
2546.43864	8616.3875
2549.14791	8590.9875
2551.85548	8594.3875
2554.56136	8577.2875
2557.26554	8585.1875
2559.96803	8579.0875
2562.66883	8585.8875
2565.36794	8590.7875
2568.06536	8607.3875
2570.7611	8594.0875
2573.45514	8587.9875
2576.14751	8583.3875
2578.83819	8553.0875
2581.52719	8590.5875
2584.21451	8575.7875
2586.90015	8548.7875
2589.58411	8515.6875
2592.2664	8532.1875
2594.94701	8504.6875
2597.62594	8517.6875
2600.30321	8508.5875
2602.9788	8517.1875
2605.65273	8480.2875
2608.32498	8502.2875
2610.99557	8531.4875
2613.66449	8535.7875
2616.33175	8536.8875
2618.99734	8539.1875
2621.66128	8528.5875
2624.32355	8517.6875
2626.98416	8524.2875
2629.64311	8504.9875
2632.30041	8500.3875
2634.95605	8492.8875
2637.61004	8468.1875
2640.26238	8456.8875
2642.91306	8463.0875
2645.56209	8511.6875
2648.20948	8506.1875
2650.85521	8494.2875
2653.4993	8510.9875
2656.14175	8517.9875
2658.78255	8529.4875
2661.42171	8537.3875
2664.05923	8543.2875
2666.6951	8551.4875
2669.32934	8581.7875
2671.96194	8567.5875
2674.59291	8571.6875
2677.22224	8570.7875
2679.84993	8561.5875
2682.476	8554.4875
2685.10043	8541.6875
2687.72324	8544.5875
2690.34441	8556.2875
2692.96396	8539.8875
2695.58188	8547.1875
2698.19818	8530.3875
2700.81285	8558.1875
2703.4259	8538.2875
2706.03733	8533.3875
2708.64714	8555.0875
2711.25533	8576.7875
2713.86191	8550.1875
2716.46687	8596.5875
2719.07021	8575.6875
2721.67194	8603.3875
2724.27206	8614.5875
2726.87057	8600.3875
2729.46747	8591.2875
2732.06276	8616.4875
2734.65644	8616.1875
2737.24852	8586.0875
2739.83899	8588.4875
2742.42786	8603.1875
2745.01513	8591.0875
2747.60079	8580.9875
2750.18486	8564.0875
2752.76733	8589.0875
2755.3482	8581.5875
2757.92747	8562.3875
2760.50515	8585.7875
2763.08123	8582.1875
2765.65573	8582.0875
2768.22863	8571.6875
2770.79994	8570.1875
2773.36967	8573.8875
2775.9378	8567.5875
2778.50435	8549.7875
2781.06932	8569.3875
2783.6327	8562.7875
2786.1945	8564.1875
2788.75471	8545.4875
2791.31335	8529.0875
2793.87041	8541.5875
2796.42589	8507.5875
2798.97979	8528.8875
2801.53212	8521.0875
2804.08288	8504.7875
2806.63206	8496.3875
2809.17967	8494.9875
2811.72571	8481.8875
2814.27018	8474.3875
2816.81308	8448.1875
2819.35442	8461.6875
2821.89419	8467.0875
2824.43239	8449.8875
2826.96904	8449.7875
2829.50412	8461.7875
2832.03763	8454.0875
2834.56959	8468.4875
2837.1	8423.3875
2839.62884	8422.7875
2842.15613	8427.4875
2844.68186	8455.9875
2847.20604	8447.6875
2849.72867	8428.9875
2852.24974	8424.1875
2854.76927	8428.8875
2857.28724	8446.3875
2859.80367	8425.4875
2862.31855	8446.2875
2864.83189	8406.4875
2867.34368	8389.7875
2869.85393	8414.6875
2872.36264	8424.6875
2874.8698	8443.9875
2877.37543	8455.1875
2879.87952	8454.9875
2882.38207	8413.3875
2884.88308	8418.9875
2887.38256	8444.5875
2889.88051	8426.8875
2892.37692	8441.8875
2894.8718	8427.7875
2897.36515	8451.7875
2899.85698	8451.0875
2902.34727	8476.8875
2904.83604	8463.7875
2907.32328	8474.7875
2909.809	8483.7875
2912.29319	8449.4875
2914.77587	8462.8875
2917.25702	8454.2875
2919.73665	8457.6875
2922.21476	8465.7875
2924.69136	8433.4875
2927.16644	8438.9875
2929.64	8440.0875
2932.11205	8404.4875
2934.58258	8360.7875
2937.05161	8360.5875
2939.51912	8382.9875
2941.98513	8383.6875
2944.44962	8342.4875
2946.91261	8319.1875
2949.37409	8362.4875
2951.83407	8348.5875
2954.29254	8343.2875
2956.74951	8308.2875
2959.20498	8308.5875
2961.65895	8261.6875
2964.11142	8246.9875
2966.56239	8230.5875
2969.01186	8236.6875
2971.45984	8184.0875
2973.90632	8167.7875
2976.35131	8139.6875
2978.7948	8113.3875
2981.23681	8062.5875
2983.67732	8061.0875
2986.11635	8050.0875
2988.55388	8007.6875
2990.98993	7995.3875
2993.4245	7989.7875
2995.85758	7959.8875
2998.28917	7961.0875
3000.71928	7945.0875
3003.14791	7919.8875
3005.57506	7921.1875
3008.00073	7898.3875
3010.42493	7896.4875
3012.84764	7889.3875
3015.26888	7864.3875
3017.68865	7826.3875
3020.10694	7822.4875
3022.52376	7781.6875
3024.9391	7792.2875
3027.35298	7774.2875
3029.76539	7768.9875
3032.17632	7753.6875
3034.5858	7749.9875
3036.9938	7737.0875
3039.40034	7723.0875
3041.80542	7708.4875
3044.20903	7663.7875
3046.61118	7681.0875
3049.01187	7655.2875
3051.4111	7645.6875
3053.80888	7633.6875
3056.20519	7619.5875
3058.60005	7609.2875
3060.99345	7605.0875
3063.3854	7583.5875
3065.7759	7546.6875
3068.16494	7528.0875
3070.55254	7510.3875
3072.93868	7494.7875
3075.32338	7449.8875
3077.70662	7434.9875
3080.08842	7424.1875
3082.46878	7425.7875
3084.84769	7436.3875
3087.22515	7426.8875
3089.60118	7397.5875
3091.97576	7380.9875
3094.3489	7386.7875
3096.72061	7375.4875
3099.09087	7358.9875
3101.4597	7346.7875
3103.82709	7337.4875
3106.19305	7313.4875
3108.55757	7293.1875
3110.92066	7275.4875
3113.28232	7270.0875
3115.64255	7255.7875
3118.00134	7232.7875
3120.35871	7242.4875
3122.71466	7195.9875
3125.06917	7215.0875
3127.42226	7191.9875
3129.77393	7203.7875
3132.12417	7204.0875
3134.47299	7200.4875
3136.82039	7192.8875
3139.16636	7193.6875
3141.51092	7198.1875
3143.85406	7192.5875
3146.19579	7196.1875
3148.53609	7169.2875
3150.87499	7168.7875
3153.21246	7177.7875
3155.54853	7153.4875
3157.88318	7143.2875
3160.21642	7151.3875
3162.54826	7118.4875
3164.87868	7125.2875
3167.2077	7107.9875
3169.5353	7117.6875
3171.86151	7117.3875
3174.18631	7110.0875
3176.5097	7122.8875
3178.83169	7114.9875
3181.15228	7102.6875
3183.47147	7093.2875
3185.78926	7088.6875
3188.10565	7088.9875
3190.42065	7081.9875
3192.73424	7097.3875
3195.04645	7080.8875
3197.35725	7085.1875
3199.66667	7071.4875
3201.97469	7090.6875
3204.28132	7064.1875
3206.58656	7084.4875
3208.8904	7066.1875
3211.19287	7065.9875
3213.49394	7045.3875
3215.79363	7046.8875
3218.09193	7059.2875
3220.38884	7027.2875
3222.68438	7055.6875
3224.97853	7040.8875
3227.2713	7042.1875
3229.56269	7031.0875
3231.8527	7063.0875
3234.14133	7027.7875
3236.42858	6993.0875
3238.71446	7008.0875
3240.99896	7012.2875
3243.28209	7000.5875
3245.56384	6997.4875
3247.84423	7002.4875
3250.12324	6990.6875
3252.40088	6966.0875
3254.67715	6957.7875
3256.95205	6925.1875
3259.22558	6909.0875
3261.49775	6906.5875
3263.76855	6893.6875
3266.03799	6864.7875
3268.30606	6857.4875
3270.57277	6869.2875
3272.83812	6848.9875
3275.10211	6830.2875
3277.36474	6835.4875
3279.62601	6826.9875
3281.88593	6827.8875
3284.14448	6858.1875
3286.40168	6862.3875
3288.65753	6859.6875
3290.91202	6862.4875
3293.16516	6834.5875
3295.41695	6810.5875
3297.66738	6766.5875
3299.91647	6757.1875
3302.16421	6725.5875
3304.4106	6694.2875
3306.65564	6669.2875
3308.89933	6614.0875
3311.14169	6575.1875
3313.38269	6522.2875
3315.62236	6462.4875
3317.86068	6422.3875
3320.09766	6368.5875
3322.3333	6300.4875
3324.5676	6276.7875
3326.80056	6179.0875
3329.03219	6156.4875
3331.26248	2.1875
3333.49143	-0.4125
3335.71905	0.6875
