Data from AgNP_FTO_APTES_UA_100uM_CRN_5uM_R6G_10uM_NaF_0.1M_Addition_RamanShift__15__14-56-00-370.txt Node

Date: Thu Mar 24 14:56:00 GMT 2022
User: TCL
Spectrometer: QEP01345
Trigger mode: 4
Integration Time (sec): 7.000000E0
Scans to average: 10
Electric dark correction enabled: true
Nonlinearity correction enabled: false
Boxcar width: 0
XAxis mode: Raman Shifts
Number of Pixels in Spectrum: 1044
>>>>>Begin Spectral Data<<<<<
46.04893	-0.6875
50.45542	0.0125
54.85868	-0.4875
59.25871	-0.5875
63.6555	28.7125
68.04907	29.4125
72.43941	29.8125
76.82654	27.3125
81.21044	32.4125
85.59113	33.1125
89.96862	37.3125
94.34289	36.3125
98.71396	38.6125
103.08183	38.2125
107.4465	40.9125
111.80798	41.8125
116.16626	38.5125
120.52136	42.8125
124.87327	41.3125
129.222	44.8125
133.56755	48.2125
137.90993	49.1125
142.24913	57.8125
146.58517	60.9125
150.91804	75.8125
155.24774	87.9125
159.57429	108.3125
163.89768	137.9125
168.21792	181.8125
172.53501	249.3125
176.84895	344.8125
181.15975	487.2125
185.46741	689.3125
189.77193	947.1125
194.07331	1276.9125
198.37157	1648.3125
202.6667	2060.5125
206.9587	2461.5125
211.24758	2881.6125
215.53334	3308.2125
219.81599	3780.4125
224.09553	4324.7125
228.37195	4921.2125
232.64527	5572.0125
236.91549	6226.7125
241.18261	6825.3125
245.44663	7276.6125
249.70755	7613.0125
253.96539	7896.7125
258.22014	8125.3125
262.4718	8374.3125
266.72039	8536.8125
270.96589	8629.1125
275.20832	8554.1125
279.44768	8393.1125
283.68397	8165.7125
287.91719	8055.5125
292.14735	8080.9125
296.37445	8226.3125
300.59849	8576.5125
304.81948	9001.4125
309.03742	9326.3125
313.25231	9383.1125
317.46415	9043.3125
321.67296	8403.7125
325.87872	7853.3125
330.08145	7568.1125
334.28114	7544.0125
338.47781	7665.6125
342.67145	7876.7125
346.86207	8144.2125
351.04966	8599.5125
355.23424	9103.5125
359.4158	9500.5125
363.59435	9690.8125
367.76989	9725.5125
371.94243	9667.5125
376.11196	9594.3125
380.27849	9490.3125
384.44203	9378.7125
388.60257	9300.3125
392.76012	9265.1125
396.91468	9348.7125
401.06626	9558.5125
405.21485	9702.7125
409.36047	9509.0125
413.50311	9006.8125
417.64277	8478.6125
421.77947	8187.1125
425.9132	8057.4125
430.04396	8012.9125
434.17176	8006.1125
438.2966	8088.3125
442.41849	8252.9125
446.53742	8456.4125
450.6534	8646.3125
454.76644	8795.5125
458.87653	8800.9125
462.98368	8729.3125
467.08789	8630.8125
471.18916	8454.8125
475.2875	8273.2125
479.38291	8093.3125
483.4754	7960.0125
487.56496	7889.2125
491.6516	7845.1125
495.73531	7831.4125
499.81612	7870.4125
503.89401	7962.4125
507.96899	8092.5125
512.04106	8191.6125
516.11023	8320.1125
520.1765	8404.3125
524.23987	8404.0125
528.30034	8328.6125
532.35792	8240.1125
536.41261	8140.1125
540.46441	7937.6125
544.51333	7845.4125
548.55936	7852.6125
552.60252	8031.7125
556.64279	8210.6125
560.6802	8311.8125
564.71473	8419.6125
568.7464	8683.9125
572.7752	8871.4125
576.80114	8661.5125
580.82422	8507.9125
584.84444	8520.7125
588.86181	8593.4125
592.87633	8640.0125
596.888	8722.1125
600.89682	8969.8125
604.9028	9988.0125
608.90594	12920.0125
612.90624	16747.1125
616.90371	16207.8125
620.89834	11137.7125
624.89015	8591.4125
628.87913	8130.3125
632.86528	8314.1125
636.84862	8540.6125
640.82913	8459.3125
644.80683	8012.3125
648.78172	7665.4125
652.75379	7643.1125
656.72306	7986.3125
660.68952	8445.9125
664.65319	8349.3125
668.61405	7884.5125
672.57211	7674.8125
676.52738	7693.3125
680.47986	7654.1125
684.42955	7527.9125
688.37646	7435.0125
692.32058	7447.5125
696.26192	7514.9125
700.20048	7640.9125
704.13626	7708.9125
708.06928	7688.5125
711.99952	7617.6125
715.927	7600.3125
719.85171	7657.5125
723.77365	7702.5125
727.69284	7658.8125
731.60928	7589.1125
735.52295	7566.0125
739.43388	7592.5125
743.34206	7620.2125
747.24749	7632.1125
751.15017	7639.4125
755.05012	7725.5125
758.94733	8090.0125
762.8418	9133.5125
766.73354	10974.3125
770.62254	12829.7125
774.50882	13708.6125
778.39237	13106.3125
782.27321	11341.9125
786.15132	9536.8125
790.02671	8376.0125
793.89938	7839.6125
797.76935	7600.3125
801.6366	7484.1125
805.50115	7424.1125
809.36299	7361.3125
813.22213	7329.8125
817.07857	7290.5125
820.93231	7280.1125
824.78336	7316.3125
828.63172	7331.7125
832.47738	7330.2125
836.32036	7306.1125
840.16066	7264.1125
843.99827	7246.6125
847.8332	7203.1125
851.66546	7236.0125
855.49504	7225.7125
859.32195	7243.0125
863.1462	7229.6125
866.96777	7219.3125
870.78668	7219.8125
874.60293	7240.8125
878.41652	7259.7125
882.22745	7347.7125
886.03573	7387.0125
889.84136	7388.8125
893.64433	7331.8125
897.44466	7303.6125
901.24235	7274.4125
905.0374	7235.7125
908.8298	7166.5125
912.61957	7128.1125
916.40671	7127.3125
920.19121	7158.6125
923.97308	7240.0125
927.75233	7379.3125
931.52895	7485.3125
935.30295	7413.1125
939.07433	7189.9125
942.84309	6976.0125
946.60924	6858.5125
950.37278	6815.1125
954.13371	6798.4125
957.89203	6765.0125
961.64774	6742.7125
965.40086	6715.0125
969.15137	6716.3125
972.89929	6713.1125
976.64461	6705.6125
980.38733	6706.3125
984.12747	6725.2125
987.86502	6750.5125
991.59999	6799.1125
995.33237	6891.2125
999.06217	6982.9125
1002.78939	7139.8125
1006.51404	7305.7125
1010.23611	7487.3125
1013.95561	7599.5125
1017.67255	7568.3125
1021.38692	7488.3125
1025.09872	7348.3125
1028.80796	7200.9125
1032.51465	7196.1125
1036.21877	7241.7125
1039.92035	7314.3125
1043.61937	7354.3125
1047.31584	7371.4125
1051.00976	7378.8125
1054.70114	7378.0125
1058.38998	7368.1125
1062.07627	7378.5125
1065.76003	7420.8125
1069.44126	7496.1125
1073.11995	7659.4125
1076.79611	7845.9125
1080.46974	8047.6125
1084.14085	8266.2125
1087.80943	8518.4125
1091.47549	8602.2125
1095.13903	8476.1125
1098.80005	8176.3125
1102.45857	7967.0125
1106.11456	7865.2125
1109.76805	7909.9125
1113.41903	8077.0125
1117.06751	8384.5125
1120.71348	8789.9125
1124.35696	9235.5125
1127.99793	9647.9125
1131.63641	9584.8125
1135.2724	9107.4125
1138.90589	8606.4125
1142.5369	8306.6125
1146.16542	8088.2125
1149.79145	7905.0125
1153.415	7844.1125
1157.03607	7900.0125
1160.65467	8066.8125
1164.27079	8438.1125
1167.88443	8950.7125
1171.49561	9743.7125
1175.10432	11022.9125
1178.71056	12774.0125
1182.31434	14178.0125
1185.91565	14608.9125
1189.51451	14169.0125
1193.11091	13258.5125
1196.70485	12178.9125
1200.29634	11297.4125
1203.88538	10587.2125
1207.47197	9787.5125
1211.05612	9111.1125
1214.63782	8692.6125
1218.21708	8515.2125
1221.79391	8471.3125
1225.36829	8481.2125
1228.94024	8476.9125
1232.50976	8416.7125
1236.07685	8359.2125
1239.6415	8328.9125
1243.20374	8342.2125
1246.76355	8410.2125
1250.32093	8509.7125
1253.8759	8693.5125
1257.42845	8943.3125
1260.97859	9301.7125
1264.52631	9741.7125
1268.07163	10160.1125
1271.61453	10538.6125
1275.15503	10786.8125
1278.69312	10945.6125
1282.22882	11056.9125
1285.76211	11356.5125
1289.29301	11753.1125
1292.82151	12212.0125
1296.34761	12663.0125
1299.87133	13429.8125
1303.39266	14718.1125
1306.9116	16685.1125
1310.42815	18826.1125
1313.94233	19777.5125
1317.45412	18911.8125
1320.96354	17130.1125
1324.47058	15443.3125
1327.97525	14037.9125
1331.47754	13151.9125
1334.97747	12677.1125
1338.47502	12656.5125
1341.97022	12989.6125
1345.46305	13807.7125
1348.95352	15045.5125
1352.44163	16680.3125
1355.92738	18757.7125
1359.41078	21831.0125
1362.89183	24741.9125
1366.37053	23946.5125
1369.84688	19554.1125
1373.32088	15407.3125
1376.79254	13030.8125
1380.26186	11781.0125
1383.72883	11033.1125
1387.19347	10439.0125
1390.65578	9913.6125
1394.11575	9459.7125
1397.57339	9220.6125
1401.0287	9112.9125
1404.48168	9052.9125
1407.93234	9058.0125
1411.38068	9094.6125
1414.82669	9133.0125
1418.27039	9201.0125
1421.71177	9163.2125
1425.15083	9023.8125
1428.58758	8930.8125
1432.02203	9020.5125
1435.45416	9212.1125
1438.88399	9304.1125
1442.31151	9289.7125
1445.73673	9370.9125
1449.15965	9422.8125
1452.58027	9424.6125
1455.9986	9363.8125
1459.41463	9409.7125
1462.82837	9552.8125
1466.23982	9829.5125
1469.64898	10139.9125
1473.05586	10400.3125
1476.46045	10534.3125
1479.86276	10736.7125
1483.26279	10972.4125
1486.66054	11324.5125
1490.05602	11879.9125
1493.44922	12689.3125
1496.84016	13997.8125
1500.22882	16018.1125
1503.61521	18847.8125
1506.99934	21937.2125
1510.38121	24193.9125
1513.76081	24339.2125
1517.13816	21978.8125
1520.51324	18379.3125
1523.88607	15257.7125
1527.25665	13241.5125
1530.62498	12081.8125
1533.99105	11428.2125
1537.35488	10940.6125
1540.71647	10658.5125
1544.07581	10421.9125
1547.4329	10338.9125
1550.78776	10309.2125
1554.14038	10378.8125
1557.49077	10554.1125
1560.83892	10819.0125
1564.18484	11303.9125
1567.52853	11919.3125
1570.86999	12456.6125
1574.20922	12743.2125
1577.54624	12558.1125
1580.88103	11727.5125
1584.2136	10582.9125
1587.54395	9885.4125
1590.87208	9806.2125
1594.19801	10275.9125
1597.52172	11088.4125
1600.84321	11463.5125
1604.16251	11128.9125
1607.47959	10496.3125
1610.79447	9917.8125
1614.10715	9250.9125
1617.41763	8629.5125
1620.7259	8180.0125
1624.03199	7953.1125
1627.33587	7941.1125
1630.63757	8133.7125
1633.93707	8574.3125
1637.23439	9363.7125
1640.52951	10748.3125
1643.82246	12775.2125
1647.11321	15234.0125
1650.40179	16902.9125
1653.68819	16408.5125
1656.97241	13928.7125
1660.25446	11151.8125
1663.53433	9194.6125
1666.81203	8068.8125
1670.08756	7434.1125
1673.36092	7047.9125
1676.63211	6795.7125
1679.90115	6651.0125
1683.16801	6531.8125
1686.43272	6428.9125
1689.69527	6375.0125
1692.95567	6328.2125
1696.2139	6303.3125
1699.46999	6283.7125
1702.72392	6271.0125
1705.97571	6244.6125
1709.22535	6200.7125
1712.47284	6221.0125
1715.71819	6218.2125
1718.96139	6196.8125
1722.20246	6158.2125
1725.44139	6112.1125
1728.67818	6063.9125
1731.91284	6003.1125
1735.14537	5956.3125
1738.37576	5942.0125
1741.60403	5911.4125
1744.83017	5883.2125
1748.05418	5870.5125
1751.27607	5838.5125
1754.49584	5837.2125
1757.71349	5832.0125
1760.92903	5813.4125
1764.14244	5799.7125
1767.35375	5790.0125
1770.56294	5767.0125
1773.77002	5732.9125
1776.97499	5715.5125
1780.17785	5677.7125
1783.37861	5665.6125
1786.57727	5638.5125
1789.77382	5639.1125
1792.96828	5613.9125
1796.16064	5598.1125
1799.3509	5600.9125
1802.53907	5576.9125
1805.72514	5535.3125
1808.90913	5536.7125
1812.09102	5526.3125
1815.27083	5518.5125
1818.44856	5499.6125
1821.6242	5479.6125
1824.79776	5488.8125
1827.96924	5474.1125
1831.13864	5458.3125
1834.30597	5462.5125
1837.47122	5446.0125
1840.6344	5430.9125
1843.7955	5437.8125
1846.95454	5421.7125
1850.11151	5417.7125
1853.26642	5432.3125
1856.41926	5400.2125
1859.57004	5391.2125
1862.71876	5402.7125
1865.86542	5397.0125
1869.01003	5391.5125
1872.15258	5378.8125
1875.29308	5371.5125
1878.43152	5352.1125
1881.56792	5373.3125
1884.70227	5371.6125
1887.83457	5359.8125
1890.96482	5360.5125
1894.09304	5332.3125
1897.21921	5329.0125
1900.34335	5341.3125
1903.46544	5317.9125
1906.58551	5328.8125
1909.70353	5308.2125
1912.81953	5312.3125
1915.93349	5309.1125
1919.04543	5298.7125
1922.15534	5265.7125
1925.26322	5270.0125
1928.36908	5240.4125
1931.47292	5224.3125
1934.57473	5189.4125
1937.67453	5171.1125
1940.77232	5182.9125
1943.86808	5146.1125
1946.96184	5140.7125
1950.05358	5146.6125
1953.14331	5106.9125
1956.23103	5101.1125
1959.31675	5098.9125
1962.40046	5088.7125
1965.48217	5063.2125
1968.56188	5071.7125
1971.63959	5058.8125
1974.7153	5021.3125
1977.78901	5005.6125
1980.86073	4999.6125
1983.93046	4983.2125
1986.99819	4963.9125
1990.06394	4944.3125
1993.1277	4928.6125
1996.18947	4905.5125
1999.24925	4896.6125
2002.30706	4861.9125
2005.36288	4843.8125
2008.41672	4828.0125
2011.46859	4821.2125
2014.51848	4802.7125
2017.56639	4798.3125
2020.61233	4770.5125
2023.6563	4761.4125
2026.6983	4754.8125
2029.73833	4753.6125
2032.7764	4708.2125
2035.8125	4728.2125
2038.84664	4715.2125
2041.87881	4702.0125
2044.90903	4702.4125
2047.93729	4688.3125
2050.96359	4658.8125
2053.98794	4678.3125
2057.01034	4675.3125
2060.03078	4646.8125
2063.04927	4631.3125
2066.06582	4631.1125
2069.08042	4622.7125
2072.09307	4620.3125
2075.10378	4626.7125
2078.11255	4635.6125
2081.11938	4628.9125
2084.12426	4613.5125
2087.12722	4627.3125
2090.12824	4641.9125
2093.12732	4624.2125
2096.12447	4642.2125
2099.11969	4629.0125
2102.11299	4616.2125
2105.10435	4618.8125
2108.09379	4628.2125
2111.08131	4640.2125
2114.0669	4648.7125
2117.05057	4648.1125
2120.03233	4642.1125
2123.01216	4657.3125
2125.99008	4659.4125
2128.96609	4656.1125
2131.94018	4664.9125
2134.91236	4653.9125
2137.88263	4656.9125
2140.851	4670.4125
2143.81746	4657.4125
2146.78201	4660.3125
2149.74466	4669.5125
2152.7054	4653.4125
2155.66425	4641.7125
2158.6212	4656.8125
2161.57625	4656.7125
2164.52941	4637.4125
2167.48067	4624.1125
2170.43004	4644.5125
2173.37752	4633.5125
2176.32311	4627.3125
2179.26681	4638.5125
2182.20863	4636.2125
2185.14856	4623.7125
2188.08661	4600.7125
2191.02278	4605.0125
2193.95707	4605.7125
2196.88948	4600.6125
2199.82001	4598.5125
2202.74867	4593.7125
2205.67545	4583.6125
2208.60037	4580.1125
2211.52341	4563.6125
2214.44458	4569.4125
2217.36388	4559.6125
2220.28132	4562.2125
2223.1969	4546.5125
2226.11061	4524.7125
2229.02246	4512.5125
2231.93245	4498.3125
2234.84058	4511.1125
2237.74686	4497.4125
2240.65128	4484.6125
2243.55385	4486.3125
2246.45456	4474.2125
2249.35343	4484.8125
2252.25044	4479.3125
2255.14561	4482.6125
2258.03893	4484.7125
2260.93041	4478.5125
2263.82004	4469.4125
2266.70783	4457.8125
2269.59378	4455.3125
2272.4779	4460.4125
2275.36017	4435.8125
2278.24061	4430.7125
2281.11922	4421.1125
2283.996	4424.2125
2286.87094	4385.5125
2289.74405	4403.0125
2292.61534	4380.7125
2295.4848	4386.3125
2298.35243	4360.3125
2301.21824	4354.2125
2304.08223	4354.4125
2306.94439	4352.7125
2309.80474	4363.9125
2312.66327	4349.7125
2315.51999	4346.7125
2318.37489	4345.3125
2321.22797	4340.4125
2324.07925	4343.2125
2326.92871	4344.8125
2329.77637	4335.4125
2332.62222	4322.8125
2335.46626	4332.1125
2338.3085	4318.0125
2341.14893	4329.1125
2343.98756	4312.3125
2346.8244	4324.0125
2349.65943	4323.3125
2352.49267	4327.4125
2355.32411	4335.5125
2358.15376	4344.4125
2360.98161	4349.7125
2363.80768	4350.7125
2366.63195	4372.5125
2369.45444	4363.8125
2372.27514	4364.0125
2375.09405	4337.1125
2377.91118	4335.5125
2380.72652	4318.2125
2383.54009	4295.5125
2386.35187	4276.8125
2389.16188	4265.6125
2391.97011	4265.0125
2394.77657	4230.7125
2397.58125	4225.6125
2400.38416	4221.0125
2403.18529	4203.1125
2405.98466	4196.6125
2408.78226	4203.4125
2411.57809	4173.6125
2414.37216	4164.1125
2417.16446	4154.8125
2419.955	4154.0125
2422.74378	4142.8125
2425.5308	4169.5125
2428.31606	4157.3125
2431.09956	4175.0125
2433.88131	4162.2125
2436.6613	4159.4125
2439.43954	4168.0125
2442.21603	4165.7125
2444.99077	4153.1125
2447.76377	4177.1125
2450.53501	4177.8125
2453.30451	4165.4125
2456.07226	4152.2125
2458.83827	4152.5125
2461.60254	4152.2125
2464.36507	4162.3125
2467.12586	4165.3125
2469.88492	4171.9125
2472.64224	4173.3125
2475.39782	4153.8125
2478.15167	4176.7125
2480.90379	4177.3125
2483.65417	4189.0125
2486.40283	4203.1125
2489.14976	4194.1125
2491.89497	4199.5125
2494.63845	4194.4125
2497.3802	4177.6125
2500.12024	4182.3125
2502.85855	4167.3125
2505.59514	4168.5125
2508.33002	4134.0125
2511.06318	4126.3125
2513.79462	4111.7125
2516.52435	4095.3125
2519.25237	4088.7125
2521.97867	4089.2125
2524.70327	4067.6125
2527.42616	4054.3125
2530.14734	4040.3125
2532.86681	4041.3125
2535.58458	4035.6125
2538.30065	4049.2125
2541.01501	4042.3125
2543.72768	4038.6125
2546.43864	4035.3125
2549.14791	4027.2125
2551.85548	4027.2125
2554.56136	4031.8125
2557.26554	4019.7125
2559.96803	4014.6125
2562.66883	4022.4125
2565.36794	4012.2125
2568.06536	4002.5125
2570.7611	4014.3125
2573.45514	3986.9125
2576.14751	3993.7125
2578.83819	3986.1125
2581.52719	3981.3125
2584.21451	3964.8125
2586.90015	3963.3125
2589.58411	3940.5125
2592.2664	3950.2125
2594.94701	3941.4125
2597.62594	3934.3125
2600.30321	3925.3125
2602.9788	3917.7125
2605.65273	3925.3125
2608.32498	3919.7125
2610.99557	3914.4125
2613.66449	3905.8125
2616.33175	3907.0125
2618.99734	3896.7125
2621.66128	3893.2125
2624.32355	3889.8125
2626.98416	3897.4125
2629.64311	3889.3125
2632.30041	3869.3125
2634.95605	3858.3125
2637.61004	3865.8125
2640.26238	3851.9125
2642.91306	3859.3125
2645.56209	3851.3125
2648.20948	3844.6125
2650.85521	3855.9125
2653.4993	3842.4125
2656.14175	3853.2125
2658.78255	3848.7125
2661.42171	3847.2125
2664.05923	3858.6125
2666.6951	3862.3125
2669.32934	3853.5125
2671.96194	3865.2125
2674.59291	3872.9125
2677.22224	3866.4125
2679.84993	3860.7125
2682.476	3860.9125
2685.10043	3862.9125
2687.72324	3854.1125
2690.34441	3852.5125
2692.96396	3864.4125
2695.58188	3861.2125
2698.19818	3857.7125
2700.81285	3850.9125
2703.4259	3854.9125
2706.03733	3867.0125
2708.64714	3853.1125
2711.25533	3861.3125
2713.86191	3861.1125
2716.46687	3867.9125
2719.07021	3865.7125
2721.67194	3867.2125
2724.27206	3861.0125
2726.87057	3865.3125
2729.46747	3854.4125
2732.06276	3842.3125
2734.65644	3838.6125
2737.24852	3837.0125
2739.83899	3828.6125
2742.42786	3816.2125
2745.01513	3815.7125
2747.60079	3807.0125
2750.18486	3813.3125
2752.76733	3808.5125
2755.3482	3813.6125
2757.92747	3798.8125
2760.50515	3784.4125
2763.08123	3771.8125
2765.65573	3796.5125
2768.22863	3772.0125
2770.79994	3762.6125
2773.36967	3768.8125
2775.9378	3767.2125
2778.50435	3777.9125
2781.06932	3763.2125
2783.6327	3758.2125
2786.1945	3745.0125
2788.75471	3740.2125
2791.31335	3740.6125
2793.87041	3736.9125
2796.42589	3727.1125
2798.97979	3739.2125
2801.53212	3737.5125
2804.08288	3717.5125
2806.63206	3739.3125
2809.17967	3745.9125
2811.72571	3725.5125
2814.27018	3714.7125
2816.81308	3723.7125
2819.35442	3733.8125
2821.89419	3729.4125
2824.43239	3733.8125
2826.96904	3730.8125
2829.50412	3733.3125
2832.03763	3725.6125
2834.56959	3723.6125
2837.1	3730.2125
2839.62884	3714.6125
2842.15613	3699.5125
2844.68186	3712.8125
2847.20604	3714.9125
2849.72867	3733.0125
2852.24974	3712.8125
2854.76927	3723.4125
2857.28724	3728.2125
2859.80367	3718.4125
2862.31855	3722.4125
2864.83189	3732.2125
2867.34368	3724.2125
2869.85393	3739.8125
2872.36264	3737.6125
2874.8698	3748.3125
2877.37543	3759.9125
2879.87952	3742.7125
2882.38207	3738.4125
2884.88308	3734.6125
2887.38256	3728.5125
2889.88051	3726.2125
2892.37692	3714.3125
2894.8718	3713.6125
2897.36515	3722.5125
2899.85698	3723.4125
2902.34727	3719.7125
2904.83604	3717.1125
2907.32328	3721.2125
2909.809	3725.4125
2912.29319	3737.4125
2914.77587	3721.4125
2917.25702	3725.9125
2919.73665	3722.8125
2922.21476	3724.1125
2924.69136	3710.2125
2927.16644	3706.6125
2929.64	3702.4125
2932.11205	3688.9125
2934.58258	3681.8125
2937.05161	3673.5125
2939.51912	3677.5125
2941.98513	3662.7125
2944.44962	3671.7125
2946.91261	3648.7125
2949.37409	3657.7125
2951.83407	3661.6125
2954.29254	3663.9125
2956.74951	3640.1125
2959.20498	3643.7125
2961.65895	3652.3125
2964.11142	3643.8125
2966.56239	3624.1125
2969.01186	3620.5125
2971.45984	3616.2125
2973.90632	3609.9125
2976.35131	3605.3125
2978.7948	3587.9125
2981.23681	3581.9125
2983.67732	3584.4125
2986.11635	3566.6125
2988.55388	3557.6125
2990.98993	3564.8125
2993.4245	3557.7125
2995.85758	3555.4125
2998.28917	3555.6125
3000.71928	3540.2125
3003.14791	3539.9125
3005.57506	3545.1125
3008.00073	3515.7125
3010.42493	3532.4125
3012.84764	3533.5125
3015.26888	3538.8125
3017.68865	3531.3125
3020.10694	3520.9125
3022.52376	3511.4125
3024.9391	3503.5125
3027.35298	3492.6125
3029.76539	3496.9125
3032.17632	3481.2125
3034.5858	3486.4125
3036.9938	3475.5125
3039.40034	3462.6125
3041.80542	3458.3125
3044.20903	3441.7125
3046.61118	3451.3125
3049.01187	3438.0125
3051.4111	3434.2125
3053.80888	3436.8125
3056.20519	3433.9125
3058.60005	3418.8125
3060.99345	3415.6125
3063.3854	3416.4125
3065.7759	3400.0125
3068.16494	3417.9125
3070.55254	3404.0125
3072.93868	3382.2125
3075.32338	3385.5125
3077.70662	3384.9125
3080.08842	3377.1125
3082.46878	3369.7125
3084.84769	3369.5125
3087.22515	3364.2125
3089.60118	3380.4125
3091.97576	3374.7125
3094.3489	3369.1125
3096.72061	3376.4125
3099.09087	3373.3125
3101.4597	3371.5125
3103.82709	3383.0125
3106.19305	3387.0125
3108.55757	3370.3125
3110.92066	3353.5125
3113.28232	3371.2125
3115.64255	3361.1125
3118.00134	3359.5125
3120.35871	3344.1125
3122.71466	3360.2125
3125.06917	3350.1125
3127.42226	3347.4125
3129.77393	3355.6125
3132.12417	3346.7125
3134.47299	3359.6125
3136.82039	3356.2125
3139.16636	3357.6125
3141.51092	3364.5125
3143.85406	3373.8125
3146.19579	3370.8125
3148.53609	3384.4125
3150.87499	3395.3125
3153.21246	3387.3125
3155.54853	3395.7125
3157.88318	3376.0125
3160.21642	3396.4125
3162.54826	3387.6125
3164.87868	3396.5125
3167.2077	3400.1125
3169.5353	3388.4125
3171.86151	3379.7125
3174.18631	3383.8125
3176.5097	3393.2125
3178.83169	3389.8125
3181.15228	3387.0125
3183.47147	3383.3125
3185.78926	3388.7125
3188.10565	3386.6125
3190.42065	3386.3125
3192.73424	3383.4125
3195.04645	3397.6125
3197.35725	3394.3125
3199.66667	3403.0125
3201.97469	3410.5125
3204.28132	3415.0125
3206.58656	3431.9125
3208.8904	3439.2125
3211.19287	3421.7125
3213.49394	3435.8125
3215.79363	3431.8125
3218.09193	3436.6125
3220.38884	3440.3125
3222.68438	3442.5125
3224.97853	3433.1125
3227.2713	3442.8125
3229.56269	3426.2125
3231.8527	3442.5125
3234.14133	3421.4125
3236.42858	3418.6125
3238.71446	3416.1125
3240.99896	3426.3125
3243.28209	3417.5125
3245.56384	3415.3125
3247.84423	3419.0125
3250.12324	3418.9125
3252.40088	3397.0125
3254.67715	3393.6125
3256.95205	3407.2125
3259.22558	3388.3125
3261.49775	3396.9125
3263.76855	3388.8125
3266.03799	3374.3125
3268.30606	3384.0125
3270.57277	3379.9125
3272.83812	3389.3125
3275.10211	3386.6125
3277.36474	3376.8125
3279.62601	3382.8125
3281.88593	3384.5125
3284.14448	3379.6125
3286.40168	3382.6125
3288.65753	3385.1125
3290.91202	3388.9125
3293.16516	3377.3125
3295.41695	3382.9125
3297.66738	3350.6125
3299.91647	3355.5125
3302.16421	3349.8125
3304.4106	3341.7125
3306.65564	3314.5125
3308.89933	3295.7125
3311.14169	3283.5125
3313.38269	3266.0125
3315.62236	3233.6125
3317.86068	3210.3125
3320.09766	3176.8125
3322.3333	3143.1125
3324.5676	3157.6125
3326.80056	3117.1125
3329.03219	3092.9125
3331.26248	1.7125
3333.49143	-0.3875
3335.71905	0.8125
