Data from AgNP_FTO_APTES_UA_100uM_CRN_10uM_R6G_10uM_NaF_0.1M_Addition_RamanShift__45__16-09-30-455.txt Node

Date: Thu Mar 24 16:09:30 GMT 2022
User: TCL
Spectrometer: QEP01345
Trigger mode: 4
Integration Time (sec): 7.000000E0
Scans to average: 10
Electric dark correction enabled: true
Nonlinearity correction enabled: false
Boxcar width: 0
XAxis mode: Raman Shifts
Number of Pixels in Spectrum: 1044
>>>>>Begin Spectral Data<<<<<
46.04893	-1.1875
50.45542	0.2125
54.85868	-0.7875
59.25871	0.8125
63.6555	31.2125
68.04907	36.1125
72.43941	34.0125
76.82654	33.3125
81.21044	37.5125
85.59113	37.7125
89.96862	41.4125
94.34289	38.4125
98.71396	43.5125
103.08183	40.5125
107.4465	44.4125
111.80798	47.6125
116.16626	43.6125
120.52136	45.5125
124.87327	45.2125
129.222	49.0125
133.56755	53.5125
137.90993	54.9125
142.24913	68.8125
146.58517	68.9125
150.91804	84.7125
155.24774	99.9125
159.57429	123.0125
163.89768	161.4125
168.21792	211.4125
172.53501	296.8125
176.84895	409.3125
181.15975	579.3125
185.46741	806.0125
189.77193	1125.9125
194.07331	1499.3125
198.37157	1950.8125
202.6667	2442.6125
206.9587	2924.1125
211.24758	3437.7125
215.53334	3984.1125
219.81599	4612.8125
224.09553	5346.5125
228.37195	6142.6125
232.64527	6996.9125
236.91549	7825.8125
241.18261	8525.6125
245.44663	9025.2125
249.70755	9356.2125
253.96539	9633.7125
258.22014	9902.9125
262.4718	10195.6125
266.72039	10327.6125
270.96589	10353.9125
275.20832	10188.3125
279.44768	9911.8125
283.68397	9622.4125
287.91719	9469.8125
292.14735	9504.6125
296.37445	9882.3125
300.59849	10484.1125
304.81948	11265.1125
309.03742	11826.1125
313.25231	11958.4125
317.46415	11402.1125
321.67296	10368.2125
325.87872	9416.2125
330.08145	8958.0125
334.28114	8892.3125
338.47781	9044.0125
342.67145	9335.7125
346.86207	9818.9125
351.04966	10546.5125
355.23424	11392.8125
359.4158	12014.4125
363.59435	12256.5125
367.76989	12239.3125
371.94243	12062.6125
376.11196	11894.3125
380.27849	11711.7125
384.44203	11452.5125
388.60257	11240.8125
392.76012	11090.2125
396.91468	11159.6125
401.06626	11519.0125
405.21485	11717.4125
409.36047	11309.9125
413.50311	10426.5125
417.64277	9609.8125
421.77947	9165.3125
425.9132	8948.8125
430.04396	8910.2125
434.17176	8958.4125
438.2966	9095.3125
442.41849	9400.0125
446.53742	9804.7125
450.6534	10133.0125
454.76644	10290.3125
458.87653	10229.1125
462.98368	10000.8125
467.08789	9752.3125
471.18916	9452.1125
475.2875	9151.0125
479.38291	8878.6125
483.4754	8667.8125
487.56496	8487.6125
491.6516	8376.3125
495.73531	8361.9125
499.81612	8399.0125
503.89401	8538.1125
507.96899	8684.4125
512.04106	8877.7125
516.11023	9076.3125
520.1765	9236.0125
524.23987	9256.1125
528.30034	9168.5125
532.35792	9034.2125
536.41261	8848.7125
540.46441	8537.8125
544.51333	8340.7125
548.55936	8401.4125
552.60252	8679.5125
556.64279	9057.2125
560.6802	9240.2125
564.71473	9456.4125
568.7464	10024.7125
572.7752	10340.3125
576.80114	9862.0125
580.82422	9379.0125
584.84444	9266.1125
588.86181	9472.4125
592.87633	9798.6125
596.888	10077.9125
600.89682	10272.8125
604.9028	11698.7125
608.90594	16305.4125
612.90624	22589.9125
616.90371	21360.9125
620.89834	13290.7125
624.89015	9458.9125
628.87913	8789.8125
632.86528	9030.3125
636.84862	9339.3125
640.82913	9061.8125
644.80683	8355.8125
648.78172	7856.5125
652.75379	7840.4125
656.72306	8395.3125
660.68952	9073.7125
664.65319	8866.3125
668.61405	8092.3125
672.57211	7750.9125
676.52738	7719.2125
680.47986	7710.4125
684.42955	7550.2125
688.37646	7428.1125
692.32058	7433.9125
696.26192	7538.0125
700.20048	7701.5125
704.13626	7815.7125
708.06928	7762.5125
711.99952	7694.1125
715.927	7671.9125
719.85171	7801.0125
723.77365	7850.2125
727.69284	7786.6125
731.60928	7721.3125
735.52295	7677.9125
739.43388	7732.2125
743.34206	7808.8125
747.24749	7806.6125
751.15017	7805.6125
755.05012	7968.5125
758.94733	8636.1125
762.8418	10361.7125
766.73354	13277.6125
770.62254	16109.5125
774.50882	17300.5125
778.39237	16242.2125
782.27321	13343.9125
786.15132	10498.0125
790.02671	8795.3125
793.89938	8036.9125
797.76935	7694.5125
801.6366	7573.3125
805.50115	7503.2125
809.36299	7430.0125
813.22213	7377.0125
817.07857	7344.1125
820.93231	7316.8125
824.78336	7342.4125
828.63172	7408.5125
832.47738	7431.1125
836.32036	7390.7125
840.16066	7301.8125
843.99827	7249.9125
847.8332	7210.2125
851.66546	7207.5125
855.49504	7208.9125
859.32195	7218.3125
863.1462	7154.8125
866.96777	7132.6125
870.78668	7133.2125
874.60293	7167.0125
878.41652	7238.2125
882.22745	7314.9125
886.03573	7375.7125
889.84136	7370.7125
893.64433	7320.2125
897.44466	7290.0125
901.24235	7246.4125
905.0374	7180.8125
908.8298	7104.1125
912.61957	7022.8125
916.40671	7035.1125
920.19121	7116.3125
923.97308	7258.5125
927.75233	7459.5125
931.52895	7639.9125
935.30295	7524.0125
939.07433	7165.1125
942.84309	6889.6125
946.60924	6731.4125
950.37278	6641.4125
954.13371	6572.1125
957.89203	6546.7125
961.64774	6509.8125
965.40086	6499.7125
969.15137	6466.9125
972.89929	6417.9125
976.64461	6428.0125
980.38733	6433.7125
984.12747	6465.5125
987.86502	6500.5125
991.59999	6578.6125
995.33237	6702.6125
999.06217	6924.1125
1002.78939	7207.7125
1006.51404	7481.1125
1010.23611	7740.4125
1013.95561	7807.0125
1017.67255	7779.0125
1021.38692	7601.7125
1025.09872	7360.9125
1028.80796	7250.5125
1032.51465	7291.0125
1036.21877	7435.3125
1039.92035	7535.1125
1043.61937	7553.9125
1047.31584	7517.0125
1051.00976	7443.2125
1054.70114	7342.0125
1058.38998	7305.7125
1062.07627	7318.9125
1065.76003	7352.1125
1069.44126	7401.4125
1073.11995	7541.3125
1076.79611	7757.6125
1080.46974	8078.3125
1084.14085	8515.2125
1087.80943	8899.4125
1091.47549	9049.1125
1095.13903	8780.1125
1098.80005	8287.1125
1102.45857	7971.6125
1106.11456	7885.9125
1109.76805	8071.7125
1113.41903	8431.8125
1117.06751	9060.9125
1120.71348	9826.0125
1124.35696	10671.5125
1127.99793	11226.6125
1131.63641	10890.8125
1135.2724	9984.8125
1138.90589	9196.2125
1142.5369	8704.9125
1146.16542	8359.3125
1149.79145	8191.1125
1153.415	8143.2125
1157.03607	8239.7125
1160.65467	8566.9125
1164.27079	9101.9125
1167.88443	9933.3125
1171.49561	11212.8125
1175.10432	13251.1125
1178.71056	16000.8125
1182.31434	18186.9125
1185.91565	18692.0125
1189.51451	17677.0125
1193.11091	16036.0125
1196.70485	14279.6125
1200.29634	13018.9125
1203.88538	12056.9125
1207.47197	10920.6125
1211.05612	9940.2125
1214.63782	9390.9125
1218.21708	9201.7125
1221.79391	9201.2125
1225.36829	9256.2125
1228.94024	9208.9125
1232.50976	8991.9125
1236.07685	8834.8125
1239.6415	8785.5125
1243.20374	8841.1125
1246.76355	8922.7125
1250.32093	9081.5125
1253.8759	9344.3125
1257.42845	9769.0125
1260.97859	10317.5125
1264.52631	10925.1125
1268.07163	11506.9125
1271.61453	12042.1125
1275.15503	12358.9125
1278.69312	12550.8125
1282.22882	12844.1125
1285.76211	13364.5125
1289.29301	14094.0125
1292.82151	14877.1125
1296.34761	15736.5125
1299.87133	17121.0125
1303.39266	19494.4125
1306.9116	23007.9125
1310.42815	26691.0125
1313.94233	28068.0125
1317.45412	26231.9125
1320.96354	23012.9125
1324.47058	19906.2125
1327.97525	17441.2125
1331.47754	15922.8125
1334.97747	15289.6125
1338.47502	15332.2125
1341.97022	15982.8125
1345.46305	17279.1125
1348.95352	19296.2125
1352.44163	21867.3125
1355.92738	25631.0125
1359.41078	31268.2125
1362.89183	36113.7125
1366.37053	33774.1125
1369.84688	26108.9125
1373.32088	19732.9125
1376.79254	16246.4125
1380.26186	14485.9125
1383.72883	13409.6125
1387.19347	12498.3125
1390.65578	11763.8125
1394.11575	11272.2125
1397.57339	11100.6125
1401.0287	11129.8125
1404.48168	11166.6125
1407.93234	11154.3125
1411.38068	11144.3125
1414.82669	11197.6125
1418.27039	11090.5125
1421.71177	10806.0125
1425.15083	10456.5125
1428.58758	10396.1125
1432.02203	10638.8125
1435.45416	10968.9125
1438.88399	11080.5125
1442.31151	11044.5125
1445.73673	11142.5125
1449.15965	11238.4125
1452.58027	11161.5125
1455.9986	11018.4125
1459.41463	11001.5125
1462.82837	11237.6125
1466.23982	11688.3125
1469.64898	12161.1125
1473.05586	12456.6125
1476.46045	12586.3125
1479.86276	12763.1125
1483.26279	13090.7125
1486.66054	13623.5125
1490.05602	14505.0125
1493.44922	15748.2125
1496.84016	17715.0125
1500.22882	20882.7125
1503.61521	25304.7125
1506.99934	30319.4125
1510.38121	34020.9125
1513.76081	34003.6125
1517.13816	29842.6125
1520.51324	23996.8125
1523.88607	19186.1125
1527.25665	16259.8125
1530.62498	14766.9125
1533.99105	13880.4125
1537.35488	13237.8125
1540.71647	12745.8125
1544.07581	12457.0125
1547.4329	12318.7125
1550.78776	12292.6125
1554.14038	12401.7125
1557.49077	12631.3125
1560.83892	13086.1125
1564.18484	13813.7125
1567.52853	14735.9125
1570.86999	15373.6125
1574.20922	15792.6125
1577.54624	15565.0125
1580.88103	14257.4125
1584.2136	12568.0125
1587.54395	11682.6125
1590.87208	11747.2125
1594.19801	12762.6125
1597.52172	14107.7125
1600.84321	14661.6125
1604.16251	14053.2125
1607.47959	12914.2125
1610.79447	11684.9125
1614.10715	10505.5125
1617.41763	9528.9125
1620.7259	8904.7125
1624.03199	8645.0125
1627.33587	8705.1125
1630.63757	9079.7125
1633.93707	9874.9125
1637.23439	11292.2125
1640.52951	13613.9125
1643.82246	17105.2125
1647.11321	21077.9125
1650.40179	23468.6125
1653.68819	22126.3125
1656.97241	17632.2125
1660.25446	13248.5125
1663.53433	10368.2125
1666.81203	8732.2125
1670.08756	7810.0125
1673.36092	7274.3125
1676.63211	6938.9125
1679.90115	6692.1125
1683.16801	6498.7125
1686.43272	6398.4125
1689.69527	6306.5125
1692.95567	6251.0125
1696.2139	6213.0125
1699.46999	6181.2125
1702.72392	6155.8125
1705.97571	6116.9125
1709.22535	6083.2125
1712.47284	6091.8125
1715.71819	6081.6125
1718.96139	6046.0125
1722.20246	6025.9125
1725.44139	5967.3125
1728.67818	5877.2125
1731.91284	5803.4125
1735.14537	5749.9125
1738.37576	5714.9125
1741.60403	5678.2125
1744.83017	5625.4125
1748.05418	5621.2125
1751.27607	5589.3125
1754.49584	5568.8125
1757.71349	5583.4125
1760.92903	5555.0125
1764.14244	5541.5125
1767.35375	5535.5125
1770.56294	5487.2125
1773.77002	5465.1125
1776.97499	5410.5125
1780.17785	5371.3125
1783.37861	5350.6125
1786.57727	5332.9125
1789.77382	5307.6125
1792.96828	5306.1125
1796.16064	5269.1125
1799.3509	5258.3125
1802.53907	5250.0125
1805.72514	5230.9125
1808.90913	5209.9125
1812.09102	5194.1125
1815.27083	5157.8125
1818.44856	5131.0125
1821.6242	5121.0125
1824.79776	5107.2125
1827.96924	5096.9125
1831.13864	5091.7125
1834.30597	5091.5125
1837.47122	5076.9125
1840.6344	5049.4125
1843.7955	5049.5125
1846.95454	5047.3125
1850.11151	5031.8125
1853.26642	5021.5125
1856.41926	5015.6125
1859.57004	5012.4125
1862.71876	5022.4125
1865.86542	5028.2125
1869.01003	5026.6125
1872.15258	5026.1125
1875.29308	5008.2125
1878.43152	5021.9125
1881.56792	5027.0125
1884.70227	5019.4125
1887.83457	4993.3125
1890.96482	4992.0125
1894.09304	4987.6125
1897.21921	4988.3125
1900.34335	4985.1125
1903.46544	4987.1125
1906.58551	4968.8125
1909.70353	4964.8125
1912.81953	4968.9125
1915.93349	4940.1125
1919.04543	4954.5125
1922.15534	4918.7125
1925.26322	4916.9125
1928.36908	4886.1125
1931.47292	4858.1125
1934.57473	4849.1125
1937.67453	4811.2125
1940.77232	4811.7125
1943.86808	4784.7125
1946.96184	4772.5125
1950.05358	4751.7125
1953.14331	4744.9125
1956.23103	4727.5125
1959.31675	4708.2125
1962.40046	4717.6125
1965.48217	4695.7125
1968.56188	4679.7125
1971.63959	4689.2125
1974.7153	4691.2125
1977.78901	4678.5125
1980.86073	4650.1125
1983.93046	4632.1125
1986.99819	4589.9125
1990.06394	4568.1125
1993.1277	4552.2125
1996.18947	4537.4125
1999.24925	4511.5125
2002.30706	4496.5125
2005.36288	4475.2125
2008.41672	4471.4125
2011.46859	4445.8125
2014.51848	4440.9125
2017.56639	4414.5125
2020.61233	4407.5125
2023.6563	4400.0125
2026.6983	4379.0125
2029.73833	4377.4125
2032.7764	4354.8125
2035.8125	4352.0125
2038.84664	4337.2125
2041.87881	4349.6125
2044.90903	4338.5125
2047.93729	4331.3125
2050.96359	4308.2125
2053.98794	4312.6125
2057.01034	4295.5125
2060.03078	4300.0125
2063.04927	4270.3125
2066.06582	4285.0125
2069.08042	4267.0125
2072.09307	4274.7125
2075.10378	4252.4125
2078.11255	4261.7125
2081.11938	4274.5125
2084.12426	4254.7125
2087.12722	4267.3125
2090.12824	4252.4125
2093.12732	4256.6125
2096.12447	4250.7125
2099.11969	4248.3125
2102.11299	4255.9125
2105.10435	4250.8125
2108.09379	4258.6125
2111.08131	4257.8125
2114.0669	4252.0125
2117.05057	4264.5125
2120.03233	4279.9125
2123.01216	4286.1125
2125.99008	4287.6125
2128.96609	4299.3125
2131.94018	4284.8125
2134.91236	4288.0125
2137.88263	4292.3125
2140.851	4272.3125
2143.81746	4280.4125
2146.78201	4272.5125
2149.74466	4263.8125
2152.7054	4261.3125
2155.66425	4239.4125
2158.6212	4225.4125
2161.57625	4232.8125
2164.52941	4236.5125
2167.48067	4246.9125
2170.43004	4231.2125
2173.37752	4214.7125
2176.32311	4235.2125
2179.26681	4234.9125
2182.20863	4222.4125
2185.14856	4233.4125
2188.08661	4237.3125
2191.02278	4227.5125
2193.95707	4224.7125
2196.88948	4197.6125
2199.82001	4217.0125
2202.74867	4193.0125
2205.67545	4186.3125
2208.60037	4180.1125
2211.52341	4186.5125
2214.44458	4190.9125
2217.36388	4173.2125
2220.28132	4170.8125
2223.1969	4146.2125
2226.11061	4144.7125
2229.02246	4135.1125
2231.93245	4117.8125
2234.84058	4126.8125
2237.74686	4106.2125
2240.65128	4116.3125
2243.55385	4109.8125
2246.45456	4106.1125
2249.35343	4075.5125
2252.25044	4106.1125
2255.14561	4118.9125
2258.03893	4138.3125
2260.93041	4123.2125
2263.82004	4122.4125
2266.70783	4123.7125
2269.59378	4125.6125
2272.4779	4089.9125
2275.36017	4085.4125
2278.24061	4076.3125
2281.11922	4051.4125
2283.996	4037.4125
2286.87094	4030.7125
2289.74405	4021.4125
2292.61534	4010.7125
2295.4848	3994.7125
2298.35243	3990.7125
2301.21824	3989.2125
2304.08223	3999.5125
2306.94439	3982.1125
2309.80474	3992.8125
2312.66327	3994.8125
2315.51999	3984.9125
2318.37489	3983.7125
2321.22797	3989.6125
2324.07925	3999.0125
2326.92871	3981.8125
2329.77637	4001.1125
2332.62222	3983.8125
2335.46626	3970.5125
2338.3085	3969.0125
2341.14893	3974.9125
2343.98756	3989.1125
2346.8244	4002.9125
2349.65943	4016.3125
2352.49267	4016.1125
2355.32411	4036.2125
2358.15376	4037.4125
2360.98161	4052.1125
2363.80768	4056.6125
2366.63195	4067.9125
2369.45444	4082.6125
2372.27514	4050.9125
2375.09405	4059.6125
2377.91118	4044.1125
2380.72652	4025.9125
2383.54009	3992.5125
2386.35187	4002.6125
2389.16188	3948.0125
2391.97011	3941.0125
2394.77657	3917.5125
2397.58125	3900.4125
2400.38416	3885.8125
2403.18529	3888.2125
2405.98466	3879.5125
2408.78226	3853.2125
2411.57809	3855.2125
2414.37216	3854.3125
2417.16446	3842.7125
2419.955	3839.1125
2422.74378	3843.1125
2425.5308	3844.4125
2428.31606	3838.0125
2431.09956	3840.8125
2433.88131	3844.2125
2436.6613	3854.9125
2439.43954	3864.6125
2442.21603	3871.2125
2444.99077	3865.5125
2447.76377	3884.2125
2450.53501	3872.5125
2453.30451	3874.5125
2456.07226	3881.0125
2458.83827	3881.8125
2461.60254	3885.9125
2464.36507	3876.0125
2467.12586	3878.4125
2469.88492	3864.2125
2472.64224	3896.4125
2475.39782	3891.6125
2478.15167	3901.8125
2480.90379	3941.0125
2483.65417	3953.3125
2486.40283	3974.2125
2489.14976	3989.9125
2491.89497	3985.9125
2494.63845	3987.9125
2497.3802	3975.0125
2500.12024	3975.9125
2502.85855	3948.9125
2505.59514	3917.4125
2508.33002	3912.2125
2511.06318	3874.6125
2513.79462	3861.6125
2516.52435	3833.6125
2519.25237	3820.2125
2521.97867	3796.4125
2524.70327	3791.8125
2527.42616	3775.3125
2530.14734	3775.8125
2532.86681	3778.2125
2535.58458	3777.0125
2538.30065	3770.2125
2541.01501	3781.4125
2543.72768	3789.4125
2546.43864	3776.3125
2549.14791	3783.9125
2551.85548	3788.5125
2554.56136	3775.3125
2557.26554	3772.7125
2559.96803	3772.9125
2562.66883	3781.3125
2565.36794	3771.3125
2568.06536	3787.0125
2570.7611	3760.2125
2573.45514	3763.4125
2576.14751	3738.8125
2578.83819	3732.7125
2581.52719	3752.2125
2584.21451	3723.5125
2586.90015	3741.7125
2589.58411	3726.3125
2592.2664	3738.9125
2594.94701	3727.4125
2597.62594	3722.7125
2600.30321	3728.1125
2602.9788	3718.6125
2605.65273	3722.2125
2608.32498	3717.4125
2610.99557	3720.9125
2613.66449	3719.9125
2616.33175	3727.4125
2618.99734	3735.7125
2621.66128	3723.4125
2624.32355	3719.8125
2626.98416	3718.5125
2629.64311	3724.2125
2632.30041	3715.6125
2634.95605	3705.6125
2637.61004	3696.2125
2640.26238	3700.4125
2642.91306	3697.9125
2645.56209	3686.8125
2648.20948	3671.3125
2650.85521	3685.9125
2653.4993	3674.6125
2656.14175	3685.6125
2658.78255	3698.7125
2661.42171	3704.0125
2664.05923	3724.3125
2666.6951	3707.3125
2669.32934	3728.7125
2671.96194	3736.0125
2674.59291	3730.6125
2677.22224	3727.8125
2679.84993	3724.0125
2682.476	3730.3125
2685.10043	3708.1125
2687.72324	3718.7125
2690.34441	3712.5125
2692.96396	3707.3125
2695.58188	3702.9125
2698.19818	3709.5125
2700.81285	3702.5125
2703.4259	3701.3125
2706.03733	3721.5125
2708.64714	3710.6125
2711.25533	3710.0125
2713.86191	3714.2125
2716.46687	3728.8125
2719.07021	3722.4125
2721.67194	3725.6125
2724.27206	3708.0125
2726.87057	3740.7125
2729.46747	3719.6125
2732.06276	3720.5125
2734.65644	3702.8125
2737.24852	3705.9125
2739.83899	3684.8125
2742.42786	3677.7125
2745.01513	3675.1125
2747.60079	3665.0125
2750.18486	3650.2125
2752.76733	3665.8125
2755.3482	3637.9125
2757.92747	3652.9125
2760.50515	3632.7125
2763.08123	3626.0125
2765.65573	3638.8125
2768.22863	3627.4125
2770.79994	3630.0125
2773.36967	3624.8125
2775.9378	3621.4125
2778.50435	3625.2125
2781.06932	3626.7125
2783.6327	3635.8125
2786.1945	3634.1125
2788.75471	3631.6125
2791.31335	3644.4125
2793.87041	3645.2125
2796.42589	3648.0125
2798.97979	3641.9125
2801.53212	3637.4125
2804.08288	3624.6125
2806.63206	3635.9125
2809.17967	3642.3125
2811.72571	3657.1125
2814.27018	3669.2125
2816.81308	3669.3125
2819.35442	3673.3125
2821.89419	3687.0125
2824.43239	3682.9125
2826.96904	3693.3125
2829.50412	3680.0125
2832.03763	3682.6125
2834.56959	3675.0125
2837.1	3669.2125
2839.62884	3683.7125
2842.15613	3673.3125
2844.68186	3692.7125
2847.20604	3673.5125
2849.72867	3703.8125
2852.24974	3704.9125
2854.76927	3717.7125
2857.28724	3712.9125
2859.80367	3714.9125
2862.31855	3724.4125
2864.83189	3719.0125
2867.34368	3728.5125
2869.85393	3730.5125
2872.36264	3726.4125
2874.8698	3745.1125
2877.37543	3751.4125
2879.87952	3750.5125
2882.38207	3739.8125
2884.88308	3726.1125
2887.38256	3720.4125
2889.88051	3705.9125
2892.37692	3708.9125
2894.8718	3717.6125
2897.36515	3709.2125
2899.85698	3704.9125
2902.34727	3725.2125
2904.83604	3720.6125
2907.32328	3721.3125
2909.809	3719.2125
2912.29319	3716.8125
2914.77587	3724.9125
2917.25702	3716.5125
2919.73665	3684.2125
2922.21476	3689.2125
2924.69136	3673.1125
2927.16644	3666.9125
2929.64	3647.9125
2932.11205	3656.2125
2934.58258	3624.9125
2937.05161	3618.3125
2939.51912	3638.1125
2941.98513	3632.1125
2944.44962	3606.4125
2946.91261	3607.4125
2949.37409	3613.7125
2951.83407	3601.4125
2954.29254	3623.1125
2956.74951	3606.5125
2959.20498	3606.7125
2961.65895	3598.6125
2964.11142	3603.5125
2966.56239	3600.7125
2969.01186	3590.9125
2971.45984	3582.8125
2973.90632	3563.0125
2976.35131	3540.2125
2978.7948	3530.3125
2981.23681	3528.2125
2983.67732	3529.3125
2986.11635	3503.6125
2988.55388	3511.9125
2990.98993	3503.7125
2993.4245	3504.1125
2995.85758	3491.2125
2998.28917	3497.2125
3000.71928	3485.4125
3003.14791	3497.2125
3005.57506	3487.6125
3008.00073	3489.4125
3010.42493	3476.0125
3012.84764	3482.0125
3015.26888	3487.8125
3017.68865	3496.3125
3020.10694	3476.8125
3022.52376	3460.5125
3024.9391	3445.7125
3027.35298	3443.7125
3029.76539	3450.5125
3032.17632	3421.8125
3034.5858	3415.5125
3036.9938	3405.6125
3039.40034	3384.8125
3041.80542	3406.5125
3044.20903	3383.5125
3046.61118	3382.1125
3049.01187	3371.5125
3051.4111	3369.4125
3053.80888	3366.7125
3056.20519	3358.3125
3058.60005	3360.9125
3060.99345	3347.2125
3063.3854	3339.6125
3065.7759	3324.4125
3068.16494	3315.1125
3070.55254	3298.7125
3072.93868	3314.6125
3075.32338	3286.6125
3077.70662	3300.5125
3080.08842	3268.5125
3082.46878	3275.5125
3084.84769	3268.1125
3087.22515	3275.6125
3089.60118	3274.8125
3091.97576	3282.2125
3094.3489	3270.7125
3096.72061	3274.4125
3099.09087	3266.3125
3101.4597	3277.1125
3103.82709	3283.4125
3106.19305	3279.2125
3108.55757	3285.9125
3110.92066	3281.6125
3113.28232	3268.5125
3115.64255	3249.2125
3118.00134	3246.8125
3120.35871	3257.5125
3122.71466	3240.2125
3125.06917	3245.3125
3127.42226	3233.8125
3129.77393	3265.7125
3132.12417	3264.9125
3134.47299	3261.0125
3136.82039	3258.5125
3139.16636	3253.9125
3141.51092	3265.6125
3143.85406	3257.3125
3146.19579	3279.6125
3148.53609	3282.5125
3150.87499	3280.0125
3153.21246	3288.7125
3155.54853	3295.0125
3157.88318	3299.0125
3160.21642	3303.3125
3162.54826	3308.4125
3164.87868	3299.3125
3167.2077	3299.0125
3169.5353	3294.8125
3171.86151	3288.2125
3174.18631	3290.4125
3176.5097	3307.7125
3178.83169	3293.3125
3181.15228	3281.8125
3183.47147	3293.0125
3185.78926	3277.1125
3188.10565	3301.2125
3190.42065	3298.8125
3192.73424	3296.5125
3195.04645	3302.1125
3197.35725	3295.1125
3199.66667	3315.3125
3201.97469	3320.6125
3204.28132	3318.4125
3206.58656	3329.2125
3208.8904	3344.9125
3211.19287	3341.5125
3213.49394	3351.1125
3215.79363	3356.1125
3218.09193	3357.8125
3220.38884	3373.1125
3222.68438	3388.4125
3224.97853	3389.2125
3227.2713	3383.8125
3229.56269	3375.8125
3231.8527	3374.6125
3234.14133	3383.3125
3236.42858	3366.5125
3238.71446	3372.0125
3240.99896	3368.3125
3243.28209	3374.1125
3245.56384	3377.9125
3247.84423	3372.6125
3250.12324	3382.8125
3252.40088	3374.4125
3254.67715	3369.0125
3256.95205	3369.8125
3259.22558	3374.9125
3261.49775	3365.1125
3263.76855	3373.9125
3266.03799	3358.3125
3268.30606	3379.7125
3270.57277	3374.0125
3272.83812	3373.3125
3275.10211	3360.2125
3277.36474	3371.8125
3279.62601	3363.2125
3281.88593	3370.8125
3284.14448	3373.5125
3286.40168	3376.1125
3288.65753	3390.8125
3290.91202	3390.7125
3293.16516	3387.7125
3295.41695	3378.8125
3297.66738	3371.9125
3299.91647	3364.8125
3302.16421	3341.1125
3304.4106	3323.7125
3306.65564	3294.2125
3308.89933	3269.6125
3311.14169	3252.1125
3313.38269	3216.6125
3315.62236	3212.5125
3317.86068	3162.2125
3320.09766	3149.2125
3322.3333	3131.3125
3324.5676	3112.0125
3326.80056	3074.5125
3329.03219	3039.2125
3331.26248	1.1125
3333.49143	-1.7875
3335.71905	0.8125
