Data from AgNP_FTO_APTES_UA_100uM_CRN_10uM_R6G_10uM_NaF_0.1M_Addition_RamanShift__27__15-48-30-431.txt Node

Date: Thu Mar 24 15:48:30 GMT 2022
User: TCL
Spectrometer: QEP01345
Trigger mode: 4
Integration Time (sec): 7.000000E0
Scans to average: 10
Electric dark correction enabled: true
Nonlinearity correction enabled: false
Boxcar width: 0
XAxis mode: Raman Shifts
Number of Pixels in Spectrum: 1044
>>>>>Begin Spectral Data<<<<<
46.04893	-0.875
50.45542	0.725
54.85868	-1.075
59.25871	0.725
63.6555	29.425
68.04907	27.825
72.43941	26.825
76.82654	30.225
81.21044	36.125
85.59113	33.325
89.96862	37.025
94.34289	30.425
98.71396	37.125
103.08183	37.825
107.4465	38.625
111.80798	39.725
116.16626	40.325
120.52136	42.225
124.87327	42.225
129.222	38.225
133.56755	44.025
137.90993	46.525
142.24913	54.325
146.58517	56.025
150.91804	66.925
155.24774	82.325
159.57429	99.525
163.89768	129.325
168.21792	172.925
172.53501	229.725
176.84895	324.225
181.15975	450.125
185.46741	636.825
189.77193	878.825
194.07331	1176.325
198.37157	1518.225
202.6667	1884.625
206.9587	2254.925
211.24758	2628.825
215.53334	3026.225
219.81599	3450.125
224.09553	3942.725
228.37195	4495.925
232.64527	5077.825
236.91549	5666.525
241.18261	6225.625
245.44663	6648.425
249.70755	6975.025
253.96539	7247.425
258.22014	7473.125
262.4718	7681.525
266.72039	7853.725
270.96589	7893.825
275.20832	7811.825
279.44768	7679.025
283.68397	7520.725
287.91719	7389.925
292.14735	7358.325
296.37445	7468.025
300.59849	7716.225
304.81948	8076.125
309.03742	8369.425
313.25231	8469.525
317.46415	8231.925
321.67296	7800.925
325.87872	7387.725
330.08145	7169.025
334.28114	7182.125
338.47781	7263.025
342.67145	7452.625
346.86207	7692.025
351.04966	8028.225
355.23424	8423.825
359.4158	8720.225
363.59435	8829.425
367.76989	8831.525
371.94243	8744.025
376.11196	8736.925
380.27849	8682.825
384.44203	8587.425
388.60257	8562.325
392.76012	8537.125
396.91468	8614.525
401.06626	8785.325
405.21485	8907.325
409.36047	8739.625
413.50311	8334.725
417.64277	7981.725
421.77947	7760.125
425.9132	7690.025
430.04396	7700.825
434.17176	7763.125
438.2966	7930.825
442.41849	8190.325
446.53742	8583.525
450.6534	8933.925
454.76644	9129.825
458.87653	9085.325
462.98368	8904.225
467.08789	8628.725
471.18916	8399.725
475.2875	8133.925
479.38291	7883.125
483.4754	7658.525
487.56496	7504.325
491.6516	7452.125
495.73531	7411.825
499.81612	7425.225
503.89401	7486.225
507.96899	7577.525
512.04106	7625.725
516.11023	7707.925
520.1765	7782.525
524.23987	7835.525
528.30034	7837.025
532.35792	7831.625
536.41261	7706.625
540.46441	7532.625
544.51333	7434.425
548.55936	7441.325
552.60252	7585.925
556.64279	7793.525
560.6802	7972.825
564.71473	8048.025
568.7464	8220.625
572.7752	8422.425
576.80114	8345.525
580.82422	8253.325
584.84444	8439.125
588.86181	8923.625
592.87633	9687.825
596.888	10196.325
600.89682	10054.725
604.9028	10183.925
608.90594	12174.125
612.90624	15214.925
616.90371	14434.825
620.89834	10183.025
624.89015	8075.625
628.87913	7675.925
632.86528	7797.525
636.84862	7913.125
640.82913	7748.625
644.80683	7356.725
648.78172	7082.125
652.75379	7079.825
656.72306	7364.725
660.68952	7752.325
664.65319	7646.425
668.61405	7230.425
672.57211	7038.225
676.52738	7053.125
680.47986	7051.925
684.42955	6930.725
688.37646	6869.025
692.32058	6885.825
696.26192	6997.225
700.20048	7122.425
704.13626	7195.425
708.06928	7169.125
711.99952	7125.425
715.927	7113.125
719.85171	7186.025
723.77365	7210.325
727.69284	7177.025
731.60928	7147.625
735.52295	7194.625
739.43388	7237.425
743.34206	7256.025
747.24749	7227.825
751.15017	7222.625
755.05012	7298.925
758.94733	7627.225
762.8418	8481.125
766.73354	9933.625
770.62254	11419.625
774.50882	12079.225
778.39237	11564.425
782.27321	10148.325
786.15132	8655.225
790.02671	7702.325
793.89938	7248.725
797.76935	7075.825
801.6366	6979.725
805.50115	6920.825
809.36299	6877.725
813.22213	6843.625
817.07857	6835.025
820.93231	6801.525
824.78336	6828.525
828.63172	6852.525
832.47738	6864.925
836.32036	6843.225
840.16066	6810.425
843.99827	6773.925
847.8332	6773.325
851.66546	6782.025
855.49504	6782.925
859.32195	6777.725
863.1462	6769.025
866.96777	6743.325
870.78668	6751.825
874.60293	6771.125
878.41652	6815.925
882.22745	6882.425
886.03573	6917.225
889.84136	6919.525
893.64433	6868.325
897.44466	6836.225
901.24235	6824.925
905.0374	6765.225
908.8298	6701.525
912.61957	6666.825
916.40671	6672.125
920.19121	6732.125
923.97308	6807.425
927.75233	6946.725
931.52895	6990.225
935.30295	6899.125
939.07433	6688.425
942.84309	6523.125
946.60924	6405.725
950.37278	6379.025
954.13371	6359.225
957.89203	6347.325
961.64774	6360.725
965.40086	6321.525
969.15137	6330.225
972.89929	6291.725
976.64461	6306.525
980.38733	6304.125
984.12747	6327.625
987.86502	6362.325
991.59999	6422.025
995.33237	6524.925
999.06217	6718.525
1002.78939	6947.125
1006.51404	7154.825
1010.23611	7335.025
1013.95561	7440.925
1017.67255	7421.125
1021.38692	7224.825
1025.09872	6974.425
1028.80796	6811.825
1032.51465	6794.025
1036.21877	6827.025
1039.92035	6894.925
1043.61937	6904.525
1047.31584	6923.225
1051.00976	6884.725
1054.70114	6877.425
1058.38998	6851.225
1062.07627	6874.325
1065.76003	6948.725
1069.44126	6984.625
1073.11995	7122.525
1076.79611	7313.525
1080.46974	7485.525
1084.14085	7690.725
1087.80943	7942.925
1091.47549	8023.125
1095.13903	7885.925
1098.80005	7612.925
1102.45857	7367.425
1106.11456	7300.625
1109.76805	7342.225
1113.41903	7509.125
1117.06751	7783.225
1120.71348	8103.225
1124.35696	8512.425
1127.99793	8809.225
1131.63641	8732.525
1135.2724	8359.625
1138.90589	8022.325
1142.5369	7821.525
1146.16542	7716.025
1149.79145	7639.525
1153.415	7629.025
1157.03607	7668.225
1160.65467	7827.725
1164.27079	8205.825
1167.88443	8746.225
1171.49561	9567.325
1175.10432	10921.525
1178.71056	12631.025
1182.31434	14136.925
1185.91565	14505.125
1189.51451	13928.925
1193.11091	12913.925
1196.70485	11844.725
1200.29634	10977.125
1203.88538	10235.525
1207.47197	9518.425
1211.05612	8979.325
1214.63782	8672.525
1218.21708	8616.425
1221.79391	8687.525
1225.36829	8797.725
1228.94024	8763.125
1232.50976	8572.125
1236.07685	8388.425
1239.6415	8341.025
1243.20374	8369.425
1246.76355	8470.625
1250.32093	8511.025
1253.8759	8671.225
1257.42845	9001.925
1260.97859	9436.925
1264.52631	9920.725
1268.07163	10386.325
1271.61453	10700.725
1275.15503	10884.625
1278.69312	10962.525
1282.22882	11138.325
1285.76211	11542.525
1289.29301	12158.825
1292.82151	12777.125
1296.34761	13458.625
1299.87133	14362.425
1303.39266	15706.625
1306.9116	17596.525
1310.42815	19614.825
1313.94233	20568.825
1317.45412	19850.725
1320.96354	18236.525
1324.47058	16577.225
1327.97525	15088.525
1331.47754	13999.425
1334.97747	13451.725
1338.47502	13317.725
1341.97022	13531.625
1345.46305	14045.625
1348.95352	14919.825
1352.44163	16272.525
1355.92738	18366.925
1359.41078	21416.025
1362.89183	24138.025
1366.37053	23425.025
1369.84688	19494.025
1373.32088	15584.525
1376.79254	13405.425
1380.26186	12521.825
1383.72883	11990.725
1387.19347	11380.725
1390.65578	10731.525
1394.11575	10345.625
1397.57339	10190.125
1401.0287	10211.725
1404.48168	10271.925
1407.93234	10290.125
1411.38068	10324.025
1414.82669	10372.925
1418.27039	10256.025
1421.71177	9997.825
1425.15083	9722.225
1428.58758	9627.625
1432.02203	9851.425
1435.45416	10213.125
1438.88399	10504.525
1442.31151	10587.825
1445.73673	10646.025
1449.15965	10668.825
1452.58027	10551.525
1455.9986	10270.225
1459.41463	10117.025
1462.82837	10254.725
1466.23982	10630.625
1469.64898	11138.125
1473.05586	11554.825
1476.46045	11923.525
1479.86276	12268.025
1483.26279	12560.625
1486.66054	12950.525
1490.05602	13531.925
1493.44922	14259.725
1496.84016	15039.225
1500.22882	16021.425
1503.61521	17503.025
1506.99934	19356.125
1510.38121	20796.625
1513.76081	20740.925
1517.13816	18832.425
1520.51324	16158.625
1523.88607	13889.725
1527.25665	12512.225
1530.62498	11855.625
1533.99105	11474.225
1537.35488	11165.425
1540.71647	10876.025
1544.07581	10665.625
1547.4329	10467.125
1550.78776	10302.225
1554.14038	10201.725
1557.49077	10149.525
1560.83892	10242.825
1564.18484	10581.325
1567.52853	11130.925
1570.86999	11597.525
1574.20922	11896.725
1577.54624	11816.725
1580.88103	11188.225
1584.2136	10379.425
1587.54395	10080.025
1590.87208	10409.325
1594.19801	11412.025
1597.52172	12731.025
1600.84321	13447.225
1604.16251	13025.525
1607.47959	11842.625
1610.79447	10455.325
1614.10715	9233.425
1617.41763	8404.325
1620.7259	7951.225
1624.03199	7736.925
1627.33587	7770.425
1630.63757	8073.125
1633.93707	8674.225
1637.23439	9802.325
1640.52951	11719.525
1643.82246	14437.825
1647.11321	17137.825
1650.40179	18303.725
1653.68819	16887.025
1656.97241	13745.125
1660.25446	10833.925
1663.53433	8898.425
1666.81203	7760.725
1670.08756	7151.825
1673.36092	6773.525
1676.63211	6537.325
1679.90115	6367.025
1683.16801	6262.925
1686.43272	6148.325
1689.69527	6079.025
1692.95567	6030.125
1696.2139	6031.125
1699.46999	6016.225
1702.72392	5981.525
1705.97571	5956.525
1709.22535	5911.525
1712.47284	5899.125
1715.71819	5894.825
1718.96139	5851.725
1722.20246	5837.925
1725.44139	5788.825
1728.67818	5743.825
1731.91284	5703.525
1735.14537	5633.925
1738.37576	5607.825
1741.60403	5597.125
1744.83017	5561.225
1748.05418	5551.825
1751.27607	5545.925
1754.49584	5515.925
1757.71349	5523.325
1760.92903	5524.225
1764.14244	5518.725
1767.35375	5475.225
1770.56294	5487.425
1773.77002	5483.425
1776.97499	5419.525
1780.17785	5400.925
1783.37861	5388.625
1786.57727	5347.725
1789.77382	5340.125
1792.96828	5330.825
1796.16064	5333.125
1799.3509	5305.125
1802.53907	5294.025
1805.72514	5290.025
1808.90913	5265.425
1812.09102	5234.325
1815.27083	5227.125
1818.44856	5216.525
1821.6242	5190.925
1824.79776	5207.325
1827.96924	5183.125
1831.13864	5180.425
1834.30597	5162.925
1837.47122	5154.725
1840.6344	5152.425
1843.7955	5143.925
1846.95454	5147.025
1850.11151	5113.925
1853.26642	5115.325
1856.41926	5103.125
1859.57004	5098.925
1862.71876	5103.325
1865.86542	5096.525
1869.01003	5091.625
1872.15258	5096.625
1875.29308	5082.325
1878.43152	5100.225
1881.56792	5099.525
1884.70227	5094.925
1887.83457	5077.125
1890.96482	5078.625
1894.09304	5065.625
1897.21921	5064.925
1900.34335	5052.325
1903.46544	5079.725
1906.58551	5065.725
1909.70353	5052.525
1912.81953	5038.625
1915.93349	5042.725
1919.04543	5009.325
1922.15534	5004.625
1925.26322	4996.025
1928.36908	4970.025
1931.47292	4963.625
1934.57473	4956.025
1937.67453	4939.025
1940.77232	4894.925
1943.86808	4900.125
1946.96184	4876.225
1950.05358	4865.125
1953.14331	4851.525
1956.23103	4858.125
1959.31675	4835.425
1962.40046	4824.625
1965.48217	4795.225
1968.56188	4801.825
1971.63959	4791.425
1974.7153	4773.925
1977.78901	4742.525
1980.86073	4725.525
1983.93046	4704.025
1986.99819	4672.525
1990.06394	4679.025
1993.1277	4654.325
1996.18947	4629.925
1999.24925	4629.525
2002.30706	4601.225
2005.36288	4589.925
2008.41672	4583.125
2011.46859	4556.525
2014.51848	4548.825
2017.56639	4533.825
2020.61233	4527.025
2023.6563	4516.025
2026.6983	4493.625
2029.73833	4484.525
2032.7764	4475.325
2035.8125	4475.425
2038.84664	4474.625
2041.87881	4474.525
2044.90903	4458.025
2047.93729	4440.625
2050.96359	4436.025
2053.98794	4428.925
2057.01034	4426.325
2060.03078	4421.525
2063.04927	4419.725
2066.06582	4392.425
2069.08042	4424.325
2072.09307	4402.225
2075.10378	4387.525
2078.11255	4397.925
2081.11938	4388.325
2084.12426	4398.225
2087.12722	4387.125
2090.12824	4391.425
2093.12732	4406.325
2096.12447	4392.025
2099.11969	4385.725
2102.11299	4388.825
2105.10435	4383.425
2108.09379	4387.825
2111.08131	4389.325
2114.0669	4401.725
2117.05057	4403.725
2120.03233	4390.625
2123.01216	4388.725
2125.99008	4421.125
2128.96609	4403.325
2131.94018	4403.325
2134.91236	4404.425
2137.88263	4401.025
2140.851	4396.025
2143.81746	4409.225
2146.78201	4402.425
2149.74466	4380.925
2152.7054	4396.025
2155.66425	4369.925
2158.6212	4375.925
2161.57625	4377.725
2164.52941	4363.425
2167.48067	4370.325
2170.43004	4361.225
2173.37752	4359.125
2176.32311	4374.425
2179.26681	4368.825
2182.20863	4357.725
2185.14856	4360.525
2188.08661	4370.825
2191.02278	4370.225
2193.95707	4352.325
2196.88948	4343.625
2199.82001	4357.625
2202.74867	4349.325
2205.67545	4351.825
2208.60037	4326.325
2211.52341	4324.025
2214.44458	4314.725
2217.36388	4293.725
2220.28132	4304.425
2223.1969	4284.025
2226.11061	4274.225
2229.02246	4258.325
2231.93245	4271.325
2234.84058	4267.025
2237.74686	4266.025
2240.65128	4255.325
2243.55385	4260.825
2246.45456	4247.225
2249.35343	4245.925
2252.25044	4234.625
2255.14561	4251.725
2258.03893	4248.925
2260.93041	4252.225
2263.82004	4228.725
2266.70783	4210.825
2269.59378	4210.525
2272.4779	4176.625
2275.36017	4184.225
2278.24061	4180.625
2281.11922	4167.425
2283.996	4143.825
2286.87094	4130.125
2289.74405	4128.725
2292.61534	4115.825
2295.4848	4117.525
2298.35243	4123.425
2301.21824	4107.225
2304.08223	4103.125
2306.94439	4100.125
2309.80474	4107.625
2312.66327	4106.425
2315.51999	4104.125
2318.37489	4093.125
2321.22797	4100.825
2324.07925	4097.925
2326.92871	4084.325
2329.77637	4089.225
2332.62222	4073.825
2335.46626	4065.225
2338.3085	4075.025
2341.14893	4070.425
2343.98756	4070.825
2346.8244	4074.225
2349.65943	4080.325
2352.49267	4067.625
2355.32411	4093.325
2358.15376	4082.325
2360.98161	4083.725
2363.80768	4086.125
2366.63195	4098.725
2369.45444	4087.825
2372.27514	4103.325
2375.09405	4086.025
2377.91118	4081.225
2380.72652	4071.025
2383.54009	4044.025
2386.35187	4038.025
2389.16188	4021.225
2391.97011	4010.125
2394.77657	4004.825
2397.58125	3971.325
2400.38416	3974.925
2403.18529	3960.625
2405.98466	3962.125
2408.78226	3946.825
2411.57809	3944.125
2414.37216	3943.725
2417.16446	3943.225
2419.955	3928.025
2422.74378	3922.425
2425.5308	3928.025
2428.31606	3928.225
2431.09956	3936.025
2433.88131	3937.725
2436.6613	3929.325
2439.43954	3933.825
2442.21603	3932.325
2444.99077	3925.425
2447.76377	3938.925
2450.53501	3949.325
2453.30451	3955.425
2456.07226	3949.325
2458.83827	3944.825
2461.60254	3932.025
2464.36507	3931.825
2467.12586	3933.125
2469.88492	3932.325
2472.64224	3943.925
2475.39782	3947.625
2478.15167	3960.225
2480.90379	3961.825
2483.65417	3958.025
2486.40283	3971.125
2489.14976	3976.725
2491.89497	3993.525
2494.63845	3970.825
2497.3802	3974.125
2500.12024	3980.625
2502.85855	3966.925
2505.59514	3947.225
2508.33002	3925.825
2511.06318	3919.825
2513.79462	3930.325
2516.52435	3897.825
2519.25237	3894.525
2521.97867	3882.425
2524.70327	3883.125
2527.42616	3875.625
2530.14734	3869.525
2532.86681	3864.625
2535.58458	3853.225
2538.30065	3860.725
2541.01501	3870.325
2543.72768	3862.925
2546.43864	3863.125
2549.14791	3874.925
2551.85548	3867.625
2554.56136	3860.625
2557.26554	3854.925
2559.96803	3854.825
2562.66883	3846.125
2565.36794	3844.925
2568.06536	3850.925
2570.7611	3830.825
2573.45514	3837.025
2576.14751	3818.225
2578.83819	3839.525
2581.52719	3812.725
2584.21451	3813.725
2586.90015	3797.925
2589.58411	3804.925
2592.2664	3791.925
2594.94701	3789.725
2597.62594	3793.425
2600.30321	3788.925
2602.9788	3788.925
2605.65273	3800.325
2608.32498	3792.925
2610.99557	3789.425
2613.66449	3787.825
2616.33175	3787.925
2618.99734	3782.825
2621.66128	3779.025
2624.32355	3787.225
2626.98416	3761.125
2629.64311	3764.425
2632.30041	3752.925
2634.95605	3748.425
2637.61004	3754.525
2640.26238	3747.725
2642.91306	3753.925
2645.56209	3730.325
2648.20948	3733.125
2650.85521	3745.425
2653.4993	3742.225
2656.14175	3754.125
2658.78255	3776.425
2661.42171	3775.525
2664.05923	3765.025
2666.6951	3770.825
2669.32934	3800.725
2671.96194	3776.925
2674.59291	3782.025
2677.22224	3781.025
2679.84993	3777.125
2682.476	3769.025
2685.10043	3770.525
2687.72324	3749.125
2690.34441	3754.325
2692.96396	3771.525
2695.58188	3757.825
2698.19818	3746.725
2700.81285	3751.625
2703.4259	3755.125
2706.03733	3774.425
2708.64714	3777.125
2711.25533	3773.525
2713.86191	3757.725
2716.46687	3783.225
2719.07021	3786.525
2721.67194	3784.125
2724.27206	3780.825
2726.87057	3793.225
2729.46747	3789.025
2732.06276	3792.525
2734.65644	3781.625
2737.24852	3778.625
2739.83899	3768.225
2742.42786	3789.325
2745.01513	3766.125
2747.60079	3773.125
2750.18486	3767.625
2752.76733	3749.125
2755.3482	3747.525
2757.92747	3740.625
2760.50515	3756.325
2763.08123	3746.725
2765.65573	3745.025
2768.22863	3734.425
2770.79994	3735.225
2773.36967	3739.525
2775.9378	3742.925
2778.50435	3733.125
2781.06932	3733.125
2783.6327	3743.125
2786.1945	3732.425
2788.75471	3729.625
2791.31335	3738.825
2793.87041	3718.325
2796.42589	3715.025
2798.97979	3723.225
2801.53212	3707.325
2804.08288	3697.325
2806.63206	3700.625
2809.17967	3693.125
2811.72571	3690.625
2814.27018	3698.925
2816.81308	3701.825
2819.35442	3682.925
2821.89419	3702.825
2824.43239	3707.025
2826.96904	3690.625
2829.50412	3703.625
2832.03763	3692.025
2834.56959	3692.725
2837.1	3695.825
2839.62884	3690.125
2842.15613	3672.525
2844.68186	3696.325
2847.20604	3697.525
2849.72867	3711.925
2852.24974	3702.325
2854.76927	3719.825
2857.28724	3708.225
2859.80367	3704.125
2862.31855	3697.525
2864.83189	3697.725
2867.34368	3707.025
2869.85393	3699.725
2872.36264	3703.425
2874.8698	3697.825
2877.37543	3689.325
2879.87952	3690.925
2882.38207	3688.225
2884.88308	3666.225
2887.38256	3678.625
2889.88051	3674.225
2892.37692	3678.625
2894.8718	3681.425
2897.36515	3672.925
2899.85698	3673.825
2902.34727	3693.325
2904.83604	3685.325
2907.32328	3698.925
2909.809	3704.225
2912.29319	3695.325
2914.77587	3708.625
2917.25702	3704.025
2919.73665	3687.725
2922.21476	3684.125
2924.69136	3679.325
2927.16644	3688.325
2929.64	3680.025
2932.11205	3667.525
2934.58258	3652.725
2937.05161	3653.125
2939.51912	3643.425
2941.98513	3659.625
2944.44962	3623.825
2946.91261	3621.625
2949.37409	3623.825
2951.83407	3614.725
2954.29254	3633.325
2956.74951	3615.925
2959.20498	3628.025
2961.65895	3618.625
2964.11142	3618.625
2966.56239	3630.825
2969.01186	3615.625
2971.45984	3608.525
2973.90632	3593.025
2976.35131	3577.725
2978.7948	3584.625
2981.23681	3580.725
2983.67732	3572.225
2986.11635	3537.425
2988.55388	3551.125
2990.98993	3530.425
2993.4245	3515.725
2995.85758	3530.425
2998.28917	3507.025
3000.71928	3502.725
3003.14791	3503.225
3005.57506	3502.625
3008.00073	3499.625
3010.42493	3501.925
3012.84764	3489.425
3015.26888	3476.725
3017.68865	3477.025
3020.10694	3470.825
3022.52376	3456.025
3024.9391	3466.725
3027.35298	3460.025
3029.76539	3447.125
3032.17632	3435.825
3034.5858	3427.025
3036.9938	3441.925
3039.40034	3427.525
3041.80542	3412.425
3044.20903	3407.325
3046.61118	3411.825
3049.01187	3406.425
3051.4111	3412.825
3053.80888	3412.125
3056.20519	3394.325
3058.60005	3392.925
3060.99345	3392.625
3063.3854	3377.025
3065.7759	3362.625
3068.16494	3369.525
3070.55254	3363.325
3072.93868	3358.025
3075.32338	3351.125
3077.70662	3347.625
3080.08842	3330.425
3082.46878	3354.525
3084.84769	3337.125
3087.22515	3353.325
3089.60118	3332.425
3091.97576	3333.425
3094.3489	3347.425
3096.72061	3344.725
3099.09087	3343.125
3101.4597	3339.425
3103.82709	3357.825
3106.19305	3337.925
3108.55757	3349.225
3110.92066	3322.525
3113.28232	3329.125
3115.64255	3316.025
3118.00134	3311.125
3120.35871	3312.225
3122.71466	3316.425
3125.06917	3306.425
3127.42226	3310.425
3129.77393	3314.725
3132.12417	3312.225
3134.47299	3318.925
3136.82039	3323.925
3139.16636	3317.625
3141.51092	3318.825
3143.85406	3301.225
3146.19579	3320.825
3148.53609	3329.325
3150.87499	3346.625
3153.21246	3344.225
3155.54853	3346.225
3157.88318	3329.825
3160.21642	3338.325
3162.54826	3343.925
3164.87868	3341.825
3167.2077	3349.125
3169.5353	3339.625
3171.86151	3357.725
3174.18631	3358.125
3176.5097	3352.325
3178.83169	3335.725
3181.15228	3340.425
3183.47147	3329.425
3185.78926	3333.225
3188.10565	3331.825
3190.42065	3346.125
3192.73424	3344.025
3195.04645	3340.725
3197.35725	3346.825
3199.66667	3356.425
3201.97469	3344.625
3204.28132	3353.525
3206.58656	3352.525
3208.8904	3360.125
3211.19287	3344.325
3213.49394	3362.825
3215.79363	3368.125
3218.09193	3367.925
3220.38884	3389.825
3222.68438	3385.225
3224.97853	3379.825
3227.2713	3376.825
3229.56269	3378.125
3231.8527	3389.725
3234.14133	3377.625
3236.42858	3376.725
3238.71446	3373.825
3240.99896	3359.325
3243.28209	3366.125
3245.56384	3359.125
3247.84423	3359.425
3250.12324	3356.025
3252.40088	3359.325
3254.67715	3354.725
3256.95205	3334.525
3259.22558	3335.825
3261.49775	3351.825
3263.76855	3337.425
3266.03799	3335.325
3268.30606	3338.225
3270.57277	3335.025
3272.83812	3320.525
3275.10211	3344.725
3277.36474	3319.325
3279.62601	3316.325
3281.88593	3324.925
3284.14448	3309.825
3286.40168	3326.825
3288.65753	3329.925
3290.91202	3335.425
3293.16516	3330.025
3295.41695	3320.825
3297.66738	3303.725
3299.91647	3290.325
3302.16421	3270.925
3304.4106	3261.725
3306.65564	3228.925
3308.89933	3216.825
3311.14169	3195.225
3313.38269	3166.925
3315.62236	3155.525
3317.86068	3119.425
3320.09766	3115.725
3322.3333	3088.725
3324.5676	3097.225
3326.80056	3038.125
3329.03219	3026.025
3331.26248	2.025
3333.49143	-1.275
3335.71905	-0.375
