Data from AgNP_FTO_APTES_UA_100uM_CRN_20uM_R6G_10uM_NaF_0.1M_Addition_RamanShift__12__16-39-50-488.txt Node

Date: Thu Mar 24 16:39:50 GMT 2022
User: TCL
Spectrometer: QEP01345
Trigger mode: 4
Integration Time (sec): 7.000000E0
Scans to average: 10
Electric dark correction enabled: true
Nonlinearity correction enabled: false
Boxcar width: 0
XAxis mode: Raman Shifts
Number of Pixels in Spectrum: 1044
>>>>>Begin Spectral Data<<<<<
46.04893	-0.8
50.45542	0.3
54.85868	-0.4
59.25871	-0.5
63.6555	44.8
68.04907	46.2
72.43941	46.8
76.82654	46.7
81.21044	51.8
85.59113	51.7
89.96862	53.6
94.34289	54.2
98.71396	58
103.08183	57.7
107.4465	58.9
111.80798	61.4
116.16626	62.1
120.52136	63.9
124.87327	63.2
129.222	73
133.56755	78.1
137.90993	77.7
142.24913	93.5
146.58517	100.6
150.91804	117.3
155.24774	138
159.57429	172.9
163.89768	229.4
168.21792	302
172.53501	423.9
176.84895	594.1
181.15975	839.9
185.46741	1177.2
189.77193	1634.6
194.07331	2186.8
198.37157	2839.8
202.6667	3520.2
206.9587	4194
211.24758	4881.7
215.53334	5556.4
219.81599	6248.2
224.09553	7038.6
228.37195	7920.1
232.64527	8891.2
236.91549	9925.7
241.18261	10892.7
245.44663	11773.6
249.70755	12532.8
253.96539	13252.1
258.22014	13825.1
262.4718	14286.5
266.72039	14636.9
270.96589	14789.4
275.20832	14827.4
279.44768	14681.4
283.68397	14507.9
287.91719	14379.5
292.14735	14310.3
296.37445	14323.1
300.59849	14487.1
304.81948	14725.6
309.03742	14885.9
313.25231	14855.6
317.46415	14618.4
321.67296	14179
325.87872	13808.8
330.08145	13626.6
334.28114	13673
338.47781	13786.3
342.67145	14006
346.86207	14305.1
351.04966	14641.5
355.23424	15010.6
359.4158	15317.6
363.59435	15549.8
367.76989	15633.3
371.94243	15705.7
376.11196	15731.5
380.27849	15740
384.44203	15755.2
388.60257	15789.6
392.76012	15922.2
396.91468	16045.1
401.06626	16276.4
405.21485	16467.6
409.36047	16334.8
413.50311	15971
417.64277	15613.9
421.77947	15408.8
425.9132	15341.3
430.04396	15410.5
434.17176	15478.3
438.2966	15595.5
442.41849	15769.6
446.53742	16065.9
450.6534	16369.6
454.76644	16555.9
458.87653	16633.6
462.98368	16626.3
467.08789	16534.8
471.18916	16412.2
475.2875	16222.4
479.38291	16042.9
483.4754	15901.8
487.56496	15790.1
491.6516	15744
495.73531	15689.5
499.81612	15707.2
503.89401	15790.9
507.96899	15865.7
512.04106	15946.8
516.11023	16000
520.1765	16044.2
524.23987	16024.7
528.30034	15997.5
532.35792	15910.2
536.41261	15800.1
540.46441	15595.5
544.51333	15555
548.55936	15664.7
552.60252	15890
556.64279	16127.6
560.6802	16265.5
564.71473	16301.6
568.7464	16470.4
572.7752	16688
576.80114	16792.6
580.82422	16872.5
584.84444	17045
588.86181	17266
592.87633	17404
596.888	17566.8
600.89682	17676.1
604.9028	18356.3
608.90594	20609.9
612.90624	23347.4
616.90371	22372.4
620.89834	18342.4
624.89015	16451.4
628.87913	16159.1
632.86528	16384.9
636.84862	16604.7
640.82913	16483.7
644.80683	16054.1
648.78172	15769.1
652.75379	15717.3
656.72306	15980.7
660.68952	16306.6
664.65319	16262.2
668.61405	15883.1
672.57211	15768.7
676.52738	15822.1
680.47986	15819.4
684.42955	15694.8
688.37646	15623.5
692.32058	15660.6
696.26192	15790.1
700.20048	15929.1
704.13626	16065.8
708.06928	16074.4
711.99952	15973.1
715.927	15910.9
719.85171	15978.1
723.77365	16001.5
727.69284	15945.8
731.60928	15811.2
735.52295	15811.6
739.43388	15811.5
743.34206	15879.6
747.24749	15889.6
751.15017	15942.2
755.05012	16084.2
758.94733	16479.7
762.8418	17388.5
766.73354	18969.6
770.62254	20545.8
774.50882	21035.4
778.39237	20277.7
782.27321	18813.5
786.15132	17400.4
790.02671	16509.3
793.89938	16050.2
797.76935	15822.6
801.6366	15717.4
805.50115	15617.6
809.36299	15594.5
813.22213	15541.7
817.07857	15561.3
820.93231	15515.2
824.78336	15529.1
828.63172	15516.1
832.47738	15505.8
836.32036	15476.1
840.16066	15468.7
843.99827	15447.3
847.8332	15500.8
851.66546	15460.2
855.49504	15515
859.32195	15507.9
863.1462	15497.1
866.96777	15498
870.78668	15523.8
874.60293	15500.2
878.41652	15553.9
882.22745	15640.1
886.03573	15664.4
889.84136	15682
893.64433	15624.4
897.44466	15598
901.24235	15528.4
905.0374	15522.2
908.8298	15484.5
912.61957	15442.4
916.40671	15444.9
920.19121	15527.9
923.97308	15617.6
927.75233	15676.8
931.52895	15685.6
935.30295	15531.3
939.07433	15301.5
942.84309	15134.8
946.60924	15015.9
950.37278	14981.3
954.13371	14939.1
957.89203	14932.7
961.64774	14912.8
965.40086	14940.5
969.15137	14904
972.89929	14847.8
976.64461	14824.6
980.38733	14857.6
984.12747	14854.2
987.86502	14932.4
991.59999	14959.6
995.33237	15033.4
999.06217	15162
1002.78939	15318
1006.51404	15549.9
1010.23611	15729.4
1013.95561	15882.3
1017.67255	15845.8
1021.38692	15746.2
1025.09872	15589.7
1028.80796	15468
1032.51465	15363.5
1036.21877	15389.4
1039.92035	15430.2
1043.61937	15516.1
1047.31584	15580.8
1051.00976	15660.9
1054.70114	15649.5
1058.38998	15667.4
1062.07627	15743.9
1065.76003	15832.6
1069.44126	16019.2
1073.11995	16212.1
1076.79611	16478.7
1080.46974	16660.1
1084.14085	16819.4
1087.80943	16968.6
1091.47549	17075.4
1095.13903	16989.6
1098.80005	16801.1
1102.45857	16526.5
1106.11456	16403.1
1109.76805	16307.2
1113.41903	16372.9
1117.06751	16548
1120.71348	16850.6
1124.35696	17161.2
1127.99793	17447.5
1131.63641	17484.3
1135.2724	17195.5
1138.90589	16932.1
1142.5369	16734.1
1146.16542	16585.3
1149.79145	16526.3
1153.415	16482.4
1157.03607	16489.4
1160.65467	16700.4
1164.27079	17028.4
1167.88443	17564.3
1171.49561	18350.7
1175.10432	19471.5
1178.71056	20959
1182.31434	22355.6
1185.91565	22898
1189.51451	22737
1193.11091	22208.4
1196.70485	21460.5
1200.29634	20662.8
1203.88538	19983.6
1207.47197	19232
1211.05612	18568.7
1214.63782	18097.9
1218.21708	17797.6
1221.79391	17625.3
1225.36829	17552.1
1228.94024	17556.5
1232.50976	17480.1
1236.07685	17388.3
1239.6415	17375
1243.20374	17356.7
1246.76355	17383.8
1250.32093	17467.7
1253.8759	17659
1257.42845	17944.7
1260.97859	18368
1264.52631	18750.8
1268.07163	19126.9
1271.61453	19522.3
1275.15503	19775
1278.69312	19952.8
1282.22882	20173
1285.76211	20477
1289.29301	20966
1292.82151	21485.8
1296.34761	22038.6
1299.87133	22868.3
1303.39266	23998.3
1306.9116	25425.4
1310.42815	26964.3
1313.94233	27660.7
1317.45412	27148.2
1320.96354	26087.6
1324.47058	25017.5
1327.97525	24019.1
1331.47754	23383.3
1334.97747	23099.3
1338.47502	23114
1341.97022	23530.9
1345.46305	24248.6
1348.95352	25235.7
1352.44163	26309.4
1355.92738	27573.8
1359.41078	29372
1362.89183	31269.6
1366.37053	30797.9
1369.84688	27757.9
1373.32088	24283.3
1376.79254	22008.9
1380.26186	20855
1383.72883	20269.5
1387.19347	19821
1390.65578	19382.1
1394.11575	18980.7
1397.57339	18681.5
1401.0287	18485.5
1404.48168	18395.9
1407.93234	18317.8
1411.38068	18185.8
1414.82669	18113.1
1418.27039	17946.6
1421.71177	17746.1
1425.15083	17443
1428.58758	17300.7
1432.02203	17279.8
1435.45416	17400.8
1438.88399	17523.2
1442.31151	17558.4
1445.73673	17688.9
1449.15965	17749.1
1452.58027	17801.9
1455.9986	17821.5
1459.41463	17892.3
1462.82837	18103.4
1466.23982	18424.5
1469.64898	18798.4
1473.05586	19095
1476.46045	19313.5
1479.86276	19531.1
1483.26279	19695.1
1486.66054	19972.1
1490.05602	20413
1493.44922	21180.3
1496.84016	22278.5
1500.22882	23960.2
1503.61521	26062.8
1506.99934	28236.1
1510.38121	29640.1
1513.76081	29393.9
1517.13816	27652.9
1520.51324	25236
1523.88607	23220.1
1527.25665	22033.5
1530.62498	21397.7
1533.99105	20914
1537.35488	20552.8
1540.71647	20161.7
1544.07581	19781.1
1547.4329	19484.8
1550.78776	19270.6
1554.14038	19123.1
1557.49077	19158.5
1560.83892	19325.7
1564.18484	19642.7
1567.52853	20100.1
1570.86999	20504.3
1574.20922	20773.1
1577.54624	20715.6
1580.88103	20056.4
1584.2136	19248.1
1587.54395	18765.2
1590.87208	18826.3
1594.19801	19398.3
1597.52172	20142.1
1600.84321	20487.7
1604.16251	20070.1
1607.47959	19388.9
1610.79447	18606
1614.10715	17764.1
1617.41763	16984.1
1620.7259	16395.1
1624.03199	16024.2
1627.33587	15937.5
1630.63757	16089.6
1633.93707	16500.5
1637.23439	17351.1
1640.52951	18733.2
1643.82246	20672.9
1647.11321	22699.5
1650.40179	23856.6
1653.68819	23202
1656.97241	20961.4
1660.25446	18511.3
1663.53433	16725.2
1666.81203	15591.7
1670.08756	14919
1673.36092	14500
1676.63211	14215.7
1679.90115	14037
1683.16801	13877.6
1686.43272	13772.8
1689.69527	13624
1692.95567	13540.6
1696.2139	13480.9
1699.46999	13452
1702.72392	13392.8
1705.97571	13363.8
1709.22535	13347
1712.47284	13342.8
1715.71819	13307.1
1718.96139	13285.5
1722.20246	13208.4
1725.44139	13176.6
1728.67818	13078.7
1731.91284	13016.2
1735.14537	12957.3
1738.37576	12913
1741.60403	12898.1
1744.83017	12847.5
1748.05418	12817.9
1751.27607	12746.3
1754.49584	12740.6
1757.71349	12724.2
1760.92903	12701.7
1764.14244	12709.5
1767.35375	12685.9
1770.56294	12649.6
1773.77002	12618.4
1776.97499	12603.4
1780.17785	12558.2
1783.37861	12494.1
1786.57727	12507
1789.77382	12491.7
1792.96828	12497
1796.16064	12438.5
1799.3509	12405.8
1802.53907	12383.3
1805.72514	12375.4
1808.90913	12309
1812.09102	12281.9
1815.27083	12234.2
1818.44856	12238
1821.6242	12226.4
1824.79776	12165.4
1827.96924	12179.3
1831.13864	12141.9
1834.30597	12154.7
1837.47122	12118.2
1840.6344	12089.2
1843.7955	12090.4
1846.95454	12042.3
1850.11151	12034.9
1853.26642	12033.1
1856.41926	12010.1
1859.57004	12014.3
1862.71876	11969
1865.86542	11963.4
1869.01003	11986
1872.15258	11954
1875.29308	11931.1
1878.43152	11923.7
1881.56792	11903
1884.70227	11896.8
1887.83457	11933.7
1890.96482	11861
1894.09304	11869.2
1897.21921	11833.3
1900.34335	11783.1
1903.46544	11788.9
1906.58551	11794.3
1909.70353	11782.5
1912.81953	11738.4
1915.93349	11741.8
1919.04543	11702.4
1922.15534	11679
1925.26322	11637.2
1928.36908	11626.8
1931.47292	11589.7
1934.57473	11561.9
1937.67453	11552.9
1940.77232	11533.2
1943.86808	11486.9
1946.96184	11435.8
1950.05358	11412.6
1953.14331	11377.1
1956.23103	11331.6
1959.31675	11299
1962.40046	11245.3
1965.48217	11229.5
1968.56188	11215.1
1971.63959	11188
1974.7153	11152.7
1977.78901	11123.9
1980.86073	11106.3
1983.93046	11044.6
1986.99819	10993.8
1990.06394	10982.3
1993.1277	10945.7
1996.18947	10906
1999.24925	10864.3
2002.30706	10829.6
2005.36288	10782.3
2008.41672	10725.6
2011.46859	10708.1
2014.51848	10666
2017.56639	10624.9
2020.61233	10622
2023.6563	10592.3
2026.6983	10550.9
2029.73833	10526.4
2032.7764	10472.5
2035.8125	10446.7
2038.84664	10420.7
2041.87881	10418.6
2044.90903	10420.6
2047.93729	10344.9
2050.96359	10362.6
2053.98794	10320.8
2057.01034	10286.8
2060.03078	10264.9
2063.04927	10259
2066.06582	10254.1
2069.08042	10247.3
2072.09307	10271.5
2075.10378	10235.8
2078.11255	10238.9
2081.11938	10241.7
2084.12426	10217.2
2087.12722	10219.6
2090.12824	10206.1
2093.12732	10206.6
2096.12447	10212.5
2099.11969	10221.3
2102.11299	10223.4
2105.10435	10209.8
2108.09379	10212.4
2111.08131	10236.9
2114.0669	10230.3
2117.05057	10232.9
2120.03233	10230.9
2123.01216	10256.6
2125.99008	10250.9
2128.96609	10276.4
2131.94018	10265.3
2134.91236	10272
2137.88263	10258.4
2140.851	10267.9
2143.81746	10292.6
2146.78201	10254.9
2149.74466	10245
2152.7054	10229.6
2155.66425	10250.9
2158.6212	10227.6
2161.57625	10216
2164.52941	10217.7
2167.48067	10204.7
2170.43004	10214.7
2173.37752	10189.8
2176.32311	10223.7
2179.26681	10169.1
2182.20863	10186
2185.14856	10168
2188.08661	10175.4
2191.02278	10159.6
2193.95707	10154.1
2196.88948	10149.3
2199.82001	10126.7
2202.74867	10110.9
2205.67545	10124.9
2208.60037	10090.6
2211.52341	10071.5
2214.44458	10042.7
2217.36388	10028.9
2220.28132	10020.2
2223.1969	9996.1
2226.11061	9970.8
2229.02246	9927
2231.93245	9910.5
2234.84058	9897.9
2237.74686	9889.7
2240.65128	9884.7
2243.55385	9860
2246.45456	9846.5
2249.35343	9819.7
2252.25044	9814.3
2255.14561	9786.3
2258.03893	9779.1
2260.93041	9782.5
2263.82004	9744.3
2266.70783	9743.5
2269.59378	9720.8
2272.4779	9677.2
2275.36017	9666.8
2278.24061	9656.2
2281.11922	9633.5
2283.996	9610.6
2286.87094	9579.8
2289.74405	9552
2292.61534	9554.8
2295.4848	9539.3
2298.35243	9519.6
2301.21824	9491.8
2304.08223	9496.7
2306.94439	9515.3
2309.80474	9484.5
2312.66327	9487.6
2315.51999	9460.3
2318.37489	9471.9
2321.22797	9431.6
2324.07925	9404.5
2326.92871	9379.3
2329.77637	9387.1
2332.62222	9371.9
2335.46626	9345.8
2338.3085	9325
2341.14893	9305.8
2343.98756	9303.9
2346.8244	9311.1
2349.65943	9295
2352.49267	9308.4
2355.32411	9294.7
2358.15376	9306.2
2360.98161	9290
2363.80768	9288.5
2366.63195	9292.1
2369.45444	9303.8
2372.27514	9263.8
2375.09405	9282.2
2377.91118	9248.3
2380.72652	9229.6
2383.54009	9187.5
2386.35187	9180.8
2389.16188	9152.3
2391.97011	9111
2394.77657	9099.7
2397.58125	9078.4
2400.38416	9060.4
2403.18529	9034.2
2405.98466	9013.3
2408.78226	9024.3
2411.57809	8997.4
2414.37216	8989.4
2417.16446	8992.9
2419.955	8985.3
2422.74378	8985.4
2425.5308	8941.2
2428.31606	8934.9
2431.09956	8932.7
2433.88131	8912.6
2436.6613	8918.4
2439.43954	8914.9
2442.21603	8853.3
2444.99077	8857.1
2447.76377	8875.7
2450.53501	8876.3
2453.30451	8861.3
2456.07226	8858.8
2458.83827	8843
2461.60254	8860.5
2464.36507	8837.5
2467.12586	8839.6
2469.88492	8809.5
2472.64224	8820.3
2475.39782	8809.9
2478.15167	8818.6
2480.90379	8831.4
2483.65417	8832.7
2486.40283	8842.2
2489.14976	8824.5
2491.89497	8804.1
2494.63845	8824.8
2497.3802	8784.5
2500.12024	8761.8
2502.85855	8761.2
2505.59514	8758.3
2508.33002	8747.3
2511.06318	8694.1
2513.79462	8698.6
2516.52435	8685.4
2519.25237	8651.4
2521.97867	8662.8
2524.70327	8649.5
2527.42616	8610.3
2530.14734	8637.7
2532.86681	8608.8
2535.58458	8578.1
2538.30065	8555.7
2541.01501	8571.1
2543.72768	8539.2
2546.43864	8540.2
2549.14791	8531.5
2551.85548	8512.7
2554.56136	8497.6
2557.26554	8454
2559.96803	8466.6
2562.66883	8442.6
2565.36794	8444
2568.06536	8412.5
2570.7611	8406.1
2573.45514	8390.5
2576.14751	8372.8
2578.83819	8352.7
2581.52719	8340.6
2584.21451	8337.9
2586.90015	8313.5
2589.58411	8328
2592.2664	8292.4
2594.94701	8280.3
2597.62594	8270.4
2600.30321	8242.5
2602.9788	8264.5
2605.65273	8215.2
2608.32498	8216.3
2610.99557	8191.5
2613.66449	8185.6
2616.33175	8192.5
2618.99734	8184.6
2621.66128	8146.1
2624.32355	8164
2626.98416	8114.9
2629.64311	8117.8
2632.30041	8094.8
2634.95605	8086
2637.61004	8075.4
2640.26238	8058.7
2642.91306	8073.9
2645.56209	8081.7
2648.20948	8045.5
2650.85521	8043.4
2653.4993	8059.2
2656.14175	8070.4
2658.78255	8066.5
2661.42171	8037.3
2664.05923	8050
2666.6951	8041.7
2669.32934	8079.8
2671.96194	8059.2
2674.59291	8077.4
2677.22224	8029.5
2679.84993	8040.7
2682.476	8011.3
2685.10043	8022.8
2687.72324	8000.6
2690.34441	8009.2
2692.96396	8014.3
2695.58188	8008.4
2698.19818	8002.7
2700.81285	8031.4
2703.4259	7993
2706.03733	7992.3
2708.64714	7981.9
2711.25533	8008
2713.86191	7985.7
2716.46687	8027.9
2719.07021	8013.2
2721.67194	8004.6
2724.27206	7998.9
2726.87057	8013.1
2729.46747	7986.1
2732.06276	7999.2
2734.65644	7966.9
2737.24852	7947.4
2739.83899	7928.9
2742.42786	7941.3
2745.01513	7917.3
2747.60079	7913.6
2750.18486	7889.1
2752.76733	7905
2755.3482	7892.6
2757.92747	7870.8
2760.50515	7866.2
2763.08123	7856.5
2765.65573	7823.7
2768.22863	7833.8
2770.79994	7810.6
2773.36967	7836.6
2775.9378	7814
2778.50435	7800.5
2781.06932	7775.9
2783.6327	7773.9
2786.1945	7774.9
2788.75471	7757.7
2791.31335	7748.3
2793.87041	7715.8
2796.42589	7710.8
2798.97979	7710.8
2801.53212	7676.9
2804.08288	7665.1
2806.63206	7640.1
2809.17967	7654
2811.72571	7628.7
2814.27018	7614.2
2816.81308	7589.1
2819.35442	7587.7
2821.89419	7574
2824.43239	7582.5
2826.96904	7582.5
2829.50412	7539.6
2832.03763	7533.6
2834.56959	7530.8
2837.1	7519.9
2839.62884	7533.6
2842.15613	7542.7
2844.68186	7548.1
2847.20604	7525.4
2849.72867	7519.7
2852.24974	7529.8
2854.76927	7520.6
2857.28724	7494.3
2859.80367	7483.1
2862.31855	7484.9
2864.83189	7491.5
2867.34368	7473.9
2869.85393	7488.8
2872.36264	7451.6
2874.8698	7458.9
2877.37543	7459.9
2879.87952	7436.8
2882.38207	7443.7
2884.88308	7444.6
2887.38256	7436.9
2889.88051	7432.1
2892.37692	7425
2894.8718	7402.7
2897.36515	7397.7
2899.85698	7401.7
2902.34727	7426.5
2904.83604	7406.3
2907.32328	7437.3
2909.809	7423
2912.29319	7438.9
2914.77587	7428.4
2917.25702	7436.4
2919.73665	7416.1
2922.21476	7432
2924.69136	7417.4
2927.16644	7389.5
2929.64	7406.7
2932.11205	7378.8
2934.58258	7354.5
2937.05161	7376.9
2939.51912	7338.4
2941.98513	7335.1
2944.44962	7300.6
2946.91261	7294.1
2949.37409	7278.8
2951.83407	7282.5
2954.29254	7279.3
2956.74951	7299.9
2959.20498	7302.2
2961.65895	7309.9
2964.11142	7268.6
2966.56239	7260.4
2969.01186	7242.5
2971.45984	7246.6
2973.90632	7240.3
2976.35131	7224.8
2978.7948	7195.2
2981.23681	7201.5
2983.67732	7190.1
2986.11635	7152.7
2988.55388	7162.4
2990.98993	7132.7
2993.4245	7121.1
2995.85758	7099.4
2998.28917	7106.7
3000.71928	7077.3
3003.14791	7063.2
3005.57506	7063.3
3008.00073	7033.2
3010.42493	7042.8
3012.84764	7022.3
3015.26888	7034.6
3017.68865	7020.8
3020.10694	7005.3
3022.52376	6983.7
3024.9391	6959.4
3027.35298	6944.6
3029.76539	6955.1
3032.17632	6921.1
3034.5858	6926.8
3036.9938	6909.3
3039.40034	6902.7
3041.80542	6909.2
3044.20903	6867.7
3046.61118	6858.4
3049.01187	6856.4
3051.4111	6839.6
3053.80888	6825.1
3056.20519	6830.4
3058.60005	6818.9
3060.99345	6797.8
3063.3854	6791
3065.7759	6769.1
3068.16494	6762.3
3070.55254	6755.5
3072.93868	6734.9
3075.32338	6722.5
3077.70662	6730.9
3080.08842	6691.6
3082.46878	6690.2
3084.84769	6683.7
3087.22515	6686.4
3089.60118	6689.4
3091.97576	6679.6
3094.3489	6673.9
3096.72061	6669.8
3099.09087	6660
3101.4597	6680.5
3103.82709	6654
3106.19305	6662.6
3108.55757	6673.6
3110.92066	6654.6
3113.28232	6641.2
3115.64255	6616.9
3118.00134	6609.9
3120.35871	6582
3122.71466	6577.7
3125.06917	6569.4
3127.42226	6552.3
3129.77393	6543.6
3132.12417	6545.1
3134.47299	6554
3136.82039	6527.4
3139.16636	6527.2
3141.51092	6535.2
3143.85406	6553.5
3146.19579	6543.9
3148.53609	6548.2
3150.87499	6559.2
3153.21246	6565.2
3155.54853	6577.5
3157.88318	6555.7
3160.21642	6555.4
3162.54826	6567.4
3164.87868	6551
3167.2077	6541.7
3169.5353	6549.4
3171.86151	6544.9
3174.18631	6538.7
3176.5097	6555.5
3178.83169	6542.1
3181.15228	6518.4
3183.47147	6486.2
3185.78926	6514.2
3188.10565	6493.5
3190.42065	6504.8
3192.73424	6499
3195.04645	6473.3
3197.35725	6492.7
3199.66667	6496.8
3201.97469	6496.9
3204.28132	6501.6
3206.58656	6491.9
3208.8904	6494.9
3211.19287	6496.4
3213.49394	6489.6
3215.79363	6506.9
3218.09193	6485.7
3220.38884	6498.8
3222.68438	6507.8
3224.97853	6501
3227.2713	6502.7
3229.56269	6498
3231.8527	6498
3234.14133	6480.9
3236.42858	6470.5
3238.71446	6456.4
3240.99896	6449.8
3243.28209	6426.9
3245.56384	6396.6
3247.84423	6407.9
3250.12324	6401.6
3252.40088	6411.8
3254.67715	6383.2
3256.95205	6389.1
3259.22558	6389
3261.49775	6384.1
3263.76855	6376
3266.03799	6356.7
3268.30606	6343.1
3270.57277	6347.9
3272.83812	6301.3
3275.10211	6291.4
3277.36474	6289.6
3279.62601	6287.3
3281.88593	6294.1
3284.14448	6292
3286.40168	6291.2
3288.65753	6292.8
3290.91202	6277.9
3293.16516	6257.8
3295.41695	6248.7
3297.66738	6215.7
3299.91647	6179.3
3302.16421	6161.4
3304.4106	6134.1
3306.65564	6105.1
3308.89933	6080.3
3311.14169	6036.8
3313.38269	5989.4
3315.62236	5955.6
3317.86068	5883.5
3320.09766	5863.7
3322.3333	5819.1
3324.5676	5804.7
3326.80056	5724.9
3329.03219	5668
3331.26248	1.5
3333.49143	-1.1
3335.71905	0.8
