Data from AgNP_FTO_APTES_UA_100uM_CRN_2uM_R6G_10uM_NaF_0.1M_Addition_RamanShift__24__14-12-50-320.txt Node

Date: Thu Mar 24 14:12:50 GMT 2022
User: TCL
Spectrometer: QEP01345
Trigger mode: 4
Integration Time (sec): 7.000000E0
Scans to average: 10
Electric dark correction enabled: true
Nonlinearity correction enabled: false
Boxcar width: 0
XAxis mode: Raman Shifts
Number of Pixels in Spectrum: 1044
>>>>>Begin Spectral Data<<<<<
46.04893	-1.4
50.45542	-0.3
54.85868	0.2
59.25871	-0.9
63.6555	43.4
68.04907	47
72.43941	46
76.82654	46.4
81.21044	53.8
85.59113	52.7
89.96862	56.5
94.34289	54.7
98.71396	61.8
103.08183	58.2
107.4465	61.9
111.80798	67.5
116.16626	62.7
120.52136	66.8
124.87327	67.2
129.222	71.7
133.56755	78.1
137.90993	84.5
142.24913	94.7
146.58517	101.8
150.91804	122
155.24774	143.5
159.57429	178.1
163.89768	234.3
168.21792	309.2
172.53501	421.5
176.84895	592.3
181.15975	833.7
185.46741	1181.2
189.77193	1624.9
194.07331	2186.7
198.37157	2821
202.6667	3518.4
206.9587	4236
211.24758	4970
215.53334	5744.6
219.81599	6641.6
224.09553	7641.4
228.37195	8799.6
232.64527	10044.3
236.91549	11221.9
241.18261	12262
245.44663	12992.6
249.70755	13582.3
253.96539	14016.7
258.22014	14493.8
262.4718	14873
266.72039	15141
270.96589	15138.9
275.20832	14925.6
279.44768	14556.3
283.68397	14152
287.91719	13949.4
292.14735	14029.7
296.37445	14515.4
300.59849	15394
304.81948	16438.7
309.03742	17280.3
313.25231	17454.8
317.46415	16600.2
321.67296	15064
325.87872	13648.7
330.08145	12960.4
334.28114	12920.7
338.47781	13179.2
342.67145	13682.4
346.86207	14395.1
351.04966	15456.6
355.23424	16705.2
359.4158	17665.8
363.59435	18131.1
367.76989	18164.3
371.94243	17986.7
376.11196	17684.3
380.27849	17433.6
384.44203	17097.1
388.60257	16728.2
392.76012	16485.8
396.91468	16551.9
401.06626	16977
405.21485	17342.8
409.36047	16881.9
413.50311	15654.7
417.64277	14457.3
421.77947	13725.7
425.9132	13418.7
430.04396	13325.8
434.17176	13410.7
438.2966	13552.3
442.41849	13968.8
446.53742	14478.5
450.6534	14913.1
454.76644	15167.6
458.87653	15163.7
462.98368	14904.8
467.08789	14567.2
471.18916	14157.1
475.2875	13690.6
479.38291	13326.4
483.4754	13001.6
487.56496	12814.3
491.6516	12643.4
495.73531	12644.9
499.81612	12708.9
503.89401	12898
507.96899	13177.2
512.04106	13475.2
516.11023	13808.6
520.1765	14017.4
524.23987	14062.7
528.30034	13873.5
532.35792	13656.4
536.41261	13341.7
540.46441	12921.5
544.51333	12713.3
548.55936	12838.4
552.60252	13253.5
556.64279	13762.2
560.6802	14024
564.71473	14307.7
568.7464	15084.1
572.7752	15456.1
576.80114	14719
580.82422	13901.9
584.84444	13634.4
588.86181	13614.1
592.87633	13791.7
596.888	14032.7
600.89682	14657.3
604.9028	17153.8
608.90594	23924.2
612.90624	32780.9
616.90371	31609.2
620.89834	20319.3
624.89015	14650.4
628.87913	13636.2
632.86528	13880.6
636.84862	14270.7
640.82913	13941.5
644.80683	12946.9
648.78172	12209.2
652.75379	12261.7
656.72306	12992.1
660.68952	13957.2
664.65319	13727.5
668.61405	12700.4
672.57211	12216.1
676.52738	12138.6
680.47986	12091.7
684.42955	11902.6
688.37646	11771.2
692.32058	11809.1
696.26192	11976.3
700.20048	12195.3
704.13626	12366.2
708.06928	12315.2
711.99952	12154.3
715.927	12153.9
719.85171	12270.9
723.77365	12372.9
727.69284	12281.7
731.60928	12110.6
735.52295	12069.4
739.43388	12105.5
743.34206	12184
747.24749	12256.2
751.15017	12294
755.05012	12583.7
758.94733	13566.8
762.8418	15974.3
766.73354	20093.8
770.62254	24082.5
774.50882	25936.7
778.39237	24507.2
782.27321	20371.3
786.15132	16272.6
790.02671	13802.3
793.89938	12716.2
797.76935	12291.4
801.6366	12082.4
805.50115	11984.6
809.36299	11924
813.22213	11861.4
817.07857	11824.3
820.93231	11798.4
824.78336	11840.9
828.63172	11930.3
832.47738	11992.4
836.32036	11907.6
840.16066	11786.7
843.99827	11739.1
847.8332	11716.3
851.66546	11705.4
855.49504	11676
859.32195	11650.9
863.1462	11612
866.96777	11559.1
870.78668	11524.7
874.60293	11576.6
878.41652	11647.5
882.22745	11804.3
886.03573	11885.8
889.84136	11842.4
893.64433	11784.4
897.44466	11737.5
901.24235	11742
905.0374	11657
908.8298	11560.2
912.61957	11467.1
916.40671	11483.1
920.19121	11612.3
923.97308	11812.5
927.75233	12082.6
931.52895	12361.3
935.30295	12238.1
939.07433	11742.1
942.84309	11309.8
946.60924	11088
950.37278	10955.7
954.13371	10862.4
957.89203	10791.8
961.64774	10762.8
965.40086	10701.1
969.15137	10680.4
972.89929	10639.7
976.64461	10643.5
980.38733	10650.9
984.12747	10685.2
987.86502	10754.8
991.59999	10873.6
995.33237	11073
999.06217	11425.3
1002.78939	11823.1
1006.51404	12242.6
1010.23611	12554.7
1013.95561	12658.2
1017.67255	12667.8
1021.38692	12498.8
1025.09872	12264.9
1028.80796	12209.4
1032.51465	12416.1
1036.21877	12684.4
1039.92035	12800.3
1043.61937	12776.6
1047.31584	12642.1
1051.00976	12413.5
1054.70114	12237
1058.38998	12142.1
1062.07627	12155.1
1065.76003	12187.9
1069.44126	12265.9
1073.11995	12429.6
1076.79611	12709.9
1080.46974	13156.7
1084.14085	13770
1087.80943	14319.9
1091.47549	14508.8
1095.13903	14141.2
1098.80005	13475.1
1102.45857	12989.8
1106.11456	12865.5
1109.76805	13116.4
1113.41903	13660.2
1117.06751	14567.7
1120.71348	15677.8
1124.35696	16938.5
1127.99793	17737.2
1131.63641	17163.5
1135.2724	15792.4
1138.90589	14627.3
1142.5369	13940.5
1146.16542	13476.2
1149.79145	13209.3
1153.415	13139.2
1157.03607	13297.3
1160.65467	13662.7
1164.27079	14387.3
1167.88443	15468.4
1171.49561	17180.4
1175.10432	19925.2
1178.71056	23609.7
1182.31434	26738
1185.91565	27549.5
1189.51451	26518
1193.11091	24281.9
1196.70485	21833
1200.29634	20025.5
1203.88538	18678
1207.47197	17170.2
1211.05612	15794.6
1214.63782	14971.2
1218.21708	14664.7
1221.79391	14630.1
1225.36829	14714.2
1228.94024	14647.6
1232.50976	14483
1236.07685	14338
1239.6415	14358.8
1243.20374	14447.7
1246.76355	14601.5
1250.32093	14888.9
1253.8759	15265.8
1257.42845	15899
1260.97859	16632.1
1264.52631	17420.1
1268.07163	18199.4
1271.61453	18861.8
1275.15503	19322.6
1278.69312	19618.4
1282.22882	19895.4
1285.76211	20500.5
1289.29301	21367.5
1292.82151	22325.5
1296.34761	23347.9
1299.87133	25121.9
1303.39266	28312.9
1306.9116	33203.8
1310.42815	38304
1313.94233	40260.2
1317.45412	37734.7
1320.96354	33320.6
1324.47058	29056.1
1327.97525	25760.6
1331.47754	23745.4
1334.97747	23097.2
1338.47502	23401.4
1341.97022	24532.5
1345.46305	26570.1
1348.95352	29248.4
1352.44163	32646.5
1355.92738	37641.9
1359.41078	45405.4
1362.89183	52241.6
1366.37053	49165.9
1369.84688	38781
1373.32088	29880.1
1376.79254	24853.8
1380.26186	22171.9
1383.72883	20579.8
1387.19347	19462.7
1390.65578	18432.2
1394.11575	17608.8
1397.57339	17262.8
1401.0287	17201.2
1404.48168	17253
1407.93234	17390.8
1411.38068	17575.9
1414.82669	17804.7
1418.27039	17774.3
1421.71177	17485.1
1425.15083	17023.5
1428.58758	16830.2
1432.02203	17085.5
1435.45416	17436.4
1438.88399	17497.7
1442.31151	17466.7
1445.73673	17571.3
1449.15965	17731.2
1452.58027	17665.3
1455.9986	17443.3
1459.41463	17330.2
1462.82837	17646.2
1466.23982	18224.5
1469.64898	18831.9
1473.05586	19248.4
1476.46045	19447.8
1479.86276	19776.4
1483.26279	20291.5
1486.66054	21063.2
1490.05602	22248.8
1493.44922	23964.2
1496.84016	26789
1500.22882	31256.3
1503.61521	37616.3
1506.99934	44887.4
1510.38121	50322.2
1513.76081	50601.9
1517.13816	44969.1
1520.51324	36722.4
1523.88607	29797.6
1527.25665	25515
1530.62498	23193.1
1533.99105	21862.5
1537.35488	20981.9
1540.71647	20418.8
1544.07581	20172.9
1547.4329	20052.7
1550.78776	20106.4
1554.14038	20286.3
1557.49077	20673.4
1560.83892	21231.7
1564.18484	22191.3
1567.52853	23354.7
1570.86999	24181.2
1574.20922	24652.9
1577.54624	24299
1580.88103	22540.6
1584.2136	20141.3
1587.54395	18784
1590.87208	18810
1594.19801	20097.2
1597.52172	22033.5
1600.84321	23032.1
1604.16251	22275.1
1607.47959	20788.7
1610.79447	19125.7
1614.10715	17411.5
1617.41763	16018.2
1620.7259	15056.4
1624.03199	14637.3
1627.33587	14654.2
1630.63757	15155.3
1633.93707	16181.3
1637.23439	17859.9
1640.52951	20697.7
1643.82246	24928.8
1647.11321	30070.3
1650.40179	33428.7
1653.68819	31991.5
1656.97241	26407.7
1660.25446	20599
1663.53433	16717.5
1666.81203	14484
1670.08756	13207.1
1673.36092	12465.2
1676.63211	11983.8
1679.90115	11653.7
1683.16801	11404.4
1686.43272	11239.4
1689.69527	11111.2
1692.95567	11020.1
1696.2139	10958.4
1699.46999	10913.8
1702.72392	10871.4
1705.97571	10840.6
1709.22535	10830.9
1712.47284	10826
1715.71819	10845.6
1718.96139	10793.3
1722.20246	10750.3
1725.44139	10670.2
1728.67818	10547.7
1731.91284	10440.1
1735.14537	10342.2
1738.37576	10268.4
1741.60403	10224.7
1744.83017	10209.3
1748.05418	10161.4
1751.27607	10142.7
1754.49584	10132.7
1757.71349	10090.6
1760.92903	10062.8
1764.14244	10050.1
1767.35375	10014.6
1770.56294	9985
1773.77002	9955.8
1776.97499	9909.8
1780.17785	9876.7
1783.37861	9831.4
1786.57727	9821.9
1789.77382	9778.7
1792.96828	9782
1796.16064	9772.8
1799.3509	9749.9
1802.53907	9739.3
1805.72514	9695
1808.90913	9654.2
1812.09102	9624
1815.27083	9586.9
1818.44856	9582.7
1821.6242	9557.4
1824.79776	9522.4
1827.96924	9510.8
1831.13864	9517
1834.30597	9491.8
1837.47122	9444.4
1840.6344	9437.2
1843.7955	9438.6
1846.95454	9437.4
1850.11151	9415.3
1853.26642	9410.8
1856.41926	9423.2
1859.57004	9413
1862.71876	9427.8
1865.86542	9411.6
1869.01003	9397.9
1872.15258	9392.3
1875.29308	9405.1
1878.43152	9376.4
1881.56792	9391.2
1884.70227	9365.8
1887.83457	9389.9
1890.96482	9387
1894.09304	9363.2
1897.21921	9360.4
1900.34335	9353.7
1903.46544	9366.7
1906.58551	9357.8
1909.70353	9371.8
1912.81953	9366.1
1915.93349	9365.5
1919.04543	9315.7
1922.15534	9310.3
1925.26322	9297.2
1928.36908	9259.3
1931.47292	9225.3
1934.57473	9213.3
1937.67453	9163
1940.77232	9145.5
1943.86808	9121
1946.96184	9089.4
1950.05358	9082.4
1953.14331	9071.4
1956.23103	9036.7
1959.31675	9035.1
1962.40046	9027.2
1965.48217	9010.2
1968.56188	9016.7
1971.63959	8985.5
1974.7153	8971.6
1977.78901	8943.1
1980.86073	8904.2
1983.93046	8868.7
1986.99819	8826.9
1990.06394	8815
1993.1277	8756.4
1996.18947	8712.9
1999.24925	8688.4
2002.30706	8653.3
2005.36288	8641.4
2008.41672	8580.8
2011.46859	8573
2014.51848	8554.4
2017.56639	8529.6
2020.61233	8502.2
2023.6563	8487.6
2026.6983	8475
2029.73833	8431.5
2032.7764	8421.1
2035.8125	8408.5
2038.84664	8398.8
2041.87881	8390.5
2044.90903	8381.5
2047.93729	8370.7
2050.96359	8342.1
2053.98794	8332.1
2057.01034	8282.4
2060.03078	8304.4
2063.04927	8275.7
2066.06582	8268.7
2069.08042	8240.5
2072.09307	8262.2
2075.10378	8247.6
2078.11255	8256.9
2081.11938	8244.7
2084.12426	8253.3
2087.12722	8241.1
2090.12824	8235
2093.12732	8259.6
2096.12447	8252.9
2099.11969	8229.7
2102.11299	8254.4
2105.10435	8245.4
2108.09379	8264.1
2111.08131	8270
2114.0669	8295.3
2117.05057	8310.1
2120.03233	8318
2123.01216	8328.7
2125.99008	8335.3
2128.96609	8345.1
2131.94018	8354.8
2134.91236	8351
2137.88263	8348.3
2140.851	8325.9
2143.81746	8356.2
2146.78201	8341.5
2149.74466	8335.1
2152.7054	8330
2155.66425	8313
2158.6212	8306
2161.57625	8308.5
2164.52941	8282.2
2167.48067	8292.7
2170.43004	8294
2173.37752	8284.3
2176.32311	8283
2179.26681	8308
2182.20863	8273.9
2185.14856	8283.9
2188.08661	8273.9
2191.02278	8275.3
2193.95707	8263.8
2196.88948	8261.6
2199.82001	8264
2202.74867	8262
2205.67545	8246.5
2208.60037	8224.5
2211.52341	8242.2
2214.44458	8223.5
2217.36388	8212.6
2220.28132	8227.4
2223.1969	8216.7
2226.11061	8196.6
2229.02246	8163.5
2231.93245	8139.1
2234.84058	8136.1
2237.74686	8109.6
2240.65128	8081.3
2243.55385	8097.5
2246.45456	8098
2249.35343	8078.3
2252.25044	8108
2255.14561	8113.9
2258.03893	8118.8
2260.93041	8111.8
2263.82004	8107.8
2266.70783	8097.3
2269.59378	8090.3
2272.4779	8057.2
2275.36017	8026.2
2278.24061	8007.4
2281.11922	8003.2
2283.996	8011.4
2286.87094	7988.5
2289.74405	7965.7
2292.61534	7932.6
2295.4848	7922.4
2298.35243	7913
2301.21824	7898.8
2304.08223	7917.8
2306.94439	7931.3
2309.80474	7921.7
2312.66327	7913.6
2315.51999	7907
2318.37489	7915.8
2321.22797	7905.4
2324.07925	7915.7
2326.92871	7906.6
2329.77637	7896.5
2332.62222	7880
2335.46626	7900.9
2338.3085	7922.7
2341.14893	7926.7
2343.98756	7917.6
2346.8244	7928.2
2349.65943	7955.9
2352.49267	7939.2
2355.32411	7976.8
2358.15376	7985.2
2360.98161	8005.9
2363.80768	8021
2366.63195	8006.3
2369.45444	8026.9
2372.27514	8028.9
2375.09405	7988.7
2377.91118	7965.1
2380.72652	7930.2
2383.54009	7902.5
2386.35187	7874.3
2389.16188	7849.6
2391.97011	7818.5
2394.77657	7791.9
2397.58125	7768.3
2400.38416	7729.8
2403.18529	7741.2
2405.98466	7703.8
2408.78226	7691.3
2411.57809	7674.5
2414.37216	7642.9
2417.16446	7643.2
2419.955	7618.9
2422.74378	7637.5
2425.5308	7620.3
2428.31606	7654.7
2431.09956	7639
2433.88131	7642.2
2436.6613	7622.7
2439.43954	7632.8
2442.21603	7656.9
2444.99077	7653.7
2447.76377	7666.9
2450.53501	7677.8
2453.30451	7671.5
2456.07226	7661.4
2458.83827	7664.8
2461.60254	7661.7
2464.36507	7656.4
2467.12586	7670.9
2469.88492	7690.8
2472.64224	7682.3
2475.39782	7695.5
2478.15167	7713.5
2480.90379	7727.5
2483.65417	7747
2486.40283	7783.1
2489.14976	7808.9
2491.89497	7806.6
2494.63845	7815.6
2497.3802	7803.3
2500.12024	7796.5
2502.85855	7783.7
2505.59514	7739.8
2508.33002	7728.1
2511.06318	7682.7
2513.79462	7664.5
2516.52435	7619.7
2519.25237	7567.7
2521.97867	7597.4
2524.70327	7560.3
2527.42616	7529.7
2530.14734	7524.7
2532.86681	7523
2535.58458	7506.5
2538.30065	7514.1
2541.01501	7537.7
2543.72768	7530.6
2546.43864	7522.8
2549.14791	7518.4
2551.85548	7548.9
2554.56136	7533.9
2557.26554	7511.6
2559.96803	7513.4
2562.66883	7503.8
2565.36794	7515.3
2568.06536	7502.9
2570.7611	7509.8
2573.45514	7485.7
2576.14751	7469
2578.83819	7477.6
2581.52719	7442
2584.21451	7430.8
2586.90015	7445.4
2589.58411	7405.5
2592.2664	7411.3
2594.94701	7399.9
2597.62594	7402.7
2600.30321	7401.5
2602.9788	7381.3
2605.65273	7380
2608.32498	7387.9
2610.99557	7392
2613.66449	7382.3
2616.33175	7401.3
2618.99734	7407.4
2621.66128	7413.7
2624.32355	7403.2
2626.98416	7392.2
2629.64311	7374.7
2632.30041	7381.5
2634.95605	7373.1
2637.61004	7382.1
2640.26238	7356.5
2642.91306	7345.1
2645.56209	7329.6
2648.20948	7322.2
2650.85521	7326.2
2653.4993	7319.9
2656.14175	7323.9
2658.78255	7317.1
2661.42171	7345.1
2664.05923	7338.6
2666.6951	7351.9
2669.32934	7366
2671.96194	7395
2674.59291	7378.5
2677.22224	7383.4
2679.84993	7368.1
2682.476	7367.9
2685.10043	7380.8
2687.72324	7360.5
2690.34441	7363.4
2692.96396	7362.5
2695.58188	7351.3
2698.19818	7351.5
2700.81285	7353
2703.4259	7346
2706.03733	7351.3
2708.64714	7351.1
2711.25533	7383.8
2713.86191	7364.2
2716.46687	7375.7
2719.07021	7357.9
2721.67194	7379
2724.27206	7359.2
2726.87057	7366.5
2729.46747	7369.2
2732.06276	7365.8
2734.65644	7328
2737.24852	7355.8
2739.83899	7317.7
2742.42786	7337.9
2745.01513	7295.2
2747.60079	7307.7
2750.18486	7311.7
2752.76733	7299.5
2755.3482	7280.8
2757.92747	7279.4
2760.50515	7259.9
2763.08123	7267.2
2765.65573	7272.5
2768.22863	7260
2770.79994	7264.4
2773.36967	7258.1
2775.9378	7257.9
2778.50435	7232.9
2781.06932	7247.7
2783.6327	7248.2
2786.1945	7235.9
2788.75471	7241
2791.31335	7226.4
2793.87041	7216.8
2796.42589	7226
2798.97979	7215.6
2801.53212	7202.8
2804.08288	7222.8
2806.63206	7220.7
2809.17967	7230
2811.72571	7220.4
2814.27018	7249.5
2816.81308	7260.7
2819.35442	7273.3
2821.89419	7249.1
2824.43239	7265.3
2826.96904	7258.7
2829.50412	7260.7
2832.03763	7264.7
2834.56959	7248
2837.1	7238.8
2839.62884	7229.5
2842.15613	7225.8
2844.68186	7240.5
2847.20604	7265.1
2849.72867	7269.1
2852.24974	7254.9
2854.76927	7252.9
2857.28724	7235.7
2859.80367	7268.9
2862.31855	7251.3
2864.83189	7270
2867.34368	7292.8
2869.85393	7308.1
2872.36264	7313.2
2874.8698	7320.2
2877.37543	7311.6
2879.87952	7339
2882.38207	7334.3
2884.88308	7291.7
2887.38256	7294.3
2889.88051	7300.5
2892.37692	7285.7
2894.8718	7292.3
2897.36515	7283.6
2899.85698	7261.4
2902.34727	7315.4
2904.83604	7269.5
2907.32328	7303
2909.809	7292.8
2912.29319	7286.6
2914.77587	7242.7
2917.25702	7253
2919.73665	7248.5
2922.21476	7243.4
2924.69136	7210.4
2927.16644	7203.2
2929.64	7208.5
2932.11205	7190.9
2934.58258	7155.7
2937.05161	7167.3
2939.51912	7155.4
2941.98513	7158.4
2944.44962	7147.6
2946.91261	7116.6
2949.37409	7130.4
2951.83407	7128.8
2954.29254	7124.7
2956.74951	7107.4
2959.20498	7111.9
2961.65895	7099.9
2964.11142	7100
2966.56239	7081.1
2969.01186	7086.5
2971.45984	7051.3
2973.90632	7039.5
2976.35131	7006.2
2978.7948	7000.3
2981.23681	6976.5
2983.67732	6975
2986.11635	6949.2
2988.55388	6947.9
2990.98993	6934
2993.4245	6945.2
2995.85758	6932
2998.28917	6905.9
3000.71928	6928.7
3003.14791	6904.6
3005.57506	6915.6
3008.00073	6897.3
3010.42493	6903.8
3012.84764	6913.4
3015.26888	6899
3017.68865	6877.4
3020.10694	6864.7
3022.52376	6851.3
3024.9391	6816.5
3027.35298	6814.2
3029.76539	6816.5
3032.17632	6783.3
3034.5858	6767.1
3036.9938	6748.5
3039.40034	6732.4
3041.80542	6727.2
3044.20903	6716.8
3046.61118	6699.3
3049.01187	6663.3
3051.4111	6646.2
3053.80888	6648.4
3056.20519	6633.7
3058.60005	6617.5
3060.99345	6616.8
3063.3854	6582.8
3065.7759	6566.6
3068.16494	6578.3
3070.55254	6538.7
3072.93868	6535.4
3075.32338	6512.4
3077.70662	6507.7
3080.08842	6487.9
3082.46878	6486.6
3084.84769	6465.4
3087.22515	6467.5
3089.60118	6449.9
3091.97576	6429.8
3094.3489	6454.5
3096.72061	6449.1
3099.09087	6439.8
3101.4597	6458.7
3103.82709	6443.5
3106.19305	6430.8
3108.55757	6437.9
3110.92066	6402
3113.28232	6393.2
3115.64255	6387.1
3118.00134	6361.9
3120.35871	6363
3122.71466	6360.3
3125.06917	6344.7
3127.42226	6347.6
3129.77393	6369.6
3132.12417	6335.5
3134.47299	6344
3136.82039	6353.6
3139.16636	6347.4
3141.51092	6369.4
3143.85406	6377.6
3146.19579	6383.4
3148.53609	6386.6
3150.87499	6368.3
3153.21246	6381
3155.54853	6391.9
3157.88318	6381.8
3160.21642	6362.2
3162.54826	6367.3
3164.87868	6382.8
3167.2077	6347.1
3169.5353	6380.4
3171.86151	6362.6
3174.18631	6357.5
3176.5097	6355.5
3178.83169	6347.7
3181.15228	6340.6
3183.47147	6359.5
3185.78926	6345.4
3188.10565	6360.8
3190.42065	6339.6
3192.73424	6364.4
3195.04645	6344.9
3197.35725	6387.5
3199.66667	6394.1
3201.97469	6395.3
3204.28132	6409
3206.58656	6427.1
3208.8904	6421.4
3211.19287	6429
3213.49394	6437.1
3215.79363	6434.5
3218.09193	6441.8
3220.38884	6429.3
3222.68438	6421.2
3224.97853	6418.9
3227.2713	6405.5
3229.56269	6432
3231.8527	6391.8
3234.14133	6402.8
3236.42858	6408.7
3238.71446	6407.2
3240.99896	6400.9
3243.28209	6387.9
3245.56384	6401.9
3247.84423	6409.6
3250.12324	6398.6
3252.40088	6380.5
3254.67715	6383.8
3256.95205	6394.6
3259.22558	6377.8
3261.49775	6377.2
3263.76855	6373.4
3266.03799	6343
3268.30606	6353
3270.57277	6330.5
3272.83812	6322
3275.10211	6320.9
3277.36474	6337.4
3279.62601	6326
3281.88593	6327.4
3284.14448	6333.5
3286.40168	6341.2
3288.65753	6343.8
3290.91202	6312.7
3293.16516	6313.2
3295.41695	6300.1
3297.66738	6265.8
3299.91647	6238.6
3302.16421	6242.5
3304.4106	6197.6
3306.65564	6174.9
3308.89933	6133.2
3311.14169	6095.8
3313.38269	6056.3
3315.62236	6008.3
3317.86068	5958.6
3320.09766	5884.7
3322.3333	5833.2
3324.5676	5835.6
3326.80056	5736.1
3329.03219	5694.7
3331.26248	2.5
3333.49143	-0.9
3335.71905	0.5
