Data from AgNP_FTO_APTES_UA_100uM_CRN_100uM_R6G_10uM_NaF_0.1M_Addition_RamanShift__2__17-49-50-566.txt Node

Date: Thu Mar 24 17:49:50 GMT 2022
User: TCL
Spectrometer: QEP01345
Trigger mode: 4
Integration Time (sec): 7.000000E0
Scans to average: 10
Electric dark correction enabled: true
Nonlinearity correction enabled: false
Boxcar width: 0
XAxis mode: Raman Shifts
Number of Pixels in Spectrum: 1044
>>>>>Begin Spectral Data<<<<<
46.04893	-1.4625
50.45542	-0.5625
54.85868	0.2375
59.25871	0.9375
63.6555	36.0375
68.04907	39.8375
72.43941	39.8375
76.82654	37.0375
81.21044	43.0375
85.59113	44.4375
89.96862	48.3375
94.34289	45.9375
98.71396	49.2375
103.08183	47.7375
107.4465	49.9375
111.80798	53.4375
116.16626	51.7375
120.52136	51.7375
124.87327	51.7375
129.222	55.8375
133.56755	59.7375
137.90993	61.3375
142.24913	70.1375
146.58517	77.9375
150.91804	85.1375
155.24774	101.2375
159.57429	121.5375
163.89768	158.4375
168.21792	212.6375
172.53501	286.3375
176.84895	400.5375
181.15975	554.1375
185.46741	780.3375
189.77193	1077.6375
194.07331	1446.6375
198.37157	1868.0375
202.6667	2321.5375
206.9587	2761.0375
211.24758	3210.1375
215.53334	3676.2375
219.81599	4189.1375
224.09553	4751.7375
228.37195	5373.4375
232.64527	6076.2375
236.91549	6769.7375
241.18261	7416.6375
245.44663	7968.4375
249.70755	8440.4375
253.96539	8799.7375
258.22014	9129.1375
262.4718	9418.2375
266.72039	9589.6375
270.96589	9673.9375
275.20832	9639.7375
279.44768	9549.8375
283.68397	9382.0375
287.91719	9261.3375
292.14735	9251.6375
296.37445	9354.2375
300.59849	9569.6375
304.81948	9836.1375
309.03742	10076.6375
313.25231	10070.8375
317.46415	9835.7375
321.67296	9390.1375
325.87872	8974.1375
330.08145	8748.0375
334.28114	8716.7375
338.47781	8838.5375
342.67145	9003.2375
346.86207	9234.7375
351.04966	9580.6375
355.23424	9910.9375
359.4158	10203.9375
363.59435	10297.9375
367.76989	10348.0375
371.94243	10317.7375
376.11196	10254.4375
380.27849	10257.6375
384.44203	10205.5375
388.60257	10197.5375
392.76012	10204.2375
396.91468	10326.5375
401.06626	10511.5375
405.21485	10628.5375
409.36047	10492.4375
413.50311	10145.3375
417.64277	9780.9375
421.77947	9596.5375
425.9132	9523.8375
430.04396	9541.2375
434.17176	9589.7375
438.2966	9693.6375
442.41849	9923.8375
446.53742	10207.7375
450.6534	10497.3375
454.76644	10608.5375
458.87653	10623.5375
462.98368	10529.1375
467.08789	10352.7375
471.18916	10190.6375
475.2875	10041.2375
479.38291	9885.0375
483.4754	9775.7375
487.56496	9653.2375
491.6516	9578.6375
495.73531	9486.7375
499.81612	9477.9375
503.89401	9531.9375
507.96899	9569.8375
512.04106	9630.8375
516.11023	9654.1375
520.1765	9673.9375
524.23987	9659.6375
528.30034	9600.1375
532.35792	9562.6375
536.41261	9425.9375
540.46441	9285.9375
544.51333	9182.6375
548.55936	9258.7375
552.60252	9432.4375
556.64279	9672.7375
560.6802	9827.1375
564.71473	9953.2375
568.7464	10193.8375
572.7752	10460.3375
576.80114	10537.7375
580.82422	10588.2375
584.84444	10809.4375
588.86181	11076.9375
592.87633	11414.9375
596.888	11580.8375
600.89682	11507.6375
604.9028	11886.9375
608.90594	13784.2375
612.90624	16391.3375
616.90371	15538.6375
620.89834	11671.4375
624.89015	9828.1375
628.87913	9514.1375
632.86528	9716.4375
636.84862	9920.6375
640.82913	9802.2375
644.80683	9370.5375
648.78172	9038.1375
652.75379	8960.7375
656.72306	9183.8375
660.68952	9523.0375
664.65319	9431.3375
668.61405	9074.2375
672.57211	8873.3375
676.52738	8906.7375
680.47986	8864.7375
684.42955	8809.2375
688.37646	8740.4375
692.32058	8737.4375
696.26192	8831.6375
700.20048	8943.7375
704.13626	9027.7375
708.06928	9033.0375
711.99952	8970.5375
715.927	8968.1375
719.85171	8997.8375
723.77365	9028.7375
727.69284	8976.6375
731.60928	8912.6375
735.52295	8884.3375
739.43388	8921.1375
743.34206	8947.7375
747.24749	8963.1375
751.15017	8999.2375
755.05012	9146.1375
758.94733	9455.1375
762.8418	10326.3375
766.73354	11817.6375
770.62254	13236.2375
774.50882	13763.0375
778.39237	13104.2375
782.27321	11621.9375
786.15132	10228.1375
790.02671	9371.5375
793.89938	8950.6375
797.76935	8788.2375
801.6366	8675.4375
805.50115	8617.8375
809.36299	8588.9375
813.22213	8559.7375
817.07857	8571.6375
820.93231	8527.0375
824.78336	8488.8375
828.63172	8519.4375
832.47738	8498.7375
836.32036	8471.9375
840.16066	8452.1375
843.99827	8406.9375
847.8332	8404.9375
851.66546	8404.9375
855.49504	8398.9375
859.32195	8383.3375
863.1462	8361.2375
866.96777	8384.8375
870.78668	8383.2375
874.60293	8382.3375
878.41652	8399.4375
882.22745	8454.9375
886.03573	8487.1375
889.84136	8487.2375
893.64433	8469.4375
897.44466	8411.6375
901.24235	8392.0375
905.0374	8324.8375
908.8298	8282.8375
912.61957	8246.3375
916.40671	8273.7375
920.19121	8349.6375
923.97308	8417.6375
927.75233	8490.8375
931.52895	8507.4375
935.30295	8367.4375
939.07433	8167.1375
942.84309	7994.6375
946.60924	7908.1375
950.37278	7854.8375
954.13371	7828.1375
957.89203	7823.8375
961.64774	7822.9375
965.40086	7812.6375
969.15137	7777.8375
972.89929	7725.3375
976.64461	7711.9375
980.38733	7709.6375
984.12747	7717.1375
987.86502	7758.5375
991.59999	7815.3375
995.33237	7880.1375
999.06217	8033.1375
1002.78939	8198.4375
1006.51404	8420.4375
1010.23611	8596.9375
1013.95561	8691.7375
1017.67255	8660.0375
1021.38692	8533.4375
1025.09872	8352.6375
1028.80796	8189.7375
1032.51465	8118.9375
1036.21877	8165.2375
1039.92035	8225.6375
1043.61937	8257.7375
1047.31584	8299.7375
1051.00976	8326.3375
1054.70114	8340.6375
1058.38998	8313.5375
1062.07627	8389.7375
1065.76003	8465.8375
1069.44126	8564.2375
1073.11995	8722.4375
1076.79611	8919.5375
1080.46974	9042.9375
1084.14085	9209.9375
1087.80943	9375.0375
1091.47549	9458.8375
1095.13903	9359.0375
1098.80005	9124.8375
1102.45857	8882.8375
1106.11456	8742.9375
1109.76805	8728.7375
1113.41903	8819.8375
1117.06751	9048.9375
1120.71348	9340.1375
1124.35696	9706.1375
1127.99793	9996.4375
1131.63641	9995.2375
1135.2724	9703.0375
1138.90589	9391.2375
1142.5369	9212.5375
1146.16542	9097.1375
1149.79145	9032.9375
1153.415	9027.8375
1157.03607	9072.9375
1160.65467	9274.2375
1164.27079	9620.7375
1167.88443	10190.6375
1171.49561	11050.8375
1175.10432	12275.7375
1178.71056	13831.4375
1182.31434	15110.5375
1185.91565	15431.7375
1189.51451	14949.8375
1193.11091	14118.5375
1196.70485	13204.3375
1200.29634	12448.3375
1203.88538	11839.3375
1207.47197	11210.0375
1211.05612	10705.8375
1214.63782	10338.8375
1218.21708	10189.0375
1221.79391	10153.5375
1225.36829	10150.5375
1228.94024	10098.2375
1232.50976	9919.0375
1236.07685	9767.1375
1239.6415	9700.5375
1243.20374	9676.5375
1246.76355	9743.4375
1250.32093	9810.7375
1253.8759	10003.1375
1257.42845	10271.3375
1260.97859	10617.7375
1264.52631	11014.6375
1268.07163	11380.5375
1271.61453	11740.0375
1275.15503	11985.6375
1278.69312	12209.8375
1282.22882	12474.4375
1285.76211	12945.7375
1289.29301	13486.5375
1292.82151	14066.4375
1296.34761	14780.5375
1299.87133	15694.1375
1303.39266	16994.5375
1306.9116	18628.5375
1310.42815	20241.0375
1313.94233	21031.4375
1317.45412	20447.2375
1320.96354	19241.6375
1324.47058	18013.7375
1327.97525	16888.7375
1331.47754	16109.1375
1334.97747	15619.2375
1338.47502	15482.1375
1341.97022	15587.7375
1345.46305	15969.3375
1348.95352	16626.1375
1352.44163	17575.1375
1355.92738	19105.6375
1359.41078	21448.9375
1362.89183	23570.7375
1366.37053	23135.7375
1369.84688	19930.4375
1373.32088	16621.2375
1376.79254	14628.1375
1380.26186	13654.0375
1383.72883	13082.2375
1387.19347	12640.7375
1390.65578	12198.6375
1394.11575	11969.3375
1397.57339	11901.2375
1401.0287	11996.2375
1404.48168	12075.6375
1407.93234	12040.7375
1411.38068	11889.9375
1414.82669	11684.5375
1418.27039	11389.9375
1421.71177	11041.3375
1425.15083	10677.3375
1428.58758	10504.4375
1432.02203	10593.5375
1435.45416	10809.9375
1438.88399	11001.8375
1442.31151	11125.3375
1445.73673	11267.1375
1449.15965	11354.5375
1452.58027	11403.0375
1455.9986	11338.5375
1459.41463	11333.4375
1462.82837	11549.0375
1466.23982	11910.6375
1469.64898	12308.4375
1473.05586	12625.9375
1476.46045	12829.6375
1479.86276	13013.7375
1483.26279	13159.1375
1486.66054	13432.3375
1490.05602	13868.0375
1493.44922	14487.2375
1496.84016	15355.1375
1500.22882	16653.7375
1503.61521	18485.3375
1506.99934	20379.5375
1510.38121	21685.4375
1513.76081	21571.0375
1517.13816	19826.8375
1520.51324	17527.0375
1523.88607	15521.5375
1527.25665	14263.1375
1530.62498	13635.5375
1533.99105	13210.9375
1537.35488	12894.8375
1540.71647	12532.3375
1544.07581	12200.2375
1547.4329	11939.4375
1550.78776	11715.4375
1554.14038	11592.5375
1557.49077	11602.8375
1560.83892	11753.5375
1564.18484	12079.2375
1567.52853	12554.9375
1570.86999	12965.3375
1574.20922	13255.6375
1577.54624	13247.6375
1580.88103	12631.2375
1584.2136	11962.0375
1587.54395	11676.2375
1590.87208	11905.7375
1594.19801	12599.0375
1597.52172	13489.9375
1600.84321	13846.3375
1604.16251	13347.3375
1607.47959	12400.3375
1610.79447	11368.5375
1614.10715	10449.8375
1617.41763	9701.3375
1620.7259	9225.4375
1624.03199	8961.7375
1627.33587	8956.4375
1630.63757	9182.7375
1633.93707	9709.8375
1637.23439	10740.7375
1640.52951	12388.9375
1643.82246	14636.0375
1647.11321	16993.1375
1650.40179	18228.9375
1653.68819	17339.7375
1656.97241	14814.9375
1660.25446	12095.6375
1663.53433	10151.3375
1666.81203	8951.5375
1670.08756	8254.1375
1673.36092	7816.5375
1676.63211	7569.1375
1679.90115	7393.2375
1683.16801	7256.2375
1686.43272	7118.0375
1689.69527	7054.3375
1692.95567	6981.4375
1696.2139	6918.9375
1699.46999	6875.9375
1702.72392	6843.6375
1705.97571	6806.7375
1709.22535	6807.5375
1712.47284	6772.3375
1715.71819	6766.5375
1718.96139	6728.2375
1722.20246	6673.0375
1725.44139	6653.3375
1728.67818	6596.7375
1731.91284	6536.4375
1735.14537	6465.8375
1738.37576	6485.4375
1741.60403	6431.8375
1744.83017	6396.8375
1748.05418	6372.3375
1751.27607	6344.0375
1754.49584	6347.1375
1757.71349	6322.1375
1760.92903	6298.6375
1764.14244	6303.0375
1767.35375	6282.1375
1770.56294	6271.6375
1773.77002	6223.0375
1776.97499	6202.1375
1780.17785	6176.9375
1783.37861	6153.0375
1786.57727	6154.2375
1789.77382	6140.7375
1792.96828	6129.5375
1796.16064	6112.9375
1799.3509	6106.6375
1802.53907	6101.3375
1805.72514	6058.2375
1808.90913	6034.3375
1812.09102	6020.6375
1815.27083	6015.9375
1818.44856	6007.3375
1821.6242	5992.9375
1824.79776	5953.9375
1827.96924	5928.2375
1831.13864	5944.1375
1834.30597	5935.1375
1837.47122	5917.8375
1840.6344	5908.4375
1843.7955	5897.7375
1846.95454	5885.0375
1850.11151	5877.0375
1853.26642	5873.3375
1856.41926	5866.4375
1859.57004	5857.8375
1862.71876	5842.9375
1865.86542	5827.0375
1869.01003	5836.1375
1872.15258	5834.8375
1875.29308	5810.1375
1878.43152	5824.0375
1881.56792	5799.8375
1884.70227	5812.5375
1887.83457	5803.8375
1890.96482	5797.9375
1894.09304	5777.2375
1897.21921	5775.6375
1900.34335	5752.2375
1903.46544	5762.1375
1906.58551	5768.0375
1909.70353	5757.7375
1912.81953	5726.5375
1915.93349	5724.8375
1919.04543	5725.5375
1922.15534	5704.0375
1925.26322	5692.6375
1928.36908	5665.1375
1931.47292	5645.7375
1934.57473	5629.1375
1937.67453	5623.3375
1940.77232	5609.8375
1943.86808	5578.6375
1946.96184	5559.8375
1950.05358	5545.4375
1953.14331	5527.0375
1956.23103	5511.5375
1959.31675	5480.7375
1962.40046	5463.2375
1965.48217	5483.3375
1968.56188	5447.7375
1971.63959	5435.3375
1974.7153	5428.1375
1977.78901	5407.1375
1980.86073	5377.5375
1983.93046	5348.3375
1986.99819	5331.2375
1990.06394	5309.7375
1993.1277	5289.0375
1996.18947	5282.7375
1999.24925	5260.3375
2002.30706	5243.6375
2005.36288	5233.1375
2008.41672	5184.7375
2011.46859	5177.7375
2014.51848	5171.6375
2017.56639	5141.0375
2020.61233	5127.3375
2023.6563	5117.8375
2026.6983	5100.4375
2029.73833	5091.2375
2032.7764	5082.7375
2035.8125	5044.8375
2038.84664	5039.2375
2041.87881	5033.4375
2044.90903	5020.8375
2047.93729	5019.9375
2050.96359	5001.8375
2053.98794	5002.8375
2057.01034	4979.0375
2060.03078	5001.6375
2063.04927	4963.2375
2066.06582	4956.7375
2069.08042	4970.4375
2072.09307	4967.9375
2075.10378	4953.7375
2078.11255	4952.7375
2081.11938	4948.3375
2084.12426	4934.9375
2087.12722	4934.8375
2090.12824	4945.5375
2093.12732	4931.7375
2096.12447	4940.7375
2099.11969	4941.9375
2102.11299	4929.1375
2105.10435	4936.9375
2108.09379	4934.5375
2111.08131	4937.1375
2114.0669	4951.0375
2117.05057	4957.8375
2120.03233	4941.9375
2123.01216	4951.4375
2125.99008	4958.3375
2128.96609	4959.6375
2131.94018	4945.2375
2134.91236	4938.7375
2137.88263	4935.3375
2140.851	4950.2375
2143.81746	4956.9375
2146.78201	4925.7375
2149.74466	4935.6375
2152.7054	4928.6375
2155.66425	4913.9375
2158.6212	4929.4375
2161.57625	4905.9375
2164.52941	4917.1375
2167.48067	4893.5375
2170.43004	4903.6375
2173.37752	4902.7375
2176.32311	4892.4375
2179.26681	4888.6375
2182.20863	4884.2375
2185.14856	4891.4375
2188.08661	4884.7375
2191.02278	4896.9375
2193.95707	4870.8375
2196.88948	4867.0375
2199.82001	4874.8375
2202.74867	4867.3375
2205.67545	4852.1375
2208.60037	4863.0375
2211.52341	4826.4375
2214.44458	4820.3375
2217.36388	4807.4375
2220.28132	4803.4375
2223.1969	4775.9375
2226.11061	4784.0375
2229.02246	4767.3375
2231.93245	4748.2375
2234.84058	4754.6375
2237.74686	4755.0375
2240.65128	4732.6375
2243.55385	4747.3375
2246.45456	4736.6375
2249.35343	4723.1375
2252.25044	4715.0375
2255.14561	4706.5375
2258.03893	4723.9375
2260.93041	4694.0375
2263.82004	4681.1375
2266.70783	4683.5375
2269.59378	4660.6375
2272.4779	4664.0375
2275.36017	4649.9375
2278.24061	4634.7375
2281.11922	4618.7375
2283.996	4601.2375
2286.87094	4609.3375
2289.74405	4588.0375
2292.61534	4580.0375
2295.4848	4563.3375
2298.35243	4559.3375
2301.21824	4554.2375
2304.08223	4548.5375
2306.94439	4548.6375
2309.80474	4546.1375
2312.66327	4544.4375
2315.51999	4523.5375
2318.37489	4529.2375
2321.22797	4518.4375
2324.07925	4520.0375
2326.92871	4516.2375
2329.77637	4516.1375
2332.62222	4505.4375
2335.46626	4482.9375
2338.3085	4484.6375
2341.14893	4494.1375
2343.98756	4491.0375
2346.8244	4494.5375
2349.65943	4496.0375
2352.49267	4501.6375
2355.32411	4497.3375
2358.15376	4507.7375
2360.98161	4502.7375
2363.80768	4511.3375
2366.63195	4525.4375
2369.45444	4519.8375
2372.27514	4501.3375
2375.09405	4500.6375
2377.91118	4483.9375
2380.72652	4488.2375
2383.54009	4475.4375
2386.35187	4449.3375
2389.16188	4429.4375
2391.97011	4419.4375
2394.77657	4402.4375
2397.58125	4379.0375
2400.38416	4368.2375
2403.18529	4387.2375
2405.98466	4362.1375
2408.78226	4338.4375
2411.57809	4334.1375
2414.37216	4327.6375
2417.16446	4330.5375
2419.955	4319.3375
2422.74378	4318.8375
2425.5308	4319.5375
2428.31606	4309.1375
2431.09956	4295.0375
2433.88131	4313.5375
2436.6613	4308.9375
2439.43954	4309.0375
2442.21603	4304.1375
2444.99077	4289.5375
2447.76377	4302.3375
2450.53501	4293.5375
2453.30451	4295.1375
2456.07226	4294.0375
2458.83827	4278.0375
2461.60254	4298.1375
2464.36507	4298.0375
2467.12586	4284.5375
2469.88492	4296.6375
2472.64224	4283.8375
2475.39782	4293.4375
2478.15167	4308.8375
2480.90379	4311.2375
2483.65417	4312.0375
2486.40283	4319.5375
2489.14976	4330.0375
2491.89497	4331.3375
2494.63845	4336.9375
2497.3802	4309.8375
2500.12024	4324.3375
2502.85855	4300.5375
2505.59514	4300.9375
2508.33002	4273.5375
2511.06318	4247.5375
2513.79462	4233.4375
2516.52435	4218.5375
2519.25237	4219.3375
2521.97867	4206.7375
2524.70327	4208.9375
2527.42616	4196.6375
2530.14734	4216.6375
2532.86681	4182.3375
2535.58458	4197.5375
2538.30065	4185.6375
2541.01501	4173.0375
2543.72768	4178.9375
2546.43864	4173.1375
2549.14791	4169.0375
2551.85548	4181.8375
2554.56136	4141.1375
2557.26554	4154.9375
2559.96803	4143.6375
2562.66883	4139.5375
2565.36794	4142.0375
2568.06536	4142.5375
2570.7611	4116.2375
2573.45514	4116.4375
2576.14751	4112.9375
2578.83819	4106.7375
2581.52719	4107.8375
2584.21451	4097.9375
2586.90015	4088.9375
2589.58411	4096.5375
2592.2664	4088.4375
2594.94701	4055.2375
2597.62594	4083.6375
2600.30321	4062.7375
2602.9788	4071.9375
2605.65273	4056.9375
2608.32498	4069.1375
2610.99557	4044.7375
2613.66449	4052.7375
2616.33175	4050.3375
2618.99734	4057.5375
2621.66128	4047.3375
2624.32355	4035.4375
2626.98416	4027.2375
2629.64311	4022.5375
2632.30041	4013.3375
2634.95605	4033.2375
2637.61004	4004.3375
2640.26238	4014.9375
2642.91306	4018.4375
2645.56209	4005.1375
2648.20948	4005.7375
2650.85521	4014.2375
2653.4993	4011.9375
2656.14175	4002.0375
2658.78255	4003.6375
2661.42171	4026.1375
2664.05923	4014.4375
2666.6951	4010.7375
2669.32934	4030.7375
2671.96194	4022.1375
2674.59291	4027.6375
2677.22224	4021.7375
2679.84993	4023.9375
2682.476	4013.9375
2685.10043	4001.1375
2687.72324	4006.0375
2690.34441	4009.9375
2692.96396	4001.1375
2695.58188	4013.7375
2698.19818	3993.4375
2700.81285	3995.4375
2703.4259	3995.0375
2706.03733	3998.0375
2708.64714	4000.1375
2711.25533	4003.6375
2713.86191	4007.8375
2716.46687	4008.0375
2719.07021	4010.4375
2721.67194	4006.0375
2724.27206	4014.8375
2726.87057	4011.5375
2729.46747	4016.3375
2732.06276	4020.5375
2734.65644	4012.3375
2737.24852	4015.3375
2739.83899	3978.1375
2742.42786	3990.0375
2745.01513	3983.3375
2747.60079	3976.6375
2750.18486	3978.3375
2752.76733	3982.2375
2755.3482	3966.9375
2757.92747	3956.2375
2760.50515	3972.7375
2763.08123	3949.8375
2765.65573	3947.6375
2768.22863	3949.1375
2770.79994	3946.9375
2773.36967	3948.4375
2775.9378	3946.5375
2778.50435	3932.8375
2781.06932	3927.3375
2783.6327	3949.7375
2786.1945	3940.7375
2788.75471	3930.7375
2791.31335	3933.5375
2793.87041	3925.9375
2796.42589	3914.2375
2798.97979	3928.5375
2801.53212	3900.0375
2804.08288	3898.5375
2806.63206	3893.1375
2809.17967	3898.0375
2811.72571	3893.9375
2814.27018	3898.7375
2816.81308	3882.3375
2819.35442	3872.9375
2821.89419	3880.7375
2824.43239	3872.6375
2826.96904	3866.5375
2829.50412	3872.9375
2832.03763	3864.4375
2834.56959	3856.0375
2837.1	3870.9375
2839.62884	3865.1375
2842.15613	3863.8375
2844.68186	3867.9375
2847.20604	3879.6375
2849.72867	3880.3375
2852.24974	3882.4375
2854.76927	3871.4375
2857.28724	3863.4375
2859.80367	3862.1375
2862.31855	3869.2375
2864.83189	3853.7375
2867.34368	3847.7375
2869.85393	3859.8375
2872.36264	3864.3375
2874.8698	3862.4375
2877.37543	3856.6375
2879.87952	3860.4375
2882.38207	3868.7375
2884.88308	3855.1375
2887.38256	3860.9375
2889.88051	3834.3375
2892.37692	3839.3375
2894.8718	3863.3375
2897.36515	3868.7375
2899.85698	3846.2375
2902.34727	3850.7375
2904.83604	3865.9375
2907.32328	3862.4375
2909.809	3857.7375
2912.29319	3850.2375
2914.77587	3869.1375
2917.25702	3861.4375
2919.73665	3860.1375
2922.21476	3862.8375
2924.69136	3852.6375
2927.16644	3850.1375
2929.64	3848.9375
2932.11205	3834.7375
2934.58258	3813.1375
2937.05161	3819.4375
2939.51912	3814.2375
2941.98513	3811.1375
2944.44962	3784.7375
2946.91261	3786.0375
2949.37409	3791.0375
2951.83407	3790.9375
2954.29254	3793.8375
2956.74951	3786.0375
2959.20498	3772.6375
2961.65895	3768.1375
2964.11142	3774.7375
2966.56239	3764.4375
2969.01186	3766.0375
2971.45984	3750.8375
2973.90632	3743.5375
2976.35131	3733.5375
2978.7948	3712.8375
2981.23681	3719.6375
2983.67732	3715.4375
2986.11635	3699.0375
2988.55388	3680.2375
2990.98993	3678.4375
2993.4245	3680.2375
2995.85758	3681.5375
2998.28917	3670.3375
3000.71928	3662.3375
3003.14791	3653.1375
3005.57506	3665.6375
3008.00073	3641.8375
3010.42493	3649.4375
3012.84764	3650.2375
3015.26888	3641.7375
3017.68865	3617.4375
3020.10694	3627.0375
3022.52376	3620.1375
3024.9391	3608.3375
3027.35298	3597.4375
3029.76539	3586.6375
3032.17632	3576.2375
3034.5858	3574.8375
3036.9938	3584.7375
3039.40034	3572.9375
3041.80542	3575.4375
3044.20903	3563.2375
3046.61118	3565.5375
3049.01187	3571.5375
3051.4111	3561.1375
3053.80888	3544.2375
3056.20519	3539.8375
3058.60005	3519.8375
3060.99345	3527.2375
3063.3854	3519.4375
3065.7759	3493.4375
3068.16494	3500.8375
3070.55254	3518.2375
3072.93868	3500.1375
3075.32338	3488.1375
3077.70662	3481.8375
3080.08842	3466.2375
3082.46878	3485.2375
3084.84769	3466.9375
3087.22515	3470.9375
3089.60118	3481.3375
3091.97576	3471.2375
3094.3489	3469.3375
3096.72061	3483.4375
3099.09087	3476.8375
3101.4597	3473.8375
3103.82709	3482.8375
3106.19305	3475.4375
3108.55757	3471.2375
3110.92066	3468.9375
3113.28232	3469.0375
3115.64255	3445.7375
3118.00134	3440.5375
3120.35871	3438.1375
3122.71466	3442.4375
3125.06917	3442.5375
3127.42226	3436.2375
3129.77393	3435.4375
3132.12417	3436.0375
3134.47299	3430.2375
3136.82039	3427.4375
3139.16636	3445.0375
3141.51092	3446.1375
3143.85406	3444.3375
3146.19579	3444.4375
3148.53609	3448.4375
3150.87499	3452.9375
3153.21246	3464.9375
3155.54853	3464.2375
3157.88318	3468.0375
3160.21642	3478.8375
3162.54826	3471.5375
3164.87868	3470.4375
3167.2077	3468.4375
3169.5353	3472.4375
3171.86151	3469.4375
3174.18631	3485.4375
3176.5097	3480.3375
3178.83169	3477.1375
3181.15228	3463.5375
3183.47147	3460.2375
3185.78926	3474.9375
3188.10565	3466.5375
3190.42065	3473.5375
3192.73424	3473.9375
3195.04645	3463.0375
3197.35725	3466.6375
3199.66667	3463.3375
3201.97469	3472.9375
3204.28132	3470.5375
3206.58656	3475.2375
3208.8904	3486.7375
3211.19287	3473.7375
3213.49394	3486.4375
3215.79363	3490.8375
3218.09193	3506.8375
3220.38884	3502.3375
3222.68438	3503.5375
3224.97853	3500.1375
3227.2713	3503.9375
3229.56269	3490.8375
3231.8527	3502.0375
3234.14133	3476.0375
3236.42858	3496.0375
3238.71446	3479.2375
3240.99896	3463.5375
3243.28209	3460.9375
3245.56384	3470.6375
3247.84423	3465.7375
3250.12324	3445.3375
3252.40088	3457.1375
3254.67715	3446.8375
3256.95205	3463.1375
3259.22558	3457.7375
3261.49775	3446.3375
3263.76855	3445.3375
3266.03799	3442.5375
3268.30606	3430.3375
3270.57277	3437.1375
3272.83812	3431.2375
3275.10211	3424.7375
3277.36474	3409.7375
3279.62601	3423.1375
3281.88593	3408.2375
3284.14448	3421.1375
3286.40168	3438.9375
3288.65753	3422.1375
3290.91202	3435.0375
3293.16516	3409.5375
3295.41695	3410.7375
3297.66738	3387.5375
3299.91647	3363.3375
3302.16421	3353.7375
3304.4106	3341.0375
3306.65564	3339.0375
3308.89933	3307.6375
3311.14169	3282.5375
3313.38269	3259.0375
3315.62236	3258.1375
3317.86068	3218.7375
3320.09766	3179.6375
3322.3333	3170.1375
3324.5676	3160.8375
3326.80056	3107.1375
3329.03219	3091.4375
3331.26248	1.8375
3333.49143	-0.1625
3335.71905	-0.8625
