Data from AgNP_FTO_APTES_UA_100uM_CRN_20uM_R6G_10uM_NaF_0.1M_Addition_RamanShift__32__17-03-10-514.txt Node

Date: Thu Mar 24 17:03:10 GMT 2022
User: TCL
Spectrometer: QEP01345
Trigger mode: 4
Integration Time (sec): 7.000000E0
Scans to average: 10
Electric dark correction enabled: true
Nonlinearity correction enabled: false
Boxcar width: 0
XAxis mode: Raman Shifts
Number of Pixels in Spectrum: 1044
>>>>>Begin Spectral Data<<<<<
46.04893	-2.1
50.45542	0.1
54.85868	-0.2
59.25871	0
63.6555	43.2
68.04907	48.5
72.43941	48.7
76.82654	45.6
81.21044	53.7
85.59113	52.2
89.96862	59
94.34289	55.7
98.71396	63.5
103.08183	60.6
107.4465	62.5
111.80798	68.8
116.16626	65.4
120.52136	67.5
124.87327	70.1
129.222	77.6
133.56755	84.1
137.90993	86.6
142.24913	100.5
146.58517	108.6
150.91804	136.1
155.24774	163
159.57429	203
163.89768	269.2
168.21792	365
172.53501	496.9
176.84895	702.9
181.15975	983
185.46741	1383.7
189.77193	1924.4
194.07331	2587
198.37157	3370.7
202.6667	4175.4
206.9587	5011
211.24758	5913.3
215.53334	6859
219.81599	7926.6
224.09553	9171.2
228.37195	10551.8
232.64527	12052.9
236.91549	13453.6
241.18261	14629.2
245.44663	15508.7
249.70755	16096.7
253.96539	16660.6
258.22014	17136.1
262.4718	17619.9
266.72039	17869.8
270.96589	17887.5
275.20832	17572.5
279.44768	17097
283.68397	16603.2
287.91719	16391.6
292.14735	16543.4
296.37445	17195.7
300.59849	18319
304.81948	19707.6
309.03742	20805.6
313.25231	21022.8
317.46415	19909.5
321.67296	17939.7
325.87872	16158.7
330.08145	15284.3
334.28114	15164
338.47781	15476.8
342.67145	16072
346.86207	16988.1
351.04966	18284.7
355.23424	19899.7
359.4158	21045.4
363.59435	21448.7
367.76989	21475.3
371.94243	21127.9
376.11196	20830
380.27849	20462.6
384.44203	19979.9
388.60257	19514.7
392.76012	19247.6
396.91468	19361.7
401.06626	19921.8
405.21485	20299.1
409.36047	19584.9
413.50311	18045.8
417.64277	16505.1
421.77947	15642.5
425.9132	15269.2
430.04396	15199.8
434.17176	15282.1
438.2966	15528.4
442.41849	16037
446.53742	16633.9
450.6534	17260.3
454.76644	17516.9
458.87653	17390.6
462.98368	17030.8
467.08789	16634.7
471.18916	16123.8
475.2875	15569.3
479.38291	15117.2
483.4754	14732.9
487.56496	14436.3
491.6516	14257.4
495.73531	14198.9
499.81612	14250.3
503.89401	14482.5
507.96899	14790
512.04106	15159.5
516.11023	15563.7
520.1765	15914.5
524.23987	15917.8
528.30034	15705.6
532.35792	15431.6
536.41261	15056.2
540.46441	14586.5
544.51333	14316.5
548.55936	14474
552.60252	15035.5
556.64279	15684.4
560.6802	15932.5
564.71473	16318.7
568.7464	17349.5
572.7752	17838
576.80114	16826.5
580.82422	15739.1
584.84444	15317.4
588.86181	15298.7
592.87633	15585
596.888	15921.5
600.89682	16602.4
604.9028	19654.2
608.90594	28205.7
612.90624	39509.5
616.90371	37450.5
620.89834	23141.4
624.89015	16347.9
628.87913	15152
632.86528	15553.4
636.84862	16066.9
640.82913	15568.8
644.80683	14318.3
648.78172	13480.8
652.75379	13477.7
656.72306	14415.2
660.68952	15578.9
664.65319	15236.5
668.61405	13904.4
672.57211	13249.2
676.52738	13200.5
680.47986	13179.3
684.42955	12959.9
688.37646	12797.5
692.32058	12852.6
696.26192	13074.1
700.20048	13345.4
704.13626	13535.1
708.06928	13480.7
711.99952	13300.3
715.927	13285.2
719.85171	13415.8
723.77365	13545.8
727.69284	13450.2
731.60928	13295.3
735.52295	13266.2
739.43388	13325.2
743.34206	13411.7
747.24749	13436.5
751.15017	13470.7
755.05012	13852.4
758.94733	15062.4
762.8418	18224.2
766.73354	23405
770.62254	28243.9
774.50882	30316.7
778.39237	28254.7
782.27321	23038.5
786.15132	18017.4
790.02671	15175.6
793.89938	13931.1
797.76935	13401.3
801.6366	13138.3
805.50115	13049.4
809.36299	12976.1
813.22213	12886.6
817.07857	12849.3
820.93231	12838.9
824.78336	12912.9
828.63172	13005.5
832.47738	13047.5
836.32036	12964.1
840.16066	12807.6
843.99827	12692.6
847.8332	12648.1
851.66546	12608.8
855.49504	12640.2
859.32195	12592.4
863.1462	12528.1
866.96777	12440.4
870.78668	12471.4
874.60293	12508.3
878.41652	12627.5
882.22745	12793.6
886.03573	12922.6
889.84136	12882
893.64433	12758.5
897.44466	12749.4
901.24235	12745.2
905.0374	12663.5
908.8298	12535.6
912.61957	12437.4
916.40671	12449.5
920.19121	12571.4
923.97308	12785
927.75233	13117.5
931.52895	13459.7
935.30295	13226.6
939.07433	12610.4
942.84309	12082.2
946.60924	11814.2
950.37278	11656.9
954.13371	11572.3
957.89203	11547.2
961.64774	11499.7
965.40086	11468.7
969.15137	11440
972.89929	11370.8
976.64461	11366.8
980.38733	11379
984.12747	11418.2
987.86502	11484.7
991.59999	11609.7
995.33237	11816.5
999.06217	12184.8
1002.78939	12634.8
1006.51404	13128.6
1010.23611	13476.8
1013.95561	13608
1017.67255	13534.8
1021.38692	13272.8
1025.09872	12980.9
1028.80796	12908.3
1032.51465	13039.4
1036.21877	13288.9
1039.92035	13459.2
1043.61937	13451.3
1047.31584	13367.5
1051.00976	13230
1054.70114	13075.1
1058.38998	12980.2
1062.07627	13010.1
1065.76003	13063.6
1069.44126	13111.6
1073.11995	13338.1
1076.79611	13661.8
1080.46974	14215.9
1084.14085	14967.4
1087.80943	15710.6
1091.47549	15922.2
1095.13903	15437.3
1098.80005	14617.8
1102.45857	14026
1106.11456	13903.4
1109.76805	14177
1113.41903	14914
1117.06751	16023.3
1120.71348	17468.2
1124.35696	18962.9
1127.99793	19814.3
1131.63641	19015.8
1135.2724	17354.9
1138.90589	15962.4
1142.5369	15135.5
1146.16542	14576.3
1149.79145	14263.8
1153.415	14205.2
1157.03607	14394.3
1160.65467	14848.9
1164.27079	15710.3
1167.88443	17062.6
1171.49561	19200.5
1175.10432	22643.7
1178.71056	27306.8
1182.31434	30955.9
1185.91565	31775.6
1189.51451	30328.8
1193.11091	27576.6
1196.70485	24530.6
1200.29634	22313.3
1203.88538	20752.4
1207.47197	18896.6
1211.05612	17254.7
1214.63782	16253.7
1218.21708	15899.6
1221.79391	15829.5
1225.36829	15816.5
1228.94024	15705.7
1232.50976	15506.3
1236.07685	15325.5
1239.6415	15389.9
1243.20374	15559.9
1246.76355	15754.7
1250.32093	16034.5
1253.8759	16528.2
1257.42845	17230
1260.97859	18163.1
1264.52631	19139.8
1268.07163	20018.8
1271.61453	20711
1275.15503	21136.6
1278.69312	21269.2
1282.22882	21566.9
1285.76211	22438.3
1289.29301	23553.1
1292.82151	24701.2
1296.34761	25995.2
1299.87133	28218
1303.39266	32125.1
1306.9116	38162
1310.42815	44562.2
1313.94233	46927.4
1317.45412	43818.9
1320.96354	38334.2
1324.47058	33025.6
1327.97525	28814.2
1331.47754	26251.3
1334.97747	25377.3
1338.47502	25703
1341.97022	27143.3
1345.46305	29667.1
1348.95352	33198.4
1352.44163	37546.1
1355.92738	43991.5
1359.41078	53956.8
1362.89183	62112.8
1366.37053	57746.3
1369.84688	44763.7
1373.32088	33939.8
1376.79254	27842
1380.26186	24708.4
1383.72883	22901.3
1387.19347	21589
1390.65578	20374.3
1394.11575	19432.7
1397.57339	18909.8
1401.0287	18836.6
1404.48168	18890.3
1407.93234	18981.2
1411.38068	19113.5
1414.82669	19294
1418.27039	19240.8
1421.71177	18817
1425.15083	18311.7
1428.58758	18167.8
1432.02203	18573.5
1435.45416	18970.3
1438.88399	19007.6
1442.31151	18985.5
1445.73673	19153.4
1449.15965	19341
1452.58027	19196.5
1455.9986	18909.3
1459.41463	18776.4
1462.82837	19083.9
1466.23982	19789.9
1469.64898	20543.6
1473.05586	20981.7
1476.46045	21234.1
1479.86276	21557.1
1483.26279	22192.7
1486.66054	23178.3
1490.05602	24678.3
1493.44922	26816.5
1496.84016	30192.2
1500.22882	35748.1
1503.61521	43610.4
1506.99934	52670.8
1510.38121	59453.7
1513.76081	59890.4
1517.13816	52900.2
1520.51324	42582.6
1523.88607	33950.9
1527.25665	28754.1
1530.62498	25939.9
1533.99105	24309.3
1537.35488	23208.1
1540.71647	22527.8
1544.07581	22071.5
1547.4329	21885.9
1550.78776	21910.6
1554.14038	22121.9
1557.49077	22634.9
1560.83892	23445.9
1564.18484	24726.3
1567.52853	26080.4
1570.86999	27069.7
1574.20922	27524.7
1577.54624	27169.5
1580.88103	24987.8
1584.2136	22170.3
1587.54395	20515.1
1590.87208	20582.5
1594.19801	22094.2
1597.52172	24363.9
1600.84321	25436.5
1604.16251	24503.6
1607.47959	22759
1610.79447	20774.5
1614.10715	18788.6
1617.41763	17070.8
1620.7259	15988.2
1624.03199	15493.3
1627.33587	15585.2
1630.63757	16220.5
1633.93707	17494.8
1637.23439	19636.6
1640.52951	23227.7
1643.82246	28739.4
1647.11321	35341.9
1650.40179	39487.3
1653.68819	37331.9
1656.97241	30073.1
1660.25446	22816.7
1663.53433	18084.8
1666.81203	15434.1
1670.08756	13964.3
1673.36092	13088.5
1676.63211	12507.9
1679.90115	12124.7
1683.16801	11873.2
1686.43272	11668.8
1689.69527	11497.7
1692.95567	11384
1696.2139	11320.7
1699.46999	11278.2
1702.72392	11210.2
1705.97571	11201.3
1709.22535	11200.4
1712.47284	11186.4
1715.71819	11199.1
1718.96139	11159.2
1722.20246	11085
1725.44139	10987.3
1728.67818	10886.8
1731.91284	10727.4
1735.14537	10654
1738.37576	10600.6
1741.60403	10531.6
1744.83017	10471.8
1748.05418	10423.9
1751.27607	10389.3
1754.49584	10363.3
1757.71349	10327.8
1760.92903	10310.3
1764.14244	10295.5
1767.35375	10242.1
1770.56294	10184.3
1773.77002	10136.6
1776.97499	10057
1780.17785	10015
1783.37861	9965.2
1786.57727	9946.4
1789.77382	9930.3
1792.96828	9917.9
1796.16064	9908.2
1799.3509	9892.8
1802.53907	9835
1805.72514	9818.4
1808.90913	9797.8
1812.09102	9742.6
1815.27083	9701
1818.44856	9671.4
1821.6242	9654.4
1824.79776	9618.3
1827.96924	9612.3
1831.13864	9591
1834.30597	9556.9
1837.47122	9531.2
1840.6344	9513.4
1843.7955	9500.4
1846.95454	9475.7
1850.11151	9490.6
1853.26642	9481
1856.41926	9468.9
1859.57004	9480.2
1862.71876	9457.8
1865.86542	9451.8
1869.01003	9478.7
1872.15258	9485.7
1875.29308	9447.5
1878.43152	9473.6
1881.56792	9467.6
1884.70227	9463.4
1887.83457	9453.9
1890.96482	9452
1894.09304	9438.3
1897.21921	9421.3
1900.34335	9416.6
1903.46544	9428.1
1906.58551	9428.1
1909.70353	9390.1
1912.81953	9397.6
1915.93349	9349.9
1919.04543	9362.3
1922.15534	9310.8
1925.26322	9301.9
1928.36908	9306.5
1931.47292	9248.7
1934.57473	9198.8
1937.67453	9188.1
1940.77232	9158.3
1943.86808	9135.2
1946.96184	9092.9
1950.05358	9067
1953.14331	9029.4
1956.23103	9015.1
1959.31675	8994.1
1962.40046	8964.1
1965.48217	8973.9
1968.56188	8948.1
1971.63959	8975
1974.7153	8941.7
1977.78901	8902.4
1980.86073	8872.6
1983.93046	8790.1
1986.99819	8759.4
1990.06394	8739.1
1993.1277	8698.8
1996.18947	8647.2
1999.24925	8607
2002.30706	8602.8
2005.36288	8557.3
2008.41672	8530.1
2011.46859	8515.5
2014.51848	8495.6
2017.56639	8443.9
2020.61233	8452.4
2023.6563	8437.3
2026.6983	8392.9
2029.73833	8368.8
2032.7764	8337.6
2035.8125	8324
2038.84664	8307.8
2041.87881	8319.1
2044.90903	8291
2047.93729	8275
2050.96359	8265
2053.98794	8221.5
2057.01034	8208.9
2060.03078	8203
2063.04927	8181.6
2066.06582	8175.6
2069.08042	8172.7
2072.09307	8168.1
2075.10378	8164.8
2078.11255	8126.6
2081.11938	8178.2
2084.12426	8154.5
2087.12722	8156.8
2090.12824	8139.7
2093.12732	8139.8
2096.12447	8151.7
2099.11969	8170.1
2102.11299	8166.8
2105.10435	8157.5
2108.09379	8163.4
2111.08131	8169.7
2114.0669	8183
2117.05057	8207.5
2120.03233	8227.5
2123.01216	8239.6
2125.99008	8241.1
2128.96609	8247.8
2131.94018	8238.3
2134.91236	8234.5
2137.88263	8216.1
2140.851	8236.3
2143.81746	8230.9
2146.78201	8187
2149.74466	8195.9
2152.7054	8166.4
2155.66425	8145.2
2158.6212	8137.6
2161.57625	8142.5
2164.52941	8130.3
2167.48067	8141.9
2170.43004	8134.9
2173.37752	8141.5
2176.32311	8134.7
2179.26681	8152.6
2182.20863	8152.4
2185.14856	8136
2188.08661	8145.1
2191.02278	8139.9
2193.95707	8120.3
2196.88948	8111.5
2199.82001	8126
2202.74867	8110.2
2205.67545	8089.7
2208.60037	8109.6
2211.52341	8096.7
2214.44458	8067.1
2217.36388	8050.5
2220.28132	8060.8
2223.1969	8017.6
2226.11061	8012.2
2229.02246	8003.3
2231.93245	7954.7
2234.84058	7953.3
2237.74686	7938.2
2240.65128	7967.6
2243.55385	7942
2246.45456	7919.5
2249.35343	7951.1
2252.25044	7957.3
2255.14561	7960.9
2258.03893	7980
2260.93041	7994.3
2263.82004	7974.5
2266.70783	7942
2269.59378	7935
2272.4779	7900.4
2275.36017	7913.9
2278.24061	7886.7
2281.11922	7858.7
2283.996	7835.7
2286.87094	7810.5
2289.74405	7798.1
2292.61534	7793.2
2295.4848	7758.5
2298.35243	7739.3
2301.21824	7723.7
2304.08223	7736.8
2306.94439	7742.1
2309.80474	7752.1
2312.66327	7752.7
2315.51999	7756
2318.37489	7745.7
2321.22797	7732.4
2324.07925	7732.4
2326.92871	7719.8
2329.77637	7739.1
2332.62222	7711.2
2335.46626	7724
2338.3085	7719.9
2341.14893	7733.2
2343.98756	7741.4
2346.8244	7767.5
2349.65943	7790.9
2352.49267	7800.7
2355.32411	7810.4
2358.15376	7835.6
2360.98161	7869.9
2363.80768	7883.3
2366.63195	7896.5
2369.45444	7874.9
2372.27514	7903.9
2375.09405	7844
2377.91118	7822.3
2380.72652	7779.8
2383.54009	7747.2
2386.35187	7699.4
2389.16188	7678.2
2391.97011	7632.6
2394.77657	7611.3
2397.58125	7583.3
2400.38416	7556.8
2403.18529	7542.1
2405.98466	7535.7
2408.78226	7498.3
2411.57809	7451.1
2414.37216	7464.9
2417.16446	7473.2
2419.955	7450.3
2422.74378	7466
2425.5308	7439.9
2428.31606	7468.1
2431.09956	7459.9
2433.88131	7465.4
2436.6613	7487.3
2439.43954	7473.5
2442.21603	7481.7
2444.99077	7492.6
2447.76377	7497.8
2450.53501	7503.9
2453.30451	7507.2
2456.07226	7525.5
2458.83827	7518
2461.60254	7533.5
2464.36507	7523.9
2467.12586	7509.3
2469.88492	7508.3
2472.64224	7514.9
2475.39782	7535.4
2478.15167	7561.5
2480.90379	7602.9
2483.65417	7614.2
2486.40283	7660.8
2489.14976	7689.7
2491.89497	7674.5
2494.63845	7699.1
2497.3802	7671.5
2500.12024	7623.5
2502.85855	7607.3
2505.59514	7589
2508.33002	7546
2511.06318	7515.9
2513.79462	7452.6
2516.52435	7410.2
2519.25237	7416.3
2521.97867	7362.1
2524.70327	7371.6
2527.42616	7355.1
2530.14734	7347.8
2532.86681	7342.1
2535.58458	7336.4
2538.30065	7331.6
2541.01501	7345.6
2543.72768	7354.8
2546.43864	7339.3
2549.14791	7357.1
2551.85548	7360.4
2554.56136	7341.2
2557.26554	7318.7
2559.96803	7307.7
2562.66883	7316.2
2565.36794	7310.2
2568.06536	7292.1
2570.7611	7289.9
2573.45514	7277.4
2576.14751	7274.3
2578.83819	7246.1
2581.52719	7250.8
2584.21451	7247.7
2586.90015	7212
2589.58411	7226.4
2592.2664	7217.7
2594.94701	7237.5
2597.62594	7210.5
2600.30321	7196.6
2602.9788	7204.4
2605.65273	7199.8
2608.32498	7186.2
2610.99557	7191.1
2613.66449	7199.3
2616.33175	7205
2618.99734	7222.3
2621.66128	7217.7
2624.32355	7205.3
2626.98416	7222
2629.64311	7209
2632.30041	7190.6
2634.95605	7187.1
2637.61004	7171
2640.26238	7156.1
2642.91306	7145.3
2645.56209	7148.2
2648.20948	7124.3
2650.85521	7127.6
2653.4993	7132.5
2656.14175	7130.8
2658.78255	7119.8
2661.42171	7156.9
2664.05923	7167.9
2666.6951	7203.8
2669.32934	7204
2671.96194	7218.1
2674.59291	7220.7
2677.22224	7209.3
2679.84993	7198.1
2682.476	7204.8
2685.10043	7191.8
2687.72324	7180.4
2690.34441	7174.5
2692.96396	7159.8
2695.58188	7169.2
2698.19818	7168.1
2700.81285	7153
2703.4259	7154.6
2706.03733	7146.6
2708.64714	7185
2711.25533	7182.6
2713.86191	7177.9
2716.46687	7196.2
2719.07021	7197.9
2721.67194	7216
2724.27206	7214.6
2726.87057	7187.5
2729.46747	7208.4
2732.06276	7201.4
2734.65644	7156.4
2737.24852	7160.8
2739.83899	7126.3
2742.42786	7150.1
2745.01513	7106.8
2747.60079	7096.9
2750.18486	7103.7
2752.76733	7086.6
2755.3482	7080.6
2757.92747	7074
2760.50515	7048.2
2763.08123	7060.6
2765.65573	7046.9
2768.22863	7065.3
2770.79994	7057.7
2773.36967	7056.3
2775.9378	7052.6
2778.50435	7042.4
2781.06932	7056.9
2783.6327	7061.3
2786.1945	7067.2
2788.75471	7061
2791.31335	7041
2793.87041	7044.7
2796.42589	7047.6
2798.97979	7053.2
2801.53212	7054
2804.08288	7023.8
2806.63206	7017.6
2809.17967	7051
2811.72571	7050.1
2814.27018	7069.8
2816.81308	7071
2819.35442	7071
2821.89419	7076.2
2824.43239	7127.6
2826.96904	7089.9
2829.50412	7100.1
2832.03763	7094
2834.56959	7080.8
2837.1	7065.2
2839.62884	7076.7
2842.15613	7050.3
2844.68186	7075.2
2847.20604	7101
2849.72867	7096.8
2852.24974	7118.9
2854.76927	7124
2857.28724	7130.2
2859.80367	7134.3
2862.31855	7142.4
2864.83189	7165.9
2867.34368	7174.9
2869.85393	7179
2872.36264	7183.1
2874.8698	7182.8
2877.37543	7186.9
2879.87952	7196.9
2882.38207	7173
2884.88308	7156.9
2887.38256	7154.2
2889.88051	7146.1
2892.37692	7152.3
2894.8718	7131.8
2897.36515	7131.2
2899.85698	7125.3
2902.34727	7126.4
2904.83604	7122.6
2907.32328	7142.5
2909.809	7134.9
2912.29319	7140.5
2914.77587	7138.1
2917.25702	7125.1
2919.73665	7103.6
2922.21476	7078.2
2924.69136	7049.6
2927.16644	7062
2929.64	7031.5
2932.11205	7038.1
2934.58258	6990.2
2937.05161	7022.9
2939.51912	6996.9
2941.98513	6973.1
2944.44962	6959.8
2946.91261	6933.6
2949.37409	6950.6
2951.83407	6961.1
2954.29254	6959.5
2956.74951	6963.8
2959.20498	6982.1
2961.65895	6956.8
2964.11142	6955.7
2966.56239	6920.7
2969.01186	6909
2971.45984	6897.3
2973.90632	6886.7
2976.35131	6872.1
2978.7948	6854.1
2981.23681	6799.3
2983.67732	6791.4
2986.11635	6766.8
2988.55388	6780.9
2990.98993	6755.6
2993.4245	6762.1
2995.85758	6757.5
2998.28917	6744.4
3000.71928	6730
3003.14791	6741.7
3005.57506	6746.7
3008.00073	6732.6
3010.42493	6746.9
3012.84764	6738.3
3015.26888	6749
3017.68865	6724.9
3020.10694	6741.9
3022.52376	6675.1
3024.9391	6671.4
3027.35298	6645
3029.76539	6650.9
3032.17632	6612.8
3034.5858	6599.1
3036.9938	6575.6
3039.40034	6567.8
3041.80542	6550.8
3044.20903	6536.5
3046.61118	6521.8
3049.01187	6511.5
3051.4111	6484.3
3053.80888	6489.9
3056.20519	6485.4
3058.60005	6451.1
3060.99345	6432
3063.3854	6411.9
3065.7759	6411.6
3068.16494	6386.3
3070.55254	6373.1
3072.93868	6354.8
3075.32338	6335.2
3077.70662	6330
3080.08842	6309
3082.46878	6312.7
3084.84769	6296.8
3087.22515	6303.5
3089.60118	6291.5
3091.97576	6299
3094.3489	6282.6
3096.72061	6290.7
3099.09087	6273.2
3101.4597	6275.2
3103.82709	6274.3
3106.19305	6259
3108.55757	6273.8
3110.92066	6256.2
3113.28232	6261.8
3115.64255	6251.9
3118.00134	6220.2
3120.35871	6205.3
3122.71466	6215.2
3125.06917	6184.9
3127.42226	6185.3
3129.77393	6182.7
3132.12417	6177.5
3134.47299	6176.9
3136.82039	6181.3
3139.16636	6180.4
3141.51092	6173.7
3143.85406	6192.2
3146.19579	6212.1
3148.53609	6211.5
3150.87499	6218
3153.21246	6223.9
3155.54853	6237
3157.88318	6231.3
3160.21642	6236.8
3162.54826	6221.9
3164.87868	6238.1
3167.2077	6234
3169.5353	6228.4
3171.86151	6230.8
3174.18631	6226.4
3176.5097	6207.5
3178.83169	6193.6
3181.15228	6216.4
3183.47147	6200.4
3185.78926	6187.1
3188.10565	6186.7
3190.42065	6213
3192.73424	6203.3
3195.04645	6227.2
3197.35725	6224.4
3199.66667	6223.1
3201.97469	6233.5
3204.28132	6238.3
3206.58656	6259.6
3208.8904	6241.3
3211.19287	6268.8
3213.49394	6291.8
3215.79363	6275.3
3218.09193	6280.1
3220.38884	6296.2
3222.68438	6321.8
3224.97853	6315.1
3227.2713	6315.3
3229.56269	6334.6
3231.8527	6336.7
3234.14133	6301.8
3236.42858	6284
3238.71446	6284.1
3240.99896	6289.2
3243.28209	6261
3245.56384	6263.1
3247.84423	6281.8
3250.12324	6269
3252.40088	6258.7
3254.67715	6249.2
3256.95205	6265.9
3259.22558	6263.9
3261.49775	6242.5
3263.76855	6248.2
3266.03799	6259.1
3268.30606	6240.9
3270.57277	6213.3
3272.83812	6219.5
3275.10211	6212.4
3277.36474	6212.3
3279.62601	6204
3281.88593	6195.8
3284.14448	6224.8
3286.40168	6229.6
3288.65753	6230.4
3290.91202	6222.3
3293.16516	6221.9
3295.41695	6196.1
3297.66738	6172
3299.91647	6129.3
3302.16421	6099.1
3304.4106	6073.4
3306.65564	6042.7
3308.89933	5988.2
3311.14169	5950.2
3313.38269	5899.5
3315.62236	5859.1
3317.86068	5805
3320.09766	5746.2
3322.3333	5707.6
3324.5676	5684
3326.80056	5595.3
3329.03219	5558.6
3331.26248	2.1
3333.49143	-1.2
3335.71905	0.4
