Data from AgNP_FTO_APTES_UA_100uM_CRN_5uM_R6G_10uM_NaF_0.1M_Addition_RamanShift__12__14-52-30-366.txt Node

Date: Thu Mar 24 14:52:30 GMT 2022
User: TCL
Spectrometer: QEP01345
Trigger mode: 4
Integration Time (sec): 7.000000E0
Scans to average: 10
Electric dark correction enabled: true
Nonlinearity correction enabled: false
Boxcar width: 0
XAxis mode: Raman Shifts
Number of Pixels in Spectrum: 1044
>>>>>Begin Spectral Data<<<<<
46.04893	-0.6625
50.45542	0.4375
54.85868	-1.0625
59.25871	-1.0625
63.6555	25.7375
68.04907	28.0375
72.43941	29.6375
76.82654	30.5375
81.21044	33.0375
85.59113	33.2375
89.96862	34.1375
94.34289	32.0375
98.71396	36.0375
103.08183	36.2375
107.4465	35.5375
111.80798	38.2375
116.16626	35.2375
120.52136	38.4375
124.87327	40.4375
129.222	42.1375
133.56755	44.1375
137.90993	43.7375
142.24913	52.7375
146.58517	54.4375
150.91804	65.3375
155.24774	73.4375
159.57429	91.2375
163.89768	115.1375
168.21792	152.9375
172.53501	209.0375
176.84895	295.7375
181.15975	416.1375
185.46741	581.8375
189.77193	802.1375
194.07331	1084.3375
198.37157	1398.9375
202.6667	1745.0375
206.9587	2079.4375
211.24758	2403.4375
215.53334	2743.0375
219.81599	3103.7375
224.09553	3499.0375
228.37195	3914.3375
232.64527	4403.8375
236.91549	4910.7375
241.18261	5401.0375
245.44663	5838.9375
249.70755	6218.3375
253.96539	6551.8375
258.22014	6824.1375
262.4718	7061.1375
266.72039	7212.1375
270.96589	7291.7375
275.20832	7283.9375
279.44768	7195.7375
283.68397	7087.7375
287.91719	6966.1375
292.14735	6911.7375
296.37445	6939.8375
300.59849	7042.8375
304.81948	7167.0375
309.03742	7283.2375
313.25231	7315.9375
317.46415	7177.3375
321.67296	6922.6375
325.87872	6700.8375
330.08145	6600.7375
334.28114	6602.3375
338.47781	6666.0375
342.67145	6793.0375
346.86207	6944.9375
351.04966	7170.4375
355.23424	7393.3375
359.4158	7586.9375
363.59435	7729.4375
367.76989	7803.6375
371.94243	7788.1375
376.11196	7775.8375
380.27849	7781.4375
384.44203	7774.9375
388.60257	7791.5375
392.76012	7811.8375
396.91468	7892.2375
401.06626	8039.3375
405.21485	8152.4375
409.36047	8087.7375
413.50311	7876.8375
417.64277	7646.9375
421.77947	7523.3375
425.9132	7492.6375
430.04396	7522.4375
434.17176	7528.6375
438.2966	7578.3375
442.41849	7663.7375
446.53742	7761.5375
450.6534	7894.4375
454.76644	7981.2375
458.87653	8016.0375
462.98368	8009.1375
467.08789	7974.8375
471.18916	7915.0375
475.2875	7795.8375
479.38291	7723.7375
483.4754	7652.6375
487.56496	7618.9375
491.6516	7605.7375
495.73531	7606.5375
499.81612	7646.6375
503.89401	7703.3375
507.96899	7743.3375
512.04106	7794.0375
516.11023	7848.7375
520.1765	7893.3375
524.23987	7898.7375
528.30034	7852.1375
532.35792	7800.3375
536.41261	7728.0375
540.46441	7632.4375
544.51333	7609.4375
548.55936	7638.5375
552.60252	7737.6375
556.64279	7853.2375
560.6802	7913.0375
564.71473	7926.2375
568.7464	8003.4375
572.7752	8098.5375
576.80114	8057.5375
580.82422	8052.0375
584.84444	8181.9375
588.86181	8271.7375
592.87633	8330.8375
596.888	8404.8375
600.89682	8532.2375
604.9028	8927.1375
608.90594	10228.4375
612.90624	11924.7375
616.90371	11628.0375
620.89834	9308.8375
624.89015	8115.7375
628.87913	7913.4375
632.86528	7997.5375
636.84862	8117.7375
640.82913	8107.1375
644.80683	7906.2375
648.78172	7734.0375
652.75379	7746.2375
656.72306	7890.7375
660.68952	8136.9375
664.65319	8107.8375
668.61405	7890.7375
672.57211	7794.5375
676.52738	7783.9375
680.47986	7790.4375
684.42955	7723.3375
688.37646	7716.2375
692.32058	7705.7375
696.26192	7774.4375
700.20048	7847.9375
704.13626	7889.1375
708.06928	7905.9375
711.99952	7846.4375
715.927	7855.2375
719.85171	7845.9375
723.77365	7860.5375
727.69284	7833.7375
731.60928	7790.0375
735.52295	7769.2375
739.43388	7753.1375
743.34206	7785.2375
747.24749	7800.4375
751.15017	7830.4375
755.05012	7897.3375
758.94733	8068.9375
762.8418	8561.9375
766.73354	9412.7375
770.62254	10291.4375
774.50882	10678.9375
778.39237	10334.5375
782.27321	9581.3375
786.15132	8765.7375
790.02671	8230.2375
793.89938	7943.4375
797.76935	7838.4375
801.6366	7777.5375
805.50115	7732.4375
809.36299	7708.3375
813.22213	7680.2375
817.07857	7670.0375
820.93231	7656.1375
824.78336	7656.1375
828.63172	7677.3375
832.47738	7688.8375
836.32036	7669.2375
840.16066	7669.3375
843.99827	7659.2375
847.8332	7669.9375
851.66546	7662.4375
855.49504	7669.2375
859.32195	7684.3375
863.1462	7656.0375
866.96777	7643.9375
870.78668	7633.5375
874.60293	7650.2375
878.41652	7666.3375
882.22745	7712.2375
886.03573	7735.6375
889.84136	7757.1375
893.64433	7716.1375
897.44466	7702.3375
901.24235	7694.9375
905.0374	7689.3375
908.8298	7638.4375
912.61957	7629.0375
916.40671	7627.6375
920.19121	7647.4375
923.97308	7709.3375
927.75233	7756.9375
931.52895	7791.2375
935.30295	7744.1375
939.07433	7612.4375
942.84309	7506.5375
946.60924	7430.1375
950.37278	7408.1375
954.13371	7408.3375
957.89203	7357.8375
961.64774	7374.5375
965.40086	7372.2375
969.15137	7352.7375
972.89929	7352.6375
976.64461	7367.6375
980.38733	7359.7375
984.12747	7352.8375
987.86502	7350.0375
991.59999	7372.8375
995.33237	7422.6375
999.06217	7478.4375
1002.78939	7561.6375
1006.51404	7655.0375
1010.23611	7743.0375
1013.95561	7816.0375
1017.67255	7834.3375
1021.38692	7774.3375
1025.09872	7725.2375
1028.80796	7632.0375
1032.51465	7601.2375
1036.21877	7587.3375
1039.92035	7635.8375
1043.61937	7667.4375
1047.31584	7710.0375
1051.00976	7727.9375
1054.70114	7747.1375
1058.38998	7737.5375
1062.07627	7779.1375
1065.76003	7839.0375
1069.44126	7870.2375
1073.11995	8007.6375
1076.79611	8142.8375
1080.46974	8261.7375
1084.14085	8335.9375
1087.80943	8436.1375
1091.47549	8473.5375
1095.13903	8448.8375
1098.80005	8312.1375
1102.45857	8175.9375
1106.11456	8094.3375
1109.76805	8075.7375
1113.41903	8120.5375
1117.06751	8215.7375
1120.71348	8363.4375
1124.35696	8548.9375
1127.99793	8744.0375
1131.63641	8777.1375
1135.2724	8565.5375
1138.90589	8360.4375
1142.5369	8237.8375
1146.16542	8178.8375
1149.79145	8065.8375
1153.415	8031.0375
1157.03607	8065.7375
1160.65467	8160.6375
1164.27079	8308.7375
1167.88443	8586.4375
1171.49561	8980.7375
1175.10432	9592.9375
1178.71056	10393.5375
1182.31434	11083.9375
1185.91565	11399.2375
1189.51451	11286.6375
1193.11091	10985.2375
1196.70485	10548.0375
1200.29634	10125.6375
1203.88538	9730.6375
1207.47197	9285.8375
1211.05612	8909.6375
1214.63782	8651.8375
1218.21708	8523.3375
1221.79391	8487.5375
1225.36829	8447.6375
1228.94024	8458.3375
1232.50976	8449.6375
1236.07685	8439.9375
1239.6415	8436.0375
1243.20374	8426.0375
1246.76355	8451.1375
1250.32093	8491.0375
1253.8759	8545.8375
1257.42845	8709.6375
1260.97859	8895.2375
1264.52631	9092.0375
1268.07163	9303.8375
1271.61453	9490.7375
1275.15503	9649.2375
1278.69312	9722.1375
1282.22882	9800.4375
1285.76211	9941.5375
1289.29301	10146.5375
1292.82151	10351.3375
1296.34761	10572.9375
1299.87133	10931.1375
1303.39266	11469.7375
1306.9116	12312.5375
1310.42815	13225.8375
1313.94233	13667.1375
1317.45412	13347.5375
1320.96354	12699.3375
1324.47058	12047.4375
1327.97525	11497.2375
1331.47754	11165.0375
1334.97747	10995.4375
1338.47502	11014.9375
1341.97022	11192.1375
1345.46305	11555.3375
1348.95352	12169.6375
1352.44163	12866.5375
1355.92738	13624.2375
1359.41078	14662.7375
1362.89183	15799.0375
1366.37053	15656.3375
1369.84688	13934.5375
1373.32088	11967.6375
1376.79254	10691.3375
1380.26186	10017.2375
1383.72883	9619.4375
1387.19347	9296.4375
1390.65578	9032.3375
1394.11575	8804.7375
1397.57339	8658.7375
1401.0287	8587.5375
1404.48168	8537.9375
1407.93234	8521.2375
1411.38068	8512.9375
1414.82669	8556.8375
1418.27039	8545.1375
1421.71177	8510.5375
1425.15083	8433.0375
1428.58758	8355.1375
1432.02203	8348.2375
1435.45416	8395.0375
1438.88399	8417.5375
1442.31151	8430.7375
1445.73673	8461.1375
1449.15965	8494.5375
1452.58027	8504.5375
1455.9986	8495.7375
1459.41463	8521.6375
1462.82837	8629.9375
1466.23982	8783.5375
1469.64898	8976.1375
1473.05586	9114.5375
1476.46045	9214.4375
1479.86276	9337.2375
1483.26279	9505.9375
1486.66054	9663.5375
1490.05602	9951.6375
1493.44922	10413.0375
1496.84016	11082.5375
1500.22882	12130.3375
1503.61521	13395.0375
1506.99934	14738.5375
1510.38121	15705.1375
1513.76081	15642.9375
1517.13816	14576.6375
1520.51324	12965.8375
1523.88607	11594.0375
1527.25665	10722.5375
1530.62498	10232.0375
1533.99105	9891.1375
1537.35488	9667.3375
1540.71647	9509.9375
1544.07581	9392.8375
1547.4329	9273.3375
1550.78776	9212.6375
1554.14038	9214.5375
1557.49077	9273.0375
1560.83892	9386.5375
1564.18484	9552.0375
1567.52853	9839.3375
1570.86999	10096.7375
1574.20922	10266.4375
1577.54624	10240.3375
1580.88103	9871.9375
1584.2136	9336.7375
1587.54395	9005.2375
1590.87208	8942.1375
1594.19801	9169.9375
1597.52172	9562.9375
1600.84321	9740.2375
1604.16251	9597.3375
1607.47959	9295.7375
1610.79447	9007.0375
1614.10715	8673.4375
1617.41763	8283.1375
1620.7259	8031.2375
1624.03199	7868.6375
1627.33587	7820.8375
1630.63757	7904.7375
1633.93707	8080.1375
1637.23439	8484.4375
1640.52951	9129.2375
1643.82246	10036.5375
1647.11321	11095.3375
1650.40179	11849.8375
1653.68819	11688.1375
1656.97241	10629.9375
1660.25446	9353.0375
1663.53433	8380.3375
1666.81203	7777.1375
1670.08756	7425.1375
1673.36092	7213.6375
1676.63211	7076.9375
1679.90115	6985.2375
1683.16801	6910.7375
1686.43272	6833.9375
1689.69527	6822.8375
1692.95567	6780.4375
1696.2139	6749.5375
1699.46999	6749.0375
1702.72392	6721.3375
1705.97571	6711.8375
1709.22535	6681.7375
1712.47284	6674.6375
1715.71819	6674.0375
1718.96139	6662.6375
1722.20246	6668.7375
1725.44139	6616.6375
1728.67818	6574.0375
1731.91284	6558.5375
1735.14537	6503.8375
1738.37576	6476.0375
1741.60403	6463.4375
1744.83017	6429.2375
1748.05418	6415.5375
1751.27607	6405.4375
1754.49584	6397.7375
1757.71349	6400.8375
1760.92903	6380.9375
1764.14244	6403.5375
1767.35375	6374.2375
1770.56294	6357.4375
1773.77002	6359.6375
1776.97499	6324.3375
1780.17785	6311.9375
1783.37861	6299.7375
1786.57727	6287.3375
1789.77382	6265.2375
1792.96828	6258.6375
1796.16064	6250.6375
1799.3509	6234.2375
1802.53907	6209.5375
1805.72514	6184.5375
1808.90913	6172.0375
1812.09102	6164.5375
1815.27083	6148.8375
1818.44856	6141.2375
1821.6242	6129.8375
1824.79776	6115.1375
1827.96924	6114.5375
1831.13864	6115.3375
1834.30597	6112.4375
1837.47122	6080.8375
1840.6344	6096.1375
1843.7955	6088.2375
1846.95454	6099.1375
1850.11151	6084.9375
1853.26642	6056.3375
1856.41926	6094.2375
1859.57004	6063.0375
1862.71876	6057.2375
1865.86542	6057.1375
1869.01003	6050.6375
1872.15258	6026.9375
1875.29308	6017.9375
1878.43152	6014.4375
1881.56792	5992.8375
1884.70227	5999.3375
1887.83457	5996.1375
1890.96482	5986.3375
1894.09304	5961.7375
1897.21921	5958.9375
1900.34335	5952.3375
1903.46544	5961.2375
1906.58551	5954.8375
1909.70353	5926.1375
1912.81953	5934.1375
1915.93349	5933.2375
1919.04543	5900.2375
1922.15534	5883.6375
1925.26322	5866.5375
1928.36908	5850.1375
1931.47292	5834.3375
1934.57473	5821.9375
1937.67453	5808.1375
1940.77232	5792.7375
1943.86808	5751.5375
1946.96184	5768.3375
1950.05358	5737.5375
1953.14331	5748.4375
1956.23103	5732.9375
1959.31675	5697.3375
1962.40046	5681.9375
1965.48217	5649.2375
1968.56188	5645.0375
1971.63959	5629.9375
1974.7153	5614.7375
1977.78901	5595.0375
1980.86073	5587.2375
1983.93046	5571.4375
1986.99819	5551.5375
1990.06394	5522.6375
1993.1277	5519.5375
1996.18947	5506.9375
1999.24925	5453.9375
2002.30706	5455.7375
2005.36288	5436.6375
2008.41672	5420.0375
2011.46859	5414.0375
2014.51848	5391.7375
2017.56639	5372.2375
2020.61233	5345.5375
2023.6563	5332.9375
2026.6983	5309.2375
2029.73833	5310.0375
2032.7764	5297.7375
2035.8125	5273.3375
2038.84664	5278.7375
2041.87881	5264.2375
2044.90903	5279.3375
2047.93729	5232.8375
2050.96359	5249.8375
2053.98794	5228.6375
2057.01034	5206.3375
2060.03078	5211.0375
2063.04927	5209.7375
2066.06582	5196.5375
2069.08042	5202.2375
2072.09307	5183.4375
2075.10378	5172.1375
2078.11255	5187.5375
2081.11938	5190.4375
2084.12426	5180.9375
2087.12722	5197.9375
2090.12824	5192.4375
2093.12732	5189.0375
2096.12447	5211.5375
2099.11969	5175.3375
2102.11299	5203.5375
2105.10435	5189.2375
2108.09379	5187.9375
2111.08131	5195.3375
2114.0669	5199.7375
2117.05057	5213.0375
2120.03233	5203.2375
2123.01216	5205.1375
2125.99008	5206.8375
2128.96609	5194.5375
2131.94018	5212.0375
2134.91236	5196.5375
2137.88263	5207.7375
2140.851	5216.1375
2143.81746	5225.6375
2146.78201	5227.9375
2149.74466	5221.9375
2152.7054	5222.8375
2155.66425	5207.2375
2158.6212	5202.7375
2161.57625	5203.8375
2164.52941	5199.6375
2167.48067	5194.9375
2170.43004	5188.6375
2173.37752	5200.8375
2176.32311	5197.1375
2179.26681	5200.0375
2182.20863	5176.8375
2185.14856	5161.2375
2188.08661	5164.5375
2191.02278	5163.7375
2193.95707	5166.6375
2196.88948	5158.9375
2199.82001	5143.0375
2202.74867	5144.2375
2205.67545	5143.8375
2208.60037	5131.1375
2211.52341	5117.5375
2214.44458	5112.1375
2217.36388	5116.3375
2220.28132	5115.4375
2223.1969	5082.7375
2226.11061	5079.9375
2229.02246	5071.3375
2231.93245	5058.3375
2234.84058	5027.5375
2237.74686	5040.4375
2240.65128	5040.3375
2243.55385	5038.0375
2246.45456	5021.9375
2249.35343	5019.0375
2252.25044	5020.4375
2255.14561	5006.3375
2258.03893	4994.6375
2260.93041	4989.4375
2263.82004	4983.2375
2266.70783	4966.9375
2269.59378	4969.8375
2272.4779	4947.9375
2275.36017	4929.3375
2278.24061	4934.3375
2281.11922	4923.0375
2283.996	4916.4375
2286.87094	4911.5375
2289.74405	4891.9375
2292.61534	4891.8375
2295.4848	4884.5375
2298.35243	4862.1375
2301.21824	4863.9375
2304.08223	4856.1375
2306.94439	4854.3375
2309.80474	4845.8375
2312.66327	4833.2375
2315.51999	4830.9375
2318.37489	4807.5375
2321.22797	4823.8375
2324.07925	4808.1375
2326.92871	4812.7375
2329.77637	4807.6375
2332.62222	4801.3375
2335.46626	4797.2375
2338.3085	4799.2375
2341.14893	4759.8375
2343.98756	4759.6375
2346.8244	4765.6375
2349.65943	4764.4375
2352.49267	4757.3375
2355.32411	4759.4375
2358.15376	4762.9375
2360.98161	4763.1375
2363.80768	4785.1375
2366.63195	4756.2375
2369.45444	4766.7375
2372.27514	4770.7375
2375.09405	4757.6375
2377.91118	4750.8375
2380.72652	4721.6375
2383.54009	4723.1375
2386.35187	4706.1375
2389.16188	4703.3375
2391.97011	4688.3375
2394.77657	4679.5375
2397.58125	4666.8375
2400.38416	4673.0375
2403.18529	4642.2375
2405.98466	4630.6375
2408.78226	4617.1375
2411.57809	4607.7375
2414.37216	4599.9375
2417.16446	4584.4375
2419.955	4594.1375
2422.74378	4577.1375
2425.5308	4574.8375
2428.31606	4580.2375
2431.09956	4584.5375
2433.88131	4576.8375
2436.6613	4585.6375
2439.43954	4561.5375
2442.21603	4560.1375
2444.99077	4568.3375
2447.76377	4573.8375
2450.53501	4556.1375
2453.30451	4556.0375
2456.07226	4548.4375
2458.83827	4552.9375
2461.60254	4546.5375
2464.36507	4541.2375
2467.12586	4544.1375
2469.88492	4534.2375
2472.64224	4526.5375
2475.39782	4538.2375
2478.15167	4545.8375
2480.90379	4534.5375
2483.65417	4511.1375
2486.40283	4536.9375
2489.14976	4510.6375
2491.89497	4526.0375
2494.63845	4521.6375
2497.3802	4522.4375
2500.12024	4510.5375
2502.85855	4514.6375
2505.59514	4504.3375
2508.33002	4479.0375
2511.06318	4491.7375
2513.79462	4455.6375
2516.52435	4452.1375
2519.25237	4471.5375
2521.97867	4446.8375
2524.70327	4432.4375
2527.42616	4435.2375
2530.14734	4408.4375
2532.86681	4395.8375
2535.58458	4552.5375
2538.30065	4468.1375
2541.01501	4387.4375
2543.72768	4392.5375
2546.43864	4380.5375
2549.14791	4365.6375
2551.85548	4358.4375
2554.56136	4356.9375
2557.26554	4344.3375
2559.96803	4355.1375
2562.66883	4346.4375
2565.36794	4342.4375
2568.06536	4340.5375
2570.7611	4331.2375
2573.45514	4301.5375
2576.14751	4302.8375
2578.83819	4303.5375
2581.52719	4273.0375
2584.21451	4286.6375
2586.90015	4268.5375
2589.58411	4252.8375
2592.2664	4258.0375
2594.94701	4245.2375
2597.62594	4245.5375
2600.30321	4231.1375
2602.9788	4226.6375
2605.65273	4219.6375
2608.32498	4219.0375
2610.99557	4194.5375
2613.66449	4183.5375
2616.33175	4192.2375
2618.99734	4189.8375
2621.66128	4174.6375
2624.32355	4171.1375
2626.98416	4170.6375
2629.64311	4161.5375
2632.30041	4144.7375
2634.95605	4136.9375
2637.61004	4138.8375
2640.26238	4134.8375
2642.91306	4142.6375
2645.56209	4134.7375
2648.20948	4143.2375
2650.85521	4130.8375
2653.4993	4125.9375
2656.14175	4122.5375
2658.78255	4123.3375
2661.42171	4131.7375
2664.05923	4119.8375
2666.6951	4111.6375
2669.32934	4120.1375
2671.96194	4118.6375
2674.59291	4113.2375
2677.22224	4112.4375
2679.84993	4122.8375
2682.476	4104.0375
2685.10043	4115.1375
2687.72324	4111.0375
2690.34441	4100.7375
2692.96396	4104.0375
2695.58188	4111.4375
2698.19818	4098.7375
2700.81285	4120.6375
2703.4259	4120.1375
2706.03733	4114.6375
2708.64714	4105.0375
2711.25533	4099.0375
2713.86191	4100.9375
2716.46687	4107.9375
2719.07021	4107.9375
2721.67194	4111.0375
2724.27206	4105.1375
2726.87057	4095.1375
2729.46747	4084.1375
2732.06276	4077.4375
2734.65644	4077.9375
2737.24852	4086.2375
2739.83899	4061.1375
2742.42786	4086.2375
2745.01513	4057.5375
2747.60079	4054.2375
2750.18486	4061.2375
2752.76733	4055.9375
2755.3482	4052.1375
2757.92747	4043.7375
2760.50515	4033.4375
2763.08123	4040.9375
2765.65573	4017.8375
2768.22863	4010.3375
2770.79994	3999.4375
2773.36967	4006.2375
2775.9378	4002.3375
2778.50435	3996.0375
2781.06932	3994.4375
2783.6327	3979.3375
2786.1945	3981.7375
2788.75471	3970.1375
2791.31335	3957.5375
2793.87041	3947.7375
2796.42589	3931.5375
2798.97979	3933.1375
2801.53212	3933.0375
2804.08288	3930.1375
2806.63206	3933.7375
2809.17967	3933.0375
2811.72571	3912.5375
2814.27018	3910.4375
2816.81308	3914.9375
2819.35442	3916.2375
2821.89419	3892.8375
2824.43239	3890.6375
2826.96904	3868.9375
2829.50412	3872.2375
2832.03763	3875.1375
2834.56959	3867.2375
2837.1	3866.4375
2839.62884	3857.8375
2842.15613	3853.8375
2844.68186	3867.6375
2847.20604	3854.7375
2849.72867	3862.2375
2852.24974	3860.1375
2854.76927	3852.0375
2857.28724	3840.1375
2859.80367	3849.1375
2862.31855	3827.3375
2864.83189	3839.8375
2867.34368	3839.5375
2869.85393	3842.7375
2872.36264	3830.1375
2874.8698	3835.4375
2877.37543	3837.7375
2879.87952	3843.1375
2882.38207	3832.8375
2884.88308	3833.1375
2887.38256	3824.1375
2889.88051	3820.2375
2892.37692	3825.2375
2894.8718	3820.3375
2897.36515	3813.2375
2899.85698	3815.7375
2902.34727	3814.5375
2904.83604	3813.4375
2907.32328	3814.4375
2909.809	3816.5375
2912.29319	3814.8375
2914.77587	3815.4375
2917.25702	3830.3375
2919.73665	3817.7375
2922.21476	3824.6375
2924.69136	3813.9375
2927.16644	3818.8375
2929.64	3801.1375
2932.11205	3795.8375
2934.58258	3786.5375
2937.05161	3801.7375
2939.51912	3791.8375
2941.98513	3783.5375
2944.44962	3780.1375
2946.91261	3753.9375
2949.37409	3775.8375
2951.83407	3776.7375
2954.29254	3771.1375
2956.74951	3757.1375
2959.20498	3756.2375
2961.65895	3754.0375
2964.11142	3748.3375
2966.56239	3752.9375
2969.01186	3739.4375
2971.45984	3729.9375
2973.90632	3723.9375
2976.35131	3718.3375
2978.7948	3718.3375
2981.23681	3699.5375
2983.67732	3707.9375
2986.11635	3702.7375
2988.55388	3694.7375
2990.98993	3679.5375
2993.4245	3678.4375
2995.85758	3669.1375
2998.28917	3673.3375
3000.71928	3660.8375
3003.14791	3669.1375
3005.57506	3659.6375
3008.00073	3661.3375
3010.42493	3653.5375
3012.84764	3652.3375
3015.26888	3653.3375
3017.68865	3626.1375
3020.10694	3632.7375
3022.52376	3620.9375
3024.9391	3627.7375
3027.35298	3617.1375
3029.76539	3618.1375
3032.17632	3603.6375
3034.5858	3598.8375
3036.9938	3590.9375
3039.40034	3577.3375
3041.80542	3580.1375
3044.20903	3570.2375
3046.61118	3583.2375
3049.01187	3552.4375
3051.4111	3562.4375
3053.80888	3558.3375
3056.20519	3553.8375
3058.60005	3551.4375
3060.99345	3552.4375
3063.3854	3526.3375
3065.7759	3545.3375
3068.16494	3546.7375
3070.55254	3526.6375
3072.93868	3535.5375
3075.32338	3509.7375
3077.70662	3517.1375
3080.08842	3522.0375
3082.46878	3500.8375
3084.84769	3510.3375
3087.22515	3507.9375
3089.60118	3501.8375
3091.97576	3504.9375
3094.3489	3497.0375
3096.72061	3499.9375
3099.09087	3507.6375
3101.4597	3508.4375
3103.82709	3497.4375
3106.19305	3502.8375
3108.55757	3501.5375
3110.92066	3496.3375
3113.28232	3489.9375
3115.64255	3481.6375
3118.00134	3470.6375
3120.35871	3475.1375
3122.71466	3475.1375
3125.06917	3478.4375
3127.42226	3485.8375
3129.77393	3486.7375
3132.12417	3478.9375
3134.47299	3487.3375
3136.82039	3484.1375
3139.16636	3481.9375
3141.51092	3501.4375
3143.85406	3487.4375
3146.19579	3513.5375
3148.53609	3501.2375
3150.87499	3510.4375
3153.21246	3517.4375
3155.54853	3523.1375
3157.88318	3515.6375
3160.21642	3508.6375
3162.54826	3519.7375
3164.87868	3517.4375
3167.2077	3518.4375
3169.5353	3514.2375
3171.86151	3525.3375
3174.18631	3530.9375
3176.5097	3513.2375
3178.83169	3514.6375
3181.15228	3524.7375
3183.47147	3527.8375
3185.78926	3520.4375
3188.10565	3517.4375
3190.42065	3518.5375
3192.73424	3515.0375
3195.04645	3507.5375
3197.35725	3520.1375
3199.66667	3523.4375
3201.97469	3527.1375
3204.28132	3538.0375
3206.58656	3544.9375
3208.8904	3544.1375
3211.19287	3534.4375
3213.49394	3551.8375
3215.79363	3539.8375
3218.09193	3544.9375
3220.38884	3540.1375
3222.68438	3554.7375
3224.97853	3537.1375
3227.2713	3533.0375
3229.56269	3527.6375
3231.8527	3534.1375
3234.14133	3536.9375
3236.42858	3521.3375
3238.71446	3515.8375
3240.99896	3525.0375
3243.28209	3525.4375
3245.56384	3520.9375
3247.84423	3519.5375
3250.12324	3502.5375
3252.40088	3494.9375
3254.67715	3505.0375
3256.95205	3495.7375
3259.22558	3472.1375
3261.49775	3489.4375
3263.76855	3475.0375
3266.03799	3471.1375
3268.30606	3487.2375
3270.57277	3469.7375
3272.83812	3475.8375
3275.10211	3446.8375
3277.36474	3458.7375
3279.62601	3460.6375
3281.88593	3444.6375
3284.14448	3459.7375
3286.40168	3437.9375
3288.65753	3452.3375
3290.91202	3440.3375
3293.16516	3432.5375
3295.41695	3430.7375
3297.66738	3413.2375
3299.91647	3404.5375
3302.16421	3377.2375
3304.4106	3378.2375
3306.65564	3368.4375
3308.89933	3344.7375
3311.14169	3319.0375
3313.38269	3301.4375
3315.62236	3283.5375
3317.86068	3256.7375
3320.09766	3214.7375
3322.3333	3179.2375
3324.5676	3198.7375
3326.80056	3140.8375
3329.03219	3136.4375
3331.26248	2.2375
3333.49143	-1.0625
3335.71905	0.7375
