Data from AgNP_FTO_APTES_UA_100uM_CRN_100uM_R6G_10uM_NaF_0.1M_Addition_RamanShift__27__18-19-00-598.txt Node

Date: Thu Mar 24 18:19:00 GMT 2022
User: TCL
Spectrometer: QEP01345
Trigger mode: 4
Integration Time (sec): 7.000000E0
Scans to average: 10
Electric dark correction enabled: true
Nonlinearity correction enabled: false
Boxcar width: 0
XAxis mode: Raman Shifts
Number of Pixels in Spectrum: 1044
>>>>>Begin Spectral Data<<<<<
46.04893	-1.6125
50.45542	0.3875
54.85868	-0.3125
59.25871	0.3875
63.6555	31.8875
68.04907	36.2875
72.43941	33.8875
76.82654	35.5875
81.21044	40.8875
85.59113	40.5875
89.96862	43.8875
94.34289	42.3875
98.71396	46.8875
103.08183	45.0875
107.4465	48.2875
111.80798	50.5875
116.16626	48.6875
120.52136	48.6875
124.87327	50.0875
129.222	50.9875
133.56755	53.9875
137.90993	54.9875
142.24913	64.1875
146.58517	66.4875
150.91804	80.5875
155.24774	90.1875
159.57429	107.4875
163.89768	137.5875
168.21792	184.3875
172.53501	253.5875
176.84895	347.4875
181.15975	491.0875
185.46741	686.1875
189.77193	941.6875
194.07331	1268.4875
198.37157	1628.4875
202.6667	2026.4875
206.9587	2406.5875
211.24758	2807.7875
215.53334	3211.3875
219.81599	3643.8875
224.09553	4113.2875
228.37195	4641.0875
232.64527	5238.2875
236.91549	5848.9875
241.18261	6432.8875
245.44663	6937.5875
249.70755	7355.9875
253.96539	7692.8875
258.22014	7988.7875
262.4718	8228.1875
266.72039	8410.2875
270.96589	8499.4875
275.20832	8502.1875
279.44768	8385.8875
283.68397	8286.3875
287.91719	8227.7875
292.14735	8204.8875
296.37445	8270.0875
300.59849	8406.8875
304.81948	8606.8875
309.03742	8724.0875
313.25231	8721.0875
317.46415	8510.9875
321.67296	8168.4875
325.87872	7855.0875
330.08145	7670.8875
334.28114	7639.9875
338.47781	7738.8875
342.67145	7848.0875
346.86207	8013.3875
351.04966	8256.4875
355.23424	8502.1875
359.4158	8707.4875
363.59435	8826.2875
367.76989	8830.7875
371.94243	8845.6875
376.11196	8844.8875
380.27849	8835.8875
384.44203	8794.0875
388.60257	8817.4875
392.76012	8857.4875
396.91468	8931.9875
401.06626	9080.2875
405.21485	9204.6875
409.36047	9100.4875
413.50311	8786.2875
417.64277	8495.3875
421.77947	8359.7875
425.9132	8335.1875
430.04396	8356.9875
434.17176	8426.8875
438.2966	8493.4875
442.41849	8669.8875
446.53742	8892.0875
450.6534	9138.0875
454.76644	9281.9875
458.87653	9290.7875
462.98368	9221.0875
467.08789	9107.7875
471.18916	8987.5875
475.2875	8856.2875
479.38291	8727.0875
483.4754	8607.9875
487.56496	8518.3875
491.6516	8423.4875
495.73531	8359.8875
499.81612	8360.1875
503.89401	8401.3875
507.96899	8431.5875
512.04106	8455.7875
516.11023	8454.7875
520.1765	8456.0875
524.23987	8447.4875
528.30034	8405.5875
532.35792	8342.3875
536.41261	8254.4875
540.46441	8114.5875
544.51333	8068.9875
548.55936	8152.6875
552.60252	8305.7875
556.64279	8503.5875
560.6802	8618.7875
564.71473	8690.9875
568.7464	8857.7875
572.7752	9088.0875
576.80114	9207.0875
580.82422	9290.6875
584.84444	9456.3875
588.86181	9624.8875
592.87633	9854.8875
596.888	9992.8875
600.89682	9950.1875
604.9028	10320.4875
608.90594	11827.6875
612.90624	13796.4875
616.90371	13034.3875
620.89834	10003.9875
624.89015	8560.9875
628.87913	8326.4875
632.86528	8493.8875
636.84862	8655.5875
640.82913	8556.9875
644.80683	8192.7875
648.78172	7932.6875
652.75379	7842.0875
656.72306	8011.9875
660.68952	8255.9875
664.65319	8196.2875
668.61405	7875.6875
672.57211	7762.3875
676.52738	7758.3875
680.47986	7778.2875
684.42955	7692.4875
688.37646	7647.9875
692.32058	7670.3875
696.26192	7718.2875
700.20048	7814.8875
704.13626	7898.2875
708.06928	7883.9875
711.99952	7846.5875
715.927	7830.4875
719.85171	7858.6875
723.77365	7881.8875
727.69284	7855.1875
731.60928	7804.3875
735.52295	7785.2875
739.43388	7793.0875
743.34206	7832.6875
747.24749	7824.2875
751.15017	7863.2875
755.05012	7968.8875
758.94733	8258.3875
762.8418	8957.9875
766.73354	10206.5875
770.62254	11375.6875
774.50882	11761.4875
778.39237	11131.3875
782.27321	9893.9875
786.15132	8790.4875
790.02671	8091.5875
793.89938	7761.7875
797.76935	7620.8875
801.6366	7530.1875
805.50115	7523.8875
809.36299	7502.0875
813.22213	7463.7875
817.07857	7444.0875
820.93231	7426.9875
824.78336	7372.4875
828.63172	7381.7875
832.47738	7367.9875
836.32036	7365.7875
840.16066	7308.6875
843.99827	7309.6875
847.8332	7303.2875
851.66546	7283.3875
855.49504	7274.7875
859.32195	7290.6875
863.1462	7262.3875
866.96777	7279.7875
870.78668	7253.4875
874.60293	7266.0875
878.41652	7289.4875
882.22745	7330.9875
886.03573	7373.7875
889.84136	7397.8875
893.64433	7366.5875
897.44466	7324.9875
901.24235	7277.4875
905.0374	7230.7875
908.8298	7193.7875
912.61957	7171.6875
916.40671	7173.0875
920.19121	7269.8875
923.97308	7330.7875
927.75233	7374.0875
931.52895	7342.5875
935.30295	7224.8875
939.07433	7084.2875
942.84309	6916.5875
946.60924	6834.9875
950.37278	6795.9875
954.13371	6800.2875
957.89203	6780.5875
961.64774	6769.3875
965.40086	6755.7875
969.15137	6727.8875
972.89929	6739.8875
976.64461	6695.8875
980.38733	6689.3875
984.12747	6677.9875
987.86502	6695.1875
991.59999	6756.0875
995.33237	6814.5875
999.06217	6941.1875
1002.78939	7130.1875
1006.51404	7299.7875
1010.23611	7424.2875
1013.95561	7540.6875
1017.67255	7524.5875
1021.38692	7409.4875
1025.09872	7245.2875
1028.80796	7134.1875
1032.51465	7098.4875
1036.21877	7114.7875
1039.92035	7151.6875
1043.61937	7184.8875
1047.31584	7228.4875
1051.00976	7228.7875
1054.70114	7230.4875
1058.38998	7242.1875
1062.07627	7306.9875
1065.76003	7345.8875
1069.44126	7452.5875
1073.11995	7562.5875
1076.79611	7670.0875
1080.46974	7787.8875
1084.14085	7917.7875
1087.80943	8041.0875
1091.47549	8100.5875
1095.13903	8060.0875
1098.80005	7855.4875
1102.45857	7651.9875
1106.11456	7526.4875
1109.76805	7544.8875
1113.41903	7631.5875
1117.06751	7814.2875
1120.71348	8054.6875
1124.35696	8322.2875
1127.99793	8560.4875
1131.63641	8584.4875
1135.2724	8371.8875
1138.90589	8140.7875
1142.5369	7981.4875
1146.16542	7885.9875
1149.79145	7819.5875
1153.415	7835.3875
1157.03607	7910.9875
1160.65467	8095.1875
1164.27079	8398.4875
1167.88443	8874.8875
1171.49561	9590.8875
1175.10432	10619.5875
1178.71056	11904.1875
1182.31434	12994.9875
1185.91565	13370.0875
1189.51451	13061.8875
1193.11091	12459.1875
1196.70485	11694.3875
1200.29634	10965.9875
1203.88538	10411.1875
1207.47197	9871.8875
1211.05612	9414.9875
1214.63782	9107.1875
1218.21708	8930.3875
1221.79391	8891.7875
1225.36829	8910.3875
1228.94024	8829.0875
1232.50976	8679.6875
1236.07685	8541.7875
1239.6415	8469.5875
1243.20374	8464.4875
1246.76355	8497.7875
1250.32093	8576.8875
1253.8759	8700.8875
1257.42845	8935.8875
1260.97859	9236.0875
1264.52631	9553.0875
1268.07163	9886.0875
1271.61453	10207.7875
1275.15503	10438.2875
1278.69312	10652.9875
1282.22882	10885.3875
1285.76211	11225.4875
1289.29301	11666.1875
1292.82151	12130.7875
1296.34761	12714.0875
1299.87133	13512.4875
1303.39266	14527.6875
1306.9116	15868.2875
1310.42815	17207.7875
1313.94233	17843.1875
1317.45412	17439.0875
1320.96354	16577.3875
1324.47058	15665.6875
1327.97525	14836.4875
1331.47754	14238.8875
1334.97747	13864.6875
1338.47502	13774.1875
1341.97022	13906.8875
1345.46305	14225.6875
1348.95352	14707.5875
1352.44163	15420.0875
1355.92738	16514.1875
1359.41078	18193.3875
1362.89183	19851.8875
1366.37053	19495.7875
1369.84688	17050.6875
1373.32088	14382.6875
1376.79254	12691.4875
1380.26186	11837.4875
1383.72883	11368.5875
1387.19347	11056.9875
1390.65578	10734.7875
1394.11575	10544.2875
1397.57339	10461.4875
1401.0287	10515.2875
1404.48168	10553.4875
1407.93234	10521.3875
1411.38068	10418.0875
1414.82669	10233.6875
1418.27039	9950.3875
1421.71177	9630.0875
1425.15083	9323.2875
1428.58758	9177.4875
1432.02203	9233.1875
1435.45416	9386.2875
1438.88399	9549.7875
1442.31151	9653.8875
1445.73673	9766.3875
1449.15965	9867.8875
1452.58027	9921.0875
1455.9986	9908.6875
1459.41463	9984.6875
1462.82837	10156.0875
1466.23982	10471.4875
1469.64898	10838.3875
1473.05586	11123.7875
1476.46045	11310.8875
1479.86276	11455.6875
1483.26279	11587.8875
1486.66054	11763.8875
1490.05602	12087.6875
1493.44922	12593.1875
1496.84016	13285.9875
1500.22882	14338.5875
1503.61521	15725.3875
1506.99934	17172.9875
1510.38121	18128.8875
1513.76081	17980.8875
1517.13816	16712.5875
1520.51324	14926.1875
1523.88607	13426.8875
1527.25665	12518.7875
1530.62498	12008.2875
1533.99105	11722.3875
1537.35488	11444.6875
1540.71647	11106.2875
1544.07581	10795.0875
1547.4329	10568.3875
1550.78776	10339.1875
1554.14038	10207.8875
1557.49077	10243.9875
1560.83892	10375.5875
1564.18484	10635.5875
1567.52853	10970.6875
1570.86999	11281.0875
1574.20922	11518.6875
1577.54624	11489.7875
1580.88103	11007.1875
1584.2136	10458.7875
1587.54395	10246.0875
1590.87208	10449.2875
1594.19801	11022.4875
1597.52172	11766.7875
1600.84321	12049.0875
1604.16251	11635.7875
1607.47959	10834.7875
1610.79447	10011.8875
1614.10715	9236.8875
1617.41763	8582.2875
1620.7259	8122.0875
1624.03199	7861.4875
1627.33587	7821.8875
1630.63757	7994.1875
1633.93707	8494.9875
1637.23439	9370.7875
1640.52951	10707.6875
1643.82246	12536.7875
1647.11321	14416.3875
1650.40179	15345.9875
1653.68819	14578.6875
1656.97241	12551.7875
1660.25446	10349.5875
1663.53433	8752.4875
1666.81203	7733.0875
1670.08756	7137.8875
1673.36092	6799.7875
1676.63211	6577.2875
1679.90115	6391.4875
1683.16801	6260.4875
1686.43272	6153.5875
1689.69527	6080.1875
1692.95567	6008.9875
1696.2139	5973.7875
1699.46999	5931.5875
1702.72392	5894.3875
1705.97571	5872.7875
1709.22535	5830.5875
1712.47284	5813.1875
1715.71819	5803.2875
1718.96139	5752.9875
1722.20246	5744.1875
1725.44139	5704.9875
1728.67818	5650.8875
1731.91284	5602.6875
1735.14537	5559.2875
1738.37576	5535.7875
1741.60403	5493.7875
1744.83017	5479.1875
1748.05418	5452.0875
1751.27607	5430.4875
1754.49584	5419.0875
1757.71349	5402.5875
1760.92903	5393.2875
1764.14244	5387.9875
1767.35375	5378.6875
1770.56294	5362.1875
1773.77002	5333.8875
1776.97499	5296.0875
1780.17785	5286.5875
1783.37861	5293.5875
1786.57727	5266.9875
1789.77382	5248.1875
1792.96828	5256.7875
1796.16064	5224.6875
1799.3509	5225.1875
1802.53907	5224.8875
1805.72514	5186.4875
1808.90913	5143.1875
1812.09102	5168.0875
1815.27083	5126.1875
1818.44856	5136.0875
1821.6242	5102.4875
1824.79776	5096.6875
1827.96924	5074.2875
1831.13864	5074.0875
1834.30597	5056.5875
1837.47122	5071.6875
1840.6344	5059.7875
1843.7955	5049.0875
1846.95454	5035.0875
1850.11151	5022.3875
1853.26642	5017.0875
1856.41926	5014.6875
1859.57004	4990.9875
1862.71876	4996.1875
1865.86542	4980.3875
1869.01003	4982.9875
1872.15258	4982.4875
1875.29308	4984.9875
1878.43152	4982.0875
1881.56792	4967.1875
1884.70227	4960.8875
1887.83457	4941.1875
1890.96482	4953.9875
1894.09304	4941.1875
1897.21921	4930.2875
1900.34335	4935.2875
1903.46544	4925.4875
1906.58551	4910.8875
1909.70353	4898.9875
1912.81953	4901.2875
1915.93349	4893.6875
1919.04543	4890.4875
1922.15534	4849.0875
1925.26322	4855.4875
1928.36908	4840.1875
1931.47292	4816.0875
1934.57473	4809.7875
1937.67453	4801.1875
1940.77232	4783.3875
1943.86808	4780.7875
1946.96184	4743.8875
1950.05358	4721.9875
1953.14331	4729.3875
1956.23103	4704.4875
1959.31675	4686.0875
1962.40046	4670.8875
1965.48217	4661.7875
1968.56188	4668.6875
1971.63959	4630.1875
1974.7153	4619.0875
1977.78901	4591.5875
1980.86073	4591.7875
1983.93046	4591.8875
1986.99819	4569.3875
1990.06394	4542.0875
1993.1277	4512.9875
1996.18947	4502.3875
1999.24925	4492.1875
2002.30706	4486.3875
2005.36288	4449.1875
2008.41672	4433.6875
2011.46859	4425.0875
2014.51848	4387.8875
2017.56639	4388.1875
2020.61233	4370.1875
2023.6563	4375.1875
2026.6983	4358.4875
2029.73833	4358.7875
2032.7764	4320.5875
2035.8125	4318.2875
2038.84664	4300.6875
2041.87881	4283.6875
2044.90903	4285.2875
2047.93729	4283.3875
2050.96359	4268.7875
2053.98794	4270.4875
2057.01034	4244.2875
2060.03078	4250.1875
2063.04927	4236.8875
2066.06582	4230.7875
2069.08042	4206.2875
2072.09307	4204.9875
2075.10378	4219.4875
2078.11255	4235.7875
2081.11938	4220.9875
2084.12426	4221.2875
2087.12722	4215.5875
2090.12824	4202.2875
2093.12732	4213.7875
2096.12447	4211.6875
2099.11969	4204.9875
2102.11299	4200.6875
2105.10435	4205.2875
2108.09379	4218.4875
2111.08131	4225.8875
2114.0669	4219.2875
2117.05057	4192.1875
2120.03233	4220.0875
2123.01216	4226.5875
2125.99008	4216.4875
2128.96609	4220.5875
2131.94018	4206.0875
2134.91236	4221.2875
2137.88263	4213.9875
2140.851	4217.9875
2143.81746	4205.9875
2146.78201	4199.3875
2149.74466	4216.1875
2152.7054	4209.7875
2155.66425	4206.4875
2158.6212	4189.8875
2161.57625	4181.9875
2164.52941	4187.4875
2167.48067	4179.7875
2170.43004	4169.7875
2173.37752	4176.4875
2176.32311	4180.8875
2179.26681	4169.7875
2182.20863	4159.6875
2185.14856	4173.2875
2188.08661	4174.3875
2191.02278	4163.4875
2193.95707	4160.0875
2196.88948	4141.6875
2199.82001	4141.7875
2202.74867	4138.6875
2205.67545	4144.1875
2208.60037	4137.6875
2211.52341	4112.9875
2214.44458	4095.8875
2217.36388	4083.4875
2220.28132	4092.5875
2223.1969	4077.5875
2226.11061	4072.5875
2229.02246	4053.3875
2231.93245	4051.6875
2234.84058	4046.2875
2237.74686	4048.2875
2240.65128	4034.1875
2243.55385	4048.2875
2246.45456	4020.5875
2249.35343	4022.2875
2252.25044	4011.1875
2255.14561	4018.5875
2258.03893	4003.8875
2260.93041	4008.6875
2263.82004	3989.5875
2266.70783	3980.2875
2269.59378	3978.9875
2272.4779	3966.1875
2275.36017	3952.1875
2278.24061	3945.6875
2281.11922	3948.9875
2283.996	3914.4875
2286.87094	3916.7875
2289.74405	3920.5875
2292.61534	3900.9875
2295.4848	3894.8875
2298.35243	3888.6875
2301.21824	3877.6875
2304.08223	3881.9875
2306.94439	3889.2875
2309.80474	3884.6875
2312.66327	3879.4875
2315.51999	3874.5875
2318.37489	3864.3875
2321.22797	3851.3875
2324.07925	3858.5875
2326.92871	3849.3875
2329.77637	3854.2875
2332.62222	3839.6875
2335.46626	3830.9875
2338.3085	3824.8875
2341.14893	3825.8875
2343.98756	3827.0875
2346.8244	3814.5875
2349.65943	3824.3875
2352.49267	3834.1875
2355.32411	3842.8875
2358.15376	3830.9875
2360.98161	3844.0875
2363.80768	3850.1875
2366.63195	3839.5875
2369.45444	3846.3875
2372.27514	3845.3875
2375.09405	3827.8875
2377.91118	3843.1875
2380.72652	3818.0875
2383.54009	3788.0875
2386.35187	3783.3875
2389.16188	3782.3875
2391.97011	3761.5875
2394.77657	3747.5875
2397.58125	3742.6875
2400.38416	3736.6875
2403.18529	3730.4875
2405.98466	3723.1875
2408.78226	3722.8875
2411.57809	3687.3875
2414.37216	3686.2875
2417.16446	3683.0875
2419.955	3681.9875
2422.74378	3688.6875
2425.5308	3676.9875
2428.31606	3672.6875
2431.09956	3676.0875
2433.88131	3670.0875
2436.6613	3675.4875
2439.43954	3672.7875
2442.21603	3665.1875
2444.99077	3661.6875
2447.76377	3678.7875
2450.53501	3667.4875
2453.30451	3666.9875
2456.07226	3660.3875
2458.83827	3662.6875
2461.60254	3671.5875
2464.36507	3656.5875
2467.12586	3666.0875
2469.88492	3661.2875
2472.64224	3661.7875
2475.39782	3658.9875
2478.15167	3663.1875
2480.90379	3657.1875
2483.65417	3670.5875
2486.40283	3666.4875
2489.14976	3686.9875
2491.89497	3692.0875
2494.63845	3680.2875
2497.3802	3679.6875
2500.12024	3684.7875
2502.85855	3666.9875
2505.59514	3659.8875
2508.33002	3655.1875
2511.06318	3615.9875
2513.79462	3634.0875
2516.52435	3604.0875
2519.25237	3622.1875
2521.97867	3609.6875
2524.70327	3603.8875
2527.42616	3585.5875
2530.14734	3579.6875
2532.86681	3581.4875
2535.58458	3584.6875
2538.30065	3574.1875
2541.01501	3563.6875
2543.72768	3567.6875
2546.43864	3560.9875
2549.14791	3570.5875
2551.85548	3567.2875
2554.56136	3559.9875
2557.26554	3553.9875
2559.96803	3542.6875
2562.66883	3537.3875
2565.36794	3546.8875
2568.06536	3536.9875
2570.7611	3511.9875
2573.45514	3510.8875
2576.14751	3506.2875
2578.83819	3504.2875
2581.52719	3502.3875
2584.21451	3497.3875
2586.90015	3504.1875
2589.58411	3506.1875
2592.2664	3492.4875
2594.94701	3492.7875
2597.62594	3481.6875
2600.30321	3475.2875
2602.9788	3473.7875
2605.65273	3461.0875
2608.32498	3471.5875
2610.99557	3464.8875
2613.66449	3455.7875
2616.33175	3472.0875
2618.99734	3465.4875
2621.66128	3460.7875
2624.32355	3462.1875
2626.98416	3453.6875
2629.64311	3436.5875
2632.30041	3448.6875
2634.95605	3437.4875
2637.61004	3440.1875
2640.26238	3447.4875
2642.91306	3433.8875
2645.56209	3422.9875
2648.20948	3434.2875
2650.85521	3439.6875
2653.4993	3435.0875
2656.14175	3433.7875
2658.78255	3446.8875
2661.42171	3439.0875
2664.05923	3447.1875
2666.6951	3454.0875
2669.32934	3445.1875
2671.96194	3443.0875
2674.59291	3457.7875
2677.22224	3445.5875
2679.84993	3454.5875
2682.476	3441.3875
2685.10043	3433.9875
2687.72324	3409.1875
2690.34441	3419.8875
2692.96396	3420.7875
2695.58188	3433.6875
2698.19818	3433.4875
2700.81285	3430.9875
2703.4259	3432.3875
2706.03733	3417.3875
2708.64714	3436.7875
2711.25533	3440.5875
2713.86191	3442.2875
2716.46687	3446.8875
2719.07021	3444.2875
2721.67194	3455.3875
2724.27206	3454.1875
2726.87057	3452.8875
2729.46747	3461.5875
2732.06276	3450.1875
2734.65644	3441.4875
2737.24852	3438.1875
2739.83899	3423.3875
2742.42786	3434.1875
2745.01513	3423.2875
2747.60079	3419.9875
2750.18486	3412.4875
2752.76733	3413.9875
2755.3482	3394.7875
2757.92747	3401.0875
2760.50515	3383.5875
2763.08123	3386.6875
2765.65573	3384.7875
2768.22863	3393.4875
2770.79994	3391.9875
2773.36967	3397.6875
2775.9378	3372.5875
2778.50435	3397.8875
2781.06932	3383.7875
2783.6327	3387.6875
2786.1945	3389.0875
2788.75471	3387.0875
2791.31335	3374.6875
2793.87041	3378.0875
2796.42589	3375.4875
2798.97979	3380.2875
2801.53212	3364.3875
2804.08288	3362.3875
2806.63206	3352.8875
2809.17967	3347.9875
2811.72571	3358.0875
2814.27018	3357.9875
2816.81308	3355.4875
2819.35442	3337.1875
2821.89419	3340.8875
2824.43239	3342.2875
2826.96904	3339.9875
2829.50412	3341.0875
2832.03763	3330.7875
2834.56959	3314.9875
2837.1	3325.9875
2839.62884	3344.3875
2842.15613	3320.9875
2844.68186	3343.3875
2847.20604	3336.9875
2849.72867	3331.6875
2852.24974	3332.2875
2854.76927	3347.8875
2857.28724	3325.5875
2859.80367	3335.4875
2862.31855	3342.8875
2864.83189	3333.2875
2867.34368	3326.9875
2869.85393	3337.9875
2872.36264	3342.5875
2874.8698	3343.6875
2877.37543	3335.1875
2879.87952	3325.6875
2882.38207	3315.9875
2884.88308	3322.0875
2887.38256	3328.0875
2889.88051	3318.3875
2892.37692	3322.8875
2894.8718	3335.0875
2897.36515	3338.2875
2899.85698	3317.2875
2902.34727	3330.6875
2904.83604	3322.4875
2907.32328	3340.9875
2909.809	3325.7875
2912.29319	3347.9875
2914.77587	3353.0875
2917.25702	3345.5875
2919.73665	3334.7875
2922.21476	3339.7875
2924.69136	3323.2875
2927.16644	3331.6875
2929.64	3319.9875
2932.11205	3311.3875
2934.58258	3314.0875
2937.05161	3324.2875
2939.51912	3296.1875
2941.98513	3303.3875
2944.44962	3293.1875
2946.91261	3276.1875
2949.37409	3270.8875
2951.83407	3286.9875
2954.29254	3274.5875
2956.74951	3279.8875
2959.20498	3282.0875
2961.65895	3262.8875
2964.11142	3266.1875
2966.56239	3263.7875
2969.01186	3257.5875
2971.45984	3243.8875
2973.90632	3231.1875
2976.35131	3232.4875
2978.7948	3222.2875
2981.23681	3208.9875
2983.67732	3209.8875
2986.11635	3203.3875
2988.55388	3195.9875
2990.98993	3190.7875
2993.4245	3188.0875
2995.85758	3184.6875
2998.28917	3179.5875
3000.71928	3179.6875
3003.14791	3173.2875
3005.57506	3174.1875
3008.00073	3170.2875
3010.42493	3168.5875
3012.84764	3159.7875
3015.26888	3139.8875
3017.68865	3145.2875
3020.10694	3154.7875
3022.52376	3138.5875
3024.9391	3133.1875
3027.35298	3132.8875
3029.76539	3123.2875
3032.17632	3131.3875
3034.5858	3115.8875
3036.9938	3112.5875
3039.40034	3105.7875
3041.80542	3108.1875
3044.20903	3108.0875
3046.61118	3112.6875
3049.01187	3105.8875
3051.4111	3115.6875
3053.80888	3078.2875
3056.20519	3078.9875
3058.60005	3083.6875
3060.99345	3071.4875
3063.3854	3066.2875
3065.7759	3064.9875
3068.16494	3047.4875
3070.55254	3060.1875
3072.93868	3062.1875
3075.32338	3050.0875
3077.70662	3035.4875
3080.08842	3046.8875
3082.46878	3028.3875
3084.84769	3038.2875
3087.22515	3036.6875
3089.60118	3047.3875
3091.97576	3046.2875
3094.3489	3043.3875
3096.72061	3035.0875
3099.09087	3044.9875
3101.4597	3033.4875
3103.82709	3044.2875
3106.19305	3035.0875
3108.55757	3053.7875
3110.92066	3035.6875
3113.28232	3039.8875
3115.64255	3027.0875
3118.00134	3039.9875
3120.35871	3040.0875
3122.71466	3037.7875
3125.06917	3009.7875
3127.42226	3008.9875
3129.77393	3025.9875
3132.12417	3020.6875
3134.47299	3025.7875
3136.82039	3025.7875
3139.16636	3009.2875
3141.51092	3021.5875
3143.85406	3004.3875
3146.19579	3032.0875
3148.53609	3033.0875
3150.87499	3042.7875
3153.21246	3053.2875
3155.54853	3060.9875
3157.88318	3063.1875
3160.21642	3059.1875
3162.54826	3061.3875
3164.87868	3070.2875
3167.2077	3078.3875
3169.5353	3069.4875
3171.86151	3078.5875
3174.18631	3081.3875
3176.5097	3073.2875
3178.83169	3070.9875
3181.15228	3076.9875
3183.47147	3080.1875
3185.78926	3062.2875
3188.10565	3066.5875
3190.42065	3077.0875
3192.73424	3082.5875
3195.04645	3078.2875
3197.35725	3076.6875
3199.66667	3095.7875
3201.97469	3080.1875
3204.28132	3073.8875
3206.58656	3093.8875
3208.8904	3100.1875
3211.19287	3091.8875
3213.49394	3094.8875
3215.79363	3098.4875
3218.09193	3121.1875
3220.38884	3114.0875
3222.68438	3113.6875
3224.97853	3120.0875
3227.2713	3111.1875
3229.56269	3117.5875
3231.8527	3106.6875
3234.14133	3102.1875
3236.42858	3092.3875
3238.71446	3098.3875
3240.99896	3093.3875
3243.28209	3083.3875
3245.56384	3088.5875
3247.84423	3091.2875
3250.12324	3073.4875
3252.40088	3072.2875
3254.67715	3073.5875
3256.95205	3071.8875
3259.22558	3060.8875
3261.49775	3060.8875
3263.76855	3066.8875
3266.03799	3061.9875
3268.30606	3056.5875
3270.57277	3057.3875
3272.83812	3048.7875
3275.10211	3056.2875
3277.36474	3031.6875
3279.62601	3051.1875
3281.88593	3046.4875
3284.14448	3051.6875
3286.40168	3054.6875
3288.65753	3033.3875
3290.91202	3049.6875
3293.16516	3038.5875
3295.41695	3032.7875
3297.66738	3020.8875
3299.91647	3010.8875
3302.16421	2980.4875
3304.4106	2986.0875
3306.65564	2982.7875
3308.89933	2945.7875
3311.14169	2924.8875
3313.38269	2912.6875
3315.62236	2897.3875
3317.86068	2864.2875
3320.09766	2835.9875
3322.3333	2834.6875
3324.5676	2819.0875
3326.80056	2764.4875
3329.03219	2760.4875
3331.26248	1.1875
3333.49143	-0.5125
3335.71905	0.4875
