Data from AgNP_FTO_APTES_UA_100uM_CRN_100uM_R6G_10uM_NaF_0.1M_Addition_RamanShift__31__18-23-40-603.txt Node

Date: Thu Mar 24 18:23:40 GMT 2022
User: TCL
Spectrometer: QEP01345
Trigger mode: 4
Integration Time (sec): 7.000000E0
Scans to average: 10
Electric dark correction enabled: true
Nonlinearity correction enabled: false
Boxcar width: 0
XAxis mode: Raman Shifts
Number of Pixels in Spectrum: 1044
>>>>>Begin Spectral Data<<<<<
46.04893	-0.6875
50.45542	0.2125
54.85868	-0.3875
59.25871	0.2125
63.6555	33.1125
68.04907	34.3125
72.43941	36.4125
76.82654	34.6125
81.21044	38.4125
85.59113	37.5125
89.96862	42.9125
94.34289	41.0125
98.71396	43.8125
103.08183	45.2125
107.4465	45.4125
111.80798	49.8125
116.16626	48.8125
120.52136	47.8125
124.87327	48.0125
129.222	52.8125
133.56755	54.2125
137.90993	52.3125
142.24913	61.8125
146.58517	68.0125
150.91804	79.6125
155.24774	86.8125
159.57429	113.0125
163.89768	139.6125
168.21792	187.0125
172.53501	250.2125
176.84895	351.2125
181.15975	486.1125
185.46741	679.8125
189.77193	938.6125
194.07331	1254.5125
198.37157	1630.3125
202.6667	2006.6125
206.9587	2404.5125
211.24758	2804.3125
215.53334	3208.9125
219.81599	3680.6125
224.09553	4187.4125
228.37195	4776.4125
232.64527	5396.0125
236.91549	6041.2125
241.18261	6591.5125
245.44663	7050.9125
249.70755	7433.6125
253.96539	7690.2125
258.22014	7951.9125
262.4718	8204.7125
266.72039	8369.3125
270.96589	8423.1125
275.20832	8387.9125
279.44768	8271.2125
283.68397	8164.9125
287.91719	8064.0125
292.14735	8087.4125
296.37445	8219.2125
300.59849	8502.7125
304.81948	8812.6125
309.03742	9094.6125
313.25231	9078.7125
317.46415	8776.1125
321.67296	8212.3125
325.87872	7730.9125
330.08145	7474.1125
334.28114	7420.2125
338.47781	7522.8125
342.67145	7679.2125
346.86207	7922.3125
351.04966	8278.0125
355.23424	8681.3125
359.4158	8949.3125
363.59435	9104.7125
367.76989	9131.0125
371.94243	9117.1125
376.11196	9067.3125
380.27849	9011.0125
384.44203	8913.2125
388.60257	8860.7125
392.76012	8829.0125
396.91468	8922.8125
401.06626	9115.2125
405.21485	9215.0125
409.36047	9043.5125
413.50311	8622.7125
417.64277	8197.5125
421.77947	7958.0125
425.9132	7883.3125
430.04396	7864.9125
434.17176	7915.4125
438.2966	8006.2125
442.41849	8163.0125
446.53742	8404.4125
450.6534	8635.8125
454.76644	8768.8125
458.87653	8760.5125
462.98368	8670.1125
467.08789	8552.8125
471.18916	8418.7125
475.2875	8257.3125
479.38291	8105.6125
483.4754	7962.9125
487.56496	7861.8125
491.6516	7769.7125
495.73531	7747.7125
499.81612	7729.5125
503.89401	7789.4125
507.96899	7856.7125
512.04106	7902.7125
516.11023	7990.0125
520.1765	8009.9125
524.23987	7980.8125
528.30034	7910.9125
532.35792	7808.7125
536.41261	7702.2125
540.46441	7540.0125
544.51333	7470.2125
548.55936	7540.4125
552.60252	7751.6125
556.64279	7984.0125
560.6802	8107.9125
564.71473	8223.4125
568.7464	8480.0125
572.7752	8728.7125
576.80114	8714.0125
580.82422	8642.3125
584.84444	8727.3125
588.86181	8833.7125
592.87633	8983.3125
596.888	9100.3125
600.89682	9181.7125
604.9028	9917.0125
608.90594	12236.1125
612.90624	15271.3125
616.90371	14487.0125
620.89834	10184.2125
624.89015	8154.0125
628.87913	7820.7125
632.86528	7998.2125
636.84862	8212.4125
640.82913	8058.8125
644.80683	7626.1125
648.78172	7264.5125
652.75379	7196.5125
656.72306	7447.1125
660.68952	7802.8125
664.65319	7690.0125
668.61405	7253.2125
672.57211	7067.6125
676.52738	7063.3125
680.47986	7067.4125
684.42955	6983.4125
688.37646	6920.2125
692.32058	6926.2125
696.26192	6994.3125
700.20048	7084.5125
704.13626	7187.8125
708.06928	7200.1125
711.99952	7123.0125
715.927	7117.4125
719.85171	7175.7125
723.77365	7205.3125
727.69284	7195.7125
731.60928	7103.9125
735.52295	7088.6125
739.43388	7093.1125
743.34206	7122.0125
747.24749	7141.3125
751.15017	7155.4125
755.05012	7294.6125
758.94733	7675.2125
762.8418	8648.1125
766.73354	10297.1125
770.62254	11935.8125
774.50882	12539.2125
778.39237	11774.1125
782.27321	10120.7125
786.15132	8585.5125
790.02671	7618.5125
793.89938	7166.1125
797.76935	6976.5125
801.6366	6888.8125
805.50115	6851.7125
809.36299	6817.9125
813.22213	6779.3125
817.07857	6740.7125
820.93231	6708.2125
824.78336	6681.0125
828.63172	6718.5125
832.47738	6699.2125
836.32036	6676.6125
840.16066	6640.2125
843.99827	6624.8125
847.8332	6597.9125
851.66546	6586.2125
855.49504	6587.4125
859.32195	6587.8125
863.1462	6571.0125
866.96777	6556.3125
870.78668	6540.7125
874.60293	6581.1125
878.41652	6590.1125
882.22745	6654.9125
886.03573	6710.1125
889.84136	6703.1125
893.64433	6662.3125
897.44466	6624.4125
901.24235	6617.9125
905.0374	6567.8125
908.8298	6520.3125
912.61957	6455.2125
916.40671	6487.4125
920.19121	6563.9125
923.97308	6647.0125
927.75233	6731.5125
931.52895	6742.0125
935.30295	6646.3125
939.07433	6429.1125
942.84309	6269.1125
946.60924	6165.4125
950.37278	6115.4125
954.13371	6088.0125
957.89203	6053.9125
961.64774	6045.9125
965.40086	6038.0125
969.15137	6021.6125
972.89929	5997.3125
976.64461	5974.3125
980.38733	5965.7125
984.12747	5959.2125
987.86502	6009.7125
991.59999	6059.2125
995.33237	6120.9125
999.06217	6275.1125
1002.78939	6447.4125
1006.51404	6656.6125
1010.23611	6825.9125
1013.95561	6908.2125
1017.67255	6896.2125
1021.38692	6780.3125
1025.09872	6613.1125
1028.80796	6532.9125
1032.51465	6546.7125
1036.21877	6613.8125
1039.92035	6664.1125
1043.61937	6673.9125
1047.31584	6661.2125
1051.00976	6647.3125
1054.70114	6637.5125
1058.38998	6652.3125
1062.07627	6695.2125
1065.76003	6742.0125
1069.44126	6808.4125
1073.11995	6934.3125
1076.79611	7050.4125
1080.46974	7201.7125
1084.14085	7389.1125
1087.80943	7609.8125
1091.47549	7687.7125
1095.13903	7592.9125
1098.80005	7326.8125
1102.45857	7083.0125
1106.11456	6974.1125
1109.76805	7025.7125
1113.41903	7204.6125
1117.06751	7469.5125
1120.71348	7847.6125
1124.35696	8242.4125
1127.99793	8551.8125
1131.63641	8509.0125
1135.2724	8137.7125
1138.90589	7783.0125
1142.5369	7536.2125
1146.16542	7367.4125
1149.79145	7257.7125
1153.415	7248.5125
1157.03607	7352.7125
1160.65467	7547.0125
1164.27079	7914.8125
1167.88443	8481.0125
1171.49561	9330.8125
1175.10432	10572.8125
1178.71056	12247.9125
1182.31434	13662.4125
1185.91565	14116.5125
1189.51451	13655.4125
1193.11091	12757.6125
1196.70485	11700.9125
1200.29634	10854.4125
1203.88538	10190.4125
1207.47197	9514.2125
1211.05612	8896.1125
1214.63782	8472.6125
1218.21708	8304.6125
1221.79391	8258.2125
1225.36829	8269.9125
1228.94024	8220.1125
1232.50976	8066.9125
1236.07685	7968.3125
1239.6415	7894.7125
1243.20374	7893.8125
1246.76355	7937.1125
1250.32093	8027.8125
1253.8759	8191.6125
1257.42845	8463.7125
1260.97859	8803.9125
1264.52631	9201.9125
1268.07163	9609.1125
1271.61453	9961.5125
1275.15503	10255.2125
1278.69312	10480.9125
1282.22882	10712.2125
1285.76211	11061.2125
1289.29301	11558.5125
1292.82151	12102.7125
1296.34761	12745.6125
1299.87133	13658.6125
1303.39266	15065.6125
1306.9116	16902.3125
1310.42815	18756.2125
1313.94233	19564.7125
1317.45412	18823.2125
1320.96354	17382.7125
1324.47058	15969.1125
1327.97525	14776.9125
1331.47754	13934.6125
1334.97747	13532.9125
1338.47502	13429.9125
1341.97022	13701.1125
1345.46305	14232.8125
1348.95352	15077.8125
1352.44163	16242.5125
1355.92738	17975.3125
1359.41078	20659.4125
1362.89183	23149.0125
1366.37053	22525.7125
1369.84688	18782.6125
1373.32088	15153.2125
1376.79254	13014.8125
1380.26186	11919.3125
1383.72883	11297.4125
1387.19347	10810.5125
1390.65578	10373.8125
1394.11575	10090.5125
1397.57339	9977.2125
1401.0287	9999.6125
1404.48168	10014.0125
1407.93234	9936.6125
1411.38068	9842.9125
1414.82669	9680.6125
1418.27039	9441.2125
1421.71177	9185.1125
1425.15083	8899.6125
1428.58758	8752.6125
1432.02203	8830.8125
1435.45416	9011.0125
1438.88399	9163.4125
1442.31151	9237.1125
1445.73673	9303.6125
1449.15965	9431.5125
1452.58027	9482.5125
1455.9986	9461.7125
1459.41463	9526.2125
1462.82837	9733.7125
1466.23982	10042.7125
1469.64898	10407.4125
1473.05586	10644.1125
1476.46045	10805.3125
1479.86276	10965.0125
1483.26279	11157.6125
1486.66054	11459.1125
1490.05602	11879.6125
1493.44922	12580.2125
1496.84016	13599.3125
1500.22882	15254.6125
1503.61521	17509.2125
1506.99934	19990.2125
1510.38121	21625.5125
1513.76081	21539.5125
1517.13816	19578.8125
1520.51324	16773.5125
1523.88607	14446.6125
1527.25665	12986.1125
1530.62498	12224.3125
1533.99105	11734.2125
1537.35488	11341.9125
1540.71647	10977.8125
1544.07581	10665.4125
1547.4329	10427.7125
1550.78776	10253.0125
1554.14038	10207.3125
1557.49077	10307.1125
1560.83892	10478.0125
1564.18484	10876.9125
1567.52853	11412.5125
1570.86999	11816.8125
1574.20922	12109.9125
1577.54624	12045.8125
1580.88103	11370.8125
1584.2136	10498.2125
1587.54395	10092.8125
1590.87208	10219.1125
1594.19801	10829.2125
1597.52172	11644.2125
1600.84321	11946.3125
1604.16251	11428.7125
1607.47959	10576.9125
1610.79447	9716.4125
1614.10715	8925.5125
1617.41763	8247.7125
1620.7259	7753.5125
1624.03199	7515.2125
1627.33587	7501.8125
1630.63757	7716.5125
1633.93707	8248.6125
1637.23439	9198.7125
1640.52951	10701.7125
1643.82246	12853.7125
1647.11321	15113.7125
1650.40179	16395.8125
1653.68819	15644.6125
1656.97241	13198.3125
1660.25446	10542.6125
1663.53433	8621.8125
1666.81203	7498.6125
1670.08756	6807.9125
1673.36092	6388.4125
1676.63211	6139.8125
1679.90115	5943.9125
1683.16801	5787.5125
1686.43272	5702.5125
1689.69527	5597.2125
1692.95567	5543.3125
1696.2139	5508.4125
1699.46999	5466.5125
1702.72392	5432.5125
1705.97571	5396.4125
1709.22535	5370.5125
1712.47284	5362.0125
1715.71819	5353.1125
1718.96139	5298.7125
1722.20246	5263.7125
1725.44139	5253.3125
1728.67818	5201.0125
1731.91284	5146.2125
1735.14537	5094.9125
1738.37576	5066.1125
1741.60403	5042.4125
1744.83017	5029.2125
1748.05418	4988.6125
1751.27607	4976.3125
1754.49584	4961.2125
1757.71349	4927.7125
1760.92903	4920.0125
1764.14244	4920.7125
1767.35375	4900.9125
1770.56294	4886.7125
1773.77002	4870.7125
1776.97499	4834.6125
1780.17785	4807.2125
1783.37861	4788.5125
1786.57727	4790.5125
1789.77382	4769.4125
1792.96828	4772.3125
1796.16064	4750.2125
1799.3509	4743.9125
1802.53907	4726.6125
1805.72514	4702.0125
1808.90913	4689.7125
1812.09102	4667.3125
1815.27083	4658.5125
1818.44856	4643.3125
1821.6242	4624.1125
1824.79776	4604.9125
1827.96924	4601.1125
1831.13864	4592.8125
1834.30597	4567.3125
1837.47122	4577.7125
1840.6344	4574.0125
1843.7955	4571.0125
1846.95454	4540.1125
1850.11151	4558.1125
1853.26642	4552.7125
1856.41926	4533.5125
1859.57004	4506.4125
1862.71876	4530.4125
1865.86542	4514.9125
1869.01003	4516.5125
1872.15258	4505.5125
1875.29308	4508.1125
1878.43152	4504.4125
1881.56792	4502.1125
1884.70227	4497.7125
1887.83457	4494.5125
1890.96482	4493.0125
1894.09304	4473.6125
1897.21921	4486.5125
1900.34335	4481.6125
1903.46544	4444.7125
1906.58551	4446.3125
1909.70353	4443.4125
1912.81953	4454.7125
1915.93349	4431.6125
1919.04543	4417.5125
1922.15534	4420.3125
1925.26322	4388.7125
1928.36908	4385.2125
1931.47292	4375.2125
1934.57473	4354.1125
1937.67453	4350.0125
1940.77232	4319.9125
1943.86808	4315.7125
1946.96184	4306.3125
1950.05358	4288.8125
1953.14331	4275.8125
1956.23103	4256.0125
1959.31675	4243.8125
1962.40046	4256.0125
1965.48217	4217.0125
1968.56188	4206.9125
1971.63959	4210.4125
1974.7153	4200.6125
1977.78901	4193.4125
1980.86073	4161.1125
1983.93046	4134.4125
1986.99819	4116.8125
1990.06394	4104.4125
1993.1277	4091.8125
1996.18947	4083.2125
1999.24925	4074.8125
2002.30706	4037.8125
2005.36288	4032.3125
2008.41672	4005.9125
2011.46859	3993.0125
2014.51848	3984.9125
2017.56639	3974.0125
2020.61233	3975.6125
2023.6563	3959.0125
2026.6983	3946.7125
2029.73833	3934.4125
2032.7764	3915.3125
2035.8125	3912.9125
2038.84664	3899.5125
2041.87881	3912.0125
2044.90903	3888.7125
2047.93729	3878.4125
2050.96359	3883.1125
2053.98794	3866.8125
2057.01034	3856.0125
2060.03078	3844.9125
2063.04927	3834.2125
2066.06582	3846.5125
2069.08042	3821.0125
2072.09307	3836.7125
2075.10378	3814.8125
2078.11255	3820.5125
2081.11938	3838.2125
2084.12426	3833.0125
2087.12722	3834.7125
2090.12824	3814.8125
2093.12732	3816.8125
2096.12447	3816.7125
2099.11969	3815.4125
2102.11299	3816.7125
2105.10435	3811.3125
2108.09379	3832.0125
2111.08131	3833.0125
2114.0669	3823.2125
2117.05057	3834.9125
2120.03233	3838.7125
2123.01216	3837.7125
2125.99008	3832.2125
2128.96609	3849.3125
2131.94018	3841.4125
2134.91236	3829.8125
2137.88263	3827.0125
2140.851	3838.8125
2143.81746	3838.1125
2146.78201	3832.5125
2149.74466	3818.7125
2152.7054	3816.2125
2155.66425	3812.6125
2158.6212	3815.4125
2161.57625	3798.9125
2164.52941	3811.0125
2167.48067	3787.6125
2170.43004	3794.3125
2173.37752	3795.0125
2176.32311	3793.9125
2179.26681	3797.1125
2182.20863	3793.9125
2185.14856	3790.4125
2188.08661	3794.2125
2191.02278	3789.5125
2193.95707	3779.8125
2196.88948	3767.2125
2199.82001	3768.8125
2202.74867	3770.8125
2205.67545	3772.6125
2208.60037	3763.6125
2211.52341	3746.5125
2214.44458	3742.6125
2217.36388	3737.1125
2220.28132	3732.8125
2223.1969	3722.2125
2226.11061	3733.4125
2229.02246	3719.0125
2231.93245	3706.4125
2234.84058	3687.6125
2237.74686	3692.2125
2240.65128	3695.6125
2243.55385	3684.9125
2246.45456	3681.9125
2249.35343	3667.4125
2252.25044	3678.0125
2255.14561	3663.8125
2258.03893	3670.0125
2260.93041	3666.5125
2263.82004	3653.9125
2266.70783	3660.3125
2269.59378	3638.4125
2272.4779	3623.6125
2275.36017	3617.4125
2278.24061	3611.0125
2281.11922	3608.9125
2283.996	3588.4125
2286.87094	3585.0125
2289.74405	3583.2125
2292.61534	3565.1125
2295.4848	3569.3125
2298.35243	3553.6125
2301.21824	3556.8125
2304.08223	3560.4125
2306.94439	3552.9125
2309.80474	3566.8125
2312.66327	3560.4125
2315.51999	3562.8125
2318.37489	3551.0125
2321.22797	3539.2125
2324.07925	3548.6125
2326.92871	3540.8125
2329.77637	3537.4125
2332.62222	3535.9125
2335.46626	3518.1125
2338.3085	3524.4125
2341.14893	3517.0125
2343.98756	3539.8125
2346.8244	3533.0125
2349.65943	3544.3125
2352.49267	3555.1125
2355.32411	3549.1125
2358.15376	3559.3125
2360.98161	3547.4125
2363.80768	3568.1125
2366.63195	3574.1125
2369.45444	3572.6125
2372.27514	3581.1125
2375.09405	3556.1125
2377.91118	3554.2125
2380.72652	3536.5125
2383.54009	3517.0125
2386.35187	3510.4125
2389.16188	3491.4125
2391.97011	3480.6125
2394.77657	3466.0125
2397.58125	3459.7125
2400.38416	3441.1125
2403.18529	3441.7125
2405.98466	3426.8125
2408.78226	3420.4125
2411.57809	3402.9125
2414.37216	3412.7125
2417.16446	3405.2125
2419.955	3396.7125
2422.74378	3406.2125
2425.5308	3386.1125
2428.31606	3386.0125
2431.09956	3394.9125
2433.88131	3392.8125
2436.6613	3394.4125
2439.43954	3393.7125
2442.21603	3393.2125
2444.99077	3388.3125
2447.76377	3403.7125
2450.53501	3407.8125
2453.30451	3406.8125
2456.07226	3391.9125
2458.83827	3397.6125
2461.60254	3399.6125
2464.36507	3411.9125
2467.12586	3391.8125
2469.88492	3383.4125
2472.64224	3402.1125
2475.39782	3406.9125
2478.15167	3412.5125
2480.90379	3420.5125
2483.65417	3429.5125
2486.40283	3437.6125
2489.14976	3451.6125
2491.89497	3452.9125
2494.63845	3458.3125
2497.3802	3433.8125
2500.12024	3444.7125
2502.85855	3446.9125
2505.59514	3432.8125
2508.33002	3406.5125
2511.06318	3392.7125
2513.79462	3373.0125
2516.52435	3367.9125
2519.25237	3358.3125
2521.97867	3356.5125
2524.70327	3344.0125
2527.42616	3322.4125
2530.14734	3336.8125
2532.86681	3316.7125
2535.58458	3331.0125
2538.30065	3312.7125
2541.01501	3334.2125
2543.72768	3315.4125
2546.43864	3335.4125
2549.14791	3321.0125
2551.85548	3324.6125
2554.56136	3317.7125
2557.26554	3318.0125
2559.96803	3306.8125
2562.66883	3308.3125
2565.36794	3307.6125
2568.06536	3295.2125
2570.7611	3300.1125
2573.45514	3279.9125
2576.14751	3273.5125
2578.83819	3265.4125
2581.52719	3259.0125
2584.21451	3274.4125
2586.90015	3267.5125
2589.58411	3255.6125
2592.2664	3253.8125
2594.94701	3263.7125
2597.62594	3258.2125
2600.30321	3257.5125
2602.9788	3253.3125
2605.65273	3240.0125
2608.32498	3255.9125
2610.99557	3251.6125
2613.66449	3248.1125
2616.33175	3250.0125
2618.99734	3246.8125
2621.66128	3252.5125
2624.32355	3254.0125
2626.98416	3245.3125
2629.64311	3243.0125
2632.30041	3238.8125
2634.95605	3225.7125
2637.61004	3238.2125
2640.26238	3220.7125
2642.91306	3231.4125
2645.56209	3215.7125
2648.20948	3234.1125
2650.85521	3228.0125
2653.4993	3218.3125
2656.14175	3226.3125
2658.78255	3236.9125
2661.42171	3228.0125
2664.05923	3241.0125
2666.6951	3241.9125
2669.32934	3252.0125
2671.96194	3244.5125
2674.59291	3245.3125
2677.22224	3237.1125
2679.84993	3231.3125
2682.476	3223.0125
2685.10043	3225.2125
2687.72324	3221.6125
2690.34441	3238.3125
2692.96396	3244.6125
2695.58188	3222.3125
2698.19818	3212.6125
2700.81285	3225.3125
2703.4259	3208.9125
2706.03733	3206.2125
2708.64714	3224.8125
2711.25533	3230.6125
2713.86191	3230.7125
2716.46687	3242.0125
2719.07021	3241.6125
2721.67194	3259.5125
2724.27206	3249.9125
2726.87057	3239.2125
2729.46747	3247.8125
2732.06276	3247.6125
2734.65644	3227.8125
2737.24852	3245.5125
2739.83899	3205.7125
2742.42786	3218.9125
2745.01513	3217.0125
2747.60079	3216.0125
2750.18486	3195.0125
2752.76733	3189.1125
2755.3482	3196.5125
2757.92747	3185.6125
2760.50515	3179.9125
2763.08123	3188.3125
2765.65573	3185.0125
2768.22863	3185.0125
2770.79994	3181.0125
2773.36967	3191.6125
2775.9378	3173.5125
2778.50435	3183.2125
2781.06932	3176.0125
2783.6327	3177.5125
2786.1945	3181.2125
2788.75471	3174.3125
2791.31335	3190.6125
2793.87041	3184.2125
2796.42589	3178.6125
2798.97979	3169.9125
2801.53212	3172.9125
2804.08288	3170.7125
2806.63206	3154.0125
2809.17967	3168.3125
2811.72571	3162.3125
2814.27018	3166.3125
2816.81308	3155.6125
2819.35442	3159.4125
2821.89419	3154.4125
2824.43239	3171.3125
2826.96904	3166.9125
2829.50412	3151.4125
2832.03763	3163.1125
2834.56959	3149.3125
2837.1	3153.1125
2839.62884	3161.1125
2842.15613	3161.4125
2844.68186	3173.8125
2847.20604	3172.5125
2849.72867	3182.5125
2852.24974	3173.0125
2854.76927	3183.0125
2857.28724	3171.8125
2859.80367	3184.1125
2862.31855	3190.2125
2864.83189	3188.5125
2867.34368	3183.7125
2869.85393	3196.4125
2872.36264	3190.7125
2874.8698	3197.6125
2877.37543	3192.9125
2879.87952	3188.0125
2882.38207	3189.5125
2884.88308	3172.2125
2887.38256	3187.1125
2889.88051	3175.3125
2892.37692	3173.0125
2894.8718	3190.8125
2897.36515	3192.9125
2899.85698	3183.0125
2902.34727	3199.9125
2904.83604	3187.2125
2907.32328	3187.5125
2909.809	3204.1125
2912.29319	3199.0125
2914.77587	3203.0125
2917.25702	3194.2125
2919.73665	3198.0125
2922.21476	3189.1125
2924.69136	3189.4125
2927.16644	3188.4125
2929.64	3186.5125
2932.11205	3161.4125
2934.58258	3147.4125
2937.05161	3157.2125
2939.51912	3148.6125
2941.98513	3147.5125
2944.44962	3139.1125
2946.91261	3131.7125
2949.37409	3126.3125
2951.83407	3129.7125
2954.29254	3127.7125
2956.74951	3120.7125
2959.20498	3122.7125
2961.65895	3121.3125
2964.11142	3119.9125
2966.56239	3106.6125
2969.01186	3104.3125
2971.45984	3100.3125
2973.90632	3095.3125
2976.35131	3068.7125
2978.7948	3052.8125
2981.23681	3064.0125
2983.67732	3062.3125
2986.11635	3042.4125
2988.55388	3036.3125
2990.98993	3048.3125
2993.4245	3034.5125
2995.85758	3048.9125
2998.28917	3022.4125
3000.71928	3029.2125
3003.14791	3031.8125
3005.57506	3026.8125
3008.00073	3020.8125
3010.42493	3025.7125
3012.84764	3012.9125
3015.26888	3011.1125
3017.68865	3000.7125
3020.10694	3003.8125
3022.52376	2989.9125
3024.9391	2984.7125
3027.35298	2985.0125
3029.76539	2985.4125
3032.17632	2985.7125
3034.5858	2967.1125
3036.9938	2963.5125
3039.40034	2958.7125
3041.80542	2958.3125
3044.20903	2954.1125
3046.61118	2967.3125
3049.01187	2951.9125
3051.4111	2964.9125
3053.80888	2938.4125
3056.20519	2937.4125
3058.60005	2945.2125
3060.99345	2939.4125
3063.3854	2917.6125
3065.7759	2908.9125
3068.16494	2920.4125
3070.55254	2914.7125
3072.93868	2900.4125
3075.32338	2896.4125
3077.70662	2893.6125
3080.08842	2888.3125
3082.46878	2894.0125
3084.84769	2876.9125
3087.22515	2895.6125
3089.60118	2901.3125
3091.97576	2900.6125
3094.3489	2904.1125
3096.72061	2901.5125
3099.09087	2907.5125
3101.4597	2898.2125
3103.82709	2902.0125
3106.19305	2891.9125
3108.55757	2901.6125
3110.92066	2900.7125
3113.28232	2892.6125
3115.64255	2900.8125
3118.00134	2884.0125
3120.35871	2878.5125
3122.71466	2892.0125
3125.06917	2889.7125
3127.42226	2876.7125
3129.77393	2881.6125
3132.12417	2873.4125
3134.47299	2888.7125
3136.82039	2889.2125
3139.16636	2886.7125
3141.51092	2883.5125
3143.85406	2886.6125
3146.19579	2890.0125
3148.53609	2906.7125
3150.87499	2909.0125
3153.21246	2916.0125
3155.54853	2922.1125
3157.88318	2930.1125
3160.21642	2936.1125
3162.54826	2933.2125
3164.87868	2941.7125
3167.2077	2941.7125
3169.5353	2944.1125
3171.86151	2955.0125
3174.18631	2949.2125
3176.5097	2950.4125
3178.83169	2938.3125
3181.15228	2949.3125
3183.47147	2940.5125
3185.78926	2952.1125
3188.10565	2942.0125
3190.42065	2948.1125
3192.73424	2950.4125
3195.04645	2951.6125
3197.35725	2951.1125
3199.66667	2963.8125
3201.97469	2970.6125
3204.28132	2969.8125
3206.58656	2981.4125
3208.8904	2974.7125
3211.19287	2984.3125
3213.49394	2975.3125
3215.79363	2992.7125
3218.09193	2999.6125
3220.38884	2994.5125
3222.68438	3008.3125
3224.97853	3002.9125
3227.2713	2996.4125
3229.56269	3003.7125
3231.8527	3009.9125
3234.14133	3003.9125
3236.42858	2999.6125
3238.71446	2991.6125
3240.99896	2977.0125
3243.28209	2982.3125
3245.56384	2973.0125
3247.84423	2976.7125
3250.12324	2976.0125
3252.40088	2977.0125
3254.67715	2982.2125
3256.95205	2984.6125
3259.22558	2978.8125
3261.49775	2971.8125
3263.76855	2972.5125
3266.03799	2968.5125
3268.30606	2974.8125
3270.57277	2960.5125
3272.83812	2968.9125
3275.10211	2963.7125
3277.36474	2964.8125
3279.62601	2968.7125
3281.88593	2958.5125
3284.14448	2963.0125
3286.40168	2973.9125
3288.65753	2970.4125
3290.91202	2966.0125
3293.16516	2960.8125
3295.41695	2965.6125
3297.66738	2933.6125
3299.91647	2919.9125
3302.16421	2916.8125
3304.4106	2907.4125
3306.65564	2894.9125
3308.89933	2883.9125
3311.14169	2855.0125
3313.38269	2830.8125
3315.62236	2830.2125
3317.86068	2798.9125
3320.09766	2782.4125
3322.3333	2757.2125
3324.5676	2744.0125
3326.80056	2702.2125
3329.03219	2695.7125
3331.26248	1.1125
3333.49143	-1.0875
3335.71905	-0.3875
