Data from AgNP_FTO_APTES_UA_100uM_CRN_50uM_R6G_10uM_NaF_0.1M_Addition_RamanShift__9__17-18-20-531.txt Node

Date: Thu Mar 24 17:18:20 GMT 2022
User: TCL
Spectrometer: QEP01345
Trigger mode: 4
Integration Time (sec): 7.000000E0
Scans to average: 10
Electric dark correction enabled: true
Nonlinearity correction enabled: false
Boxcar width: 0
XAxis mode: Raman Shifts
Number of Pixels in Spectrum: 1044
>>>>>Begin Spectral Data<<<<<
46.04893	-2.2375
50.45542	-0.4375
54.85868	-0.4375
59.25871	0.0625
63.6555	37.7625
68.04907	42.3625
72.43941	40.7625
76.82654	42.2625
81.21044	45.5625
85.59113	48.7625
89.96862	51.4625
94.34289	49.3625
98.71396	53.8625
103.08183	52.6625
107.4465	54.9625
111.80798	58.5625
116.16626	56.9625
120.52136	57.8625
124.87327	59.3625
129.222	65.2625
133.56755	71.7625
137.90993	74.1625
142.24913	85.0625
146.58517	91.2625
150.91804	107.8625
155.24774	131.6625
159.57429	162.5625
163.89768	214.6625
168.21792	282.1625
172.53501	392.6625
176.84895	539.9625
181.15975	780.7625
185.46741	1088.6625
189.77193	1508.6625
194.07331	2022.9625
198.37157	2603.1625
202.6667	3224.8625
206.9587	3843.0625
211.24758	4470.7625
215.53334	5075.7625
219.81599	5751.0625
224.09553	6490.4625
228.37195	7311.5625
232.64527	8230.1625
236.91549	9185.0625
241.18261	10099.0625
245.44663	10950.9625
249.70755	11645.6625
253.96539	12288.2625
258.22014	12781.1625
262.4718	13200.2625
266.72039	13460.3625
270.96589	13642.3625
275.20832	13671.9625
279.44768	13573.9625
283.68397	13400.4625
287.91719	13278.6625
292.14735	13237.9625
296.37445	13276.3625
300.59849	13412.8625
304.81948	13582.5625
309.03742	13716.1625
313.25231	13679.8625
317.46415	13457.1625
321.67296	13124.8625
325.87872	12808.3625
330.08145	12623.9625
334.28114	12654.8625
338.47781	12779.3625
342.67145	12981.0625
346.86207	13204.5625
351.04966	13553.1625
355.23424	13823.5625
359.4158	14074.3625
363.59435	14203.7625
367.76989	14267.5625
371.94243	14330.6625
376.11196	14373.8625
380.27849	14389.3625
384.44203	14401.5625
388.60257	14463.9625
392.76012	14553.3625
396.91468	14707.8625
401.06626	14932.5625
405.21485	15045.3625
409.36047	14923.9625
413.50311	14542.9625
417.64277	14245.8625
421.77947	14139.8625
425.9132	14145.0625
430.04396	14215.6625
434.17176	14327.2625
438.2966	14504.6625
442.41849	14751.5625
446.53742	15176.0625
450.6534	15519.3625
454.76644	15791.0625
458.87653	15800.8625
462.98368	15691.5625
467.08789	15524.8625
471.18916	15360.4625
475.2875	15141.7625
479.38291	14982.9625
483.4754	14813.6625
487.56496	14640.9625
491.6516	14528.8625
495.73531	14377.7625
499.81612	14355.4625
503.89401	14461.9625
507.96899	14487.3625
512.04106	14540.2625
516.11023	14546.9625
520.1765	14509.7625
524.23987	14497.8625
528.30034	14447.1625
532.35792	14393.2625
536.41261	14287.6625
540.46441	14120.1625
544.51333	14087.6625
548.55936	14166.5625
552.60252	14414.9625
556.64279	14727.6625
560.6802	14963.3625
564.71473	15060.0625
568.7464	15219.5625
572.7752	15533.6625
576.80114	15763.2625
580.82422	15917.2625
584.84444	16172.0625
588.86181	16615.2625
592.87633	17163.1625
596.888	17559.3625
600.89682	17475.7625
604.9028	17711.1625
608.90594	19224.4625
612.90624	21332.2625
616.90371	20258.8625
620.89834	16587.9625
624.89015	14843.6625
628.87913	14588.0625
632.86528	14823.1625
636.84862	14986.8625
640.82913	14838.0625
644.80683	14395.4625
648.78172	14072.5625
652.75379	13988.4625
656.72306	14211.9625
660.68952	14505.3625
664.65319	14435.8625
668.61405	14067.7625
672.57211	13911.1625
676.52738	13974.5625
680.47986	13949.7625
684.42955	13857.5625
688.37646	13807.4625
692.32058	13834.3625
696.26192	13927.4625
700.20048	14109.9625
704.13626	14221.3625
708.06928	14238.4625
711.99952	14183.4625
715.927	14144.3625
719.85171	14193.6625
723.77365	14184.4625
727.69284	14135.4625
731.60928	14033.5625
735.52295	14046.7625
739.43388	14064.5625
743.34206	14106.2625
747.24749	14145.4625
751.15017	14194.4625
755.05012	14347.1625
758.94733	14756.0625
762.8418	15663.2625
766.73354	17218.1625
770.62254	18681.0625
774.50882	19078.7625
778.39237	18251.4625
782.27321	16754.9625
786.15132	15410.9625
790.02671	14561.2625
793.89938	14096.7625
797.76935	13866.0625
801.6366	13785.4625
805.50115	13734.6625
809.36299	13676.8625
813.22213	13653.5625
817.07857	13622.2625
820.93231	13635.7625
824.78336	13586.5625
828.63172	13559.7625
832.47738	13534.2625
836.32036	13541.7625
840.16066	13495.5625
843.99827	13513.9625
847.8332	13484.3625
851.66546	13505.3625
855.49504	13503.6625
859.32195	13495.0625
863.1462	13493.2625
866.96777	13488.2625
870.78668	13489.5625
874.60293	13516.8625
878.41652	13494.8625
882.22745	13579.8625
886.03573	13631.8625
889.84136	13645.7625
893.64433	13577.5625
897.44466	13550.4625
901.24235	13479.8625
905.0374	13418.5625
908.8298	13411.1625
912.61957	13350.8625
916.40671	13416.5625
920.19121	13548.9625
923.97308	13647.4625
927.75233	13632.4625
931.52895	13564.3625
935.30295	13401.1625
939.07433	13161.5625
942.84309	12996.4625
946.60924	12882.1625
950.37278	12859.2625
954.13371	12849.5625
957.89203	12800.5625
961.64774	12823.0625
965.40086	12824.1625
969.15137	12796.4625
972.89929	12746.2625
976.64461	12706.8625
980.38733	12688.0625
984.12747	12687.4625
987.86502	12766.7625
991.59999	12789.7625
995.33237	12894.3625
999.06217	13053.1625
1002.78939	13286.3625
1006.51404	13540.2625
1010.23611	13800.4625
1013.95561	13907.0625
1017.67255	13899.0625
1021.38692	13738.6625
1025.09872	13522.2625
1028.80796	13314.8625
1032.51465	13194.0625
1036.21877	13201.5625
1039.92035	13247.6625
1043.61937	13272.8625
1047.31584	13382.7625
1051.00976	13441.1625
1054.70114	13480.7625
1058.38998	13518.3625
1062.07627	13577.6625
1065.76003	13711.0625
1069.44126	13861.0625
1073.11995	14028.4625
1076.79611	14234.8625
1080.46974	14383.1625
1084.14085	14532.7625
1087.80943	14669.6625
1091.47549	14802.5625
1095.13903	14790.0625
1098.80005	14545.6625
1102.45857	14302.8625
1106.11456	14133.8625
1109.76805	14077.2625
1113.41903	14178.1625
1117.06751	14391.0625
1120.71348	14668.5625
1124.35696	15004.1625
1127.99793	15263.1625
1131.63641	15304.7625
1135.2724	15085.8625
1138.90589	14866.0625
1142.5369	14682.4625
1146.16542	14644.3625
1149.79145	14597.0625
1153.415	14645.8625
1157.03607	14705.9625
1160.65467	14972.1625
1164.27079	15398.8625
1167.88443	16032.6625
1171.49561	16994.7625
1175.10432	18424.2625
1178.71056	20104.8625
1182.31434	21605.0625
1185.91565	22132.0625
1189.51451	21740.7625
1193.11091	20994.9625
1196.70485	20134.3625
1200.29634	19245.3625
1203.88538	18482.5625
1207.47197	17784.3625
1211.05612	17179.3625
1214.63782	16742.2625
1218.21708	16535.7625
1221.79391	16427.0625
1225.36829	16425.7625
1228.94024	16351.9625
1232.50976	16094.4625
1236.07685	15787.4625
1239.6415	15656.5625
1243.20374	15660.0625
1246.76355	15676.2625
1250.32093	15765.9625
1253.8759	15970.4625
1257.42845	16284.3625
1260.97859	16706.6625
1264.52631	17119.1625
1268.07163	17578.7625
1271.61453	17969.8625
1275.15503	18309.1625
1278.69312	18601.7625
1282.22882	18952.9625
1285.76211	19527.0625
1289.29301	20192.9625
1292.82151	20992.6625
1296.34761	21933.4625
1299.87133	23076.7625
1303.39266	24527.3625
1306.9116	26236.4625
1310.42815	27863.0625
1313.94233	28680.3625
1317.45412	28336.0625
1320.96354	27333.8625
1324.47058	26212.9625
1327.97525	25072.2625
1331.47754	24248.7625
1334.97747	23722.0625
1338.47502	23525.7625
1341.97022	23738.7625
1345.46305	24153.9625
1348.95352	24820.6625
1352.44163	25612.7625
1355.92738	26985.6625
1359.41078	28973.4625
1362.89183	30891.9625
1366.37053	30540.9625
1369.84688	27410.7625
1373.32088	23800.4625
1376.79254	21543.4625
1380.26186	20464.8625
1383.72883	20019.4625
1387.19347	19646.2625
1390.65578	19257.8625
1394.11575	18981.5625
1397.57339	18880.8625
1401.0287	18903.7625
1404.48168	19000.0625
1407.93234	18868.3625
1411.38068	18586.9625
1414.82669	18227.9625
1418.27039	17718.9625
1421.71177	17203.1625
1425.15083	16713.6625
1428.58758	16450.2625
1432.02203	16483.3625
1435.45416	16719.2625
1438.88399	16977.9625
1442.31151	17184.1625
1445.73673	17350.1625
1449.15965	17488.5625
1452.58027	17567.3625
1455.9986	17519.4625
1459.41463	17602.5625
1462.82837	17859.9625
1466.23982	18291.1625
1469.64898	18760.4625
1473.05586	19138.0625
1476.46045	19440.1625
1479.86276	19596.8625
1483.26279	19736.0625
1486.66054	19890.6625
1490.05602	20255.9625
1493.44922	20847.6625
1496.84016	21603.1625
1500.22882	22810.0625
1503.61521	24390.0625
1506.99934	26034.5625
1510.38121	27020.5625
1513.76081	26872.6625
1517.13816	25516.9625
1520.51324	23583.5625
1523.88607	22079.6625
1527.25665	21191.9625
1530.62498	20780.9625
1533.99105	20474.4625
1537.35488	20084.2625
1540.71647	19645.4625
1544.07581	19041.2625
1547.4329	18574.7625
1550.78776	18173.8625
1554.14038	17863.8625
1557.49077	17812.4625
1560.83892	17940.5625
1564.18484	18178.6625
1567.52853	18564.9625
1570.86999	18972.7625
1574.20922	19332.7625
1577.54624	19389.3625
1580.88103	18909.8625
1584.2136	18281.3625
1587.54395	18135.8625
1590.87208	18533.5625
1594.19801	19442.4625
1597.52172	20546.2625
1600.84321	20948.9625
1604.16251	20271.1625
1607.47959	19071.7625
1610.79447	17780.9625
1614.10715	16560.5625
1617.41763	15552.3625
1620.7259	14845.7625
1624.03199	14420.8625
1627.33587	14387.7625
1630.63757	14634.2625
1633.93707	15312.7625
1637.23439	16643.7625
1640.52951	18668.3625
1643.82246	21363.0625
1647.11321	23876.6625
1650.40179	24851.8625
1653.68819	23458.2625
1656.97241	20513.3625
1660.25446	17501.2625
1663.53433	15339.0625
1666.81203	13954.9625
1670.08756	13137.8625
1673.36092	12607.6625
1676.63211	12276.8625
1679.90115	12029.2625
1683.16801	11863.9625
1686.43272	11704.3625
1689.69527	11575.4625
1692.95567	11505.8625
1696.2139	11446.4625
1699.46999	11362.5625
1702.72392	11346.6625
1705.97571	11295.2625
1709.22535	11260.2625
1712.47284	11218.7625
1715.71819	11217.8625
1718.96139	11122.9625
1722.20246	11092.2625
1725.44139	11008.2625
1728.67818	10965.4625
1731.91284	10836.8625
1735.14537	10779.0625
1738.37576	10756.1625
1741.60403	10716.1625
1744.83017	10669.8625
1748.05418	10652.6625
1751.27607	10616.8625
1754.49584	10571.3625
1757.71349	10559.9625
1760.92903	10565.3625
1764.14244	10564.9625
1767.35375	10542.6625
1770.56294	10512.6625
1773.77002	10478.4625
1776.97499	10429.1625
1780.17785	10391.2625
1783.37861	10386.1625
1786.57727	10388.8625
1789.77382	10324.2625
1792.96828	10322.0625
1796.16064	10290.5625
1799.3509	10260.1625
1802.53907	10235.9625
1805.72514	10195.0625
1808.90913	10172.5625
1812.09102	10134.6625
1815.27083	10117.0625
1818.44856	10104.2625
1821.6242	10092.5625
1824.79776	10054.3625
1827.96924	10019.1625
1831.13864	9989.8625
1834.30597	9991.2625
1837.47122	9963.4625
1840.6344	9942.3625
1843.7955	9944.6625
1846.95454	9940.7625
1850.11151	9901.6625
1853.26642	9903.3625
1856.41926	9891.7625
1859.57004	9895.7625
1862.71876	9842.7625
1865.86542	9850.8625
1869.01003	9847.8625
1872.15258	9828.4625
1875.29308	9835.1625
1878.43152	9830.8625
1881.56792	9796.6625
1884.70227	9819.7625
1887.83457	9804.1625
1890.96482	9789.9625
1894.09304	9753.0625
1897.21921	9729.7625
1900.34335	9699.0625
1903.46544	9708.4625
1906.58551	9729.8625
1909.70353	9710.6625
1912.81953	9706.2625
1915.93349	9660.8625
1919.04543	9620.5625
1922.15534	9597.2625
1925.26322	9571.0625
1928.36908	9558.3625
1931.47292	9553.2625
1934.57473	9523.1625
1937.67453	9484.3625
1940.77232	9451.5625
1943.86808	9440.9625
1946.96184	9396.3625
1950.05358	9364.3625
1953.14331	9320.0625
1956.23103	9293.8625
1959.31675	9244.2625
1962.40046	9223.2625
1965.48217	9226.4625
1968.56188	9198.7625
1971.63959	9168.9625
1974.7153	9135.4625
1977.78901	9110.7625
1980.86073	9052.1625
1983.93046	9024.8625
1986.99819	8975.4625
1990.06394	8965.5625
1993.1277	8959.3625
1996.18947	8920.2625
1999.24925	8904.7625
2002.30706	8853.7625
2005.36288	8821.4625
2008.41672	8783.4625
2011.46859	8754.6625
2014.51848	8745.3625
2017.56639	8708.4625
2020.61233	8698.2625
2023.6563	8652.9625
2026.6983	8619.5625
2029.73833	8599.4625
2032.7764	8556.7625
2035.8125	8533.8625
2038.84664	8535.5625
2041.87881	8489.8625
2044.90903	8458.9625
2047.93729	8455.3625
2050.96359	8467.6625
2053.98794	8424.3625
2057.01034	8413.5625
2060.03078	8401.8625
2063.04927	8388.0625
2066.06582	8377.3625
2069.08042	8368.9625
2072.09307	8357.6625
2075.10378	8342.4625
2078.11255	8345.9625
2081.11938	8365.4625
2084.12426	8326.5625
2087.12722	8333.8625
2090.12824	8346.4625
2093.12732	8324.6625
2096.12447	8344.9625
2099.11969	8323.2625
2102.11299	8325.4625
2105.10435	8330.9625
2108.09379	8323.7625
2111.08131	8313.9625
2114.0669	8321.0625
2117.05057	8308.1625
2120.03233	8324.0625
2123.01216	8324.6625
2125.99008	8334.3625
2128.96609	8323.5625
2131.94018	8339.2625
2134.91236	8302.4625
2137.88263	8321.9625
2140.851	8337.5625
2143.81746	8322.4625
2146.78201	8298.5625
2149.74466	8321.5625
2152.7054	8289.7625
2155.66425	8275.7625
2158.6212	8290.5625
2161.57625	8275.2625
2164.52941	8280.6625
2167.48067	8285.0625
2170.43004	8266.5625
2173.37752	8259.4625
2176.32311	8258.6625
2179.26681	8251.2625
2182.20863	8221.5625
2185.14856	8232.3625
2188.08661	8218.1625
2191.02278	8212.1625
2193.95707	8210.8625
2196.88948	8191.2625
2199.82001	8207.8625
2202.74867	8177.0625
2205.67545	8171.5625
2208.60037	8175.8625
2211.52341	8142.0625
2214.44458	8121.8625
2217.36388	8104.1625
2220.28132	8080.4625
2223.1969	8039.9625
2226.11061	8043.5625
2229.02246	8042.2625
2231.93245	8016.3625
2234.84058	7993.2625
2237.74686	8009.0625
2240.65128	7984.2625
2243.55385	7968.9625
2246.45456	7958.5625
2249.35343	7938.9625
2252.25044	7941.1625
2255.14561	7911.1625
2258.03893	7917.2625
2260.93041	7881.2625
2263.82004	7865.1625
2266.70783	7827.5625
2269.59378	7815.6625
2272.4779	7788.7625
2275.36017	7794.4625
2278.24061	7762.9625
2281.11922	7739.7625
2283.996	7720.4625
2286.87094	7706.6625
2289.74405	7704.6625
2292.61534	7668.7625
2295.4848	7666.1625
2298.35243	7642.5625
2301.21824	7639.7625
2304.08223	7641.4625
2306.94439	7610.3625
2309.80474	7616.0625
2312.66327	7621.2625
2315.51999	7588.9625
2318.37489	7598.7625
2321.22797	7560.9625
2324.07925	7565.7625
2326.92871	7543.3625
2329.77637	7531.8625
2332.62222	7523.2625
2335.46626	7520.7625
2338.3085	7502.5625
2341.14893	7488.7625
2343.98756	7491.3625
2346.8244	7495.1625
2349.65943	7513.3625
2352.49267	7473.3625
2355.32411	7488.2625
2358.15376	7482.9625
2360.98161	7489.3625
2363.80768	7491.8625
2366.63195	7495.2625
2369.45444	7486.8625
2372.27514	7471.7625
2375.09405	7454.0625
2377.91118	7429.9625
2380.72652	7411.1625
2383.54009	7375.6625
2386.35187	7375.4625
2389.16188	7352.0625
2391.97011	7337.5625
2394.77657	7310.7625
2397.58125	7284.6625
2400.38416	7274.5625
2403.18529	7262.8625
2405.98466	7247.5625
2408.78226	7236.0625
2411.57809	7194.9625
2414.37216	7221.0625
2417.16446	7211.9625
2419.955	7189.1625
2422.74378	7200.4625
2425.5308	7173.9625
2428.31606	7154.8625
2431.09956	7175.9625
2433.88131	7161.8625
2436.6613	7155.5625
2439.43954	7159.0625
2442.21603	7150.6625
2444.99077	7111.9625
2447.76377	7127.4625
2450.53501	7121.9625
2453.30451	7128.0625
2456.07226	7118.5625
2458.83827	7118.5625
2461.60254	7111.8625
2464.36507	7117.8625
2467.12586	7074.8625
2469.88492	7086.5625
2472.64224	7102.4625
2475.39782	7100.1625
2478.15167	7072.2625
2480.90379	7087.9625
2483.65417	7087.2625
2486.40283	7091.3625
2489.14976	7109.8625
2491.89497	7108.9625
2494.63845	7110.1625
2497.3802	7073.1625
2500.12024	7062.6625
2502.85855	7057.8625
2505.59514	7063.1625
2508.33002	7036.2625
2511.06318	6985.5625
2513.79462	6998.1625
2516.52435	6981.6625
2519.25237	6970.2625
2521.97867	6966.7625
2524.70327	6977.5625
2527.42616	6947.5625
2530.14734	6926.5625
2532.86681	6938.6625
2535.58458	6908.9625
2538.30065	6894.4625
2541.01501	6898.4625
2543.72768	6895.9625
2546.43864	6873.3625
2549.14791	6866.5625
2551.85548	6859.2625
2554.56136	6830.9625
2557.26554	6812.4625
2559.96803	6809.0625
2562.66883	6812.3625
2565.36794	6786.1625
2568.06536	6786.7625
2570.7611	6764.6625
2573.45514	6760.6625
2576.14751	6745.9625
2578.83819	6739.4625
2581.52719	6739.0625
2584.21451	6711.7625
2586.90015	6719.6625
2589.58411	6706.3625
2592.2664	6716.4625
2594.94701	6700.1625
2597.62594	6664.8625
2600.30321	6656.3625
2602.9788	6643.6625
2605.65273	6653.1625
2608.32498	6623.5625
2610.99557	6616.1625
2613.66449	6614.3625
2616.33175	6627.4625
2618.99734	6626.4625
2621.66128	6617.2625
2624.32355	6610.3625
2626.98416	6602.0625
2629.64311	6584.2625
2632.30041	6568.2625
2634.95605	6571.9625
2637.61004	6570.1625
2640.26238	6563.4625
2642.91306	6548.2625
2645.56209	6537.3625
2648.20948	6544.0625
2650.85521	6533.1625
2653.4993	6535.3625
2656.14175	6530.9625
2658.78255	6550.0625
2661.42171	6555.0625
2664.05923	6550.2625
2666.6951	6556.9625
2669.32934	6562.0625
2671.96194	6564.1625
2674.59291	6554.7625
2677.22224	6546.7625
2679.84993	6537.8625
2682.476	6518.4625
2685.10043	6514.2625
2687.72324	6514.2625
2690.34441	6505.8625
2692.96396	6498.5625
2695.58188	6499.7625
2698.19818	6513.5625
2700.81285	6503.4625
2703.4259	6509.9625
2706.03733	6511.8625
2708.64714	6511.5625
2711.25533	6499.4625
2713.86191	6496.1625
2716.46687	6516.7625
2719.07021	6506.7625
2721.67194	6516.5625
2724.27206	6524.9625
2726.87057	6527.2625
2729.46747	6525.1625
2732.06276	6528.2625
2734.65644	6508.7625
2737.24852	6501.6625
2739.83899	6481.1625
2742.42786	6473.5625
2745.01513	6469.8625
2747.60079	6454.1625
2750.18486	6439.1625
2752.76733	6423.3625
2755.3482	6426.6625
2757.92747	6428.0625
2760.50515	6410.0625
2763.08123	6420.1625
2765.65573	6406.4625
2768.22863	6407.1625
2770.79994	6399.5625
2773.36967	6388.4625
2775.9378	6380.7625
2778.50435	6383.5625
2781.06932	6359.3625
2783.6327	6371.7625
2786.1945	6363.6625
2788.75471	6362.3625
2791.31335	6352.1625
2793.87041	6338.7625
2796.42589	6305.1625
2798.97979	6340.2625
2801.53212	6286.2625
2804.08288	6304.7625
2806.63206	6255.2625
2809.17967	6259.9625
2811.72571	6251.3625
2814.27018	6268.8625
2816.81308	6238.6625
2819.35442	6241.1625
2821.89419	6225.5625
2824.43239	6205.1625
2826.96904	6190.4625
2829.50412	6210.1625
2832.03763	6170.4625
2834.56959	6175.1625
2837.1	6160.9625
2839.62884	6188.1625
2842.15613	6175.2625
2844.68186	6196.9625
2847.20604	6183.3625
2849.72867	6197.9625
2852.24974	6182.6625
2854.76927	6181.0625
2857.28724	6171.3625
2859.80367	6166.7625
2862.31855	6169.4625
2864.83189	6174.0625
2867.34368	6165.8625
2869.85393	6164.6625
2872.36264	6147.6625
2874.8698	6126.5625
2877.37543	6153.7625
2879.87952	6126.8625
2882.38207	6119.2625
2884.88308	6113.2625
2887.38256	6127.7625
2889.88051	6112.1625
2892.37692	6115.7625
2894.8718	6126.2625
2897.36515	6134.5625
2899.85698	6115.0625
2902.34727	6122.7625
2904.83604	6106.7625
2907.32328	6131.7625
2909.809	6124.4625
2912.29319	6117.9625
2914.77587	6126.6625
2917.25702	6144.5625
2919.73665	6123.6625
2922.21476	6114.2625
2924.69136	6102.6625
2927.16644	6100.1625
2929.64	6096.5625
2932.11205	6087.1625
2934.58258	6056.3625
2937.05161	6074.7625
2939.51912	6060.7625
2941.98513	6045.1625
2944.44962	6042.8625
2946.91261	5994.1625
2949.37409	5989.2625
2951.83407	5987.5625
2954.29254	5992.1625
2956.74951	5988.3625
2959.20498	6002.5625
2961.65895	5984.2625
2964.11142	5985.1625
2966.56239	5966.3625
2969.01186	5967.0625
2971.45984	5940.0625
2973.90632	5939.0625
2976.35131	5917.0625
2978.7948	5890.5625
2981.23681	5899.5625
2983.67732	5887.7625
2986.11635	5855.4625
2988.55388	5859.0625
2990.98993	5815.4625
2993.4245	5806.9625
2995.85758	5814.1625
2998.28917	5797.0625
3000.71928	5809.3625
3003.14791	5786.1625
3005.57506	5781.3625
3008.00073	5738.6625
3010.42493	5741.7625
3012.84764	5746.6625
3015.26888	5728.5625
3017.68865	5740.8625
3020.10694	5716.7625
3022.52376	5713.4625
3024.9391	5680.2625
3027.35298	5665.0625
3029.76539	5665.8625
3032.17632	5658.9625
3034.5858	5646.7625
3036.9938	5643.4625
3039.40034	5651.9625
3041.80542	5653.0625
3044.20903	5620.6625
3046.61118	5628.7625
3049.01187	5594.5625
3051.4111	5609.8625
3053.80888	5571.8625
3056.20519	5577.5625
3058.60005	5554.7625
3060.99345	5555.9625
3063.3854	5533.5625
3065.7759	5522.5625
3068.16494	5507.9625
3070.55254	5509.2625
3072.93868	5485.6625
3075.32338	5492.8625
3077.70662	5468.1625
3080.08842	5446.5625
3082.46878	5442.6625
3084.84769	5447.9625
3087.22515	5451.7625
3089.60118	5453.5625
3091.97576	5436.5625
3094.3489	5434.4625
3096.72061	5441.1625
3099.09087	5439.9625
3101.4597	5441.5625
3103.82709	5420.3625
3106.19305	5430.4625
3108.55757	5417.0625
3110.92066	5398.9625
3113.28232	5415.1625
3115.64255	5395.0625
3118.00134	5374.2625
3120.35871	5371.9625
3122.71466	5361.2625
3125.06917	5331.8625
3127.42226	5330.1625
3129.77393	5346.7625
3132.12417	5340.8625
3134.47299	5343.2625
3136.82039	5330.8625
3139.16636	5333.0625
3141.51092	5308.8625
3143.85406	5325.8625
3146.19579	5315.6625
3148.53609	5341.0625
3150.87499	5334.2625
3153.21246	5339.3625
3155.54853	5356.5625
3157.88318	5346.1625
3160.21642	5342.7625
3162.54826	5356.8625
3164.87868	5345.7625
3167.2077	5342.7625
3169.5353	5321.9625
3171.86151	5345.1625
3174.18631	5334.5625
3176.5097	5337.6625
3178.83169	5326.1625
3181.15228	5329.8625
3183.47147	5316.0625
3185.78926	5310.2625
3188.10565	5314.1625
3190.42065	5308.3625
3192.73424	5313.9625
3195.04645	5290.0625
3197.35725	5291.0625
3199.66667	5288.9625
3201.97469	5297.9625
3204.28132	5280.3625
3206.58656	5304.0625
3208.8904	5281.5625
3211.19287	5290.2625
3213.49394	5296.3625
3215.79363	5305.9625
3218.09193	5310.1625
3220.38884	5308.1625
3222.68438	5316.2625
3224.97853	5306.6625
3227.2713	5306.0625
3229.56269	5298.3625
3231.8527	5317.4625
3234.14133	5302.6625
3236.42858	5290.4625
3238.71446	5276.5625
3240.99896	5258.7625
3243.28209	5242.9625
3245.56384	5238.5625
3247.84423	5242.5625
3250.12324	5264.3625
3252.40088	5225.7625
3254.67715	5222.1625
3256.95205	5212.7625
3259.22558	5206.9625
3261.49775	5205.6625
3263.76855	5203.3625
3266.03799	5186.5625
3268.30606	5188.8625
3270.57277	5179.6625
3272.83812	5160.7625
3275.10211	5146.3625
3277.36474	5146.3625
3279.62601	5130.1625
3281.88593	5134.3625
3284.14448	5147.4625
3286.40168	5152.2625
3288.65753	5138.3625
3290.91202	5137.3625
3293.16516	5110.7625
3295.41695	5097.7625
3297.66738	5081.6625
3299.91647	5048.9625
3302.16421	5022.5625
3304.4106	5010.5625
3306.65564	4989.6625
3308.89933	4961.9625
3311.14169	4938.4625
3313.38269	4905.0625
3315.62236	4860.4625
3317.86068	4809.3625
3320.09766	4789.6625
3322.3333	4729.6625
3324.5676	4740.9625
3326.80056	4669.7625
3329.03219	4652.7625
3331.26248	2.7625
3333.49143	-0.6375
3335.71905	0.7625
