Data from AgNP_FTO_APTES_UA_100uM_CRN_10uM_R6G_10uM_NaF_0.1M_Addition_RamanShift__57__16-23-30-471.txt Node

Date: Thu Mar 24 16:23:30 GMT 2022
User: TCL
Spectrometer: QEP01345
Trigger mode: 4
Integration Time (sec): 7.000000E0
Scans to average: 10
Electric dark correction enabled: true
Nonlinearity correction enabled: false
Boxcar width: 0
XAxis mode: Raman Shifts
Number of Pixels in Spectrum: 1044
>>>>>Begin Spectral Data<<<<<
46.04893	-1.7
50.45542	-0.9
54.85868	-0.7
59.25871	-0.8
63.6555	36.3
68.04907	37.9
72.43941	37.5
76.82654	38.9
81.21044	44.3
85.59113	41.9
89.96862	46.5
94.34289	40.9
98.71396	47
103.08183	49.3
107.4465	51.4
111.80798	52
116.16626	50.3
120.52136	53.3
124.87327	55.4
129.222	57.1
133.56755	63.1
137.90993	64.7
142.24913	76.5
146.58517	82.5
150.91804	97.9
155.24774	117.6
159.57429	143.9
163.89768	186.1
168.21792	250
172.53501	349
176.84895	485.9
181.15975	686.8
185.46741	964.1
189.77193	1323.8
194.07331	1763.5
198.37157	2289.3
202.6667	2827.7
206.9587	3381.9
211.24758	3961.1
215.53334	4592.7
219.81599	5298.5
224.09553	6096.1
228.37195	6977
232.64527	7930.8
236.91549	8798.7
241.18261	9588.6
245.44663	10149.3
249.70755	10548.2
253.96539	10948.4
258.22014	11318.7
262.4718	11653.9
266.72039	11945.6
270.96589	11934.9
275.20832	11808.1
279.44768	11537.7
283.68397	11208.5
287.91719	11004.9
292.14735	10971.6
296.37445	11241.6
300.59849	11747.5
304.81948	12409.1
309.03742	13028
313.25231	13230.4
317.46415	12836.4
321.67296	12040
325.87872	11303.4
330.08145	10956.6
334.28114	10953.4
338.47781	11115.3
342.67145	11393.4
346.86207	11772.6
351.04966	12439.3
355.23424	13192.2
359.4158	13640.8
363.59435	13759.2
367.76989	13688.7
371.94243	13540.1
376.11196	13431.9
380.27849	13313.6
384.44203	13177.2
388.60257	13053.5
392.76012	12950.5
396.91468	13069
401.06626	13398.1
405.21485	13593.5
409.36047	13285.8
413.50311	12515.4
417.64277	11884.4
421.77947	11573.8
425.9132	11464.7
430.04396	11533.8
434.17176	11758.5
438.2966	12141.8
442.41849	12830.5
446.53742	13789.7
450.6534	14660.9
454.76644	15049.5
458.87653	14881.6
462.98368	14350.6
467.08789	13710.7
471.18916	13149.3
475.2875	12549.7
479.38291	12013.5
483.4754	11491.9
487.56496	11108.1
491.6516	10843.5
495.73531	10752
499.81612	10747.2
503.89401	10833.5
507.96899	10945.7
512.04106	11034.9
516.11023	11130.5
520.1765	11259.8
524.23987	11406.2
528.30034	11478.1
532.35792	11484.7
536.41261	11320.9
540.46441	11078.2
544.51333	10944
548.55936	10998.5
552.60252	11261.1
556.64279	11713.9
560.6802	12062.5
564.71473	12284.9
568.7464	12742.5
572.7752	13126.5
576.80114	12927.5
580.82422	12739.4
584.84444	12978.2
588.86181	13974
592.87633	15731.9
596.888	16861.8
600.89682	16435.9
604.9028	16713.5
608.90594	20406.7
612.90624	25475.2
616.90371	23465.5
620.89834	15713.6
624.89015	12051.7
628.87913	11350.6
632.86528	11472.3
636.84862	11565.2
640.82913	11120.6
644.80683	10418.8
648.78172	10002.8
652.75379	10033.1
656.72306	10635.5
660.68952	11280.1
664.65319	10990.6
668.61405	10198.5
672.57211	9897
676.52738	9925.2
680.47986	9816.3
684.42955	9600.4
688.37646	9491.9
692.32058	9593.3
696.26192	9806.8
700.20048	10113.1
704.13626	10211.9
708.06928	10096
711.99952	10030.8
715.927	10088.5
719.85171	10247.6
723.77365	10252.4
727.69284	10163.6
731.60928	10150.6
735.52295	10272.6
739.43388	10406
743.34206	10418.1
747.24749	10367.2
751.15017	10326.7
755.05012	10480.8
758.94733	11114.7
762.8418	12740.2
766.73354	15440.2
770.62254	17814.7
774.50882	18751.5
778.39237	17864
782.27321	15345
786.15132	12727.7
790.02671	11122.9
793.89938	10355.3
797.76935	10022.4
801.6366	9888.6
805.50115	9808.4
809.36299	9748.5
813.22213	9673.8
817.07857	9614.3
820.93231	9638.6
824.78336	9680.2
828.63172	9757.6
832.47738	9747
836.32036	9716.4
840.16066	9655.3
843.99827	9630.9
847.8332	9565
851.66546	9562.2
855.49504	9556.6
859.32195	9549.9
863.1462	9484.7
866.96777	9474.5
870.78668	9442.7
874.60293	9529.2
878.41652	9628.3
882.22745	9756.8
886.03573	9804.8
889.84136	9766.2
893.64433	9693.9
897.44466	9676.9
901.24235	9648.6
905.0374	9579.3
908.8298	9472
912.61957	9380.5
916.40671	9398.7
920.19121	9485.6
923.97308	9671
927.75233	9895.3
931.52895	10020.2
935.30295	9840.2
939.07433	9433.4
942.84309	9139.2
946.60924	9005.5
950.37278	8952.6
954.13371	8920.2
957.89203	8907.1
961.64774	8908.8
965.40086	8905.6
969.15137	8878.9
972.89929	8870.9
976.64461	8876.4
980.38733	8902.7
984.12747	8936.9
987.86502	9033.3
991.59999	9199.6
995.33237	9468
999.06217	9977.4
1002.78939	10475.1
1006.51404	10879.1
1010.23611	11195.5
1013.95561	11410.9
1017.67255	11303.8
1021.38692	10802.1
1025.09872	10289.7
1028.80796	10039.3
1032.51465	10052.5
1036.21877	10185.6
1039.92035	10259.5
1043.61937	10245.6
1047.31584	10148.7
1051.00976	10037.8
1054.70114	9925.5
1058.38998	9878.9
1062.07627	9873.9
1065.76003	9893.2
1069.44126	9986.6
1073.11995	10191.6
1076.79611	10506.3
1080.46974	10913.7
1084.14085	11418.2
1087.80943	11864
1091.47549	11959.2
1095.13903	11664.2
1098.80005	11100.1
1102.45857	10717.2
1106.11456	10650.8
1109.76805	10804.6
1113.41903	11175
1117.06751	11684.2
1120.71348	12350.1
1124.35696	13154.2
1127.99793	13657.5
1131.63641	13334.6
1135.2724	12559.5
1138.90589	11925.8
1142.5369	11595.5
1146.16542	11463
1149.79145	11418.9
1153.415	11435.6
1157.03607	11623.5
1160.65467	11984.9
1164.27079	12691.6
1167.88443	13796.6
1171.49561	15603.4
1175.10432	18334.5
1178.71056	21914
1182.31434	24979.3
1185.91565	25804.1
1189.51451	24644.2
1193.11091	22520.2
1196.70485	20220.6
1200.29634	18416.8
1203.88538	16849.7
1207.47197	15431.1
1211.05612	14380.7
1214.63782	13914
1218.21708	13941.7
1221.79391	14215.7
1225.36829	14486.5
1228.94024	14324.3
1232.50976	13810.8
1236.07685	13408.7
1239.6415	13362.1
1243.20374	13566.8
1246.76355	13676.6
1250.32093	13755.5
1253.8759	14116.8
1257.42845	14827.5
1260.97859	15796.2
1264.52631	16898.7
1268.07163	17776.3
1271.61453	18343.8
1275.15503	18405.3
1278.69312	18371.6
1282.22882	18698.7
1285.76211	19637.1
1289.29301	21084.8
1292.82151	22573.2
1296.34761	24118.9
1299.87133	26139.3
1303.39266	28916.6
1306.9116	32841
1310.42815	36965.9
1313.94233	39064.8
1317.45412	37685.8
1320.96354	34590
1324.47058	31219.6
1327.97525	28111.5
1331.47754	25775.2
1334.97747	24661.4
1338.47502	24579.6
1341.97022	25080.6
1345.46305	25823.7
1348.95352	27227.5
1352.44163	29748.6
1355.92738	34085.1
1359.41078	40371.3
1362.89183	45693
1366.37053	43810.7
1369.84688	35686.2
1373.32088	28087.3
1376.79254	24339.9
1380.26186	23099.6
1383.72883	22267.2
1387.19347	20888.2
1390.65578	19427
1394.11575	18635.3
1397.57339	18573.4
1401.0287	18921.2
1404.48168	19291.8
1407.93234	19450.2
1411.38068	19500.2
1414.82669	19480.1
1418.27039	19042.8
1421.71177	18243.6
1425.15083	17454.6
1428.58758	17453
1432.02203	18314.8
1435.45416	19452.3
1438.88399	20145.5
1442.31151	20311.8
1445.73673	20323.2
1449.15965	20255.7
1452.58027	19807.2
1455.9986	18901.3
1459.41463	18359.4
1462.82837	18611.6
1466.23982	19505.5
1469.64898	20610.3
1473.05586	21651.5
1476.46045	22548.7
1479.86276	23339
1483.26279	24056.9
1486.66054	24770.3
1490.05602	25865.8
1493.44922	27088.1
1496.84016	27837.7
1500.22882	28709.2
1503.61521	30537
1506.99934	33386.6
1510.38121	35830.2
1513.76081	35703.6
1517.13816	32333.9
1520.51324	27499.5
1523.88607	23568
1527.25665	21408.1
1530.62498	20554.5
1533.99105	20148.8
1537.35488	19804
1540.71647	19469.7
1544.07581	19038.6
1547.4329	18492.1
1550.78776	17852.5
1554.14038	17285.1
1557.49077	16938.5
1560.83892	16949.6
1564.18484	17490.3
1567.52853	18378.5
1570.86999	19295
1574.20922	19889.5
1577.54624	19837.9
1580.88103	18798.3
1584.2136	17563.7
1587.54395	17363.8
1590.87208	18575.6
1594.19801	21176
1597.52172	24512.5
1600.84321	26488.5
1604.16251	25696.6
1607.47959	22715.9
1610.79447	19038.5
1614.10715	15938.1
1617.41763	13954.6
1620.7259	12913.8
1624.03199	12501.5
1627.33587	12707.8
1630.63757	13410.6
1633.93707	14889.7
1637.23439	17609.1
1640.52951	22054.1
1643.82246	28127.4
1647.11321	33753.8
1650.40179	35420.6
1653.68819	31575.8
1656.97241	24654.8
1660.25446	18473.8
1663.53433	14564.6
1666.81203	12366.3
1670.08756	11129.8
1673.36092	10437.8
1676.63211	9944.8
1679.90115	9633.6
1683.16801	9413.1
1686.43272	9259.8
1689.69527	9138.2
1692.95567	9040.7
1696.2139	8986.9
1699.46999	8962.4
1702.72392	8911.7
1705.97571	8848.8
1709.22535	8854.2
1712.47284	8858.2
1715.71819	8837.9
1718.96139	8793.9
1722.20246	8752.3
1725.44139	8671.4
1728.67818	8579.6
1731.91284	8493.9
1735.14537	8422.5
1738.37576	8352.8
1741.60403	8324.9
1744.83017	8288
1748.05418	8250.6
1751.27607	8217
1754.49584	8219.8
1757.71349	8192.8
1760.92903	8164.6
1764.14244	8178.8
1767.35375	8142.4
1770.56294	8120
1773.77002	8086.5
1776.97499	8042.1
1780.17785	8000.9
1783.37861	7964.3
1786.57727	7929.4
1789.77382	7885.4
1792.96828	7886.3
1796.16064	7869
1799.3509	7850.8
1802.53907	7829.3
1805.72514	7810.2
1808.90913	7774.8
1812.09102	7775.2
1815.27083	7720.3
1818.44856	7715.5
1821.6242	7694
1824.79776	7666.7
1827.96924	7627.1
1831.13864	7615.7
1834.30597	7602
1837.47122	7589.9
1840.6344	7555.3
1843.7955	7569.7
1846.95454	7540.2
1850.11151	7518
1853.26642	7511.6
1856.41926	7509.9
1859.57004	7507.3
1862.71876	7503.8
1865.86542	7513.5
1869.01003	7528.6
1872.15258	7512.2
1875.29308	7531.7
1878.43152	7547.1
1881.56792	7536.9
1884.70227	7534.5
1887.83457	7547.2
1890.96482	7540.3
1894.09304	7520.3
1897.21921	7500.3
1900.34335	7517
1903.46544	7527.1
1906.58551	7532.5
1909.70353	7559.1
1912.81953	7522.2
1915.93349	7510.5
1919.04543	7493.1
1922.15534	7478.6
1925.26322	7410.1
1928.36908	7408.4
1931.47292	7377.3
1934.57473	7356.8
1937.67453	7314.5
1940.77232	7336.7
1943.86808	7290.7
1946.96184	7240.8
1950.05358	7243.2
1953.14331	7223
1956.23103	7209.5
1959.31675	7174.7
1962.40046	7137.2
1965.48217	7122
1968.56188	7104.8
1971.63959	7093.8
1974.7153	7071.1
1977.78901	7041
1980.86073	7005.8
1983.93046	6971.9
1986.99819	6920.2
1990.06394	6925.3
1993.1277	6906.2
1996.18947	6877.8
1999.24925	6845.3
2002.30706	6830.3
2005.36288	6800.1
2008.41672	6760.3
2011.46859	6738.7
2014.51848	6721.6
2017.56639	6708.6
2020.61233	6685
2023.6563	6685.5
2026.6983	6700.2
2029.73833	6658.8
2032.7764	6637.5
2035.8125	6650.2
2038.84664	6621.2
2041.87881	6606.6
2044.90903	6616.1
2047.93729	6610
2050.96359	6595.2
2053.98794	6592.2
2057.01034	6589.1
2060.03078	6564.1
2063.04927	6535.3
2066.06582	6508.9
2069.08042	6526
2072.09307	6517
2075.10378	6491.6
2078.11255	6502.1
2081.11938	6527.5
2084.12426	6507.2
2087.12722	6496.6
2090.12824	6504.2
2093.12732	6494.1
2096.12447	6510.5
2099.11969	6501.3
2102.11299	6510.9
2105.10435	6504.2
2108.09379	6495.8
2111.08131	6494.5
2114.0669	6481.2
2117.05057	6470.6
2120.03233	6459.9
2123.01216	6469.3
2125.99008	6475
2128.96609	6467.2
2131.94018	6461.2
2134.91236	6466.8
2137.88263	6463.4
2140.851	6449.5
2143.81746	6446.6
2146.78201	6426.4
2149.74466	6424.6
2152.7054	6441.3
2155.66425	6408.8
2158.6212	6391.9
2161.57625	6385.5
2164.52941	6388.3
2167.48067	6377.3
2170.43004	6386.8
2173.37752	6378.4
2176.32311	6397.9
2179.26681	6384.1
2182.20863	6383.6
2185.14856	6406.5
2188.08661	6418
2191.02278	6418.5
2193.95707	6401.8
2196.88948	6387.5
2199.82001	6395
2202.74867	6401.6
2205.67545	6389.1
2208.60037	6373.7
2211.52341	6342.4
2214.44458	6336.5
2217.36388	6324.9
2220.28132	6293.5
2223.1969	6272.2
2226.11061	6263.3
2229.02246	6275.1
2231.93245	6268.6
2234.84058	6244
2237.74686	6256.3
2240.65128	6239.7
2243.55385	6250.9
2246.45456	6264.9
2249.35343	6234.5
2252.25044	6249.5
2255.14561	6229.4
2258.03893	6247.5
2260.93041	6236.5
2263.82004	6215.7
2266.70783	6174
2269.59378	6166.9
2272.4779	6156.7
2275.36017	6138.1
2278.24061	6104.5
2281.11922	6096
2283.996	6078
2286.87094	6070.3
2289.74405	6057.5
2292.61534	6014.4
2295.4848	5999.6
2298.35243	6010.1
2301.21824	6003.2
2304.08223	6009.7
2306.94439	6020.5
2309.80474	6012.4
2312.66327	6012.8
2315.51999	5992.2
2318.37489	6008.1
2321.22797	5974.5
2324.07925	5999.1
2326.92871	5989.7
2329.77637	5998
2332.62222	5977.6
2335.46626	5990.3
2338.3085	5997
2341.14893	5967.7
2343.98756	5981.7
2346.8244	5987.8
2349.65943	6007.5
2352.49267	5998.8
2355.32411	6021.3
2358.15376	6029.5
2360.98161	6044.6
2363.80768	6040.5
2366.63195	6047.9
2369.45444	6048.9
2372.27514	6071.2
2375.09405	6039.7
2377.91118	6020.5
2380.72652	6013.6
2383.54009	5965.5
2386.35187	5965.3
2389.16188	5919.1
2391.97011	5897.8
2394.77657	5896.5
2397.58125	5866.9
2400.38416	5863.9
2403.18529	5834.8
2405.98466	5820.9
2408.78226	5792.4
2411.57809	5801
2414.37216	5782.9
2417.16446	5791
2419.955	5779.1
2422.74378	5787.1
2425.5308	5777.9
2428.31606	5786.1
2431.09956	5787.8
2433.88131	5783.2
2436.6613	5812.6
2439.43954	5816.4
2442.21603	5801.8
2444.99077	5792.4
2447.76377	5832.2
2450.53501	5823.6
2453.30451	5823.2
2456.07226	5815.3
2458.83827	5825.1
2461.60254	5820.3
2464.36507	5804.2
2467.12586	5811.4
2469.88492	5823.3
2472.64224	5822
2475.39782	5831.2
2478.15167	5860
2480.90379	5875.9
2483.65417	5907.1
2486.40283	5932.2
2489.14976	5945.2
2491.89497	5945.8
2494.63845	5962.6
2497.3802	5957.7
2500.12024	5935.2
2502.85855	5915.7
2505.59514	5882.9
2508.33002	5854
2511.06318	5846.1
2513.79462	5830.8
2516.52435	5808.9
2519.25237	5778.6
2521.97867	5762.7
2524.70327	5763.4
2527.42616	5765.5
2530.14734	5766.4
2532.86681	5751.5
2535.58458	5766.2
2538.30065	5765.5
2541.01501	5759.4
2543.72768	5773.2
2546.43864	5755.8
2549.14791	5769.3
2551.85548	5764.1
2554.56136	5770
2557.26554	5760.8
2559.96803	5774.9
2562.66883	5776.7
2565.36794	5770.8
2568.06536	5782.7
2570.7611	5761.3
2573.45514	5764.4
2576.14751	5745.6
2578.83819	5745.7
2581.52719	5747.5
2584.21451	5739.1
2586.90015	5731.4
2589.58411	5732.8
2592.2664	5729
2594.94701	5722.8
2597.62594	5730.8
2600.30321	5714.8
2602.9788	5735.7
2605.65273	5720.4
2608.32498	5718.3
2610.99557	5722.7
2613.66449	5733.6
2616.33175	5747.6
2618.99734	5776
2621.66128	5752.8
2624.32355	5748
2626.98416	5749.7
2629.64311	5735.8
2632.30041	5751.5
2634.95605	5747.9
2637.61004	5731.4
2640.26238	5728.5
2642.91306	5737.9
2645.56209	5731.3
2648.20948	5720.3
2650.85521	5717.8
2653.4993	5720
2656.14175	5747.1
2658.78255	5747.8
2661.42171	5759.1
2664.05923	5796.1
2666.6951	5788.8
2669.32934	5822.7
2671.96194	5833.3
2674.59291	5826.2
2677.22224	5840.8
2679.84993	5824.3
2682.476	5807.6
2685.10043	5796
2687.72324	5789.9
2690.34441	5781.9
2692.96396	5795.2
2695.58188	5784.2
2698.19818	5783.3
2700.81285	5773.6
2703.4259	5791.1
2706.03733	5795.3
2708.64714	5796.9
2711.25533	5811
2713.86191	5810.1
2716.46687	5827
2719.07021	5813.2
2721.67194	5839.3
2724.27206	5832.9
2726.87057	5852
2729.46747	5854.5
2732.06276	5845.8
2734.65644	5844.9
2737.24852	5833.4
2739.83899	5829.1
2742.42786	5825.9
2745.01513	5801.2
2747.60079	5818.7
2750.18486	5792.4
2752.76733	5803.1
2755.3482	5805.5
2757.92747	5788.9
2760.50515	5796.8
2763.08123	5788.3
2765.65573	5780.6
2768.22863	5779.3
2770.79994	5784.8
2773.36967	5784.2
2775.9378	5791.7
2778.50435	5811.8
2781.06932	5785.8
2783.6327	5813.2
2786.1945	5838.3
2788.75471	5802.1
2791.31335	5807.6
2793.87041	5814.9
2796.42589	5817.5
2798.97979	5808.7
2801.53212	5776.2
2804.08288	5783.5
2806.63206	5780
2809.17967	5784.1
2811.72571	5796.7
2814.27018	5805.2
2816.81308	5815.8
2819.35442	5792.9
2821.89419	5814
2824.43239	5812.8
2826.96904	5795.6
2829.50412	5791.8
2832.03763	5795.6
2834.56959	5792
2837.1	5779.6
2839.62884	5797.8
2842.15613	5785.9
2844.68186	5799.9
2847.20604	5798.6
2849.72867	5791
2852.24974	5803.6
2854.76927	5797.5
2857.28724	5799.3
2859.80367	5794.4
2862.31855	5773.4
2864.83189	5787.3
2867.34368	5782.6
2869.85393	5787.8
2872.36264	5780.9
2874.8698	5778.3
2877.37543	5767.1
2879.87952	5777.5
2882.38207	5769.9
2884.88308	5763.1
2887.38256	5764.6
2889.88051	5732.3
2892.37692	5750.2
2894.8718	5749.1
2897.36515	5738.4
2899.85698	5742.9
2902.34727	5762.1
2904.83604	5760.4
2907.32328	5791.5
2909.809	5775.3
2912.29319	5786.9
2914.77587	5778.3
2917.25702	5768.8
2919.73665	5752.5
2922.21476	5740.2
2924.69136	5713.7
2927.16644	5724.5
2929.64	5727.1
2932.11205	5704.3
2934.58258	5693.2
2937.05161	5713.5
2939.51912	5702.9
2941.98513	5687.9
2944.44962	5665.5
2946.91261	5636.1
2949.37409	5658.2
2951.83407	5660
2954.29254	5660.2
2956.74951	5646.6
2959.20498	5656.6
2961.65895	5654.3
2964.11142	5664.1
2966.56239	5651.7
2969.01186	5641.8
2971.45984	5622.7
2973.90632	5615.8
2976.35131	5590.7
2978.7948	5575.2
2981.23681	5541.2
2983.67732	5525.8
2986.11635	5499.1
2988.55388	5483.2
2990.98993	5460.9
2993.4245	5468.5
2995.85758	5437.8
2998.28917	5446.7
3000.71928	5429.1
3003.14791	5408.1
3005.57506	5410.5
3008.00073	5387.2
3010.42493	5389.4
3012.84764	5387.9
3015.26888	5387.1
3017.68865	5361.8
3020.10694	5353.6
3022.52376	5326.2
3024.9391	5327.7
3027.35298	5314.7
3029.76539	5285.1
3032.17632	5264.7
3034.5858	5261.7
3036.9938	5269.5
3039.40034	5238.1
3041.80542	5242
3044.20903	5224.2
3046.61118	5223.1
3049.01187	5215.4
3051.4111	5223.7
3053.80888	5201.3
3056.20519	5190.2
3058.60005	5186.3
3060.99345	5152.9
3063.3854	5163.6
3065.7759	5134.3
3068.16494	5127.8
3070.55254	5118
3072.93868	5084.9
3075.32338	5077.1
3077.70662	5071.6
3080.08842	5066
3082.46878	5064.5
3084.84769	5063.2
3087.22515	5071.8
3089.60118	5061.4
3091.97576	5062.4
3094.3489	5053.6
3096.72061	5050.8
3099.09087	5059.5
3101.4597	5052.8
3103.82709	5043.6
3106.19305	5024
3108.55757	5026.5
3110.92066	5006.8
3113.28232	4989
3115.64255	4966.8
3118.00134	4947.7
3120.35871	4947.2
3122.71466	4936.7
3125.06917	4925.3
3127.42226	4928.2
3129.77393	4907.5
3132.12417	4915.7
3134.47299	4923.1
3136.82039	4927.1
3139.16636	4935.6
3141.51092	4916
3143.85406	4920.8
3146.19579	4923.2
3148.53609	4907.7
3150.87499	4916
3153.21246	4899.2
3155.54853	4906.4
3157.88318	4880
3160.21642	4872.3
3162.54826	4867.4
3164.87868	4870.4
3167.2077	4845.7
3169.5353	4853.7
3171.86151	4862.8
3174.18631	4867.9
3176.5097	4866.3
3178.83169	4841.9
3181.15228	4850.8
3183.47147	4844.7
3185.78926	4843.9
3188.10565	4849.6
3190.42065	4839.4
3192.73424	4826.3
3195.04645	4838.4
3197.35725	4852.2
3199.66667	4850.5
3201.97469	4849.9
3204.28132	4846.2
3206.58656	4863.7
3208.8904	4863.8
3211.19287	4862.4
3213.49394	4851.2
3215.79363	4863.5
3218.09193	4859.9
3220.38884	4851.5
3222.68438	4879.2
3224.97853	4876
3227.2713	4866
3229.56269	4894.8
3231.8527	4872.3
3234.14133	4859.3
3236.42858	4863.1
3238.71446	4869.6
3240.99896	4842.1
3243.28209	4865.6
3245.56384	4864.2
3247.84423	4852.7
3250.12324	4863.2
3252.40088	4842.4
3254.67715	4845.3
3256.95205	4835.8
3259.22558	4828.4
3261.49775	4815.5
3263.76855	4806.2
3266.03799	4796.5
3268.30606	4798.7
3270.57277	4778
3272.83812	4790.2
3275.10211	4785.9
3277.36474	4787.2
3279.62601	4787.6
3281.88593	4801.8
3284.14448	4833.7
3286.40168	4829.9
3288.65753	4832.4
3290.91202	4834.3
3293.16516	4825.3
3295.41695	4812.6
3297.66738	4811.8
3299.91647	4783.8
3302.16421	4754.2
3304.4106	4728.9
3306.65564	4693
3308.89933	4658.3
3311.14169	4623.7
3313.38269	4605.7
3315.62236	4566.6
3317.86068	4508.9
3320.09766	4468.9
3322.3333	4441.6
3324.5676	4444.7
3326.80056	4372
3329.03219	4344.2
3331.26248	2.5
3333.49143	-0.4
3335.71905	1.4
