Data from AgNP_FTO_APTES_UA_100uM_CRN_5uM_R6G_10uM_NaF_0.1M_Addition_RamanShift__13__14-53-40-368.txt Node

Date: Thu Mar 24 14:53:40 GMT 2022
User: TCL
Spectrometer: QEP01345
Trigger mode: 4
Integration Time (sec): 7.000000E0
Scans to average: 10
Electric dark correction enabled: true
Nonlinearity correction enabled: false
Boxcar width: 0
XAxis mode: Raman Shifts
Number of Pixels in Spectrum: 1044
>>>>>Begin Spectral Data<<<<<
46.04893	-0.8125
50.45542	-0.3125
54.85868	0.4875
59.25871	-0.8125
63.6555	24.3875
68.04907	28.1875
72.43941	28.2875
76.82654	28.3875
81.21044	31.8875
85.59113	33.0875
89.96862	34.7875
94.34289	33.4875
98.71396	36.5875
103.08183	36.1875
107.4465	39.6875
111.80798	37.3875
116.16626	39.4875
120.52136	37.3875
124.87327	38.7875
129.222	42.0875
133.56755	42.6875
137.90993	43.6875
142.24913	53.1875
146.58517	56.1875
150.91804	62.4875
155.24774	74.5875
159.57429	92.9875
163.89768	117.2875
168.21792	153.1875
172.53501	208.5875
176.84895	293.2875
181.15975	418.4875
185.46741	583.7875
189.77193	808.2875
194.07331	1086.4875
198.37157	1409.1875
202.6667	1753.6875
206.9587	2087.5875
211.24758	2432.4875
215.53334	2752.9875
219.81599	3116.3875
224.09553	3503.0875
228.37195	3949.8875
232.64527	4444.1875
236.91549	4931.3875
241.18261	5433.7875
245.44663	5890.9875
249.70755	6268.3875
253.96539	6599.5875
258.22014	6869.3875
262.4718	7114.1875
266.72039	7282.7875
270.96589	7370.6875
275.20832	7319.1875
279.44768	7251.5875
283.68397	7139.9875
287.91719	7036.3875
292.14735	6987.4875
296.37445	6998.1875
300.59849	7074.0875
304.81948	7211.9875
309.03742	7310.8875
313.25231	7351.7875
317.46415	7201.6875
321.67296	6986.6875
325.87872	6761.0875
330.08145	6652.0875
334.28114	6660.5875
338.47781	6725.5875
342.67145	6849.6875
346.86207	7015.3875
351.04966	7215.0875
355.23424	7458.2875
359.4158	7657.6875
363.59435	7783.2875
367.76989	7835.7875
371.94243	7844.7875
376.11196	7855.2875
380.27849	7850.1875
384.44203	7852.9875
388.60257	7854.7875
392.76012	7889.7875
396.91468	7981.3875
401.06626	8101.3875
405.21485	8217.4875
409.36047	8141.8875
413.50311	7914.7875
417.64277	7725.0875
421.77947	7626.8875
425.9132	7577.4875
430.04396	7583.3875
434.17176	7599.5875
438.2966	7662.2875
442.41849	7720.8875
446.53742	7850.4875
450.6534	7953.4875
454.76644	8046.5875
458.87653	8093.1875
462.98368	8066.2875
467.08789	8030.1875
471.18916	7950.5875
475.2875	7886.6875
479.38291	7821.8875
483.4754	7743.5875
487.56496	7713.3875
491.6516	7688.5875
495.73531	7707.0875
499.81612	7731.2875
503.89401	7806.2875
507.96899	7853.0875
512.04106	7899.4875
516.11023	7963.8875
520.1765	8001.4875
524.23987	7971.7875
528.30034	7943.1875
532.35792	7886.8875
536.41261	7834.6875
540.46441	7735.7875
544.51333	7720.8875
548.55936	7752.5875
552.60252	7842.4875
556.64279	7950.7875
560.6802	7994.1875
564.71473	8027.4875
568.7464	8117.7875
572.7752	8165.5875
576.80114	8142.8875
580.82422	8137.4875
584.84444	8243.6875
588.86181	8331.2875
592.87633	8350.2875
596.888	8421.0875
600.89682	8557.6875
604.9028	9009.6875
608.90594	10264.3875
612.90624	11978.6875
616.90371	11693.5875
620.89834	9408.5875
624.89015	8244.3875
628.87913	8026.5875
632.86528	8113.0875
636.84862	8243.9875
640.82913	8233.1875
644.80683	8045.8875
648.78172	7891.0875
652.75379	7885.9875
656.72306	8042.5875
660.68952	8261.3875
664.65319	8233.2875
668.61405	8027.8875
672.57211	7924.3875
676.52738	7923.3875
680.47986	7924.7875
684.42955	7874.5875
688.37646	7828.1875
692.32058	7872.7875
696.26192	7913.1875
700.20048	7977.8875
704.13626	8046.8875
708.06928	8042.2875
711.99952	7994.0875
715.927	7953.4875
719.85171	7984.2875
723.77365	7969.9875
727.69284	7961.7875
731.60928	7932.8875
735.52295	7884.8875
739.43388	7894.8875
743.34206	7925.0875
747.24749	7915.6875
751.15017	7962.5875
755.05012	8021.5875
758.94733	8194.4875
762.8418	8672.4875
766.73354	9517.7875
770.62254	10382.7875
774.50882	10764.9875
778.39237	10471.4875
782.27321	9691.6875
786.15132	8892.1875
790.02671	8384.5875
793.89938	8079.0875
797.76935	7961.5875
801.6366	7886.3875
805.50115	7880.6875
809.36299	7829.4875
813.22213	7827.0875
817.07857	7820.7875
820.93231	7815.0875
824.78336	7802.0875
828.63172	7823.7875
832.47738	7830.5875
836.32036	7814.4875
840.16066	7821.8875
843.99827	7797.9875
847.8332	7780.2875
851.66546	7819.4875
855.49504	7824.3875
859.32195	7824.1875
863.1462	7821.1875
866.96777	7803.8875
870.78668	7803.4875
874.60293	7809.9875
878.41652	7824.1875
882.22745	7878.0875
886.03573	7878.0875
889.84136	7853.2875
893.64433	7854.6875
897.44466	7849.7875
901.24235	7854.0875
905.0374	7819.5875
908.8298	7803.3875
912.61957	7779.3875
916.40671	7780.5875
920.19121	7782.3875
923.97308	7822.2875
927.75233	7893.4875
931.52895	7925.7875
935.30295	7867.5875
939.07433	7759.3875
942.84309	7661.0875
946.60924	7599.0875
950.37278	7543.8875
954.13371	7537.4875
957.89203	7518.9875
961.64774	7520.1875
965.40086	7525.1875
969.15137	7512.9875
972.89929	7480.7875
976.64461	7495.2875
980.38733	7492.5875
984.12747	7502.2875
987.86502	7503.1875
991.59999	7527.0875
995.33237	7556.2875
999.06217	7624.4875
1002.78939	7678.6875
1006.51404	7783.5875
1010.23611	7897.1875
1013.95561	7932.0875
1017.67255	7926.8875
1021.38692	7907.1875
1025.09872	7836.6875
1028.80796	7789.1875
1032.51465	7726.2875
1036.21877	7730.8875
1039.92035	7778.8875
1043.61937	7796.8875
1047.31584	7839.1875
1051.00976	7869.3875
1054.70114	7906.2875
1058.38998	7876.1875
1062.07627	7908.9875
1065.76003	7941.8875
1069.44126	8008.7875
1073.11995	8128.1875
1076.79611	8272.7875
1080.46974	8391.4875
1084.14085	8478.9875
1087.80943	8577.5875
1091.47549	8588.7875
1095.13903	8556.1875
1098.80005	8431.1875
1102.45857	8310.8875
1106.11456	8238.8875
1109.76805	8222.6875
1113.41903	8242.2875
1117.06751	8339.4875
1120.71348	8484.1875
1124.35696	8687.2875
1127.99793	8878.6875
1131.63641	8882.5875
1135.2724	8683.1875
1138.90589	8492.4875
1142.5369	8353.0875
1146.16542	8266.3875
1149.79145	8167.2875
1153.415	8137.9875
1157.03607	8161.3875
1160.65467	8223.8875
1164.27079	8401.5875
1167.88443	8641.9875
1171.49561	9049.3875
1175.10432	9651.0875
1178.71056	10431.8875
1182.31434	11141.5875
1185.91565	11406.0875
1189.51451	11300.6875
1193.11091	11018.7875
1196.70485	10574.6875
1200.29634	10156.1875
1203.88538	9775.3875
1207.47197	9347.1875
1211.05612	9003.4875
1214.63782	8744.1875
1218.21708	8611.5875
1221.79391	8539.5875
1225.36829	8512.3875
1228.94024	8523.7875
1232.50976	8497.6875
1236.07685	8523.0875
1239.6415	8486.3875
1243.20374	8510.4875
1246.76355	8528.6875
1250.32093	8580.7875
1253.8759	8660.7875
1257.42845	8779.4875
1260.97859	8968.2875
1264.52631	9155.1875
1268.07163	9361.2875
1271.61453	9522.5875
1275.15503	9678.1875
1278.69312	9765.2875
1282.22882	9832.5875
1285.76211	9928.1875
1289.29301	10141.9875
1292.82151	10346.0875
1296.34761	10543.1875
1299.87133	10854.0875
1303.39266	11430.4875
1306.9116	12223.1875
1310.42815	13134.2875
1313.94233	13564.5875
1317.45412	13255.2875
1320.96354	12600.2875
1324.47058	11957.5875
1327.97525	11448.4875
1331.47754	11053.5875
1334.97747	10926.0875
1338.47502	10928.4875
1341.97022	11139.9875
1345.46305	11518.6875
1348.95352	12116.6875
1352.44163	12779.7875
1355.92738	13544.9875
1359.41078	14589.2875
1362.89183	15732.8875
1366.37053	15582.8875
1369.84688	13856.8875
1373.32088	11927.0875
1376.79254	10673.9875
1380.26186	10012.1875
1383.72883	9652.3875
1387.19347	9331.2875
1390.65578	9063.5875
1394.11575	8821.4875
1397.57339	8676.1875
1401.0287	8582.1875
1404.48168	8538.9875
1407.93234	8512.7875
1411.38068	8528.8875
1414.82669	8558.6875
1418.27039	8555.3875
1421.71177	8533.2875
1425.15083	8454.7875
1428.58758	8384.2875
1432.02203	8350.4875
1435.45416	8393.9875
1438.88399	8427.5875
1442.31151	8452.2875
1445.73673	8436.0875
1449.15965	8503.6875
1452.58027	8507.8875
1455.9986	8510.3875
1459.41463	8525.6875
1462.82837	8619.6875
1466.23982	8771.4875
1469.64898	8934.9875
1473.05586	9098.9875
1476.46045	9196.1875
1479.86276	9337.6875
1483.26279	9459.6875
1486.66054	9641.6875
1490.05602	9930.0875
1493.44922	10365.8875
1496.84016	11026.9875
1500.22882	12040.1875
1503.61521	13341.7875
1506.99934	14716.7875
1510.38121	15646.0875
1513.76081	15641.7875
1517.13816	14531.2875
1520.51324	12914.1875
1523.88607	11542.7875
1527.25665	10697.3875
1530.62498	10176.6875
1533.99105	9876.0875
1537.35488	9646.2875
1540.71647	9496.7875
1544.07581	9393.2875
1547.4329	9293.2875
1550.78776	9249.4875
1554.14038	9240.0875
1557.49077	9281.2875
1560.83892	9375.5875
1564.18484	9578.3875
1567.52853	9854.0875
1570.86999	10133.9875
1574.20922	10297.0875
1577.54624	10262.8875
1580.88103	9869.5875
1584.2136	9344.6875
1587.54395	9006.7875
1590.87208	8954.5875
1594.19801	9142.4875
1597.52172	9548.2875
1600.84321	9683.5875
1604.16251	9549.1875
1607.47959	9293.0875
1610.79447	9009.0875
1614.10715	8697.3875
1617.41763	8347.0875
1620.7259	8082.3875
1624.03199	7966.4875
1627.33587	7894.8875
1630.63757	7953.2875
1633.93707	8137.0875
1637.23439	8467.4875
1640.52951	9093.9875
1643.82246	9980.2875
1647.11321	11003.8875
1650.40179	11728.4875
1653.68819	11638.2875
1656.97241	10589.2875
1660.25446	9344.1875
1663.53433	8382.9875
1666.81203	7824.1875
1670.08756	7501.0875
1673.36092	7300.4875
1676.63211	7169.3875
1679.90115	7078.3875
1683.16801	7011.3875
1686.43272	6937.3875
1689.69527	6880.4875
1692.95567	6873.9875
1696.2139	6851.0875
1699.46999	6827.2875
1702.72392	6817.3875
1705.97571	6809.2875
1709.22535	6783.3875
1712.47284	6782.2875
1715.71819	6777.7875
1718.96139	6751.7875
1722.20246	6765.9875
1725.44139	6731.0875
1728.67818	6698.2875
1731.91284	6658.4875
1735.14537	6617.5875
1738.37576	6590.7875
1741.60403	6552.5875
1744.83017	6553.2875
1748.05418	6533.4875
1751.27607	6511.1875
1754.49584	6507.3875
1757.71349	6507.0875
1760.92903	6493.4875
1764.14244	6505.4875
1767.35375	6467.2875
1770.56294	6457.2875
1773.77002	6457.9875
1776.97499	6431.7875
1780.17785	6421.0875
1783.37861	6380.8875
1786.57727	6370.9875
1789.77382	6363.2875
1792.96828	6358.4875
1796.16064	6341.6875
1799.3509	6314.0875
1802.53907	6307.0875
1805.72514	6290.7875
1808.90913	6298.8875
1812.09102	6261.1875
1815.27083	6264.4875
1818.44856	6241.2875
1821.6242	6227.7875
1824.79776	6216.3875
1827.96924	6216.7875
1831.13864	6221.8875
1834.30597	6220.8875
1837.47122	6218.7875
1840.6344	6203.3875
1843.7955	6184.7875
1846.95454	6176.6875
1850.11151	6171.3875
1853.26642	6172.3875
1856.41926	6174.0875
1859.57004	6147.6875
1862.71876	6159.0875
1865.86542	6149.3875
1869.01003	6157.0875
1872.15258	6127.2875
1875.29308	6107.7875
1878.43152	6108.8875
1881.56792	6114.0875
1884.70227	6091.7875
1887.83457	6077.0875
1890.96482	6075.4875
1894.09304	6054.5875
1897.21921	6040.7875
1900.34335	6036.7875
1903.46544	6041.5875
1906.58551	6035.6875
1909.70353	6046.7875
1912.81953	6027.6875
1915.93349	6015.0875
1919.04543	5994.1875
1922.15534	5977.8875
1925.26322	5968.4875
1928.36908	5953.7875
1931.47292	5933.8875
1934.57473	5901.1875
1937.67453	5922.5875
1940.77232	5884.4875
1943.86808	5869.9875
1946.96184	5854.7875
1950.05358	5838.6875
1953.14331	5810.9875
1956.23103	5805.6875
1959.31675	5797.3875
1962.40046	5776.1875
1965.48217	5747.1875
1968.56188	5732.8875
1971.63959	5732.7875
1974.7153	5718.1875
1977.78901	5684.0875
1980.86073	5670.5875
1983.93046	5645.5875
1986.99819	5608.7875
1990.06394	5616.6875
1993.1277	5593.1875
1996.18947	5576.7875
1999.24925	5555.5875
2002.30706	5544.2875
2005.36288	5531.1875
2008.41672	5512.1875
2011.46859	5483.4875
2014.51848	5477.7875
2017.56639	5469.3875
2020.61233	5441.3875
2023.6563	5414.9875
2026.6983	5405.2875
2029.73833	5386.3875
2032.7764	5374.9875
2035.8125	5370.1875
2038.84664	5350.3875
2041.87881	5346.9875
2044.90903	5320.3875
2047.93729	5328.3875
2050.96359	5325.9875
2053.98794	5301.2875
2057.01034	5291.3875
2060.03078	5298.7875
2063.04927	5270.2875
2066.06582	5284.1875
2069.08042	5283.9875
2072.09307	5275.5875
2075.10378	5257.2875
2078.11255	5268.7875
2081.11938	5268.2875
2084.12426	5272.6875
2087.12722	5281.3875
2090.12824	5261.5875
2093.12732	5269.0875
2096.12447	5267.4875
2099.11969	5257.9875
2102.11299	5264.4875
2105.10435	5258.1875
2108.09379	5266.1875
2111.08131	5266.0875
2114.0669	5275.0875
2117.05057	5280.8875
2120.03233	5280.1875
2123.01216	5274.8875
2125.99008	5279.7875
2128.96609	5271.2875
2131.94018	5294.6875
2134.91236	5287.1875
2137.88263	5286.4875
2140.851	5292.3875
2143.81746	5307.2875
2146.78201	5293.3875
2149.74466	5296.1875
2152.7054	5316.5875
2155.66425	5291.8875
2158.6212	5289.4875
2161.57625	5279.8875
2164.52941	5287.4875
2167.48067	5264.4875
2170.43004	5276.4875
2173.37752	5261.4875
2176.32311	5270.0875
2179.26681	5262.2875
2182.20863	5256.7875
2185.14856	5259.3875
2188.08661	5249.9875
2191.02278	5249.2875
2193.95707	5248.4875
2196.88948	5223.3875
2199.82001	5230.2875
2202.74867	5221.9875
2205.67545	5237.9875
2208.60037	5186.8875
2211.52341	5207.1875
2214.44458	5189.3875
2217.36388	5175.3875
2220.28132	5162.1875
2223.1969	5163.7875
2226.11061	5145.9875
2229.02246	5132.6875
2231.93245	5136.5875
2234.84058	5117.3875
2237.74686	5103.7875
2240.65128	5095.3875
2243.55385	5108.1875
2246.45456	5090.5875
2249.35343	5078.3875
2252.25044	5074.0875
2255.14561	5073.1875
2258.03893	5059.1875
2260.93041	5062.9875
2263.82004	5061.2875
2266.70783	5039.9875
2269.59378	5037.2875
2272.4779	5027.6875
2275.36017	5010.4875
2278.24061	5000.2875
2281.11922	4987.7875
2283.996	4981.8875
2286.87094	4953.8875
2289.74405	4956.5875
2292.61534	4948.6875
2295.4848	4933.7875
2298.35243	4937.1875
2301.21824	4907.1875
2304.08223	4926.9875
2306.94439	4918.9875
2309.80474	4911.6875
2312.66327	4899.2875
2315.51999	4892.0875
2318.37489	4882.4875
2321.22797	4883.5875
2324.07925	4878.9875
2326.92871	4874.3875
2329.77637	4878.0875
2332.62222	4867.7875
2335.46626	4850.5875
2338.3085	4827.7875
2341.14893	4848.5875
2343.98756	4831.6875
2346.8244	4839.1875
2349.65943	4820.9875
2352.49267	4815.4875
2355.32411	4840.2875
2358.15376	4826.6875
2360.98161	4837.0875
2363.80768	4822.9875
2366.63195	4825.3875
2369.45444	4817.0875
2372.27514	4816.4875
2375.09405	4820.8875
2377.91118	4802.0875
2380.72652	4789.5875
2383.54009	4765.9875
2386.35187	4775.5875
2389.16188	4740.1875
2391.97011	4732.7875
2394.77657	4705.5875
2397.58125	4709.4875
2400.38416	4702.7875
2403.18529	4693.7875
2405.98466	4694.1875
2408.78226	4675.5875
2411.57809	4661.2875
2414.37216	4652.6875
2417.16446	4634.3875
2419.955	4643.7875
2422.74378	4639.6875
2425.5308	4632.4875
2428.31606	4630.5875
2431.09956	4636.0875
2433.88131	4624.8875
2436.6613	4618.6875
2439.43954	4627.9875
2442.21603	4613.9875
2444.99077	4606.5875
2447.76377	4609.1875
2450.53501	4611.4875
2453.30451	4591.0875
2456.07226	4601.8875
2458.83827	4586.6875
2461.60254	4592.5875
2464.36507	4601.8875
2467.12586	4588.0875
2469.88492	4583.1875
2472.64224	4591.7875
2475.39782	4583.3875
2478.15167	4585.6875
2480.90379	4568.7875
2483.65417	4559.6875
2486.40283	4563.9875
2489.14976	4577.0875
2491.89497	4570.8875
2494.63845	4566.1875
2497.3802	4576.1875
2500.12024	4559.6875
2502.85855	4555.7875
2505.59514	4538.9875
2508.33002	4530.8875
2511.06318	4517.6875
2513.79462	4511.7875
2516.52435	4497.2875
2519.25237	4495.0875
2521.97867	4495.4875
2524.70327	4471.6875
2527.42616	4477.9875
2530.14734	4459.8875
2532.86681	4454.5875
2535.58458	4457.8875
2538.30065	4422.7875
2541.01501	4443.2875
2543.72768	4414.4875
2546.43864	4428.3875
2549.14791	4397.3875
2551.85548	4398.9875
2554.56136	4388.0875
2557.26554	4391.2875
2559.96803	4384.7875
2562.66883	4373.6875
2565.36794	4369.6875
2568.06536	4371.2875
2570.7611	4358.6875
2573.45514	4341.2875
2576.14751	4350.0875
2578.83819	4349.6875
2581.52719	4332.5875
2584.21451	4313.7875
2586.90015	4316.8875
2589.58411	4294.4875
2592.2664	4281.5875
2594.94701	4283.4875
2597.62594	4271.2875
2600.30321	4264.4875
2602.9788	4237.2875
2605.65273	4245.4875
2608.32498	4246.1875
2610.99557	4229.8875
2613.66449	4224.5875
2616.33175	4222.0875
2618.99734	4219.7875
2621.66128	4215.3875
2624.32355	4210.4875
2626.98416	4201.7875
2629.64311	4197.2875
2632.30041	4193.1875
2634.95605	4168.3875
2637.61004	4173.4875
2640.26238	4169.0875
2642.91306	4182.9875
2645.56209	4160.0875
2648.20948	4161.6875
2650.85521	4157.5875
2653.4993	4168.4875
2656.14175	4154.5875
2658.78255	4159.7875
2661.42171	4141.6875
2664.05923	4156.4875
2666.6951	4151.8875
2669.32934	4150.5875
2671.96194	4133.2875
2674.59291	4142.9875
2677.22224	4145.6875
2679.84993	4148.2875
2682.476	4131.6875
2685.10043	4136.7875
2687.72324	4141.4875
2690.34441	4141.5875
2692.96396	4151.4875
2695.58188	4129.5875
2698.19818	4138.9875
2700.81285	4131.4875
2703.4259	4136.7875
2706.03733	4147.3875
2708.64714	4140.5875
2711.25533	4139.4875
2713.86191	4136.5875
2716.46687	4134.5875
2719.07021	4139.7875
2721.67194	4135.6875
2724.27206	4119.5875
2726.87057	4119.1875
2729.46747	4128.8875
2732.06276	4118.0875
2734.65644	4110.9875
2737.24852	4116.0875
2739.83899	4092.1875
2742.42786	4106.6875
2745.01513	4083.1875
2747.60079	4083.6875
2750.18486	4082.6875
2752.76733	4080.2875
2755.3482	4063.6875
2757.92747	4057.7875
2760.50515	4041.5875
2763.08123	4051.7875
2765.65573	4041.9875
2768.22863	4024.2875
2770.79994	4035.8875
2773.36967	4034.6875
2775.9378	4016.1875
2778.50435	4024.3875
2781.06932	4019.7875
2783.6327	3999.2875
2786.1945	4002.1875
2788.75471	3977.3875
2791.31335	3968.7875
2793.87041	3975.0875
2796.42589	3949.1875
2798.97979	3957.2875
2801.53212	3956.7875
2804.08288	3946.3875
2806.63206	3943.5875
2809.17967	3945.2875
2811.72571	3927.0875
2814.27018	3933.8875
2816.81308	3924.6875
2819.35442	3908.2875
2821.89419	3907.3875
2824.43239	3910.5875
2826.96904	3897.7875
2829.50412	3897.1875
2832.03763	3898.5875
2834.56959	3899.8875
2837.1	3887.8875
2839.62884	3891.7875
2842.15613	3887.5875
2844.68186	3877.0875
2847.20604	3871.6875
2849.72867	3872.2875
2852.24974	3865.8875
2854.76927	3856.5875
2857.28724	3859.2875
2859.80367	3867.4875
2862.31855	3849.2875
2864.83189	3845.2875
2867.34368	3836.3875
2869.85393	3860.9875
2872.36264	3853.5875
2874.8698	3861.8875
2877.37543	3841.5875
2879.87952	3855.8875
2882.38207	3844.6875
2884.88308	3834.1875
2887.38256	3825.9875
2889.88051	3821.1875
2892.37692	3826.7875
2894.8718	3821.3875
2897.36515	3822.7875
2899.85698	3820.0875
2902.34727	3826.2875
2904.83604	3824.6875
2907.32328	3835.6875
2909.809	3830.2875
2912.29319	3833.4875
2914.77587	3833.8875
2917.25702	3836.4875
2919.73665	3836.0875
2922.21476	3844.7875
2924.69136	3838.1875
2927.16644	3814.5875
2929.64	3810.4875
2932.11205	3809.5875
2934.58258	3795.3875
2937.05161	3810.2875
2939.51912	3795.3875
2941.98513	3809.0875
2944.44962	3792.7875
2946.91261	3776.2875
2949.37409	3797.7875
2951.83407	3795.9875
2954.29254	3791.4875
2956.74951	3775.9875
2959.20498	3773.1875
2961.65895	3766.5875
2964.11142	3772.4875
2966.56239	3739.4875
2969.01186	3753.6875
2971.45984	3737.3875
2973.90632	3739.0875
2976.35131	3731.0875
2978.7948	3747.4875
2981.23681	3732.2875
2983.67732	3709.3875
2986.11635	3719.6875
2988.55388	3694.6875
2990.98993	3718.5875
2993.4245	3689.0875
2995.85758	3686.2875
2998.28917	3683.6875
3000.71928	3669.7875
3003.14791	3673.1875
3005.57506	3675.5875
3008.00073	3655.4875
3010.42493	3661.0875
3012.84764	3654.0875
3015.26888	3660.6875
3017.68865	3649.8875
3020.10694	3649.7875
3022.52376	3636.5875
3024.9391	3633.4875
3027.35298	3636.1875
3029.76539	3627.1875
3032.17632	3605.9875
3034.5858	3601.3875
3036.9938	3594.8875
3039.40034	3597.8875
3041.80542	3596.6875
3044.20903	3588.0875
3046.61118	3588.0875
3049.01187	3561.3875
3051.4111	3576.9875
3053.80888	3567.5875
3056.20519	3565.3875
3058.60005	3564.4875
3060.99345	3570.0875
3063.3854	3562.9875
3065.7759	3547.6875
3068.16494	3557.3875
3070.55254	3529.8875
3072.93868	3551.8875
3075.32338	3535.3875
3077.70662	3532.1875
3080.08842	3519.6875
3082.46878	3526.1875
3084.84769	3512.3875
3087.22515	3519.2875
3089.60118	3522.4875
3091.97576	3501.1875
3094.3489	3517.7875
3096.72061	3518.6875
3099.09087	3507.3875
3101.4597	3510.4875
3103.82709	3512.7875
3106.19305	3498.7875
3108.55757	3513.9875
3110.92066	3491.1875
3113.28232	3491.8875
3115.64255	3496.2875
3118.00134	3500.8875
3120.35871	3476.0875
3122.71466	3492.2875
3125.06917	3489.2875
3127.42226	3484.3875
3129.77393	3497.3875
3132.12417	3504.2875
3134.47299	3497.4875
3136.82039	3501.4875
3139.16636	3492.6875
3141.51092	3513.8875
3143.85406	3513.7875
3146.19579	3517.3875
3148.53609	3520.3875
3150.87499	3539.6875
3153.21246	3520.5875
3155.54853	3541.0875
3157.88318	3529.4875
3160.21642	3529.9875
3162.54826	3524.8875
3164.87868	3530.4875
3167.2077	3519.6875
3169.5353	3521.8875
3171.86151	3528.3875
3174.18631	3524.1875
3176.5097	3523.9875
3178.83169	3517.6875
3181.15228	3532.7875
3183.47147	3524.9875
3185.78926	3517.9875
3188.10565	3536.8875
3190.42065	3528.4875
3192.73424	3529.8875
3195.04645	3522.3875
3197.35725	3539.2875
3199.66667	3550.9875
3201.97469	3544.3875
3204.28132	3550.7875
3206.58656	3556.2875
3208.8904	3554.2875
3211.19287	3543.8875
3213.49394	3559.3875
3215.79363	3554.7875
3218.09193	3567.9875
3220.38884	3556.6875
3222.68438	3551.2875
3224.97853	3553.1875
3227.2713	3551.9875
3229.56269	3546.0875
3231.8527	3544.6875
3234.14133	3534.5875
3236.42858	3548.0875
3238.71446	3517.9875
3240.99896	3527.9875
3243.28209	3529.6875
3245.56384	3530.8875
3247.84423	3512.3875
3250.12324	3516.8875
3252.40088	3514.9875
3254.67715	3510.9875
3256.95205	3505.9875
3259.22558	3498.7875
3261.49775	3498.3875
3263.76855	3490.4875
3266.03799	3479.4875
3268.30606	3481.2875
3270.57277	3488.2875
3272.83812	3466.2875
3275.10211	3474.3875
3277.36474	3470.6875
3279.62601	3478.6875
3281.88593	3474.6875
3284.14448	3453.9875
3286.40168	3462.1875
3288.65753	3445.5875
3290.91202	3453.7875
3293.16516	3457.6875
3295.41695	3421.9875
3297.66738	3421.0875
3299.91647	3415.9875
3302.16421	3382.8875
3304.4106	3384.5875
3306.65564	3374.0875
3308.89933	3343.0875
3311.14169	3341.5875
3313.38269	3305.6875
3315.62236	3291.5875
3317.86068	3266.2875
3320.09766	3219.4875
3322.3333	3196.3875
3324.5676	3206.6875
3326.80056	3156.6875
3329.03219	3140.8875
3331.26248	0.4875
3333.49143	-0.6125
3335.71905	0.2875
