Data from AgNP_FTO_APTES_UA_100uM_CRN_0uM_R6G_10uM_NaF_0.1M_Addition_RamanShift__27__11-16-40-116.txt Node

Date: Thu Mar 24 11:16:40 GMT 2022
User: TCL
Spectrometer: QEP01345
Trigger mode: 4
Integration Time (sec): 7.000000E0
Scans to average: 10
Electric dark correction enabled: true
Nonlinearity correction enabled: false
Boxcar width: 0
XAxis mode: Raman Shifts
Number of Pixels in Spectrum: 1044
>>>>>Begin Spectral Data<<<<<
46.04893	-2.1
50.45542	0.6
54.85868	0.5
59.25871	0.2
63.6555	38.3
68.04907	41.8
72.43941	39.9
76.82654	42.5
81.21044	47.4
85.59113	49
89.96862	50.3
94.34289	49
98.71396	54.2
103.08183	54.4
107.4465	52.7
111.80798	56.1
116.16626	55.9
120.52136	57.3
124.87327	61.5
129.222	64.4
133.56755	69.5
137.90993	71.4
142.24913	80.8
146.58517	87.8
150.91804	102.8
155.24774	126.3
159.57429	156.6
163.89768	196.7
168.21792	265.3
172.53501	370.4
176.84895	514.9
181.15975	718.8
185.46741	1011.1
189.77193	1396.5
194.07331	1868.7
198.37157	2415.4
202.6667	2972.3
206.9587	3561
211.24758	4123.1
215.53334	4732.5
219.81599	5386.3
224.09553	6130
228.37195	6930
232.64527	7862.7
236.91549	8739
241.18261	9589.3
245.44663	10318.1
249.70755	10855.7
253.96539	11252.2
258.22014	11607.2
262.4718	11932
266.72039	12143.8
270.96589	12223.4
275.20832	12179.4
279.44768	12055.4
283.68397	11865.1
287.91719	11764.9
292.14735	11764.2
296.37445	11876
300.59849	12157.6
304.81948	12519.6
309.03742	12821.4
313.25231	12865
317.46415	12512.1
321.67296	11912.2
325.87872	11360.2
330.08145	11048.9
334.28114	10946.1
338.47781	11034.1
342.67145	11246.2
346.86207	11556.6
351.04966	12020.1
355.23424	12480.9
359.4158	12870.7
363.59435	13083.3
367.76989	13133.3
371.94243	13081.3
376.11196	13004.3
380.27849	12971.9
384.44203	12941.8
388.60257	12922.1
392.76012	12958.2
396.91468	13101.6
401.06626	13290.6
405.21485	13473.4
409.36047	13226.9
413.50311	12694.2
417.64277	12245.1
421.77947	12014.2
425.9132	12003.2
430.04396	11993.9
434.17176	12062.5
438.2966	12191.1
442.41849	12466.4
446.53742	12942.8
450.6534	13419.4
454.76644	13636.3
458.87653	13610.4
462.98368	13417
467.08789	13196.3
471.18916	12930.8
475.2875	12647.7
479.38291	12370.3
483.4754	12207.2
487.56496	12053.5
491.6516	11880.1
495.73531	11764.1
499.81612	11693.3
503.89401	11762.1
507.96899	11854
512.04106	11894.1
516.11023	11869.2
520.1765	11834.7
524.23987	11776.9
528.30034	11722.2
532.35792	11601.9
536.41261	11383.4
540.46441	11070.4
544.51333	10941.9
548.55936	11026.8
552.60252	11368.4
556.64279	11799.3
560.6802	12173.4
564.71473	12429.5
568.7464	12859.4
572.7752	13476.9
576.80114	13712.3
580.82422	13781.2
584.84444	14111.7
588.86181	14687.6
592.87633	15336.4
596.888	15509.3
600.89682	14992.1
604.9028	15189.6
608.90594	17666.9
612.90624	21068.8
616.90371	19996.3
620.89834	14585.4
624.89015	11804.9
628.87913	11335.1
632.86528	11518.7
636.84862	11707.4
640.82913	11515.5
644.80683	10962.4
648.78172	10563.8
652.75379	10556.1
656.72306	10898.8
660.68952	11326.9
664.65319	11222.3
668.61405	10721
672.57211	10479
676.52738	10541.8
680.47986	10539.6
684.42955	10411.8
688.37646	10285.4
692.32058	10319.1
696.26192	10484.3
700.20048	10719.8
704.13626	10878.3
708.06928	10894.6
711.99952	10848.3
715.927	10819.4
719.85171	10829.1
723.77365	10836.9
727.69284	10663.1
731.60928	10479.6
735.52295	10428.1
739.43388	10509
743.34206	10593.9
747.24749	10638.5
751.15017	10755.4
755.05012	10984.8
758.94733	11534
762.8418	12779.1
766.73354	14937.9
770.62254	17049.1
774.50882	17740.6
778.39237	16730.4
782.27321	14775
786.15132	12846.7
790.02671	11552.5
793.89938	10911.9
797.76935	10636.6
801.6366	10474
805.50115	10387
809.36299	10278.9
813.22213	10167.4
817.07857	10109.3
820.93231	10063.9
824.78336	10035
828.63172	9996.7
832.47738	9997.5
836.32036	9969.2
840.16066	9914.2
843.99827	9888.3
847.8332	9893.8
851.66546	9914.9
855.49504	9918.7
859.32195	9935.4
863.1462	9882
866.96777	9846.4
870.78668	9817.2
874.60293	9830.2
878.41652	9860.8
882.22745	9936.4
886.03573	10029.7
889.84136	10046
893.64433	10014.7
897.44466	10008
901.24235	9970.6
905.0374	9914.8
908.8298	9785.6
912.61957	9722.2
916.40671	9761.7
920.19121	9918.1
923.97308	10091.6
927.75233	10221.9
931.52895	10225.5
935.30295	10005.2
939.07433	9672.5
942.84309	9402.8
946.60924	9236.7
950.37278	9186.4
954.13371	9176.8
957.89203	9178.7
961.64774	9152.6
965.40086	9149.8
969.15137	9124.6
972.89929	9118
976.64461	9061.3
980.38733	9039.5
984.12747	9056.6
987.86502	9084.5
991.59999	9191.4
995.33237	9333.9
999.06217	9570.4
1002.78939	9851
1006.51404	10200.5
1010.23611	10557.1
1013.95561	10764.3
1017.67255	10788.6
1021.38692	10579.2
1025.09872	10202.4
1028.80796	9894.4
1032.51465	9820.2
1036.21877	9823.8
1039.92035	9900.9
1043.61937	9943.7
1047.31584	10006.1
1051.00976	10028.8
1054.70114	10063.4
1058.38998	10093
1062.07627	10119.2
1065.76003	10239.7
1069.44126	10382
1073.11995	10666.6
1076.79611	10946.5
1080.46974	11188.1
1084.14085	11448.6
1087.80943	11787.5
1091.47549	11985.5
1095.13903	11874.4
1098.80005	11507.5
1102.45857	11118.9
1106.11456	10843.6
1109.76805	10822.3
1113.41903	10955.2
1117.06751	11210.5
1120.71348	11622.2
1124.35696	12072.9
1127.99793	12507.1
1131.63641	12551.2
1135.2724	12184.3
1138.90589	11836.1
1142.5369	11603.2
1146.16542	11493.1
1149.79145	11486.9
1153.415	11547.9
1157.03607	11708.7
1160.65467	12067.2
1164.27079	12730.9
1167.88443	13743
1171.49561	15101.7
1175.10432	17132.9
1178.71056	19737.5
1182.31434	21982
1185.91565	22787.1
1189.51451	22236.7
1193.11091	21065.7
1196.70485	19535.7
1200.29634	18077.8
1203.88538	16842.6
1207.47197	15794.1
1211.05612	14970.2
1214.63782	14521.3
1218.21708	14234.5
1221.79391	14295.8
1225.36829	14417
1228.94024	14362.4
1232.50976	14014.5
1236.07685	13557.8
1239.6415	13270.2
1243.20374	13139.2
1246.76355	13128
1250.32093	13273.5
1253.8759	13572.4
1257.42845	14079.5
1260.97859	14715.3
1264.52631	15453.6
1268.07163	16200.1
1271.61453	16889.7
1275.15503	17437.3
1278.69312	17957.6
1282.22882	18524.4
1285.76211	19369.4
1289.29301	20415.6
1292.82151	21587.4
1296.34761	22938.7
1299.87133	24602.1
1303.39266	26678.2
1306.9116	29197.6
1310.42815	31748.2
1313.94233	33119.1
1317.45412	32376.3
1320.96354	30475.7
1324.47058	28584.3
1327.97525	26946.3
1331.47754	25697.1
1334.97747	24949.1
1338.47502	24598.3
1341.97022	24468.5
1345.46305	24704.6
1348.95352	25452.6
1352.44163	26619.7
1355.92738	28585.5
1359.41078	31785.7
1362.89183	34940.4
1366.37053	34622.6
1369.84688	30096.6
1373.32088	24925.4
1376.79254	21647.3
1380.26186	20084.8
1383.72883	19362.2
1387.19347	18827.8
1390.65578	18392.5
1394.11575	18195.3
1397.57339	18263.6
1401.0287	18393.4
1404.48168	18477.8
1407.93234	18299.7
1411.38068	17878.9
1414.82669	17358.3
1418.27039	16782.7
1421.71177	16191.1
1425.15083	15672.8
1428.58758	15448.4
1432.02203	15575.9
1435.45416	15936.4
1438.88399	16223.3
1442.31151	16383.5
1445.73673	16593.8
1449.15965	16771.1
1452.58027	16925
1455.9986	16994.3
1459.41463	17130.2
1462.82837	17498.1
1466.23982	17998.6
1469.64898	18413.2
1473.05586	18609.6
1476.46045	18688.1
1479.86276	18683.9
1483.26279	18774.1
1486.66054	19019.1
1490.05602	19591.6
1493.44922	20426.6
1496.84016	21571.9
1500.22882	23291
1503.61521	25654.7
1506.99934	28209.1
1510.38121	30245.9
1513.76081	30536.2
1517.13816	28734.9
1520.51324	25713.5
1523.88607	22976.9
1527.25665	21317
1530.62498	20506.3
1533.99105	20012.3
1537.35488	19423.9
1540.71647	18745.7
1544.07581	18068.1
1547.4329	17409.8
1550.78776	16941.6
1554.14038	16709.8
1557.49077	16683.9
1560.83892	16871.5
1564.18484	17328.4
1567.52853	17905
1570.86999	18462.5
1574.20922	18902.7
1577.54624	18951.4
1580.88103	18269
1584.2136	17405.5
1587.54395	17254.9
1590.87208	17900.9
1594.19801	19222.4
1597.52172	20826.3
1600.84321	21300.5
1604.16251	20225.7
1607.47959	18361.1
1610.79447	16428
1614.10715	14689.1
1617.41763	13304.3
1620.7259	12413.4
1624.03199	11985.9
1627.33587	11978.5
1630.63757	12462.6
1633.93707	13535.7
1637.23439	15447.3
1640.52951	18429.7
1643.82246	22384.8
1647.11321	26131.4
1650.40179	27645.4
1653.68819	25643.1
1656.97241	21230.3
1660.25446	16704.6
1663.53433	13479.4
1666.81203	11560.6
1670.08756	10450.5
1673.36092	9792
1676.63211	9381.2
1679.90115	9083.6
1683.16801	8898.1
1686.43272	8742.1
1689.69527	8629.7
1692.95567	8529
1696.2139	8481.2
1699.46999	8444.1
1702.72392	8391
1705.97571	8381
1709.22535	8357.2
1712.47284	8341.7
1715.71819	8316.5
1718.96139	8266
1722.20246	8226.1
1725.44139	8178.1
1728.67818	8069.4
1731.91284	7997.1
1735.14537	7929.4
1738.37576	7880.6
1741.60403	7825.8
1744.83017	7792.9
1748.05418	7778.2
1751.27607	7748.2
1754.49584	7707.2
1757.71349	7682.5
1760.92903	7667
1764.14244	7653.3
1767.35375	7633.9
1770.56294	7610.3
1773.77002	7586.1
1776.97499	7591.4
1780.17785	7555.9
1783.37861	7517.5
1786.57727	7478.9
1789.77382	7481.5
1792.96828	7469.4
1796.16064	7461.3
1799.3509	7417.6
1802.53907	7397.6
1805.72514	7364.3
1808.90913	7350.6
1812.09102	7332.6
1815.27083	7289.6
1818.44856	7298.9
1821.6242	7266.2
1824.79776	7274.7
1827.96924	7251.4
1831.13864	7250.9
1834.30597	7252.8
1837.47122	7223
1840.6344	7237.3
1843.7955	7227.3
1846.95454	7223.8
1850.11151	7225.2
1853.26642	7220.8
1856.41926	7206.7
1859.57004	7211.8
1862.71876	7196.9
1865.86542	7199.4
1869.01003	7193.4
1872.15258	7192.9
1875.29308	7191.5
1878.43152	7202.7
1881.56792	7219
1884.70227	7204.6
1887.83457	7196.1
1890.96482	7197.9
1894.09304	7211.8
1897.21921	7213.1
1900.34335	7206.1
1903.46544	7189
1906.58551	7174.8
1909.70353	7149.2
1912.81953	7150.7
1915.93349	7113.1
1919.04543	7117.4
1922.15534	7073.2
1925.26322	7042
1928.36908	7009.8
1931.47292	6996.3
1934.57473	6952.2
1937.67453	6955.2
1940.77232	6921.7
1943.86808	6900.8
1946.96184	6882.3
1950.05358	6850.5
1953.14331	6837.4
1956.23103	6809.3
1959.31675	6787.3
1962.40046	6765.9
1965.48217	6751.7
1968.56188	6749
1971.63959	6728.7
1974.7153	6713.9
1977.78901	6695.7
1980.86073	6664.9
1983.93046	6621
1986.99819	6590.5
1990.06394	6575.5
1993.1277	6545.6
1996.18947	6521.1
1999.24925	6496.1
2002.30706	6494.7
2005.36288	6457.5
2008.41672	6438.7
2011.46859	6435.2
2014.51848	6411.8
2017.56639	6385.6
2020.61233	6365.1
2023.6563	6349.2
2026.6983	6324.8
2029.73833	6321.5
2032.7764	6278.3
2035.8125	6262.8
2038.84664	6257.1
2041.87881	6214.8
2044.90903	6211.2
2047.93729	6190.8
2050.96359	6188.8
2053.98794	6170.4
2057.01034	6157.5
2060.03078	6158.2
2063.04927	6154.4
2066.06582	6179.3
2069.08042	6175.7
2072.09307	6192.5
2075.10378	6165.3
2078.11255	6170.4
2081.11938	6177.7
2084.12426	6185.9
2087.12722	6203.7
2090.12824	6177.4
2093.12732	6188.6
2096.12447	6188.8
2099.11969	6204.3
2102.11299	6173.9
2105.10435	6173.1
2108.09379	6158.8
2111.08131	6149.8
2114.0669	6153.2
2117.05057	6145.3
2120.03233	6132.2
2123.01216	6135.7
2125.99008	6125.5
2128.96609	6137.5
2131.94018	6123.9
2134.91236	6104.4
2137.88263	6095.8
2140.851	6095.5
2143.81746	6124.7
2146.78201	6078
2149.74466	6079.2
2152.7054	6066
2155.66425	6053.6
2158.6212	6055.8
2161.57625	6034.9
2164.52941	6031.1
2167.48067	6015.9
2170.43004	6004.2
2173.37752	5987.2
2176.32311	5975.9
2179.26681	5979.8
2182.20863	5988
2185.14856	6007.3
2188.08661	5966.8
2191.02278	5982.1
2193.95707	5956
2196.88948	5964.3
2199.82001	5941.7
2202.74867	5931.2
2205.67545	5923.7
2208.60037	5908.9
2211.52341	5907.4
2214.44458	5882
2217.36388	5887.8
2220.28132	5851.7
2223.1969	5839.2
2226.11061	5836.9
2229.02246	5819.5
2231.93245	5802.3
2234.84058	5788.5
2237.74686	5789.3
2240.65128	5779.5
2243.55385	5774.9
2246.45456	5777.1
2249.35343	5763.5
2252.25044	5758.1
2255.14561	5739.4
2258.03893	5737
2260.93041	5702.2
2263.82004	5704.6
2266.70783	5692.3
2269.59378	5682.6
2272.4779	5663.3
2275.36017	5633.9
2278.24061	5647.7
2281.11922	5636.8
2283.996	5619.1
2286.87094	5617.8
2289.74405	5582.6
2292.61534	5585.8
2295.4848	5576.9
2298.35243	5578.5
2301.21824	5569.5
2304.08223	5568.2
2306.94439	5544.1
2309.80474	5537.3
2312.66327	5529.2
2315.51999	5542.9
2318.37489	5538.2
2321.22797	5527.8
2324.07925	5526.6
2326.92871	5500.6
2329.77637	5512.1
2332.62222	5497.5
2335.46626	5496.7
2338.3085	5474.2
2341.14893	5482.7
2343.98756	5493.2
2346.8244	5499.5
2349.65943	5501.8
2352.49267	5496.3
2355.32411	5512.6
2358.15376	5513.8
2360.98161	5521.2
2363.80768	5525.9
2366.63195	5519
2369.45444	5518.7
2372.27514	5515.4
2375.09405	5514
2377.91118	5497.9
2380.72652	5499
2383.54009	5463.1
2386.35187	5458.3
2389.16188	5407.8
2391.97011	5411.1
2394.77657	5379.1
2397.58125	5384.6
2400.38416	5358.9
2403.18529	5345.3
2405.98466	5334.5
2408.78226	5322.6
2411.57809	5326.6
2414.37216	5304.2
2417.16446	5316.9
2419.955	5288.4
2422.74378	5294
2425.5308	5300.9
2428.31606	5302.9
2431.09956	5294.3
2433.88131	5274
2436.6613	5275.6
2439.43954	5288.7
2442.21603	5284.8
2444.99077	5283.7
2447.76377	5284.1
2450.53501	5283.2
2453.30451	5303.1
2456.07226	5295.5
2458.83827	5304.4
2461.60254	5298
2464.36507	5303.2
2467.12586	5300.2
2469.88492	5303.8
2472.64224	5300.3
2475.39782	5289.3
2478.15167	5309.4
2480.90379	5294
2483.65417	5309.8
2486.40283	5304.7
2489.14976	5300.9
2491.89497	5316.2
2494.63845	5307.6
2497.3802	5320.6
2500.12024	5319.4
2502.85855	5312.9
2505.59514	5291.6
2508.33002	5265.8
2511.06318	5254.3
2513.79462	5240.1
2516.52435	5220
2519.25237	5227
2521.97867	5191.7
2524.70327	5201.5
2527.42616	5188
2530.14734	5175.1
2532.86681	5171.3
2535.58458	5162.6
2538.30065	5164.8
2541.01501	5169
2543.72768	5157.2
2546.43864	5168.8
2549.14791	5156.5
2551.85548	5153.9
2554.56136	5156.8
2557.26554	5142.9
2559.96803	5137
2562.66883	5118.5
2565.36794	5141.8
2568.06536	5140.4
2570.7611	5116.7
2573.45514	5127.5
2576.14751	5112.5
2578.83819	5087.9
2581.52719	5097.8
2584.21451	5085.7
2586.90015	5095.2
2589.58411	5077.1
2592.2664	5089
2594.94701	5059.8
2597.62594	5064.7
2600.30321	5058.8
2602.9788	5068.2
2605.65273	5049.4
2608.32498	5034.3
2610.99557	5051.9
2613.66449	5032.6
2616.33175	5044.9
2618.99734	5043.7
2621.66128	5056
2624.32355	5039.6
2626.98416	5029.8
2629.64311	5039.1
2632.30041	5023.5
2634.95605	4995
2637.61004	4993.5
2640.26238	4997.6
2642.91306	4996.3
2645.56209	5000.1
2648.20948	4993.4
2650.85521	4996.4
2653.4993	4993.1
2656.14175	4999.4
2658.78255	5004.3
2661.42171	5010.1
2664.05923	5011.7
2666.6951	5030
2669.32934	5034.9
2671.96194	5035.1
2674.59291	5027.2
2677.22224	5026.6
2679.84993	5027.9
2682.476	5026.3
2685.10043	5019.8
2687.72324	5018.2
2690.34441	5003.6
2692.96396	4999.8
2695.58188	5008.2
2698.19818	4991.8
2700.81285	4994.3
2703.4259	4993.5
2706.03733	5021.5
2708.64714	5015.4
2711.25533	4993.4
2713.86191	4991.8
2716.46687	5020.3
2719.07021	5011.2
2721.67194	5023.8
2724.27206	5021.5
2726.87057	5013.2
2729.46747	5023.7
2732.06276	5026.6
2734.65644	5011
2737.24852	5009.5
2739.83899	4994.8
2742.42786	5014.1
2745.01513	4984.4
2747.60079	4972.3
2750.18486	4981.1
2752.76733	4979.7
2755.3482	4987.4
2757.92747	4963.8
2760.50515	4982.4
2763.08123	4953.4
2765.65573	4966.4
2768.22863	4959.6
2770.79994	4963.7
2773.36967	4957.8
2775.9378	4964.3
2778.50435	4961.6
2781.06932	4957.8
2783.6327	4949.5
2786.1945	4957.9
2788.75471	4948.8
2791.31335	4921.3
2793.87041	4942
2796.42589	4917.7
2798.97979	4919.8
2801.53212	4918.4
2804.08288	4921.2
2806.63206	4904.9
2809.17967	4909.4
2811.72571	4895
2814.27018	4911.1
2816.81308	4902.3
2819.35442	4885.1
2821.89419	4896.9
2824.43239	4903.1
2826.96904	4905.8
2829.50412	4891.6
2832.03763	4907.1
2834.56959	4904.6
2837.1	4885
2839.62884	4876.5
2842.15613	4878.7
2844.68186	4886.8
2847.20604	4919.9
2849.72867	4929.8
2852.24974	4929.7
2854.76927	4942.9
2857.28724	4931.7
2859.80367	4936.8
2862.31855	4932.6
2864.83189	4936.8
2867.34368	4947.9
2869.85393	4959.5
2872.36264	4951.9
2874.8698	4946.7
2877.37543	4969.3
2879.87952	4959.3
2882.38207	4956
2884.88308	4947.5
2887.38256	4955.2
2889.88051	4952.5
2892.37692	4953.6
2894.8718	4962
2897.36515	4965.2
2899.85698	4955.7
2902.34727	4961.1
2904.83604	4937.5
2907.32328	4959.2
2909.809	4987
2912.29319	4980.1
2914.77587	4969.3
2917.25702	4956.4
2919.73665	4958.3
2922.21476	4941.8
2924.69136	4931.5
2927.16644	4951.3
2929.64	4933.1
2932.11205	4902.1
2934.58258	4898.2
2937.05161	4878.2
2939.51912	4875.4
2941.98513	4876.1
2944.44962	4846.1
2946.91261	4838.5
2949.37409	4829.8
2951.83407	4822.2
2954.29254	4809.3
2956.74951	4805.4
2959.20498	4791.6
2961.65895	4765.5
2964.11142	4754.5
2966.56239	4741.7
2969.01186	4734.7
2971.45984	4703.9
2973.90632	4708.4
2976.35131	4680.1
2978.7948	4681.3
2981.23681	4651.4
2983.67732	4663.6
2986.11635	4627.1
2988.55388	4625.3
2990.98993	4636.7
2993.4245	4613.9
2995.85758	4594.5
2998.28917	4582.3
3000.71928	4567
3003.14791	4570.6
3005.57506	4565.9
3008.00073	4545.8
3010.42493	4555.4
3012.84764	4551.4
3015.26888	4520.2
3017.68865	4532.8
3020.10694	4524
3022.52376	4489
3024.9391	4495.3
3027.35298	4477.6
3029.76539	4475.3
3032.17632	4459.6
3034.5858	4453.1
3036.9938	4455.5
3039.40034	4439.6
3041.80542	4428.9
3044.20903	4418.1
3046.61118	4418.4
3049.01187	4419.1
3051.4111	4408.3
3053.80888	4387.7
3056.20519	4381.6
3058.60005	4383.3
3060.99345	4374.1
3063.3854	4362.8
3065.7759	4338
3068.16494	4332.5
3070.55254	4330.4
3072.93868	4326.2
3075.32338	4302.8
3077.70662	4300.3
3080.08842	4281.5
3082.46878	4292.6
3084.84769	4285.3
3087.22515	4266
3089.60118	4274.2
3091.97576	4263.2
3094.3489	4257.1
3096.72061	4251.7
3099.09087	4258.7
3101.4597	4245.5
3103.82709	4238.9
3106.19305	4236.9
3108.55757	4211.1
3110.92066	4205.3
3113.28232	4201.9
3115.64255	4184.9
3118.00134	4176.9
3120.35871	4176.1
3122.71466	4177
3125.06917	4160.4
3127.42226	4171.2
3129.77393	4166.9
3132.12417	4150.8
3134.47299	4174.8
3136.82039	4186
3139.16636	4164
3141.51092	4171.5
3143.85406	4171.6
3146.19579	4158
3148.53609	4163.7
3150.87499	4187.2
3153.21246	4191.5
3155.54853	4179.7
3157.88318	4164
3160.21642	4177.1
3162.54826	4180.7
3164.87868	4163.8
3167.2077	4157.7
3169.5353	4174.3
3171.86151	4172.5
3174.18631	4163.7
3176.5097	4165
3178.83169	4166.9
3181.15228	4167.9
3183.47147	4156.8
3185.78926	4168.6
3188.10565	4150.1
3190.42065	4162
3192.73424	4165.1
3195.04645	4172.1
3197.35725	4180.5
3199.66667	4177.6
3201.97469	4176.4
3204.28132	4158.8
3206.58656	4177.7
3208.8904	4169.2
3211.19287	4180.7
3213.49394	4172.2
3215.79363	4180.1
3218.09193	4170.4
3220.38884	4160.8
3222.68438	4172.4
3224.97853	4170.3
3227.2713	4175.2
3229.56269	4161.9
3231.8527	4160.5
3234.14133	4161.7
3236.42858	4159.2
3238.71446	4146.4
3240.99896	4127.2
3243.28209	4145.2
3245.56384	4138.1
3247.84423	4122.7
3250.12324	4109
3252.40088	4122.3
3254.67715	4119.5
3256.95205	4111.9
3259.22558	4095.8
3261.49775	4099.5
3263.76855	4063.2
3266.03799	4092.6
3268.30606	4071.8
3270.57277	4068.9
3272.83812	4052.8
3275.10211	4059.8
3277.36474	4057.7
3279.62601	4068.4
3281.88593	4066.7
3284.14448	4061.3
3286.40168	4074.7
3288.65753	4056.6
3290.91202	4062.2
3293.16516	4057.5
3295.41695	4039
3297.66738	4026.5
3299.91647	3999.5
3302.16421	3978.9
3304.4106	3944.1
3306.65564	3943
3308.89933	3921.4
3311.14169	3891.3
3313.38269	3854.8
3315.62236	3862.2
3317.86068	3816.1
3320.09766	3772.2
3322.3333	3720.5
3324.5676	3726.5
3326.80056	3661.4
3329.03219	3654.4
3331.26248	1.9
3333.49143	-0.6
3335.71905	0.1
