Data from AgNP_FTO_APTES_UA_100uM_CRN_2uM_R6G_10uM_NaF_0.1M_Addition_RamanShift__19__14-07-00-313.txt Node

Date: Thu Mar 24 14:07:00 GMT 2022
User: TCL
Spectrometer: QEP01345
Trigger mode: 4
Integration Time (sec): 7.000000E0
Scans to average: 10
Electric dark correction enabled: true
Nonlinearity correction enabled: false
Boxcar width: 0
XAxis mode: Raman Shifts
Number of Pixels in Spectrum: 1044
>>>>>Begin Spectral Data<<<<<
46.04893	-1.1125
50.45542	-1.3125
54.85868	-0.5125
59.25871	0.4875
63.6555	43.6875
68.04907	48.1875
72.43941	48.0875
76.82654	46.0875
81.21044	51.9875
85.59113	51.1875
89.96862	52.2875
94.34289	55.2875
98.71396	58.9875
103.08183	59.2875
107.4465	60.7875
111.80798	65.4875
116.16626	63.5875
120.52136	66.8875
124.87327	63.8875
129.222	68.9875
133.56755	76.0875
137.90993	74.6875
142.24913	88.9875
146.58517	99.4875
150.91804	113.4875
155.24774	137.9875
159.57429	171.6875
163.89768	219.0875
168.21792	287.7875
172.53501	399.2875
176.84895	558.1875
181.15975	779.8875
185.46741	1105.0875
189.77193	1519.1875
194.07331	2052.0875
198.37157	2643.8875
202.6667	3276.8875
206.9587	3912.3875
211.24758	4585.9875
215.53334	5276.7875
219.81599	6035.0875
224.09553	6917.2875
228.37195	7871.3875
232.64527	8948.6875
236.91549	10012.9875
241.18261	10974.0875
245.44663	11733.4875
249.70755	12343.2875
253.96539	12878.6875
258.22014	13353.2875
262.4718	13745.7875
266.72039	14042.7875
270.96589	14155.5875
275.20832	14038.7875
279.44768	13813.4875
283.68397	13539.8875
287.91719	13358.8875
292.14735	13352.1875
296.37445	13622.5875
300.59849	14139.3875
304.81948	14740.5875
309.03742	15227.2875
313.25231	15269.9875
317.46415	14684.8875
321.67296	13725.6875
325.87872	12826.2875
330.08145	12367.0875
334.28114	12324.8875
338.47781	12529.9875
342.67145	12845.4875
346.86207	13327.6875
351.04966	14011.4875
355.23424	14797.3875
359.4158	15443.9875
363.59435	15763.5875
367.76989	15868.1875
371.94243	15844.8875
376.11196	15732.3875
380.27849	15665.6875
384.44203	15499.5875
388.60257	15344.9875
392.76012	15258.9875
396.91468	15333.5875
401.06626	15634.6875
405.21485	15911.1875
409.36047	15601.0875
413.50311	14837.0875
417.64277	14055.2875
421.77947	13584.8875
425.9132	13361.4875
430.04396	13359.0875
434.17176	13411.1875
438.2966	13590.9875
442.41849	13882.3875
446.53742	14292.7875
450.6534	14698.9875
454.76644	14982.5875
458.87653	15011.5875
462.98368	14838.0875
467.08789	14586.6875
471.18916	14245.7875
475.2875	13931.8875
479.38291	13631.5875
483.4754	13363.4875
487.56496	13217.4875
491.6516	13086.3875
495.73531	13037.7875
499.81612	13093.8875
503.89401	13277.3875
507.96899	13411.4875
512.04106	13613.5875
516.11023	13774.0875
520.1765	13890.9875
524.23987	13916.1875
528.30034	13782.5875
532.35792	13646.1875
536.41261	13438.3875
540.46441	13156.0875
544.51333	13008.2875
548.55936	13064.3875
552.60252	13378.8875
556.64279	13781.3875
560.6802	13968.0875
564.71473	14152.6875
568.7464	14550.1875
572.7752	14871.6875
576.80114	14554.5875
580.82422	14235.9875
584.84444	14174.2875
588.86181	14301.4875
592.87633	14497.5875
596.888	14731.3875
600.89682	15025.1875
604.9028	16690.2875
608.90594	21254.1875
612.90624	27087.4875
616.90371	26056.1875
620.89834	18254.4875
624.89015	14363.7875
628.87913	13648.3875
632.86528	13834.5875
636.84862	14123.8875
640.82913	13885.7875
644.80683	13155.6875
648.78172	12634.0875
652.75379	12613.7875
656.72306	13134.9875
660.68952	13817.0875
664.65319	13666.4875
668.61405	12999.7875
672.57211	12694.8875
676.52738	12706.1875
680.47986	12639.5875
684.42955	12488.3875
688.37646	12364.4875
692.32058	12372.2875
696.26192	12498.4875
700.20048	12724.2875
704.13626	12842.1875
708.06928	12786.0875
711.99952	12642.0875
715.927	12649.5875
719.85171	12702.4875
723.77365	12736.5875
727.69284	12692.1875
731.60928	12596.2875
735.52295	12560.6875
739.43388	12608.5875
743.34206	12666.4875
747.24749	12693.1875
751.15017	12754.8875
755.05012	12937.2875
758.94733	13584.1875
762.8418	15246.6875
766.73354	18121.7875
770.62254	21100.8875
774.50882	22526.1875
778.39237	21416.4875
782.27321	18442.1875
786.15132	15524.5875
790.02671	13752.7875
793.89938	12940.1875
797.76935	12599.9875
801.6366	12435.9875
805.50115	12344.8875
809.36299	12278.8875
813.22213	12230.1875
817.07857	12190.7875
820.93231	12142.6875
824.78336	12139.0875
828.63172	12174.4875
832.47738	12211.3875
836.32036	12187.4875
840.16066	12120.7875
843.99827	12102.9875
847.8332	12082.8875
851.66546	12053.5875
855.49504	12068.8875
859.32195	12055.9875
863.1462	12038.1875
866.96777	12013.3875
870.78668	11984.0875
874.60293	12016.5875
878.41652	12089.3875
882.22745	12139.1875
886.03573	12218.2875
889.84136	12222.3875
893.64433	12168.5875
897.44466	12073.8875
901.24235	12033.9875
905.0374	11973.6875
908.8298	11852.2875
912.61957	11828.3875
916.40671	11843.7875
920.19121	11981.7875
923.97308	12145.9875
927.75233	12309.7875
931.52895	12456.6875
935.30295	12342.8875
939.07433	11959.6875
942.84309	11683.6875
946.60924	11466.0875
950.37278	11376.6875
954.13371	11335.5875
957.89203	11306.9875
961.64774	11264.7875
965.40086	11213.1875
969.15137	11150.7875
972.89929	11132.6875
976.64461	11138.9875
980.38733	11155.1875
984.12747	11170.8875
987.86502	11262.7875
991.59999	11368.7875
995.33237	11555.5875
999.06217	11830.7875
1002.78939	12209.3875
1006.51404	12512.7875
1010.23611	12780.2875
1013.95561	12908.9875
1017.67255	12918.1875
1021.38692	12784.6875
1025.09872	12552.0875
1028.80796	12451.6875
1032.51465	12624.6875
1036.21877	12834.9875
1039.92035	12904.8875
1043.61937	12882.8875
1047.31584	12792.3875
1051.00976	12611.0875
1054.70114	12527.7875
1058.38998	12474.9875
1062.07627	12523.2875
1065.76003	12549.1875
1069.44126	12635.9875
1073.11995	12798.0875
1076.79611	13028.3875
1080.46974	13310.8875
1084.14085	13722.9875
1087.80943	14049.8875
1091.47549	14232.1875
1095.13903	14028.2875
1098.80005	13580.8875
1102.45857	13225.0875
1106.11456	13084.1875
1109.76805	13208.1875
1113.41903	13586.9875
1117.06751	14113.7875
1120.71348	14822.8875
1124.35696	15539.8875
1127.99793	16115.1875
1131.63641	15967.0875
1135.2724	15151.1875
1138.90589	14430.2875
1142.5369	13944.8875
1146.16542	13594.0875
1149.79145	13373.6875
1153.415	13314.9875
1157.03607	13437.6875
1160.65467	13783.9875
1164.27079	14364.4875
1167.88443	15259.4875
1171.49561	16610.2875
1175.10432	18739.8875
1178.71056	21558.4875
1182.31434	24037.4875
1185.91565	24863.8875
1189.51451	24217.6875
1193.11091	22573.9875
1196.70485	20721.3875
1200.29634	19204.9875
1203.88538	18115.2875
1207.47197	16909.2875
1211.05612	15810.4875
1214.63782	15189.0875
1218.21708	14934.2875
1221.79391	14923.4875
1225.36829	15034.6875
1228.94024	14962.6875
1232.50976	14756.7875
1236.07685	14582.8875
1239.6415	14509.0875
1243.20374	14554.4875
1246.76355	14670.7875
1250.32093	14893.6875
1253.8759	15197.8875
1257.42845	15700.2875
1260.97859	16332.0875
1264.52631	16966.1875
1268.07163	17635.6875
1271.61453	18259.0875
1275.15503	18741.0875
1278.69312	19077.1875
1282.22882	19366.7875
1285.76211	19846.1875
1289.29301	20520.8875
1292.82151	21243.9875
1296.34761	22198.3875
1299.87133	23669.2875
1303.39266	25988.1875
1306.9116	29345.0875
1310.42815	32854.3875
1313.94233	34457.0875
1317.45412	33035.8875
1320.96354	30275.6875
1324.47058	27453.3875
1327.97525	25124.3875
1331.47754	23672.0875
1334.97747	23100.2875
1338.47502	23190.5875
1341.97022	23855.4875
1345.46305	25055.3875
1348.95352	26722.2875
1352.44163	29026.1875
1355.92738	32363.8875
1359.41078	37460.4875
1362.89183	42074.4875
1366.37053	40532.8875
1369.84688	33405.3875
1373.32088	26834.8875
1376.79254	22949.7875
1380.26186	20940.6875
1383.72883	19836.5875
1387.19347	18995.5875
1390.65578	18230.2875
1394.11575	17680.0875
1397.57339	17415.9875
1401.0287	17391.3875
1404.48168	17469.6875
1407.93234	17541.1875
1411.38068	17605.4875
1414.82669	17619.2875
1418.27039	17494.5875
1421.71177	17122.2875
1425.15083	16683.6875
1428.58758	16449.7875
1432.02203	16616.2875
1435.45416	16963.7875
1438.88399	17153.1875
1442.31151	17251.8875
1445.73673	17384.1875
1449.15965	17492.3875
1452.58027	17473.7875
1455.9986	17354.8875
1459.41463	17376.3875
1462.82837	17627.5875
1466.23982	18146.7875
1469.64898	18691.4875
1473.05586	19097.1875
1476.46045	19256.9875
1479.86276	19497.8875
1483.26279	19815.6875
1486.66054	20288.3875
1490.05602	21064.0875
1493.44922	22200.2875
1496.84016	24022.1875
1500.22882	26936.2875
1503.61521	31134.4875
1506.99934	35784.4875
1510.38121	39267.0875
1513.76081	39385.3875
1517.13816	35797.9875
1520.51324	30470.2875
1523.88607	25948.4875
1527.25665	23097.8875
1530.62498	21588.9875
1533.99105	20675.2875
1537.35488	20091.1875
1540.71647	19657.3875
1544.07581	19350.0875
1547.4329	19153.4875
1550.78776	19034.2875
1554.14038	19047.2875
1557.49077	19241.6875
1560.83892	19596.5875
1564.18484	20220.9875
1567.52853	21005.6875
1570.86999	21674.2875
1574.20922	22037.5875
1577.54624	21846.5875
1580.88103	20616.8875
1584.2136	19011.9875
1587.54395	18128.7875
1590.87208	18256.7875
1594.19801	19365.6875
1597.52172	21025.2875
1600.84321	21838.7875
1604.16251	21233.1875
1607.47959	19895.3875
1610.79447	18413.9875
1614.10715	16934.6875
1617.41763	15677.9875
1620.7259	14805.6875
1624.03199	14363.7875
1627.33587	14326.4875
1630.63757	14680.2875
1633.93707	15516.4875
1637.23439	17007.9875
1640.52951	19293.0875
1643.82246	22580.8875
1647.11321	26351.9875
1650.40179	28621.9875
1653.68819	27398.9875
1656.97241	23250.7875
1660.25446	18850.2875
1663.53433	15796.7875
1666.81203	13953.1875
1670.08756	12913.0875
1673.36092	12268.0875
1676.63211	11846.9875
1679.90115	11571.5875
1683.16801	11375.0875
1686.43272	11202.9875
1689.69527	11082.1875
1692.95567	10985.5875
1696.2139	10917.5875
1699.46999	10889.5875
1702.72392	10847.3875
1705.97571	10812.3875
1709.22535	10791.2875
1712.47284	10779.4875
1715.71819	10787.3875
1718.96139	10762.5875
1722.20246	10702.6875
1725.44139	10631.0875
1728.67818	10514.4875
1731.91284	10433.4875
1735.14537	10354.0875
1738.37576	10330.4875
1741.60403	10256.8875
1744.83017	10212.7875
1748.05418	10195.5875
1751.27607	10174.3875
1754.49584	10159.8875
1757.71349	10141.2875
1760.92903	10118.3875
1764.14244	10120.5875
1767.35375	10065.9875
1770.56294	10056.9875
1773.77002	10032.9875
1776.97499	9984.9875
1780.17785	9952.7875
1783.37861	9956.9875
1786.57727	9928.1875
1789.77382	9877.7875
1792.96828	9862.1875
1796.16064	9847.3875
1799.3509	9839.6875
1802.53907	9825.5875
1805.72514	9797.7875
1808.90913	9774.9875
1812.09102	9733.3875
1815.27083	9718.7875
1818.44856	9686.0875
1821.6242	9651.1875
1824.79776	9642.8875
1827.96924	9636.6875
1831.13864	9621.7875
1834.30597	9604.1875
1837.47122	9576.4875
1840.6344	9567.1875
1843.7955	9566.7875
1846.95454	9548.2875
1850.11151	9544.5875
1853.26642	9525.8875
1856.41926	9521.6875
1859.57004	9522.0875
1862.71876	9502.1875
1865.86542	9495.0875
1869.01003	9507.9875
1872.15258	9491.6875
1875.29308	9501.0875
1878.43152	9468.6875
1881.56792	9477.7875
1884.70227	9470.6875
1887.83457	9474.9875
1890.96482	9460.2875
1894.09304	9453.9875
1897.21921	9451.0875
1900.34335	9445.1875
1903.46544	9449.9875
1906.58551	9435.2875
1909.70353	9449.1875
1912.81953	9443.6875
1915.93349	9403.1875
1919.04543	9415.4875
1922.15534	9399.0875
1925.26322	9342.6875
1928.36908	9325.8875
1931.47292	9299.7875
1934.57473	9276.0875
1937.67453	9253.1875
1940.77232	9233.9875
1943.86808	9213.6875
1946.96184	9173.6875
1950.05358	9156.0875
1953.14331	9148.7875
1956.23103	9133.5875
1959.31675	9123.7875
1962.40046	9083.7875
1965.48217	9086.4875
1968.56188	9056.9875
1971.63959	9070.8875
1974.7153	9058.2875
1977.78901	9009.3875
1980.86073	8968.1875
1983.93046	8936.4875
1986.99819	8900.7875
1990.06394	8861.0875
1993.1277	8833.2875
1996.18947	8772.1875
1999.24925	8764.0875
2002.30706	8733.6875
2005.36288	8706.9875
2008.41672	8688.2875
2011.46859	8630.7875
2014.51848	8647.5875
2017.56639	8621.4875
2020.61233	8598.4875
2023.6563	8586.8875
2026.6983	8574.0875
2029.73833	8543.9875
2032.7764	8505.9875
2035.8125	8477.8875
2038.84664	8470.5875
2041.87881	8446.5875
2044.90903	8465.8875
2047.93729	8447.7875
2050.96359	8425.5875
2053.98794	8420.6875
2057.01034	8369.5875
2060.03078	8387.5875
2063.04927	8384.3875
2066.06582	8352.7875
2069.08042	8342.2875
2072.09307	8332.2875
2075.10378	8336.9875
2078.11255	8338.7875
2081.11938	8332.3875
2084.12426	8320.7875
2087.12722	8338.2875
2090.12824	8338.4875
2093.12732	8323.4875
2096.12447	8344.1875
2099.11969	8339.9875
2102.11299	8329.7875
2105.10435	8336.3875
2108.09379	8320.5875
2111.08131	8345.5875
2114.0669	8376.2875
2117.05057	8375.0875
2120.03233	8388.0875
2123.01216	8386.2875
2125.99008	8390.7875
2128.96609	8395.5875
2131.94018	8397.9875
2134.91236	8413.8875
2137.88263	8394.1875
2140.851	8364.1875
2143.81746	8438.4875
2146.78201	8404.2875
2149.74466	8407.8875
2152.7054	8403.6875
2155.66425	8384.6875
2158.6212	8380.8875
2161.57625	8395.8875
2164.52941	8366.6875
2167.48067	8378.0875
2170.43004	8370.6875
2173.37752	8380.2875
2176.32311	8385.7875
2179.26681	8372.0875
2182.20863	8356.5875
2185.14856	8374.6875
2188.08661	8358.6875
2191.02278	8349.3875
2193.95707	8341.2875
2196.88948	8345.0875
2199.82001	8340.0875
2202.74867	8325.3875
2205.67545	8321.6875
2208.60037	8343.0875
2211.52341	8303.7875
2214.44458	8285.8875
2217.36388	8307.4875
2220.28132	8305.2875
2223.1969	8289.9875
2226.11061	8274.8875
2229.02246	8233.8875
2231.93245	8225.2875
2234.84058	8189.1875
2237.74686	8165.0875
2240.65128	8167.6875
2243.55385	8172.4875
2246.45456	8157.4875
2249.35343	8146.6875
2252.25044	8150.8875
2255.14561	8173.4875
2258.03893	8159.0875
2260.93041	8171.7875
2263.82004	8142.2875
2266.70783	8116.3875
2269.59378	8130.8875
2272.4779	8082.8875
2275.36017	8072.4875
2278.24061	8054.7875
2281.11922	8051.6875
2283.996	8041.5875
2286.87094	8013.1875
2289.74405	7995.3875
2292.61534	7997.8875
2295.4848	7972.8875
2298.35243	7974.6875
2301.21824	7991.1875
2304.08223	7977.7875
2306.94439	7956.1875
2309.80474	7967.9875
2312.66327	7965.2875
2315.51999	7935.2875
2318.37489	7960.1875
2321.22797	7945.9875
2324.07925	7959.1875
2326.92871	7927.4875
2329.77637	7931.3875
2332.62222	7936.4875
2335.46626	7928.0875
2338.3085	7953.1875
2341.14893	7932.2875
2343.98756	7936.7875
2346.8244	7954.0875
2349.65943	7954.8875
2352.49267	7958.1875
2355.32411	7979.9875
2358.15376	7970.1875
2360.98161	7976.0875
2363.80768	7962.4875
2366.63195	7992.0875
2369.45444	7978.4875
2372.27514	7991.0875
2375.09405	7979.5875
2377.91118	7945.0875
2380.72652	7925.4875
2383.54009	7871.9875
2386.35187	7882.0875
2389.16188	7841.4875
2391.97011	7819.7875
2394.77657	7811.3875
2397.58125	7779.4875
2400.38416	7786.0875
2403.18529	7745.6875
2405.98466	7745.2875
2408.78226	7711.2875
2411.57809	7702.9875
2414.37216	7696.5875
2417.16446	7688.9875
2419.955	7660.6875
2422.74378	7659.8875
2425.5308	7672.8875
2428.31606	7664.0875
2431.09956	7673.2875
2433.88131	7639.6875
2436.6613	7649.0875
2439.43954	7652.8875
2442.21603	7664.0875
2444.99077	7658.1875
2447.76377	7680.5875
2450.53501	7669.2875
2453.30451	7671.0875
2456.07226	7657.2875
2458.83827	7657.6875
2461.60254	7662.2875
2464.36507	7662.5875
2467.12586	7646.3875
2469.88492	7668.2875
2472.64224	7676.8875
2475.39782	7673.2875
2478.15167	7687.0875
2480.90379	7676.1875
2483.65417	7707.7875
2486.40283	7749.8875
2489.14976	7751.1875
2491.89497	7766.3875
2494.63845	7752.5875
2497.3802	7758.9875
2500.12024	7775.9875
2502.85855	7754.9875
2505.59514	7723.0875
2508.33002	7685.4875
2511.06318	7687.0875
2513.79462	7626.1875
2516.52435	7605.6875
2519.25237	7583.5875
2521.97867	7582.3875
2524.70327	7596.4875
2527.42616	7568.5875
2530.14734	7553.4875
2532.86681	7538.0875
2535.58458	7536.8875
2538.30065	7518.0875
2541.01501	7544.9875
2543.72768	7520.1875
2546.43864	7529.1875
2549.14791	7500.0875
2551.85548	7499.6875
2554.56136	7519.3875
2557.26554	7501.9875
2559.96803	7499.4875
2562.66883	7501.7875
2565.36794	7495.8875
2568.06536	7493.4875
2570.7611	7504.7875
2573.45514	7458.1875
2576.14751	7453.4875
2578.83819	7461.2875
2581.52719	7443.8875
2584.21451	7431.2875
2586.90015	7421.0875
2589.58411	7410.6875
2592.2664	7408.5875
2594.94701	7407.2875
2597.62594	7408.9875
2600.30321	7373.4875
2602.9788	7391.0875
2605.65273	7368.2875
2608.32498	7387.5875
2610.99557	7381.4875
2613.66449	7388.1875
2616.33175	7384.4875
2618.99734	7373.1875
2621.66128	7385.1875
2624.32355	7383.2875
2626.98416	7382.1875
2629.64311	7375.3875
2632.30041	7378.4875
2634.95605	7350.8875
2637.61004	7362.1875
2640.26238	7315.0875
2642.91306	7335.6875
2645.56209	7327.9875
2648.20948	7311.8875
2650.85521	7298.4875
2653.4993	7319.7875
2656.14175	7322.1875
2658.78255	7328.9875
2661.42171	7322.9875
2664.05923	7327.5875
2666.6951	7324.8875
2669.32934	7355.1875
2671.96194	7333.9875
2674.59291	7361.1875
2677.22224	7365.9875
2679.84993	7359.4875
2682.476	7350.3875
2685.10043	7357.9875
2687.72324	7331.9875
2690.34441	7350.8875
2692.96396	7357.0875
2695.58188	7346.5875
2698.19818	7334.1875
2700.81285	7337.5875
2703.4259	7342.9875
2706.03733	7356.7875
2708.64714	7323.0875
2711.25533	7330.3875
2713.86191	7344.1875
2716.46687	7353.6875
2719.07021	7350.6875
2721.67194	7348.0875
2724.27206	7326.5875
2726.87057	7343.1875
2729.46747	7333.3875
2732.06276	7328.5875
2734.65644	7325.7875
2737.24852	7354.2875
2739.83899	7333.2875
2742.42786	7321.9875
2745.01513	7305.3875
2747.60079	7296.5875
2750.18486	7294.9875
2752.76733	7271.8875
2755.3482	7291.6875
2757.92747	7278.0875
2760.50515	7288.4875
2763.08123	7259.0875
2765.65573	7254.9875
2768.22863	7260.8875
2770.79994	7249.8875
2773.36967	7245.9875
2775.9378	7268.0875
2778.50435	7251.2875
2781.06932	7242.5875
2783.6327	7231.2875
2786.1945	7218.3875
2788.75471	7223.2875
2791.31335	7216.5875
2793.87041	7204.5875
2796.42589	7191.5875
2798.97979	7201.5875
2801.53212	7183.1875
2804.08288	7199.0875
2806.63206	7177.4875
2809.17967	7177.6875
2811.72571	7181.0875
2814.27018	7194.5875
2816.81308	7176.3875
2819.35442	7193.3875
2821.89419	7182.6875
2824.43239	7180.0875
2826.96904	7176.1875
2829.50412	7192.0875
2832.03763	7187.3875
2834.56959	7185.7875
2837.1	7158.1875
2839.62884	7165.5875
2842.15613	7133.9875
2844.68186	7153.1875
2847.20604	7151.6875
2849.72867	7160.9875
2852.24974	7155.0875
2854.76927	7157.7875
2857.28724	7143.6875
2859.80367	7144.6875
2862.31855	7151.0875
2864.83189	7182.1875
2867.34368	7175.8875
2869.85393	7172.3875
2872.36264	7187.0875
2874.8698	7198.4875
2877.37543	7189.9875
2879.87952	7198.2875
2882.38207	7202.8875
2884.88308	7182.2875
2887.38256	7202.3875
2889.88051	7166.1875
2892.37692	7179.8875
2894.8718	7160.1875
2897.36515	7152.3875
2899.85698	7164.7875
2902.34727	7196.0875
2904.83604	7182.3875
2907.32328	7190.4875
2909.809	7186.8875
2912.29319	7185.5875
2914.77587	7179.8875
2917.25702	7175.0875
2919.73665	7152.9875
2922.21476	7165.5875
2924.69136	7156.8875
2927.16644	7138.4875
2929.64	7124.5875
2932.11205	7139.8875
2934.58258	7094.4875
2937.05161	7081.7875
2939.51912	7089.8875
2941.98513	7090.5875
2944.44962	7056.0875
2946.91261	7039.9875
2949.37409	7061.6875
2951.83407	7051.7875
2954.29254	7074.0875
2956.74951	7045.9875
2959.20498	7035.4875
2961.65895	7013.4875
2964.11142	7011.6875
2966.56239	7015.9875
2969.01186	6993.7875
2971.45984	6999.6875
2973.90632	6981.4875
2976.35131	6962.0875
2978.7948	6941.0875
2981.23681	6938.5875
2983.67732	6920.4875
2986.11635	6906.7875
2988.55388	6908.4875
2990.98993	6895.3875
2993.4245	6871.6875
2995.85758	6882.4875
2998.28917	6857.9875
3000.71928	6847.5875
3003.14791	6839.8875
3005.57506	6838.3875
3008.00073	6809.9875
3010.42493	6856.8875
3012.84764	6837.7875
3015.26888	6836.1875
3017.68865	6815.4875
3020.10694	6808.0875
3022.52376	6777.4875
3024.9391	6769.0875
3027.35298	6752.4875
3029.76539	6742.7875
3032.17632	6726.2875
3034.5858	6722.0875
3036.9938	6709.8875
3039.40034	6696.9875
3041.80542	6676.9875
3044.20903	6671.5875
3046.61118	6661.1875
3049.01187	6649.2875
3051.4111	6626.8875
3053.80888	6624.5875
3056.20519	6585.1875
3058.60005	6599.4875
3060.99345	6600.5875
3063.3854	6569.0875
3065.7759	6560.1875
3068.16494	6545.8875
3070.55254	6522.2875
3072.93868	6533.2875
3075.32338	6498.6875
3077.70662	6491.7875
3080.08842	6487.4875
3082.46878	6479.7875
3084.84769	6459.1875
3087.22515	6456.8875
3089.60118	6460.7875
3091.97576	6468.9875
3094.3489	6444.6875
3096.72061	6463.5875
3099.09087	6467.1875
3101.4597	6444.8875
3103.82709	6446.5875
3106.19305	6439.6875
3108.55757	6445.4875
3110.92066	6417.5875
3113.28232	6401.7875
3115.64255	6393.2875
3118.00134	6373.4875
3120.35871	6361.1875
3122.71466	6360.0875
3125.06917	6347.3875
3127.42226	6352.9875
3129.77393	6366.5875
3132.12417	6362.1875
3134.47299	6373.6875
3136.82039	6364.9875
3139.16636	6369.0875
3141.51092	6361.3875
3143.85406	6370.5875
3146.19579	6389.4875
3148.53609	6377.0875
3150.87499	6384.2875
3153.21246	6376.2875
3155.54853	6371.9875
3157.88318	6378.3875
3160.21642	6362.5875
3162.54826	6360.5875
3164.87868	6373.3875
3167.2077	6363.3875
3169.5353	6362.7875
3171.86151	6350.6875
3174.18631	6344.7875
3176.5097	6347.3875
3178.83169	6358.3875
3181.15228	6350.8875
3183.47147	6353.1875
3185.78926	6343.9875
3188.10565	6336.5875
3190.42065	6341.6875
3192.73424	6342.2875
3195.04645	6354.0875
3197.35725	6353.0875
3199.66667	6378.9875
3201.97469	6387.0875
3204.28132	6379.1875
3206.58656	6398.3875
3208.8904	6398.5875
3211.19287	6420.5875
3213.49394	6434.1875
3215.79363	6404.0875
3218.09193	6415.8875
3220.38884	6401.4875
3222.68438	6406.6875
3224.97853	6393.2875
3227.2713	6369.9875
3229.56269	6372.2875
3231.8527	6381.4875
3234.14133	6379.1875
3236.42858	6347.1875
3238.71446	6353.8875
3240.99896	6349.7875
3243.28209	6363.1875
3245.56384	6357.8875
3247.84423	6365.1875
3250.12324	6358.9875
3252.40088	6342.2875
3254.67715	6341.6875
3256.95205	6345.7875
3259.22558	6325.6875
3261.49775	6330.2875
3263.76855	6328.2875
3266.03799	6307.7875
3268.30606	6298.1875
3270.57277	6297.3875
3272.83812	6288.7875
3275.10211	6289.1875
3277.36474	6286.4875
3279.62601	6305.2875
3281.88593	6276.4875
3284.14448	6292.2875
3286.40168	6297.7875
3288.65753	6275.2875
3290.91202	6282.5875
3293.16516	6272.1875
3295.41695	6245.8875
3297.66738	6220.6875
3299.91647	6199.6875
3302.16421	6183.3875
3304.4106	6191.2875
3306.65564	6160.7875
3308.89933	6105.2875
3311.14169	6087.4875
3313.38269	6033.3875
3315.62236	5995.6875
3317.86068	5944.0875
3320.09766	5881.1875
3322.3333	5815.3875
3324.5676	5818.5875
3326.80056	5725.7875
3329.03219	5688.4875
3331.26248	2.8875
3333.49143	-0.3125
3335.71905	0.5875
