Data from AgNP_FTO_APTES_UA_100uM_CRN_1uM_R6G_10uM_NaF_0.1M_Addition_RamanShift__7__11-56-20-162.txt Node

Date: Thu Mar 24 11:56:20 GMT 2022
User: TCL
Spectrometer: QEP01345
Trigger mode: 4
Integration Time (sec): 7.000000E0
Scans to average: 10
Electric dark correction enabled: true
Nonlinearity correction enabled: false
Boxcar width: 0
XAxis mode: Raman Shifts
Number of Pixels in Spectrum: 1044
>>>>>Begin Spectral Data<<<<<
46.04893	-0.4625
50.45542	-0.7625
54.85868	-0.0625
59.25871	-1.2625
63.6555	51.3375
68.04907	56.6375
72.43941	55.3375
76.82654	54.3375
81.21044	60.0375
85.59113	61.8375
89.96862	65.3375
94.34289	62.6375
98.71396	66.5375
103.08183	68.2375
107.4465	71.5375
111.80798	68.6375
116.16626	74.9375
120.52136	77.5375
124.87327	80.0375
129.222	85.7375
133.56755	87.8375
137.90993	96.9375
142.24913	106.9375
146.58517	119.2375
150.91804	144.5375
155.24774	171.5375
159.57429	215.7375
163.89768	277.1375
168.21792	374.6375
172.53501	512.4375
176.84895	719.8375
181.15975	1019.5375
185.46741	1418.4375
189.77193	1965.3375
194.07331	2628.3375
198.37157	3386.8375
202.6667	4192.1375
206.9587	4987.7375
211.24758	5777.1375
215.53334	6609.2375
219.81599	7494.8375
224.09553	8473.6375
228.37195	9579.7375
232.64527	10787.0375
236.91549	12018.5375
241.18261	13204.3375
245.44663	14261.0375
249.70755	15087.6375
253.96539	15750.1375
258.22014	16284.4375
262.4718	16711.7375
266.72039	17027.3375
270.96589	17147.6375
275.20832	17113.7375
279.44768	16963.1375
283.68397	16793.7375
287.91719	16623.7375
292.14735	16546.5375
296.37445	16569.0375
300.59849	16763.0375
304.81948	17042.7375
309.03742	17251.5375
313.25231	17312.2375
317.46415	17137.9375
321.67296	16813.1375
325.87872	16483.2375
330.08145	16339.2375
334.28114	16320.4375
338.47781	16385.6375
342.67145	16587.5375
346.86207	16980.6375
351.04966	17377.9375
355.23424	17790.6375
359.4158	18075.6375
363.59435	18188.6375
367.76989	18177.7375
371.94243	18133.1375
376.11196	18104.1375
380.27849	18136.4375
384.44203	18217.1375
388.60257	18306.1375
392.76012	18452.8375
396.91468	18652.8375
401.06626	18944.9375
405.21485	19078.0375
409.36047	18834.1375
413.50311	18350.7375
417.64277	17968.4375
421.77947	17896.1375
425.9132	17987.1375
430.04396	18099.6375
434.17176	18267.7375
438.2966	18521.6375
442.41849	19083.6375
446.53742	19997.6375
450.6534	20870.7375
454.76644	21374.9375
458.87653	21348.4375
462.98368	21026.1375
467.08789	20576.0375
471.18916	20087.0375
475.2875	19573.8375
479.38291	19159.2375
483.4754	18849.4375
487.56496	18525.6375
491.6516	18157.1375
495.73531	17831.6375
499.81612	17670.9375
503.89401	17727.0375
507.96899	17812.6375
512.04106	17768.8375
516.11023	17629.5375
520.1765	17510.6375
524.23987	17513.3375
528.30034	17542.9375
532.35792	17464.3375
536.41261	17198.9375
540.46441	16774.8375
544.51333	16555.1375
548.55936	16664.2375
552.60252	17129.7375
556.64279	17877.2375
560.6802	18507.3375
564.71473	18842.8375
568.7464	19338.1375
572.7752	20311.0375
576.80114	21169.2375
580.82422	21819.5375
584.84444	22744.9375
588.86181	24570.5375
592.87633	27064.1375
596.888	28136.8375
600.89682	26329.1375
604.9028	24413.6375
608.90594	25506.3375
612.90624	27657.4375
616.90371	25618.4375
620.89834	20249.8375
624.89015	17713.5375
628.87913	17401.8375
632.86528	17641.7375
636.84862	17687.3375
640.82913	17184.4375
644.80683	16445.3375
648.78172	15974.9375
652.75379	15921.8375
656.72306	16317.6375
660.68952	16787.5375
664.65319	16606.2375
668.61405	16037.8375
672.57211	15936.6375
676.52738	16073.9375
680.47986	16007.4375
684.42955	15809.2375
688.37646	15658.3375
692.32058	15749.2375
696.26192	16086.5375
700.20048	16463.5375
704.13626	16709.6375
708.06928	16747.9375
711.99952	16697.1375
715.927	16709.3375
719.85171	16753.5375
723.77365	16676.8375
727.69284	16351.9375
731.60928	16103.4375
735.52295	16136.5375
739.43388	16300.3375
743.34206	16472.2375
747.24749	16540.3375
751.15017	16735.9375
755.05012	17126.9375
758.94733	17816.2375
762.8418	19196.8375
766.73354	21542.3375
770.62254	23690.6375
774.50882	24032.5375
778.39237	22555.6375
782.27321	20376.1375
786.15132	18495.3375
790.02671	17268.1375
793.89938	16575.5375
797.76935	16197.8375
801.6366	16030.7375
805.50115	15887.1375
809.36299	15731.9375
813.22213	15642.2375
817.07857	15582.5375
820.93231	15509.2375
824.78336	15402.8375
828.63172	15381.6375
832.47738	15308.6375
836.32036	15323.4375
840.16066	15293.7375
843.99827	15312.3375
847.8332	15284.2375
851.66546	15320.3375
855.49504	15370.3375
859.32195	15367.7375
863.1462	15253.6375
866.96777	15207.1375
870.78668	15160.9375
874.60293	15176.8375
878.41652	15238.8375
882.22745	15330.3375
886.03573	15455.1375
889.84136	15440.7375
893.64433	15379.6375
897.44466	15314.2375
901.24235	15258.2375
905.0374	15125.6375
908.8298	15033.3375
912.61957	15046.9375
916.40671	15176.3375
920.19121	15456.2375
923.97308	15764.0375
927.75233	15923.5375
931.52895	15742.2375
935.30295	15306.9375
939.07433	14843.9375
942.84309	14494.6375
946.60924	14363.7375
950.37278	14337.3375
954.13371	14366.7375
957.89203	14332.1375
961.64774	14352.6375
965.40086	14403.5375
969.15137	14382.0375
972.89929	14357.3375
976.64461	14302.3375
980.38733	14257.4375
984.12747	14272.9375
987.86502	14360.4375
991.59999	14473.6375
995.33237	14690.7375
999.06217	15096.7375
1002.78939	15674.7375
1006.51404	16321.8375
1010.23611	16871.2375
1013.95561	17209.0375
1017.67255	17191.2375
1021.38692	16752.9375
1025.09872	16080.2375
1028.80796	15582.6375
1032.51465	15374.5375
1036.21877	15430.3375
1039.92035	15528.5375
1043.61937	15630.2375
1047.31584	15655.7375
1051.00976	15687.2375
1054.70114	15759.6375
1058.38998	15780.3375
1062.07627	15898.2375
1065.76003	16101.0375
1069.44126	16407.2375
1073.11995	16814.4375
1076.79611	17214.0375
1080.46974	17488.7375
1084.14085	17851.2375
1087.80943	18236.5375
1091.47549	18485.5375
1095.13903	18413.5375
1098.80005	17931.0375
1102.45857	17323.3375
1106.11456	16950.4375
1109.76805	16868.3375
1113.41903	17035.7375
1117.06751	17283.1375
1120.71348	17695.3375
1124.35696	18119.8375
1127.99793	18501.5375
1131.63641	18621.7375
1135.2724	18370.4375
1138.90589	18150.5375
1142.5369	18173.8375
1146.16542	18369.0375
1149.79145	18705.7375
1153.415	18969.6375
1157.03607	19246.0375
1160.65467	19752.8375
1164.27079	20689.7375
1167.88443	22108.2375
1171.49561	24162.8375
1175.10432	26977.4375
1178.71056	30560.0375
1182.31434	33643.9375
1185.91565	34549.5375
1189.51451	33431.2375
1193.11091	31633.1375
1196.70485	29686.5375
1200.29634	27814.6375
1203.88538	26314.3375
1207.47197	25233.3375
1211.05612	24526.6375
1214.63782	24063.5375
1218.21708	23817.3375
1221.79391	23842.7375
1225.36829	24080.0375
1228.94024	24062.5375
1232.50976	23380.3375
1236.07685	22347.0375
1239.6415	21578.6375
1243.20374	21252.4375
1246.76355	21204.0375
1250.32093	21506.2375
1253.8759	21956.2375
1257.42845	22708.0375
1260.97859	23708.1375
1264.52631	24757.7375
1268.07163	25820.0375
1271.61453	26764.8375
1275.15503	27691.7375
1278.69312	28688.7375
1282.22882	29925.1375
1285.76211	31657.8375
1289.29301	33783.8375
1292.82151	36110.2375
1296.34761	38685.0375
1299.87133	41738.9375
1303.39266	45026.7375
1306.9116	48205.1375
1310.42815	51076.5375
1313.94233	52553.4375
1317.45412	51521.1375
1320.96354	49013.2375
1324.47058	46436.1375
1327.97525	44225.1375
1331.47754	42526.3375
1334.97747	41275.9375
1338.47502	40444.9375
1341.97022	39930.5375
1345.46305	39699.7375
1348.95352	39908.4375
1352.44163	41014.5375
1355.92738	43497.4375
1359.41078	47526.5375
1362.89183	51077.0375
1366.37053	51114.6375
1369.84688	46131.6375
1373.32088	39270.6375
1376.79254	34757.7375
1380.26186	33022.8375
1383.72883	32564.0375
1387.19347	32236.6375
1390.65578	31651.8375
1394.11575	31473.7375
1397.57339	31688.9375
1401.0287	32061.5375
1404.48168	32171.5375
1407.93234	31766.2375
1411.38068	30941.1375
1414.82669	29854.4375
1418.27039	28649.1375
1421.71177	27489.3375
1425.15083	26474.8375
1428.58758	26027.1375
1432.02203	26296.5375
1435.45416	27072.6375
1438.88399	27772.6375
1442.31151	28172.9375
1445.73673	28492.6375
1449.15965	28702.9375
1452.58027	28724.8375
1455.9986	28598.5375
1459.41463	28694.4375
1462.82837	29249.5375
1466.23982	30136.1375
1469.64898	30972.4375
1473.05586	31581.2375
1476.46045	32005.3375
1479.86276	32190.3375
1483.26279	32265.5375
1486.66054	32534.4375
1490.05602	33191.1375
1493.44922	34184.3375
1496.84016	35015.6375
1500.22882	35890.2375
1503.61521	37071.6375
1506.99934	38428.7375
1510.38121	39298.5375
1513.76081	39060.7375
1517.13816	37584.5375
1520.51324	35555.9375
1523.88607	34217.6375
1527.25665	33773.0375
1530.62498	33753.5375
1533.99105	33522.2375
1537.35488	32814.6375
1540.71647	31606.9375
1544.07581	30189.1375
1547.4329	28820.2375
1550.78776	27755.1375
1554.14038	26975.3375
1557.49077	26671.8375
1560.83892	26692.8375
1564.18484	26966.5375
1567.52853	27462.8375
1570.86999	28102.8375
1574.20922	28800.1375
1577.54624	29144.8375
1580.88103	28770.5375
1584.2136	28394.9375
1587.54395	29063.1375
1590.87208	30905.2375
1594.19801	33577.2375
1597.52172	36391.5375
1600.84321	37321.4375
1604.16251	35268.3375
1607.47959	31631.1375
1610.79447	27692.1375
1614.10715	24389.0375
1617.41763	21940.9375
1620.7259	20492.6375
1624.03199	19827.5375
1627.33587	19929.8375
1630.63757	20800.2375
1633.93707	22772.4375
1637.23439	26404.8375
1640.52951	32106.2375
1643.82246	39323.2375
1647.11321	45370.3375
1650.40179	46592.3375
1653.68819	41877.8375
1656.97241	34143.6375
1660.25446	27009.3375
1663.53433	22040.3375
1666.81203	19068.4375
1670.08756	17304.9375
1673.36092	16239.7375
1676.63211	15562.5375
1679.90115	15125.5375
1683.16801	14776.8375
1686.43272	14542.2375
1689.69527	14302.8375
1692.95567	14161.6375
1696.2139	14046.6375
1699.46999	13960.3375
1702.72392	13860.0375
1705.97571	13826.2375
1709.22535	13783.7375
1712.47284	13778.6375
1715.71819	13746.5375
1718.96139	13688.6375
1722.20246	13610.0375
1725.44139	13529.1375
1728.67818	13418.3375
1731.91284	13281.5375
1735.14537	13158.1375
1738.37576	13091.3375
1741.60403	13022.4375
1744.83017	12954.9375
1748.05418	12900.5375
1751.27607	12843.6375
1754.49584	12794.4375
1757.71349	12772.9375
1760.92903	12770.2375
1764.14244	12742.7375
1767.35375	12724.1375
1770.56294	12707.3375
1773.77002	12681.5375
1776.97499	12647.3375
1780.17785	12628.8375
1783.37861	12573.7375
1786.57727	12554.1375
1789.77382	12512.5375
1792.96828	12481.2375
1796.16064	12475.4375
1799.3509	12441.6375
1802.53907	12389.1375
1805.72514	12318.6375
1808.90913	12301.0375
1812.09102	12251.6375
1815.27083	12231.6375
1818.44856	12203.9375
1821.6242	12169.1375
1824.79776	12124.5375
1827.96924	12123.4375
1831.13864	12136.8375
1834.30597	12114.1375
1837.47122	12117.1375
1840.6344	12111.1375
1843.7955	12115.6375
1846.95454	12086.4375
1850.11151	12091.0375
1853.26642	12095.6375
1856.41926	12089.0375
1859.57004	12059.7375
1862.71876	12047.8375
1865.86542	12037.5375
1869.01003	12035.0375
1872.15258	11994.3375
1875.29308	12020.1375
1878.43152	11983.1375
1881.56792	12008.0375
1884.70227	11992.6375
1887.83457	11969.9375
1890.96482	12004.2375
1894.09304	11970.4375
1897.21921	11961.8375
1900.34335	11967.0375
1903.46544	11955.8375
1906.58551	11949.9375
1909.70353	11944.7375
1912.81953	11873.6375
1915.93349	11839.0375
1919.04543	11832.3375
1922.15534	11789.2375
1925.26322	11756.6375
1928.36908	11708.9375
1931.47292	11667.1375
1934.57473	11619.4375
1937.67453	11617.5375
1940.77232	11586.1375
1943.86808	11541.3375
1946.96184	11520.1375
1950.05358	11482.5375
1953.14331	11445.7375
1956.23103	11441.9375
1959.31675	11388.0375
1962.40046	11366.0375
1965.48217	11330.7375
1968.56188	11292.8375
1971.63959	11269.4375
1974.7153	11217.0375
1977.78901	11199.3375
1980.86073	11135.0375
1983.93046	11084.5375
1986.99819	11007.0375
1990.06394	11007.7375
1993.1277	10982.5375
1996.18947	10939.5375
1999.24925	10908.7375
2002.30706	10861.9375
2005.36288	10805.4375
2008.41672	10791.6375
2011.46859	10744.9375
2014.51848	10735.7375
2017.56639	10680.3375
2020.61233	10658.4375
2023.6563	10612.3375
2026.6983	10584.5375
2029.73833	10586.9375
2032.7764	10550.4375
2035.8125	10529.1375
2038.84664	10484.2375
2041.87881	10464.5375
2044.90903	10460.7375
2047.93729	10431.6375
2050.96359	10438.6375
2053.98794	10396.8375
2057.01034	10384.8375
2060.03078	10397.1375
2063.04927	10337.1375
2066.06582	10327.2375
2069.08042	10340.0375
2072.09307	10345.6375
2075.10378	10311.5375
2078.11255	10317.4375
2081.11938	10351.5375
2084.12426	10347.9375
2087.12722	10362.4375
2090.12824	10361.7375
2093.12732	10347.7375
2096.12447	10365.9375
2099.11969	10345.6375
2102.11299	10372.5375
2105.10435	10385.2375
2108.09379	10358.4375
2111.08131	10365.6375
2114.0669	10336.2375
2117.05057	10369.4375
2120.03233	10361.2375
2123.01216	10392.2375
2125.99008	10351.0375
2128.96609	10357.0375
2131.94018	10358.9375
2134.91236	10350.2375
2137.88263	10359.5375
2140.851	10327.2375
2143.81746	10341.0375
2146.78201	10336.2375
2149.74466	10330.3375
2152.7054	10315.7375
2155.66425	10318.9375
2158.6212	10277.7375
2161.57625	10245.2375
2164.52941	10252.7375
2167.48067	10236.5375
2170.43004	10268.0375
2173.37752	10208.5375
2176.32311	10226.8375
2179.26681	10231.7375
2182.20863	10207.9375
2185.14856	10209.9375
2188.08661	10188.0375
2191.02278	10226.5375
2193.95707	10167.0375
2196.88948	10161.0375
2199.82001	10150.6375
2202.74867	10156.1375
2205.67545	10114.8375
2208.60037	10089.1375
2211.52341	10062.5375
2214.44458	10066.0375
2217.36388	10044.8375
2220.28132	10020.7375
2223.1969	10004.9375
2226.11061	9991.5375
2229.02246	9985.7375
2231.93245	9965.4375
2234.84058	9931.5375
2237.74686	9935.5375
2240.65128	9967.0375
2243.55385	9926.6375
2246.45456	9926.7375
2249.35343	9890.1375
2252.25044	9874.1375
2255.14561	9865.8375
2258.03893	9844.8375
2260.93041	9810.1375
2263.82004	9773.0375
2266.70783	9742.9375
2269.59378	9714.6375
2272.4779	9688.1375
2275.36017	9659.4375
2278.24061	9650.7375
2281.11922	9648.7375
2283.996	9611.2375
2286.87094	9610.3375
2289.74405	9568.2375
2292.61534	9572.1375
2295.4848	9551.1375
2298.35243	9557.4375
2301.21824	9536.5375
2304.08223	9532.6375
2306.94439	9541.0375
2309.80474	9530.3375
2312.66327	9525.0375
2315.51999	9501.9375
2318.37489	9504.1375
2321.22797	9490.9375
2324.07925	9480.1375
2326.92871	9488.0375
2329.77637	9455.5375
2332.62222	9457.8375
2335.46626	9426.8375
2338.3085	9431.0375
2341.14893	9441.2375
2343.98756	9433.2375
2346.8244	9429.6375
2349.65943	9452.9375
2352.49267	9434.6375
2355.32411	9439.6375
2358.15376	9417.6375
2360.98161	9437.0375
2363.80768	9428.0375
2366.63195	9439.6375
2369.45444	9433.4375
2372.27514	9418.6375
2375.09405	9413.6375
2377.91118	9388.5375
2380.72652	9368.2375
2383.54009	9323.8375
2386.35187	9357.2375
2389.16188	9294.9375
2391.97011	9260.1375
2394.77657	9264.8375
2397.58125	9219.3375
2400.38416	9232.1375
2403.18529	9184.3375
2405.98466	9200.9375
2408.78226	9193.6375
2411.57809	9161.2375
2414.37216	9158.7375
2417.16446	9140.6375
2419.955	9115.3375
2422.74378	9109.7375
2425.5308	9099.3375
2428.31606	9085.2375
2431.09956	9103.0375
2433.88131	9091.1375
2436.6613	9093.0375
2439.43954	9095.7375
2442.21603	9098.6375
2444.99077	9091.0375
2447.76377	9100.3375
2450.53501	9099.5375
2453.30451	9130.2375
2456.07226	9134.4375
2458.83827	9104.3375
2461.60254	9107.2375
2464.36507	9120.0375
2467.12586	9121.3375
2469.88492	9115.9375
2472.64224	9096.6375
2475.39782	9095.2375
2478.15167	9102.8375
2480.90379	9121.7375
2483.65417	9118.9375
2486.40283	9111.3375
2489.14976	9125.9375
2491.89497	9146.5375
2494.63845	9132.3375
2497.3802	9142.0375
2500.12024	9154.1375
2502.85855	9145.2375
2505.59514	9129.3375
2508.33002	9106.1375
2511.06318	9096.7375
2513.79462	9063.9375
2516.52435	9048.6375
2519.25237	9050.8375
2521.97867	9040.8375
2524.70327	9020.9375
2527.42616	9006.5375
2530.14734	9025.7375
2532.86681	8998.9375
2535.58458	8994.5375
2538.30065	8982.8375
2541.01501	9000.3375
2543.72768	9014.3375
2546.43864	8955.2375
2549.14791	8974.2375
2551.85548	8979.7375
2554.56136	8953.3375
2557.26554	8934.8375
2559.96803	8943.9375
2562.66883	8950.7375
2565.36794	8946.1375
2568.06536	8967.3375
2570.7611	8945.4375
2573.45514	8951.8375
2576.14751	8899.1375
2578.83819	8915.1375
2581.52719	8930.8375
2584.21451	8928.0375
2586.90015	8907.6375
2589.58411	8878.7375
2592.2664	8849.4375
2594.94701	8849.1375
2597.62594	8843.2375
2600.30321	8829.3375
2602.9788	8848.0375
2605.65273	8831.9375
2608.32498	8833.3375
2610.99557	8833.0375
2613.66449	8838.7375
2616.33175	8834.7375
2618.99734	8840.1375
2621.66128	8828.4375
2624.32355	8832.1375
2626.98416	8837.3375
2629.64311	8816.9375
2632.30041	8810.5375
2634.95605	8791.8375
2637.61004	8774.1375
2640.26238	8774.0375
2642.91306	8791.5375
2645.56209	8805.1375
2648.20948	8808.2375
2650.85521	8827.5375
2653.4993	8815.2375
2656.14175	8827.2375
2658.78255	8863.6375
2661.42171	8848.6375
2664.05923	8872.0375
2666.6951	8869.9375
2669.32934	8863.7375
2671.96194	8870.6375
2674.59291	8886.5375
2677.22224	8881.7375
2679.84993	8861.0375
2682.476	8870.3375
2685.10043	8872.6375
2687.72324	8855.5375
2690.34441	8876.9375
2692.96396	8846.6375
2695.58188	8878.9375
2698.19818	8852.4375
2700.81285	8856.1375
2703.4259	8845.5375
2706.03733	8856.8375
2708.64714	8847.6375
2711.25533	8859.4375
2713.86191	8850.5375
2716.46687	8889.4375
2719.07021	8895.3375
2721.67194	8901.3375
2724.27206	8893.0375
2726.87057	8891.3375
2729.46747	8904.7375
2732.06276	8910.4375
2734.65644	8886.5375
2737.24852	8895.4375
2739.83899	8865.0375
2742.42786	8906.8375
2745.01513	8859.8375
2747.60079	8866.3375
2750.18486	8873.4375
2752.76733	8851.0375
2755.3482	8868.7375
2757.92747	8862.4375
2760.50515	8852.0375
2763.08123	8877.7375
2765.65573	8849.9375
2768.22863	8849.4375
2770.79994	8847.1375
2773.36967	8835.6375
2775.9378	8847.4375
2778.50435	8839.0375
2781.06932	8841.6375
2783.6327	8838.4375
2786.1945	8816.1375
2788.75471	8817.4375
2791.31335	8793.1375
2793.87041	8770.0375
2796.42589	8764.1375
2798.97979	8776.8375
2801.53212	8771.1375
2804.08288	8772.4375
2806.63206	8777.3375
2809.17967	8757.6375
2811.72571	8744.9375
2814.27018	8729.2375
2816.81308	8721.9375
2819.35442	8682.3375
2821.89419	8697.1375
2824.43239	8702.1375
2826.96904	8682.0375
2829.50412	8704.1375
2832.03763	8677.0375
2834.56959	8644.8375
2837.1	8647.5375
2839.62884	8666.5375
2842.15613	8642.4375
2844.68186	8646.6375
2847.20604	8656.0375
2849.72867	8675.4375
2852.24974	8668.9375
2854.76927	8636.9375
2857.28724	8641.6375
2859.80367	8670.8375
2862.31855	8633.0375
2864.83189	8622.1375
2867.34368	8621.7375
2869.85393	8615.7375
2872.36264	8633.6375
2874.8698	8636.5375
2877.37543	8655.9375
2879.87952	8633.1375
2882.38207	8625.8375
2884.88308	8621.2375
2887.38256	8609.0375
2889.88051	8611.9375
2892.37692	8597.4375
2894.8718	8626.4375
2897.36515	8622.9375
2899.85698	8615.0375
2902.34727	8636.5375
2904.83604	8632.4375
2907.32328	8646.1375
2909.809	8626.4375
2912.29319	8642.1375
2914.77587	8648.5375
2917.25702	8640.7375
2919.73665	8627.2375
2922.21476	8620.7375
2924.69136	8610.7375
2927.16644	8619.1375
2929.64	8609.8375
2932.11205	8589.3375
2934.58258	8546.7375
2937.05161	8572.1375
2939.51912	8579.9375
2941.98513	8569.8375
2944.44962	8534.8375
2946.91261	8500.0375
2949.37409	8527.8375
2951.83407	8522.6375
2954.29254	8510.3375
2956.74951	8489.4375
2959.20498	8479.3375
2961.65895	8456.2375
2964.11142	8442.4375
2966.56239	8411.9375
2969.01186	8404.9375
2971.45984	8388.0375
2973.90632	8351.5375
2976.35131	8317.4375
2978.7948	8292.9375
2981.23681	8258.9375
2983.67732	8235.5375
2986.11635	8208.7375
2988.55388	8206.3375
2990.98993	8174.0375
2993.4245	8160.8375
2995.85758	8136.1375
2998.28917	8112.7375
3000.71928	8100.7375
3003.14791	8086.7375
3005.57506	8079.3375
3008.00073	8054.9375
3010.42493	8049.1375
3012.84764	8032.6375
3015.26888	8014.4375
3017.68865	8003.3375
3020.10694	7975.4375
3022.52376	7954.5375
3024.9391	7942.8375
3027.35298	7927.6375
3029.76539	7922.4375
3032.17632	7893.7375
3034.5858	7885.4375
3036.9938	7892.7375
3039.40034	7854.3375
3041.80542	7856.8375
3044.20903	7839.2375
3046.61118	7823.7375
3049.01187	7794.5375
3051.4111	7793.2375
3053.80888	7774.7375
3056.20519	7775.6375
3058.60005	7753.3375
3060.99345	7721.7375
3063.3854	7714.3375
3065.7759	7693.4375
3068.16494	7674.1375
3070.55254	7654.5375
3072.93868	7622.1375
3075.32338	7602.3375
3077.70662	7588.7375
3080.08842	7576.2375
3082.46878	7558.8375
3084.84769	7556.4375
3087.22515	7547.0375
3089.60118	7547.1375
3091.97576	7512.8375
3094.3489	7502.2375
3096.72061	7498.3375
3099.09087	7490.4375
3101.4597	7476.3375
3103.82709	7442.4375
3106.19305	7427.5375
3108.55757	7425.3375
3110.92066	7402.1375
3113.28232	7384.6375
3115.64255	7386.8375
3118.00134	7352.8375
3120.35871	7335.5375
3122.71466	7340.2375
3125.06917	7324.8375
3127.42226	7319.2375
3129.77393	7319.0375
3132.12417	7305.6375
3134.47299	7301.0375
3136.82039	7292.5375
3139.16636	7300.3375
3141.51092	7314.7375
3143.85406	7290.5375
3146.19579	7266.0375
3148.53609	7253.4375
3150.87499	7262.2375
3153.21246	7267.1375
3155.54853	7273.5375
3157.88318	7232.2375
3160.21642	7236.5375
3162.54826	7224.9375
3164.87868	7218.4375
3167.2077	7194.1375
3169.5353	7203.9375
3171.86151	7224.5375
3174.18631	7215.0375
3176.5097	7197.2375
3178.83169	7188.4375
3181.15228	7177.8375
3183.47147	7189.3375
3185.78926	7181.3375
3188.10565	7152.7375
3190.42065	7147.8375
3192.73424	7171.9375
3195.04645	7161.3375
3197.35725	7168.0375
3199.66667	7166.1375
3201.97469	7161.9375
3204.28132	7147.6375
3206.58656	7122.8375
3208.8904	7138.3375
3211.19287	7126.0375
3213.49394	7128.3375
3215.79363	7118.1375
3218.09193	7109.9375
3220.38884	7090.1375
3222.68438	7120.4375
3224.97853	7096.7375
3227.2713	7106.9375
3229.56269	7097.5375
3231.8527	7081.6375
3234.14133	7077.4375
3236.42858	7061.9375
3238.71446	7075.5375
3240.99896	7036.3375
3243.28209	7054.3375
3245.56384	7054.0375
3247.84423	7046.9375
3250.12324	7021.6375
3252.40088	6986.1375
3254.67715	6970.1375
3256.95205	6955.0375
3259.22558	6931.7375
3261.49775	6919.4375
3263.76855	6920.1375
3266.03799	6906.3375
3268.30606	6893.4375
3270.57277	6885.2375
3272.83812	6878.7375
3275.10211	6867.6375
3277.36474	6867.5375
3279.62601	6884.5375
3281.88593	6858.6375
3284.14448	6885.1375
3286.40168	6897.2375
3288.65753	6865.1375
3290.91202	6859.3375
3293.16516	6856.6375
3295.41695	6839.7375
3297.66738	6796.3375
3299.91647	6783.6375
3302.16421	6726.8375
3304.4106	6716.1375
3306.65564	6682.8375
3308.89933	6637.1375
3311.14169	6571.1375
3313.38269	6533.9375
3315.62236	6476.8375
3317.86068	6430.4375
3320.09766	6366.6375
3322.3333	6268.7375
3324.5676	6290.6375
3326.80056	6174.8375
3329.03219	6157.1375
3331.26248	3.2375
3333.49143	-1.1625
3335.71905	0.2375
