Data from AgNP_FTO_APTES_UA_100uM_CRN_50uM_R6G_10uM_NaF_0.1M_Addition_RamanShift__8__17-17-10-530.txt Node

Date: Thu Mar 24 17:17:10 GMT 2022
User: TCL
Spectrometer: QEP01345
Trigger mode: 4
Integration Time (sec): 7.000000E0
Scans to average: 10
Electric dark correction enabled: true
Nonlinearity correction enabled: false
Boxcar width: 0
XAxis mode: Raman Shifts
Number of Pixels in Spectrum: 1044
>>>>>Begin Spectral Data<<<<<
46.04893	-1.4
50.45542	-0.8
54.85868	0.8
59.25871	-0.1
63.6555	41.4
68.04907	43.9
72.43941	42.1
76.82654	44.7
81.21044	51
85.59113	48.6
89.96862	50.6
94.34289	52.4
98.71396	53.8
103.08183	55.4
107.4465	55.4
111.80798	57
116.16626	59.9
120.52136	60
124.87327	60.9
129.222	69.5
133.56755	70.1
137.90993	75.5
142.24913	88.9
146.58517	92.8
150.91804	111
155.24774	134.5
159.57429	172
163.89768	214.9
168.21792	290.5
172.53501	398.2
176.84895	559
181.15975	790.6
185.46741	1115.4
189.77193	1540.6
194.07331	2056.8
198.37157	2669.3
202.6667	3297.7
206.9587	3920.7
211.24758	4566.3
215.53334	5196.5
219.81599	5889.9
224.09553	6636.4
228.37195	7480.2
232.64527	8433.5
236.91549	9415.9
241.18261	10323.7
245.44663	11190.1
249.70755	11905.9
253.96539	12544.8
258.22014	13020.7
262.4718	13429.1
266.72039	13761
270.96589	13891.9
275.20832	13945.1
279.44768	13836.7
283.68397	13654.1
287.91719	13528
292.14735	13493.3
296.37445	13559
300.59849	13691.8
304.81948	13885.2
309.03742	14015.2
313.25231	13992.4
317.46415	13764.8
321.67296	13402
325.87872	13081.2
330.08145	12907.2
334.28114	12943.8
338.47781	13049.7
342.67145	13246.2
346.86207	13516.8
351.04966	13816.7
355.23424	14197.7
359.4158	14407.9
363.59435	14516.4
367.76989	14592.1
371.94243	14648.1
376.11196	14678.1
380.27849	14692.1
384.44203	14727.8
388.60257	14788.2
392.76012	14874.9
396.91468	14997
401.06626	15225.5
405.21485	15365.2
409.36047	15213
413.50311	14877.5
417.64277	14547.7
421.77947	14420.7
425.9132	14413.9
430.04396	14502.4
434.17176	14632.8
438.2966	14780.9
442.41849	15081.2
446.53742	15509.2
450.6534	15936.1
454.76644	16197.9
458.87653	16229
462.98368	16078.4
467.08789	15902.4
471.18916	15707.3
475.2875	15489.1
479.38291	15288.2
483.4754	15115.9
487.56496	14927.9
491.6516	14757.8
495.73531	14636
499.81612	14573.3
503.89401	14661.8
507.96899	14762.2
512.04106	14759.3
516.11023	14781.8
520.1765	14758.3
524.23987	14759.6
528.30034	14693.2
532.35792	14627
536.41261	14508.7
540.46441	14339.5
544.51333	14315.4
548.55936	14403.4
552.60252	14677.5
556.64279	15010.2
560.6802	15236.8
564.71473	15361.7
568.7464	15544.8
572.7752	15894
576.80114	16075.8
580.82422	16290.2
584.84444	16555.5
588.86181	17069.5
592.87633	17776.7
596.888	18206.6
600.89682	18086.4
604.9028	18199.4
608.90594	19827.1
612.90624	21921.6
616.90371	20763.6
620.89834	16934
624.89015	15090.7
628.87913	14829
632.86528	15083.3
636.84862	15222.5
640.82913	15042
644.80683	14636.5
648.78172	14309.8
652.75379	14221.5
656.72306	14409
660.68952	14725.9
664.65319	14604
668.61405	14252.1
672.57211	14097.2
676.52738	14155.3
680.47986	14125.4
684.42955	14068.1
688.37646	13980.4
692.32058	14011.5
696.26192	14126.5
700.20048	14282.3
704.13626	14410
708.06928	14436.3
711.99952	14364.1
715.927	14354
719.85171	14387.4
723.77365	14397.1
727.69284	14340.1
731.60928	14258.7
735.52295	14238.7
739.43388	14263.8
743.34206	14337.4
747.24749	14358.5
751.15017	14425.8
755.05012	14568
758.94733	14994.9
762.8418	15949.1
766.73354	17576.7
770.62254	19063.2
774.50882	19504.7
778.39237	18672
782.27321	17049
786.15132	15666.2
790.02671	14754
793.89938	14315
797.76935	14086.2
801.6366	13951
805.50115	13919.2
809.36299	13845.1
813.22213	13795.9
817.07857	13822.6
820.93231	13785
824.78336	13733.6
828.63172	13729.7
832.47738	13715.8
836.32036	13661.1
840.16066	13660.3
843.99827	13677
847.8332	13662.2
851.66546	13661.7
855.49504	13667.3
859.32195	13683.4
863.1462	13655.5
866.96777	13640.7
870.78668	13634.5
874.60293	13661.8
878.41652	13670.9
882.22745	13734.8
886.03573	13806.5
889.84136	13826.4
893.64433	13719.2
897.44466	13704.5
901.24235	13651.8
905.0374	13599.1
908.8298	13537.1
912.61957	13498
916.40671	13563.8
920.19121	13672.6
923.97308	13808.8
927.75233	13809.4
931.52895	13731
935.30295	13562.5
939.07433	13326
942.84309	13145
946.60924	13017.5
950.37278	13023.2
954.13371	12974.5
957.89203	12952.9
961.64774	12971.3
965.40086	12933.9
969.15137	12910.2
972.89929	12881.2
976.64461	12839
980.38733	12821.9
984.12747	12830
987.86502	12872.3
991.59999	12955.4
995.33237	13032.3
999.06217	13223.4
1002.78939	13495.2
1006.51404	13783.3
1010.23611	14027.2
1013.95561	14144.9
1017.67255	14127
1021.38692	13962.4
1025.09872	13689.2
1028.80796	13482.4
1032.51465	13354.4
1036.21877	13324.9
1039.92035	13414.3
1043.61937	13454.2
1047.31584	13526.5
1051.00976	13618.4
1054.70114	13640
1058.38998	13684.6
1062.07627	13733.7
1065.76003	13872.4
1069.44126	14009.3
1073.11995	14226.3
1076.79611	14436.8
1080.46974	14588.4
1084.14085	14738.2
1087.80943	14947.1
1091.47549	15057.9
1095.13903	14986.2
1098.80005	14729.9
1102.45857	14460.4
1106.11456	14322.2
1109.76805	14292.2
1113.41903	14418.9
1117.06751	14624.5
1120.71348	14940.7
1124.35696	15254.8
1127.99793	15558.8
1131.63641	15584.9
1135.2724	15353.4
1138.90589	15061.6
1142.5369	14930.2
1146.16542	14838.7
1149.79145	14851.2
1153.415	14901.3
1157.03607	15012.6
1160.65467	15248.1
1164.27079	15707.9
1167.88443	16463
1171.49561	17472.6
1175.10432	18973.8
1178.71056	20827.2
1182.31434	22399.2
1185.91565	22934.3
1189.51451	22498.2
1193.11091	21650.1
1196.70485	20673.5
1200.29634	19732.5
1203.88538	18954.2
1207.47197	18228.1
1211.05612	17604.7
1214.63782	17157.7
1218.21708	16934.8
1221.79391	16898.1
1225.36829	16874.4
1228.94024	16790.2
1232.50976	16495
1236.07685	16209.8
1239.6415	16021.3
1243.20374	15992.4
1246.76355	16008.2
1250.32093	16102.4
1253.8759	16305.2
1257.42845	16667.4
1260.97859	17103.2
1264.52631	17574.1
1268.07163	18026.1
1271.61453	18430.1
1275.15503	18790.4
1278.69312	19125.5
1282.22882	19557.2
1285.76211	20151.4
1289.29301	20928.7
1292.82151	21789.2
1296.34761	22856.1
1299.87133	24135.4
1303.39266	25734.1
1306.9116	27477.6
1310.42815	29273.2
1313.94233	30217
1317.45412	29791.5
1320.96354	28750.7
1324.47058	27485.3
1327.97525	26250.7
1331.47754	25281.7
1334.97747	24684
1338.47502	24536.5
1341.97022	24665.3
1345.46305	25091.9
1348.95352	25703.3
1352.44163	26597.1
1355.92738	28074.6
1359.41078	30268.5
1362.89183	32271.1
1366.37053	31917.9
1369.84688	28564.5
1373.32088	24753.3
1376.79254	22336.1
1380.26186	21228.9
1383.72883	20722.2
1387.19347	20348.9
1390.65578	19991
1394.11575	19700.9
1397.57339	19682.1
1401.0287	19764.3
1404.48168	19854.5
1407.93234	19682.8
1411.38068	19433.9
1414.82669	18983.2
1418.27039	18461.1
1421.71177	17851.8
1425.15083	17283.8
1428.58758	17047.6
1432.02203	17081.1
1435.45416	17380
1438.88399	17669.1
1442.31151	17914.2
1445.73673	18087
1449.15965	18231
1452.58027	18287.4
1455.9986	18244.1
1459.41463	18302.7
1462.82837	18587.1
1466.23982	19030.6
1469.64898	19549.9
1473.05586	19984.6
1476.46045	20286.7
1479.86276	20468.5
1483.26279	20572.4
1486.66054	20728
1490.05602	21108.8
1493.44922	21684.7
1496.84016	22514.6
1500.22882	23711
1503.61521	25306.5
1506.99934	26960.3
1510.38121	28008.3
1513.76081	27789.8
1517.13816	26331.4
1520.51324	24349.7
1523.88607	22783.3
1527.25665	21887.4
1530.62498	21489.7
1533.99105	21150.8
1537.35488	20762
1540.71647	20257.5
1544.07581	19668
1547.4329	19143.7
1550.78776	18680.5
1554.14038	18410.8
1557.49077	18311.3
1560.83892	18451.5
1564.18484	18698.9
1567.52853	19132
1570.86999	19556.5
1574.20922	19905.7
1577.54624	19965.4
1580.88103	19473.6
1584.2136	18877.9
1587.54395	18730.3
1590.87208	19194.9
1594.19801	20220
1597.52172	21483.2
1600.84321	21964.6
1604.16251	21216.6
1607.47959	19891.9
1610.79447	18371.6
1614.10715	17087.1
1617.41763	15968.1
1620.7259	15207.9
1624.03199	14783.7
1627.33587	14716.4
1630.63757	15019.2
1633.93707	15787.3
1637.23439	17204.1
1640.52951	19488.9
1643.82246	22469.9
1647.11321	25191.9
1650.40179	26157.4
1653.68819	24560.3
1656.97241	21340.3
1660.25446	18085.5
1663.53433	15744.9
1666.81203	14270.6
1670.08756	13367.7
1673.36092	12849.8
1676.63211	12486.2
1679.90115	12237
1683.16801	12040
1686.43272	11884.8
1689.69527	11763.5
1692.95567	11673.3
1696.2139	11606.6
1699.46999	11519.8
1702.72392	11471
1705.97571	11462.5
1709.22535	11419.8
1712.47284	11365.3
1715.71819	11354.4
1718.96139	11259.2
1722.20246	11236.3
1725.44139	11185.8
1728.67818	11110.7
1731.91284	11029.5
1735.14537	10958.6
1738.37576	10896
1741.60403	10877.2
1744.83017	10818.7
1748.05418	10800.2
1751.27607	10755.7
1754.49584	10735
1757.71349	10715.8
1760.92903	10671.3
1764.14244	10686.8
1767.35375	10668
1770.56294	10633.8
1773.77002	10581.7
1776.97499	10539
1780.17785	10533.8
1783.37861	10501.6
1786.57727	10485.5
1789.77382	10456.3
1792.96828	10428.4
1796.16064	10428.7
1799.3509	10385
1802.53907	10353.4
1805.72514	10337.4
1808.90913	10305.9
1812.09102	10261.5
1815.27083	10232.3
1818.44856	10214.4
1821.6242	10192.6
1824.79776	10166.6
1827.96924	10142.5
1831.13864	10110.2
1834.30597	10085
1837.47122	10077.7
1840.6344	10061.2
1843.7955	10064.1
1846.95454	10047.6
1850.11151	10027.4
1853.26642	10036.5
1856.41926	10028.2
1859.57004	10028.5
1862.71876	9970
1865.86542	9972.6
1869.01003	9964.9
1872.15258	9942.3
1875.29308	9947
1878.43152	9933.5
1881.56792	9918.7
1884.70227	9909.9
1887.83457	9891.6
1890.96482	9893.1
1894.09304	9870.5
1897.21921	9852.2
1900.34335	9837.7
1903.46544	9839.1
1906.58551	9821.2
1909.70353	9807.7
1912.81953	9782.7
1915.93349	9774.7
1919.04543	9750.7
1922.15534	9739.1
1925.26322	9694.2
1928.36908	9673.1
1931.47292	9661.4
1934.57473	9608.9
1937.67453	9604.1
1940.77232	9592.1
1943.86808	9551.1
1946.96184	9502.9
1950.05358	9474.6
1953.14331	9436.3
1956.23103	9391.5
1959.31675	9360.8
1962.40046	9323.5
1965.48217	9329.7
1968.56188	9307.9
1971.63959	9248.5
1974.7153	9233.9
1977.78901	9196.2
1980.86073	9183.7
1983.93046	9137.9
1986.99819	9119.9
1990.06394	9086.6
1993.1277	9050.7
1996.18947	9029.6
1999.24925	9001.6
2002.30706	8950.5
2005.36288	8900.9
2008.41672	8878.1
2011.46859	8861.6
2014.51848	8831.8
2017.56639	8807.9
2020.61233	8770
2023.6563	8754.5
2026.6983	8703.3
2029.73833	8682.8
2032.7764	8647.8
2035.8125	8628.4
2038.84664	8616.6
2041.87881	8604.3
2044.90903	8570.3
2047.93729	8567.7
2050.96359	8548.9
2053.98794	8528.5
2057.01034	8510
2060.03078	8491.4
2063.04927	8476.4
2066.06582	8483.2
2069.08042	8456.1
2072.09307	8454.3
2075.10378	8460.9
2078.11255	8460.9
2081.11938	8456
2084.12426	8445.4
2087.12722	8437.2
2090.12824	8439
2093.12732	8393.6
2096.12447	8406.7
2099.11969	8426.6
2102.11299	8440.1
2105.10435	8430.3
2108.09379	8406.6
2111.08131	8412.3
2114.0669	8426.5
2117.05057	8415.8
2120.03233	8423.8
2123.01216	8416.7
2125.99008	8448.2
2128.96609	8423.8
2131.94018	8435.1
2134.91236	8423.4
2137.88263	8413.7
2140.851	8433.3
2143.81746	8425.3
2146.78201	8403.1
2149.74466	8393.9
2152.7054	8388.9
2155.66425	8384.5
2158.6212	8368.5
2161.57625	8379
2164.52941	8356.2
2167.48067	8355.3
2170.43004	8336.4
2173.37752	8339.2
2176.32311	8327.5
2179.26681	8330.2
2182.20863	8345.1
2185.14856	8336.3
2188.08661	8335.2
2191.02278	8297.8
2193.95707	8304.6
2196.88948	8291.3
2199.82001	8297.3
2202.74867	8269.6
2205.67545	8282.4
2208.60037	8251.9
2211.52341	8238.1
2214.44458	8217.7
2217.36388	8183.9
2220.28132	8190.6
2223.1969	8166.8
2226.11061	8159.2
2229.02246	8116.4
2231.93245	8103.8
2234.84058	8101.8
2237.74686	8089.3
2240.65128	8105.9
2243.55385	8052.8
2246.45456	8043.1
2249.35343	8034.7
2252.25044	8005.7
2255.14561	8012.2
2258.03893	7999.2
2260.93041	7940.6
2263.82004	7941.9
2266.70783	7925.3
2269.59378	7913.4
2272.4779	7873.2
2275.36017	7872.1
2278.24061	7848.3
2281.11922	7841.6
2283.996	7816.5
2286.87094	7801.1
2289.74405	7771.5
2292.61534	7763.2
2295.4848	7744.5
2298.35243	7759.2
2301.21824	7733.7
2304.08223	7731.2
2306.94439	7716.8
2309.80474	7704.1
2312.66327	7683.9
2315.51999	7671.1
2318.37489	7669.8
2321.22797	7653.6
2324.07925	7643.8
2326.92871	7620.9
2329.77637	7650
2332.62222	7617.4
2335.46626	7590.4
2338.3085	7581.8
2341.14893	7566
2343.98756	7583.7
2346.8244	7576.5
2349.65943	7572.1
2352.49267	7565.8
2355.32411	7584.1
2358.15376	7569.7
2360.98161	7561.3
2363.80768	7582
2366.63195	7574.9
2369.45444	7564.9
2372.27514	7544.1
2375.09405	7524.3
2377.91118	7523.5
2380.72652	7488.8
2383.54009	7455.5
2386.35187	7478.4
2389.16188	7445.3
2391.97011	7396.7
2394.77657	7387.5
2397.58125	7373.8
2400.38416	7382.4
2403.18529	7355
2405.98466	7351.5
2408.78226	7297.8
2411.57809	7323.5
2414.37216	7312.5
2417.16446	7289.3
2419.955	7282.4
2422.74378	7276.3
2425.5308	7272.9
2428.31606	7258
2431.09956	7246.2
2433.88131	7239.7
2436.6613	7231.8
2439.43954	7220.5
2442.21603	7207.8
2444.99077	7200.9
2447.76377	7211.2
2450.53501	7216.1
2453.30451	7204.6
2456.07226	7186.3
2458.83827	7189
2461.60254	7194.5
2464.36507	7204.1
2467.12586	7180.4
2469.88492	7184.2
2472.64224	7175.5
2475.39782	7164.8
2478.15167	7168.5
2480.90379	7180.6
2483.65417	7180.4
2486.40283	7185.1
2489.14976	7182.6
2491.89497	7181.7
2494.63845	7178.8
2497.3802	7174.3
2500.12024	7146.1
2502.85855	7146.8
2505.59514	7129.7
2508.33002	7117.9
2511.06318	7093.3
2513.79462	7093
2516.52435	7081.4
2519.25237	7051.3
2521.97867	7051.5
2524.70327	7036.8
2527.42616	7017.9
2530.14734	7005.2
2532.86681	7009.9
2535.58458	6997.8
2538.30065	6985.5
2541.01501	6993.1
2543.72768	6976
2546.43864	6974.5
2549.14791	6956
2551.85548	6965
2554.56136	6931
2557.26554	6917.9
2559.96803	6913.7
2562.66883	6888.3
2565.36794	6864.1
2568.06536	6894.4
2570.7611	6859.3
2573.45514	6856
2576.14751	6855.8
2578.83819	6837
2581.52719	6825.4
2584.21451	6824.3
2586.90015	6795.5
2589.58411	6793.1
2592.2664	6806.4
2594.94701	6787.7
2597.62594	6767.8
2600.30321	6753.2
2602.9788	6741.1
2605.65273	6736.3
2608.32498	6733.9
2610.99557	6725.8
2613.66449	6734
2616.33175	6734
2618.99734	6731.5
2621.66128	6705.9
2624.32355	6693.2
2626.98416	6688.6
2629.64311	6675.6
2632.30041	6650
2634.95605	6655.2
2637.61004	6675.5
2640.26238	6649.7
2642.91306	6653.4
2645.56209	6650.9
2648.20948	6647.9
2650.85521	6647.4
2653.4993	6631.2
2656.14175	6626.7
2658.78255	6642.9
2661.42171	6653.4
2664.05923	6674.7
2666.6951	6654.5
2669.32934	6662.3
2671.96194	6650.1
2674.59291	6681.5
2677.22224	6653.6
2679.84993	6636.6
2682.476	6624.3
2685.10043	6622.2
2687.72324	6592.5
2690.34441	6610.6
2692.96396	6612.3
2695.58188	6633.9
2698.19818	6616.3
2700.81285	6626.6
2703.4259	6608
2706.03733	6615.2
2708.64714	6602.2
2711.25533	6626.4
2713.86191	6615.1
2716.46687	6632.9
2719.07021	6646.7
2721.67194	6625.9
2724.27206	6617.1
2726.87057	6636.5
2729.46747	6607.1
2732.06276	6623.9
2734.65644	6611
2737.24852	6608.8
2739.83899	6592.6
2742.42786	6587.5
2745.01513	6574
2747.60079	6562.9
2750.18486	6558.6
2752.76733	6551.7
2755.3482	6518.6
2757.92747	6529.5
2760.50515	6522.2
2763.08123	6506
2765.65573	6501.2
2768.22863	6495.9
2770.79994	6501.5
2773.36967	6499.9
2775.9378	6498.3
2778.50435	6493.9
2781.06932	6469.4
2783.6327	6490.8
2786.1945	6492.3
2788.75471	6470.4
2791.31335	6462.5
2793.87041	6458.1
2796.42589	6450.5
2798.97979	6418.3
2801.53212	6401.9
2804.08288	6414.8
2806.63206	6386.1
2809.17967	6391.3
2811.72571	6372.9
2814.27018	6373.2
2816.81308	6360.4
2819.35442	6345.8
2821.89419	6313.5
2824.43239	6335.1
2826.96904	6321.1
2829.50412	6300.1
2832.03763	6296.3
2834.56959	6288.3
2837.1	6301.5
2839.62884	6305.7
2842.15613	6308.3
2844.68186	6293.2
2847.20604	6297.9
2849.72867	6311.8
2852.24974	6296.2
2854.76927	6314.6
2857.28724	6285.8
2859.80367	6285.8
2862.31855	6281.5
2864.83189	6292.3
2867.34368	6268.7
2869.85393	6255.5
2872.36264	6287.3
2874.8698	6241.3
2877.37543	6251.8
2879.87952	6224.1
2882.38207	6251.7
2884.88308	6241.6
2887.38256	6239.4
2889.88051	6231.1
2892.37692	6227.6
2894.8718	6237.7
2897.36515	6237.4
2899.85698	6232
2902.34727	6225.7
2904.83604	6211.3
2907.32328	6228.2
2909.809	6252.6
2912.29319	6245.3
2914.77587	6256.2
2917.25702	6254.4
2919.73665	6233.6
2922.21476	6216.5
2924.69136	6219.4
2927.16644	6227.3
2929.64	6212.8
2932.11205	6200.7
2934.58258	6175.3
2937.05161	6174.1
2939.51912	6173.7
2941.98513	6164.4
2944.44962	6136.9
2946.91261	6105.8
2949.37409	6112.4
2951.83407	6097.2
2954.29254	6118.3
2956.74951	6117.7
2959.20498	6117.8
2961.65895	6103.4
2964.11142	6085.4
2966.56239	6075.2
2969.01186	6065.5
2971.45984	6043.3
2973.90632	6030.1
2976.35131	6017.3
2978.7948	5992.8
2981.23681	5995.7
2983.67732	5985.7
2986.11635	5958.4
2988.55388	5940.5
2990.98993	5927.1
2993.4245	5915.6
2995.85758	5925.6
2998.28917	5881.3
3000.71928	5900
3003.14791	5884.5
3005.57506	5864.2
3008.00073	5861.7
3010.42493	5857.8
3012.84764	5848
3015.26888	5832.7
3017.68865	5832.9
3020.10694	5830.1
3022.52376	5800
3024.9391	5777.4
3027.35298	5781.8
3029.76539	5773.3
3032.17632	5743.1
3034.5858	5743.2
3036.9938	5746.3
3039.40034	5749.7
3041.80542	5727.8
3044.20903	5727.8
3046.61118	5734.2
3049.01187	5703.4
3051.4111	5696.7
3053.80888	5668
3056.20519	5647.2
3058.60005	5642.9
3060.99345	5629
3063.3854	5626.7
3065.7759	5615.1
3068.16494	5607.6
3070.55254	5583.8
3072.93868	5591.9
3075.32338	5573.1
3077.70662	5565.4
3080.08842	5536
3082.46878	5538.9
3084.84769	5539
3087.22515	5533.1
3089.60118	5535.8
3091.97576	5519.3
3094.3489	5537.8
3096.72061	5523.1
3099.09087	5525.6
3101.4597	5520.2
3103.82709	5520.2
3106.19305	5501.3
3108.55757	5498.9
3110.92066	5491.4
3113.28232	5471
3115.64255	5479.8
3118.00134	5466.9
3120.35871	5469.3
3122.71466	5430
3125.06917	5430
3127.42226	5417.6
3129.77393	5435.1
3132.12417	5402.5
3134.47299	5420.7
3136.82039	5408.1
3139.16636	5402.9
3141.51092	5389.2
3143.85406	5404.8
3146.19579	5410.7
3148.53609	5395.5
3150.87499	5420.8
3153.21246	5430.6
3155.54853	5434
3157.88318	5423.4
3160.21642	5412.8
3162.54826	5433.6
3164.87868	5410.9
3167.2077	5410.9
3169.5353	5418.8
3171.86151	5425.2
3174.18631	5411
3176.5097	5412.3
3178.83169	5398.3
3181.15228	5399.6
3183.47147	5389
3185.78926	5377.3
3188.10565	5403.2
3190.42065	5368.7
3192.73424	5380.8
3195.04645	5377.9
3197.35725	5370.3
3199.66667	5371.4
3201.97469	5354.2
3204.28132	5368.7
3206.58656	5375.7
3208.8904	5347.5
3211.19287	5353.9
3213.49394	5371.8
3215.79363	5367.8
3218.09193	5386
3220.38884	5391.8
3222.68438	5396.4
3224.97853	5377
3227.2713	5379.9
3229.56269	5380.3
3231.8527	5376.2
3234.14133	5377.5
3236.42858	5357.8
3238.71446	5355.2
3240.99896	5323.5
3243.28209	5314.4
3245.56384	5315.3
3247.84423	5320.1
3250.12324	5292.4
3252.40088	5301.4
3254.67715	5292.4
3256.95205	5261.8
3259.22558	5276.8
3261.49775	5265.3
3263.76855	5267.8
3266.03799	5265.3
3268.30606	5247.1
3270.57277	5239.7
3272.83812	5226.4
3275.10211	5230.5
3277.36474	5226.3
3279.62601	5207.5
3281.88593	5205.4
3284.14448	5220.7
3286.40168	5220.8
3288.65753	5213.6
3290.91202	5214.3
3293.16516	5181.8
3295.41695	5195
3297.66738	5151.8
3299.91647	5129.6
3302.16421	5107.5
3304.4106	5070.8
3306.65564	5062.3
3308.89933	5024.2
3311.14169	5000.9
3313.38269	4949.5
3315.62236	4926.1
3317.86068	4878.7
3320.09766	4825.1
3322.3333	4801.3
3324.5676	4798.6
3326.80056	4720
3329.03219	4681.1
3331.26248	2.8
3333.49143	-0.5
3335.71905	-0.5
