Data from AgNP_FTO_APTES_UA_100uM_CRN_1uM_R6G_10uM_NaF_0.1M_Addition_RamanShift__27__12-19-40-189.txt Node

Date: Thu Mar 24 12:19:40 GMT 2022
User: TCL
Spectrometer: QEP01345
Trigger mode: 4
Integration Time (sec): 7.000000E0
Scans to average: 10
Electric dark correction enabled: true
Nonlinearity correction enabled: false
Boxcar width: 0
XAxis mode: Raman Shifts
Number of Pixels in Spectrum: 1044
>>>>>Begin Spectral Data<<<<<
46.04893	-2
50.45542	0.5
54.85868	-1.2
59.25871	0.5
63.6555	53.5
68.04907	54.1
72.43941	55
76.82654	52.1
81.21044	63.3
85.59113	62.4
89.96862	63.2
94.34289	64.8
98.71396	69
103.08183	68.6
107.4465	69.8
111.80798	72.7
116.16626	75.7
120.52136	81.9
124.87327	81.1
129.222	83.1
133.56755	94
137.90993	98.9
142.24913	112.4
146.58517	124.3
150.91804	146.7
155.24774	174.2
159.57429	219.9
163.89768	284.9
168.21792	385.7
172.53501	536.8
176.84895	748.7
181.15975	1047.9
185.46741	1468.4
189.77193	2018.8
194.07331	2709.8
198.37157	3507.6
202.6667	4370.6
206.9587	5225.1
211.24758	6125.6
215.53334	7081
219.81599	8173.3
224.09553	9409.7
228.37195	10782.6
232.64527	12253.2
236.91549	13698.5
241.18261	14956.1
245.44663	15925.1
249.70755	16684.5
253.96539	17345.9
258.22014	17941.7
262.4718	18466.6
266.72039	18724
270.96589	18721.8
275.20832	18468.4
279.44768	18166.7
283.68397	17866.8
287.91719	17730.4
292.14735	17836.3
296.37445	18233
300.59849	18978.3
304.81948	19920.5
309.03742	20739.2
313.25231	20875.8
317.46415	20062.6
321.67296	18516.3
325.87872	17183.3
330.08145	16494
334.28114	16438.9
338.47781	16687.2
342.67145	17183.2
346.86207	17871.2
351.04966	18960.9
355.23424	20208.3
359.4158	21145.1
363.59435	21510.7
367.76989	21464.8
371.94243	21205.9
376.11196	21000.7
380.27849	20721.6
384.44203	20421.7
388.60257	20106.9
392.76012	19991.1
396.91468	20168
401.06626	20678.2
405.21485	21029.6
409.36047	20584.4
413.50311	19440.8
417.64277	18357.5
421.77947	17817.7
425.9132	17686.6
430.04396	17757.6
434.17176	17924.7
438.2966	18291.9
442.41849	18920
446.53742	19846
450.6534	20701.5
454.76644	21178.1
458.87653	21045.1
462.98368	20512.7
467.08789	19904.5
471.18916	19345.3
475.2875	18717.8
479.38291	18285.3
483.4754	17922.8
487.56496	17577.6
491.6516	17206.6
495.73531	16960.8
499.81612	16907.8
503.89401	17102.1
507.96899	17284.4
512.04106	17449.1
516.11023	17538
520.1765	17598.1
524.23987	17602.1
528.30034	17425
532.35792	17198.7
536.41261	16858.4
540.46441	16372.5
544.51333	16149
548.55936	16398.3
552.60252	17068.2
556.64279	17935.9
560.6802	18452.8
564.71473	18997.5
568.7464	20095.4
572.7752	20942.2
576.80114	20479.1
580.82422	19759.6
584.84444	19583.6
588.86181	20044
592.87633	20875.2
596.888	21255.7
600.89682	21109.3
604.9028	22999.9
608.90594	29683.3
612.90624	38241.4
616.90371	36086.4
620.89834	24081.1
624.89015	18278.8
628.87913	17268.8
632.86528	17528.2
636.84862	17832.5
640.82913	17267.3
644.80683	16115.7
648.78172	15307.7
652.75379	15282.1
656.72306	16124.2
660.68952	17156.6
664.65319	16913.7
668.61405	15833.2
672.57211	15325.6
676.52738	15301.8
680.47986	15245.9
684.42955	14961.8
688.37646	14817.2
692.32058	14940.8
696.26192	15179.7
700.20048	15562.8
704.13626	15825.9
708.06928	15840.9
711.99952	15686
715.927	15626.7
719.85171	15725
723.77365	15754.2
727.69284	15503.2
731.60928	15275.9
735.52295	15264.4
739.43388	15361.5
743.34206	15541.4
747.24749	15639.1
751.15017	15852.5
755.05012	16311.2
758.94733	17575
762.8418	20431
766.73354	25233.8
770.62254	29462.5
774.50882	30861.3
778.39237	28842.7
782.27321	24355
786.15132	19901.4
790.02671	17306.7
793.89938	16007.7
797.76935	15528.2
801.6366	15297.3
805.50115	15148
809.36299	15028.3
813.22213	14931.5
817.07857	14847.6
820.93231	14819.1
824.78336	14839.4
828.63172	14906.8
832.47738	14971.3
836.32036	14933.2
840.16066	14868.5
843.99827	14815.3
847.8332	14799.1
851.66546	14716.8
855.49504	14696.5
859.32195	14684.8
863.1462	14571.5
866.96777	14491.8
870.78668	14435.8
874.60293	14477.8
878.41652	14551.5
882.22745	14756.6
886.03573	14873
889.84136	14860.4
893.64433	14725.7
897.44466	14662.2
901.24235	14633.4
905.0374	14526.7
908.8298	14401
912.61957	14334.2
916.40671	14460.1
920.19121	14758.6
923.97308	15085
927.75233	15346.3
931.52895	15463.5
935.30295	15114.2
939.07433	14462.1
942.84309	13984.3
946.60924	13725
950.37278	13655.5
954.13371	13557.7
957.89203	13481.4
961.64774	13418.4
965.40086	13421.3
969.15137	13373.2
972.89929	13306.8
976.64461	13287.7
980.38733	13278.9
984.12747	13332.1
987.86502	13461
991.59999	13668.8
995.33237	14007
999.06217	14689.8
1002.78939	15511.6
1006.51404	16206.6
1010.23611	16632.3
1013.95561	16890.1
1017.67255	16834.4
1021.38692	16383.9
1025.09872	15893.4
1028.80796	15718.1
1032.51465	16006.8
1036.21877	16458.3
1039.92035	16606.6
1043.61937	16532.9
1047.31584	16256.9
1051.00976	15937.8
1054.70114	15701.3
1058.38998	15599.6
1062.07627	15712.6
1065.76003	15788.1
1069.44126	16002.8
1073.11995	16349.4
1076.79611	16691.4
1080.46974	17140.1
1084.14085	17811.8
1087.80943	18449.7
1091.47549	18674.9
1095.13903	18266.8
1098.80005	17499.3
1102.45857	16820.5
1106.11456	16547.9
1109.76805	16695.5
1113.41903	17192.7
1117.06751	18077.8
1120.71348	19233.1
1124.35696	20562.9
1127.99793	21352
1131.63641	20807.7
1135.2724	19487
1138.90589	18457.5
1142.5369	17844.4
1146.16542	17529.2
1149.79145	17392.6
1153.415	17461.5
1157.03607	17808.3
1160.65467	18409.6
1164.27079	19473.6
1167.88443	21170.4
1171.49561	23761
1175.10432	27617.6
1178.71056	32610.1
1182.31434	36729.3
1185.91565	38018.9
1189.51451	36782.8
1193.11091	34352.8
1196.70485	31496
1200.29634	29022
1203.88538	26955.2
1207.47197	24840.4
1211.05612	23086.9
1214.63782	22185.1
1218.21708	22119.6
1221.79391	22315.6
1225.36829	22408.8
1228.94024	21841.6
1232.50976	21109.8
1236.07685	20561.4
1239.6415	20362.7
1243.20374	20389.4
1246.76355	20524.5
1250.32093	20890
1253.8759	21562.8
1257.42845	22543.4
1260.97859	23630.6
1264.52631	24764.1
1268.07163	25885.4
1271.61453	26893.5
1275.15503	27755.2
1278.69312	28525.9
1282.22882	29311.5
1285.76211	30511.9
1289.29301	31910.7
1292.82151	33599.5
1296.34761	35610.6
1299.87133	38583.1
1303.39266	42925.8
1306.9116	49100.9
1310.42815	55538.1
1313.94233	58542.3
1317.45412	56457.9
1320.96354	51856.6
1324.47058	47028.6
1327.97525	43240.8
1331.47754	40920.4
1334.97747	40167.5
1338.47502	40483.8
1341.97022	41514.8
1345.46305	42852.7
1348.95352	44678.3
1352.44163	47375
1355.92738	52245
1359.41078	60045
1362.89183	66508.4
1366.37053	63080.1
1369.84688	51948.8
1373.32088	41969.5
1376.79254	36250.9
1380.26186	33360.2
1383.72883	31711.6
1387.19347	30604.6
1390.65578	29793.9
1394.11575	29441.9
1397.57339	29830.8
1401.0287	30498
1404.48168	31188.8
1407.93234	31518.2
1411.38068	31442
1414.82669	30818.5
1418.27039	29620.9
1421.71177	28107.6
1425.15083	26814.1
1428.58758	26317.6
1432.02203	26694.1
1435.45416	27363.4
1438.88399	27715.2
1442.31151	27970.2
1445.73673	28288.8
1449.15965	28638.4
1452.58027	28726.4
1455.9986	28623.4
1459.41463	28842.3
1462.82837	29519.7
1466.23982	30556.1
1469.64898	31396.8
1473.05586	31765.5
1476.46045	31899.2
1479.86276	31990.1
1483.26279	32213.9
1486.66054	32934.8
1490.05602	34063.4
1493.44922	35725.1
1496.84016	38162.7
1500.22882	42141.2
1503.61521	47895.8
1506.99934	54376.4
1510.38121	59065.6
1513.76081	59150.8
1517.13816	53900.3
1520.51324	46221.9
1523.88607	39880.4
1527.25665	36165
1530.62498	34370.5
1533.99105	33433.4
1537.35488	32708.8
1540.71647	32071
1544.07581	31307.3
1547.4329	30680.5
1550.78776	30119.9
1554.14038	29693.6
1557.49077	29657
1560.83892	30043.3
1564.18484	30884.4
1567.52853	31959.8
1570.86999	32757.4
1574.20922	33234.8
1577.54624	32955.9
1580.88103	31188.7
1584.2136	29096.4
1587.54395	28446.8
1590.87208	29744.7
1594.19801	32647.6
1597.52172	36266.2
1600.84321	38016
1604.16251	36521.5
1607.47959	33131.8
1610.79447	29230.6
1614.10715	25711.7
1617.41763	22980.6
1620.7259	21279.1
1624.03199	20499.9
1627.33587	20531
1630.63757	21423.7
1633.93707	23348.6
1637.23439	26562.2
1640.52951	31538.8
1643.82246	38203.3
1647.11321	44777.7
1650.40179	47733.1
1653.68819	44171.8
1656.97241	36082.9
1660.25446	28082.4
1663.53433	22533.3
1666.81203	19222.2
1670.08756	17375.4
1673.36092	16256.8
1676.63211	15540.1
1679.90115	15030.1
1683.16801	14703.1
1686.43272	14461.7
1689.69527	14291.9
1692.95567	14165.4
1696.2139	14043.3
1699.46999	13957.5
1702.72392	13911.3
1705.97571	13901.6
1709.22535	13861.3
1712.47284	13854.8
1715.71819	13843.9
1718.96139	13796.8
1722.20246	13736.3
1725.44139	13648.1
1728.67818	13481.9
1731.91284	13361.1
1735.14537	13243.4
1738.37576	13152.7
1741.60403	13065.1
1744.83017	13023.3
1748.05418	13005.9
1751.27607	12931.2
1754.49584	12866.2
1757.71349	12852.5
1760.92903	12831.2
1764.14244	12804.3
1767.35375	12796.8
1770.56294	12755
1773.77002	12740.8
1776.97499	12696.1
1780.17785	12615.2
1783.37861	12591.7
1786.57727	12564.9
1789.77382	12538.9
1792.96828	12534.7
1796.16064	12511.6
1799.3509	12470.6
1802.53907	12443.2
1805.72514	12370
1808.90913	12371.7
1812.09102	12342.4
1815.27083	12282.1
1818.44856	12245
1821.6242	12219.2
1824.79776	12216.8
1827.96924	12161.8
1831.13864	12172.3
1834.30597	12139.3
1837.47122	12138.9
1840.6344	12129.3
1843.7955	12093
1846.95454	12098.2
1850.11151	12108.7
1853.26642	12101.6
1856.41926	12132.3
1859.57004	12125.7
1862.71876	12123.1
1865.86542	12137
1869.01003	12136.6
1872.15258	12101.9
1875.29308	12133.8
1878.43152	12134.7
1881.56792	12157
1884.70227	12108.7
1887.83457	12146.7
1890.96482	12153.3
1894.09304	12131.3
1897.21921	12138.9
1900.34335	12161.5
1903.46544	12168.7
1906.58551	12187.5
1909.70353	12173.3
1912.81953	12121
1915.93349	12109
1919.04543	12079.3
1922.15534	12047.6
1925.26322	11991.8
1928.36908	11946.4
1931.47292	11918.6
1934.57473	11872.2
1937.67453	11826
1940.77232	11769.4
1943.86808	11725.4
1946.96184	11711.8
1950.05358	11687.3
1953.14331	11672.8
1956.23103	11653.9
1959.31675	11623.3
1962.40046	11594.5
1965.48217	11580
1968.56188	11562.2
1971.63959	11529
1974.7153	11513.5
1977.78901	11462.7
1980.86073	11440.1
1983.93046	11385.8
1986.99819	11321
1990.06394	11255.2
1993.1277	11230.3
1996.18947	11183.2
1999.24925	11145.4
2002.30706	11095.2
2005.36288	11065
2008.41672	11029.5
2011.46859	11015.8
2014.51848	10973
2017.56639	10932.1
2020.61233	10902
2023.6563	10873.7
2026.6983	10869.1
2029.73833	10866
2032.7764	10814.3
2035.8125	10797.6
2038.84664	10775
2041.87881	10762
2044.90903	10747.3
2047.93729	10729.8
2050.96359	10715.9
2053.98794	10687.3
2057.01034	10671.2
2060.03078	10672.9
2063.04927	10632.4
2066.06582	10607.4
2069.08042	10594.1
2072.09307	10626.2
2075.10378	10573.1
2078.11255	10578.3
2081.11938	10589.2
2084.12426	10595.1
2087.12722	10623.4
2090.12824	10582.1
2093.12732	10564.5
2096.12447	10601.6
2099.11969	10590.1
2102.11299	10580.2
2105.10435	10598.5
2108.09379	10595.5
2111.08131	10597.4
2114.0669	10600.5
2117.05057	10636.8
2120.03233	10622.9
2123.01216	10648.2
2125.99008	10653.8
2128.96609	10647.8
2131.94018	10658.6
2134.91236	10680.8
2137.88263	10662.7
2140.851	10621.5
2143.81746	10657.6
2146.78201	10631
2149.74466	10621.3
2152.7054	10636.2
2155.66425	10588.7
2158.6212	10595.6
2161.57625	10574.2
2164.52941	10562.1
2167.48067	10575.8
2170.43004	10578.6
2173.37752	10566.3
2176.32311	10557.1
2179.26681	10583.4
2182.20863	10582.4
2185.14856	10595.6
2188.08661	10564.2
2191.02278	10581.9
2193.95707	10567.2
2196.88948	10523.4
2199.82001	10537.3
2202.74867	10510
2205.67545	10534.1
2208.60037	10509.2
2211.52341	10493.7
2214.44458	10493.1
2217.36388	10492.5
2220.28132	10457.4
2223.1969	10435.4
2226.11061	10436.3
2229.02246	10421.2
2231.93245	10395.7
2234.84058	10342.2
2237.74686	10338.3
2240.65128	10353.3
2243.55385	10323.3
2246.45456	10326.7
2249.35343	10309.7
2252.25044	10310.6
2255.14561	10324
2258.03893	10337.1
2260.93041	10322.5
2263.82004	10291.5
2266.70783	10279.9
2269.59378	10242.2
2272.4779	10209.1
2275.36017	10189.3
2278.24061	10184.9
2281.11922	10152.2
2283.996	10146.4
2286.87094	10104.3
2289.74405	10086.9
2292.61534	10058.8
2295.4848	10058.7
2298.35243	10077.4
2301.21824	10045.1
2304.08223	10050.6
2306.94439	10063.9
2309.80474	10072.2
2312.66327	10083.6
2315.51999	10084.7
2318.37489	10086.7
2321.22797	10096.1
2324.07925	10049.2
2326.92871	10043.6
2329.77637	10072.6
2332.62222	10054.8
2335.46626	10042.9
2338.3085	10056.1
2341.14893	10086.6
2343.98756	10107
2346.8244	10114.2
2349.65943	10136.2
2352.49267	10130.1
2355.32411	10162.1
2358.15376	10188
2360.98161	10182.1
2363.80768	10186
2366.63195	10181.5
2369.45444	10176.7
2372.27514	10151.8
2375.09405	10138.9
2377.91118	10116.9
2380.72652	10074.8
2383.54009	10042.8
2386.35187	10015.2
2389.16188	9961.9
2391.97011	9929
2394.77657	9906.2
2397.58125	9865.5
2400.38416	9865.9
2403.18529	9837.3
2405.98466	9850.2
2408.78226	9788.2
2411.57809	9760.3
2414.37216	9761.9
2417.16446	9754.4
2419.955	9722
2422.74378	9724.5
2425.5308	9703.3
2428.31606	9737.1
2431.09956	9714.2
2433.88131	9706.9
2436.6613	9710.2
2439.43954	9739.1
2442.21603	9729
2444.99077	9741
2447.76377	9747.5
2450.53501	9754.9
2453.30451	9765.9
2456.07226	9775.1
2458.83827	9783.4
2461.60254	9778.6
2464.36507	9767.7
2467.12586	9772.7
2469.88492	9758
2472.64224	9763.7
2475.39782	9779.1
2478.15167	9809.1
2480.90379	9846.5
2483.65417	9854
2486.40283	9886
2489.14976	9918.3
2491.89497	9951.4
2494.63845	9924.5
2497.3802	9923.2
2500.12024	9965.1
2502.85855	9942.5
2505.59514	9928.3
2508.33002	9878.9
2511.06318	9846.7
2513.79462	9806.7
2516.52435	9755.6
2519.25237	9766.5
2521.97867	9731.6
2524.70327	9701.1
2527.42616	9685.2
2530.14734	9685.9
2532.86681	9690.5
2535.58458	9687.1
2538.30065	9694.1
2541.01501	9688.6
2543.72768	9724.9
2546.43864	9674.7
2549.14791	9657.7
2551.85548	9693.4
2554.56136	9694.6
2557.26554	9682.3
2559.96803	9650.1
2562.66883	9643.8
2565.36794	9667.7
2568.06536	9683.1
2570.7611	9650.8
2573.45514	9651.1
2576.14751	9628.5
2578.83819	9613.6
2581.52719	9648.5
2584.21451	9604.1
2586.90015	9607.7
2589.58411	9607.2
2592.2664	9590.4
2594.94701	9586.9
2597.62594	9593.1
2600.30321	9587.6
2602.9788	9605
2605.65273	9607.2
2608.32498	9604.6
2610.99557	9619
2613.66449	9615.2
2616.33175	9646.4
2618.99734	9671.8
2621.66128	9654.3
2624.32355	9678.1
2626.98416	9641.2
2629.64311	9693.1
2632.30041	9675
2634.95605	9653.3
2637.61004	9644.3
2640.26238	9603.5
2642.91306	9597.7
2645.56209	9592.1
2648.20948	9578.3
2650.85521	9606.1
2653.4993	9602.9
2656.14175	9608.1
2658.78255	9619.2
2661.42171	9634.6
2664.05923	9646.2
2666.6951	9678.2
2669.32934	9666.1
2671.96194	9691.4
2674.59291	9697.6
2677.22224	9676.3
2679.84993	9705.6
2682.476	9684.3
2685.10043	9679
2687.72324	9659.4
2690.34441	9681.8
2692.96396	9671.6
2695.58188	9657.2
2698.19818	9656.6
2700.81285	9641.9
2703.4259	9658.3
2706.03733	9642.3
2708.64714	9626.2
2711.25533	9644.2
2713.86191	9655.9
2716.46687	9696.6
2719.07021	9674.5
2721.67194	9690.5
2724.27206	9695.1
2726.87057	9712.8
2729.46747	9703
2732.06276	9705.8
2734.65644	9687.9
2737.24852	9667.9
2739.83899	9654.8
2742.42786	9679.1
2745.01513	9640.1
2747.60079	9660.1
2750.18486	9665.5
2752.76733	9647.5
2755.3482	9627.5
2757.92747	9650.4
2760.50515	9628.6
2763.08123	9655.9
2765.65573	9645
2768.22863	9628.2
2770.79994	9629.8
2773.36967	9662.7
2775.9378	9654.1
2778.50435	9631.2
2781.06932	9634.1
2783.6327	9651.4
2786.1945	9646.8
2788.75471	9627.3
2791.31335	9622.7
2793.87041	9656.3
2796.42589	9630.5
2798.97979	9627.4
2801.53212	9617.5
2804.08288	9639.9
2806.63206	9611.8
2809.17967	9644.8
2811.72571	9611
2814.27018	9620.1
2816.81308	9634.6
2819.35442	9625.7
2821.89419	9620
2824.43239	9630
2826.96904	9636.9
2829.50412	9650.1
2832.03763	9635.4
2834.56959	9641
2837.1	9605.8
2839.62884	9631.7
2842.15613	9615.6
2844.68186	9611.9
2847.20604	9616
2849.72867	9637.3
2852.24974	9614.4
2854.76927	9655.7
2857.28724	9614.7
2859.80367	9657.1
2862.31855	9665.6
2864.83189	9663.8
2867.34368	9676.3
2869.85393	9670.8
2872.36264	9681.3
2874.8698	9697.1
2877.37543	9687.3
2879.87952	9692.8
2882.38207	9699.6
2884.88308	9665.1
2887.38256	9679.9
2889.88051	9656.6
2892.37692	9659.9
2894.8718	9663
2897.36515	9682.4
2899.85698	9669.2
2902.34727	9691.2
2904.83604	9674.2
2907.32328	9688.4
2909.809	9705.4
2912.29319	9662.4
2914.77587	9642.3
2917.25702	9610.4
2919.73665	9613.5
2922.21476	9610.3
2924.69136	9603.5
2927.16644	9587.6
2929.64	9580.4
2932.11205	9543.3
2934.58258	9520.8
2937.05161	9514
2939.51912	9517.2
2941.98513	9501.2
2944.44962	9480.4
2946.91261	9459.1
2949.37409	9473.7
2951.83407	9472.5
2954.29254	9444
2956.74951	9406.1
2959.20498	9413.3
2961.65895	9383.7
2964.11142	9368.4
2966.56239	9352.3
2969.01186	9309.4
2971.45984	9307.1
2973.90632	9288.2
2976.35131	9260.8
2978.7948	9211.9
2981.23681	9178.3
2983.67732	9181.7
2986.11635	9133.5
2988.55388	9117.2
2990.98993	9093.3
2993.4245	9096.1
2995.85758	9096.9
2998.28917	9059.1
3000.71928	9050.9
3003.14791	9064.6
3005.57506	9039.1
3008.00073	9022.7
3010.42493	9016
3012.84764	8998.1
3015.26888	9002.1
3017.68865	8974.3
3020.10694	8944.8
3022.52376	8924.5
3024.9391	8899.7
3027.35298	8899.9
3029.76539	8881.7
3032.17632	8849.6
3034.5858	8823.2
3036.9938	8817.7
3039.40034	8789
3041.80542	8765.8
3044.20903	8754.8
3046.61118	8741.3
3049.01187	8725.4
3051.4111	8705.9
3053.80888	8684.8
3056.20519	8646.4
3058.60005	8631.1
3060.99345	8615.3
3063.3854	8599
3065.7759	8563.8
3068.16494	8568.6
3070.55254	8516.6
3072.93868	8477.2
3075.32338	8455
3077.70662	8438.3
3080.08842	8405
3082.46878	8413.9
3084.84769	8420.9
3087.22515	8379
3089.60118	8393.6
3091.97576	8356.3
3094.3489	8345.7
3096.72061	8346.5
3099.09087	8328.9
3101.4597	8309.2
3103.82709	8324.5
3106.19305	8281.6
3108.55757	8273.3
3110.92066	8241.2
3113.28232	8235.6
3115.64255	8207
3118.00134	8210.8
3120.35871	8185.1
3122.71466	8176.7
3125.06917	8153.6
3127.42226	8153.1
3129.77393	8169.5
3132.12417	8157.7
3134.47299	8157.6
3136.82039	8160.6
3139.16636	8151.9
3141.51092	8146.5
3143.85406	8162.5
3146.19579	8164.6
3148.53609	8132.7
3150.87499	8134.8
3153.21246	8136.9
3155.54853	8124
3157.88318	8137.1
3160.21642	8118.1
3162.54826	8113.1
3164.87868	8103.2
3167.2077	8104.3
3169.5353	8067.4
3171.86151	8098.2
3174.18631	8098.1
3176.5097	8095.2
3178.83169	8095.6
3181.15228	8068.8
3183.47147	8080.9
3185.78926	8088.4
3188.10565	8083.3
3190.42065	8074.4
3192.73424	8087.7
3195.04645	8099.2
3197.35725	8110.6
3199.66667	8111.7
3201.97469	8119.3
3204.28132	8100.3
3206.58656	8126.4
3208.8904	8127.2
3211.19287	8104.3
3213.49394	8110.4
3215.79363	8111.6
3218.09193	8107
3220.38884	8110.2
3222.68438	8105.9
3224.97853	8106
3227.2713	8112.1
3229.56269	8090
3231.8527	8080
3234.14133	8100.3
3236.42858	8066.2
3238.71446	8082.8
3240.99896	8056.7
3243.28209	8068.2
3245.56384	8079.8
3247.84423	8080.4
3250.12324	8070.7
3252.40088	8044.4
3254.67715	8006.8
3256.95205	8004.6
3259.22558	7984.1
3261.49775	7985.2
3263.76855	7968
3266.03799	7952.6
3268.30606	7954.9
3270.57277	7955.1
3272.83812	7950.8
3275.10211	7930.4
3277.36474	7943.8
3279.62601	7938.9
3281.88593	7941.6
3284.14448	7939.9
3286.40168	7963.5
3288.65753	7940.8
3290.91202	7922.6
3293.16516	7889.5
3295.41695	7888.3
3297.66738	7833.8
3299.91647	7818.8
3302.16421	7792.9
3304.4106	7742.4
3306.65564	7712.2
3308.89933	7656
3311.14169	7601.7
3313.38269	7525.3
3315.62236	7489.7
3317.86068	7427.7
3320.09766	7320.6
3322.3333	7239.7
3324.5676	7247.3
3326.80056	7109.4
3329.03219	7093.4
3331.26248	1.9
3333.49143	-1.3
3335.71905	1.6
