Data from AgNP_FTO_APTES_UA_100uM_CRN_1uM_R6G_10uM_NaF_0.1M_Addition_RamanShift__2__11-50-30-155.txt Node

Date: Thu Mar 24 11:50:30 GMT 2022
User: TCL
Spectrometer: QEP01345
Trigger mode: 4
Integration Time (sec): 7.000000E0
Scans to average: 10
Electric dark correction enabled: true
Nonlinearity correction enabled: false
Boxcar width: 0
XAxis mode: Raman Shifts
Number of Pixels in Spectrum: 1044
>>>>>Begin Spectral Data<<<<<
46.04893	-2.4125
50.45542	-0.7125
54.85868	0.2875
59.25871	0.1875
63.6555	51.1875
68.04907	51.9875
72.43941	52.3875
76.82654	53.0875
81.21044	59.7875
85.59113	58.9875
89.96862	62.6875
94.34289	59.5875
98.71396	64.1875
103.08183	64.5875
107.4465	67.9875
111.80798	68.6875
116.16626	69.8875
120.52136	67.7875
124.87327	74.7875
129.222	79.4875
133.56755	83.4875
137.90993	88.3875
142.24913	100.9875
146.58517	114.2875
150.91804	134.9875
155.24774	163.6875
159.57429	206.8875
163.89768	265.8875
168.21792	351.8875
172.53501	488.5875
176.84895	682.8875
181.15975	961.2875
185.46741	1351.3875
189.77193	1854.4875
194.07331	2480.9875
198.37157	3210.4875
202.6667	3964.6875
206.9587	4721.6875
211.24758	5506.5875
215.53334	6285.7875
219.81599	7152.9875
224.09553	8119.6875
228.37195	9167.6875
232.64527	10357.7875
236.91549	11532.6875
241.18261	12676.6875
245.44663	13644.0875
249.70755	14384.3875
253.96539	14969.5875
258.22014	15460.6875
262.4718	15887.3875
266.72039	16157.2875
270.96589	16280.6875
275.20832	16193.2875
279.44768	16055.8875
283.68397	15830.9875
287.91719	15645.9875
292.14735	15594.9875
296.37445	15667.8875
300.59849	15899.6875
304.81948	16280.0875
309.03742	16560.9875
313.25231	16650.9875
317.46415	16461.2875
321.67296	16037.6875
325.87872	15656.5875
330.08145	15450.8875
334.28114	15388.1875
338.47781	15449.1875
342.67145	15698.3875
346.86207	16076.2875
351.04966	16544.4875
355.23424	17018.7875
359.4158	17312.3875
363.59435	17476.3875
367.76989	17487.4875
371.94243	17466.9875
376.11196	17409.8875
380.27849	17433.8875
384.44203	17489.8875
388.60257	17592.8875
392.76012	17666.5875
396.91468	17809.3875
401.06626	18087.3875
405.21485	18267.6875
409.36047	17992.5875
413.50311	17439.3875
417.64277	17014.5875
421.77947	16912.3875
425.9132	16948.3875
430.04396	17004.3875
434.17176	17155.4875
438.2966	17444.8875
442.41849	18038.6875
446.53742	18942.7875
450.6534	19853.0875
454.76644	20273.2875
458.87653	20226.4875
462.98368	19800.2875
467.08789	19330.4875
471.18916	18786.7875
475.2875	18257.0875
479.38291	17772.7875
483.4754	17475.6875
487.56496	17133.9875
491.6516	16839.5875
495.73531	16563.1875
499.81612	16471.4875
503.89401	16578.4875
507.96899	16661.4875
512.04106	16616.4875
516.11023	16535.3875
520.1765	16436.7875
524.23987	16439.8875
528.30034	16559.4875
532.35792	16509.7875
536.41261	16157.9875
540.46441	15707.7875
544.51333	15489.3875
548.55936	15569.8875
552.60252	16053.4875
556.64279	16786.1875
560.6802	17417.9875
564.71473	17710.2875
568.7464	18195.6875
572.7752	18989.4875
576.80114	19613.4875
580.82422	20060.7875
584.84444	20923.3875
588.86181	22688.7875
592.87633	25121.2875
596.888	26192.6875
600.89682	24424.6875
604.9028	22872.6875
608.90594	24529.4875
612.90624	27476.9875
616.90371	25674.4875
620.89834	19657.0875
624.89015	16730.7875
628.87913	16282.7875
632.86528	16498.0875
636.84862	16563.9875
640.82913	16102.9875
644.80683	15342.2875
648.78172	14867.0875
652.75379	14893.6875
656.72306	15302.8875
660.68952	15845.8875
664.65319	15668.2875
668.61405	15041.4875
672.57211	14881.9875
676.52738	14997.7875
680.47986	14977.6875
684.42955	14730.5875
688.37646	14579.3875
692.32058	14674.0875
696.26192	15022.5875
700.20048	15379.6875
704.13626	15625.3875
708.06928	15658.6875
711.99952	15532.2875
715.927	15559.6875
719.85171	15701.9875
723.77365	15629.6875
727.69284	15306.2875
731.60928	15074.6875
735.52295	15112.6875
739.43388	15229.2875
743.34206	15367.6875
747.24749	15476.1875
751.15017	15660.7875
755.05012	15991.0875
758.94733	16630.9875
762.8418	18088.4875
766.73354	20589.2875
770.62254	22911.1875
774.50882	23466.3875
778.39237	22047.0875
782.27321	19763.2875
786.15132	17677.3875
790.02671	16316.3875
793.89938	15575.8875
797.76935	15210.0875
801.6366	15064.8875
805.50115	14931.4875
809.36299	14769.6875
813.22213	14651.5875
817.07857	14583.1875
820.93231	14497.3875
824.78336	14420.3875
828.63172	14396.8875
832.47738	14343.9875
836.32036	14374.3875
840.16066	14388.8875
843.99827	14354.8875
847.8332	14369.6875
851.66546	14363.0875
855.49504	14381.6875
859.32195	14362.7875
863.1462	14287.2875
866.96777	14210.4875
870.78668	14179.3875
874.60293	14219.3875
878.41652	14272.2875
882.22745	14403.2875
886.03573	14504.6875
889.84136	14489.0875
893.64433	14398.7875
897.44466	14365.4875
901.24235	14278.9875
905.0374	14169.4875
908.8298	14106.0875
912.61957	14064.6875
916.40671	14166.4875
920.19121	14401.2875
923.97308	14740.6875
927.75233	14897.0875
931.52895	14763.5875
935.30295	14412.1875
939.07433	13950.7875
942.84309	13614.9875
946.60924	13459.4875
950.37278	13419.4875
954.13371	13430.5875
957.89203	13432.6875
961.64774	13415.2875
965.40086	13433.1875
969.15137	13427.1875
972.89929	13420.3875
976.64461	13372.1875
980.38733	13345.1875
984.12747	13372.1875
987.86502	13445.3875
991.59999	13604.3875
995.33237	13825.6875
999.06217	14242.9875
1002.78939	14866.7875
1006.51404	15487.3875
1010.23611	16018.4875
1013.95561	16280.9875
1017.67255	16325.5875
1021.38692	15930.2875
1025.09872	15260.2875
1028.80796	14807.2875
1032.51465	14691.2875
1036.21877	14827.9875
1039.92035	14916.9875
1043.61937	14978.7875
1047.31584	14965.7875
1051.00976	14882.1875
1054.70114	14857.8875
1058.38998	14851.0875
1062.07627	14947.2875
1065.76003	15124.4875
1069.44126	15404.0875
1073.11995	15761.8875
1076.79611	16147.0875
1080.46974	16467.3875
1084.14085	16836.6875
1087.80943	17304.4875
1091.47549	17537.6875
1095.13903	17392.9875
1098.80005	16888.1875
1102.45857	16265.3875
1106.11456	15956.0875
1109.76805	15916.2875
1113.41903	16093.0875
1117.06751	16431.2875
1120.71348	16864.0875
1124.35696	17343.8875
1127.99793	17743.0875
1131.63641	17762.6875
1135.2724	17485.8875
1138.90589	17188.1875
1142.5369	17116.9875
1146.16542	17237.3875
1149.79145	17460.0875
1153.415	17701.5875
1157.03607	17940.4875
1160.65467	18419.7875
1164.27079	19367.2875
1167.88443	20797.7875
1171.49561	22880.6875
1175.10432	25828.8875
1178.71056	29501.7875
1182.31434	32689.5875
1185.91565	33607.0875
1189.51451	32323.5875
1193.11091	30341.0875
1196.70485	28281.0875
1200.29634	26331.0875
1203.88538	24790.6875
1207.47197	23650.7875
1211.05612	22826.3875
1214.63782	22291.0875
1218.21708	22092.2875
1221.79391	22255.6875
1225.36829	22630.4875
1228.94024	22620.1875
1232.50976	21887.2875
1236.07685	20917.7875
1239.6415	20215.7875
1243.20374	19942.1875
1246.76355	19981.0875
1250.32093	20196.2875
1253.8759	20671.3875
1257.42845	21424.1875
1260.97859	22398.7875
1264.52631	23468.3875
1268.07163	24523.7875
1271.61453	25423.3875
1275.15503	26297.0875
1278.69312	27178.6875
1282.22882	28348.9875
1285.76211	30017.7875
1289.29301	32033.5875
1292.82151	34329.3875
1296.34761	36767.4875
1299.87133	39663.7875
1303.39266	42964.6875
1306.9116	46544.6875
1310.42815	49845.3875
1313.94233	51551.7875
1317.45412	50378.1875
1320.96354	47427.2875
1324.47058	44380.4875
1327.97525	41705.0875
1331.47754	39823.6875
1334.97747	38551.1875
1338.47502	37777.1875
1341.97022	37211.8875
1345.46305	37074.4875
1348.95352	37518.4875
1352.44163	39087.4875
1355.92738	42207.2875
1359.41078	46941.0875
1362.89183	51113.6875
1366.37053	51039.2875
1369.84688	45254.3875
1373.32088	37919.0875
1376.79254	33257.9875
1380.26186	31479.6875
1383.72883	30832.9875
1387.19347	30313.0875
1390.65578	29684.1875
1394.11575	29411.0875
1397.57339	29634.5875
1401.0287	29952.9875
1404.48168	30025.8875
1407.93234	29694.3875
1411.38068	28952.1875
1414.82669	28039.7875
1418.27039	27067.1875
1421.71177	25991.8875
1425.15083	25061.1875
1428.58758	24678.7875
1432.02203	25066.4875
1435.45416	25912.2875
1438.88399	26553.2875
1442.31151	26821.5875
1445.73673	27014.8875
1449.15965	27162.7875
1452.58027	27049.8875
1455.9986	26791.1875
1459.41463	26811.8875
1462.82837	27394.1875
1466.23982	28236.5875
1469.64898	29090.6875
1473.05586	29730.4875
1476.46045	30073.5875
1479.86276	30288.0875
1483.26279	30447.6875
1486.66054	30760.5875
1490.05602	31512.1875
1493.44922	32511.5875
1496.84016	33482.9875
1500.22882	34630.5875
1503.61521	36266.6875
1506.99934	38148.4875
1510.38121	39527.0875
1513.76081	39444.8875
1517.13816	37589.9875
1520.51324	34925.1875
1523.88607	32855.3875
1527.25665	31997.1875
1530.62498	31729.8875
1533.99105	31424.0875
1537.35488	30773.9875
1540.71647	29659.8875
1544.07581	28347.5875
1547.4329	27116.1875
1550.78776	26116.3875
1554.14038	25433.7875
1557.49077	25152.0875
1560.83892	25187.7875
1564.18484	25584.0875
1567.52853	26202.1875
1570.86999	26920.7875
1574.20922	27593.9875
1577.54624	27889.3875
1580.88103	27351.0875
1584.2136	26793.0875
1587.54395	27264.9875
1590.87208	28953.8875
1594.19801	31687.1875
1597.52172	34587.1875
1600.84321	35634.9875
1604.16251	33797.3875
1607.47959	30082.6875
1610.79447	26181.2875
1614.10715	22943.8875
1617.41763	20627.9875
1620.7259	19220.7875
1624.03199	18701.7875
1627.33587	18819.0875
1630.63757	19680.1875
1633.93707	21614.3875
1637.23439	25043.2875
1640.52951	30532.4875
1643.82246	37579.3875
1647.11321	43573.5875
1650.40179	44804.9875
1653.68819	40295.8875
1656.97241	32639.2875
1660.25446	25585.8875
1663.53433	20803.7875
1666.81203	17934.9875
1670.08756	16286.0875
1673.36092	15319.8875
1676.63211	14688.0875
1679.90115	14251.4875
1683.16801	13924.7875
1686.43272	13708.7875
1689.69527	13556.3875
1692.95567	13414.0875
1696.2139	13284.2875
1699.46999	13217.2875
1702.72392	13135.1875
1705.97571	13109.8875
1709.22535	13071.9875
1712.47284	13046.7875
1715.71819	13028.8875
1718.96139	13002.3875
1722.20246	12952.4875
1725.44139	12841.3875
1728.67818	12756.7875
1731.91284	12617.0875
1735.14537	12495.8875
1738.37576	12407.9875
1741.60403	12346.7875
1744.83017	12310.6875
1748.05418	12266.9875
1751.27607	12218.7875
1754.49584	12181.0875
1757.71349	12160.3875
1760.92903	12125.5875
1764.14244	12099.6875
1767.35375	12082.4875
1770.56294	12063.1875
1773.77002	12052.5875
1776.97499	12033.7875
1780.17785	11979.3875
1783.37861	11966.9875
1786.57727	11918.7875
1789.77382	11897.3875
1792.96828	11855.5875
1796.16064	11830.7875
1799.3509	11821.5875
1802.53907	11747.6875
1805.72514	11720.6875
1808.90913	11673.7875
1812.09102	11673.3875
1815.27083	11636.2875
1818.44856	11623.1875
1821.6242	11570.5875
1824.79776	11560.1875
1827.96924	11544.2875
1831.13864	11538.4875
1834.30597	11537.9875
1837.47122	11543.3875
1840.6344	11533.8875
1843.7955	11513.3875
1846.95454	11506.7875
1850.11151	11510.6875
1853.26642	11504.3875
1856.41926	11496.3875
1859.57004	11490.1875
1862.71876	11485.6875
1865.86542	11489.7875
1869.01003	11449.4875
1872.15258	11466.7875
1875.29308	11449.1875
1878.43152	11458.2875
1881.56792	11452.4875
1884.70227	11439.6875
1887.83457	11469.9875
1890.96482	11420.9875
1894.09304	11413.8875
1897.21921	11417.3875
1900.34335	11425.5875
1903.46544	11421.5875
1906.58551	11402.7875
1909.70353	11381.2875
1912.81953	11371.7875
1915.93349	11337.6875
1919.04543	11326.5875
1922.15534	11299.8875
1925.26322	11231.6875
1928.36908	11183.5875
1931.47292	11159.8875
1934.57473	11116.3875
1937.67453	11095.5875
1940.77232	11075.0875
1943.86808	11022.6875
1946.96184	10982.9875
1950.05358	11003.5875
1953.14331	10983.7875
1956.23103	10925.7875
1959.31675	10910.2875
1962.40046	10868.7875
1965.48217	10832.5875
1968.56188	10809.7875
1971.63959	10777.3875
1974.7153	10762.0875
1977.78901	10700.3875
1980.86073	10674.3875
1983.93046	10639.7875
1986.99819	10587.8875
1990.06394	10563.6875
1993.1277	10543.3875
1996.18947	10479.0875
1999.24925	10448.7875
2002.30706	10421.5875
2005.36288	10372.1875
2008.41672	10375.8875
2011.46859	10330.2875
2014.51848	10295.8875
2017.56639	10258.1875
2020.61233	10255.0875
2023.6563	10189.2875
2026.6983	10199.3875
2029.73833	10171.2875
2032.7764	10132.9875
2035.8125	10093.3875
2038.84664	10071.7875
2041.87881	10066.1875
2044.90903	10063.7875
2047.93729	10042.1875
2050.96359	10022.3875
2053.98794	9998.5875
2057.01034	10001.2875
2060.03078	9994.3875
2063.04927	9959.4875
2066.06582	9942.3875
2069.08042	9969.0875
2072.09307	9928.8875
2075.10378	9931.1875
2078.11255	9945.1875
2081.11938	9950.6875
2084.12426	9946.9875
2087.12722	9971.5875
2090.12824	9963.2875
2093.12732	9982.7875
2096.12447	9984.1875
2099.11969	9979.8875
2102.11299	9990.4875
2105.10435	9970.6875
2108.09379	9978.4875
2111.08131	9984.2875
2114.0669	9979.9875
2117.05057	9989.0875
2120.03233	10008.3875
2123.01216	10016.8875
2125.99008	9988.6875
2128.96609	9979.3875
2131.94018	9990.1875
2134.91236	9988.3875
2137.88263	9976.0875
2140.851	9965.8875
2143.81746	9969.9875
2146.78201	9965.5875
2149.74466	9955.8875
2152.7054	9951.5875
2155.66425	9931.1875
2158.6212	9915.4875
2161.57625	9889.9875
2164.52941	9888.6875
2167.48067	9897.7875
2170.43004	9889.4875
2173.37752	9902.1875
2176.32311	9866.9875
2179.26681	9873.2875
2182.20863	9887.7875
2185.14856	9862.4875
2188.08661	9874.1875
2191.02278	9858.7875
2193.95707	9832.9875
2196.88948	9826.5875
2199.82001	9826.5875
2202.74867	9803.1875
2205.67545	9780.8875
2208.60037	9748.5875
2211.52341	9739.7875
2214.44458	9752.1875
2217.36388	9721.7875
2220.28132	9696.0875
2223.1969	9660.2875
2226.11061	9655.2875
2229.02246	9669.3875
2231.93245	9643.4875
2234.84058	9643.7875
2237.74686	9626.9875
2240.65128	9655.0875
2243.55385	9623.9875
2246.45456	9618.7875
2249.35343	9582.9875
2252.25044	9559.3875
2255.14561	9555.7875
2258.03893	9547.7875
2260.93041	9521.8875
2263.82004	9468.0875
2266.70783	9442.5875
2269.59378	9430.1875
2272.4779	9411.2875
2275.36017	9387.2875
2278.24061	9380.6875
2281.11922	9345.1875
2283.996	9339.2875
2286.87094	9296.0875
2289.74405	9308.5875
2292.61534	9289.1875
2295.4848	9272.8875
2298.35243	9301.6875
2301.21824	9278.0875
2304.08223	9279.1875
2306.94439	9271.2875
2309.80474	9250.6875
2312.66327	9266.2875
2315.51999	9263.3875
2318.37489	9280.7875
2321.22797	9256.6875
2324.07925	9249.7875
2326.92871	9225.5875
2329.77637	9221.9875
2332.62222	9196.1875
2335.46626	9195.8875
2338.3085	9184.4875
2341.14893	9214.1875
2343.98756	9211.0875
2346.8244	9232.8875
2349.65943	9197.2875
2352.49267	9206.7875
2355.32411	9230.0875
2358.15376	9230.8875
2360.98161	9217.8875
2363.80768	9215.2875
2366.63195	9240.8875
2369.45444	9213.0875
2372.27514	9191.9875
2375.09405	9195.7875
2377.91118	9196.2875
2380.72652	9141.6875
2383.54009	9134.6875
2386.35187	9125.8875
2389.16188	9073.6875
2391.97011	9066.5875
2394.77657	9044.1875
2397.58125	9017.3875
2400.38416	9005.3875
2403.18529	8985.9875
2405.98466	8968.9875
2408.78226	8953.8875
2411.57809	8965.6875
2414.37216	8937.0875
2417.16446	8933.3875
2419.955	8904.5875
2422.74378	8891.6875
2425.5308	8901.1875
2428.31606	8897.1875
2431.09956	8909.2875
2433.88131	8899.4875
2436.6613	8880.3875
2439.43954	8900.8875
2442.21603	8877.6875
2444.99077	8922.1875
2447.76377	8911.4875
2450.53501	8904.2875
2453.30451	8916.2875
2456.07226	8936.5875
2458.83827	8930.0875
2461.60254	8937.0875
2464.36507	8923.0875
2467.12586	8925.0875
2469.88492	8907.1875
2472.64224	8925.8875
2475.39782	8940.1875
2478.15167	8906.3875
2480.90379	8936.2875
2483.65417	8939.4875
2486.40283	8944.0875
2489.14976	8947.7875
2491.89497	8944.6875
2494.63845	8960.5875
2497.3802	8984.7875
2500.12024	8980.3875
2502.85855	8959.8875
2505.59514	8950.2875
2508.33002	8928.1875
2511.06318	8921.7875
2513.79462	8899.5875
2516.52435	8890.2875
2519.25237	8884.3875
2521.97867	8855.8875
2524.70327	8846.7875
2527.42616	8839.5875
2530.14734	8849.5875
2532.86681	8822.0875
2535.58458	8842.8875
2538.30065	8841.3875
2541.01501	8821.6875
2543.72768	8832.8875
2546.43864	8806.2875
2549.14791	8819.0875
2551.85548	8820.3875
2554.56136	8807.1875
2557.26554	8806.8875
2559.96803	8794.2875
2562.66883	8788.3875
2565.36794	8806.0875
2568.06536	8800.0875
2570.7611	8797.7875
2573.45514	8791.7875
2576.14751	8784.0875
2578.83819	8787.0875
2581.52719	8771.7875
2584.21451	8760.0875
2586.90015	8761.4875
2589.58411	8728.9875
2592.2664	8734.6875
2594.94701	8732.8875
2597.62594	8720.4875
2600.30321	8699.2875
2602.9788	8706.9875
2605.65273	8692.9875
2608.32498	8673.9875
2610.99557	8691.7875
2613.66449	8716.0875
2616.33175	8728.6875
2618.99734	8721.2875
2621.66128	8711.6875
2624.32355	8698.0875
2626.98416	8711.1875
2629.64311	8694.2875
2632.30041	8677.6875
2634.95605	8664.1875
2637.61004	8673.5875
2640.26238	8667.3875
2642.91306	8646.0875
2645.56209	8655.7875
2648.20948	8664.6875
2650.85521	8678.7875
2653.4993	8692.8875
2656.14175	8690.5875
2658.78255	8730.4875
2661.42171	8720.1875
2664.05923	8731.1875
2666.6951	8745.6875
2669.32934	8744.8875
2671.96194	8728.5875
2674.59291	8743.9875
2677.22224	8739.5875
2679.84993	8751.0875
2682.476	8715.4875
2685.10043	8743.5875
2687.72324	8709.2875
2690.34441	8727.9875
2692.96396	8726.3875
2695.58188	8744.2875
2698.19818	8717.1875
2700.81285	8759.1875
2703.4259	8734.9875
2706.03733	8728.5875
2708.64714	8723.4875
2711.25533	8747.1875
2713.86191	8728.6875
2716.46687	8754.3875
2719.07021	8757.7875
2721.67194	8770.2875
2724.27206	8753.3875
2726.87057	8774.3875
2729.46747	8771.9875
2732.06276	8792.4875
2734.65644	8781.7875
2737.24852	8773.0875
2739.83899	8746.9875
2742.42786	8781.7875
2745.01513	8751.2875
2747.60079	8726.8875
2750.18486	8738.2875
2752.76733	8767.6875
2755.3482	8737.9875
2757.92747	8753.4875
2760.50515	8730.0875
2763.08123	8769.0875
2765.65573	8747.3875
2768.22863	8736.3875
2770.79994	8735.6875
2773.36967	8713.5875
2775.9378	8723.4875
2778.50435	8706.8875
2781.06932	8730.7875
2783.6327	8731.7875
2786.1945	8723.5875
2788.75471	8701.9875
2791.31335	8705.7875
2793.87041	8683.9875
2796.42589	8680.0875
2798.97979	8682.9875
2801.53212	8652.3875
2804.08288	8666.2875
2806.63206	8647.7875
2809.17967	8653.0875
2811.72571	8625.1875
2814.27018	8640.1875
2816.81308	8602.2875
2819.35442	8625.1875
2821.89419	8622.2875
2824.43239	8611.1875
2826.96904	8608.0875
2829.50412	8614.6875
2832.03763	8615.6875
2834.56959	8605.6875
2837.1	8593.9875
2839.62884	8581.2875
2842.15613	8575.7875
2844.68186	8589.2875
2847.20604	8586.0875
2849.72867	8580.2875
2852.24974	8586.6875
2854.76927	8592.4875
2857.28724	8566.9875
2859.80367	8581.2875
2862.31855	8578.0875
2864.83189	8578.2875
2867.34368	8571.6875
2869.85393	8585.5875
2872.36264	8576.3875
2874.8698	8578.6875
2877.37543	8608.3875
2879.87952	8589.6875
2882.38207	8583.0875
2884.88308	8578.8875
2887.38256	8569.5875
2889.88051	8577.4875
2892.37692	8581.7875
2894.8718	8575.9875
2897.36515	8586.4875
2899.85698	8604.6875
2902.34727	8602.7875
2904.83604	8612.5875
2907.32328	8610.0875
2909.809	8612.8875
2912.29319	8607.2875
2914.77587	8613.3875
2917.25702	8589.2875
2919.73665	8592.7875
2922.21476	8603.0875
2924.69136	8601.5875
2927.16644	8589.7875
2929.64	8572.4875
2932.11205	8547.4875
2934.58258	8505.3875
2937.05161	8529.1875
2939.51912	8551.6875
2941.98513	8528.8875
2944.44962	8490.2875
2946.91261	8459.3875
2949.37409	8505.9875
2951.83407	8487.5875
2954.29254	8498.2875
2956.74951	8448.4875
2959.20498	8428.2875
2961.65895	8413.5875
2964.11142	8381.3875
2966.56239	8364.1875
2969.01186	8362.2875
2971.45984	8350.6875
2973.90632	8314.3875
2976.35131	8308.8875
2978.7948	8259.1875
2981.23681	8230.7875
2983.67732	8209.6875
2986.11635	8185.7875
2988.55388	8168.1875
2990.98993	8154.6875
2993.4245	8130.7875
2995.85758	8104.3875
2998.28917	8098.7875
3000.71928	8075.6875
3003.14791	8081.2875
3005.57506	8067.0875
3008.00073	8042.3875
3010.42493	8049.0875
3012.84764	8030.8875
3015.26888	8040.6875
3017.68865	8005.3875
3020.10694	7985.9875
3022.52376	7945.3875
3024.9391	7936.0875
3027.35298	7934.8875
3029.76539	7918.4875
3032.17632	7897.9875
3034.5858	7897.8875
3036.9938	7887.2875
3039.40034	7864.0875
3041.80542	7849.2875
3044.20903	7834.2875
3046.61118	7830.6875
3049.01187	7804.5875
3051.4111	7793.3875
3053.80888	7785.1875
3056.20519	7765.2875
3058.60005	7747.5875
3060.99345	7734.3875
3063.3854	7711.4875
3065.7759	7708.6875
3068.16494	7711.5875
3070.55254	7660.0875
3072.93868	7646.6875
3075.32338	7625.0875
3077.70662	7617.1875
3080.08842	7603.8875
3082.46878	7598.8875
3084.84769	7571.5875
3087.22515	7568.5875
3089.60118	7552.4875
3091.97576	7535.0875
3094.3489	7508.9875
3096.72061	7530.4875
3099.09087	7521.3875
3101.4597	7505.7875
3103.82709	7504.1875
3106.19305	7458.0875
3108.55757	7457.8875
3110.92066	7427.3875
3113.28232	7437.7875
3115.64255	7426.4875
3118.00134	7404.9875
3120.35871	7377.0875
3122.71466	7356.0875
3125.06917	7344.8875
3127.42226	7349.4875
3129.77393	7343.4875
3132.12417	7333.2875
3134.47299	7347.4875
3136.82039	7344.2875
3139.16636	7350.1875
3141.51092	7343.1875
3143.85406	7337.1875
3146.19579	7331.5875
3148.53609	7311.5875
3150.87499	7326.5875
3153.21246	7319.8875
3155.54853	7311.6875
3157.88318	7299.5875
3160.21642	7287.4875
3162.54826	7295.1875
3164.87868	7263.2875
3167.2077	7264.9875
3169.5353	7275.8875
3171.86151	7267.8875
3174.18631	7265.8875
3176.5097	7275.4875
3178.83169	7255.8875
3181.15228	7269.5875
3183.47147	7245.3875
3185.78926	7248.1875
3188.10565	7245.3875
3190.42065	7239.3875
3192.73424	7249.4875
3195.04645	7231.2875
3197.35725	7233.7875
3199.66667	7227.1875
3201.97469	7220.3875
3204.28132	7224.0875
3206.58656	7221.5875
3208.8904	7230.1875
3211.19287	7205.8875
3213.49394	7204.2875
3215.79363	7201.4875
3218.09193	7209.1875
3220.38884	7199.2875
3222.68438	7200.3875
3224.97853	7198.9875
3227.2713	7190.6875
3229.56269	7197.5875
3231.8527	7194.2875
3234.14133	7144.9875
3236.42858	7143.2875
3238.71446	7154.0875
3240.99896	7160.3875
3243.28209	7155.6875
3245.56384	7136.8875
3247.84423	7150.3875
3250.12324	7136.0875
3252.40088	7108.0875
3254.67715	7087.7875
3256.95205	7065.6875
3259.22558	7065.4875
3261.49775	7059.6875
3263.76855	7034.5875
3266.03799	7015.6875
3268.30606	7007.9875
3270.57277	7000.7875
3272.83812	7007.2875
3275.10211	7006.7875
3277.36474	6991.0875
3279.62601	6993.5875
3281.88593	6993.0875
3284.14448	7000.2875
3286.40168	7011.7875
3288.65753	6977.1875
3290.91202	6982.4875
3293.16516	6973.6875
3295.41695	6967.6875
3297.66738	6916.9875
3299.91647	6912.2875
3302.16421	6868.0875
3304.4106	6848.8875
3306.65564	6795.7875
3308.89933	6763.9875
3311.14169	6719.3875
3313.38269	6647.6875
3315.62236	6622.5875
3317.86068	6570.9875
3320.09766	6491.9875
3322.3333	6425.3875
3324.5676	6437.4875
3326.80056	6302.6875
3329.03219	6290.1875
3331.26248	2.9875
3333.49143	-1.6125
3335.71905	1.1875
