Data from AgNP_FTO_APTES_UA_100uM_CRN_20uM_R6G_10uM_NaF_0.1M_Addition_RamanShift__15__16-43-20-492.txt Node

Date: Thu Mar 24 16:43:20 GMT 2022
User: TCL
Spectrometer: QEP01345
Trigger mode: 4
Integration Time (sec): 7.000000E0
Scans to average: 10
Electric dark correction enabled: true
Nonlinearity correction enabled: false
Boxcar width: 0
XAxis mode: Raman Shifts
Number of Pixels in Spectrum: 1044
>>>>>Begin Spectral Data<<<<<
46.04893	-0.7625
50.45542	-0.8625
54.85868	-0.7625
59.25871	-0.2625
63.6555	40.7375
68.04907	45.4375
72.43941	46.9375
76.82654	46.9375
81.21044	45.4375
85.59113	48.7375
89.96862	54.0375
94.34289	54.5375
98.71396	55.6375
103.08183	55.7375
107.4465	58.3375
111.80798	64.0375
116.16626	59.0375
120.52136	61.3375
124.87327	66.9375
129.222	66.8375
133.56755	75.1375
137.90993	77.8375
142.24913	94.5375
146.58517	101.2375
150.91804	118.8375
155.24774	141.6375
159.57429	175.8375
163.89768	227.9375
168.21792	303.6375
172.53501	418.5375
176.84895	593.1375
181.15975	844.2375
185.46741	1186.8375
189.77193	1651.4375
194.07331	2208.3375
198.37157	2864.6375
202.6667	3558.9375
206.9587	4217.0375
211.24758	4916.6375
215.53334	5597.2375
219.81599	6322.5375
224.09553	7128.0375
228.37195	7987.7375
232.64527	8998.4375
236.91549	10002.3375
241.18261	11005.8375
245.44663	11904.5375
249.70755	12687.0375
253.96539	13399.2375
258.22014	14003.6375
262.4718	14456.8375
266.72039	14786.5375
270.96589	15002.6375
275.20832	15037.0375
279.44768	14905.0375
283.68397	14726.6375
287.91719	14601.7375
292.14735	14536.0375
296.37445	14573.9375
300.59849	14722.8375
304.81948	14995.7375
309.03742	15168.3375
313.25231	15109.0375
317.46415	14838.1375
321.67296	14350.9375
325.87872	13932.9375
330.08145	13777.1375
334.28114	13775.8375
338.47781	13908.9375
342.67145	14138.5375
346.86207	14424.7375
351.04966	14761.4375
355.23424	15187.9375
359.4158	15496.5375
363.59435	15723.3375
367.76989	15843.6375
371.94243	15946.1375
376.11196	15959.9375
380.27849	15973.4375
384.44203	16003.4375
388.60257	16026.9375
392.76012	16117.7375
396.91468	16276.6375
401.06626	16499.0375
405.21485	16652.7375
409.36047	16551.5375
413.50311	16173.6375
417.64277	15788.8375
421.77947	15598.6375
425.9132	15540.3375
430.04396	15574.1375
434.17176	15624.6375
438.2966	15709.9375
442.41849	15867.8375
446.53742	16141.6375
450.6534	16378.8375
454.76644	16548.6375
458.87653	16661.7375
462.98368	16619.1375
467.08789	16588.9375
471.18916	16468.1375
475.2875	16306.9375
479.38291	16150.1375
483.4754	16030.4375
487.56496	15914.9375
491.6516	15893.5375
495.73531	15874.9375
499.81612	15895.3375
503.89401	15992.3375
507.96899	16090.5375
512.04106	16139.5375
516.11023	16202.1375
520.1765	16295.6375
524.23987	16264.7375
528.30034	16227.7375
532.35792	16119.8375
536.41261	15974.5375
540.46441	15858.9375
544.51333	15806.8375
548.55936	15909.8375
552.60252	16157.6375
556.64279	16345.9375
560.6802	16448.8375
564.71473	16479.7375
568.7464	16633.7375
572.7752	16800.5375
576.80114	16812.6375
580.82422	16862.2375
584.84444	16944.4375
588.86181	17013.1375
592.87633	17009.5375
596.888	17087.4375
600.89682	17328.1375
604.9028	18301.6375
608.90594	20719.2375
612.90624	23716.2375
616.90371	22796.6375
620.89834	18692.8375
624.89015	16743.1375
628.87913	16387.7375
632.86528	16573.2375
636.84862	16873.3375
640.82913	16738.4375
644.80683	16334.3375
648.78172	16029.0375
652.75379	16010.6375
656.72306	16266.1375
660.68952	16621.7375
664.65319	16555.1375
668.61405	16204.4375
672.57211	16086.8375
676.52738	16114.4375
680.47986	16122.5375
684.42955	15992.5375
688.37646	15912.4375
692.32058	15953.7375
696.26192	16072.0375
700.20048	16217.4375
704.13626	16337.2375
708.06928	16328.3375
711.99952	16235.4375
715.927	16191.5375
719.85171	16238.7375
723.77365	16263.9375
727.69284	16193.3375
731.60928	16084.3375
735.52295	16050.1375
739.43388	16045.6375
743.34206	16112.4375
747.24749	16141.9375
751.15017	16175.8375
755.05012	16307.4375
758.94733	16688.4375
762.8418	17587.8375
766.73354	19232.1375
770.62254	20862.3375
774.50882	21425.3375
778.39237	20741.2375
782.27321	19177.3375
786.15132	17722.9375
790.02671	16819.4375
793.89938	16343.2375
797.76935	16138.6375
801.6366	15984.5375
805.50115	15923.0375
809.36299	15893.8375
813.22213	15853.9375
817.07857	15834.7375
820.93231	15804.6375
824.78336	15799.0375
828.63172	15815.0375
832.47738	15803.5375
836.32036	15786.1375
840.16066	15786.3375
843.99827	15721.6375
847.8332	15767.1375
851.66546	15765.2375
855.49504	15782.2375
859.32195	15819.7375
863.1462	15794.1375
866.96777	15767.5375
870.78668	15784.7375
874.60293	15798.5375
878.41652	15853.3375
882.22745	15900.2375
886.03573	15948.0375
889.84136	15981.7375
893.64433	15900.1375
897.44466	15878.4375
901.24235	15867.1375
905.0374	15805.0375
908.8298	15757.1375
912.61957	15714.1375
916.40671	15714.5375
920.19121	15773.0375
923.97308	15831.2375
927.75233	15905.6375
931.52895	15920.1375
935.30295	15832.0375
939.07433	15615.6375
942.84309	15435.8375
946.60924	15288.0375
950.37278	15271.7375
954.13371	15209.2375
957.89203	15205.9375
961.64774	15224.5375
965.40086	15209.6375
969.15137	15171.5375
972.89929	15115.1375
976.64461	15102.5375
980.38733	15112.9375
984.12747	15121.6375
987.86502	15198.9375
991.59999	15225.1375
995.33237	15280.7375
999.06217	15378.1375
1002.78939	15520.3375
1006.51404	15730.8375
1010.23611	15889.4375
1013.95561	16014.8375
1017.67255	15996.5375
1021.38692	15928.1375
1025.09872	15822.9375
1028.80796	15654.4375
1032.51465	15608.5375
1036.21877	15602.1375
1039.92035	15685.4375
1043.61937	15766.3375
1047.31584	15846.2375
1051.00976	15904.5375
1054.70114	15931.6375
1058.38998	15931.9375
1062.07627	16018.9375
1065.76003	16130.0375
1069.44126	16242.9375
1073.11995	16471.7375
1076.79611	16729.4375
1080.46974	16875.6375
1084.14085	17006.8375
1087.80943	17160.2375
1091.47549	17257.1375
1095.13903	17185.2375
1098.80005	16968.0375
1102.45857	16803.7375
1106.11456	16634.4375
1109.76805	16577.6375
1113.41903	16652.9375
1117.06751	16830.9375
1120.71348	17096.4375
1124.35696	17421.7375
1127.99793	17688.3375
1131.63641	17722.9375
1135.2724	17435.8375
1138.90589	17130.1375
1142.5369	16904.5375
1146.16542	16738.2375
1149.79145	16589.5375
1153.415	16537.1375
1157.03607	16550.0375
1160.65467	16735.2375
1164.27079	17062.5375
1167.88443	17622.9375
1171.49561	18297.8375
1175.10432	19414.8375
1178.71056	20894.5375
1182.31434	22256.8375
1185.91565	22809.6375
1189.51451	22672.5375
1193.11091	22113.5375
1196.70485	21387.3375
1200.29634	20608.5375
1203.88538	19933.1375
1207.47197	19179.1375
1211.05612	18453.0375
1214.63782	17938.3375
1218.21708	17638.4375
1221.79391	17426.5375
1225.36829	17389.0375
1228.94024	17349.1375
1232.50976	17310.7375
1236.07685	17298.0375
1239.6415	17268.5375
1243.20374	17334.4375
1246.76355	17394.8375
1250.32093	17466.7375
1253.8759	17607.6375
1257.42845	17894.1375
1260.97859	18269.9375
1264.52631	18658.1375
1268.07163	19013.0375
1271.61453	19370.7375
1275.15503	19544.2375
1278.69312	19724.4375
1282.22882	19850.5375
1285.76211	20062.9375
1289.29301	20442.3375
1292.82151	20815.6375
1296.34761	21303.9375
1299.87133	21972.3375
1303.39266	23063.4375
1306.9116	24507.8375
1310.42815	25996.5375
1313.94233	26648.1375
1317.45412	26106.6375
1320.96354	25104.6375
1324.47058	24047.8375
1327.97525	23109.3375
1331.47754	22448.1375
1334.97747	22259.9375
1338.47502	22374.1375
1341.97022	22816.3375
1345.46305	23676.1375
1348.95352	24762.0375
1352.44163	25934.3375
1355.92738	27252.2375
1359.41078	29132.0375
1362.89183	30951.0375
1366.37053	30477.1375
1369.84688	27257.7375
1373.32088	23842.3375
1376.79254	21624.6375
1380.26186	20460.0375
1383.72883	19788.9375
1387.19347	19312.0375
1390.65578	18839.7375
1394.11575	18390.0375
1397.57339	18006.5375
1401.0287	17807.3375
1404.48168	17706.5375
1407.93234	17628.9375
1411.38068	17612.7375
1414.82669	17590.2375
1418.27039	17517.5375
1421.71177	17360.1375
1425.15083	17161.1375
1428.58758	16995.7375
1432.02203	16976.3375
1435.45416	17047.6375
1438.88399	17126.9375
1442.31151	17177.6375
1445.73673	17232.1375
1449.15965	17313.5375
1452.58027	17328.4375
1455.9986	17345.2375
1459.41463	17391.5375
1462.82837	17603.1375
1466.23982	17908.2375
1469.64898	18262.2375
1473.05586	18578.3375
1476.46045	18785.7375
1479.86276	18984.5375
1483.26279	19204.2375
1486.66054	19519.8375
1490.05602	19942.5375
1493.44922	20757.1375
1496.84016	21936.3375
1500.22882	23749.0375
1503.61521	26112.6375
1506.99934	28470.8375
1510.38121	29923.0375
1513.76081	29749.9375
1517.13816	27779.4375
1520.51324	25150.6375
1523.88607	22967.9375
1527.25665	21623.6375
1530.62498	20887.1375
1533.99105	20465.8375
1537.35488	20095.5375
1540.71647	19741.4375
1544.07581	19413.5375
1547.4329	19156.2375
1550.78776	18991.1375
1554.14038	18877.7375
1557.49077	18958.2375
1560.83892	19142.7375
1564.18484	19495.7375
1567.52853	19982.8375
1570.86999	20395.6375
1574.20922	20689.5375
1577.54624	20547.3375
1580.88103	19861.4375
1584.2136	18900.5375
1587.54395	18339.3375
1590.87208	18293.1375
1594.19801	18687.6375
1597.52172	19393.5375
1600.84321	19656.2375
1604.16251	19325.1375
1607.47959	18830.4375
1610.79447	18258.2375
1614.10715	17576.8375
1617.41763	16861.9375
1620.7259	16262.7375
1624.03199	15933.2375
1627.33587	15824.3375
1630.63757	15948.8375
1633.93707	16302.2375
1637.23439	16953.0375
1640.52951	18143.3375
1643.82246	19820.8375
1647.11321	21720.1375
1650.40179	22922.9375
1653.68819	22468.0375
1656.97241	20507.4375
1660.25446	18224.7375
1663.53433	16572.9375
1666.81203	15537.9375
1670.08756	14903.1375
1673.36092	14516.2375
1676.63211	14257.2375
1679.90115	14074.5375
1683.16801	13904.0375
1686.43272	13801.3375
1689.69527	13718.0375
1692.95567	13626.4375
1696.2139	13586.8375
1699.46999	13530.9375
1702.72392	13475.1375
1705.97571	13477.0375
1709.22535	13466.1375
1712.47284	13445.6375
1715.71819	13423.8375
1718.96139	13374.6375
1722.20246	13339.1375
1725.44139	13288.8375
1728.67818	13218.3375
1731.91284	13156.8375
1735.14537	13092.6375
1738.37576	13044.3375
1741.60403	13004.2375
1744.83017	12942.7375
1748.05418	12943.9375
1751.27607	12904.2375
1754.49584	12878.9375
1757.71349	12811.6375
1760.92903	12841.4375
1764.14244	12843.2375
1767.35375	12816.7375
1770.56294	12744.0375
1773.77002	12715.7375
1776.97499	12730.6375
1780.17785	12688.9375
1783.37861	12663.0375
1786.57727	12647.0375
1789.77382	12593.1375
1792.96828	12575.2375
1796.16064	12572.7375
1799.3509	12544.5375
1802.53907	12522.7375
1805.72514	12526.5375
1808.90913	12459.3375
1812.09102	12411.9375
1815.27083	12379.0375
1818.44856	12388.1375
1821.6242	12322.0375
1824.79776	12324.3375
1827.96924	12286.5375
1831.13864	12272.1375
1834.30597	12268.4375
1837.47122	12240.5375
1840.6344	12233.5375
1843.7955	12209.3375
1846.95454	12191.0375
1850.11151	12170.5375
1853.26642	12151.8375
1856.41926	12160.5375
1859.57004	12160.4375
1862.71876	12130.6375
1865.86542	12110.7375
1869.01003	12100.5375
1872.15258	12063.0375
1875.29308	12017.1375
1878.43152	12035.3375
1881.56792	12044.3375
1884.70227	12034.9375
1887.83457	12008.1375
1890.96482	12004.6375
1894.09304	11982.7375
1897.21921	11921.8375
1900.34335	11909.7375
1903.46544	11894.7375
1906.58551	11911.3375
1909.70353	11883.2375
1912.81953	11871.7375
1915.93349	11872.9375
1919.04543	11827.0375
1922.15534	11775.2375
1925.26322	11764.0375
1928.36908	11738.3375
1931.47292	11689.2375
1934.57473	11672.3375
1937.67453	11682.2375
1940.77232	11659.7375
1943.86808	11599.2375
1946.96184	11572.0375
1950.05358	11522.4375
1953.14331	11478.3375
1956.23103	11422.2375
1959.31675	11397.1375
1962.40046	11378.2375
1965.48217	11332.2375
1968.56188	11328.5375
1971.63959	11336.4375
1974.7153	11260.1375
1977.78901	11221.1375
1980.86073	11183.6375
1983.93046	11165.3375
1986.99819	11108.1375
1990.06394	11076.5375
1993.1277	11053.2375
1996.18947	10994.7375
1999.24925	11002.0375
2002.30706	10905.8375
2005.36288	10888.6375
2008.41672	10849.1375
2011.46859	10785.8375
2014.51848	10771.4375
2017.56639	10730.6375
2020.61233	10712.7375
2023.6563	10688.1375
2026.6983	10657.7375
2029.73833	10613.8375
2032.7764	10575.4375
2035.8125	10567.1375
2038.84664	10544.6375
2041.87881	10506.6375
2044.90903	10481.0375
2047.93729	10458.6375
2050.96359	10464.7375
2053.98794	10415.3375
2057.01034	10415.5375
2060.03078	10418.7375
2063.04927	10358.0375
2066.06582	10367.7375
2069.08042	10371.6375
2072.09307	10345.8375
2075.10378	10338.0375
2078.11255	10331.6375
2081.11938	10335.4375
2084.12426	10339.0375
2087.12722	10325.0375
2090.12824	10314.5375
2093.12732	10280.3375
2096.12447	10326.0375
2099.11969	10300.1375
2102.11299	10318.6375
2105.10435	10326.1375
2108.09379	10316.5375
2111.08131	10312.1375
2114.0669	10340.4375
2117.05057	10323.9375
2120.03233	10356.9375
2123.01216	10346.6375
2125.99008	10376.1375
2128.96609	10376.5375
2131.94018	10369.8375
2134.91236	10348.8375
2137.88263	10379.3375
2140.851	10376.3375
2143.81746	10392.0375
2146.78201	10384.3375
2149.74466	10377.7375
2152.7054	10348.8375
2155.66425	10333.3375
2158.6212	10328.5375
2161.57625	10300.8375
2164.52941	10332.8375
2167.48067	10339.1375
2170.43004	10303.8375
2173.37752	10311.8375
2176.32311	10306.8375
2179.26681	10317.3375
2182.20863	10279.4375
2185.14856	10285.6375
2188.08661	10267.8375
2191.02278	10268.6375
2193.95707	10267.0375
2196.88948	10237.8375
2199.82001	10247.5375
2202.74867	10226.0375
2205.67545	10233.4375
2208.60037	10213.6375
2211.52341	10174.9375
2214.44458	10158.6375
2217.36388	10134.2375
2220.28132	10110.8375
2223.1969	10084.7375
2226.11061	10077.6375
2229.02246	10016.1375
2231.93245	10000.9375
2234.84058	9981.8375
2237.74686	9978.7375
2240.65128	9984.2375
2243.55385	9951.6375
2246.45456	9924.2375
2249.35343	9932.3375
2252.25044	9898.0375
2255.14561	9889.9375
2258.03893	9890.2375
2260.93041	9880.9375
2263.82004	9867.9375
2266.70783	9830.8375
2269.59378	9821.6375
2272.4779	9777.3375
2275.36017	9805.3375
2278.24061	9756.1375
2281.11922	9736.2375
2283.996	9730.4375
2286.87094	9708.7375
2289.74405	9680.0375
2292.61534	9664.5375
2295.4848	9635.8375
2298.35243	9595.5375
2301.21824	9605.3375
2304.08223	9599.7375
2306.94439	9593.5375
2309.80474	9573.4375
2312.66327	9586.9375
2315.51999	9547.6375
2318.37489	9531.6375
2321.22797	9528.0375
2324.07925	9507.5375
2326.92871	9496.6375
2329.77637	9496.6375
2332.62222	9467.4375
2335.46626	9432.5375
2338.3085	9427.9375
2341.14893	9412.1375
2343.98756	9397.8375
2346.8244	9424.1375
2349.65943	9406.5375
2352.49267	9371.9375
2355.32411	9399.1375
2358.15376	9391.6375
2360.98161	9382.2375
2363.80768	9376.6375
2366.63195	9421.9375
2369.45444	9419.1375
2372.27514	9351.2375
2375.09405	9351.3375
2377.91118	9339.7375
2380.72652	9328.5375
2383.54009	9299.7375
2386.35187	9287.1375
2389.16188	9262.7375
2391.97011	9216.6375
2394.77657	9196.8375
2397.58125	9164.0375
2400.38416	9164.0375
2403.18529	9125.9375
2405.98466	9090.9375
2408.78226	9100.4375
2411.57809	9077.7375
2414.37216	9075.8375
2417.16446	9033.7375
2419.955	9064.0375
2422.74378	9043.5375
2425.5308	9005.4375
2428.31606	9006.9375
2431.09956	9001.6375
2433.88131	9015.3375
2436.6613	9008.9375
2439.43954	8988.5375
2442.21603	8959.3375
2444.99077	8944.5375
2447.76377	8961.4375
2450.53501	8945.0375
2453.30451	8948.2375
2456.07226	8924.6375
2458.83827	8934.9375
2461.60254	8943.3375
2464.36507	8932.9375
2467.12586	8896.3375
2469.88492	8890.3375
2472.64224	8898.3375
2475.39782	8899.7375
2478.15167	8898.1375
2480.90379	8905.1375
2483.65417	8907.8375
2486.40283	8902.7375
2489.14976	8908.9375
2491.89497	8875.7375
2494.63845	8890.9375
2497.3802	8863.6375
2500.12024	8844.6375
2502.85855	8826.1375
2505.59514	8835.2375
2508.33002	8786.8375
2511.06318	8768.7375
2513.79462	8758.9375
2516.52435	8728.0375
2519.25237	8720.7375
2521.97867	8717.8375
2524.70327	8709.9375
2527.42616	8671.6375
2530.14734	8700.3375
2532.86681	8679.9375
2535.58458	8641.8375
2538.30065	8619.5375
2541.01501	8631.4375
2543.72768	8600.9375
2546.43864	8610.6375
2549.14791	8586.7375
2551.85548	8571.1375
2554.56136	8552.7375
2557.26554	8521.8375
2559.96803	8505.2375
2562.66883	8513.2375
2565.36794	8493.1375
2568.06536	8465.1375
2570.7611	8432.9375
2573.45514	8451.4375
2576.14751	8435.5375
2578.83819	8395.8375
2581.52719	8365.1375
2584.21451	8378.7375
2586.90015	8371.4375
2589.58411	8354.1375
2592.2664	8340.8375
2594.94701	8306.3375
2597.62594	8298.8375
2600.30321	8274.5375
2602.9788	8267.8375
2605.65273	8276.0375
2608.32498	8244.1375
2610.99557	8230.7375
2613.66449	8223.3375
2616.33175	8221.4375
2618.99734	8225.2375
2621.66128	8194.9375
2624.32355	8181.0375
2626.98416	8172.0375
2629.64311	8154.0375
2632.30041	8144.6375
2634.95605	8113.2375
2637.61004	8124.9375
2640.26238	8102.5375
2642.91306	8097.8375
2645.56209	8093.3375
2648.20948	8081.9375
2650.85521	8080.9375
2653.4993	8061.4375
2656.14175	8078.3375
2658.78255	8075.0375
2661.42171	8066.3375
2664.05923	8078.3375
2666.6951	8071.5375
2669.32934	8086.8375
2671.96194	8080.7375
2674.59291	8079.6375
2677.22224	8098.5375
2679.84993	8080.9375
2682.476	8029.7375
2685.10043	8048.3375
2687.72324	8018.9375
2690.34441	8023.7375
2692.96396	8034.0375
2695.58188	8033.3375
2698.19818	8039.4375
2700.81285	8025.4375
2703.4259	8025.9375
2706.03733	8041.0375
2708.64714	8026.7375
2711.25533	8019.6375
2713.86191	8007.5375
2716.46687	8054.0375
2719.07021	8025.6375
2721.67194	8024.5375
2724.27206	8011.9375
2726.87057	8031.3375
2729.46747	8020.4375
2732.06276	8017.9375
2734.65644	7979.9375
2737.24852	7986.6375
2739.83899	7952.3375
2742.42786	7942.4375
2745.01513	7912.9375
2747.60079	7929.1375
2750.18486	7922.2375
2752.76733	7920.4375
2755.3482	7891.9375
2757.92747	7898.1375
2760.50515	7851.6375
2763.08123	7884.6375
2765.65573	7848.8375
2768.22863	7863.6375
2770.79994	7846.5375
2773.36967	7821.6375
2775.9378	7827.3375
2778.50435	7813.8375
2781.06932	7771.2375
2783.6327	7778.0375
2786.1945	7781.7375
2788.75471	7763.1375
2791.31335	7747.0375
2793.87041	7744.0375
2796.42589	7725.3375
2798.97979	7707.9375
2801.53212	7682.0375
2804.08288	7661.2375
2806.63206	7652.2375
2809.17967	7661.5375
2811.72571	7648.2375
2814.27018	7628.0375
2816.81308	7625.7375
2819.35442	7605.5375
2821.89419	7578.1375
2824.43239	7589.7375
2826.96904	7546.9375
2829.50412	7537.6375
2832.03763	7522.7375
2834.56959	7548.0375
2837.1	7522.9375
2839.62884	7544.3375
2842.15613	7527.1375
2844.68186	7525.8375
2847.20604	7548.8375
2849.72867	7553.0375
2852.24974	7539.0375
2854.76927	7534.4375
2857.28724	7518.8375
2859.80367	7505.7375
2862.31855	7481.5375
2864.83189	7489.5375
2867.34368	7478.8375
2869.85393	7469.6375
2872.36264	7483.9375
2874.8698	7467.3375
2877.37543	7444.3375
2879.87952	7450.3375
2882.38207	7433.4375
2884.88308	7437.0375
2887.38256	7423.2375
2889.88051	7423.6375
2892.37692	7423.1375
2894.8718	7414.3375
2897.36515	7419.8375
2899.85698	7414.1375
2902.34727	7392.5375
2904.83604	7404.3375
2907.32328	7411.2375
2909.809	7431.7375
2912.29319	7444.9375
2914.77587	7432.0375
2917.25702	7427.2375
2919.73665	7422.0375
2922.21476	7424.8375
2924.69136	7406.1375
2927.16644	7387.3375
2929.64	7400.3375
2932.11205	7377.2375
2934.58258	7358.5375
2937.05161	7359.4375
2939.51912	7337.8375
2941.98513	7335.1375
2944.44962	7293.8375
2946.91261	7271.9375
2949.37409	7278.6375
2951.83407	7273.3375
2954.29254	7273.4375
2956.74951	7291.7375
2959.20498	7314.1375
2961.65895	7293.7375
2964.11142	7276.2375
2966.56239	7240.8375
2969.01186	7261.7375
2971.45984	7238.2375
2973.90632	7243.1375
2976.35131	7227.1375
2978.7948	7205.4375
2981.23681	7181.3375
2983.67732	7198.1375
2986.11635	7171.5375
2988.55388	7163.4375
2990.98993	7152.4375
2993.4245	7125.1375
2995.85758	7111.3375
2998.28917	7096.4375
3000.71928	7070.3375
3003.14791	7075.2375
3005.57506	7056.9375
3008.00073	7063.9375
3010.42493	7052.1375
3012.84764	7037.8375
3015.26888	7037.4375
3017.68865	7028.5375
3020.10694	7016.0375
3022.52376	6985.3375
3024.9391	6979.8375
3027.35298	6968.2375
3029.76539	6947.7375
3032.17632	6950.4375
3034.5858	6930.2375
3036.9938	6917.9375
3039.40034	6897.3375
3041.80542	6918.5375
3044.20903	6896.3375
3046.61118	6897.2375
3049.01187	6857.6375
3051.4111	6854.0375
3053.80888	6826.5375
3056.20519	6830.2375
3058.60005	6813.8375
3060.99345	6809.1375
3063.3854	6797.8375
3065.7759	6781.8375
3068.16494	6778.7375
3070.55254	6770.1375
3072.93868	6742.4375
3075.32338	6730.4375
3077.70662	6711.8375
3080.08842	6703.2375
3082.46878	6692.0375
3084.84769	6685.4375
3087.22515	6708.6375
3089.60118	6685.7375
3091.97576	6682.4375
3094.3489	6683.1375
3096.72061	6676.8375
3099.09087	6688.1375
3101.4597	6678.7375
3103.82709	6675.2375
3106.19305	6667.7375
3108.55757	6673.0375
3110.92066	6667.0375
3113.28232	6672.8375
3115.64255	6642.8375
3118.00134	6634.0375
3120.35871	6613.9375
3122.71466	6586.3375
3125.06917	6582.0375
3127.42226	6573.0375
3129.77393	6573.3375
3132.12417	6559.0375
3134.47299	6573.2375
3136.82039	6561.9375
3139.16636	6559.3375
3141.51092	6550.2375
3143.85406	6535.8375
3146.19579	6560.6375
3148.53609	6553.7375
3150.87499	6576.1375
3153.21246	6584.7375
3155.54853	6584.2375
3157.88318	6578.0375
3160.21642	6574.4375
3162.54826	6591.9375
3164.87868	6579.4375
3167.2077	6563.9375
3169.5353	6568.4375
3171.86151	6560.8375
3174.18631	6562.7375
3176.5097	6572.0375
3178.83169	6549.1375
3181.15228	6531.0375
3183.47147	6511.6375
3185.78926	6522.5375
3188.10565	6517.6375
3190.42065	6520.0375
3192.73424	6502.4375
3195.04645	6515.8375
3197.35725	6517.2375
3199.66667	6498.5375
3201.97469	6523.1375
3204.28132	6517.7375
3206.58656	6517.3375
3208.8904	6517.7375
3211.19287	6538.4375
3213.49394	6523.6375
3215.79363	6528.4375
3218.09193	6524.4375
3220.38884	6514.1375
3222.68438	6535.7375
3224.97853	6519.2375
3227.2713	6528.4375
3229.56269	6539.0375
3231.8527	6514.9375
3234.14133	6501.3375
3236.42858	6488.7375
3238.71446	6471.2375
3240.99896	6455.0375
3243.28209	6450.8375
3245.56384	6439.4375
3247.84423	6428.6375
3250.12324	6445.4375
3252.40088	6430.4375
3254.67715	6435.8375
3256.95205	6431.6375
3259.22558	6415.8375
3261.49775	6418.0375
3263.76855	6404.0375
3266.03799	6379.9375
3268.30606	6371.3375
3270.57277	6358.3375
3272.83812	6341.5375
3275.10211	6334.6375
3277.36474	6322.1375
3279.62601	6322.5375
3281.88593	6316.0375
3284.14448	6322.8375
3286.40168	6336.3375
3288.65753	6300.6375
3290.91202	6322.5375
3293.16516	6288.4375
3295.41695	6265.7375
3297.66738	6237.8375
3299.91647	6210.7375
3302.16421	6209.8375
3304.4106	6170.1375
3306.65564	6136.3375
3308.89933	6123.6375
3311.14169	6073.5375
3313.38269	6028.0375
3315.62236	5981.1375
3317.86068	5942.3375
3320.09766	5895.8375
3322.3333	5842.0375
3324.5676	5832.2375
3326.80056	5754.2375
3329.03219	5726.2375
3331.26248	2.6375
3333.49143	-1.1625
3335.71905	0.4375
