Data from AgNP_FTO_APTES_UA_100uM_CRN_10uM_R6G_10uM_NaF_0.1M_Addition_RamanShift__56__16-22-20-469.txt Node

Date: Thu Mar 24 16:22:20 GMT 2022
User: TCL
Spectrometer: QEP01345
Trigger mode: 4
Integration Time (sec): 7.000000E0
Scans to average: 10
Electric dark correction enabled: true
Nonlinearity correction enabled: false
Boxcar width: 0
XAxis mode: Raman Shifts
Number of Pixels in Spectrum: 1044
>>>>>Begin Spectral Data<<<<<
46.04893	-1.7125
50.45542	0.2875
54.85868	-0.0125
59.25871	-0.7125
63.6555	26.9875
68.04907	31.2875
72.43941	31.7875
76.82654	34.1875
81.21044	37.2875
85.59113	36.3875
89.96862	40.7875
94.34289	36.9875
98.71396	41.7875
103.08183	40.2875
107.4465	42.1875
111.80798	43.7875
116.16626	41.7875
120.52136	46.5875
124.87327	46.9875
129.222	50.7875
133.56755	55.2875
137.90993	57.7875
142.24913	63.6875
146.58517	68.1875
150.91804	84.9875
155.24774	102.9875
159.57429	129.7875
163.89768	162.4875
168.21792	220.4875
172.53501	306.0875
176.84895	427.4875
181.15975	601.3875
185.46741	846.4875
189.77193	1157.2875
194.07331	1559.8875
198.37157	2032.5875
202.6667	2531.1875
206.9587	3036.4875
211.24758	3594.4875
215.53334	4192.2875
219.81599	4917.1875
224.09553	5730.1875
228.37195	6610.8875
232.64527	7542.0875
236.91549	8393.6875
241.18261	9048.6875
245.44663	9487.8875
249.70755	9757.5875
253.96539	10056.1875
258.22014	10342.1875
262.4718	10651.5875
266.72039	10809.8875
270.96589	10742.9875
275.20832	10451.0875
279.44768	10065.9875
283.68397	9673.5875
287.91719	9473.9875
292.14735	9551.9875
296.37445	9966.3875
300.59849	10800.7875
304.81948	11849.4875
309.03742	12724.1875
313.25231	13003.5875
317.46415	12291.7875
321.67296	10981.2875
325.87872	9777.4875
330.08145	9181.9875
334.28114	9153.6875
338.47781	9378.9875
342.67145	9808.4875
346.86207	10434.0875
351.04966	11401.9875
355.23424	12559.4875
359.4158	13262.8875
363.59435	13408.0875
367.76989	13193.6875
371.94243	12879.7875
376.11196	12596.5875
380.27849	12304.2875
384.44203	11972.9875
388.60257	11645.5875
392.76012	11455.2875
396.91468	11560.4875
401.06626	11951.4875
405.21485	12184.1875
409.36047	11677.3875
413.50311	10559.2875
417.64277	9565.6875
421.77947	9004.3875
425.9132	8767.6875
430.04396	8733.8875
434.17176	8809.7875
438.2966	9083.9875
442.41849	9564.3875
446.53742	10212.1875
450.6534	10732.5875
454.76644	10942.6875
458.87653	10735.9875
462.98368	10341.9875
467.08789	9894.5875
471.18916	9457.3875
475.2875	9002.2875
479.38291	8561.8875
483.4754	8227.8875
487.56496	7984.8875
491.6516	7836.4875
495.73531	7785.8875
499.81612	7826.0875
503.89401	7960.5875
507.96899	8159.7875
512.04106	8415.5875
516.11023	8702.2875
520.1765	8901.5875
524.23987	8955.5875
528.30034	8882.9875
532.35792	8730.2875
536.41261	8514.5875
540.46441	8212.1875
544.51333	8008.0875
548.55936	8038.0875
552.60252	8339.5875
556.64279	8732.0875
560.6802	9034.3875
564.71473	9501.5875
568.7464	10359.1875
572.7752	10727.1875
576.80114	9921.7875
580.82422	9114.7875
584.84444	8916.1875
588.86181	9285.1875
592.87633	10039.1875
596.888	10545.2875
600.89682	10660.7875
604.9028	12229.4875
608.90594	17969.2875
612.90624	25830.5875
616.90371	24120.4875
620.89834	13967.4875
624.89015	9170.4875
628.87913	8342.5875
632.86528	8646.8875
636.84862	8975.0875
640.82913	8565.3875
644.80683	7693.9875
648.78172	7112.7875
652.75379	7195.7875
656.72306	7880.3875
660.68952	8722.8875
664.65319	8389.7875
668.61405	7394.9875
672.57211	6951.5875
676.52738	6925.7875
680.47986	6859.4875
684.42955	6640.4875
688.37646	6565.3875
692.32058	6603.5875
696.26192	6764.0875
700.20048	6971.2875
704.13626	7087.8875
708.06928	7017.8875
711.99952	6926.8875
715.927	6955.2875
719.85171	7137.5875
723.77365	7211.0875
727.69284	7075.5875
731.60928	7024.0875
735.52295	7064.1875
739.43388	7129.1875
743.34206	7180.5875
747.24749	7130.7875
751.15017	7118.6875
755.05012	7332.0875
758.94733	8187.5875
762.8418	10392.9875
766.73354	13884.4875
770.62254	17000.1875
774.50882	18353.4875
778.39237	17397.6875
782.27321	14085.3875
786.15132	10487.4875
790.02671	8363.8875
793.89938	7450.2875
797.76935	7055.3875
801.6366	6891.0875
805.50115	6788.6875
809.36299	6734.6875
813.22213	6684.6875
817.07857	6657.5875
820.93231	6651.5875
824.78336	6733.4875
828.63172	6839.7875
832.47738	6834.9875
836.32036	6778.7875
840.16066	6639.5875
843.99827	6555.0875
847.8332	6498.9875
851.66546	6481.2875
855.49504	6506.4875
859.32195	6442.3875
863.1462	6403.3875
866.96777	6367.1875
870.78668	6376.8875
874.60293	6409.1875
878.41652	6501.3875
882.22745	6656.9875
886.03573	6725.3875
889.84136	6681.1875
893.64433	6629.5875
897.44466	6630.0875
901.24235	6633.6875
905.0374	6545.1875
908.8298	6415.9875
912.61957	6313.2875
916.40671	6302.8875
920.19121	6385.2875
923.97308	6533.9875
927.75233	6793.5875
931.52895	7027.1875
935.30295	6913.0875
939.07433	6458.0875
942.84309	6106.9875
946.60924	5908.4875
950.37278	5809.0875
954.13371	5775.4875
957.89203	5740.2875
961.64774	5718.3875
965.40086	5712.6875
969.15137	5684.6875
972.89929	5666.4875
976.64461	5658.1875
980.38733	5679.9875
984.12747	5685.0875
987.86502	5723.3875
991.59999	5820.4875
995.33237	5990.1875
999.06217	6274.6875
1002.78939	6590.7875
1006.51404	6932.0875
1010.23611	7199.4875
1013.95561	7289.8875
1017.67255	7180.2875
1021.38692	6897.0875
1025.09872	6550.2875
1028.80796	6341.0875
1032.51465	6340.7875
1036.21877	6414.4875
1039.92035	6481.7875
1043.61937	6520.6875
1047.31584	6567.2875
1051.00976	6533.7875
1054.70114	6441.7875
1058.38998	6417.9875
1062.07627	6402.1875
1065.76003	6417.7875
1069.44126	6477.4875
1073.11995	6671.6875
1076.79611	6974.0875
1080.46974	7423.7875
1084.14085	8096.3875
1087.80943	8639.7875
1091.47549	8720.6875
1095.13903	8308.4875
1098.80005	7674.3875
1102.45857	7258.6875
1106.11456	7182.1875
1109.76805	7419.5875
1113.41903	7940.6875
1117.06751	8717.0875
1120.71348	9789.6875
1124.35696	10973.1875
1127.99793	11690.1875
1131.63641	11049.2875
1135.2724	9728.0875
1138.90589	8709.7875
1142.5369	8141.9875
1146.16542	7801.1875
1149.79145	7610.4875
1153.415	7607.2875
1157.03607	7722.8875
1160.65467	8048.4875
1164.27079	8675.0875
1167.88443	9656.7875
1171.49561	11294.0875
1175.10432	13927.1875
1178.71056	17407.4875
1182.31434	20126.8875
1185.91565	20505.2875
1189.51451	19085.8875
1193.11091	16869.3875
1196.70485	14784.9875
1200.29634	13335.3875
1203.88538	12111.2875
1207.47197	10687.1875
1211.05612	9541.5875
1214.63782	8936.0875
1218.21708	8778.8875
1221.79391	8885.5875
1225.36829	8968.8875
1228.94024	8835.4875
1232.50976	8550.6875
1236.07685	8388.6875
1239.6415	8408.9875
1243.20374	8554.8875
1246.76355	8635.3875
1250.32093	8759.1875
1253.8759	9088.7875
1257.42845	9669.3875
1260.97859	10466.1875
1264.52631	11323.1875
1268.07163	11985.5875
1271.61453	12436.8875
1275.15503	12574.5875
1278.69312	12531.4875
1282.22882	12733.4875
1285.76211	13514.1875
1289.29301	14626.2875
1292.82151	15751.7875
1296.34761	16881.6875
1299.87133	18660.0875
1303.39266	21573.1875
1306.9116	26068.7875
1310.42815	30795.5875
1313.94233	32527.6875
1317.45412	30112.0875
1320.96354	25752.4875
1324.47058	21653.1875
1327.97525	18454.1875
1331.47754	16531.9875
1334.97747	15889.4875
1338.47502	16133.1875
1341.97022	17061.0875
1345.46305	18660.4875
1348.95352	21052.8875
1352.44163	24360.3875
1355.92738	29390.2875
1359.41078	37051.3875
1362.89183	43159.5875
1366.37053	39683.5875
1369.84688	29866.9875
1373.32088	22067.3875
1376.79254	18127.4875
1380.26186	16260.1875
1383.72883	14872.6875
1387.19347	13548.6875
1390.65578	12339.0875
1394.11575	11671.2875
1397.57339	11503.8875
1401.0287	11637.3875
1404.48168	11766.4875
1407.93234	11795.6875
1411.38068	11864.2875
1414.82669	11872.6875
1418.27039	11734.2875
1421.71177	11297.5875
1425.15083	10885.1875
1428.58758	10941.4875
1432.02203	11518.0875
1435.45416	12138.5875
1438.88399	12327.4875
1442.31151	12304.5875
1445.73673	12325.5875
1449.15965	12368.4875
1452.58027	12106.0875
1455.9986	11613.8875
1459.41463	11406.3875
1462.82837	11673.3875
1466.23982	12332.2875
1469.64898	13043.9875
1473.05586	13484.9875
1476.46045	13871.4875
1479.86276	14318.6875
1483.26279	14872.1875
1486.66054	15575.8875
1490.05602	16592.6875
1493.44922	18016.8875
1496.84016	20032.7875
1500.22882	23254.7875
1503.61521	28061.5875
1506.99934	33867.9875
1510.38121	38567.6875
1513.76081	39024.6875
1517.13816	34289.9875
1520.51324	27001.4875
1523.88607	20916.2875
1527.25665	17289.0875
1530.62498	15448.9875
1533.99105	14454.6875
1537.35488	13750.1875
1540.71647	13290.3875
1544.07581	12996.4875
1547.4329	12823.9875
1550.78776	12644.2875
1554.14038	12617.0875
1557.49077	12655.9875
1560.83892	13035.1875
1564.18484	13952.4875
1567.52853	15178.9875
1570.86999	16169.5875
1574.20922	16701.8875
1577.54624	16372.9875
1580.88103	14677.0875
1584.2136	12655.3875
1587.54395	11653.5875
1590.87208	11967.0875
1594.19801	13525.5875
1597.52172	15673.1875
1600.84321	16758.3875
1604.16251	16000.8875
1607.47959	14185.8875
1610.79447	12109.5875
1614.10715	10253.6875
1617.41763	8978.8875
1620.7259	8290.2875
1624.03199	8024.8875
1627.33587	8165.4875
1630.63757	8677.5875
1633.93707	9722.8875
1637.23439	11646.4875
1640.52951	14980.7875
1643.82246	19909.3875
1647.11321	25333.4875
1650.40179	28217.4875
1653.68819	25921.2875
1656.97241	19914.7875
1660.25446	14148.2875
1663.53433	10448.9875
1666.81203	8411.6875
1670.08756	7287.7875
1673.36092	6617.4875
1676.63211	6237.3875
1679.90115	5946.6875
1683.16801	5767.7875
1686.43272	5635.4875
1689.69527	5563.4875
1692.95567	5487.2875
1696.2139	5445.8875
1699.46999	5415.9875
1702.72392	5387.0875
1705.97571	5374.8875
1709.22535	5353.1875
1712.47284	5337.8875
1715.71819	5344.0875
1718.96139	5326.8875
1722.20246	5292.1875
1725.44139	5218.2875
1728.67818	5105.3875
1731.91284	5038.2875
1735.14537	4968.4875
1738.37576	4919.2875
1741.60403	4901.5875
1744.83017	4854.5875
1748.05418	4826.0875
1751.27607	4798.1875
1754.49584	4802.5875
1757.71349	4766.2875
1760.92903	4762.3875
1764.14244	4732.3875
1767.35375	4702.5875
1770.56294	4665.6875
1773.77002	4622.4875
1776.97499	4566.5875
1780.17785	4527.9875
1783.37861	4488.2875
1786.57727	4461.0875
1789.77382	4430.8875
1792.96828	4432.6875
1796.16064	4414.0875
1799.3509	4406.3875
1802.53907	4399.9875
1805.72514	4362.2875
1808.90913	4323.4875
1812.09102	4313.4875
1815.27083	4303.5875
1818.44856	4265.5875
1821.6242	4262.6875
1824.79776	4243.0875
1827.96924	4208.0875
1831.13864	4206.3875
1834.30597	4182.3875
1837.47122	4158.7875
1840.6344	4159.0875
1843.7955	4141.8875
1846.95454	4123.0875
1850.11151	4118.8875
1853.26642	4105.5875
1856.41926	4106.3875
1859.57004	4094.3875
1862.71876	4111.0875
1865.86542	4096.5875
1869.01003	4107.4875
1872.15258	4111.8875
1875.29308	4119.7875
1878.43152	4123.3875
1881.56792	4122.0875
1884.70227	4120.4875
1887.83457	4116.9875
1890.96482	4115.3875
1894.09304	4112.9875
1897.21921	4098.2875
1900.34335	4103.0875
1903.46544	4086.0875
1906.58551	4108.7875
1909.70353	4103.9875
1912.81953	4078.2875
1915.93349	4088.0875
1919.04543	4060.9875
1922.15534	4049.3875
1925.26322	4034.9875
1928.36908	4003.0875
1931.47292	3986.2875
1934.57473	3957.5875
1937.67453	3941.3875
1940.77232	3904.8875
1943.86808	3900.0875
1946.96184	3874.8875
1950.05358	3864.8875
1953.14331	3867.9875
1956.23103	3842.6875
1959.31675	3842.3875
1962.40046	3822.6875
1965.48217	3826.1875
1968.56188	3808.8875
1971.63959	3811.9875
1974.7153	3812.0875
1977.78901	3794.1875
1980.86073	3768.8875
1983.93046	3748.4875
1986.99819	3696.7875
1990.06394	3683.6875
1993.1277	3652.3875
1996.18947	3649.8875
1999.24925	3631.6875
2002.30706	3610.9875
2005.36288	3603.7875
2008.41672	3574.5875
2011.46859	3577.0875
2014.51848	3554.5875
2017.56639	3532.5875
2020.61233	3538.7875
2023.6563	3525.5875
2026.6983	3507.3875
2029.73833	3503.6875
2032.7764	3497.1875
2035.8125	3474.4875
2038.84664	3479.9875
2041.87881	3484.1875
2044.90903	3477.7875
2047.93729	3456.5875
2050.96359	3467.1875
2053.98794	3438.0875
2057.01034	3433.8875
2060.03078	3418.3875
2063.04927	3401.5875
2066.06582	3399.3875
2069.08042	3390.3875
2072.09307	3383.6875
2075.10378	3380.4875
2078.11255	3367.5875
2081.11938	3385.5875
2084.12426	3375.0875
2087.12722	3378.4875
2090.12824	3374.3875
2093.12732	3376.9875
2096.12447	3374.9875
2099.11969	3361.8875
2102.11299	3367.6875
2105.10435	3377.7875
2108.09379	3354.6875
2111.08131	3355.6875
2114.0669	3374.4875
2117.05057	3370.2875
2120.03233	3377.2875
2123.01216	3378.2875
2125.99008	3391.3875
2128.96609	3384.3875
2131.94018	3387.0875
2134.91236	3378.7875
2137.88263	3370.0875
2140.851	3354.6875
2143.81746	3353.4875
2146.78201	3333.2875
2149.74466	3325.5875
2152.7054	3312.7875
2155.66425	3289.0875
2158.6212	3289.9875
2161.57625	3277.8875
2164.52941	3273.2875
2167.48067	3282.8875
2170.43004	3281.4875
2173.37752	3292.7875
2176.32311	3283.9875
2179.26681	3297.5875
2182.20863	3284.9875
2185.14856	3298.3875
2188.08661	3285.8875
2191.02278	3290.0875
2193.95707	3283.8875
2196.88948	3267.4875
2199.82001	3257.0875
2202.74867	3250.3875
2205.67545	3244.7875
2208.60037	3248.2875
2211.52341	3237.7875
2214.44458	3225.1875
2217.36388	3206.3875
2220.28132	3210.3875
2223.1969	3193.0875
2226.11061	3174.5875
2229.02246	3190.4875
2231.93245	3167.4875
2234.84058	3165.6875
2237.74686	3158.5875
2240.65128	3167.4875
2243.55385	3166.5875
2246.45456	3155.5875
2249.35343	3158.2875
2252.25044	3160.3875
2255.14561	3183.3875
2258.03893	3207.9875
2260.93041	3210.3875
2263.82004	3212.6875
2266.70783	3197.1875
2269.59378	3177.8875
2272.4779	3157.4875
2275.36017	3159.1875
2278.24061	3154.6875
2281.11922	3128.9875
2283.996	3119.7875
2286.87094	3099.3875
2289.74405	3094.1875
2292.61534	3071.1875
2295.4848	3057.2875
2298.35243	3062.7875
2301.21824	3028.3875
2304.08223	3040.7875
2306.94439	3034.7875
2309.80474	3047.1875
2312.66327	3035.4875
2315.51999	3040.9875
2318.37489	3028.8875
2321.22797	3023.3875
2324.07925	3039.0875
2326.92871	3037.5875
2329.77637	3050.9875
2332.62222	3037.8875
2335.46626	3017.3875
2338.3085	3023.1875
2341.14893	3023.4875
2343.98756	3032.4875
2346.8244	3055.3875
2349.65943	3061.6875
2352.49267	3075.0875
2355.32411	3087.7875
2358.15376	3108.0875
2360.98161	3125.9875
2363.80768	3136.0875
2366.63195	3145.7875
2369.45444	3156.8875
2372.27514	3171.8875
2375.09405	3164.7875
2377.91118	3136.9875
2380.72652	3114.4875
2383.54009	3087.0875
2386.35187	3063.1875
2389.16188	3035.3875
2391.97011	3009.7875
2394.77657	3004.5875
2397.58125	2981.8875
2400.38416	2965.8875
2403.18529	2949.0875
2405.98466	2936.2875
2408.78226	2926.8875
2411.57809	2915.3875
2414.37216	2926.4875
2417.16446	2918.4875
2419.955	2910.1875
2422.74378	2917.5875
2425.5308	2913.0875
2428.31606	2917.3875
2431.09956	2919.9875
2433.88131	2928.0875
2436.6613	2936.8875
2439.43954	2953.6875
2442.21603	2953.2875
2444.99077	2958.5875
2447.76377	2971.8875
2450.53501	2972.4875
2453.30451	2992.4875
2456.07226	2979.7875
2458.83827	2981.9875
2461.60254	2968.5875
2464.36507	2979.1875
2467.12586	2980.2875
2469.88492	2990.2875
2472.64224	2989.2875
2475.39782	3005.4875
2478.15167	3027.8875
2480.90379	3041.0875
2483.65417	3065.0875
2486.40283	3097.5875
2489.14976	3108.2875
2491.89497	3115.3875
2494.63845	3122.3875
2497.3802	3111.6875
2500.12024	3094.9875
2502.85855	3071.7875
2505.59514	3048.2875
2508.33002	3008.8875
2511.06318	2990.7875
2513.79462	2946.2875
2516.52435	2927.4875
2519.25237	2891.3875
2521.97867	2883.4875
2524.70327	2879.1875
2527.42616	2866.5875
2530.14734	2867.3875
2532.86681	2865.0875
2535.58458	2864.1875
2538.30065	2878.0875
2541.01501	2883.4875
2543.72768	2887.3875
2546.43864	2880.7875
2549.14791	2889.0875
2551.85548	2888.3875
2554.56136	2902.2875
2557.26554	2906.1875
2559.96803	2902.1875
2562.66883	2903.7875
2565.36794	2900.7875
2568.06536	2891.2875
2570.7611	2885.8875
2573.45514	2888.6875
2576.14751	2877.2875
2578.83819	2869.4875
2581.52719	2865.6875
2584.21451	2862.3875
2586.90015	2847.0875
2589.58411	2856.5875
2592.2664	2841.8875
2594.94701	2846.4875
2597.62594	2857.3875
2600.30321	2851.4875
2602.9788	2852.4875
2605.65273	2859.0875
2608.32498	2852.2875
2610.99557	2858.0875
2613.66449	2851.5875
2616.33175	2879.3875
2618.99734	2880.2875
2621.66128	2876.8875
2624.32355	2870.4875
2626.98416	2868.8875
2629.64311	2859.3875
2632.30041	2844.8875
2634.95605	2833.8875
2637.61004	2824.8875
2640.26238	2836.5875
2642.91306	2824.9875
2645.56209	2832.9875
2648.20948	2814.5875
2650.85521	2825.1875
2653.4993	2833.3875
2656.14175	2837.6875
2658.78255	2838.3875
2661.42171	2861.3875
2664.05923	2875.7875
2666.6951	2882.5875
2669.32934	2890.4875
2671.96194	2902.0875
2674.59291	2902.7875
2677.22224	2897.5875
2679.84993	2900.7875
2682.476	2882.3875
2685.10043	2888.9875
2687.72324	2877.7875
2690.34441	2867.4875
2692.96396	2868.7875
2695.58188	2871.4875
2698.19818	2854.8875
2700.81285	2869.9875
2703.4259	2863.3875
2706.03733	2884.8875
2708.64714	2865.6875
2711.25533	2883.9875
2713.86191	2880.1875
2716.46687	2892.2875
2719.07021	2896.2875
2721.67194	2907.4875
2724.27206	2911.7875
2726.87057	2896.0875
2729.46747	2902.5875
2732.06276	2885.6875
2734.65644	2890.9875
2737.24852	2870.0875
2739.83899	2851.2875
2742.42786	2854.6875
2745.01513	2838.4875
2747.60079	2825.1875
2750.18486	2832.4875
2752.76733	2824.1875
2755.3482	2813.2875
2757.92747	2821.2875
2760.50515	2801.7875
2763.08123	2814.3875
2765.65573	2791.5875
2768.22863	2811.0875
2770.79994	2790.0875
2773.36967	2813.5875
2775.9378	2805.2875
2778.50435	2822.3875
2781.06932	2811.5875
2783.6327	2828.6875
2786.1945	2833.8875
2788.75471	2853.3875
2791.31335	2846.7875
2793.87041	2838.1875
2796.42589	2844.0875
2798.97979	2843.5875
2801.53212	2831.7875
2804.08288	2840.2875
2806.63206	2841.5875
2809.17967	2853.0875
2811.72571	2867.9875
2814.27018	2895.4875
2816.81308	2900.9875
2819.35442	2903.9875
2821.89419	2917.6875
2824.43239	2927.7875
2826.96904	2929.0875
2829.50412	2940.9875
2832.03763	2926.2875
2834.56959	2921.1875
2837.1	2921.1875
2839.62884	2915.4875
2842.15613	2914.5875
2844.68186	2932.9875
2847.20604	2957.4875
2849.72867	2956.2875
2852.24974	2962.4875
2854.76927	2980.5875
2857.28724	2975.2875
2859.80367	2987.8875
2862.31855	2987.8875
2864.83189	2997.1875
2867.34368	3013.7875
2869.85393	3018.4875
2872.36264	3016.6875
2874.8698	3022.8875
2877.37543	3022.3875
2879.87952	3020.8875
2882.38207	2998.3875
2884.88308	2993.5875
2887.38256	2990.5875
2889.88051	2979.0875
2892.37692	2969.0875
2894.8718	2973.2875
2897.36515	2971.4875
2899.85698	2962.4875
2902.34727	2973.7875
2904.83604	2977.2875
2907.32328	2973.8875
2909.809	2974.5875
2912.29319	2956.9875
2914.77587	2953.3875
2917.25702	2951.7875
2919.73665	2929.2875
2922.21476	2922.3875
2924.69136	2909.9875
2927.16644	2894.8875
2929.64	2903.3875
2932.11205	2880.1875
2934.58258	2857.9875
2937.05161	2870.6875
2939.51912	2854.4875
2941.98513	2853.0875
2944.44962	2840.5875
2946.91261	2829.7875
2949.37409	2827.2875
2951.83407	2845.0875
2954.29254	2827.1875
2956.74951	2833.8875
2959.20498	2833.8875
2961.65895	2841.3875
2964.11142	2827.0875
2966.56239	2818.7875
2969.01186	2822.9875
2971.45984	2802.4875
2973.90632	2793.0875
2976.35131	2768.3875
2978.7948	2757.5875
2981.23681	2744.3875
2983.67732	2726.5875
2986.11635	2723.0875
2988.55388	2708.6875
2990.98993	2702.0875
2993.4245	2701.9875
2995.85758	2708.3875
2998.28917	2703.9875
3000.71928	2704.0875
3003.14791	2716.5875
3005.57506	2706.2875
3008.00073	2700.4875
3010.42493	2713.7875
3012.84764	2703.4875
3015.26888	2705.0875
3017.68865	2696.6875
3020.10694	2693.1875
3022.52376	2677.3875
3024.9391	2663.5875
3027.35298	2649.4875
3029.76539	2635.9875
3032.17632	2623.2875
3034.5858	2608.9875
3036.9938	2607.7875
3039.40034	2593.7875
3041.80542	2575.9875
3044.20903	2568.9875
3046.61118	2580.6875
3049.01187	2563.7875
3051.4111	2559.2875
3053.80888	2570.4875
3056.20519	2556.7875
3058.60005	2544.0875
3060.99345	2535.7875
3063.3854	2526.1875
3065.7759	2510.6875
3068.16494	2512.4875
3070.55254	2518.2875
3072.93868	2509.9875
3075.32338	2483.2875
3077.70662	2483.8875
3080.08842	2479.0875
3082.46878	2473.6875
3084.84769	2477.3875
3087.22515	2482.3875
3089.60118	2482.2875
3091.97576	2482.3875
3094.3489	2473.4875
3096.72061	2469.3875
3099.09087	2466.8875
3101.4597	2466.0875
3103.82709	2459.1875
3106.19305	2465.0875
3108.55757	2447.7875
3110.92066	2453.5875
3113.28232	2450.5875
3115.64255	2430.2875
3118.00134	2438.8875
3120.35871	2428.1875
3122.71466	2435.3875
3125.06917	2426.9875
3127.42226	2434.9875
3129.77393	2427.8875
3132.12417	2423.5875
3134.47299	2433.2875
3136.82039	2440.5875
3139.16636	2438.6875
3141.51092	2431.6875
3143.85406	2426.4875
3146.19579	2444.1875
3148.53609	2449.1875
3150.87499	2455.0875
3153.21246	2451.0875
3155.54853	2444.8875
3157.88318	2450.9875
3160.21642	2444.8875
3162.54826	2449.8875
3164.87868	2445.9875
3167.2077	2456.8875
3169.5353	2447.8875
3171.86151	2455.4875
3174.18631	2451.0875
3176.5097	2446.1875
3178.83169	2445.7875
3181.15228	2440.0875
3183.47147	2453.3875
3185.78926	2460.3875
3188.10565	2449.9875
3190.42065	2452.2875
3192.73424	2451.9875
3195.04645	2454.6875
3197.35725	2473.3875
3199.66667	2467.5875
3201.97469	2476.6875
3204.28132	2501.3875
3206.58656	2488.4875
3208.8904	2505.6875
3211.19287	2497.6875
3213.49394	2520.1875
3215.79363	2516.5875
3218.09193	2526.2875
3220.38884	2545.1875
3222.68438	2537.1875
3224.97853	2546.4875
3227.2713	2539.1875
3229.56269	2543.5875
3231.8527	2552.6875
3234.14133	2557.4875
3236.42858	2543.2875
3238.71446	2559.8875
3240.99896	2564.2875
3243.28209	2567.0875
3245.56384	2565.3875
3247.84423	2568.7875
3250.12324	2562.9875
3252.40088	2552.4875
3254.67715	2559.6875
3256.95205	2565.9875
3259.22558	2551.5875
3261.49775	2561.4875
3263.76855	2561.3875
3266.03799	2555.7875
3268.30606	2553.6875
3270.57277	2550.9875
3272.83812	2549.2875
3275.10211	2559.9875
3277.36474	2555.4875
3279.62601	2561.1875
3281.88593	2571.4875
3284.14448	2584.5875
3286.40168	2590.3875
3288.65753	2595.3875
3290.91202	2602.5875
3293.16516	2601.1875
3295.41695	2598.7875
3297.66738	2584.2875
3299.91647	2578.2875
3302.16421	2559.0875
3304.4106	2539.6875
3306.65564	2528.0875
3308.89933	2496.2875
3311.14169	2467.7875
3313.38269	2455.5875
3315.62236	2434.5875
3317.86068	2400.4875
3320.09766	2366.6875
3322.3333	2360.8875
3324.5676	2350.5875
3326.80056	2310.8875
3329.03219	2294.2875
3331.26248	1.9875
3333.49143	-0.7125
3335.71905	0.2875
