Data from AgNP_FTO_APTES_UA_100uM_CRN_10uM_R6G_10uM_NaF_0.1M_Addition_RamanShift__30__15-52-00-435.txt Node

Date: Thu Mar 24 15:52:00 GMT 2022
User: TCL
Spectrometer: QEP01345
Trigger mode: 4
Integration Time (sec): 7.000000E0
Scans to average: 10
Electric dark correction enabled: true
Nonlinearity correction enabled: false
Boxcar width: 0
XAxis mode: Raman Shifts
Number of Pixels in Spectrum: 1044
>>>>>Begin Spectral Data<<<<<
46.04893	-1.6625
50.45542	-0.0625
54.85868	0.0375
59.25871	0.4375
63.6555	30.5375
68.04907	32.7375
72.43941	30.5375
76.82654	29.3375
81.21044	37.4375
85.59113	36.5375
89.96862	39.0375
94.34289	38.9375
98.71396	41.1375
103.08183	41.8375
107.4465	40.5375
111.80798	45.1375
116.16626	45.3375
120.52136	45.9375
124.87327	46.3375
129.222	48.4375
133.56755	53.7375
137.90993	51.7375
142.24913	61.7375
146.58517	65.7375
150.91804	74.9375
155.24774	92.9375
159.57429	116.4375
163.89768	146.6375
168.21792	198.4375
172.53501	266.9375
176.84895	378.7375
181.15975	535.4375
185.46741	750.9375
189.77193	1038.9375
194.07331	1392.9375
198.37157	1801.3375
202.6667	2233.3375
206.9587	2685.4375
211.24758	3112.1375
215.53334	3564.4375
219.81599	4050.2375
224.09553	4601.1375
228.37195	5187.9375
232.64527	5875.9375
236.91549	6572.9375
241.18261	7193.0375
245.44663	7738.6375
249.70755	8154.2375
253.96539	8513.9375
258.22014	8817.7375
262.4718	9064.3375
266.72039	9258.9375
270.96589	9304.0375
275.20832	9236.0375
279.44768	9114.6375
283.68397	8976.4375
287.91719	8847.6375
292.14735	8783.7375
296.37445	8847.8375
300.59849	9075.8375
304.81948	9351.9375
309.03742	9587.4375
313.25231	9679.3375
317.46415	9543.9375
321.67296	9155.4375
325.87872	8818.7375
330.08145	8645.4375
334.28114	8628.1375
338.47781	8741.4375
342.67145	8901.1375
346.86207	9134.8375
351.04966	9458.8375
355.23424	9807.7375
359.4158	10036.3375
363.59435	10138.4375
367.76989	10190.8375
371.94243	10152.9375
376.11196	10101.4375
380.27849	10067.0375
384.44203	10031.7375
388.60257	10001.7375
392.76012	10048.4375
396.91468	10103.0375
401.06626	10304.0375
405.21485	10410.0375
409.36047	10261.8375
413.50311	9877.5375
417.64277	9547.6375
421.77947	9355.2375
425.9132	9336.5375
430.04396	9360.3375
434.17176	9442.0375
438.2966	9601.8375
442.41849	9836.9375
446.53742	10203.1375
450.6534	10556.8375
454.76644	10773.9375
458.87653	10709.9375
462.98368	10533.1375
467.08789	10302.4375
471.18916	10086.0375
475.2875	9815.6375
479.38291	9611.3375
483.4754	9406.7375
487.56496	9269.5375
491.6516	9178.9375
495.73531	9137.8375
499.81612	9158.7375
503.89401	9224.3375
507.96899	9317.4375
512.04106	9353.7375
516.11023	9412.0375
520.1765	9445.6375
524.23987	9484.6375
528.30034	9503.9375
532.35792	9482.6375
536.41261	9350.8375
540.46441	9151.0375
544.51333	9040.2375
548.55936	9076.9375
552.60252	9251.3375
556.64279	9532.6375
560.6802	9683.3375
564.71473	9737.0375
568.7464	9885.0375
572.7752	10081.4375
576.80114	10094.8375
580.82422	10150.1375
584.84444	10434.4375
588.86181	11012.2375
592.87633	11908.0375
596.888	12457.5375
600.89682	12199.1375
604.9028	12115.9375
608.90594	13766.0375
612.90624	16371.3375
616.90371	15574.5375
620.89834	11615.1375
624.89015	9729.5375
628.87913	9377.2375
632.86528	9500.9375
636.84862	9651.4375
640.82913	9468.7375
644.80683	9074.0375
648.78172	8791.0375
652.75379	8778.5375
656.72306	9049.3375
660.68952	9408.9375
664.65319	9298.1375
668.61405	8912.2375
672.57211	8742.0375
676.52738	8794.7375
680.47986	8761.3375
684.42955	8639.8375
688.37646	8575.5375
692.32058	8604.0375
696.26192	8700.4375
700.20048	8851.7375
704.13626	8939.6375
708.06928	8924.2375
711.99952	8876.7375
715.927	8890.9375
719.85171	8928.4375
723.77365	8950.3375
727.69284	8891.6375
731.60928	8840.8375
735.52295	8857.4375
739.43388	8894.9375
743.34206	8959.0375
747.24749	8941.2375
751.15017	8965.5375
755.05012	9045.8375
758.94733	9375.1375
762.8418	10219.0375
766.73354	11678.6375
770.62254	13149.3375
774.50882	13679.4375
778.39237	13061.4375
782.27321	11655.8375
786.15132	10268.0375
790.02671	9404.2375
793.89938	8958.3375
797.76935	8766.4375
801.6366	8667.1375
805.50115	8596.0375
809.36299	8540.8375
813.22213	8517.1375
817.07857	8466.0375
820.93231	8460.0375
824.78336	8455.9375
828.63172	8471.7375
832.47738	8467.3375
836.32036	8468.1375
840.16066	8438.9375
843.99827	8407.0375
847.8332	8396.5375
851.66546	8413.8375
855.49504	8420.5375
859.32195	8425.3375
863.1462	8411.1375
866.96777	8392.3375
870.78668	8372.6375
874.60293	8379.5375
878.41652	8427.6375
882.22745	8492.9375
886.03573	8553.5375
889.84136	8525.1375
893.64433	8490.1375
897.44466	8457.3375
901.24235	8422.6375
905.0374	8361.0375
908.8298	8316.5375
912.61957	8268.9375
916.40671	8280.5375
920.19121	8343.0375
923.97308	8462.3375
927.75233	8540.1375
931.52895	8575.3375
935.30295	8453.4375
939.07433	8218.7375
942.84309	8078.3375
946.60924	7966.7375
950.37278	7908.1375
954.13371	7907.1375
957.89203	7885.7375
961.64774	7917.3375
965.40086	7884.1375
969.15137	7855.0375
972.89929	7852.4375
976.64461	7850.9375
980.38733	7845.1375
984.12747	7851.7375
987.86502	7881.5375
991.59999	7938.3375
995.33237	8031.7375
999.06217	8180.6375
1002.78939	8390.8375
1006.51404	8638.4375
1010.23611	8825.8375
1013.95561	8956.9375
1017.67255	8930.2375
1021.38692	8742.2375
1025.09872	8497.3375
1028.80796	8304.9375
1032.51465	8226.1375
1036.21877	8244.2375
1039.92035	8304.8375
1043.61937	8365.2375
1047.31584	8376.6375
1051.00976	8407.6375
1054.70114	8414.3375
1058.38998	8405.0375
1062.07627	8465.5375
1065.76003	8511.9375
1069.44126	8603.2375
1073.11995	8775.9375
1076.79611	8970.1375
1080.46974	9117.1375
1084.14085	9326.8375
1087.80943	9547.9375
1091.47549	9634.5375
1095.13903	9533.5375
1098.80005	9265.8375
1102.45857	8995.9375
1106.11456	8917.4375
1109.76805	8929.8375
1113.41903	9043.2375
1117.06751	9261.5375
1120.71348	9570.8375
1124.35696	9909.9375
1127.99793	10184.2375
1131.63641	10187.5375
1135.2724	9840.9375
1138.90589	9578.6375
1142.5369	9377.7375
1146.16542	9293.5375
1149.79145	9253.1375
1153.415	9246.4375
1157.03607	9323.6375
1160.65467	9464.8375
1164.27079	9843.3375
1167.88443	10401.2375
1171.49561	11270.1375
1175.10432	12561.0375
1178.71056	14259.7375
1182.31434	15668.1375
1185.91565	16035.7375
1189.51451	15483.0375
1193.11091	14579.3375
1196.70485	13581.5375
1200.29634	12747.7375
1203.88538	12025.0375
1207.47197	11325.9375
1211.05612	10794.4375
1214.63782	10509.3375
1218.21708	10409.3375
1221.79391	10473.2375
1225.36829	10583.9375
1228.94024	10560.1375
1232.50976	10359.9375
1236.07685	10117.9375
1239.6415	10004.1375
1243.20374	9996.9375
1246.76355	10048.6375
1250.32093	10120.1375
1253.8759	10274.7375
1257.42845	10582.4375
1260.97859	10969.8375
1264.52631	11428.6375
1268.07163	11838.9375
1271.61453	12150.5375
1275.15503	12431.9375
1278.69312	12613.4375
1282.22882	12900.3375
1285.76211	13407.3375
1289.29301	14037.2375
1292.82151	14710.4375
1296.34761	15428.1375
1299.87133	16432.7375
1303.39266	17726.3375
1306.9116	19460.4375
1310.42815	21227.4375
1313.94233	22100.1375
1317.45412	21476.5375
1320.96354	20033.7375
1324.47058	18431.5375
1327.97525	17072.1375
1331.47754	16111.1375
1334.97747	15549.2375
1338.47502	15451.9375
1341.97022	15614.9375
1345.46305	16077.4375
1348.95352	16859.4375
1352.44163	18093.0375
1355.92738	19942.6375
1359.41078	22570.1375
1362.89183	24983.1375
1366.37053	24543.7375
1369.84688	21051.1375
1373.32088	17265.9375
1376.79254	15003.5375
1380.26186	14020.8375
1383.72883	13527.8375
1387.19347	12999.3375
1390.65578	12485.3375
1394.11575	12145.2375
1397.57339	12032.5375
1401.0287	12069.6375
1404.48168	12093.5375
1407.93234	12065.2375
1411.38068	12010.6375
1414.82669	11888.2375
1418.27039	11736.4375
1421.71177	11454.7375
1425.15083	11160.1375
1428.58758	11044.9375
1432.02203	11216.6375
1435.45416	11455.2375
1438.88399	11714.1375
1442.31151	11770.2375
1445.73673	11854.1375
1449.15965	11911.9375
1452.58027	11822.8375
1455.9986	11658.5375
1459.41463	11585.1375
1462.82837	11722.1375
1466.23982	12134.2375
1469.64898	12567.2375
1473.05586	12961.9375
1476.46045	13269.2375
1479.86276	13555.8375
1483.26279	13809.2375
1486.66054	14122.9375
1490.05602	14651.5375
1493.44922	15314.3375
1496.84016	16129.7375
1500.22882	17222.0375
1503.61521	18707.2375
1506.99934	20387.8375
1510.38121	21618.4375
1513.76081	21547.5375
1517.13816	19936.8375
1520.51324	17622.7375
1523.88607	15663.6375
1527.25665	14508.4375
1530.62498	13879.4375
1533.99105	13449.4375
1537.35488	13096.8375
1540.71647	12717.8375
1544.07581	12381.5375
1547.4329	12107.2375
1550.78776	11858.9375
1554.14038	11733.9375
1557.49077	11676.2375
1560.83892	11810.5375
1564.18484	12132.1375
1567.52853	12602.7375
1570.86999	13054.3375
1574.20922	13366.7375
1577.54624	13314.8375
1580.88103	12730.8375
1584.2136	11994.2375
1587.54395	11681.7375
1590.87208	12056.5375
1594.19801	12979.1375
1597.52172	14128.9375
1600.84321	14725.5375
1604.16251	14280.4375
1607.47959	13148.1375
1610.79447	11870.3375
1614.10715	10774.0375
1617.41763	9926.2375
1620.7259	9429.4375
1624.03199	9161.1375
1627.33587	9163.8375
1630.63757	9438.7375
1633.93707	10068.0375
1637.23439	11192.3375
1640.52951	13096.9375
1643.82246	15716.7375
1647.11321	18369.7375
1650.40179	19449.0375
1653.68819	18120.6375
1656.97241	15111.6375
1660.25446	12235.2375
1663.53433	10234.0375
1666.81203	9095.2375
1670.08756	8435.6375
1673.36092	8033.1375
1676.63211	7831.4375
1679.90115	7649.4375
1683.16801	7495.5375
1686.43272	7371.0375
1689.69527	7295.4375
1692.95567	7240.2375
1696.2139	7187.1375
1699.46999	7168.2375
1702.72392	7126.3375
1705.97571	7101.6375
1709.22535	7075.0375
1712.47284	7049.0375
1715.71819	7038.2375
1718.96139	7002.8375
1722.20246	6994.3375
1725.44139	6949.4375
1728.67818	6892.9375
1731.91284	6835.4375
1735.14537	6763.5375
1738.37576	6738.7375
1741.60403	6702.5375
1744.83017	6662.7375
1748.05418	6665.8375
1751.27607	6650.8375
1754.49584	6621.9375
1757.71349	6616.5375
1760.92903	6593.5375
1764.14244	6599.1375
1767.35375	6585.4375
1770.56294	6568.5375
1773.77002	6550.4375
1776.97499	6511.8375
1780.17785	6476.6375
1783.37861	6462.1375
1786.57727	6430.2375
1789.77382	6429.5375
1792.96828	6410.3375
1796.16064	6386.7375
1799.3509	6383.1375
1802.53907	6384.7375
1805.72514	6337.5375
1808.90913	6309.0375
1812.09102	6297.6375
1815.27083	6274.7375
1818.44856	6263.0375
1821.6242	6245.7375
1824.79776	6269.8375
1827.96924	6208.2375
1831.13864	6217.9375
1834.30597	6208.7375
1837.47122	6179.9375
1840.6344	6168.5375
1843.7955	6174.1375
1846.95454	6181.1375
1850.11151	6155.9375
1853.26642	6139.8375
1856.41926	6138.9375
1859.57004	6136.9375
1862.71876	6161.7375
1865.86542	6143.5375
1869.01003	6125.3375
1872.15258	6125.3375
1875.29308	6101.2375
1878.43152	6134.9375
1881.56792	6104.5375
1884.70227	6099.5375
1887.83457	6095.8375
1890.96482	6086.3375
1894.09304	6067.1375
1897.21921	6059.2375
1900.34335	6060.8375
1903.46544	6058.2375
1906.58551	6040.7375
1909.70353	6039.6375
1912.81953	6005.8375
1915.93349	6027.9375
1919.04543	6024.5375
1922.15534	5985.5375
1925.26322	5959.5375
1928.36908	5934.3375
1931.47292	5947.1375
1934.57473	5910.3375
1937.67453	5902.2375
1940.77232	5869.4375
1943.86808	5842.8375
1946.96184	5849.3375
1950.05358	5816.4375
1953.14331	5785.0375
1956.23103	5776.8375
1959.31675	5771.0375
1962.40046	5742.4375
1965.48217	5733.4375
1968.56188	5721.6375
1971.63959	5724.3375
1974.7153	5697.4375
1977.78901	5646.0375
1980.86073	5649.9375
1983.93046	5623.5375
1986.99819	5581.8375
1990.06394	5562.1375
1993.1277	5564.6375
1996.18947	5556.7375
1999.24925	5540.0375
2002.30706	5520.0375
2005.36288	5471.9375
2008.41672	5452.3375
2011.46859	5440.4375
2014.51848	5425.0375
2017.56639	5420.1375
2020.61233	5393.5375
2023.6563	5380.4375
2026.6983	5381.1375
2029.73833	5360.9375
2032.7764	5338.8375
2035.8125	5331.9375
2038.84664	5311.8375
2041.87881	5318.7375
2044.90903	5307.6375
2047.93729	5289.6375
2050.96359	5270.6375
2053.98794	5256.4375
2057.01034	5264.2375
2060.03078	5262.9375
2063.04927	5241.1375
2066.06582	5233.9375
2069.08042	5232.3375
2072.09307	5254.0375
2075.10378	5229.8375
2078.11255	5217.8375
2081.11938	5221.1375
2084.12426	5213.4375
2087.12722	5219.5375
2090.12824	5224.4375
2093.12732	5218.7375
2096.12447	5218.9375
2099.11969	5201.2375
2102.11299	5212.7375
2105.10435	5216.0375
2108.09379	5217.9375
2111.08131	5209.8375
2114.0669	5191.2375
2117.05057	5196.0375
2120.03233	5208.6375
2123.01216	5194.0375
2125.99008	5225.4375
2128.96609	5228.6375
2131.94018	5223.1375
2134.91236	5224.1375
2137.88263	5203.9375
2140.851	5220.2375
2143.81746	5206.2375
2146.78201	5229.5375
2149.74466	5200.5375
2152.7054	5204.7375
2155.66425	5173.8375
2158.6212	5181.2375
2161.57625	5174.2375
2164.52941	5164.0375
2167.48067	5166.1375
2170.43004	5157.0375
2173.37752	5168.2375
2176.32311	5171.3375
2179.26681	5186.0375
2182.20863	5147.2375
2185.14856	5152.0375
2188.08661	5164.3375
2191.02278	5159.5375
2193.95707	5145.1375
2196.88948	5144.5375
2199.82001	5136.9375
2202.74867	5144.2375
2205.67545	5116.9375
2208.60037	5107.5375
2211.52341	5111.4375
2214.44458	5080.5375
2217.36388	5066.7375
2220.28132	5063.0375
2223.1969	5068.7375
2226.11061	5046.7375
2229.02246	5023.1375
2231.93245	5041.8375
2234.84058	5019.7375
2237.74686	5021.6375
2240.65128	5009.2375
2243.55385	5018.1375
2246.45456	5007.9375
2249.35343	4990.1375
2252.25044	5003.6375
2255.14561	4978.1375
2258.03893	4981.4375
2260.93041	4967.7375
2263.82004	4954.6375
2266.70783	4948.6375
2269.59378	4927.5375
2272.4779	4940.1375
2275.36017	4914.0375
2278.24061	4888.1375
2281.11922	4896.3375
2283.996	4868.7375
2286.87094	4857.7375
2289.74405	4837.9375
2292.61534	4824.3375
2295.4848	4829.7375
2298.35243	4813.5375
2301.21824	4804.2375
2304.08223	4803.2375
2306.94439	4821.9375
2309.80474	4795.8375
2312.66327	4787.8375
2315.51999	4790.1375
2318.37489	4769.2375
2321.22797	4774.9375
2324.07925	4774.8375
2326.92871	4777.4375
2329.77637	4775.5375
2332.62222	4751.2375
2335.46626	4739.8375
2338.3085	4732.3375
2341.14893	4727.8375
2343.98756	4739.4375
2346.8244	4746.7375
2349.65943	4748.9375
2352.49267	4741.1375
2355.32411	4759.5375
2358.15376	4738.4375
2360.98161	4750.0375
2363.80768	4748.9375
2366.63195	4764.1375
2369.45444	4765.0375
2372.27514	4755.7375
2375.09405	4751.3375
2377.91118	4739.8375
2380.72652	4719.7375
2383.54009	4693.3375
2386.35187	4704.2375
2389.16188	4669.5375
2391.97011	4663.5375
2394.77657	4635.8375
2397.58125	4626.8375
2400.38416	4627.1375
2403.18529	4611.4375
2405.98466	4600.4375
2408.78226	4581.3375
2411.57809	4580.1375
2414.37216	4578.5375
2417.16446	4567.7375
2419.955	4563.3375
2422.74378	4553.1375
2425.5308	4550.0375
2428.31606	4558.1375
2431.09956	4543.5375
2433.88131	4551.8375
2436.6613	4553.3375
2439.43954	4558.1375
2442.21603	4545.1375
2444.99077	4542.2375
2447.76377	4549.8375
2450.53501	4565.7375
2453.30451	4547.3375
2456.07226	4555.6375
2458.83827	4554.7375
2461.60254	4549.2375
2464.36507	4543.9375
2467.12586	4529.6375
2469.88492	4542.4375
2472.64224	4536.8375
2475.39782	4539.2375
2478.15167	4540.6375
2480.90379	4549.3375
2483.65417	4555.1375
2486.40283	4566.2375
2489.14976	4555.5375
2491.89497	4556.6375
2494.63845	4554.3375
2497.3802	4567.9375
2500.12024	4537.1375
2502.85855	4543.9375
2505.59514	4506.5375
2508.33002	4512.8375
2511.06318	4494.4375
2513.79462	4484.2375
2516.52435	4461.6375
2519.25237	4462.0375
2521.97867	4448.3375
2524.70327	4452.7375
2527.42616	4436.3375
2530.14734	4431.6375
2532.86681	4426.4375
2535.58458	4422.4375
2538.30065	4423.2375
2541.01501	4413.5375
2543.72768	4434.6375
2546.43864	4414.6375
2549.14791	4423.2375
2551.85548	4411.0375
2554.56136	4422.9375
2557.26554	4401.7375
2559.96803	4387.8375
2562.66883	4378.1375
2565.36794	4376.6375
2568.06536	4379.2375
2570.7611	4370.2375
2573.45514	4374.7375
2576.14751	4360.6375
2578.83819	4349.3375
2581.52719	4352.8375
2584.21451	4325.9375
2586.90015	4333.9375
2589.58411	4322.2375
2592.2664	4327.6375
2594.94701	4318.3375
2597.62594	4318.8375
2600.30321	4300.4375
2602.9788	4309.1375
2605.65273	4291.2375
2608.32498	4296.5375
2610.99557	4303.7375
2613.66449	4277.9375
2616.33175	4288.7375
2618.99734	4271.3375
2621.66128	4275.8375
2624.32355	4273.1375
2626.98416	4270.4375
2629.64311	4252.5375
2632.30041	4255.6375
2634.95605	4236.7375
2637.61004	4221.8375
2640.26238	4233.5375
2642.91306	4242.0375
2645.56209	4233.8375
2648.20948	4239.8375
2650.85521	4245.2375
2653.4993	4253.5375
2656.14175	4236.1375
2658.78255	4240.7375
2661.42171	4243.6375
2664.05923	4249.1375
2666.6951	4249.7375
2669.32934	4250.1375
2671.96194	4266.2375
2674.59291	4262.1375
2677.22224	4265.0375
2679.84993	4256.3375
2682.476	4250.6375
2685.10043	4230.1375
2687.72324	4238.1375
2690.34441	4230.5375
2692.96396	4248.7375
2695.58188	4243.2375
2698.19818	4239.6375
2700.81285	4235.5375
2703.4259	4229.1375
2706.03733	4242.7375
2708.64714	4250.0375
2711.25533	4243.6375
2713.86191	4245.6375
2716.46687	4249.5375
2719.07021	4235.5375
2721.67194	4257.1375
2724.27206	4264.8375
2726.87057	4259.7375
2729.46747	4243.4375
2732.06276	4255.2375
2734.65644	4239.4375
2737.24852	4258.8375
2739.83899	4223.1375
2742.42786	4223.7375
2745.01513	4206.8375
2747.60079	4206.8375
2750.18486	4215.6375
2752.76733	4196.9375
2755.3482	4207.5375
2757.92747	4193.1375
2760.50515	4178.7375
2763.08123	4191.8375
2765.65573	4191.5375
2768.22863	4192.9375
2770.79994	4168.4375
2773.36967	4166.6375
2775.9378	4168.4375
2778.50435	4159.4375
2781.06932	4146.7375
2783.6327	4163.4375
2786.1945	4148.9375
2788.75471	4169.4375
2791.31335	4139.4375
2793.87041	4148.9375
2796.42589	4144.7375
2798.97979	4137.3375
2801.53212	4135.6375
2804.08288	4125.5375
2806.63206	4116.7375
2809.17967	4119.2375
2811.72571	4116.3375
2814.27018	4115.7375
2816.81308	4103.3375
2819.35442	4098.9375
2821.89419	4095.5375
2824.43239	4106.0375
2826.96904	4089.3375
2829.50412	4099.5375
2832.03763	4091.1375
2834.56959	4085.9375
2837.1	4080.7375
2839.62884	4090.7375
2842.15613	4079.4375
2844.68186	4093.2375
2847.20604	4106.8375
2849.72867	4106.3375
2852.24974	4101.2375
2854.76927	4102.7375
2857.28724	4096.1375
2859.80367	4089.3375
2862.31855	4081.1375
2864.83189	4074.5375
2867.34368	4083.7375
2869.85393	4079.3375
2872.36264	4084.4375
2874.8698	4072.4375
2877.37543	4069.7375
2879.87952	4079.0375
2882.38207	4061.3375
2884.88308	4062.9375
2887.38256	4059.1375
2889.88051	4048.5375
2892.37692	4043.1375
2894.8718	4060.5375
2897.36515	4068.7375
2899.85698	4063.3375
2902.34727	4060.5375
2904.83604	4059.7375
2907.32328	4073.9375
2909.809	4071.0375
2912.29319	4079.2375
2914.77587	4077.5375
2917.25702	4078.7375
2919.73665	4073.5375
2922.21476	4062.6375
2924.69136	4051.1375
2927.16644	4054.2375
2929.64	4041.3375
2932.11205	4041.7375
2934.58258	4018.5375
2937.05161	4007.5375
2939.51912	4009.3375
2941.98513	4010.9375
2944.44962	4004.9375
2946.91261	3988.5375
2949.37409	3983.9375
2951.83407	3995.0375
2954.29254	3980.8375
2956.74951	3980.2375
2959.20498	3982.5375
2961.65895	3981.7375
2964.11142	3981.2375
2966.56239	3972.9375
2969.01186	3967.7375
2971.45984	3949.5375
2973.90632	3947.7375
2976.35131	3939.6375
2978.7948	3923.8375
2981.23681	3905.3375
2983.67732	3904.0375
2986.11635	3898.6375
2988.55388	3888.2375
2990.98993	3875.8375
2993.4245	3872.3375
2995.85758	3857.7375
2998.28917	3863.4375
3000.71928	3853.7375
3003.14791	3845.6375
3005.57506	3842.9375
3008.00073	3835.8375
3010.42493	3837.5375
3012.84764	3824.6375
3015.26888	3824.3375
3017.68865	3810.6375
3020.10694	3806.1375
3022.52376	3809.5375
3024.9391	3797.6375
3027.35298	3789.7375
3029.76539	3768.2375
3032.17632	3765.3375
3034.5858	3762.1375
3036.9938	3748.0375
3039.40034	3758.5375
3041.80542	3765.3375
3044.20903	3742.7375
3046.61118	3739.8375
3049.01187	3731.1375
3051.4111	3737.9375
3053.80888	3723.8375
3056.20519	3716.5375
3058.60005	3692.4375
3060.99345	3690.4375
3063.3854	3689.1375
3065.7759	3682.4375
3068.16494	3676.2375
3070.55254	3673.1375
3072.93868	3669.9375
3075.32338	3655.1375
3077.70662	3643.2375
3080.08842	3644.2375
3082.46878	3643.4375
3084.84769	3635.5375
3087.22515	3654.3375
3089.60118	3647.0375
3091.97576	3651.6375
3094.3489	3645.2375
3096.72061	3641.6375
3099.09087	3637.7375
3101.4597	3627.6375
3103.82709	3633.7375
3106.19305	3638.7375
3108.55757	3619.9375
3110.92066	3619.8375
3113.28232	3622.1375
3115.64255	3610.7375
3118.00134	3607.1375
3120.35871	3595.6375
3122.71466	3598.8375
3125.06917	3584.0375
3127.42226	3592.0375
3129.77393	3601.7375
3132.12417	3591.5375
3134.47299	3594.6375
3136.82039	3603.3375
3139.16636	3592.5375
3141.51092	3603.0375
3143.85406	3585.1375
3146.19579	3586.8375
3148.53609	3592.5375
3150.87499	3602.3375
3153.21246	3610.1375
3155.54853	3616.2375
3157.88318	3612.0375
3160.21642	3611.3375
3162.54826	3618.2375
3164.87868	3598.8375
3167.2077	3624.2375
3169.5353	3626.1375
3171.86151	3625.2375
3174.18631	3610.5375
3176.5097	3611.4375
3178.83169	3605.8375
3181.15228	3612.5375
3183.47147	3610.2375
3185.78926	3585.7375
3188.10565	3588.7375
3190.42065	3614.0375
3192.73424	3593.1375
3195.04645	3607.7375
3197.35725	3584.5375
3199.66667	3594.9375
3201.97469	3586.5375
3204.28132	3594.9375
3206.58656	3610.1375
3208.8904	3605.5375
3211.19287	3615.6375
3213.49394	3627.8375
3215.79363	3612.4375
3218.09193	3617.6375
3220.38884	3621.7375
3222.68438	3632.3375
3224.97853	3631.2375
3227.2713	3625.2375
3229.56269	3620.0375
3231.8527	3623.0375
3234.14133	3634.3375
3236.42858	3615.5375
3238.71446	3607.4375
3240.99896	3601.1375
3243.28209	3596.1375
3245.56384	3600.4375
3247.84423	3605.3375
3250.12324	3591.7375
3252.40088	3577.3375
3254.67715	3580.1375
3256.95205	3577.6375
3259.22558	3580.8375
3261.49775	3583.4375
3263.76855	3573.4375
3266.03799	3563.4375
3268.30606	3568.1375
3270.57277	3556.6375
3272.83812	3547.1375
3275.10211	3534.6375
3277.36474	3538.8375
3279.62601	3536.5375
3281.88593	3531.5375
3284.14448	3529.9375
3286.40168	3548.5375
3288.65753	3554.6375
3290.91202	3530.0375
3293.16516	3534.6375
3295.41695	3530.1375
3297.66738	3508.4375
3299.91647	3500.3375
3302.16421	3479.7375
3304.4106	3470.1375
3306.65564	3450.2375
3308.89933	3408.2375
3311.14169	3401.9375
3313.38269	3379.6375
3315.62236	3349.0375
3317.86068	3312.2375
3320.09766	3301.6375
3322.3333	3283.7375
3324.5676	3258.9375
3326.80056	3205.0375
3329.03219	3201.8375
3331.26248	1.6375
3333.49143	-0.8625
3335.71905	0.8375
