Data from AgNP_FTO_APTES_UA_100uM_CRN_50uM_R6G_10uM_NaF_0.1M_Addition_RamanShift__7__17-16-00-528.txt Node

Date: Thu Mar 24 17:16:00 GMT 2022
User: TCL
Spectrometer: QEP01345
Trigger mode: 4
Integration Time (sec): 7.000000E0
Scans to average: 10
Electric dark correction enabled: true
Nonlinearity correction enabled: false
Boxcar width: 0
XAxis mode: Raman Shifts
Number of Pixels in Spectrum: 1044
>>>>>Begin Spectral Data<<<<<
46.04893	-1.5
50.45542	-0.4
54.85868	-0.3
59.25871	0
63.6555	41.6
68.04907	43.3
72.43941	42.3
76.82654	41.9
81.21044	45.2
85.59113	48
89.96862	51.2
94.34289	46.3
98.71396	50.2
103.08183	53.1
107.4465	55.1
111.80798	56.3
116.16626	58.2
120.52136	61.6
124.87327	60.7
129.222	62.6
133.56755	70.6
137.90993	71.4
142.24913	83.8
146.58517	93.1
150.91804	110.3
155.24774	135.1
159.57429	165.5
163.89768	213.4
168.21792	290.5
172.53501	399
176.84895	559.9
181.15975	794.3
185.46741	1112.3
189.77193	1529.7
194.07331	2065
198.37157	2660.8
202.6667	3300.7
206.9587	3923.5
211.24758	4575.4
215.53334	5204.1
219.81599	5888.3
224.09553	6657.1
228.37195	7513.9
232.64527	8461.4
236.91549	9471
241.18261	10390.1
245.44663	11223.3
249.70755	11943.8
253.96539	12546.3
258.22014	13012.6
262.4718	13426.6
266.72039	13751.1
270.96589	13921.3
275.20832	13927.9
279.44768	13792.3
283.68397	13642.1
287.91719	13473.8
292.14735	13456.8
296.37445	13495.2
300.59849	13657.7
304.81948	13907.4
309.03742	14037.5
313.25231	14043.4
317.46415	13778.7
321.67296	13420
325.87872	13093.1
330.08145	12906.9
334.28114	12912.4
338.47781	13043.7
342.67145	13249.9
346.86207	13543.1
351.04966	13851.9
355.23424	14237.2
359.4158	14467.6
363.59435	14580
367.76989	14651
371.94243	14679.7
376.11196	14700.4
380.27849	14724.9
384.44203	14772
388.60257	14832.4
392.76012	14892.8
396.91468	15001.3
401.06626	15227.9
405.21485	15374.3
409.36047	15182.4
413.50311	14839.4
417.64277	14509.6
421.77947	14341.7
425.9132	14351.9
430.04396	14445.8
434.17176	14595.5
438.2966	14768.3
442.41849	15107.3
446.53742	15558.7
450.6534	16012.1
454.76644	16274.6
458.87653	16304.7
462.98368	16145.5
467.08789	15928.9
471.18916	15710.6
475.2875	15462.2
479.38291	15267
483.4754	15060.3
487.56496	14864.1
491.6516	14673
495.73531	14557.4
499.81612	14476.5
503.89401	14558.6
507.96899	14629.9
512.04106	14670.1
516.11023	14689.9
520.1765	14658.5
524.23987	14630.4
528.30034	14602.7
532.35792	14544
536.41261	14411
540.46441	14236.9
544.51333	14180.6
548.55936	14247.8
552.60252	14524.7
556.64279	14904.6
560.6802	15180
564.71473	15296.9
568.7464	15481.3
572.7752	15878.6
576.80114	16113.3
580.82422	16268.2
584.84444	16592.8
588.86181	17162.4
592.87633	17947.3
596.888	18480
600.89682	18306.5
604.9028	18413.6
608.90594	20005.2
612.90624	22270.2
616.90371	21003.5
620.89834	16940.2
624.89015	14970
628.87913	14710
632.86528	14923.6
636.84862	15105.4
640.82913	14899.9
644.80683	14467.4
648.78172	14077.8
652.75379	13996.8
656.72306	14247.6
660.68952	14596
664.65319	14462.3
668.61405	14053.8
672.57211	13904.7
676.52738	13935.7
680.47986	13943
684.42955	13814.6
688.37646	13742.8
692.32058	13776.9
696.26192	13908.2
700.20048	14085.5
704.13626	14197.6
708.06928	14224.8
711.99952	14159.7
715.927	14180.7
719.85171	14184.5
723.77365	14203.4
727.69284	14162.7
731.60928	14037.3
735.52295	14054.6
739.43388	14100.4
743.34206	14142.7
747.24749	14199.6
751.15017	14235.2
755.05012	14388.2
758.94733	14849.4
762.8418	15850.3
766.73354	17520.8
770.62254	19155
774.50882	19621.1
778.39237	18717.3
782.27321	17035.1
786.15132	15536.6
790.02671	14595.8
793.89938	14097.8
797.76935	13872.7
801.6366	13750.7
805.50115	13687.3
809.36299	13632.2
813.22213	13598.1
817.07857	13610.8
820.93231	13541.5
824.78336	13513.3
828.63172	13495.3
832.47738	13494
836.32036	13462.4
840.16066	13439.1
843.99827	13433
847.8332	13414
851.66546	13448.5
855.49504	13441.2
859.32195	13437.4
863.1462	13381.7
866.96777	13407.7
870.78668	13383.2
874.60293	13418.2
878.41652	13444.7
882.22745	13527.1
886.03573	13551.4
889.84136	13578.4
893.64433	13515.6
897.44466	13471
901.24235	13418.7
905.0374	13343.6
908.8298	13310.2
912.61957	13254.8
916.40671	13314.4
920.19121	13449.6
923.97308	13574.6
927.75233	13611.4
931.52895	13496.6
935.30295	13312
939.07433	13070.1
942.84309	12886.4
946.60924	12769
950.37278	12743.8
954.13371	12719.8
957.89203	12702.9
961.64774	12721.6
965.40086	12717.9
969.15137	12692.5
972.89929	12607.9
976.64461	12574.2
980.38733	12556.1
984.12747	12585.4
987.86502	12651.9
991.59999	12695
995.33237	12806.6
999.06217	13010.4
1002.78939	13308.8
1006.51404	13610.3
1010.23611	13873.2
1013.95561	14043
1017.67255	13975.7
1021.38692	13802.2
1025.09872	13478.4
1028.80796	13266.2
1032.51465	13119.1
1036.21877	13127.9
1039.92035	13163.2
1043.61937	13269
1047.31584	13315.6
1051.00976	13391.8
1054.70114	13402
1058.38998	13433.1
1062.07627	13511.8
1065.76003	13636.1
1069.44126	13799.5
1073.11995	13999
1076.79611	14184
1080.46974	14384.4
1084.14085	14546
1087.80943	14742.1
1091.47549	14889
1095.13903	14831.3
1098.80005	14581.1
1102.45857	14267.5
1106.11456	14118.5
1109.76805	14104.2
1113.41903	14208.9
1117.06751	14483.4
1120.71348	14832.4
1124.35696	15161.8
1127.99793	15465.5
1131.63641	15495.7
1135.2724	15213
1138.90589	14954.6
1142.5369	14791.3
1146.16542	14713.6
1149.79145	14730.4
1153.415	14772.6
1157.03607	14886.5
1160.65467	15133.7
1164.27079	15688.2
1167.88443	16445.5
1171.49561	17552.4
1175.10432	19168.9
1178.71056	21223
1182.31434	22948.6
1185.91565	23393.9
1189.51451	22832.5
1193.11091	21907.5
1196.70485	20855.1
1200.29634	19863.6
1203.88538	19043.2
1207.47197	18259.4
1211.05612	17601.9
1214.63782	17169.2
1218.21708	16970.4
1221.79391	16936.4
1225.36829	16956.2
1228.94024	16873.6
1232.50976	16528.7
1236.07685	16201.6
1239.6415	15998.9
1243.20374	15947.9
1246.76355	15970.8
1250.32093	16050
1253.8759	16293.6
1257.42845	16659.8
1260.97859	17119.2
1264.52631	17630.9
1268.07163	18112.6
1271.61453	18544.4
1275.15503	18958.5
1278.69312	19308
1282.22882	19765
1285.76211	20411.6
1289.29301	21274.1
1292.82151	22260.5
1296.34761	23405.6
1299.87133	24836.7
1303.39266	26538.9
1306.9116	28556.3
1310.42815	30484.2
1313.94233	31476.6
1317.45412	31105
1320.96354	29866.8
1324.47058	28469
1327.97525	27070.3
1331.47754	26022.4
1334.97747	25372.4
1338.47502	25117
1341.97022	25277.3
1345.46305	25638.3
1348.95352	26263.7
1352.44163	27264.4
1355.92738	28873.7
1359.41078	31310.2
1362.89183	33553.3
1366.37053	33076.2
1369.84688	29426.3
1373.32088	25298
1376.79254	22756.9
1380.26186	21662.4
1383.72883	21193.4
1387.19347	20801.2
1390.65578	20381.2
1394.11575	20171.7
1397.57339	20158.1
1401.0287	20253
1404.48168	20437
1407.93234	20251.6
1411.38068	19957
1414.82669	19461
1418.27039	18897
1421.71177	18236.2
1425.15083	17620.7
1428.58758	17291.7
1432.02203	17402.8
1435.45416	17748.3
1438.88399	18092.8
1442.31151	18307
1445.73673	18525.7
1449.15965	18681.2
1452.58027	18722
1455.9986	18647.2
1459.41463	18701.4
1462.82837	19019.4
1466.23982	19533.6
1469.64898	20048.3
1473.05586	20551.8
1476.46045	20874.4
1479.86276	21033.5
1483.26279	21117.7
1486.66054	21301.4
1490.05602	21692.2
1493.44922	22293.3
1496.84016	23124.1
1500.22882	24279.1
1503.61521	25914.2
1506.99934	27653.7
1510.38121	28672.5
1513.76081	28478.4
1517.13816	26912
1520.51324	24777.6
1523.88607	23108.2
1527.25665	22176.3
1530.62498	21787.7
1533.99105	21478.1
1537.35488	21086.3
1540.71647	20542.7
1544.07581	19916.4
1547.4329	19373.2
1550.78776	18905.5
1554.14038	18569.3
1557.49077	18487.2
1560.83892	18568.3
1564.18484	18854.9
1567.52853	19312.5
1570.86999	19785.7
1574.20922	20186.9
1577.54624	20244.7
1580.88103	19764.3
1584.2136	19106
1587.54395	19023.2
1590.87208	19579.4
1594.19801	20760.9
1597.52172	22112.2
1600.84321	22680.8
1604.16251	21872.4
1607.47959	20361.1
1610.79447	18703.7
1614.10715	17225.2
1617.41763	16023.9
1620.7259	15166.8
1624.03199	14770.4
1627.33587	14706.8
1630.63757	15078.3
1633.93707	15928.4
1637.23439	17544.2
1640.52951	20079.5
1643.82246	23388.6
1647.11321	26319.4
1650.40179	27311.5
1653.68819	25507.4
1656.97241	21933.1
1660.25446	18354.2
1663.53433	15780
1666.81203	14235.2
1670.08756	13322
1673.36092	12737.8
1676.63211	12379.6
1679.90115	12112.4
1683.16801	11911.9
1686.43272	11741.5
1689.69527	11615.1
1692.95567	11529.7
1696.2139	11419.6
1699.46999	11377.5
1702.72392	11299.2
1705.97571	11272.8
1709.22535	11226.5
1712.47284	11206.5
1715.71819	11175.2
1718.96139	11091.6
1722.20246	11057.1
1725.44139	11018.9
1728.67818	10930.9
1731.91284	10835.7
1735.14537	10769.6
1738.37576	10730.2
1741.60403	10695
1744.83017	10624.6
1748.05418	10621.5
1751.27607	10546.1
1754.49584	10543.8
1757.71349	10517.5
1760.92903	10489.8
1764.14244	10497.6
1767.35375	10489
1770.56294	10438.7
1773.77002	10402.9
1776.97499	10367.8
1780.17785	10317
1783.37861	10324.9
1786.57727	10316.4
1789.77382	10275.4
1792.96828	10260.5
1796.16064	10231.1
1799.3509	10155
1802.53907	10178.9
1805.72514	10114
1808.90913	10094.7
1812.09102	10077.2
1815.27083	10051
1818.44856	10025.7
1821.6242	10023.4
1824.79776	9974.3
1827.96924	9941.7
1831.13864	9943.4
1834.30597	9903.5
1837.47122	9901.6
1840.6344	9896.1
1843.7955	9856
1846.95454	9874.4
1850.11151	9844.1
1853.26642	9803.1
1856.41926	9806.9
1859.57004	9811.1
1862.71876	9810.1
1865.86542	9789
1869.01003	9785.1
1872.15258	9758.3
1875.29308	9735.4
1878.43152	9733.2
1881.56792	9741.8
1884.70227	9731.2
1887.83457	9722.3
1890.96482	9707
1894.09304	9685.2
1897.21921	9676
1900.34335	9657.6
1903.46544	9646.7
1906.58551	9645.8
1909.70353	9631
1912.81953	9632.7
1915.93349	9584.1
1919.04543	9569.1
1922.15534	9543.1
1925.26322	9507.2
1928.36908	9488.7
1931.47292	9477.5
1934.57473	9434.4
1937.67453	9446.7
1940.77232	9386.7
1943.86808	9361.1
1946.96184	9321.1
1950.05358	9274.4
1953.14331	9251.7
1956.23103	9211.5
1959.31675	9224.6
1962.40046	9151.6
1965.48217	9156.7
1968.56188	9153.7
1971.63959	9103.4
1974.7153	9068.2
1977.78901	9060.1
1980.86073	9014.5
1983.93046	8956
1986.99819	8904.5
1990.06394	8902.8
1993.1277	8872.7
1996.18947	8844.2
1999.24925	8819.8
2002.30706	8779.8
2005.36288	8735.8
2008.41672	8704.1
2011.46859	8666.6
2014.51848	8666
2017.56639	8624
2020.61233	8588.8
2023.6563	8587.4
2026.6983	8543.2
2029.73833	8522.6
2032.7764	8503.2
2035.8125	8477.1
2038.84664	8446.5
2041.87881	8441.9
2044.90903	8403.1
2047.93729	8400.1
2050.96359	8397.7
2053.98794	8345.3
2057.01034	8341.9
2060.03078	8336.8
2063.04927	8309.4
2066.06582	8303
2069.08042	8319.1
2072.09307	8297.5
2075.10378	8292
2078.11255	8274.8
2081.11938	8287.3
2084.12426	8281.3
2087.12722	8272.2
2090.12824	8288.8
2093.12732	8258.6
2096.12447	8274.1
2099.11969	8264.3
2102.11299	8252.4
2105.10435	8281.1
2108.09379	8231.7
2111.08131	8237.7
2114.0669	8258.4
2117.05057	8262.9
2120.03233	8255.5
2123.01216	8261.3
2125.99008	8261.9
2128.96609	8268.2
2131.94018	8247.9
2134.91236	8259
2137.88263	8248.1
2140.851	8249.8
2143.81746	8265.7
2146.78201	8251
2149.74466	8238.8
2152.7054	8228.2
2155.66425	8202.8
2158.6212	8210.9
2161.57625	8175.7
2164.52941	8203.6
2167.48067	8173.9
2170.43004	8175.5
2173.37752	8190.9
2176.32311	8159.6
2179.26681	8170.6
2182.20863	8184.2
2185.14856	8154.5
2188.08661	8133
2191.02278	8142.3
2193.95707	8134.4
2196.88948	8126.6
2199.82001	8114.9
2202.74867	8100
2205.67545	8112.1
2208.60037	8084.1
2211.52341	8071.7
2214.44458	8045.1
2217.36388	8024.3
2220.28132	8009.7
2223.1969	7987.1
2226.11061	7990.6
2229.02246	7941.9
2231.93245	7933.6
2234.84058	7926.3
2237.74686	7922.2
2240.65128	7912.9
2243.55385	7872.5
2246.45456	7886.8
2249.35343	7862.9
2252.25044	7855.7
2255.14561	7846.6
2258.03893	7829.5
2260.93041	7818.5
2263.82004	7777.3
2266.70783	7750.3
2269.59378	7747.6
2272.4779	7730.4
2275.36017	7715.6
2278.24061	7697.9
2281.11922	7653.5
2283.996	7647.8
2286.87094	7634.4
2289.74405	7619.1
2292.61534	7596.7
2295.4848	7600.3
2298.35243	7574.9
2301.21824	7584.2
2304.08223	7558
2306.94439	7553.6
2309.80474	7559.7
2312.66327	7520.4
2315.51999	7521.6
2318.37489	7500.4
2321.22797	7514
2324.07925	7490
2326.92871	7496.7
2329.77637	7481.6
2332.62222	7453.8
2335.46626	7429.4
2338.3085	7426.7
2341.14893	7434.9
2343.98756	7409.7
2346.8244	7420.8
2349.65943	7424.7
2352.49267	7421.2
2355.32411	7416.2
2358.15376	7402.9
2360.98161	7432.4
2363.80768	7414.3
2366.63195	7440.2
2369.45444	7437
2372.27514	7413.7
2375.09405	7375.8
2377.91118	7363.8
2380.72652	7364.2
2383.54009	7313.2
2386.35187	7335.3
2389.16188	7293.8
2391.97011	7283
2394.77657	7250.3
2397.58125	7216.5
2400.38416	7221.2
2403.18529	7186.5
2405.98466	7180.5
2408.78226	7166.2
2411.57809	7161.7
2414.37216	7150.6
2417.16446	7149.2
2419.955	7150
2422.74378	7132.8
2425.5308	7109.4
2428.31606	7120.8
2431.09956	7107.2
2433.88131	7094.9
2436.6613	7096.6
2439.43954	7088.9
2442.21603	7063.3
2444.99077	7051.2
2447.76377	7066.8
2450.53501	7076.1
2453.30451	7064.3
2456.07226	7056
2458.83827	7043.8
2461.60254	7060.6
2464.36507	7053.6
2467.12586	7020.6
2469.88492	7039
2472.64224	7043.5
2475.39782	7044.6
2478.15167	7044.5
2480.90379	7053.9
2483.65417	7046.5
2486.40283	7061.2
2489.14976	7047.3
2491.89497	7046.6
2494.63845	7059.7
2497.3802	7028.4
2500.12024	7050.8
2502.85855	7015.7
2505.59514	7011
2508.33002	6992.2
2511.06318	6981.8
2513.79462	6960.6
2516.52435	6956.4
2519.25237	6945.9
2521.97867	6930.3
2524.70327	6906.9
2527.42616	6895.1
2530.14734	6898.8
2532.86681	6885.1
2535.58458	6865.7
2538.30065	6868.7
2541.01501	6874
2543.72768	6881.4
2546.43864	6851.5
2549.14791	6846.7
2551.85548	6841.4
2554.56136	6820.3
2557.26554	6786.5
2559.96803	6805.4
2562.66883	6765
2565.36794	6773.5
2568.06536	6735.1
2570.7611	6746.9
2573.45514	6723.1
2576.14751	6724.1
2578.83819	6726.7
2581.52719	6721.8
2584.21451	6715.4
2586.90015	6713.5
2589.58411	6691.8
2592.2664	6677.6
2594.94701	6669
2597.62594	6670.1
2600.30321	6657.1
2602.9788	6646.2
2605.65273	6615.9
2608.32498	6632.4
2610.99557	6619.6
2613.66449	6625.7
2616.33175	6624.2
2618.99734	6642.1
2621.66128	6600.9
2624.32355	6586.6
2626.98416	6588
2629.64311	6565.2
2632.30041	6584.8
2634.95605	6563
2637.61004	6577.3
2640.26238	6563.9
2642.91306	6566.5
2645.56209	6552.7
2648.20948	6555.4
2650.85521	6540.4
2653.4993	6547.3
2656.14175	6553
2658.78255	6546.8
2661.42171	6547.4
2664.05923	6577.9
2666.6951	6580.2
2669.32934	6580
2671.96194	6585.1
2674.59291	6572.8
2677.22224	6557.4
2679.84993	6567.9
2682.476	6543.8
2685.10043	6532.6
2687.72324	6554.8
2690.34441	6508.2
2692.96396	6536.1
2695.58188	6534
2698.19818	6529.1
2700.81285	6523.6
2703.4259	6527.1
2706.03733	6520.3
2708.64714	6522.3
2711.25533	6530.5
2713.86191	6532.1
2716.46687	6549.2
2719.07021	6535.6
2721.67194	6524.4
2724.27206	6550
2726.87057	6535.3
2729.46747	6533.7
2732.06276	6541.8
2734.65644	6529.5
2737.24852	6520.1
2739.83899	6490.6
2742.42786	6501.4
2745.01513	6477.6
2747.60079	6480.6
2750.18486	6462.7
2752.76733	6472.7
2755.3482	6452.7
2757.92747	6441.1
2760.50515	6454.8
2763.08123	6415.3
2765.65573	6425.8
2768.22863	6441.8
2770.79994	6421.4
2773.36967	6421
2775.9378	6422.3
2778.50435	6406
2781.06932	6404.4
2783.6327	6417.7
2786.1945	6378.7
2788.75471	6415.6
2791.31335	6400.5
2793.87041	6382.6
2796.42589	6359.7
2798.97979	6353.5
2801.53212	6359.7
2804.08288	6330.3
2806.63206	6339
2809.17967	6311.1
2811.72571	6316.8
2814.27018	6300.1
2816.81308	6280.3
2819.35442	6286.4
2821.89419	6269.7
2824.43239	6267.3
2826.96904	6262.8
2829.50412	6262.5
2832.03763	6243.7
2834.56959	6227.8
2837.1	6223.8
2839.62884	6241
2842.15613	6242.9
2844.68186	6220.1
2847.20604	6240.9
2849.72867	6246.3
2852.24974	6229
2854.76927	6225.2
2857.28724	6225
2859.80367	6226
2862.31855	6214.5
2864.83189	6225
2867.34368	6219.3
2869.85393	6195.7
2872.36264	6199.7
2874.8698	6195.3
2877.37543	6191.8
2879.87952	6196
2882.38207	6172.2
2884.88308	6174.7
2887.38256	6164.3
2889.88051	6142.6
2892.37692	6178.9
2894.8718	6163
2897.36515	6187.1
2899.85698	6177.5
2902.34727	6174.6
2904.83604	6164.6
2907.32328	6192.1
2909.809	6176.5
2912.29319	6187
2914.77587	6188.7
2917.25702	6171.3
2919.73665	6174.1
2922.21476	6181.6
2924.69136	6151.1
2927.16644	6163.9
2929.64	6146.7
2932.11205	6135.6
2934.58258	6106.1
2937.05161	6117
2939.51912	6104.2
2941.98513	6101.9
2944.44962	6068.2
2946.91261	6041.8
2949.37409	6051.8
2951.83407	6056.5
2954.29254	6050
2956.74951	6059.9
2959.20498	6067
2961.65895	6058.3
2964.11142	6034.5
2966.56239	6015.4
2969.01186	6025
2971.45984	5992.3
2973.90632	5996.1
2976.35131	5945.6
2978.7948	5936
2981.23681	5925.6
2983.67732	5929.4
2986.11635	5894.5
2988.55388	5889.8
2990.98993	5879
2993.4245	5880
2995.85758	5856.2
2998.28917	5849.8
3000.71928	5840.5
3003.14791	5811.3
3005.57506	5825.3
3008.00073	5819.4
3010.42493	5811.9
3012.84764	5777.4
3015.26888	5770.5
3017.68865	5764
3020.10694	5756
3022.52376	5749.4
3024.9391	5705.5
3027.35298	5702.6
3029.76539	5709.9
3032.17632	5675.8
3034.5858	5668.7
3036.9938	5687.7
3039.40034	5666.5
3041.80542	5678.2
3044.20903	5657.4
3046.61118	5667.5
3049.01187	5640.6
3051.4111	5654.8
3053.80888	5617.8
3056.20519	5595.7
3058.60005	5589.5
3060.99345	5574.9
3063.3854	5574
3065.7759	5539.8
3068.16494	5560.1
3070.55254	5522.2
3072.93868	5512.7
3075.32338	5493.1
3077.70662	5499.6
3080.08842	5472.5
3082.46878	5473.9
3084.84769	5471.9
3087.22515	5468.7
3089.60118	5466.1
3091.97576	5453.6
3094.3489	5437.2
3096.72061	5467.7
3099.09087	5458.7
3101.4597	5462
3103.82709	5449.9
3106.19305	5431.6
3108.55757	5419.5
3110.92066	5419
3113.28232	5426.2
3115.64255	5393.4
3118.00134	5395.9
3120.35871	5373.3
3122.71466	5354.9
3125.06917	5363.8
3127.42226	5333.7
3129.77393	5350.3
3132.12417	5327
3134.47299	5340.4
3136.82039	5337.3
3139.16636	5331.2
3141.51092	5320.2
3143.85406	5345
3146.19579	5322.2
3148.53609	5333.2
3150.87499	5330.5
3153.21246	5344.8
3155.54853	5359.8
3157.88318	5361.8
3160.21642	5339.3
3162.54826	5348.8
3164.87868	5328.2
3167.2077	5328.2
3169.5353	5323.3
3171.86151	5353.6
3174.18631	5330.5
3176.5097	5339.2
3178.83169	5329.2
3181.15228	5324.4
3183.47147	5309
3185.78926	5316.8
3188.10565	5317.1
3190.42065	5305.5
3192.73424	5300.3
3195.04645	5297.9
3197.35725	5281.5
3199.66667	5285.4
3201.97469	5301.6
3204.28132	5292
3206.58656	5294
3208.8904	5280.8
3211.19287	5287.2
3213.49394	5288.7
3215.79363	5296.7
3218.09193	5297.9
3220.38884	5301.8
3222.68438	5317
3224.97853	5317.9
3227.2713	5295.6
3229.56269	5301.2
3231.8527	5304.8
3234.14133	5297.9
3236.42858	5257.7
3238.71446	5261.1
3240.99896	5247.2
3243.28209	5256.3
3245.56384	5222
3247.84423	5233.8
3250.12324	5239.3
3252.40088	5222.3
3254.67715	5206.8
3256.95205	5198
3259.22558	5202.9
3261.49775	5179.4
3263.76855	5185
3266.03799	5170.8
3268.30606	5161.7
3270.57277	5146.3
3272.83812	5153.9
3275.10211	5133.8
3277.36474	5126.8
3279.62601	5130.1
3281.88593	5133.8
3284.14448	5141.9
3286.40168	5128.2
3288.65753	5132
3290.91202	5131.7
3293.16516	5109.6
3295.41695	5099.6
3297.66738	5077.5
3299.91647	5056.7
3302.16421	5043.5
3304.4106	5016.5
3306.65564	4981.1
3308.89933	4962.6
3311.14169	4930.5
3313.38269	4869.7
3315.62236	4857.6
3317.86068	4815.2
3320.09766	4774.4
3322.3333	4745.6
3324.5676	4723.2
3326.80056	4654.8
3329.03219	4621.8
3331.26248	1.8
3333.49143	-0.6
3335.71905	0.6
