Data from AgNP_FTO_APTES_UA_100uM_CRN_0uM_R6G_10uM_NaF_0.1M_Addition_RamanShift__3__10-48-40-084.txt Node

Date: Thu Mar 24 10:48:40 GMT 2022
User: TCL
Spectrometer: QEP01345
Trigger mode: 4
Integration Time (sec): 7.000000E0
Scans to average: 10
Electric dark correction enabled: true
Nonlinearity correction enabled: false
Boxcar width: 0
XAxis mode: Raman Shifts
Number of Pixels in Spectrum: 1044
>>>>>Begin Spectral Data<<<<<
46.04893	-1.075
50.45542	0.225
54.85868	0.225
59.25871	0.325
63.6555	37.825
68.04907	42.225
72.43941	41.925
76.82654	42.725
81.21044	48.025
85.59113	49.825
89.96862	51.725
94.34289	50.025
98.71396	54.625
103.08183	52.525
107.4465	56.725
111.80798	56.825
116.16626	58.325
120.52136	58.725
124.87327	60.825
129.222	68.725
133.56755	73.325
137.90993	73.625
142.24913	85.725
146.58517	94.625
150.91804	111.025
155.24774	135.525
159.57429	166.625
163.89768	218.725
168.21792	294.725
172.53501	400.725
176.84895	563.425
181.15975	791.325
185.46741	1098.825
189.77193	1520.025
194.07331	2034.625
198.37157	2616.925
202.6667	3229.825
206.9587	3843.025
211.24758	4483.925
215.53334	5156.225
219.81599	5916.825
224.09553	6797.925
228.37195	7775.425
232.64527	8829.525
236.91549	9854.925
241.18261	10802.025
245.44663	11464.125
249.70755	11913.725
253.96539	12242.125
258.22014	12521.325
262.4718	12786.825
266.72039	12934.925
270.96589	12917.925
275.20832	12745.925
279.44768	12498.425
283.68397	12201.125
287.91719	12036.825
292.14735	12070.525
296.37445	12405.225
300.59849	13064.625
304.81948	13929.925
309.03742	14679.525
313.25231	14943.025
317.46415	14487.425
321.67296	13486.225
325.87872	12497.725
330.08145	12013.925
334.28114	11969.125
338.47781	12142.425
342.67145	12447.625
346.86207	12945.125
351.04966	13695.625
355.23424	14565.225
359.4158	15227.325
363.59435	15478.225
367.76989	15514.225
371.94243	15356.425
376.11196	15207.025
380.27849	15037.325
384.44203	14818.425
388.60257	14542.725
392.76012	14410.525
396.91468	14470.825
401.06626	14842.025
405.21485	15116.525
409.36047	14760.725
413.50311	13794.925
417.64277	12853.425
421.77947	12365.925
425.9132	12166.225
430.04396	12154.625
434.17176	12321.525
438.2966	12685.525
442.41849	13362.325
446.53742	14289.525
450.6534	15181.625
454.76644	15540.325
458.87653	15105.325
462.98368	14241.625
467.08789	13443.625
471.18916	12774.525
475.2875	12137.725
479.38291	11624.025
483.4754	11266.025
487.56496	11047.525
491.6516	10921.625
495.73531	10875.025
499.81612	10957.925
503.89401	11142.625
507.96899	11396.325
512.04106	11575.525
516.11023	11794.425
520.1765	12053.125
524.23987	12222.325
528.30034	12260.125
532.35792	12121.225
536.41261	11731.825
540.46441	11197.925
544.51333	10797.025
548.55936	10774.625
552.60252	11139.925
556.64279	11771.925
560.6802	12214.025
564.71473	12343.225
568.7464	12756.925
572.7752	13241.125
576.80114	12874.425
580.82422	12380.025
584.84444	12731.125
588.86181	13980.025
592.87633	15761.025
596.888	16662.925
600.89682	15591.325
604.9028	15621.925
608.90594	19962.425
612.90624	26781.325
616.90371	26288.425
620.89834	17054.225
624.89015	12011.425
628.87913	11026.425
632.86528	11163.525
636.84862	11410.425
640.82913	11150.325
644.80683	10341.825
648.78172	9764.725
652.75379	9730.225
656.72306	10285.925
660.68952	11076.925
664.65319	11029.925
668.61405	10227.225
672.57211	9848.525
676.52738	9880.125
680.47986	9840.125
684.42955	9564.525
688.37646	9363.425
692.32058	9325.425
696.26192	9523.525
700.20048	9762.325
704.13626	9967.525
708.06928	9954.525
711.99952	9855.625
715.927	9811.525
719.85171	9897.125
723.77365	9947.225
727.69284	9779.025
731.60928	9642.525
735.52295	9672.925
739.43388	9814.725
743.34206	9886.925
747.24749	9946.725
751.15017	9969.025
755.05012	10178.725
758.94733	10878.725
762.8418	12695.825
766.73354	16063.725
770.62254	19626.025
774.50882	21445.925
778.39237	20545.725
782.27321	17244.225
786.15132	13670.925
790.02671	11405.025
793.89938	10335.525
797.76935	9894.625
801.6366	9677.425
805.50115	9531.425
809.36299	9415.125
813.22213	9292.625
817.07857	9216.225
820.93231	9165.525
824.78336	9199.325
828.63172	9287.325
832.47738	9326.025
836.32036	9291.725
840.16066	9235.625
843.99827	9209.425
847.8332	9155.725
851.66546	9143.325
855.49504	9175.225
859.32195	9144.825
863.1462	9083.325
866.96777	9062.825
870.78668	9045.625
874.60293	9066.725
878.41652	9074.925
882.22745	9163.825
886.03573	9304.125
889.84136	9289.425
893.64433	9224.125
897.44466	9173.125
901.24235	9165.525
905.0374	9070.325
908.8298	8948.725
912.61957	8867.025
916.40671	8886.425
920.19121	8999.925
923.97308	9237.225
927.75233	9538.925
931.52895	9686.725
935.30295	9493.025
939.07433	9008.925
942.84309	8594.025
946.60924	8352.225
950.37278	8231.225
954.13371	8175.125
957.89203	8107.825
961.64774	8039.225
965.40086	7991.725
969.15137	7939.025
972.89929	7880.825
976.64461	7849.325
980.38733	7867.925
984.12747	7864.925
987.86502	7957.325
991.59999	8070.925
995.33237	8281.225
999.06217	8727.325
1002.78939	9226.325
1006.51404	9554.725
1010.23611	9765.825
1013.95561	9956.825
1017.67255	9963.825
1021.38692	9636.425
1025.09872	9175.325
1028.80796	8853.025
1032.51465	8815.025
1036.21877	8927.125
1039.92035	9019.025
1043.61937	9049.625
1047.31584	9033.225
1051.00976	9022.625
1054.70114	8982.425
1058.38998	8933.125
1062.07627	8894.025
1065.76003	8888.125
1069.44126	8916.125
1073.11995	9219.125
1076.79611	9537.625
1080.46974	9911.825
1084.14085	10449.725
1087.80943	10989.725
1091.47549	11175.925
1095.13903	10815.725
1098.80005	10145.625
1102.45857	9642.725
1106.11456	9438.725
1109.76805	9582.125
1113.41903	9929.825
1117.06751	10475.425
1120.71348	11270.225
1124.35696	12148.225
1127.99793	12877.225
1131.63641	12824.525
1135.2724	11909.825
1138.90589	11045.225
1142.5369	10528.025
1146.16542	10222.525
1149.79145	10067.425
1153.415	9995.325
1157.03607	9984.325
1160.65467	10255.025
1164.27079	10883.825
1167.88443	12047.725
1171.49561	13980.225
1175.10432	16942.025
1178.71056	20782.125
1182.31434	23779.925
1185.91565	24349.625
1189.51451	22996.725
1193.11091	20879.625
1196.70485	18787.625
1200.29634	16943.825
1203.88538	15255.325
1207.47197	13561.025
1211.05612	12338.525
1214.63782	11890.325
1218.21708	12118.425
1221.79391	12699.525
1225.36829	12975.225
1228.94024	12541.225
1232.50976	11799.425
1236.07685	11226.325
1239.6415	10983.025
1243.20374	10935.625
1246.76355	10946.725
1250.32093	11088.425
1253.8759	11438.425
1257.42845	12040.525
1260.97859	12774.125
1264.52631	13574.425
1268.07163	14407.525
1271.61453	15109.425
1275.15503	15646.725
1278.69312	16036.325
1282.22882	16470.525
1285.76211	17369.425
1289.29301	18601.125
1292.82151	19919.825
1296.34761	21408.125
1299.87133	23308.325
1303.39266	26047.725
1306.9116	30036.425
1310.42815	34779.525
1313.94233	37826.425
1317.45412	36717.825
1320.96354	32607.125
1324.47058	27895.325
1327.97525	24094.425
1331.47754	21861.325
1334.97747	21057.125
1338.47502	21059.425
1341.97022	21293.425
1345.46305	22012.125
1348.95352	23925.325
1352.44163	27053.925
1355.92738	31780.725
1359.41078	38147.925
1362.89183	43701.525
1366.37053	42715.125
1369.84688	35120.125
1373.32088	27010.125
1376.79254	21859.825
1380.26186	19336.725
1383.72883	17996.825
1387.19347	16885.125
1390.65578	15892.225
1394.11575	15447.525
1397.57339	15506.025
1401.0287	15883.225
1404.48168	16166.825
1407.93234	16224.925
1411.38068	16043.225
1414.82669	15690.025
1418.27039	15208.025
1421.71177	14630.625
1425.15083	14091.125
1428.58758	13970.425
1432.02203	14324.525
1435.45416	14758.625
1438.88399	15039.225
1442.31151	15067.625
1445.73673	15118.225
1449.15965	15217.125
1452.58027	15087.825
1455.9986	14723.625
1459.41463	14578.325
1462.82837	14924.325
1466.23982	15623.425
1469.64898	16356.925
1473.05586	16827.025
1476.46045	17091.125
1479.86276	17328.725
1483.26279	17559.625
1486.66054	17922.125
1490.05602	18588.125
1493.44922	19538.425
1496.84016	20880.425
1500.22882	23234.425
1503.61521	26707.325
1506.99934	31043.125
1510.38121	35085.625
1513.76081	36893.725
1517.13816	34336.325
1520.51324	28833.325
1523.88607	23602.625
1527.25665	20471.025
1530.62498	18968.125
1533.99105	18137.625
1537.35488	17477.225
1540.71647	16835.125
1544.07581	16260.425
1547.4329	15754.825
1550.78776	15306.625
1554.14038	15040.925
1557.49077	14963.925
1560.83892	15192.925
1564.18484	15763.725
1567.52853	16649.425
1570.86999	17473.725
1574.20922	17979.225
1577.54624	17924.225
1580.88103	16745.625
1584.2136	14994.525
1587.54395	14062.225
1590.87208	14543.125
1594.19801	16367.725
1597.52172	19085.125
1600.84321	20907.125
1604.16251	20433.425
1607.47959	18040.225
1610.79447	15177.825
1614.10715	12717.425
1617.41763	11088.525
1620.7259	10129.525
1624.03199	9753.525
1627.33587	9768.825
1630.63757	10203.725
1633.93707	11192.625
1637.23439	13040.425
1640.52951	16212.325
1643.82246	20894.025
1647.11321	25818.625
1650.40179	28497.025
1653.68819	26674.125
1656.97241	21331.125
1660.25446	15765.125
1663.53433	11953.225
1666.81203	9802.325
1670.08756	8631.625
1673.36092	7953.525
1676.63211	7546.225
1679.90115	7263.525
1683.16801	7069.325
1686.43272	6931.325
1689.69527	6836.225
1692.95567	6751.325
1696.2139	6733.825
1699.46999	6700.025
1702.72392	6680.125
1705.97571	6645.525
1709.22535	6633.425
1712.47284	6612.425
1715.71819	6601.125
1718.96139	6585.325
1722.20246	6545.625
1725.44139	6489.625
1728.67818	6415.325
1731.91284	6323.425
1735.14537	6252.125
1738.37576	6201.925
1741.60403	6156.025
1744.83017	6122.425
1748.05418	6098.825
1751.27607	6058.125
1754.49584	6031.925
1757.71349	6021.925
1760.92903	6007.925
1764.14244	5975.525
1767.35375	5978.425
1770.56294	5954.025
1773.77002	5908.825
1776.97499	5873.925
1780.17785	5839.025
1783.37861	5809.225
1786.57727	5772.525
1789.77382	5761.225
1792.96828	5737.325
1796.16064	5737.225
1799.3509	5719.625
1802.53907	5682.925
1805.72514	5668.425
1808.90913	5618.325
1812.09102	5608.425
1815.27083	5587.425
1818.44856	5578.925
1821.6242	5538.825
1824.79776	5542.325
1827.96924	5508.525
1831.13864	5505.125
1834.30597	5482.325
1837.47122	5475.625
1840.6344	5449.625
1843.7955	5448.525
1846.95454	5447.425
1850.11151	5427.625
1853.26642	5421.525
1856.41926	5439.425
1859.57004	5437.525
1862.71876	5435.625
1865.86542	5449.725
1869.01003	5428.825
1872.15258	5430.525
1875.29308	5447.125
1878.43152	5450.425
1881.56792	5441.925
1884.70227	5444.925
1887.83457	5457.825
1890.96482	5452.625
1894.09304	5469.625
1897.21921	5458.925
1900.34335	5470.125
1903.46544	5458.725
1906.58551	5466.325
1909.70353	5456.325
1912.81953	5452.925
1915.93349	5425.025
1919.04543	5401.625
1922.15534	5364.025
1925.26322	5322.125
1928.36908	5310.725
1931.47292	5294.325
1934.57473	5262.225
1937.67453	5232.025
1940.77232	5194.525
1943.86808	5169.625
1946.96184	5153.325
1950.05358	5127.625
1953.14331	5101.925
1956.23103	5097.925
1959.31675	5062.825
1962.40046	5052.625
1965.48217	5070.125
1968.56188	5053.725
1971.63959	5042.325
1974.7153	5021.625
1977.78901	5019.925
1980.86073	5008.625
1983.93046	4972.525
1986.99819	4955.525
1990.06394	4919.525
1993.1277	4899.225
1996.18947	4895.525
1999.24925	4875.625
2002.30706	4846.025
2005.36288	4838.125
2008.41672	4845.125
2011.46859	4813.625
2014.51848	4808.525
2017.56639	4787.725
2020.61233	4754.225
2023.6563	4734.825
2026.6983	4694.625
2029.73833	4704.225
2032.7764	4691.325
2035.8125	4679.225
2038.84664	4670.825
2041.87881	4655.425
2044.90903	4650.825
2047.93729	4623.625
2050.96359	4633.825
2053.98794	4613.925
2057.01034	4624.025
2060.03078	4613.525
2063.04927	4606.625
2066.06582	4591.625
2069.08042	4597.525
2072.09307	4602.625
2075.10378	4595.325
2078.11255	4592.925
2081.11938	4595.825
2084.12426	4594.425
2087.12722	4614.125
2090.12824	4620.125
2093.12732	4598.625
2096.12447	4628.625
2099.11969	4623.725
2102.11299	4631.325
2105.10435	4641.525
2108.09379	4639.025
2111.08131	4637.425
2114.0669	4613.325
2117.05057	4620.325
2120.03233	4591.625
2123.01216	4575.425
2125.99008	4553.625
2128.96609	4544.825
2131.94018	4525.425
2134.91236	4524.025
2137.88263	4516.125
2140.851	4518.925
2143.81746	4501.125
2146.78201	4498.325
2149.74466	4497.825
2152.7054	4467.225
2155.66425	4456.725
2158.6212	4463.125
2161.57625	4451.325
2164.52941	4439.825
2167.48067	4434.025
2170.43004	4426.225
2173.37752	4415.725
2176.32311	4414.825
2179.26681	4416.225
2182.20863	4423.125
2185.14856	4431.725
2188.08661	4428.325
2191.02278	4437.725
2193.95707	4416.225
2196.88948	4404.225
2199.82001	4409.025
2202.74867	4389.625
2205.67545	4396.625
2208.60037	4374.225
2211.52341	4363.025
2214.44458	4363.225
2217.36388	4344.625
2220.28132	4340.325
2223.1969	4338.725
2226.11061	4324.525
2229.02246	4305.725
2231.93245	4301.825
2234.84058	4303.425
2237.74686	4294.125
2240.65128	4289.425
2243.55385	4275.825
2246.45456	4272.125
2249.35343	4269.425
2252.25044	4266.125
2255.14561	4252.825
2258.03893	4255.725
2260.93041	4269.125
2263.82004	4253.825
2266.70783	4237.825
2269.59378	4233.425
2272.4779	4214.425
2275.36017	4205.825
2278.24061	4196.625
2281.11922	4184.125
2283.996	4175.625
2286.87094	4176.725
2289.74405	4139.325
2292.61534	4150.925
2295.4848	4116.125
2298.35243	4118.425
2301.21824	4117.325
2304.08223	4109.825
2306.94439	4089.025
2309.80474	4108.425
2312.66327	4111.725
2315.51999	4108.425
2318.37489	4110.225
2321.22797	4100.425
2324.07925	4103.325
2326.92871	4104.925
2329.77637	4091.225
2332.62222	4092.425
2335.46626	4072.925
2338.3085	4086.025
2341.14893	4091.925
2343.98756	4095.325
2346.8244	4109.925
2349.65943	4115.325
2352.49267	4120.325
2355.32411	4137.625
2358.15376	4148.425
2360.98161	4166.425
2363.80768	4151.125
2366.63195	4175.625
2369.45444	4198.725
2372.27514	4200.125
2375.09405	4200.425
2377.91118	4175.125
2380.72652	4168.125
2383.54009	4125.025
2386.35187	4082.125
2389.16188	4066.225
2391.97011	4048.625
2394.77657	4018.825
2397.58125	4012.425
2400.38416	4008.325
2403.18529	3990.025
2405.98466	3970.925
2408.78226	3958.125
2411.57809	3948.125
2414.37216	3938.725
2417.16446	3944.325
2419.955	3933.925
2422.74378	3940.025
2425.5308	3924.725
2428.31606	3945.625
2431.09956	3946.825
2433.88131	3945.325
2436.6613	3943.025
2439.43954	3937.425
2442.21603	3945.925
2444.99077	3948.425
2447.76377	3955.925
2450.53501	3964.725
2453.30451	3967.625
2456.07226	4000.425
2458.83827	3982.325
2461.60254	3994.525
2464.36507	3980.525
2467.12586	3982.825
2469.88492	3978.425
2472.64224	3983.625
2475.39782	3998.325
2478.15167	4014.025
2480.90379	4010.325
2483.65417	4044.425
2486.40283	4057.925
2489.14976	4074.825
2491.89497	4084.925
2494.63845	4084.925
2497.3802	4073.725
2500.12024	4083.025
2502.85855	4062.025
2505.59514	4052.825
2508.33002	4010.725
2511.06318	3969.825
2513.79462	3940.925
2516.52435	3926.525
2519.25237	3903.525
2521.97867	3869.125
2524.70327	3861.225
2527.42616	3847.925
2530.14734	3839.925
2532.86681	3841.625
2535.58458	3835.325
2538.30065	3855.725
2541.01501	3858.125
2543.72768	3864.025
2546.43864	3865.125
2549.14791	3868.225
2551.85548	3856.525
2554.56136	3871.125
2557.26554	3843.925
2559.96803	3856.125
2562.66883	3853.325
2565.36794	3867.725
2568.06536	3856.925
2570.7611	3851.725
2573.45514	3851.825
2576.14751	3837.225
2578.83819	3836.525
2581.52719	3834.225
2584.21451	3819.525
2586.90015	3814.125
2589.58411	3817.925
2592.2664	3806.725
2594.94701	3806.625
2597.62594	3798.925
2600.30321	3797.225
2602.9788	3801.025
2605.65273	3798.325
2608.32498	3794.825
2610.99557	3783.625
2613.66449	3790.525
2616.33175	3799.825
2618.99734	3804.525
2621.66128	3800.525
2624.32355	3812.525
2626.98416	3795.125
2629.64311	3787.425
2632.30041	3777.825
2634.95605	3781.525
2637.61004	3767.825
2640.26238	3749.525
2642.91306	3749.125
2645.56209	3734.525
2648.20948	3729.025
2650.85521	3733.425
2653.4993	3744.225
2656.14175	3752.025
2658.78255	3759.425
2661.42171	3767.025
2664.05923	3788.125
2666.6951	3782.525
2669.32934	3799.125
2671.96194	3785.125
2674.59291	3795.725
2677.22224	3800.025
2679.84993	3801.325
2682.476	3777.225
2685.10043	3781.625
2687.72324	3768.225
2690.34441	3759.225
2692.96396	3779.925
2695.58188	3755.725
2698.19818	3756.925
2700.81285	3751.825
2703.4259	3754.725
2706.03733	3770.825
2708.64714	3777.525
2711.25533	3779.825
2713.86191	3771.225
2716.46687	3789.625
2719.07021	3779.025
2721.67194	3798.125
2724.27206	3791.925
2726.87057	3804.025
2729.46747	3779.925
2732.06276	3773.225
2734.65644	3765.725
2737.24852	3775.425
2739.83899	3747.625
2742.42786	3769.225
2745.01513	3746.325
2747.60079	3742.525
2750.18486	3732.425
2752.76733	3739.025
2755.3482	3752.325
2757.92747	3754.625
2760.50515	3748.625
2763.08123	3743.325
2765.65573	3739.425
2768.22863	3737.125
2770.79994	3735.625
2773.36967	3743.925
2775.9378	3736.725
2778.50435	3749.925
2781.06932	3754.025
2783.6327	3761.025
2786.1945	3745.425
2788.75471	3750.525
2791.31335	3738.625
2793.87041	3759.325
2796.42589	3754.225
2798.97979	3770.525
2801.53212	3760.925
2804.08288	3776.325
2806.63206	3755.525
2809.17967	3763.625
2811.72571	3773.025
2814.27018	3790.825
2816.81308	3778.725
2819.35442	3807.625
2821.89419	3820.425
2824.43239	3835.125
2826.96904	3837.125
2829.50412	3846.125
2832.03763	3840.725
2834.56959	3851.025
2837.1	3862.425
2839.62884	3862.225
2842.15613	3883.325
2844.68186	3929.725
2847.20604	3971.525
2849.72867	3997.925
2852.24974	4019.725
2854.76927	4041.025
2857.28724	4053.125
2859.80367	4057.325
2862.31855	4051.125
2864.83189	4069.525
2867.34368	4072.725
2869.85393	4076.525
2872.36264	4089.925
2874.8698	4110.325
2877.37543	4104.125
2879.87952	4103.725
2882.38207	4115.625
2884.88308	4094.225
2887.38256	4085.525
2889.88051	4091.825
2892.37692	4073.025
2894.8718	4072.725
2897.36515	4078.525
2899.85698	4082.025
2902.34727	4079.925
2904.83604	4077.625
2907.32328	4091.225
2909.809	4104.125
2912.29319	4087.225
2914.77587	4093.725
2917.25702	4091.525
2919.73665	4083.625
2922.21476	4084.025
2924.69136	4063.625
2927.16644	4041.725
2929.64	4034.925
2932.11205	4019.325
2934.58258	4002.125
2937.05161	3969.525
2939.51912	3959.125
2941.98513	3928.325
2944.44962	3886.225
2946.91261	3846.925
2949.37409	3850.825
2951.83407	3826.125
2954.29254	3816.225
2956.74951	3797.925
2959.20498	3783.025
2961.65895	3751.725
2964.11142	3738.125
2966.56239	3714.025
2969.01186	3698.525
2971.45984	3685.325
2973.90632	3638.625
2976.35131	3633.025
2978.7948	3614.425
2981.23681	3588.425
2983.67732	3585.425
2986.11635	3561.025
2988.55388	3546.325
2990.98993	3535.825
2993.4245	3525.125
2995.85758	3533.225
2998.28917	3532.025
3000.71928	3518.525
3003.14791	3526.925
3005.57506	3527.525
3008.00073	3520.525
3010.42493	3516.125
3012.84764	3503.825
3015.26888	3495.525
3017.68865	3491.725
3020.10694	3486.025
3022.52376	3462.325
3024.9391	3458.225
3027.35298	3446.025
3029.76539	3429.025
3032.17632	3420.125
3034.5858	3412.925
3036.9938	3408.225
3039.40034	3400.125
3041.80542	3387.125
3044.20903	3372.725
3046.61118	3380.025
3049.01187	3366.225
3051.4111	3369.225
3053.80888	3368.425
3056.20519	3360.225
3058.60005	3351.225
3060.99345	3344.225
3063.3854	3339.025
3065.7759	3332.925
3068.16494	3322.725
3070.55254	3315.825
3072.93868	3315.525
3075.32338	3296.725
3077.70662	3288.125
3080.08842	3278.425
3082.46878	3285.325
3084.84769	3273.625
3087.22515	3275.025
3089.60118	3262.725
3091.97576	3263.225
3094.3489	3258.225
3096.72061	3266.925
3099.09087	3262.525
3101.4597	3257.025
3103.82709	3239.325
3106.19305	3229.425
3108.55757	3235.125
3110.92066	3225.425
3113.28232	3218.625
3115.64255	3211.125
3118.00134	3199.925
3120.35871	3214.025
3122.71466	3196.725
3125.06917	3213.525
3127.42226	3211.525
3129.77393	3213.325
3132.12417	3234.725
3134.47299	3227.325
3136.82039	3227.825
3139.16636	3230.025
3141.51092	3249.125
3143.85406	3229.725
3146.19579	3230.625
3148.53609	3222.225
3150.87499	3222.825
3153.21246	3230.225
3155.54853	3232.725
3157.88318	3228.125
3160.21642	3231.725
3162.54826	3237.525
3164.87868	3240.125
3167.2077	3230.425
3169.5353	3247.425
3171.86151	3225.725
3174.18631	3241.525
3176.5097	3243.825
3178.83169	3245.225
3181.15228	3248.925
3183.47147	3248.425
3185.78926	3262.725
3188.10565	3255.725
3190.42065	3271.525
3192.73424	3262.825
3195.04645	3279.125
3197.35725	3279.425
3199.66667	3280.725
3201.97469	3285.525
3204.28132	3278.925
3206.58656	3302.925
3208.8904	3302.025
3211.19287	3307.825
3213.49394	3317.825
3215.79363	3312.725
3218.09193	3312.125
3220.38884	3299.125
3222.68438	3312.325
3224.97853	3311.525
3227.2713	3317.625
3229.56269	3317.725
3231.8527	3308.525
3234.14133	3316.425
3236.42858	3323.525
3238.71446	3319.425
3240.99896	3313.525
3243.28209	3323.125
3245.56384	3324.125
3247.84423	3330.425
3250.12324	3322.225
3252.40088	3331.725
3254.67715	3315.725
3256.95205	3322.825
3259.22558	3312.425
3261.49775	3321.225
3263.76855	3287.825
3266.03799	3297.925
3268.30606	3308.125
3270.57277	3287.025
3272.83812	3294.325
3275.10211	3295.425
3277.36474	3297.925
3279.62601	3298.825
3281.88593	3305.225
3284.14448	3303.425
3286.40168	3307.525
3288.65753	3319.725
3290.91202	3306.425
3293.16516	3312.225
3295.41695	3300.225
3297.66738	3278.325
3299.91647	3271.325
3302.16421	3245.525
3304.4106	3237.925
3306.65564	3219.125
3308.89933	3197.025
3311.14169	3176.025
3313.38269	3157.625
3315.62236	3134.925
3317.86068	3109.325
3320.09766	3060.225
3322.3333	3034.825
3324.5676	3048.825
3326.80056	2986.025
3329.03219	2963.325
3331.26248	-0.375
3333.49143	-0.775
3335.71905	1.325
