Data from AgNP_FTO_APTES_UA_100uM_CRN_50uM_R6G_10uM_NaF_0.1M_Addition_RamanShift__30__17-42-50-558.txt Node

Date: Thu Mar 24 17:42:50 GMT 2022
User: TCL
Spectrometer: QEP01345
Trigger mode: 4
Integration Time (sec): 7.000000E0
Scans to average: 10
Electric dark correction enabled: true
Nonlinearity correction enabled: false
Boxcar width: 0
XAxis mode: Raman Shifts
Number of Pixels in Spectrum: 1044
>>>>>Begin Spectral Data<<<<<
46.04893	-1.2625
50.45542	0.4375
54.85868	-0.6625
59.25871	-0.2625
63.6555	34.4375
68.04907	39.2375
72.43941	37.1375
76.82654	39.6375
81.21044	45.0375
85.59113	42.8375
89.96862	47.4375
94.34289	43.1375
98.71396	47.1375
103.08183	47.4375
107.4465	53.3375
111.80798	51.8375
116.16626	53.2375
120.52136	54.5375
124.87327	54.5375
129.222	57.6375
133.56755	64.3375
137.90993	65.7375
142.24913	76.3375
146.58517	77.6375
150.91804	95.7375
155.24774	116.0375
159.57429	144.7375
163.89768	182.5375
168.21792	243.7375
172.53501	336.6375
176.84895	473.6375
181.15975	673.4375
185.46741	934.3375
189.77193	1295.6375
194.07331	1739.6375
198.37157	2252.0375
202.6667	2766.5375
206.9587	3320.4375
211.24758	3847.9375
215.53334	4396.0375
219.81599	5002.1375
224.09553	5658.8375
228.37195	6413.5375
232.64527	7267.8375
236.91549	8097.4375
241.18261	8917.0375
245.44663	9623.1375
249.70755	10167.2375
253.96539	10632.8375
258.22014	10993.6375
262.4718	11324.1375
266.72039	11571.3375
270.96589	11741.2375
275.20832	11739.7375
279.44768	11654.5375
283.68397	11527.1375
287.91719	11409.5375
292.14735	11410.0375
296.37445	11533.0375
300.59849	11779.3375
304.81948	12055.9375
309.03742	12249.0375
313.25231	12186.0375
317.46415	11850.2375
321.67296	11293.8375
325.87872	10832.0375
330.08145	10583.0375
334.28114	10567.3375
338.47781	10666.3375
342.67145	10843.8375
346.86207	11143.7375
351.04966	11480.9375
355.23424	11858.9375
359.4158	12139.2375
363.59435	12275.6375
367.76989	12313.9375
371.94243	12328.8375
376.11196	12350.6375
380.27849	12329.2375
384.44203	12294.8375
388.60257	12298.7375
392.76012	12341.7375
396.91468	12398.7375
401.06626	12604.9375
405.21485	12734.8375
409.36047	12564.9375
413.50311	12136.2375
417.64277	11706.1375
421.77947	11508.5375
425.9132	11446.8375
430.04396	11529.9375
434.17176	11622.2375
438.2966	11748.7375
442.41849	11998.1375
446.53742	12399.7375
450.6534	12719.1375
454.76644	12920.5375
458.87653	12972.6375
462.98368	12827.0375
467.08789	12724.3375
471.18916	12496.4375
475.2875	12314.3375
479.38291	12123.7375
483.4754	11977.5375
487.56496	11770.2375
491.6516	11604.0375
495.73531	11491.7375
499.81612	11465.5375
503.89401	11519.2375
507.96899	11574.0375
512.04106	11628.4375
516.11023	11666.8375
520.1765	11673.8375
524.23987	11626.5375
528.30034	11519.7375
532.35792	11409.5375
536.41261	11311.5375
540.46441	11145.8375
544.51333	11099.6375
548.55936	11186.6375
552.60252	11475.8375
556.64279	11793.8375
560.6802	11958.3375
564.71473	12068.9375
568.7464	12332.5375
572.7752	12704.1375
576.80114	12810.1375
580.82422	12858.0375
584.84444	12983.0375
588.86181	13194.4375
592.87633	13528.8375
596.888	13720.1375
600.89682	13872.0375
604.9028	14531.8375
608.90594	16821.7375
612.90624	19662.7375
616.90371	18537.5375
620.89834	14042.5375
624.89015	11900.0375
628.87913	11581.4375
632.86528	11787.8375
636.84862	11959.9375
640.82913	11766.8375
644.80683	11290.2375
648.78172	10881.1375
652.75379	10784.9375
656.72306	11026.8375
660.68952	11405.4375
664.65319	11282.9375
668.61405	10825.2375
672.57211	10634.3375
676.52738	10624.2375
680.47986	10647.0375
684.42955	10523.9375
688.37646	10481.2375
692.32058	10503.6375
696.26192	10616.3375
700.20048	10741.3375
704.13626	10864.0375
708.06928	10848.0375
711.99952	10763.3375
715.927	10747.6375
719.85171	10751.3375
723.77365	10784.1375
727.69284	10722.2375
731.60928	10654.2375
735.52295	10645.0375
739.43388	10675.7375
743.34206	10728.8375
747.24749	10719.3375
751.15017	10776.7375
755.05012	10945.6375
758.94733	11411.0375
762.8418	12486.4375
766.73354	14358.8375
770.62254	16164.2375
774.50882	16815.9375
778.39237	15839.0375
782.27321	13930.4375
786.15132	12232.8375
790.02671	11220.6375
793.89938	10720.6375
797.76935	10492.6375
801.6366	10406.1375
805.50115	10379.3375
809.36299	10291.4375
813.22213	10253.8375
817.07857	10225.7375
820.93231	10183.8375
824.78336	10135.2375
828.63172	10125.9375
832.47738	10108.6375
836.32036	10093.0375
840.16066	10075.2375
843.99827	10035.9375
847.8332	10042.5375
851.66546	10067.6375
855.49504	10022.6375
859.32195	10012.2375
863.1462	9993.6375
866.96777	9984.2375
870.78668	9987.5375
874.60293	10000.4375
878.41652	10028.8375
882.22745	10076.4375
886.03573	10149.1375
889.84136	10141.3375
893.64433	10101.5375
897.44466	10068.8375
901.24235	10014.9375
905.0374	9934.9375
908.8298	9909.9375
912.61957	9877.9375
916.40671	9926.7375
920.19121	10077.0375
923.97308	10177.4375
927.75233	10196.6375
931.52895	10170.0375
935.30295	10012.3375
939.07433	9764.5375
942.84309	9561.1375
946.60924	9457.8375
950.37278	9406.9375
954.13371	9378.0375
957.89203	9363.7375
961.64774	9340.7375
965.40086	9318.4375
969.15137	9303.9375
972.89929	9265.2375
976.64461	9215.3375
980.38733	9240.7375
984.12747	9235.3375
987.86502	9277.4375
991.59999	9364.3375
995.33237	9484.9375
999.06217	9700.0375
1002.78939	9985.8375
1006.51404	10251.7375
1010.23611	10463.1375
1013.95561	10613.0375
1017.67255	10575.6375
1021.38692	10443.2375
1025.09872	10228.2375
1028.80796	10072.7375
1032.51465	10097.3375
1036.21877	10195.0375
1039.92035	10253.9375
1043.61937	10270.8375
1047.31584	10212.9375
1051.00976	10209.4375
1054.70114	10190.9375
1058.38998	10183.5375
1062.07627	10277.4375
1065.76003	10343.1375
1069.44126	10431.1375
1073.11995	10580.7375
1076.79611	10715.6375
1080.46974	10883.5375
1084.14085	11055.5375
1087.80943	11284.2375
1091.47549	11405.9375
1095.13903	11304.5375
1098.80005	11052.6375
1102.45857	10769.9375
1106.11456	10657.3375
1109.76805	10657.5375
1113.41903	10833.7375
1117.06751	11103.6375
1120.71348	11519.2375
1124.35696	11901.1375
1127.99793	12205.4375
1131.63641	12229.8375
1135.2724	11888.0375
1138.90589	11567.6375
1142.5369	11342.6375
1146.16542	11206.6375
1149.79145	11139.6375
1153.415	11170.4375
1157.03607	11322.8375
1160.65467	11589.5375
1164.27079	12064.0375
1167.88443	12834.1375
1171.49561	13916.4375
1175.10432	15529.2375
1178.71056	17541.4375
1182.31434	19320.8375
1185.91565	19938.5375
1189.51451	19443.7375
1193.11091	18452.1375
1196.70485	17232.9375
1200.29634	16181.0375
1203.88538	15363.5375
1207.47197	14559.3375
1211.05612	13784.2375
1214.63782	13316.0375
1218.21708	13035.5375
1221.79391	13005.3375
1225.36829	13017.4375
1228.94024	12927.0375
1232.50976	12666.9375
1236.07685	12418.7375
1239.6415	12281.3375
1243.20374	12249.6375
1246.76355	12327.6375
1250.32093	12439.5375
1253.8759	12679.1375
1257.42845	13025.9375
1260.97859	13439.3375
1264.52631	13890.9375
1268.07163	14376.7375
1271.61453	14871.1375
1275.15503	15302.1375
1278.69312	15617.3375
1282.22882	15960.9375
1285.76211	16409.7375
1289.29301	17027.0375
1292.82151	17793.0375
1296.34761	18704.0375
1299.87133	19969.0375
1303.39266	21634.9375
1306.9116	23728.2375
1310.42815	25886.1375
1313.94233	26999.8375
1317.45412	26485.0375
1320.96354	25158.7375
1324.47058	23732.3375
1327.97525	22407.5375
1331.47754	21436.0375
1334.97747	20908.5375
1338.47502	20811.6375
1341.97022	21086.5375
1345.46305	21617.6375
1348.95352	22393.7375
1352.44163	23439.7375
1355.92738	25116.8375
1359.41078	27802.2375
1362.89183	30284.6375
1366.37053	29614.6375
1369.84688	25682.9375
1373.32088	21532.7375
1376.79254	18994.9375
1380.26186	17752.1375
1383.72883	17197.7375
1387.19347	16766.6375
1390.65578	16367.3375
1394.11575	16105.0375
1397.57339	16058.8375
1401.0287	16124.0375
1404.48168	16240.6375
1407.93234	16136.9375
1411.38068	15893.3375
1414.82669	15510.0375
1418.27039	15038.2375
1421.71177	14484.8375
1425.15083	14015.0375
1428.58758	13700.0375
1432.02203	13802.3375
1435.45416	14085.1375
1438.88399	14394.4375
1442.31151	14558.5375
1445.73673	14770.6375
1449.15965	14946.1375
1452.58027	15023.5375
1455.9986	15053.6375
1459.41463	15194.6375
1462.82837	15499.9375
1466.23982	16010.7375
1469.64898	16461.6375
1473.05586	16867.8375
1476.46045	17068.2375
1479.86276	17150.5375
1483.26279	17265.1375
1486.66054	17390.3375
1490.05602	17800.1375
1493.44922	18413.8375
1496.84016	19326.6375
1500.22882	20855.6375
1503.61521	22991.5375
1506.99934	25217.9375
1510.38121	26707.0375
1513.76081	26600.1375
1517.13816	24811.9375
1520.51324	22204.3375
1523.88607	20039.0375
1527.25665	18716.4375
1530.62498	18096.2375
1533.99105	17707.6375
1537.35488	17336.1375
1540.71647	16900.1375
1544.07581	16441.0375
1547.4329	15960.0375
1550.78776	15618.1375
1554.14038	15454.1375
1557.49077	15495.4375
1560.83892	15658.6375
1564.18484	16016.7375
1567.52853	16500.5375
1570.86999	16958.3375
1574.20922	17260.9375
1577.54624	17283.5375
1580.88103	16609.0375
1584.2136	15775.2375
1587.54395	15501.4375
1590.87208	15841.8375
1594.19801	16843.8375
1597.52172	17967.2375
1600.84321	18452.0375
1604.16251	17761.6375
1607.47959	16514.3375
1610.79447	15185.3375
1614.10715	13957.5375
1617.41763	12897.3375
1620.7259	12138.9375
1624.03199	11729.4375
1627.33587	11701.6375
1630.63757	12025.4375
1633.93707	12737.5375
1637.23439	14095.4375
1640.52951	16227.8375
1643.82246	18921.2375
1647.11321	21528.9375
1650.40179	22737.8375
1653.68819	21524.1375
1656.97241	18358.9375
1660.25446	15112.5375
1663.53433	12731.6375
1666.81203	11308.6375
1670.08756	10408.3375
1673.36092	9867.8375
1676.63211	9471.0375
1679.90115	9248.5375
1683.16801	9062.1375
1686.43272	8926.9375
1689.69527	8774.8375
1692.95567	8710.1375
1696.2139	8645.3375
1699.46999	8592.9375
1702.72392	8512.5375
1705.97571	8499.8375
1709.22535	8463.6375
1712.47284	8438.0375
1715.71819	8409.5375
1718.96139	8363.7375
1722.20246	8332.5375
1725.44139	8251.5375
1728.67818	8189.1375
1731.91284	8130.9375
1735.14537	8045.3375
1738.37576	8004.6375
1741.60403	7988.7375
1744.83017	7948.8375
1748.05418	7903.7375
1751.27607	7895.9375
1754.49584	7859.6375
1757.71349	7856.5375
1760.92903	7838.7375
1764.14244	7828.1375
1767.35375	7817.4375
1770.56294	7763.9375
1773.77002	7752.4375
1776.97499	7728.0375
1780.17785	7683.6375
1783.37861	7678.5375
1786.57727	7648.3375
1789.77382	7627.8375
1792.96828	7626.9375
1796.16064	7628.4375
1799.3509	7588.2375
1802.53907	7570.1375
1805.72514	7527.1375
1808.90913	7488.1375
1812.09102	7487.9375
1815.27083	7478.1375
1818.44856	7465.5375
1821.6242	7427.8375
1824.79776	7402.2375
1827.96924	7391.7375
1831.13864	7372.8375
1834.30597	7362.9375
1837.47122	7361.1375
1840.6344	7334.8375
1843.7955	7338.4375
1846.95454	7337.2375
1850.11151	7329.1375
1853.26642	7323.4375
1856.41926	7302.1375
1859.57004	7299.5375
1862.71876	7284.2375
1865.86542	7284.6375
1869.01003	7291.3375
1872.15258	7262.3375
1875.29308	7252.0375
1878.43152	7246.0375
1881.56792	7274.4375
1884.70227	7257.4375
1887.83457	7232.7375
1890.96482	7233.9375
1894.09304	7216.9375
1897.21921	7204.0375
1900.34335	7196.3375
1903.46544	7190.0375
1906.58551	7198.2375
1909.70353	7205.9375
1912.81953	7169.9375
1915.93349	7167.8375
1919.04543	7148.4375
1922.15534	7130.8375
1925.26322	7123.4375
1928.36908	7099.9375
1931.47292	7085.0375
1934.57473	7038.0375
1937.67453	7041.6375
1940.77232	7036.8375
1943.86808	7014.0375
1946.96184	6976.3375
1950.05358	6933.6375
1953.14331	6931.2375
1956.23103	6903.9375
1959.31675	6887.0375
1962.40046	6872.9375
1965.48217	6859.7375
1968.56188	6848.4375
1971.63959	6810.9375
1974.7153	6812.4375
1977.78901	6793.1375
1980.86073	6781.8375
1983.93046	6735.7375
1986.99819	6686.2375
1990.06394	6693.6375
1993.1277	6656.5375
1996.18947	6639.1375
1999.24925	6626.5375
2002.30706	6589.2375
2005.36288	6572.7375
2008.41672	6533.2375
2011.46859	6545.2375
2014.51848	6500.4375
2017.56639	6483.5375
2020.61233	6456.6375
2023.6563	6440.0375
2026.6983	6421.8375
2029.73833	6428.7375
2032.7764	6412.4375
2035.8125	6393.1375
2038.84664	6363.2375
2041.87881	6345.9375
2044.90903	6352.8375
2047.93729	6322.6375
2050.96359	6332.5375
2053.98794	6313.0375
2057.01034	6306.9375
2060.03078	6304.4375
2063.04927	6276.9375
2066.06582	6263.8375
2069.08042	6278.0375
2072.09307	6266.3375
2075.10378	6257.0375
2078.11255	6267.2375
2081.11938	6271.0375
2084.12426	6268.3375
2087.12722	6267.1375
2090.12824	6254.9375
2093.12732	6248.5375
2096.12447	6259.3375
2099.11969	6248.5375
2102.11299	6254.8375
2105.10435	6252.7375
2108.09379	6249.8375
2111.08131	6251.4375
2114.0669	6255.4375
2117.05057	6296.9375
2120.03233	6264.0375
2123.01216	6269.5375
2125.99008	6277.1375
2128.96609	6280.8375
2131.94018	6269.9375
2134.91236	6255.2375
2137.88263	6279.7375
2140.851	6291.4375
2143.81746	6301.9375
2146.78201	6276.1375
2149.74466	6260.2375
2152.7054	6263.4375
2155.66425	6262.3375
2158.6212	6237.5375
2161.57625	6232.9375
2164.52941	6241.7375
2167.48067	6232.7375
2170.43004	6217.9375
2173.37752	6240.9375
2176.32311	6225.9375
2179.26681	6209.4375
2182.20863	6243.2375
2185.14856	6224.4375
2188.08661	6215.1375
2191.02278	6208.0375
2193.95707	6209.9375
2196.88948	6209.0375
2199.82001	6198.7375
2202.74867	6193.9375
2205.67545	6181.8375
2208.60037	6188.7375
2211.52341	6171.5375
2214.44458	6154.8375
2217.36388	6151.3375
2220.28132	6133.5375
2223.1969	6145.9375
2226.11061	6124.3375
2229.02246	6103.2375
2231.93245	6092.2375
2234.84058	6080.6375
2237.74686	6081.7375
2240.65128	6074.1375
2243.55385	6057.1375
2246.45456	6070.4375
2249.35343	6061.0375
2252.25044	6041.0375
2255.14561	6039.9375
2258.03893	6033.0375
2260.93041	6019.6375
2263.82004	5997.7375
2266.70783	5989.0375
2269.59378	5970.9375
2272.4779	5948.9375
2275.36017	5959.3375
2278.24061	5937.9375
2281.11922	5932.1375
2283.996	5917.4375
2286.87094	5889.2375
2289.74405	5885.4375
2292.61534	5866.3375
2295.4848	5872.8375
2298.35243	5856.8375
2301.21824	5860.6375
2304.08223	5871.9375
2306.94439	5857.4375
2309.80474	5865.8375
2312.66327	5857.8375
2315.51999	5854.9375
2318.37489	5838.7375
2321.22797	5839.0375
2324.07925	5841.7375
2326.92871	5831.9375
2329.77637	5834.8375
2332.62222	5826.6375
2335.46626	5811.0375
2338.3085	5805.8375
2341.14893	5810.4375
2343.98756	5816.6375
2346.8244	5811.4375
2349.65943	5827.3375
2352.49267	5829.9375
2355.32411	5844.2375
2358.15376	5853.8375
2360.98161	5846.1375
2363.80768	5851.9375
2366.63195	5861.1375
2369.45444	5847.7375
2372.27514	5851.0375
2375.09405	5824.8375
2377.91118	5823.9375
2380.72652	5797.8375
2383.54009	5770.1375
2386.35187	5780.2375
2389.16188	5754.4375
2391.97011	5731.9375
2394.77657	5709.5375
2397.58125	5691.8375
2400.38416	5676.7375
2403.18529	5664.2375
2405.98466	5659.7375
2408.78226	5641.8375
2411.57809	5619.3375
2414.37216	5623.6375
2417.16446	5640.8375
2419.955	5607.5375
2422.74378	5623.5375
2425.5308	5611.9375
2428.31606	5611.9375
2431.09956	5595.3375
2433.88131	5612.1375
2436.6613	5607.4375
2439.43954	5612.7375
2442.21603	5619.1375
2444.99077	5570.6375
2447.76377	5597.3375
2450.53501	5600.1375
2453.30451	5606.0375
2456.07226	5605.8375
2458.83827	5601.6375
2461.60254	5590.2375
2464.36507	5603.6375
2467.12586	5610.6375
2469.88492	5584.9375
2472.64224	5593.8375
2475.39782	5613.7375
2478.15167	5600.8375
2480.90379	5627.9375
2483.65417	5642.6375
2486.40283	5640.6375
2489.14976	5668.9375
2491.89497	5649.4375
2494.63845	5652.7375
2497.3802	5656.8375
2500.12024	5638.9375
2502.85855	5628.8375
2505.59514	5617.4375
2508.33002	5611.3375
2511.06318	5587.7375
2513.79462	5586.3375
2516.52435	5559.9375
2519.25237	5527.8375
2521.97867	5553.4375
2524.70327	5542.4375
2527.42616	5532.6375
2530.14734	5537.6375
2532.86681	5526.6375
2535.58458	5504.3375
2538.30065	5510.3375
2541.01501	5521.7375
2543.72768	5508.1375
2546.43864	5495.8375
2549.14791	5517.2375
2551.85548	5519.7375
2554.56136	5480.3375
2557.26554	5478.3375
2559.96803	5477.8375
2562.66883	5459.8375
2565.36794	5463.3375
2568.06536	5467.4375
2570.7611	5460.0375
2573.45514	5427.2375
2576.14751	5436.5375
2578.83819	5439.4375
2581.52719	5431.9375
2584.21451	5436.6375
2586.90015	5419.3375
2589.58411	5413.9375
2592.2664	5431.3375
2594.94701	5408.2375
2597.62594	5390.8375
2600.30321	5384.8375
2602.9788	5394.6375
2605.65273	5395.9375
2608.32498	5412.5375
2610.99557	5386.2375
2613.66449	5384.6375
2616.33175	5397.9375
2618.99734	5407.7375
2621.66128	5389.1375
2624.32355	5399.2375
2626.98416	5379.6375
2629.64311	5390.7375
2632.30041	5395.1375
2634.95605	5378.4375
2637.61004	5392.7375
2640.26238	5381.8375
2642.91306	5372.1375
2645.56209	5363.7375
2648.20948	5369.2375
2650.85521	5346.3375
2653.4993	5344.0375
2656.14175	5349.2375
2658.78255	5366.4375
2661.42171	5380.9375
2664.05923	5387.4375
2666.6951	5395.8375
2669.32934	5392.2375
2671.96194	5385.4375
2674.59291	5413.5375
2677.22224	5382.7375
2679.84993	5379.6375
2682.476	5372.8375
2685.10043	5382.6375
2687.72324	5359.8375
2690.34441	5359.1375
2692.96396	5376.1375
2695.58188	5382.8375
2698.19818	5367.2375
2700.81285	5366.9375
2703.4259	5353.6375
2706.03733	5353.7375
2708.64714	5385.5375
2711.25533	5383.0375
2713.86191	5385.8375
2716.46687	5405.4375
2719.07021	5394.4375
2721.67194	5396.9375
2724.27206	5381.1375
2726.87057	5401.2375
2729.46747	5396.6375
2732.06276	5401.7375
2734.65644	5396.8375
2737.24852	5397.6375
2739.83899	5386.6375
2742.42786	5377.9375
2745.01513	5365.1375
2747.60079	5356.9375
2750.18486	5358.5375
2752.76733	5339.3375
2755.3482	5339.9375
2757.92747	5347.0375
2760.50515	5328.6375
2763.08123	5337.2375
2765.65573	5337.1375
2768.22863	5348.2375
2770.79994	5318.7375
2773.36967	5319.4375
2775.9378	5334.8375
2778.50435	5335.5375
2781.06932	5331.7375
2783.6327	5340.2375
2786.1945	5351.8375
2788.75471	5330.3375
2791.31335	5322.1375
2793.87041	5324.3375
2796.42589	5302.1375
2798.97979	5321.8375
2801.53212	5305.5375
2804.08288	5296.0375
2806.63206	5276.6375
2809.17967	5274.4375
2811.72571	5277.8375
2814.27018	5288.2375
2816.81308	5274.4375
2819.35442	5256.1375
2821.89419	5240.0375
2824.43239	5248.5375
2826.96904	5247.6375
2829.50412	5251.3375
2832.03763	5242.4375
2834.56959	5241.5375
2837.1	5235.6375
2839.62884	5242.4375
2842.15613	5251.9375
2844.68186	5253.8375
2847.20604	5252.2375
2849.72867	5261.2375
2852.24974	5265.7375
2854.76927	5249.3375
2857.28724	5250.8375
2859.80367	5271.1375
2862.31855	5275.9375
2864.83189	5254.2375
2867.34368	5277.2375
2869.85393	5270.5375
2872.36264	5267.4375
2874.8698	5259.2375
2877.37543	5257.3375
2879.87952	5262.4375
2882.38207	5265.1375
2884.88308	5252.6375
2887.38256	5245.6375
2889.88051	5268.0375
2892.37692	5255.3375
2894.8718	5258.3375
2897.36515	5280.3375
2899.85698	5258.1375
2902.34727	5268.4375
2904.83604	5267.6375
2907.32328	5288.5375
2909.809	5278.3375
2912.29319	5285.0375
2914.77587	5303.0375
2917.25702	5306.9375
2919.73665	5292.5375
2922.21476	5295.1375
2924.69136	5286.0375
2927.16644	5286.6375
2929.64	5265.5375
2932.11205	5233.3375
2934.58258	5226.4375
2937.05161	5235.9375
2939.51912	5224.4375
2941.98513	5211.7375
2944.44962	5205.0375
2946.91261	5165.7375
2949.37409	5186.6375
2951.83407	5191.5375
2954.29254	5188.3375
2956.74951	5174.8375
2959.20498	5187.5375
2961.65895	5190.4375
2964.11142	5172.1375
2966.56239	5143.8375
2969.01186	5145.3375
2971.45984	5137.0375
2973.90632	5125.0375
2976.35131	5120.5375
2978.7948	5098.8375
2981.23681	5091.5375
2983.67732	5072.4375
2986.11635	5059.7375
2988.55388	5058.2375
2990.98993	5062.8375
2993.4245	5042.0375
2995.85758	5023.9375
2998.28917	5028.3375
3000.71928	5013.1375
3003.14791	5004.2375
3005.57506	4989.3375
3008.00073	4998.1375
3010.42493	5001.8375
3012.84764	5000.8375
3015.26888	4972.5375
3017.68865	4977.1375
3020.10694	4986.4375
3022.52376	4944.6375
3024.9391	4951.2375
3027.35298	4951.4375
3029.76539	4913.7375
3032.17632	4921.0375
3034.5858	4916.8375
3036.9938	4912.1375
3039.40034	4912.4375
3041.80542	4913.0375
3044.20903	4923.4375
3046.61118	4901.2375
3049.01187	4902.6375
3051.4111	4894.5375
3053.80888	4881.0375
3056.20519	4883.2375
3058.60005	4847.1375
3060.99345	4860.8375
3063.3854	4827.5375
3065.7759	4828.0375
3068.16494	4834.9375
3070.55254	4822.2375
3072.93868	4809.7375
3075.32338	4804.5375
3077.70662	4794.5375
3080.08842	4797.4375
3082.46878	4793.5375
3084.84769	4788.0375
3087.22515	4791.0375
3089.60118	4796.5375
3091.97576	4808.2375
3094.3489	4805.9375
3096.72061	4762.2375
3099.09087	4772.9375
3101.4597	4774.5375
3103.82709	4776.3375
3106.19305	4769.6375
3108.55757	4775.1375
3110.92066	4746.9375
3113.28232	4768.3375
3115.64255	4750.0375
3118.00134	4732.9375
3120.35871	4734.4375
3122.71466	4728.9375
3125.06917	4723.2375
3127.42226	4724.9375
3129.77393	4718.8375
3132.12417	4710.7375
3134.47299	4726.3375
3136.82039	4728.0375
3139.16636	4714.6375
3141.51092	4713.3375
3143.85406	4720.3375
3146.19579	4707.7375
3148.53609	4718.7375
3150.87499	4739.7375
3153.21246	4754.9375
3155.54853	4762.4375
3157.88318	4756.9375
3160.21642	4750.5375
3162.54826	4756.2375
3164.87868	4769.1375
3167.2077	4754.9375
3169.5353	4748.2375
3171.86151	4762.3375
3174.18631	4759.7375
3176.5097	4763.1375
3178.83169	4767.5375
3181.15228	4741.9375
3183.47147	4754.3375
3185.78926	4759.3375
3188.10565	4738.6375
3190.42065	4752.0375
3192.73424	4760.0375
3195.04645	4751.5375
3197.35725	4752.8375
3199.66667	4752.6375
3201.97469	4764.3375
3204.28132	4755.4375
3206.58656	4771.2375
3208.8904	4755.3375
3211.19287	4770.9375
3213.49394	4775.3375
3215.79363	4784.0375
3218.09193	4793.3375
3220.38884	4782.6375
3222.68438	4784.2375
3224.97853	4809.3375
3227.2713	4805.1375
3229.56269	4776.7375
3231.8527	4796.3375
3234.14133	4772.3375
3236.42858	4780.4375
3238.71446	4774.0375
3240.99896	4763.4375
3243.28209	4763.4375
3245.56384	4745.0375
3247.84423	4746.5375
3250.12324	4750.4375
3252.40088	4754.0375
3254.67715	4739.2375
3256.95205	4731.4375
3259.22558	4740.1375
3261.49775	4730.2375
3263.76855	4726.2375
3266.03799	4710.8375
3268.30606	4726.4375
3270.57277	4693.7375
3272.83812	4720.0375
3275.10211	4700.7375
3277.36474	4699.7375
3279.62601	4706.2375
3281.88593	4707.9375
3284.14448	4719.3375
3286.40168	4698.3375
3288.65753	4718.6375
3290.91202	4699.7375
3293.16516	4692.1375
3295.41695	4676.8375
3297.66738	4669.4375
3299.91647	4630.3375
3302.16421	4629.8375
3304.4106	4616.6375
3306.65564	4597.1375
3308.89933	4556.6375
3311.14169	4512.2375
3313.38269	4488.7375
3315.62236	4461.3375
3317.86068	4425.3375
3320.09766	4401.4375
3322.3333	4363.2375
3324.5676	4350.6375
3326.80056	4283.9375
3329.03219	4266.4375
3331.26248	2.1375
3333.49143	-0.4625
3335.71905	-0.3625
