Data from AgNP_FTO_APTES_UA_100uM_CRN_100uM_R6G_10uM_NaF_0.1M_Addition_RamanShift__24__18-15-30-594.txt Node

Date: Thu Mar 24 18:15:30 GMT 2022
User: TCL
Spectrometer: QEP01345
Trigger mode: 4
Integration Time (sec): 7.000000E0
Scans to average: 10
Electric dark correction enabled: true
Nonlinearity correction enabled: false
Boxcar width: 0
XAxis mode: Raman Shifts
Number of Pixels in Spectrum: 1044
>>>>>Begin Spectral Data<<<<<
46.04893	-1.1875
50.45542	0.4125
54.85868	0.4125
59.25871	-0.7875
63.6555	33.6125
68.04907	35.2125
72.43941	32.8125
76.82654	34.2125
81.21044	39.2125
85.59113	39.3125
89.96862	41.8125
94.34289	38.2125
98.71396	44.4125
103.08183	45.1125
107.4465	43.7125
111.80798	48.5125
116.16626	47.4125
120.52136	49.4125
124.87327	44.4125
129.222	50.5125
133.56755	54.2125
137.90993	56.8125
142.24913	64.1125
146.58517	66.5125
150.91804	73.6125
155.24774	90.4125
159.57429	110.7125
163.89768	136.0125
168.21792	182.4125
172.53501	245.6125
176.84895	342.5125
181.15975	479.4125
185.46741	670.3125
189.77193	923.8125
194.07331	1241.4125
198.37157	1603.3125
202.6667	1990.4125
206.9587	2364.3125
211.24758	2757.9125
215.53334	3151.1125
219.81599	3572.3125
224.09553	4040.8125
228.37195	4573.5125
232.64527	5164.7125
236.91549	5746.6125
241.18261	6326.5125
245.44663	6792.7125
249.70755	7209.9125
253.96539	7530.5125
258.22014	7834.9125
262.4718	8075.2125
266.72039	8252.2125
270.96589	8323.5125
275.20832	8293.6125
279.44768	8223.7125
283.68397	8128.1125
287.91719	8069.3125
292.14735	8026.8125
296.37445	8098.4125
300.59849	8249.1125
304.81948	8454.8125
309.03742	8577.3125
313.25231	8556.2125
317.46415	8344.8125
321.67296	7986.9125
325.87872	7682.2125
330.08145	7493.5125
334.28114	7454.3125
338.47781	7529.4125
342.67145	7667.7125
346.86207	7833.0125
351.04966	8076.5125
355.23424	8330.5125
359.4158	8525.3125
363.59435	8654.5125
367.76989	8670.7125
371.94243	8676.2125
376.11196	8687.3125
380.27849	8658.4125
384.44203	8621.8125
388.60257	8616.8125
392.76012	8659.4125
396.91468	8753.9125
401.06626	8899.8125
405.21485	8993.3125
409.36047	8871.1125
413.50311	8611.8125
417.64277	8324.6125
421.77947	8164.2125
425.9132	8136.5125
430.04396	8147.4125
434.17176	8165.7125
438.2966	8270.5125
442.41849	8395.7125
446.53742	8607.2125
450.6534	8811.2125
454.76644	8965.8125
458.87653	8960.0125
462.98368	8871.0125
467.08789	8810.3125
471.18916	8688.1125
475.2875	8551.9125
479.38291	8453.8125
483.4754	8315.5125
487.56496	8245.1125
491.6516	8181.1125
495.73531	8143.7125
499.81612	8110.2125
503.89401	8170.4125
507.96899	8205.3125
512.04106	8212.9125
516.11023	8249.7125
520.1765	8249.4125
524.23987	8233.3125
528.30034	8183.1125
532.35792	8124.1125
536.41261	8049.7125
540.46441	7925.9125
544.51333	7867.1125
548.55936	7936.9125
552.60252	8100.2125
556.64279	8277.9125
560.6802	8383.5125
564.71473	8437.8125
568.7464	8588.8125
572.7752	8826.0125
576.80114	8933.1125
580.82422	8983.0125
584.84444	9143.1125
588.86181	9294.8125
592.87633	9448.2125
596.888	9561.3125
600.89682	9547.8125
604.9028	9972.6125
608.90594	11484.5125
612.90624	13493.3125
616.90371	12795.4125
620.89834	9785.4125
624.89015	8346.6125
628.87913	8095.7125
632.86528	8285.4125
636.84862	8451.9125
640.82913	8334.3125
644.80683	8004.4125
648.78172	7743.1125
652.75379	7653.3125
656.72306	7800.2125
660.68952	8060.1125
664.65319	7986.2125
668.61405	7680.5125
672.57211	7564.8125
676.52738	7571.0125
680.47986	7561.1125
684.42955	7517.3125
688.37646	7443.9125
692.32058	7457.8125
696.26192	7519.9125
700.20048	7602.4125
704.13626	7673.1125
708.06928	7687.6125
711.99952	7632.1125
715.927	7629.5125
719.85171	7643.8125
723.77365	7669.4125
727.69284	7640.7125
731.60928	7591.1125
735.52295	7575.1125
739.43388	7573.1125
743.34206	7592.1125
747.24749	7586.1125
751.15017	7611.9125
755.05012	7731.9125
758.94733	8026.6125
762.8418	8725.8125
766.73354	9938.3125
770.62254	11108.4125
774.50882	11522.5125
778.39237	10899.0125
782.27321	9685.8125
786.15132	8580.7125
790.02671	7904.9125
793.89938	7562.1125
797.76935	7436.1125
801.6366	7351.6125
805.50115	7295.5125
809.36299	7279.0125
813.22213	7249.8125
817.07857	7241.1125
820.93231	7217.9125
824.78336	7173.7125
828.63172	7198.8125
832.47738	7162.3125
836.32036	7137.9125
840.16066	7114.9125
843.99827	7104.2125
847.8332	7107.7125
851.66546	7075.8125
855.49504	7086.4125
859.32195	7090.3125
863.1462	7052.4125
866.96777	7038.7125
870.78668	7071.7125
874.60293	7065.7125
878.41652	7108.4125
882.22745	7136.8125
886.03573	7172.7125
889.84136	7206.4125
893.64433	7139.4125
897.44466	7129.2125
901.24235	7067.3125
905.0374	7013.3125
908.8298	7012.8125
912.61957	6970.3125
916.40671	6994.2125
920.19121	7040.8125
923.97308	7115.3125
927.75233	7141.4125
931.52895	7124.1125
935.30295	7041.0125
939.07433	6873.4125
942.84309	6722.3125
946.60924	6657.2125
950.37278	6601.6125
954.13371	6586.1125
957.89203	6573.0125
961.64774	6586.5125
965.40086	6559.6125
969.15137	6546.2125
972.89929	6522.0125
976.64461	6498.1125
980.38733	6490.7125
984.12747	6476.1125
987.86502	6477.2125
991.59999	6548.8125
995.33237	6617.3125
999.06217	6700.5125
1002.78939	6838.7125
1006.51404	7003.0125
1010.23611	7151.0125
1013.95561	7243.1125
1017.67255	7216.3125
1021.38692	7133.0125
1025.09872	6996.6125
1028.80796	6866.1125
1032.51465	6818.2125
1036.21877	6855.4125
1039.92035	6887.7125
1043.61937	6908.3125
1047.31584	6957.9125
1051.00976	6981.8125
1054.70114	7008.1125
1058.38998	7006.0125
1062.07627	7052.0125
1065.76003	7126.6125
1069.44126	7212.3125
1073.11995	7324.0125
1076.79611	7442.1125
1080.46974	7533.8125
1084.14085	7662.0125
1087.80943	7773.5125
1091.47549	7852.6125
1095.13903	7795.0125
1098.80005	7595.9125
1102.45857	7389.7125
1106.11456	7287.0125
1109.76805	7262.3125
1113.41903	7347.4125
1117.06751	7545.9125
1120.71348	7800.9125
1124.35696	8045.6125
1127.99793	8272.8125
1131.63641	8300.6125
1135.2724	8086.9125
1138.90589	7871.0125
1142.5369	7704.5125
1146.16542	7602.2125
1149.79145	7545.7125
1153.415	7539.0125
1157.03607	7587.9125
1160.65467	7746.8125
1164.27079	8064.1125
1167.88443	8492.7125
1171.49561	9172.1125
1175.10432	10143.0125
1178.71056	11382.1125
1182.31434	12439.7125
1185.91565	12778.5125
1189.51451	12520.3125
1193.11091	11909.1125
1196.70485	11158.3125
1200.29634	10484.7125
1203.88538	9968.1125
1207.47197	9431.1125
1211.05612	8952.2125
1214.63782	8644.8125
1218.21708	8484.6125
1221.79391	8456.2125
1225.36829	8410.1125
1228.94024	8346.7125
1232.50976	8248.7125
1236.07685	8144.3125
1239.6415	8075.9125
1243.20374	8101.4125
1246.76355	8100.3125
1250.32093	8181.2125
1253.8759	8299.6125
1257.42845	8519.0125
1260.97859	8787.8125
1264.52631	9112.2125
1268.07163	9414.3125
1271.61453	9700.1125
1275.15503	9918.2125
1278.69312	10114.9125
1282.22882	10307.6125
1285.76211	10650.0125
1289.29301	11039.7125
1292.82151	11474.1125
1296.34761	11997.7125
1299.87133	12709.0125
1303.39266	13734.2125
1306.9116	14967.6125
1310.42815	16232.2125
1313.94233	16825.8125
1317.45412	16446.5125
1320.96354	15583.0125
1324.47058	14704.3125
1327.97525	13915.4125
1331.47754	13338.8125
1334.97747	13006.8125
1338.47502	12966.8125
1341.97022	13078.3125
1345.46305	13412.3125
1348.95352	13919.9125
1352.44163	14650.3125
1355.92738	15738.5125
1359.41078	17417.8125
1362.89183	19019.2125
1366.37053	18741.0125
1369.84688	16310.7125
1373.32088	13699.6125
1376.79254	12046.7125
1380.26186	11187.9125
1383.72883	10760.4125
1387.19347	10430.1125
1390.65578	10093.8125
1394.11575	9871.9125
1397.57339	9768.4125
1401.0287	9790.5125
1404.48168	9805.6125
1407.93234	9772.8125
1411.38068	9660.1125
1414.82669	9508.2125
1418.27039	9273.4125
1421.71177	9002.0125
1425.15083	8745.8125
1428.58758	8596.1125
1432.02203	8611.9125
1435.45416	8763.8125
1438.88399	8896.6125
1442.31151	8988.7125
1445.73673	9082.4125
1449.15965	9181.8125
1452.58027	9266.6125
1455.9986	9251.3125
1459.41463	9312.1125
1462.82837	9481.8125
1466.23982	9789.8125
1469.64898	10063.9125
1473.05586	10315.5125
1476.46045	10494.7125
1479.86276	10654.4125
1483.26279	10789.9125
1486.66054	10990.4125
1490.05602	11314.8125
1493.44922	11838.9125
1496.84016	12556.2125
1500.22882	13640.7125
1503.61521	15127.6125
1506.99934	16691.1125
1510.38121	17696.8125
1513.76081	17587.0125
1517.13816	16240.5125
1520.51324	14451.9125
1523.88607	12928.5125
1527.25665	11951.4125
1530.62498	11455.1125
1533.99105	11101.2125
1537.35488	10802.8125
1540.71647	10534.0125
1544.07581	10220.4125
1547.4329	9970.4125
1550.78776	9788.8125
1554.14038	9700.2125
1557.49077	9715.4125
1560.83892	9848.5125
1564.18484	10116.4125
1567.52853	10486.4125
1570.86999	10798.9125
1574.20922	11001.2125
1577.54624	10975.2125
1580.88103	10510.7125
1584.2136	9911.5125
1587.54395	9636.9125
1590.87208	9780.4125
1594.19801	10274.3125
1597.52172	10936.1125
1600.84321	11199.5125
1604.16251	10800.1125
1607.47959	10081.6125
1610.79447	9364.4125
1614.10715	8693.5125
1617.41763	8089.7125
1620.7259	7669.9125
1624.03199	7464.0125
1627.33587	7416.9125
1630.63757	7575.3125
1633.93707	8007.8125
1637.23439	8769.8125
1640.52951	10033.0125
1643.82246	11733.9125
1647.11321	13486.3125
1650.40179	14431.6125
1653.68819	13788.7125
1656.97241	11934.3125
1660.25446	9859.8125
1663.53433	8332.0125
1666.81203	7373.2125
1670.08756	6800.8125
1673.36092	6461.0125
1676.63211	6259.6125
1679.90115	6072.9125
1683.16801	5976.8125
1686.43272	5863.0125
1689.69527	5781.2125
1692.95567	5739.7125
1696.2139	5699.2125
1699.46999	5654.7125
1702.72392	5627.0125
1705.97571	5595.3125
1709.22535	5557.7125
1712.47284	5553.4125
1715.71819	5537.0125
1718.96139	5488.5125
1722.20246	5469.6125
1725.44139	5432.8125
1728.67818	5392.9125
1731.91284	5347.8125
1735.14537	5299.5125
1738.37576	5263.2125
1741.60403	5246.5125
1744.83017	5214.5125
1748.05418	5191.9125
1751.27607	5170.1125
1754.49584	5170.0125
1757.71349	5133.8125
1760.92903	5134.5125
1764.14244	5137.9125
1767.35375	5123.1125
1770.56294	5090.2125
1773.77002	5087.2125
1776.97499	5062.3125
1780.17785	5046.7125
1783.37861	5037.5125
1786.57727	5008.3125
1789.77382	4999.5125
1792.96828	4995.5125
1796.16064	4971.6125
1799.3509	4971.4125
1802.53907	4947.0125
1805.72514	4917.0125
1808.90913	4920.7125
1812.09102	4899.9125
1815.27083	4886.5125
1818.44856	4888.4125
1821.6242	4854.3125
1824.79776	4853.1125
1827.96924	4826.9125
1831.13864	4817.0125
1834.30597	4835.9125
1837.47122	4817.3125
1840.6344	4798.9125
1843.7955	4800.3125
1846.95454	4792.6125
1850.11151	4778.5125
1853.26642	4767.3125
1856.41926	4751.5125
1859.57004	4767.7125
1862.71876	4741.0125
1865.86542	4738.8125
1869.01003	4748.2125
1872.15258	4723.5125
1875.29308	4739.2125
1878.43152	4722.3125
1881.56792	4717.4125
1884.70227	4724.3125
1887.83457	4694.3125
1890.96482	4683.9125
1894.09304	4677.5125
1897.21921	4689.4125
1900.34335	4690.2125
1903.46544	4665.4125
1906.58551	4663.0125
1909.70353	4653.4125
1912.81953	4655.0125
1915.93349	4631.3125
1919.04543	4613.5125
1922.15534	4608.1125
1925.26322	4594.4125
1928.36908	4577.5125
1931.47292	4579.1125
1934.57473	4538.9125
1937.67453	4550.7125
1940.77232	4528.1125
1943.86808	4503.0125
1946.96184	4500.6125
1950.05358	4475.6125
1953.14331	4455.6125
1956.23103	4448.6125
1959.31675	4422.0125
1962.40046	4426.7125
1965.48217	4414.9125
1968.56188	4391.4125
1971.63959	4382.0125
1974.7153	4396.6125
1977.78901	4364.6125
1980.86073	4353.4125
1983.93046	4319.8125
1986.99819	4301.9125
1990.06394	4284.2125
1993.1277	4277.4125
1996.18947	4250.7125
1999.24925	4236.5125
2002.30706	4220.8125
2005.36288	4212.7125
2008.41672	4174.7125
2011.46859	4177.7125
2014.51848	4174.0125
2017.56639	4153.4125
2020.61233	4136.6125
2023.6563	4133.1125
2026.6983	4123.8125
2029.73833	4103.5125
2032.7764	4103.7125
2035.8125	4088.2125
2038.84664	4057.1125
2041.87881	4054.9125
2044.90903	4043.3125
2047.93729	4044.2125
2050.96359	4047.3125
2053.98794	4022.6125
2057.01034	4018.3125
2060.03078	4008.4125
2063.04927	3989.8125
2066.06582	3981.4125
2069.08042	3984.7125
2072.09307	3992.7125
2075.10378	3970.8125
2078.11255	3992.3125
2081.11938	3981.8125
2084.12426	3981.6125
2087.12722	3976.7125
2090.12824	3978.9125
2093.12732	3973.8125
2096.12447	3960.3125
2099.11969	3974.0125
2102.11299	3974.1125
2105.10435	3964.1125
2108.09379	3973.4125
2111.08131	3976.1125
2114.0669	3974.1125
2117.05057	3991.2125
2120.03233	3975.0125
2123.01216	3982.5125
2125.99008	3986.6125
2128.96609	3973.9125
2131.94018	3968.0125
2134.91236	3976.7125
2137.88263	3963.4125
2140.851	3960.5125
2143.81746	3980.0125
2146.78201	3961.6125
2149.74466	3959.4125
2152.7054	3963.5125
2155.66425	3946.7125
2158.6212	3946.9125
2161.57625	3939.5125
2164.52941	3933.3125
2167.48067	3930.1125
2170.43004	3921.1125
2173.37752	3947.7125
2176.32311	3921.4125
2179.26681	3915.1125
2182.20863	3912.1125
2185.14856	3922.9125
2188.08661	3927.3125
2191.02278	3916.3125
2193.95707	3904.1125
2196.88948	3892.2125
2199.82001	3907.4125
2202.74867	3879.1125
2205.67545	3897.6125
2208.60037	3878.1125
2211.52341	3868.5125
2214.44458	3855.5125
2217.36388	3856.8125
2220.28132	3832.0125
2223.1969	3824.3125
2226.11061	3833.1125
2229.02246	3807.1125
2231.93245	3804.4125
2234.84058	3805.9125
2237.74686	3796.2125
2240.65128	3792.9125
2243.55385	3790.7125
2246.45456	3773.1125
2249.35343	3774.2125
2252.25044	3780.2125
2255.14561	3767.5125
2258.03893	3762.0125
2260.93041	3771.7125
2263.82004	3743.9125
2266.70783	3749.7125
2269.59378	3731.9125
2272.4779	3717.3125
2275.36017	3706.5125
2278.24061	3706.2125
2281.11922	3679.2125
2283.996	3675.8125
2286.87094	3660.5125
2289.74405	3658.2125
2292.61534	3654.4125
2295.4848	3641.6125
2298.35243	3644.2125
2301.21824	3646.1125
2304.08223	3640.7125
2306.94439	3634.8125
2309.80474	3635.8125
2312.66327	3624.1125
2315.51999	3613.4125
2318.37489	3605.0125
2321.22797	3610.1125
2324.07925	3606.9125
2326.92871	3614.9125
2329.77637	3603.4125
2332.62222	3604.8125
2335.46626	3576.1125
2338.3085	3570.5125
2341.14893	3580.9125
2343.98756	3583.2125
2346.8244	3586.3125
2349.65943	3600.4125
2352.49267	3580.9125
2355.32411	3592.3125
2358.15376	3590.8125
2360.98161	3578.6125
2363.80768	3597.8125
2366.63195	3602.2125
2369.45444	3611.2125
2372.27514	3594.4125
2375.09405	3581.4125
2377.91118	3586.4125
2380.72652	3574.2125
2383.54009	3555.8125
2386.35187	3557.4125
2389.16188	3524.8125
2391.97011	3514.3125
2394.77657	3506.1125
2397.58125	3483.2125
2400.38416	3479.4125
2403.18529	3473.6125
2405.98466	3473.1125
2408.78226	3469.0125
2411.57809	3433.6125
2414.37216	3463.6125
2417.16446	3444.6125
2419.955	3430.2125
2422.74378	3437.2125
2425.5308	3434.6125
2428.31606	3419.8125
2431.09956	3417.1125
2433.88131	3410.5125
2436.6613	3423.7125
2439.43954	3424.8125
2442.21603	3437.6125
2444.99077	3420.5125
2447.76377	3406.6125
2450.53501	3424.9125
2453.30451	3418.7125
2456.07226	3420.0125
2458.83827	3400.9125
2461.60254	3410.7125
2464.36507	3409.7125
2467.12586	3413.7125
2469.88492	3405.2125
2472.64224	3398.6125
2475.39782	3402.8125
2478.15167	3431.6125
2480.90379	3432.3125
2483.65417	3435.6125
2486.40283	3434.6125
2489.14976	3434.0125
2491.89497	3424.5125
2494.63845	3445.0125
2497.3802	3419.1125
2500.12024	3430.4125
2502.85855	3407.5125
2505.59514	3401.0125
2508.33002	3394.6125
2511.06318	3381.9125
2513.79462	3361.4125
2516.52435	3350.4125
2519.25237	3357.1125
2521.97867	3346.2125
2524.70327	3330.9125
2527.42616	3343.9125
2530.14734	3330.5125
2532.86681	3324.7125
2535.58458	3320.4125
2538.30065	3318.2125
2541.01501	3315.8125
2543.72768	3316.2125
2546.43864	3317.9125
2549.14791	3299.0125
2551.85548	3305.4125
2554.56136	3296.2125
2557.26554	3279.0125
2559.96803	3283.8125
2562.66883	3294.7125
2565.36794	3284.0125
2568.06536	3274.9125
2570.7611	3265.5125
2573.45514	3252.9125
2576.14751	3259.3125
2578.83819	3248.9125
2581.52719	3247.5125
2584.21451	3239.1125
2586.90015	3254.2125
2589.58411	3228.1125
2592.2664	3239.9125
2594.94701	3229.0125
2597.62594	3213.9125
2600.30321	3206.1125
2602.9788	3211.4125
2605.65273	3219.4125
2608.32498	3213.4125
2610.99557	3201.1125
2613.66449	3197.3125
2616.33175	3210.0125
2618.99734	3202.1125
2621.66128	3197.0125
2624.32355	3199.9125
2626.98416	3192.7125
2629.64311	3190.8125
2632.30041	3180.0125
2634.95605	3178.0125
2637.61004	3184.8125
2640.26238	3177.2125
2642.91306	3169.0125
2645.56209	3172.3125
2648.20948	3161.7125
2650.85521	3178.0125
2653.4993	3156.3125
2656.14175	3179.6125
2658.78255	3175.4125
2661.42171	3178.3125
2664.05923	3174.8125
2666.6951	3174.0125
2669.32934	3182.8125
2671.96194	3190.4125
2674.59291	3183.1125
2677.22224	3180.2125
2679.84993	3177.1125
2682.476	3167.8125
2685.10043	3166.2125
2687.72324	3164.2125
2690.34441	3171.3125
2692.96396	3159.4125
2695.58188	3167.5125
2698.19818	3166.9125
2700.81285	3160.1125
2703.4259	3158.9125
2706.03733	3150.0125
2708.64714	3159.4125
2711.25533	3163.3125
2713.86191	3157.3125
2716.46687	3186.6125
2719.07021	3181.3125
2721.67194	3175.5125
2724.27206	3168.7125
2726.87057	3169.1125
2729.46747	3170.4125
2732.06276	3185.9125
2734.65644	3173.2125
2737.24852	3172.6125
2739.83899	3157.8125
2742.42786	3151.3125
2745.01513	3142.5125
2747.60079	3143.7125
2750.18486	3140.3125
2752.76733	3132.3125
2755.3482	3132.3125
2757.92747	3126.7125
2760.50515	3118.6125
2763.08123	3120.2125
2765.65573	3110.7125
2768.22863	3117.8125
2770.79994	3118.8125
2773.36967	3119.5125
2775.9378	3112.7125
2778.50435	3110.3125
2781.06932	3113.9125
2783.6327	3112.2125
2786.1945	3112.4125
2788.75471	3113.9125
2791.31335	3106.3125
2793.87041	3100.4125
2796.42589	3098.0125
2798.97979	3100.3125
2801.53212	3090.5125
2804.08288	3081.5125
2806.63206	3081.4125
2809.17967	3079.1125
2811.72571	3073.6125
2814.27018	3091.2125
2816.81308	3086.9125
2819.35442	3055.5125
2821.89419	3070.7125
2824.43239	3082.3125
2826.96904	3065.8125
2829.50412	3067.5125
2832.03763	3046.8125
2834.56959	3057.5125
2837.1	3049.3125
2839.62884	3041.0125
2842.15613	3056.7125
2844.68186	3059.6125
2847.20604	3055.6125
2849.72867	3063.3125
2852.24974	3067.1125
2854.76927	3062.3125
2857.28724	3051.2125
2859.80367	3060.3125
2862.31855	3065.3125
2864.83189	3070.1125
2867.34368	3064.5125
2869.85393	3056.4125
2872.36264	3060.1125
2874.8698	3063.3125
2877.37543	3058.8125
2879.87952	3069.0125
2882.38207	3049.6125
2884.88308	3048.1125
2887.38256	3042.5125
2889.88051	3051.8125
2892.37692	3046.3125
2894.8718	3059.6125
2897.36515	3051.6125
2899.85698	3055.1125
2902.34727	3054.2125
2904.83604	3053.9125
2907.32328	3064.6125
2909.809	3056.3125
2912.29319	3076.2125
2914.77587	3058.5125
2917.25702	3059.9125
2919.73665	3058.0125
2922.21476	3057.8125
2924.69136	3053.4125
2927.16644	3055.4125
2929.64	3071.1125
2932.11205	3047.9125
2934.58258	3031.8125
2937.05161	3029.7125
2939.51912	3023.6125
2941.98513	3034.6125
2944.44962	3021.6125
2946.91261	2996.4125
2949.37409	2992.9125
2951.83407	3019.1125
2954.29254	3001.4125
2956.74951	3011.0125
2959.20498	2994.0125
2961.65895	2981.4125
2964.11142	2993.8125
2966.56239	2977.6125
2969.01186	2980.9125
2971.45984	2967.5125
2973.90632	2970.0125
2976.35131	2957.6125
2978.7948	2965.9125
2981.23681	2943.6125
2983.67732	2939.3125
2986.11635	2930.5125
2988.55388	2922.9125
2990.98993	2933.5125
2993.4245	2922.3125
2995.85758	2904.5125
2998.28917	2909.4125
3000.71928	2907.0125
3003.14791	2902.7125
3005.57506	2896.0125
3008.00073	2908.4125
3010.42493	2899.5125
3012.84764	2888.7125
3015.26888	2874.7125
3017.68865	2882.8125
3020.10694	2880.5125
3022.52376	2884.5125
3024.9391	2872.8125
3027.35298	2856.5125
3029.76539	2864.1125
3032.17632	2845.0125
3034.5858	2850.6125
3036.9938	2858.5125
3039.40034	2831.9125
3041.80542	2846.9125
3044.20903	2835.1125
3046.61118	2849.3125
3049.01187	2838.9125
3051.4111	2827.1125
3053.80888	2825.1125
3056.20519	2823.1125
3058.60005	2808.5125
3060.99345	2814.0125
3063.3854	2794.0125
3065.7759	2796.3125
3068.16494	2799.2125
3070.55254	2811.3125
3072.93868	2800.3125
3075.32338	2781.0125
3077.70662	2781.0125
3080.08842	2787.1125
3082.46878	2768.8125
3084.84769	2764.9125
3087.22515	2780.4125
3089.60118	2777.2125
3091.97576	2787.1125
3094.3489	2785.4125
3096.72061	2780.4125
3099.09087	2783.3125
3101.4597	2783.5125
3103.82709	2783.6125
3106.19305	2787.6125
3108.55757	2788.1125
3110.92066	2775.1125
3113.28232	2772.0125
3115.64255	2770.8125
3118.00134	2772.7125
3120.35871	2766.8125
3122.71466	2765.5125
3125.06917	2764.9125
3127.42226	2761.7125
3129.77393	2781.0125
3132.12417	2771.0125
3134.47299	2761.0125
3136.82039	2778.9125
3139.16636	2773.2125
3141.51092	2778.4125
3143.85406	2778.8125
3146.19579	2778.6125
3148.53609	2790.3125
3150.87499	2794.2125
3153.21246	2816.8125
3155.54853	2804.4125
3157.88318	2813.6125
3160.21642	2822.3125
3162.54826	2817.3125
3164.87868	2813.4125
3167.2077	2814.7125
3169.5353	2812.5125
3171.86151	2827.9125
3174.18631	2817.2125
3176.5097	2823.0125
3178.83169	2818.9125
3181.15228	2828.0125
3183.47147	2825.0125
3185.78926	2829.9125
3188.10565	2823.1125
3190.42065	2841.4125
3192.73424	2835.3125
3195.04645	2825.5125
3197.35725	2831.3125
3199.66667	2831.3125
3201.97469	2834.3125
3204.28132	2832.2125
3206.58656	2842.3125
3208.8904	2849.6125
3211.19287	2843.7125
3213.49394	2864.5125
3215.79363	2858.4125
3218.09193	2869.0125
3220.38884	2872.5125
3222.68438	2867.6125
3224.97853	2871.4125
3227.2713	2874.6125
3229.56269	2859.1125
3231.8527	2867.5125
3234.14133	2860.6125
3236.42858	2862.2125
3238.71446	2855.8125
3240.99896	2831.2125
3243.28209	2840.4125
3245.56384	2833.6125
3247.84423	2844.5125
3250.12324	2829.1125
3252.40088	2835.6125
3254.67715	2820.6125
3256.95205	2832.7125
3259.22558	2843.5125
3261.49775	2825.1125
3263.76855	2826.6125
3266.03799	2825.6125
3268.30606	2823.3125
3270.57277	2806.9125
3272.83812	2798.1125
3275.10211	2801.4125
3277.36474	2802.9125
3279.62601	2800.6125
3281.88593	2809.5125
3284.14448	2802.7125
3286.40168	2812.2125
3288.65753	2806.1125
3290.91202	2803.1125
3293.16516	2807.2125
3295.41695	2788.1125
3297.66738	2784.4125
3299.91647	2771.0125
3302.16421	2749.0125
3304.4106	2738.7125
3306.65564	2745.6125
3308.89933	2720.3125
3311.14169	2698.3125
3313.38269	2682.8125
3315.62236	2666.8125
3317.86068	2643.5125
3320.09766	2620.5125
3322.3333	2599.3125
3324.5676	2594.2125
3326.80056	2547.0125
3329.03219	2539.8125
3331.26248	0.6125
3333.49143	-0.2875
3335.71905	0.0125
