Data from AgNP_FTO_APTES_UA_100uM_CRN_0uM_R6G_10uM_NaF_0.1M_Addition_RamanShift__14__11-01-30-098.txt Node

Date: Thu Mar 24 11:01:30 GMT 2022
User: TCL
Spectrometer: QEP01345
Trigger mode: 4
Integration Time (sec): 7.000000E0
Scans to average: 10
Electric dark correction enabled: true
Nonlinearity correction enabled: false
Boxcar width: 0
XAxis mode: Raman Shifts
Number of Pixels in Spectrum: 1044
>>>>>Begin Spectral Data<<<<<
46.04893	-1.4875
50.45542	0.2125
54.85868	-1.2875
59.25871	0.5125
63.6555	24.9125
68.04907	31.2125
72.43941	29.1125
76.82654	30.4125
81.21044	35.4125
85.59113	36.9125
89.96862	38.4125
94.34289	36.4125
98.71396	41.4125
103.08183	39.0125
107.4465	37.0125
111.80798	40.6125
116.16626	41.8125
120.52136	41.7125
124.87327	40.8125
129.222	45.5125
133.56755	48.2125
137.90993	51.1125
142.24913	56.4125
146.58517	58.7125
150.91804	69.9125
155.24774	84.5125
159.57429	101.7125
163.89768	126.2125
168.21792	166.8125
172.53501	229.8125
176.84895	316.5125
181.15975	445.1125
185.46741	624.9125
189.77193	842.8125
194.07331	1135.4125
198.37157	1467.8125
202.6667	1800.2125
206.9587	2152.3125
211.24758	2511.9125
215.53334	2864.4125
219.81599	3289.0125
224.09553	3767.1125
228.37195	4289.8125
232.64527	4849.5125
236.91549	5411.9125
241.18261	5912.5125
245.44663	6334.5125
249.70755	6630.0125
253.96539	6855.3125
258.22014	7024.1125
262.4718	7202.7125
266.72039	7329.6125
270.96589	7344.3125
275.20832	7278.4125
279.44768	7142.3125
283.68397	6951.3125
287.91719	6851.6125
292.14735	6777.2125
296.37445	6847.2125
300.59849	7033.2125
304.81948	7294.4125
309.03742	7559.2125
313.25231	7677.6125
317.46415	7613.8125
321.67296	7401.7125
325.87872	7194.6125
330.08145	7082.9125
334.28114	7069.2125
338.47781	7164.5125
342.67145	7271.9125
346.86207	7443.8125
351.04966	7663.9125
355.23424	7928.5125
359.4158	8093.2125
363.59435	8178.4125
367.76989	8158.9125
371.94243	8117.2125
376.11196	8086.1125
380.27849	8130.8125
384.44203	8110.6125
388.60257	8108.5125
392.76012	8056.8125
396.91468	8058.8125
401.06626	8176.1125
405.21485	8300.0125
409.36047	8173.2125
413.50311	7924.9125
417.64277	7816.7125
421.77947	7762.9125
425.9132	7564.5125
430.04396	7530.7125
434.17176	7641.1125
438.2966	7872.2125
442.41849	8316.3125
446.53742	8958.0125
450.6534	9525.8125
454.76644	9781.0125
458.87653	9611.6125
462.98368	9159.2125
467.08789	8711.3125
471.18916	8323.5125
475.2875	7952.9125
479.38291	7605.6125
483.4754	7338.9125
487.56496	7155.8125
491.6516	7062.7125
495.73531	6986.9125
499.81612	6984.7125
503.89401	7047.1125
507.96899	7083.1125
512.04106	7056.9125
516.11023	7084.5125
520.1765	7139.0125
524.23987	7236.2125
528.30034	7363.2125
532.35792	7422.8125
536.41261	7240.9125
540.46441	6947.1125
544.51333	6746.9125
548.55936	6764.0125
552.60252	6995.0125
556.64279	7417.5125
560.6802	7764.4125
564.71473	7834.5125
568.7464	7927.2125
572.7752	8197.5125
576.80114	8204.8125
580.82422	8215.5125
584.84444	8670.7125
588.86181	9856.6125
592.87633	11583.0125
596.888	12653.9125
600.89682	11725.0125
604.9028	10627.9125
608.90594	11506.2125
612.90624	13480.0125
616.90371	12780.0125
620.89834	9300.7125
624.89015	7490.6125
628.87913	7129.9125
632.86528	7203.6125
636.84862	7214.2125
640.82913	6964.0125
644.80683	6559.9125
648.78172	6327.0125
652.75379	6344.6125
656.72306	6619.6125
660.68952	6949.2125
664.65319	6859.7125
668.61405	6475.5125
672.57211	6355.6125
676.52738	6429.7125
680.47986	6390.8125
684.42955	6245.7125
688.37646	6175.7125
692.32058	6237.8125
696.26192	6409.9125
700.20048	6575.0125
704.13626	6693.2125
708.06928	6623.1125
711.99952	6572.2125
715.927	6617.5125
719.85171	6715.1125
723.77365	6721.8125
727.69284	6562.1125
731.60928	6500.5125
735.52295	6555.1125
739.43388	6633.7125
743.34206	6706.4125
747.24749	6761.0125
751.15017	6792.3125
755.05012	6879.5125
758.94733	7180.1125
762.8418	7938.6125
766.73354	9301.3125
770.62254	10618.2125
774.50882	11139.0125
778.39237	10605.3125
782.27321	9358.0125
786.15132	8072.7125
790.02671	7204.7125
793.89938	6789.2125
797.76935	6596.1125
801.6366	6488.9125
805.50115	6425.1125
809.36299	6374.2125
813.22213	6315.0125
817.07857	6265.9125
820.93231	6226.8125
824.78336	6225.6125
828.63172	6253.6125
832.47738	6255.3125
836.32036	6265.4125
840.16066	6297.7125
843.99827	6285.4125
847.8332	6264.3125
851.66546	6234.1125
855.49504	6247.3125
859.32195	6228.5125
863.1462	6187.5125
866.96777	6143.2125
870.78668	6140.5125
874.60293	6147.4125
878.41652	6196.3125
882.22745	6276.4125
886.03573	6323.4125
889.84136	6322.6125
893.64433	6282.3125
897.44466	6258.4125
901.24235	6229.2125
905.0374	6170.1125
908.8298	6108.3125
912.61957	6081.0125
916.40671	6107.6125
920.19121	6202.5125
923.97308	6326.4125
927.75233	6460.3125
931.52895	6481.7125
935.30295	6339.8125
939.07433	6101.3125
942.84309	5925.4125
946.60924	5841.1125
950.37278	5802.3125
954.13371	5783.4125
957.89203	5775.3125
961.64774	5768.2125
965.40086	5743.4125
969.15137	5741.5125
972.89929	5731.9125
976.64461	5713.9125
980.38733	5726.4125
984.12747	5748.1125
987.86502	5813.0125
991.59999	5891.0125
995.33237	6037.4125
999.06217	6327.8125
1002.78939	6683.0125
1006.51404	6932.6125
1010.23611	7175.8125
1013.95561	7311.7125
1017.67255	7326.1125
1021.38692	7077.3125
1025.09872	6710.9125
1028.80796	6471.0125
1032.51465	6442.8125
1036.21877	6528.7125
1039.92035	6564.8125
1043.61937	6569.8125
1047.31584	6539.3125
1051.00976	6478.9125
1054.70114	6440.7125
1058.38998	6399.6125
1062.07627	6403.9125
1065.76003	6419.6125
1069.44126	6478.9125
1073.11995	6620.7125
1076.79611	6802.8125
1080.46974	6977.6125
1084.14085	7221.1125
1087.80943	7455.2125
1091.47549	7562.7125
1095.13903	7435.2125
1098.80005	7147.7125
1102.45857	6874.3125
1106.11456	6772.0125
1109.76805	6843.7125
1113.41903	6990.6125
1117.06751	7194.4125
1120.71348	7493.9125
1124.35696	7834.8125
1127.99793	8074.6125
1131.63641	8035.7125
1135.2724	7786.3125
1138.90589	7535.5125
1142.5369	7422.4125
1146.16542	7464.0125
1149.79145	7528.4125
1153.415	7596.6125
1157.03607	7650.3125
1160.65467	7825.8125
1164.27079	8223.4125
1167.88443	8910.8125
1171.49561	10010.3125
1175.10432	11649.6125
1178.71056	13826.2125
1182.31434	15735.3125
1185.91565	16245.2125
1189.51451	15370.8125
1193.11091	13986.1125
1196.70485	12653.8125
1200.29634	11560.6125
1203.88538	10635.8125
1207.47197	9876.1125
1211.05612	9351.0125
1214.63782	9159.4125
1218.21708	9313.5125
1221.79391	9713.2125
1225.36829	10163.1125
1228.94024	10181.9125
1232.50976	9721.2125
1236.07685	9130.7125
1239.6415	8797.7125
1243.20374	8676.8125
1246.76355	8633.7125
1250.32093	8694.7125
1253.8759	8912.4125
1257.42845	9304.2125
1260.97859	9793.2125
1264.52631	10334.7125
1268.07163	10828.6125
1271.61453	11261.9125
1275.15503	11584.7125
1278.69312	11968.2125
1282.22882	12428.7125
1285.76211	13244.0125
1289.29301	14305.0125
1292.82151	15441.8125
1296.34761	16671.9125
1299.87133	18068.7125
1303.39266	19783.5125
1306.9116	21907.9125
1310.42815	24160.8125
1313.94233	25510.8125
1317.45412	24817.0125
1320.96354	22655.4125
1324.47058	20206.3125
1327.97525	18114.9125
1331.47754	16700.4125
1334.97747	16044.0125
1338.47502	15764.0125
1341.97022	15559.7125
1345.46305	15507.8125
1348.95352	16105.1125
1352.44163	17604.7125
1355.92738	20218.3125
1359.41078	23645.5125
1362.89183	26526.8125
1366.37053	26361.9125
1369.84688	22643.1125
1373.32088	18210.8125
1376.79254	15610.8125
1380.26186	14591.1125
1383.72883	14103.1125
1387.19347	13442.4125
1390.65578	12818.8125
1394.11575	12603.1125
1397.57339	12798.5125
1401.0287	13053.6125
1404.48168	13200.7125
1407.93234	13069.9125
1411.38068	12815.2125
1414.82669	12527.4125
1418.27039	12139.2125
1421.71177	11714.2125
1425.15083	11316.3125
1428.58758	11241.0125
1432.02203	11563.0125
1435.45416	12011.3125
1438.88399	12239.6125
1442.31151	12268.6125
1445.73673	12244.4125
1449.15965	12184.6125
1452.58027	11950.3125
1455.9986	11606.4125
1459.41463	11418.4125
1462.82837	11656.3125
1466.23982	12169.8125
1469.64898	12702.5125
1473.05586	13123.5125
1476.46045	13409.1125
1479.86276	13633.9125
1483.26279	13765.2125
1486.66054	13983.0125
1490.05602	14339.0125
1493.44922	14761.6125
1496.84016	15106.3125
1500.22882	15524.5125
1503.61521	16343.1125
1506.99934	17505.1125
1510.38121	18546.2125
1513.76081	18796.4125
1517.13816	17793.5125
1520.51324	16059.7125
1523.88607	14638.2125
1527.25665	13934.5125
1530.62498	13747.0125
1533.99105	13613.8125
1537.35488	13349.7125
1540.71647	12916.9125
1544.07581	12416.0125
1547.4329	11885.8125
1550.78776	11362.4125
1554.14038	10927.3125
1557.49077	10644.7125
1560.83892	10549.7125
1564.18484	10726.1125
1567.52853	11145.6125
1570.86999	11602.6125
1574.20922	11972.8125
1577.54624	12066.2125
1580.88103	11659.7125
1584.2136	11112.1125
1587.54395	11186.2125
1590.87208	12042.9125
1594.19801	13654.3125
1597.52172	15615.7125
1600.84321	16679.6125
1604.16251	16054.3125
1607.47959	14040.4125
1610.79447	11694.4125
1614.10715	9812.6125
1617.41763	8655.6125
1620.7259	8049.4125
1624.03199	7804.9125
1627.33587	7910.1125
1630.63757	8294.6125
1633.93707	9163.8125
1637.23439	10787.6125
1640.52951	13468.0125
1643.82246	17133.8125
1647.11321	20426.0125
1650.40179	21244.6125
1653.68819	18836.1125
1656.97241	14795.4125
1660.25446	11177.2125
1663.53433	8865.1125
1666.81203	7557.2125
1670.08756	6849.8125
1673.36092	6417.9125
1676.63211	6137.0125
1679.90115	5983.1125
1683.16801	5852.9125
1686.43272	5771.3125
1689.69527	5702.6125
1692.95567	5641.4125
1696.2139	5602.3125
1699.46999	5569.2125
1702.72392	5536.2125
1705.97571	5517.2125
1709.22535	5522.8125
1712.47284	5513.7125
1715.71819	5504.2125
1718.96139	5479.5125
1722.20246	5463.4125
1725.44139	5409.2125
1728.67818	5364.1125
1731.91284	5304.6125
1735.14537	5272.9125
1738.37576	5242.1125
1741.60403	5214.9125
1744.83017	5171.8125
1748.05418	5175.4125
1751.27607	5139.2125
1754.49584	5112.6125
1757.71349	5106.9125
1760.92903	5097.7125
1764.14244	5081.6125
1767.35375	5071.5125
1770.56294	5071.0125
1773.77002	5055.9125
1776.97499	5045.5125
1780.17785	5031.6125
1783.37861	5032.8125
1786.57727	4991.5125
1789.77382	4974.7125
1792.96828	4981.2125
1796.16064	4971.0125
1799.3509	4935.7125
1802.53907	4955.8125
1805.72514	4930.1125
1808.90913	4894.3125
1812.09102	4882.9125
1815.27083	4869.8125
1818.44856	4872.8125
1821.6242	4861.9125
1824.79776	4836.5125
1827.96924	4833.8125
1831.13864	4831.7125
1834.30597	4827.6125
1837.47122	4828.4125
1840.6344	4827.6125
1843.7955	4816.5125
1846.95454	4824.7125
1850.11151	4833.7125
1853.26642	4828.3125
1856.41926	4882.4125
1859.57004	4861.4125
1862.71876	4872.2125
1865.86542	4885.9125
1869.01003	4927.6125
1872.15258	4947.1125
1875.29308	4967.2125
1878.43152	4986.0125
1881.56792	5031.0125
1884.70227	5036.0125
1887.83457	5050.8125
1890.96482	5040.7125
1894.09304	5059.1125
1897.21921	5062.7125
1900.34335	5048.3125
1903.46544	5063.4125
1906.58551	5042.7125
1909.70353	5020.8125
1912.81953	5018.8125
1915.93349	5000.5125
1919.04543	4989.3125
1922.15534	4969.4125
1925.26322	4935.3125
1928.36908	4932.6125
1931.47292	4910.7125
1934.57473	4898.8125
1937.67453	4884.2125
1940.77232	4860.7125
1943.86808	4860.7125
1946.96184	4819.8125
1950.05358	4812.6125
1953.14331	4798.3125
1956.23103	4788.3125
1959.31675	4771.1125
1962.40046	4730.4125
1965.48217	4722.5125
1968.56188	4708.0125
1971.63959	4679.8125
1974.7153	4678.6125
1977.78901	4645.5125
1980.86073	4638.8125
1983.93046	4607.7125
1986.99819	4588.9125
1990.06394	4582.5125
1993.1277	4585.0125
1996.18947	4572.2125
1999.24925	4552.5125
2002.30706	4555.4125
2005.36288	4552.6125
2008.41672	4574.3125
2011.46859	4541.7125
2014.51848	4518.9125
2017.56639	4492.3125
2020.61233	4480.5125
2023.6563	4446.0125
2026.6983	4421.7125
2029.73833	4415.2125
2032.7764	4400.1125
2035.8125	4362.0125
2038.84664	4357.0125
2041.87881	4345.5125
2044.90903	4332.0125
2047.93729	4335.3125
2050.96359	4339.6125
2053.98794	4352.2125
2057.01034	4342.7125
2060.03078	4373.8125
2063.04927	4389.2125
2066.06582	4426.5125
2069.08042	4447.5125
2072.09307	4483.7125
2075.10378	4497.4125
2078.11255	4515.0125
2081.11938	4534.0125
2084.12426	4532.9125
2087.12722	4528.6125
2090.12824	4516.0125
2093.12732	4493.7125
2096.12447	4481.1125
2099.11969	4438.9125
2102.11299	4422.3125
2105.10435	4404.6125
2108.09379	4346.1125
2111.08131	4328.0125
2114.0669	4331.6125
2117.05057	4317.6125
2120.03233	4305.9125
2123.01216	4282.3125
2125.99008	4268.9125
2128.96609	4285.3125
2131.94018	4268.0125
2134.91236	4262.6125
2137.88263	4258.7125
2140.851	4234.0125
2143.81746	4243.1125
2146.78201	4235.8125
2149.74466	4225.7125
2152.7054	4226.6125
2155.66425	4201.1125
2158.6212	4187.2125
2161.57625	4172.6125
2164.52941	4169.0125
2167.48067	4169.1125
2170.43004	4144.3125
2173.37752	4142.7125
2176.32311	4129.6125
2179.26681	4141.9125
2182.20863	4127.1125
2185.14856	4131.1125
2188.08661	4120.8125
2191.02278	4146.2125
2193.95707	4134.9125
2196.88948	4121.9125
2199.82001	4108.1125
2202.74867	4103.8125
2205.67545	4104.2125
2208.60037	4092.3125
2211.52341	4086.2125
2214.44458	4084.9125
2217.36388	4073.8125
2220.28132	4062.6125
2223.1969	4046.4125
2226.11061	4032.9125
2229.02246	4029.0125
2231.93245	4029.5125
2234.84058	4025.0125
2237.74686	4030.3125
2240.65128	4031.7125
2243.55385	4014.6125
2246.45456	4014.8125
2249.35343	4009.2125
2252.25044	3998.5125
2255.14561	3990.6125
2258.03893	3979.7125
2260.93041	3966.5125
2263.82004	3971.8125
2266.70783	3960.6125
2269.59378	3948.9125
2272.4779	3926.9125
2275.36017	3919.9125
2278.24061	3928.9125
2281.11922	3914.0125
2283.996	3906.9125
2286.87094	3892.9125
2289.74405	3893.8125
2292.61534	3880.0125
2295.4848	3871.1125
2298.35243	3878.3125
2301.21824	3867.9125
2304.08223	3869.5125
2306.94439	3864.7125
2309.80474	3883.0125
2312.66327	3890.2125
2315.51999	3876.6125
2318.37489	3872.8125
2321.22797	3865.5125
2324.07925	3867.1125
2326.92871	3859.7125
2329.77637	3853.2125
2332.62222	3853.3125
2335.46626	3840.5125
2338.3085	3845.2125
2341.14893	3825.9125
2343.98756	3849.4125
2346.8244	3862.7125
2349.65943	3861.3125
2352.49267	3854.3125
2355.32411	3865.2125
2358.15376	3844.4125
2360.98161	3837.0125
2363.80768	3865.7125
2366.63195	3849.8125
2369.45444	3860.3125
2372.27514	3855.8125
2375.09405	3856.5125
2377.91118	3855.5125
2380.72652	3852.3125
2383.54009	3854.1125
2386.35187	3822.3125
2389.16188	3801.1125
2391.97011	3801.0125
2394.77657	3788.6125
2397.58125	3788.8125
2400.38416	3775.0125
2403.18529	3758.3125
2405.98466	3770.9125
2408.78226	3750.3125
2411.57809	3739.4125
2414.37216	3728.6125
2417.16446	3741.8125
2419.955	3729.3125
2422.74378	3738.7125
2425.5308	3725.3125
2428.31606	3730.7125
2431.09956	3722.4125
2433.88131	3737.2125
2436.6613	3726.8125
2439.43954	3723.8125
2442.21603	3722.7125
2444.99077	3731.0125
2447.76377	3728.6125
2450.53501	3730.2125
2453.30451	3745.7125
2456.07226	3728.0125
2458.83827	3752.5125
2461.60254	3746.5125
2464.36507	3736.5125
2467.12586	3745.1125
2469.88492	3747.4125
2472.64224	3747.6125
2475.39782	3748.3125
2478.15167	3750.6125
2480.90379	3748.0125
2483.65417	3768.2125
2486.40283	3774.3125
2489.14976	3777.1125
2491.89497	3779.1125
2494.63845	3782.0125
2497.3802	3775.6125
2500.12024	3780.0125
2502.85855	3788.0125
2505.59514	3777.1125
2508.33002	3758.2125
2511.06318	3748.4125
2513.79462	3733.5125
2516.52435	3727.1125
2519.25237	3731.2125
2521.97867	3697.1125
2524.70327	3717.4125
2527.42616	3690.7125
2530.14734	3703.5125
2532.86681	3694.5125
2535.58458	3695.0125
2538.30065	3698.7125
2541.01501	3696.2125
2543.72768	3707.5125
2546.43864	3702.8125
2549.14791	3685.8125
2551.85548	3698.9125
2554.56136	3704.8125
2557.26554	3698.9125
2559.96803	3703.3125
2562.66883	3702.4125
2565.36794	3703.9125
2568.06536	3704.9125
2570.7611	3702.8125
2573.45514	3702.6125
2576.14751	3683.8125
2578.83819	3678.2125
2581.52719	3675.3125
2584.21451	3672.5125
2586.90015	3676.2125
2589.58411	3678.1125
2592.2664	3673.6125
2594.94701	3677.6125
2597.62594	3666.7125
2600.30321	3664.4125
2602.9788	3661.9125
2605.65273	3683.7125
2608.32498	3672.6125
2610.99557	3679.8125
2613.66449	3660.6125
2616.33175	3675.8125
2618.99734	3665.5125
2621.66128	3665.7125
2624.32355	3674.2125
2626.98416	3663.2125
2629.64311	3656.1125
2632.30041	3658.2125
2634.95605	3653.5125
2637.61004	3644.9125
2640.26238	3644.2125
2642.91306	3639.4125
2645.56209	3620.8125
2648.20948	3644.7125
2650.85521	3643.1125
2653.4993	3638.4125
2656.14175	3652.3125
2658.78255	3657.5125
2661.42171	3663.6125
2664.05923	3669.1125
2666.6951	3688.7125
2669.32934	3683.4125
2671.96194	3693.4125
2674.59291	3682.9125
2677.22224	3691.1125
2679.84993	3694.7125
2682.476	3681.4125
2685.10043	3678.4125
2687.72324	3672.2125
2690.34441	3675.2125
2692.96396	3664.4125
2695.58188	3673.4125
2698.19818	3662.2125
2700.81285	3659.1125
2703.4259	3686.2125
2706.03733	3659.9125
2708.64714	3678.0125
2711.25533	3681.5125
2713.86191	3681.3125
2716.46687	3701.2125
2719.07021	3697.8125
2721.67194	3710.1125
2724.27206	3701.1125
2726.87057	3725.6125
2729.46747	3712.6125
2732.06276	3723.0125
2734.65644	3711.5125
2737.24852	3705.3125
2739.83899	3688.6125
2742.42786	3722.2125
2745.01513	3698.0125
2747.60079	3674.6125
2750.18486	3679.2125
2752.76733	3695.4125
2755.3482	3695.9125
2757.92747	3694.1125
2760.50515	3709.5125
2763.08123	3691.7125
2765.65573	3698.2125
2768.22863	3693.7125
2770.79994	3690.1125
2773.36967	3699.3125
2775.9378	3701.8125
2778.50435	3703.6125
2781.06932	3694.0125
2783.6327	3701.1125
2786.1945	3699.6125
2788.75471	3705.3125
2791.31335	3674.7125
2793.87041	3676.0125
2796.42589	3686.0125
2798.97979	3686.6125
2801.53212	3679.1125
2804.08288	3694.3125
2806.63206	3675.2125
2809.17967	3666.1125
2811.72571	3671.7125
2814.27018	3680.9125
2816.81308	3676.8125
2819.35442	3670.6125
2821.89419	3673.8125
2824.43239	3688.9125
2826.96904	3696.3125
2829.50412	3692.3125
2832.03763	3704.5125
2834.56959	3696.7125
2837.1	3703.7125
2839.62884	3708.0125
2842.15613	3719.7125
2844.68186	3741.1125
2847.20604	3762.9125
2849.72867	3782.0125
2852.24974	3784.8125
2854.76927	3788.9125
2857.28724	3797.1125
2859.80367	3785.8125
2862.31855	3809.1125
2864.83189	3802.4125
2867.34368	3808.6125
2869.85393	3798.7125
2872.36264	3821.3125
2874.8698	3823.5125
2877.37543	3811.3125
2879.87952	3819.3125
2882.38207	3817.2125
2884.88308	3826.9125
2887.38256	3825.6125
2889.88051	3821.5125
2892.37692	3824.3125
2894.8718	3826.4125
2897.36515	3821.8125
2899.85698	3831.5125
2902.34727	3840.1125
2904.83604	3830.4125
2907.32328	3837.8125
2909.809	3833.1125
2912.29319	3846.1125
2914.77587	3833.2125
2917.25702	3819.7125
2919.73665	3817.0125
2922.21476	3821.7125
2924.69136	3814.5125
2927.16644	3814.3125
2929.64	3799.0125
2932.11205	3781.7125
2934.58258	3773.2125
2937.05161	3771.8125
2939.51912	3750.0125
2941.98513	3735.5125
2944.44962	3719.8125
2946.91261	3699.5125
2949.37409	3714.6125
2951.83407	3685.2125
2954.29254	3685.0125
2956.74951	3674.4125
2959.20498	3667.0125
2961.65895	3637.8125
2964.11142	3636.0125
2966.56239	3632.0125
2969.01186	3600.0125
2971.45984	3592.9125
2973.90632	3584.2125
2976.35131	3551.9125
2978.7948	3551.9125
2981.23681	3535.2125
2983.67732	3516.7125
2986.11635	3520.5125
2988.55388	3504.5125
2990.98993	3493.9125
2993.4245	3472.6125
2995.85758	3463.4125
2998.28917	3476.5125
3000.71928	3466.4125
3003.14791	3452.3125
3005.57506	3457.0125
3008.00073	3446.5125
3010.42493	3461.3125
3012.84764	3446.8125
3015.26888	3452.5125
3017.68865	3436.5125
3020.10694	3432.3125
3022.52376	3416.8125
3024.9391	3399.2125
3027.35298	3395.8125
3029.76539	3392.0125
3032.17632	3376.2125
3034.5858	3369.5125
3036.9938	3369.0125
3039.40034	3371.1125
3041.80542	3356.7125
3044.20903	3359.9125
3046.61118	3349.4125
3049.01187	3359.4125
3051.4111	3346.4125
3053.80888	3344.1125
3056.20519	3345.7125
3058.60005	3318.4125
3060.99345	3342.4125
3063.3854	3318.8125
3065.7759	3312.8125
3068.16494	3323.4125
3070.55254	3306.1125
3072.93868	3293.7125
3075.32338	3302.3125
3077.70662	3270.2125
3080.08842	3289.2125
3082.46878	3281.1125
3084.84769	3266.1125
3087.22515	3267.6125
3089.60118	3281.4125
3091.97576	3269.9125
3094.3489	3268.5125
3096.72061	3270.7125
3099.09087	3272.1125
3101.4597	3259.9125
3103.82709	3236.7125
3106.19305	3240.2125
3108.55757	3239.7125
3110.92066	3218.1125
3113.28232	3228.6125
3115.64255	3215.9125
3118.00134	3210.4125
3120.35871	3207.0125
3122.71466	3205.4125
3125.06917	3205.6125
3127.42226	3194.9125
3129.77393	3211.2125
3132.12417	3213.0125
3134.47299	3221.7125
3136.82039	3235.6125
3139.16636	3224.5125
3141.51092	3227.1125
3143.85406	3220.9125
3146.19579	3222.1125
3148.53609	3217.1125
3150.87499	3224.1125
3153.21246	3217.8125
3155.54853	3226.0125
3157.88318	3226.3125
3160.21642	3212.2125
3162.54826	3211.0125
3164.87868	3208.8125
3167.2077	3203.7125
3169.5353	3214.0125
3171.86151	3213.0125
3174.18631	3214.0125
3176.5097	3198.3125
3178.83169	3208.5125
3181.15228	3221.3125
3183.47147	3217.7125
3185.78926	3222.2125
3188.10565	3230.5125
3190.42065	3218.8125
3192.73424	3228.2125
3195.04645	3236.0125
3197.35725	3231.5125
3199.66667	3218.7125
3201.97469	3230.6125
3204.28132	3237.0125
3206.58656	3231.5125
3208.8904	3233.1125
3211.19287	3242.5125
3213.49394	3235.4125
3215.79363	3231.2125
3218.09193	3236.5125
3220.38884	3228.2125
3222.68438	3240.1125
3224.97853	3233.7125
3227.2713	3234.3125
3229.56269	3232.0125
3231.8527	3237.5125
3234.14133	3240.9125
3236.42858	3229.8125
3238.71446	3233.4125
3240.99896	3230.3125
3243.28209	3231.6125
3245.56384	3233.0125
3247.84423	3228.8125
3250.12324	3220.0125
3252.40088	3221.4125
3254.67715	3230.5125
3256.95205	3216.1125
3259.22558	3220.5125
3261.49775	3212.8125
3263.76855	3193.0125
3266.03799	3186.0125
3268.30606	3186.1125
3270.57277	3177.0125
3272.83812	3187.7125
3275.10211	3188.3125
3277.36474	3177.1125
3279.62601	3185.1125
3281.88593	3176.3125
3284.14448	3184.7125
3286.40168	3185.0125
3288.65753	3188.1125
3290.91202	3191.6125
3293.16516	3190.9125
3295.41695	3176.2125
3297.66738	3165.6125
3299.91647	3146.9125
3302.16421	3128.1125
3304.4106	3112.7125
3306.65564	3101.8125
3308.89933	3081.7125
3311.14169	3079.7125
3313.38269	3038.2125
3315.62236	3031.0125
3317.86068	3009.4125
3320.09766	2963.7125
3322.3333	2938.3125
3324.5676	2944.3125
3326.80056	2891.1125
3329.03219	2866.0125
3331.26248	1.8125
3333.49143	-1.1875
3335.71905	0.8125
