Data from AgNP_FTO_APTES_UA_100uM_CRN_100uM_R6G_10uM_NaF_0.1M_Addition_RamanShift__0__17-47-30-563.txt Node

Date: Thu Mar 24 17:47:30 GMT 2022
User: TCL
Spectrometer: QEP01345
Trigger mode: 4
Integration Time (sec): 7.000000E0
Scans to average: 10
Electric dark correction enabled: true
Nonlinearity correction enabled: false
Boxcar width: 0
XAxis mode: Raman Shifts
Number of Pixels in Spectrum: 1044
>>>>>Begin Spectral Data<<<<<
46.04893	-1.7625
50.45542	0.3375
54.85868	-0.3625
59.25871	-0.1625
63.6555	31.5375
68.04907	34.8375
72.43941	32.3375
76.82654	35.2375
81.21044	39.1375
85.59113	39.6375
89.96862	42.1375
94.34289	41.5375
98.71396	44.3375
103.08183	42.0375
107.4465	46.6375
111.80798	42.6375
116.16626	45.9375
120.52136	43.9375
124.87327	48.3375
129.222	53.2375
133.56755	55.3375
137.90993	57.7375
142.24913	66.3375
146.58517	67.6375
150.91804	82.7375
155.24774	94.0375
159.57429	114.2375
163.89768	150.5375
168.21792	199.5375
172.53501	270.8375
176.84895	382.7375
181.15975	532.0375
185.46741	755.1375
189.77193	1042.9375
194.07331	1387.8375
198.37157	1798.5375
202.6667	2236.8375
206.9587	2673.7375
211.24758	3110.4375
215.53334	3561.1375
219.81599	4041.4375
224.09553	4599.3375
228.37195	5230.4375
232.64527	5887.2375
236.91549	6553.6375
241.18261	7186.7375
245.44663	7720.8375
249.70755	8117.4375
253.96539	8490.7375
258.22014	8800.2375
262.4718	9076.6375
266.72039	9272.2375
270.96589	9335.9375
275.20832	9320.2375
279.44768	9158.4375
283.68397	9027.2375
287.91719	8917.8375
292.14735	8904.8375
296.37445	9014.3375
300.59849	9237.9375
304.81948	9539.9375
309.03742	9753.0375
313.25231	9806.5375
317.46415	9506.2375
321.67296	9048.1375
325.87872	8660.9375
330.08145	8442.2375
334.28114	8416.7375
338.47781	8526.6375
342.67145	8690.6375
346.86207	8945.8375
351.04966	9294.5375
355.23424	9652.4375
359.4158	9922.3375
363.59435	10040.9375
367.76989	10065.8375
371.94243	10036.8375
376.11196	9991.0375
380.27849	9971.1375
384.44203	9925.3375
388.60257	9905.6375
392.76012	9916.6375
396.91468	10016.3375
401.06626	10233.6375
405.21485	10352.8375
409.36047	10192.0375
413.50311	9816.5375
417.64277	9453.4375
421.77947	9268.8375
425.9132	9198.1375
430.04396	9215.4375
434.17176	9259.2375
438.2966	9358.8375
442.41849	9578.1375
446.53742	9875.9375
450.6534	10174.9375
454.76644	10316.3375
458.87653	10299.8375
462.98368	10189.0375
467.08789	9997.2375
471.18916	9844.8375
475.2875	9691.9375
479.38291	9533.7375
483.4754	9366.2375
487.56496	9283.8375
491.6516	9198.4375
495.73531	9146.7375
499.81612	9118.4375
503.89401	9160.0375
507.96899	9211.0375
512.04106	9281.4375
516.11023	9332.1375
520.1765	9364.5375
524.23987	9346.6375
528.30034	9294.0375
532.35792	9228.4375
536.41261	9127.1375
540.46441	8983.0375
544.51333	8865.6375
548.55936	8931.1375
552.60252	9117.1375
556.64279	9321.7375
560.6802	9469.7375
564.71473	9607.6375
568.7464	9843.2375
572.7752	10133.3375
576.80114	10159.4375
580.82422	10158.6375
584.84444	10338.0375
588.86181	10651.9375
592.87633	10943.7375
596.888	11123.8375
600.89682	11070.6375
604.9028	11517.0375
608.90594	13492.5375
612.90624	16206.5375
616.90371	15353.4375
620.89834	11423.9375
624.89015	9520.5375
628.87913	9230.4375
632.86528	9406.2375
636.84862	9566.0375
640.82913	9473.6375
644.80683	9025.3375
648.78172	8730.8375
652.75379	8636.8375
656.72306	8889.9375
660.68952	9237.8375
664.65319	9137.4375
668.61405	8751.9375
672.57211	8589.7375
676.52738	8618.4375
680.47986	8582.1375
684.42955	8481.1375
688.37646	8416.6375
692.32058	8433.2375
696.26192	8528.8375
700.20048	8661.5375
704.13626	8698.7375
708.06928	8726.2375
711.99952	8674.0375
715.927	8648.0375
719.85171	8699.8375
723.77365	8716.7375
727.69284	8675.3375
731.60928	8575.0375
735.52295	8574.2375
739.43388	8626.2375
743.34206	8639.3375
747.24749	8652.4375
751.15017	8654.2375
755.05012	8792.1375
758.94733	9144.4375
762.8418	10009.7375
766.73354	11469.9375
770.62254	12880.0375
774.50882	13388.8375
778.39237	12812.7375
782.27321	11374.9375
786.15132	9981.0375
790.02671	9077.7375
793.89938	8659.1375
797.76935	8465.9375
801.6366	8387.6375
805.50115	8353.5375
809.36299	8321.6375
813.22213	8325.4375
817.07857	8287.3375
820.93231	8261.0375
824.78336	8254.4375
828.63172	8241.8375
832.47738	8238.7375
836.32036	8195.7375
840.16066	8170.4375
843.99827	8160.8375
847.8332	8119.8375
851.66546	8129.1375
855.49504	8129.3375
859.32195	8129.2375
863.1462	8088.5375
866.96777	8088.5375
870.78668	8093.9375
874.60293	8116.3375
878.41652	8155.5375
882.22745	8201.0375
886.03573	8247.3375
889.84136	8234.4375
893.64433	8202.5375
897.44466	8159.3375
901.24235	8131.6375
905.0374	8072.5375
908.8298	8014.1375
912.61957	7973.3375
916.40671	7984.8375
920.19121	8068.0375
923.97308	8143.2375
927.75233	8240.7375
931.52895	8260.0375
935.30295	8140.9375
939.07433	7948.1375
942.84309	7776.3375
946.60924	7649.3375
950.37278	7629.0375
954.13371	7607.9375
957.89203	7564.6375
961.64774	7570.1375
965.40086	7560.2375
969.15137	7550.7375
972.89929	7515.7375
976.64461	7494.4375
980.38733	7502.6375
984.12747	7488.2375
987.86502	7539.3375
991.59999	7573.8375
995.33237	7675.4375
999.06217	7810.3375
1002.78939	8014.2375
1006.51404	8230.8375
1010.23611	8412.1375
1013.95561	8491.4375
1017.67255	8451.2375
1021.38692	8316.5375
1025.09872	8124.8375
1028.80796	7976.8375
1032.51465	7937.2375
1036.21877	7983.9375
1039.92035	8038.5375
1043.61937	8066.8375
1047.31584	8114.1375
1051.00976	8107.4375
1054.70114	8088.4375
1058.38998	8104.2375
1062.07627	8150.0375
1065.76003	8203.3375
1069.44126	8293.4375
1073.11995	8453.5375
1076.79611	8646.9375
1080.46974	8792.0375
1084.14085	8955.6375
1087.80943	9124.8375
1091.47549	9206.1375
1095.13903	9114.2375
1098.80005	8867.2375
1102.45857	8609.6375
1106.11456	8488.0375
1109.76805	8476.1375
1113.41903	8603.5375
1117.06751	8842.5375
1120.71348	9137.8375
1124.35696	9501.0375
1127.99793	9807.6375
1131.63641	9801.7375
1135.2724	9476.6375
1138.90589	9157.8375
1142.5369	8958.4375
1146.16542	8830.7375
1149.79145	8752.2375
1153.415	8746.1375
1157.03607	8808.6375
1160.65467	8977.8375
1164.27079	9334.3375
1167.88443	9889.5375
1171.49561	10700.1375
1175.10432	11931.8375
1178.71056	13472.7375
1182.31434	14757.1375
1185.91565	15031.6375
1189.51451	14516.1375
1193.11091	13662.4375
1196.70485	12738.1375
1200.29634	11990.6375
1203.88538	11419.7375
1207.47197	10821.0375
1211.05612	10312.5375
1214.63782	10003.4375
1218.21708	9872.4375
1221.79391	9829.6375
1225.36829	9839.4375
1228.94024	9783.0375
1232.50976	9622.0375
1236.07685	9485.1375
1239.6415	9385.5375
1243.20374	9418.5375
1246.76355	9478.3375
1250.32093	9564.3375
1253.8759	9759.5375
1257.42845	10026.1375
1260.97859	10375.7375
1264.52631	10769.9375
1268.07163	11142.3375
1271.61453	11470.8375
1275.15503	11722.7375
1278.69312	11900.3375
1282.22882	12122.8375
1285.76211	12545.2375
1289.29301	13097.1375
1292.82151	13664.6375
1296.34761	14282.6375
1299.87133	15227.4375
1303.39266	16508.7375
1306.9116	18165.3375
1310.42815	19826.6375
1313.94233	20633.0375
1317.45412	20014.4375
1320.96354	18739.2375
1324.47058	17436.0375
1327.97525	16322.0375
1331.47754	15543.6375
1334.97747	15057.4375
1338.47502	14903.5375
1341.97022	14986.0375
1345.46305	15385.9375
1348.95352	16044.6375
1352.44163	17042.4375
1355.92738	18657.4375
1359.41078	21079.4375
1362.89183	23295.8375
1366.37053	22757.5375
1369.84688	19516.3375
1373.32088	16193.6375
1376.79254	14233.2375
1380.26186	13286.8375
1383.72883	12741.2375
1387.19347	12283.5375
1390.65578	11858.0375
1394.11575	11607.0375
1397.57339	11543.7375
1401.0287	11606.9375
1404.48168	11703.4375
1407.93234	11677.3375
1411.38068	11569.8375
1414.82669	11437.0375
1418.27039	11130.3375
1421.71177	10827.8375
1425.15083	10445.5375
1428.58758	10301.9375
1432.02203	10413.0375
1435.45416	10652.5375
1438.88399	10854.7375
1442.31151	10986.1375
1445.73673	11108.7375
1449.15965	11199.4375
1452.58027	11230.0375
1455.9986	11130.4375
1459.41463	11129.6375
1462.82837	11314.8375
1466.23982	11661.7375
1469.64898	12076.4375
1473.05586	12368.4375
1476.46045	12565.0375
1479.86276	12773.2375
1483.26279	12935.6375
1486.66054	13164.0375
1490.05602	13601.3375
1493.44922	14190.4375
1496.84016	15043.1375
1500.22882	16327.6375
1503.61521	18073.8375
1506.99934	20027.7375
1510.38121	21359.4375
1513.76081	21252.4375
1517.13816	19548.5375
1520.51324	17107.8375
1523.88607	15054.8375
1527.25665	13805.1375
1530.62498	13126.3375
1533.99105	12704.2375
1537.35488	12403.4375
1540.71647	12092.5375
1544.07581	11814.1375
1547.4329	11597.3375
1550.78776	11410.9375
1554.14038	11316.9375
1557.49077	11343.6375
1560.83892	11471.1375
1564.18484	11801.9375
1567.52853	12280.9375
1570.86999	12723.0375
1574.20922	12976.7375
1577.54624	12929.8375
1580.88103	12372.9375
1584.2136	11628.0375
1587.54395	11318.2375
1590.87208	11543.7375
1594.19801	12257.1375
1597.52172	13192.6375
1600.84321	13603.5375
1604.16251	13143.2375
1607.47959	12200.3375
1610.79447	11159.4375
1614.10715	10226.0375
1617.41763	9493.4375
1620.7259	9011.3375
1624.03199	8784.5375
1627.33587	8768.9375
1630.63757	8997.4375
1633.93707	9534.5375
1637.23439	10521.1375
1640.52951	12149.3375
1643.82246	14430.5375
1647.11321	16773.2375
1650.40179	18025.4375
1653.68819	17191.1375
1656.97241	14618.6375
1660.25446	11933.1375
1663.53433	9995.5375
1666.81203	8822.8375
1670.08756	8156.1375
1673.36092	7741.1375
1676.63211	7465.0375
1679.90115	7300.5375
1683.16801	7162.2375
1686.43272	7059.8375
1689.69527	6979.1375
1692.95567	6928.9375
1696.2139	6922.9375
1699.46999	6906.2375
1702.72392	6859.8375
1705.97571	6820.9375
1709.22535	6774.2375
1712.47284	6743.0375
1715.71819	6698.8375
1718.96139	6661.2375
1722.20246	6633.8375
1725.44139	6599.8375
1728.67818	6552.0375
1731.91284	6487.0375
1735.14537	6451.0375
1738.37576	6407.0375
1741.60403	6401.1375
1744.83017	6366.0375
1748.05418	6328.9375
1751.27607	6331.4375
1754.49584	6331.3375
1757.71349	6340.4375
1760.92903	6324.9375
1764.14244	6313.7375
1767.35375	6310.4375
1770.56294	6287.2375
1773.77002	6262.2375
1776.97499	6206.7375
1780.17785	6161.0375
1783.37861	6148.2375
1786.57727	6117.5375
1789.77382	6110.3375
1792.96828	6105.8375
1796.16064	6080.0375
1799.3509	6073.3375
1802.53907	6050.4375
1805.72514	6018.3375
1808.90913	5997.8375
1812.09102	5987.6375
1815.27083	5976.9375
1818.44856	5964.5375
1821.6242	5947.7375
1824.79776	5921.3375
1827.96924	5914.9375
1831.13864	5897.0375
1834.30597	5905.2375
1837.47122	5890.1375
1840.6344	5875.4375
1843.7955	5870.4375
1846.95454	5857.4375
1850.11151	5845.2375
1853.26642	5833.0375
1856.41926	5864.2375
1859.57004	5820.0375
1862.71876	5820.7375
1865.86542	5801.9375
1869.01003	5810.5375
1872.15258	5812.0375
1875.29308	5804.0375
1878.43152	5787.4375
1881.56792	5799.1375
1884.70227	5788.2375
1887.83457	5781.4375
1890.96482	5779.3375
1894.09304	5751.5375
1897.21921	5763.8375
1900.34335	5763.7375
1903.46544	5754.2375
1906.58551	5746.6375
1909.70353	5745.4375
1912.81953	5722.3375
1915.93349	5713.7375
1919.04543	5718.8375
1922.15534	5683.1375
1925.26322	5684.1375
1928.36908	5665.3375
1931.47292	5628.5375
1934.57473	5623.4375
1937.67453	5618.8375
1940.77232	5613.2375
1943.86808	5590.0375
1946.96184	5548.3375
1950.05358	5541.3375
1953.14331	5536.2375
1956.23103	5513.9375
1959.31675	5465.6375
1962.40046	5455.1375
1965.48217	5473.3375
1968.56188	5454.2375
1971.63959	5438.3375
1974.7153	5429.1375
1977.78901	5393.1375
1980.86073	5378.0375
1983.93046	5359.5375
1986.99819	5335.9375
1990.06394	5317.5375
1993.1277	5295.5375
1996.18947	5283.0375
1999.24925	5276.7375
2002.30706	5248.3375
2005.36288	5224.2375
2008.41672	5201.0375
2011.46859	5190.3375
2014.51848	5182.9375
2017.56639	5157.0375
2020.61233	5147.4375
2023.6563	5118.7375
2026.6983	5118.3375
2029.73833	5091.0375
2032.7764	5073.6375
2035.8125	5071.6375
2038.84664	5055.0375
2041.87881	5048.3375
2044.90903	5034.8375
2047.93729	5043.8375
2050.96359	5013.2375
2053.98794	5008.3375
2057.01034	4997.1375
2060.03078	5001.8375
2063.04927	4975.7375
2066.06582	4983.3375
2069.08042	4999.1375
2072.09307	4974.9375
2075.10378	4961.7375
2078.11255	4973.9375
2081.11938	4982.1375
2084.12426	4975.5375
2087.12722	4952.3375
2090.12824	4966.9375
2093.12732	4957.9375
2096.12447	4971.5375
2099.11969	4966.3375
2102.11299	4960.0375
2105.10435	4966.0375
2108.09379	4973.0375
2111.08131	4970.5375
2114.0669	4964.9375
2117.05057	4987.0375
2120.03233	4982.2375
2123.01216	4977.5375
2125.99008	4984.8375
2128.96609	4981.4375
2131.94018	4981.2375
2134.91236	4975.1375
2137.88263	4969.3375
2140.851	4975.6375
2143.81746	4971.8375
2146.78201	4971.3375
2149.74466	4950.0375
2152.7054	4970.0375
2155.66425	4969.7375
2158.6212	4944.2375
2161.57625	4958.5375
2164.52941	4945.5375
2167.48067	4936.6375
2170.43004	4945.6375
2173.37752	4932.1375
2176.32311	4928.5375
2179.26681	4934.3375
2182.20863	4940.3375
2185.14856	4927.9375
2188.08661	4925.2375
2191.02278	4928.4375
2193.95707	4915.7375
2196.88948	4899.8375
2199.82001	4912.0375
2202.74867	4903.6375
2205.67545	4900.6375
2208.60037	4904.9375
2211.52341	4866.1375
2214.44458	4871.1375
2217.36388	4853.1375
2220.28132	4859.9375
2223.1969	4843.4375
2226.11061	4820.9375
2229.02246	4819.5375
2231.93245	4807.1375
2234.84058	4798.3375
2237.74686	4811.4375
2240.65128	4802.2375
2243.55385	4780.0375
2246.45456	4784.9375
2249.35343	4793.7375
2252.25044	4781.4375
2255.14561	4762.1375
2258.03893	4768.6375
2260.93041	4771.4375
2263.82004	4745.3375
2266.70783	4729.8375
2269.59378	4712.8375
2272.4779	4706.8375
2275.36017	4706.2375
2278.24061	4698.8375
2281.11922	4680.8375
2283.996	4652.0375
2286.87094	4670.4375
2289.74405	4643.8375
2292.61534	4638.4375
2295.4848	4630.2375
2298.35243	4621.6375
2301.21824	4617.6375
2304.08223	4600.3375
2306.94439	4600.3375
2309.80474	4620.9375
2312.66327	4609.2375
2315.51999	4598.9375
2318.37489	4601.0375
2321.22797	4607.1375
2324.07925	4599.6375
2326.92871	4583.1375
2329.77637	4592.2375
2332.62222	4577.0375
2335.46626	4569.1375
2338.3085	4562.1375
2341.14893	4573.6375
2343.98756	4564.2375
2346.8244	4566.1375
2349.65943	4579.1375
2352.49267	4562.2375
2355.32411	4571.6375
2358.15376	4585.3375
2360.98161	4567.6375
2363.80768	4579.5375
2366.63195	4578.1375
2369.45444	4581.0375
2372.27514	4576.1375
2375.09405	4554.5375
2377.91118	4570.3375
2380.72652	4536.3375
2383.54009	4531.3375
2386.35187	4536.4375
2389.16188	4505.2375
2391.97011	4493.2375
2394.77657	4465.6375
2397.58125	4459.3375
2400.38416	4454.0375
2403.18529	4444.1375
2405.98466	4429.1375
2408.78226	4428.2375
2411.57809	4412.6375
2414.37216	4402.0375
2417.16446	4407.7375
2419.955	4395.4375
2422.74378	4393.6375
2425.5308	4386.9375
2428.31606	4384.3375
2431.09956	4395.2375
2433.88131	4386.2375
2436.6613	4390.2375
2439.43954	4401.3375
2442.21603	4379.1375
2444.99077	4383.5375
2447.76377	4374.4375
2450.53501	4375.2375
2453.30451	4375.3375
2456.07226	4395.2375
2458.83827	4370.0375
2461.60254	4370.6375
2464.36507	4380.5375
2467.12586	4377.3375
2469.88492	4383.6375
2472.64224	4368.4375
2475.39782	4378.9375
2478.15167	4388.7375
2480.90379	4401.5375
2483.65417	4407.2375
2486.40283	4402.0375
2489.14976	4411.3375
2491.89497	4405.6375
2494.63845	4417.2375
2497.3802	4418.5375
2500.12024	4395.6375
2502.85855	4391.0375
2505.59514	4391.9375
2508.33002	4368.7375
2511.06318	4347.1375
2513.79462	4343.6375
2516.52435	4324.4375
2519.25237	4308.1375
2521.97867	4304.3375
2524.70327	4300.2375
2527.42616	4295.5375
2530.14734	4289.2375
2532.86681	4291.5375
2535.58458	4280.3375
2538.30065	4260.4375
2541.01501	4283.6375
2543.72768	4269.3375
2546.43864	4261.9375
2549.14791	4266.8375
2551.85548	4260.8375
2554.56136	4262.7375
2557.26554	4235.7375
2559.96803	4250.4375
2562.66883	4230.7375
2565.36794	4224.8375
2568.06536	4228.2375
2570.7611	4219.4375
2573.45514	4208.2375
2576.14751	4204.6375
2578.83819	4195.7375
2581.52719	4204.3375
2584.21451	4202.6375
2586.90015	4167.0375
2589.58411	4186.3375
2592.2664	4188.3375
2594.94701	4166.1375
2597.62594	4165.2375
2600.30321	4165.3375
2602.9788	4170.7375
2605.65273	4155.8375
2608.32498	4156.5375
2610.99557	4137.4375
2613.66449	4148.2375
2616.33175	4144.6375
2618.99734	4148.0375
2621.66128	4157.7375
2624.32355	4142.2375
2626.98416	4138.6375
2629.64311	4131.2375
2632.30041	4126.5375
2634.95605	4118.2375
2637.61004	4122.6375
2640.26238	4102.4375
2642.91306	4113.4375
2645.56209	4101.2375
2648.20948	4102.9375
2650.85521	4116.1375
2653.4993	4104.0375
2656.14175	4104.2375
2658.78255	4100.6375
2661.42171	4125.3375
2664.05923	4127.6375
2666.6951	4105.9375
2669.32934	4128.5375
2671.96194	4136.2375
2674.59291	4137.8375
2677.22224	4123.0375
2679.84993	4128.3375
2682.476	4107.2375
2685.10043	4116.6375
2687.72324	4099.3375
2690.34441	4101.5375
2692.96396	4113.6375
2695.58188	4117.8375
2698.19818	4101.4375
2700.81285	4112.8375
2703.4259	4114.4375
2706.03733	4151.8375
2708.64714	4124.3375
2711.25533	4124.6375
2713.86191	4125.3375
2716.46687	4135.2375
2719.07021	4125.0375
2721.67194	4113.1375
2724.27206	4123.7375
2726.87057	4123.7375
2729.46747	4123.9375
2732.06276	4117.0375
2734.65644	4106.9375
2737.24852	4119.3375
2739.83899	4108.4375
2742.42786	4096.2375
2745.01513	4104.8375
2747.60079	4079.0375
2750.18486	4083.2375
2752.76733	4067.8375
2755.3482	4076.2375
2757.92747	4048.9375
2760.50515	4064.6375
2763.08123	4059.2375
2765.65573	4058.7375
2768.22863	4058.5375
2770.79994	4060.7375
2773.36967	4042.2375
2775.9378	4054.2375
2778.50435	4045.7375
2781.06932	4040.7375
2783.6327	4061.8375
2786.1945	4055.4375
2788.75471	4042.1375
2791.31335	4027.2375
2793.87041	4039.3375
2796.42589	4029.2375
2798.97979	4028.2375
2801.53212	4021.0375
2804.08288	4009.8375
2806.63206	3999.8375
2809.17967	4005.4375
2811.72571	4004.6375
2814.27018	4001.9375
2816.81308	4009.6375
2819.35442	3972.6375
2821.89419	3991.6375
2824.43239	3994.0375
2826.96904	3977.5375
2829.50412	3978.4375
2832.03763	3974.8375
2834.56959	3974.3375
2837.1	3984.4375
2839.62884	3979.2375
2842.15613	3960.4375
2844.68186	3980.9375
2847.20604	3988.1375
2849.72867	3960.6375
2852.24974	3994.1375
2854.76927	3980.1375
2857.28724	3982.6375
2859.80367	3977.3375
2862.31855	3982.0375
2864.83189	3976.5375
2867.34368	3980.4375
2869.85393	3967.6375
2872.36264	3952.5375
2874.8698	3970.3375
2877.37543	3954.9375
2879.87952	3973.2375
2882.38207	3953.9375
2884.88308	3952.2375
2887.38256	3954.1375
2889.88051	3944.7375
2892.37692	3941.1375
2894.8718	3961.8375
2897.36515	3955.6375
2899.85698	3969.8375
2902.34727	3953.6375
2904.83604	3961.2375
2907.32328	3964.2375
2909.809	3965.0375
2912.29319	3974.9375
2914.77587	3963.9375
2917.25702	3961.5375
2919.73665	3950.6375
2922.21476	3952.3375
2924.69136	3947.3375
2927.16644	3961.3375
2929.64	3949.0375
2932.11205	3934.4375
2934.58258	3921.6375
2937.05161	3928.0375
2939.51912	3929.1375
2941.98513	3917.8375
2944.44962	3891.6375
2946.91261	3887.8375
2949.37409	3899.0375
2951.83407	3912.8375
2954.29254	3905.5375
2956.74951	3899.6375
2959.20498	3895.2375
2961.65895	3881.1375
2964.11142	3882.2375
2966.56239	3868.6375
2969.01186	3872.4375
2971.45984	3867.0375
2973.90632	3863.4375
2976.35131	3837.4375
2978.7948	3838.8375
2981.23681	3815.4375
2983.67732	3818.9375
2986.11635	3805.8375
2988.55388	3791.6375
2990.98993	3788.7375
2993.4245	3773.2375
2995.85758	3787.9375
2998.28917	3775.3375
3000.71928	3763.9375
3003.14791	3768.4375
3005.57506	3753.1375
3008.00073	3757.8375
3010.42493	3740.2375
3012.84764	3738.9375
3015.26888	3729.4375
3017.68865	3739.4375
3020.10694	3741.1375
3022.52376	3711.1375
3024.9391	3718.4375
3027.35298	3703.1375
3029.76539	3701.3375
3032.17632	3685.3375
3034.5858	3694.0375
3036.9938	3683.7375
3039.40034	3671.5375
3041.80542	3662.5375
3044.20903	3679.3375
3046.61118	3684.7375
3049.01187	3663.6375
3051.4111	3673.7375
3053.80888	3657.8375
3056.20519	3634.2375
3058.60005	3637.9375
3060.99345	3621.4375
3063.3854	3618.9375
3065.7759	3615.5375
3068.16494	3601.0375
3070.55254	3605.2375
3072.93868	3600.0375
3075.32338	3596.5375
3077.70662	3578.6375
3080.08842	3566.2375
3082.46878	3580.5375
3084.84769	3559.2375
3087.22515	3569.2375
3089.60118	3577.5375
3091.97576	3576.4375
3094.3489	3576.2375
3096.72061	3563.7375
3099.09087	3577.3375
3101.4597	3581.8375
3103.82709	3574.7375
3106.19305	3562.1375
3108.55757	3576.7375
3110.92066	3567.3375
3113.28232	3562.8375
3115.64255	3545.2375
3118.00134	3547.5375
3120.35871	3544.4375
3122.71466	3521.8375
3125.06917	3537.5375
3127.42226	3521.2375
3129.77393	3523.2375
3132.12417	3514.4375
3134.47299	3529.6375
3136.82039	3522.3375
3139.16636	3524.3375
3141.51092	3520.3375
3143.85406	3526.4375
3146.19579	3519.8375
3148.53609	3540.4375
3150.87499	3530.3375
3153.21246	3551.9375
3155.54853	3540.1375
3157.88318	3561.4375
3160.21642	3550.3375
3162.54826	3554.3375
3164.87868	3546.2375
3167.2077	3556.3375
3169.5353	3567.8375
3171.86151	3559.5375
3174.18631	3562.3375
3176.5097	3542.0375
3178.83169	3547.1375
3181.15228	3544.0375
3183.47147	3539.2375
3185.78926	3549.2375
3188.10565	3537.3375
3190.42065	3547.5375
3192.73424	3533.8375
3195.04645	3537.4375
3197.35725	3533.6375
3199.66667	3545.6375
3201.97469	3545.4375
3204.28132	3552.3375
3206.58656	3570.0375
3208.8904	3550.1375
3211.19287	3554.2375
3213.49394	3560.5375
3215.79363	3560.5375
3218.09193	3564.1375
3220.38884	3586.8375
3222.68438	3586.8375
3224.97853	3566.5375
3227.2713	3572.4375
3229.56269	3579.2375
3231.8527	3562.5375
3234.14133	3557.7375
3236.42858	3554.2375
3238.71446	3547.1375
3240.99896	3543.4375
3243.28209	3529.6375
3245.56384	3530.8375
3247.84423	3547.6375
3250.12324	3534.8375
3252.40088	3528.2375
3254.67715	3532.0375
3256.95205	3528.8375
3259.22558	3520.6375
3261.49775	3513.1375
3263.76855	3505.0375
3266.03799	3495.5375
3268.30606	3511.4375
3270.57277	3482.3375
3272.83812	3493.7375
3275.10211	3494.7375
3277.36474	3489.4375
3279.62601	3477.6375
3281.88593	3486.9375
3284.14448	3503.8375
3286.40168	3497.5375
3288.65753	3499.4375
3290.91202	3498.3375
3293.16516	3476.9375
3295.41695	3484.3375
3297.66738	3459.3375
3299.91647	3450.5375
3302.16421	3418.5375
3304.4106	3433.6375
3306.65564	3393.2375
3308.89933	3364.1375
3311.14169	3361.8375
3313.38269	3342.7375
3315.62236	3308.2375
3317.86068	3280.7375
3320.09766	3267.1375
3322.3333	3235.1375
3324.5676	3230.9375
3326.80056	3188.1375
3329.03219	3169.7375
3331.26248	1.7375
3333.49143	-0.8625
3335.71905	1.2375
