Data from AgNP_FTO_APTES_UA_100uM_CRN_100uM_R6G_10uM_NaF_0.1M_Addition_RamanShift__20__18-10-50-589.txt Node

Date: Thu Mar 24 18:10:50 GMT 2022
User: TCL
Spectrometer: QEP01345
Trigger mode: 4
Integration Time (sec): 7.000000E0
Scans to average: 10
Electric dark correction enabled: true
Nonlinearity correction enabled: false
Boxcar width: 0
XAxis mode: Raman Shifts
Number of Pixels in Spectrum: 1044
>>>>>Begin Spectral Data<<<<<
46.04893	-0.7125
50.45542	-0.3125
54.85868	0.5875
59.25871	-0.7125
63.6555	28.2875
68.04907	32.1875
72.43941	33.2875
76.82654	34.1875
81.21044	37.7875
85.59113	37.5875
89.96862	39.4875
94.34289	39.7875
98.71396	42.3875
103.08183	42.1875
107.4465	44.0875
111.80798	45.0875
116.16626	46.6875
120.52136	45.0875
124.87327	47.2875
129.222	48.8875
133.56755	52.4875
137.90993	53.7875
142.24913	59.5875
146.58517	62.4875
150.91804	69.4875
155.24774	85.1875
159.57429	106.2875
163.89768	134.6875
168.21792	174.4875
172.53501	240.4875
176.84895	328.2875
181.15975	459.1875
185.46741	648.5875
189.77193	899.9875
194.07331	1200.4875
198.37157	1552.3875
202.6667	1929.9875
206.9587	2305.5875
211.24758	2664.2875
215.53334	3043.9875
219.81599	3449.4875
224.09553	3900.0875
228.37195	4398.8875
232.64527	4952.1875
236.91549	5498.4875
241.18261	6050.9875
245.44663	6547.9875
249.70755	6959.9875
253.96539	7296.1875
258.22014	7573.9875
262.4718	7825.8875
266.72039	7989.1875
270.96589	8058.8875
275.20832	8054.5875
279.44768	8010.0875
283.68397	7898.3875
287.91719	7836.4875
292.14735	7798.6875
296.37445	7863.1875
300.59849	7970.3875
304.81948	8121.1875
309.03742	8224.3875
313.25231	8221.9875
317.46415	8051.8875
321.67296	7713.8875
325.87872	7455.6875
330.08145	7305.9875
334.28114	7290.6875
338.47781	7366.4875
342.67145	7478.8875
346.86207	7654.7875
351.04966	7840.6875
355.23424	8073.1875
359.4158	8257.8875
363.59435	8349.2875
367.76989	8397.9875
371.94243	8396.6875
376.11196	8400.0875
380.27849	8387.8875
384.44203	8389.5875
388.60257	8373.8875
392.76012	8411.1875
396.91468	8520.9875
401.06626	8638.7875
405.21485	8753.4875
409.36047	8647.8875
413.50311	8424.6875
417.64277	8181.5875
421.77947	8053.2875
425.9132	8021.7875
430.04396	8040.2875
434.17176	8073.3875
438.2966	8142.3875
442.41849	8252.5875
446.53742	8405.6875
450.6534	8604.0875
454.76644	8709.3875
458.87653	8756.3875
462.98368	8693.9875
467.08789	8622.7875
471.18916	8535.9875
475.2875	8424.9875
479.38291	8350.6875
483.4754	8237.3875
487.56496	8180.3875
491.6516	8105.9875
495.73531	8101.1875
499.81612	8074.5875
503.89401	8119.3875
507.96899	8175.6875
512.04106	8183.1875
516.11023	8190.1875
520.1765	8198.4875
524.23987	8159.9875
528.30034	8149.6875
532.35792	8092.9875
536.41261	8005.1875
540.46441	7899.4875
544.51333	7858.4875
548.55936	7926.8875
552.60252	8070.2875
556.64279	8227.9875
560.6802	8295.8875
564.71473	8335.5875
568.7464	8476.7875
572.7752	8680.1875
576.80114	8768.4875
580.82422	8850.4875
584.84444	8997.8875
588.86181	9140.0875
592.87633	9222.0875
596.888	9311.4875
600.89682	9327.4875
604.9028	9729.9875
608.90594	11047.3875
612.90624	12732.0875
616.90371	12079.8875
620.89834	9545.6875
624.89015	8280.8875
628.87913	8081.1875
632.86528	8253.0875
636.84862	8428.1875
640.82913	8348.8875
644.80683	8060.2875
648.78172	7792.7875
652.75379	7718.3875
656.72306	7888.5875
660.68952	8071.0875
664.65319	8019.8875
668.61405	7764.3875
672.57211	7666.3875
676.52738	7685.5875
680.47986	7667.6875
684.42955	7599.2875
688.37646	7552.6875
692.32058	7548.8875
696.26192	7633.4875
700.20048	7684.6875
704.13626	7737.0875
708.06928	7772.6875
711.99952	7737.5875
715.927	7711.7875
719.85171	7741.2875
723.77365	7742.7875
727.69284	7730.0875
731.60928	7662.6875
735.52295	7656.6875
739.43388	7639.4875
743.34206	7670.9875
747.24749	7676.4875
751.15017	7704.8875
755.05012	7785.7875
758.94733	8061.7875
762.8418	8661.6875
766.73354	9710.3875
770.62254	10720.7875
774.50882	11053.4875
778.39237	10521.6875
782.27321	9486.2875
786.15132	8540.0875
790.02671	7958.4875
793.89938	7666.4875
797.76935	7538.9875
801.6366	7461.8875
805.50115	7441.4875
809.36299	7389.8875
813.22213	7370.0875
817.07857	7375.3875
820.93231	7342.1875
824.78336	7327.7875
828.63172	7289.9875
832.47738	7291.5875
836.32036	7263.5875
840.16066	7243.1875
843.99827	7241.9875
847.8332	7221.1875
851.66546	7238.9875
855.49504	7243.1875
859.32195	7223.3875
863.1462	7219.6875
866.96777	7208.2875
870.78668	7227.6875
874.60293	7258.6875
878.41652	7249.7875
882.22745	7282.3875
886.03573	7308.6875
889.84136	7311.5875
893.64433	7282.0875
897.44466	7253.2875
901.24235	7220.0875
905.0374	7194.7875
908.8298	7155.8875
912.61957	7114.1875
916.40671	7137.2875
920.19121	7202.3875
923.97308	7253.3875
927.75233	7283.4875
931.52895	7260.0875
935.30295	7181.7875
939.07433	7020.9875
942.84309	6907.5875
946.60924	6826.0875
950.37278	6781.2875
954.13371	6776.6875
957.89203	6747.1875
961.64774	6762.8875
965.40086	6742.7875
969.15137	6736.2875
972.89929	6700.7875
976.64461	6683.2875
980.38733	6670.4875
984.12747	6660.1875
987.86502	6686.7875
991.59999	6714.5875
995.33237	6780.1875
999.06217	6847.7875
1002.78939	6955.1875
1006.51404	7083.1875
1010.23611	7233.5875
1013.95561	7278.2875
1017.67255	7272.3875
1021.38692	7200.3875
1025.09872	7090.9875
1028.80796	6976.4875
1032.51465	6946.9875
1036.21877	6930.4875
1039.92035	6979.0875
1043.61937	7015.5875
1047.31584	7047.6875
1051.00976	7085.5875
1054.70114	7115.9875
1058.38998	7111.2875
1062.07627	7176.4875
1065.76003	7232.0875
1069.44126	7308.7875
1073.11995	7431.5875
1076.79611	7568.1875
1080.46974	7636.3875
1084.14085	7744.5875
1087.80943	7848.5875
1091.47549	7891.7875
1095.13903	7867.0875
1098.80005	7700.2875
1102.45857	7511.5875
1106.11456	7404.0875
1109.76805	7362.1875
1113.41903	7436.9875
1117.06751	7590.9875
1120.71348	7782.0875
1124.35696	8017.0875
1127.99793	8232.6875
1131.63641	8263.4875
1135.2724	8081.9875
1138.90589	7895.8875
1142.5369	7740.7875
1146.16542	7634.6875
1149.79145	7585.1875
1153.415	7581.1875
1157.03607	7630.4875
1160.65467	7765.0875
1164.27079	7993.1875
1167.88443	8392.6875
1171.49561	8952.9875
1175.10432	9745.4875
1178.71056	10814.8875
1182.31434	11712.5875
1185.91565	12023.6875
1189.51451	11818.3875
1193.11091	11349.6875
1196.70485	10746.7875
1200.29634	10178.6875
1203.88538	9724.8875
1207.47197	9247.7875
1211.05612	8816.4875
1214.63782	8526.2875
1218.21708	8398.7875
1221.79391	8328.5875
1225.36829	8276.8875
1228.94024	8272.4875
1232.50976	8187.2875
1236.07685	8107.6875
1239.6415	8063.2875
1243.20374	8053.4875
1246.76355	8075.2875
1250.32093	8117.1875
1253.8759	8233.3875
1257.42845	8437.5875
1260.97859	8654.9875
1264.52631	8944.9875
1268.07163	9191.4875
1271.61453	9422.9875
1275.15503	9622.1875
1278.69312	9784.9875
1282.22882	9960.5875
1285.76211	10246.6875
1289.29301	10576.1875
1292.82151	10930.0875
1296.34761	11382.2875
1299.87133	11962.0875
1303.39266	12775.7875
1306.9116	13796.7875
1310.42815	14790.8875
1313.94233	15315.6875
1317.45412	15023.2875
1320.96354	14331.2875
1324.47058	13634.1875
1327.97525	13000.4875
1331.47754	12528.7875
1334.97747	12286.9875
1338.47502	12236.9875
1341.97022	12358.6875
1345.46305	12657.8875
1348.95352	13117.6875
1352.44163	13712.4875
1355.92738	14602.6875
1359.41078	15957.5875
1362.89183	17269.7875
1366.37053	17112.3875
1369.84688	15107.4875
1373.32088	12873.9875
1376.79254	11425.1875
1380.26186	10669.8875
1383.72883	10267.8875
1387.19347	9945.1875
1390.65578	9663.6875
1394.11575	9444.7875
1397.57339	9323.4875
1401.0287	9300.3875
1404.48168	9285.1875
1407.93234	9254.0875
1411.38068	9178.9875
1414.82669	9053.8875
1418.27039	8873.1875
1421.71177	8638.8875
1425.15083	8420.8875
1428.58758	8310.9875
1432.02203	8301.6875
1435.45416	8396.8875
1438.88399	8494.5875
1442.31151	8576.1875
1445.73673	8651.9875
1449.15965	8751.6875
1452.58027	8816.9875
1455.9986	8816.2875
1459.41463	8866.1875
1462.82837	9020.4875
1466.23982	9244.0875
1469.64898	9497.4875
1473.05586	9742.5875
1476.46045	9900.7875
1479.86276	10049.0875
1483.26279	10182.0875
1486.66054	10356.4875
1490.05602	10657.9875
1493.44922	11151.9875
1496.84016	11829.4875
1500.22882	12794.6875
1503.61521	14088.4875
1506.99934	15401.5875
1510.38121	16301.7875
1513.76081	16218.6875
1517.13816	15116.0875
1520.51324	13550.0875
1523.88607	12240.1875
1527.25665	11397.3875
1530.62498	10924.7875
1533.99105	10625.7875
1537.35488	10367.7875
1540.71647	10106.0875
1544.07581	9807.0875
1547.4329	9597.9875
1550.78776	9427.1875
1554.14038	9337.3875
1557.49077	9381.3875
1560.83892	9448.6875
1564.18484	9691.1875
1567.52853	9998.0875
1570.86999	10276.9875
1574.20922	10449.1875
1577.54624	10418.1875
1580.88103	10026.7875
1584.2136	9496.8875
1587.54395	9245.8875
1590.87208	9350.2875
1594.19801	9746.5875
1597.52172	10264.6875
1600.84321	10492.7875
1604.16251	10147.0875
1607.47959	9591.9875
1610.79447	9024.0875
1614.10715	8464.3875
1617.41763	7969.3875
1620.7259	7577.1875
1624.03199	7385.2875
1627.33587	7322.6875
1630.63757	7431.3875
1633.93707	7772.2875
1637.23439	8416.2875
1640.52951	9457.9875
1643.82246	10840.2875
1647.11321	12368.2875
1650.40179	13211.9875
1653.68819	12797.2875
1656.97241	11243.2875
1660.25446	9481.6875
1663.53433	8136.8875
1666.81203	7323.3875
1670.08756	6818.9875
1673.36092	6503.8875
1676.63211	6312.2875
1679.90115	6205.6875
1683.16801	6083.6875
1686.43272	5983.4875
1689.69527	5904.6875
1692.95567	5849.9875
1696.2139	5815.1875
1699.46999	5781.9875
1702.72392	5729.6875
1705.97571	5710.5875
1709.22535	5693.5875
1712.47284	5675.0875
1715.71819	5666.2875
1718.96139	5616.1875
1722.20246	5592.9875
1725.44139	5561.1875
1728.67818	5531.8875
1731.91284	5473.1875
1735.14537	5440.0875
1738.37576	5418.9875
1741.60403	5376.6875
1744.83017	5342.5875
1748.05418	5339.0875
1751.27607	5328.7875
1754.49584	5289.2875
1757.71349	5286.0875
1760.92903	5275.3875
1764.14244	5282.8875
1767.35375	5279.8875
1770.56294	5242.3875
1773.77002	5204.8875
1776.97499	5202.5875
1780.17785	5196.6875
1783.37861	5174.5875
1786.57727	5145.6875
1789.77382	5137.2875
1792.96828	5138.3875
1796.16064	5124.3875
1799.3509	5116.6875
1802.53907	5105.2875
1805.72514	5074.5875
1808.90913	5066.1875
1812.09102	5056.6875
1815.27083	5050.8875
1818.44856	5038.5875
1821.6242	5004.8875
1824.79776	4999.6875
1827.96924	4987.5875
1831.13864	4976.6875
1834.30597	4960.2875
1837.47122	4968.4875
1840.6344	4946.4875
1843.7955	4947.4875
1846.95454	4943.1875
1850.11151	4935.8875
1853.26642	4929.4875
1856.41926	4911.4875
1859.57004	4919.8875
1862.71876	4894.5875
1865.86542	4891.7875
1869.01003	4886.1875
1872.15258	4896.7875
1875.29308	4870.0875
1878.43152	4872.6875
1881.56792	4857.6875
1884.70227	4849.5875
1887.83457	4853.8875
1890.96482	4851.9875
1894.09304	4831.6875
1897.21921	4818.8875
1900.34335	4794.5875
1903.46544	4795.0875
1906.58551	4799.5875
1909.70353	4800.0875
1912.81953	4788.5875
1915.93349	4772.2875
1919.04543	4768.7875
1922.15534	4748.1875
1925.26322	4740.9875
1928.36908	4711.1875
1931.47292	4704.9875
1934.57473	4704.5875
1937.67453	4681.8875
1940.77232	4676.8875
1943.86808	4641.6875
1946.96184	4637.6875
1950.05358	4623.9875
1953.14331	4612.8875
1956.23103	4600.8875
1959.31675	4560.5875
1962.40046	4549.4875
1965.48217	4551.2875
1968.56188	4530.1875
1971.63959	4516.8875
1974.7153	4499.7875
1977.78901	4494.3875
1980.86073	4469.3875
1983.93046	4456.0875
1986.99819	4432.1875
1990.06394	4415.9875
1993.1277	4411.1875
1996.18947	4399.1875
1999.24925	4379.4875
2002.30706	4365.6875
2005.36288	4336.0875
2008.41672	4324.6875
2011.46859	4306.4875
2014.51848	4295.3875
2017.56639	4279.8875
2020.61233	4278.2875
2023.6563	4256.2875
2026.6983	4245.1875
2029.73833	4220.6875
2032.7764	4209.4875
2035.8125	4198.7875
2038.84664	4192.1875
2041.87881	4173.7875
2044.90903	4171.5875
2047.93729	4153.9875
2050.96359	4167.0875
2053.98794	4143.3875
2057.01034	4137.8875
2060.03078	4129.5875
2063.04927	4129.4875
2066.06582	4120.3875
2069.08042	4109.7875
2072.09307	4110.6875
2075.10378	4103.2875
2078.11255	4108.0875
2081.11938	4102.1875
2084.12426	4102.5875
2087.12722	4099.7875
2090.12824	4094.7875
2093.12732	4090.8875
2096.12447	4092.6875
2099.11969	4082.8875
2102.11299	4081.4875
2105.10435	4081.7875
2108.09379	4099.6875
2111.08131	4093.1875
2114.0669	4095.4875
2117.05057	4084.5875
2120.03233	4099.2875
2123.01216	4089.8875
2125.99008	4102.8875
2128.96609	4097.0875
2131.94018	4095.9875
2134.91236	4098.0875
2137.88263	4080.6875
2140.851	4102.4875
2143.81746	4123.7875
2146.78201	4146.2875
2149.74466	4095.3875
2152.7054	4076.6875
2155.66425	4087.5875
2158.6212	4059.3875
2161.57625	4066.9875
2164.52941	4052.7875
2167.48067	4050.7875
2170.43004	4048.8875
2173.37752	4056.8875
2176.32311	4041.1875
2179.26681	4047.2875
2182.20863	4037.7875
2185.14856	4037.0875
2188.08661	4041.2875
2191.02278	4039.4875
2193.95707	4048.8875
2196.88948	4032.3875
2199.82001	4019.1875
2202.74867	4004.9875
2205.67545	4002.9875
2208.60037	3985.1875
2211.52341	3978.4875
2214.44458	3967.9875
2217.36388	3958.8875
2220.28132	3963.3875
2223.1969	3937.7875
2226.11061	3940.6875
2229.02246	3935.3875
2231.93245	3911.6875
2234.84058	3922.3875
2237.74686	3908.1875
2240.65128	3898.2875
2243.55385	3875.4875
2246.45456	3891.0875
2249.35343	3878.9875
2252.25044	3879.1875
2255.14561	3892.1875
2258.03893	3871.1875
2260.93041	3866.4875
2263.82004	3859.3875
2266.70783	3840.4875
2269.59378	3832.7875
2272.4779	3828.7875
2275.36017	3826.8875
2278.24061	3811.5875
2281.11922	3796.9875
2283.996	3780.9875
2286.87094	3784.2875
2289.74405	3773.8875
2292.61534	3762.2875
2295.4848	3755.8875
2298.35243	3763.1875
2301.21824	3759.9875
2304.08223	3727.6875
2306.94439	3729.2875
2309.80474	3732.7875
2312.66327	3731.8875
2315.51999	3735.2875
2318.37489	3720.6875
2321.22797	3708.1875
2324.07925	3713.1875
2326.92871	3700.4875
2329.77637	3704.8875
2332.62222	3695.5875
2335.46626	3677.1875
2338.3085	3663.0875
2341.14893	3672.7875
2343.98756	3659.4875
2346.8244	3672.6875
2349.65943	3680.1875
2352.49267	3671.1875
2355.32411	3666.1875
2358.15376	3677.1875
2360.98161	3671.2875
2363.80768	3669.9875
2366.63195	3686.0875
2369.45444	3695.7875
2372.27514	3670.7875
2375.09405	3674.9875
2377.91118	3666.1875
2380.72652	3657.3875
2383.54009	3639.6875
2386.35187	3628.5875
2389.16188	3608.0875
2391.97011	3602.4875
2394.77657	3590.3875
2397.58125	3564.1875
2400.38416	3572.4875
2403.18529	3555.6875
2405.98466	3553.7875
2408.78226	3538.8875
2411.57809	3531.8875
2414.37216	3532.0875
2417.16446	3522.8875
2419.955	3527.9875
2422.74378	3520.4875
2425.5308	3521.9875
2428.31606	3496.5875
2431.09956	3506.3875
2433.88131	3499.0875
2436.6613	3492.8875
2439.43954	3502.8875
2442.21603	3490.1875
2444.99077	3491.0875
2447.76377	3483.4875
2450.53501	3481.7875
2453.30451	3483.4875
2456.07226	3488.0875
2458.83827	3479.9875
2461.60254	3493.1875
2464.36507	3502.5875
2467.12586	3478.9875
2469.88492	3483.6875
2472.64224	3473.2875
2475.39782	3469.8875
2478.15167	3476.1875
2480.90379	3486.2875
2483.65417	3484.0875
2486.40283	3490.4875
2489.14976	3483.6875
2491.89497	3486.7875
2494.63845	3482.9875
2497.3802	3488.4875
2500.12024	3473.3875
2502.85855	3460.9875
2505.59514	3463.7875
2508.33002	3443.2875
2511.06318	3426.3875
2513.79462	3444.9875
2516.52435	3402.8875
2519.25237	3408.7875
2521.97867	3409.1875
2524.70327	3384.4875
2527.42616	3390.1875
2530.14734	3378.3875
2532.86681	3376.9875
2535.58458	3374.9875
2538.30065	3364.1875
2541.01501	3371.8875
2543.72768	3376.9875
2546.43864	3361.6875
2549.14791	3353.3875
2551.85548	3359.9875
2554.56136	3347.6875
2557.26554	3323.5875
2559.96803	3326.0875
2562.66883	3331.8875
2565.36794	3329.3875
2568.06536	3328.2875
2570.7611	3318.7875
2573.45514	3296.1875
2576.14751	3300.2875
2578.83819	3301.2875
2581.52719	3293.0875
2584.21451	3290.3875
2586.90015	3281.4875
2589.58411	3270.2875
2592.2664	3274.5875
2594.94701	3263.0875
2597.62594	3255.0875
2600.30321	3242.5875
2602.9788	3246.8875
2605.65273	3247.3875
2608.32498	3244.8875
2610.99557	3237.7875
2613.66449	3236.7875
2616.33175	3223.4875
2618.99734	3243.4875
2621.66128	3213.6875
2624.32355	3230.4875
2626.98416	3223.8875
2629.64311	3210.4875
2632.30041	3209.6875
2634.95605	3207.5875
2637.61004	3197.6875
2640.26238	3192.0875
2642.91306	3195.0875
2645.56209	3201.4875
2648.20948	3192.2875
2650.85521	3187.5875
2653.4993	3175.0875
2656.14175	3185.2875
2658.78255	3203.0875
2661.42171	3195.1875
2664.05923	3206.8875
2666.6951	3197.7875
2669.32934	3193.7875
2671.96194	3185.2875
2674.59291	3194.2875
2677.22224	3200.0875
2679.84993	3196.6875
2682.476	3187.3875
2685.10043	3184.8875
2687.72324	3176.0875
2690.34441	3171.0875
2692.96396	3178.7875
2695.58188	3191.4875
2698.19818	3189.8875
2700.81285	3174.5875
2703.4259	3169.4875
2706.03733	3164.4875
2708.64714	3173.5875
2711.25533	3171.7875
2713.86191	3181.6875
2716.46687	3173.7875
2719.07021	3184.7875
2721.67194	3181.8875
2724.27206	3187.5875
2726.87057	3185.0875
2729.46747	3181.8875
2732.06276	3172.2875
2734.65644	3173.1875
2737.24852	3164.9875
2739.83899	3164.7875
2742.42786	3167.1875
2745.01513	3143.3875
2747.60079	3149.3875
2750.18486	3139.5875
2752.76733	3140.9875
2755.3482	3128.7875
2757.92747	3136.1875
2760.50515	3120.8875
2763.08123	3125.5875
2765.65573	3118.5875
2768.22863	3131.2875
2770.79994	3117.6875
2773.36967	3115.0875
2775.9378	3097.7875
2778.50435	3098.6875
2781.06932	3098.4875
2783.6327	3099.8875
2786.1945	3104.2875
2788.75471	3100.4875
2791.31335	3089.5875
2793.87041	3087.1875
2796.42589	3066.6875
2798.97979	3082.1875
2801.53212	3081.7875
2804.08288	3075.1875
2806.63206	3058.4875
2809.17967	3066.4875
2811.72571	3064.3875
2814.27018	3070.4875
2816.81308	3057.1875
2819.35442	3051.0875
2821.89419	3045.0875
2824.43239	3048.7875
2826.96904	3033.9875
2829.50412	3034.9875
2832.03763	3036.3875
2834.56959	3044.8875
2837.1	3038.6875
2839.62884	3045.1875
2842.15613	3035.5875
2844.68186	3047.0875
2847.20604	3034.4875
2849.72867	3055.0875
2852.24974	3049.7875
2854.76927	3049.3875
2857.28724	3026.3875
2859.80367	3038.6875
2862.31855	3035.3875
2864.83189	3047.6875
2867.34368	3039.5875
2869.85393	3029.7875
2872.36264	3029.5875
2874.8698	3040.7875
2877.37543	3039.0875
2879.87952	3030.5875
2882.38207	3021.8875
2884.88308	3027.4875
2887.38256	3029.5875
2889.88051	3009.0875
2892.37692	3025.6875
2894.8718	3027.4875
2897.36515	3035.2875
2899.85698	3023.3875
2902.34727	3020.9875
2904.83604	3017.5875
2907.32328	3021.0875
2909.809	3018.5875
2912.29319	3029.5875
2914.77587	3028.2875
2917.25702	3038.3875
2919.73665	3038.0875
2922.21476	3016.1875
2924.69136	3030.7875
2927.16644	3028.6875
2929.64	3028.6875
2932.11205	3004.1875
2934.58258	2998.5875
2937.05161	2995.1875
2939.51912	2995.1875
2941.98513	2986.3875
2944.44962	2976.4875
2946.91261	2972.8875
2949.37409	2965.5875
2951.83407	2975.4875
2954.29254	2971.7875
2956.74951	2978.1875
2959.20498	2963.1875
2961.65895	2957.5875
2964.11142	2960.6875
2966.56239	2953.1875
2969.01186	2948.2875
2971.45984	2936.8875
2973.90632	2935.1875
2976.35131	2928.8875
2978.7948	2921.6875
2981.23681	2909.0875
2983.67732	2911.0875
2986.11635	2902.3875
2988.55388	2892.4875
2990.98993	2897.3875
2993.4245	2891.5875
2995.85758	2876.0875
2998.28917	2880.4875
3000.71928	2863.8875
3003.14791	2868.3875
3005.57506	2867.2875
3008.00073	2862.8875
3010.42493	2868.3875
3012.84764	2856.3875
3015.26888	2856.0875
3017.68865	2845.4875
3020.10694	2866.9875
3022.52376	2838.6875
3024.9391	2839.7875
3027.35298	2843.0875
3029.76539	2826.0875
3032.17632	2816.6875
3034.5858	2813.8875
3036.9938	2807.1875
3039.40034	2813.0875
3041.80542	2807.2875
3044.20903	2816.3875
3046.61118	2803.1875
3049.01187	2817.6875
3051.4111	2794.6875
3053.80888	2786.9875
3056.20519	2793.3875
3058.60005	2774.3875
3060.99345	2778.8875
3063.3854	2771.2875
3065.7759	2778.1875
3068.16494	2758.2875
3070.55254	2753.1875
3072.93868	2754.4875
3075.32338	2738.0875
3077.70662	2750.4875
3080.08842	2739.5875
3082.46878	2738.4875
3084.84769	2745.3875
3087.22515	2749.3875
3089.60118	2755.1875
3091.97576	2756.9875
3094.3489	2764.3875
3096.72061	2745.5875
3099.09087	2756.2875
3101.4597	2761.2875
3103.82709	2746.7875
3106.19305	2755.4875
3108.55757	2753.9875
3110.92066	2741.5875
3113.28232	2748.3875
3115.64255	2743.2875
3118.00134	2743.3875
3120.35871	2744.5875
3122.71466	2752.7875
3125.06917	2735.0875
3127.42226	2734.7875
3129.77393	2731.7875
3132.12417	2729.3875
3134.47299	2738.6875
3136.82039	2742.3875
3139.16636	2724.1875
3141.51092	2739.6875
3143.85406	2754.2875
3146.19579	2741.6875
3148.53609	2747.5875
3150.87499	2766.5875
3153.21246	2771.9875
3155.54853	2781.5875
3157.88318	2783.3875
3160.21642	2774.0875
3162.54826	2783.8875
3164.87868	2787.6875
3167.2077	2787.2875
3169.5353	2794.9875
3171.86151	2790.4875
3174.18631	2788.8875
3176.5097	2788.0875
3178.83169	2799.0875
3181.15228	2799.4875
3183.47147	2788.8875
3185.78926	2791.1875
3188.10565	2791.9875
3190.42065	2795.7875
3192.73424	2798.5875
3195.04645	2800.4875
3197.35725	2792.5875
3199.66667	2794.7875
3201.97469	2801.6875
3204.28132	2814.1875
3206.58656	2810.3875
3208.8904	2808.9875
3211.19287	2806.5875
3213.49394	2815.5875
3215.79363	2823.4875
3218.09193	2824.9875
3220.38884	2844.6875
3222.68438	2830.4875
3224.97853	2829.2875
3227.2713	2825.8875
3229.56269	2817.2875
3231.8527	2812.4875
3234.14133	2822.4875
3236.42858	2814.6875
3238.71446	2810.8875
3240.99896	2792.1875
3243.28209	2802.0875
3245.56384	2804.4875
3247.84423	2790.1875
3250.12324	2798.2875
3252.40088	2779.9875
3254.67715	2787.6875
3256.95205	2784.5875
3259.22558	2790.3875
3261.49775	2791.6875
3263.76855	2780.1875
3266.03799	2771.3875
3268.30606	2782.1875
3270.57277	2775.8875
3272.83812	2762.1875
3275.10211	2760.6875
3277.36474	2768.0875
3279.62601	2762.9875
3281.88593	2743.3875
3284.14448	2764.8875
3286.40168	2762.5875
3288.65753	2759.7875
3290.91202	2748.0875
3293.16516	2739.2875
3295.41695	2745.5875
3297.66738	2724.0875
3299.91647	2715.9875
3302.16421	2691.6875
3304.4106	2692.4875
3306.65564	2683.4875
3308.89933	2661.4875
3311.14169	2648.2875
3313.38269	2624.5875
3315.62236	2612.8875
3317.86068	2582.9875
3320.09766	2579.5875
3322.3333	2553.9875
3324.5676	2558.8875
3326.80056	2510.7875
3329.03219	2493.0875
3331.26248	1.1875
3333.49143	-1.1125
3335.71905	0.2875
