Data from AgNP_FTO_APTES_UA_100uM_CRN_20uM_R6G_10uM_NaF_0.1M_Addition_RamanShift__10__16-37-30-486.txt Node

Date: Thu Mar 24 16:37:30 GMT 2022
User: TCL
Spectrometer: QEP01345
Trigger mode: 4
Integration Time (sec): 7.000000E0
Scans to average: 10
Electric dark correction enabled: true
Nonlinearity correction enabled: false
Boxcar width: 0
XAxis mode: Raman Shifts
Number of Pixels in Spectrum: 1044
>>>>>Begin Spectral Data<<<<<
46.04893	-1.4
50.45542	0
54.85868	0
59.25871	-0.5
63.6555	40.6
68.04907	46.2
72.43941	44.2
76.82654	45.4
81.21044	50.5
85.59113	51.6
89.96862	53.7
94.34289	52
98.71396	55.5
103.08183	55.4
107.4465	58.9
111.80798	62.1
116.16626	60.1
120.52136	64.1
124.87327	63.8
129.222	69.4
133.56755	75.4
137.90993	78.4
142.24913	89.4
146.58517	101
150.91804	119.3
155.24774	141.2
159.57429	175.8
163.89768	229.2
168.21792	309.5
172.53501	429.6
176.84895	597.9
181.15975	845.5
185.46741	1190.1
189.77193	1659.1
194.07331	2221.1
198.37157	2884.7
202.6667	3565.9
206.9587	4252.2
211.24758	4939.8
215.53334	5630.2
219.81599	6378.1
224.09553	7208.2
228.37195	8133.6
232.64527	9145.3
236.91549	10159.9
241.18261	11181.5
245.44663	12091.7
249.70755	12827.4
253.96539	13453.8
258.22014	13984.4
262.4718	14427.2
266.72039	14753.6
270.96589	14927.6
275.20832	14928.8
279.44768	14760.1
283.68397	14588.6
287.91719	14443.2
292.14735	14395
296.37445	14504.3
300.59849	14705.3
304.81948	15038.9
309.03742	15262.6
313.25231	15287.6
317.46415	14973.8
321.67296	14486.2
325.87872	13996.4
330.08145	13788.9
334.28114	13825.5
338.47781	13962.5
342.67145	14198.7
346.86207	14502.1
351.04966	14940.2
355.23424	15371.4
359.4158	15691.7
363.59435	15873.9
367.76989	15964.6
371.94243	15977.7
376.11196	15984.1
380.27849	15954.3
384.44203	15965.9
388.60257	15996.5
392.76012	16067.7
396.91468	16246.1
401.06626	16510.7
405.21485	16652
409.36047	16476.1
413.50311	16022
417.64277	15599.5
421.77947	15383.3
425.9132	15333.8
430.04396	15369.3
434.17176	15440.2
438.2966	15604.2
442.41849	15844.1
446.53742	16221.6
450.6534	16611.6
454.76644	16849.4
458.87653	16920.8
462.98368	16799.7
467.08789	16682.7
471.18916	16443
475.2875	16183.9
479.38291	15970.2
483.4754	15784.8
487.56496	15655.3
491.6516	15545.5
495.73531	15505
499.81612	15460.9
503.89401	15587.9
507.96899	15639.1
512.04106	15714.4
516.11023	15774.8
520.1765	15810.8
524.23987	15810.2
528.30034	15783
532.35792	15697.2
536.41261	15517
540.46441	15337.8
544.51333	15261.1
548.55936	15357.1
552.60252	15604.1
556.64279	15926.2
560.6802	16099.7
564.71473	16178.1
568.7464	16420
572.7752	16728.1
576.80114	16831.5
580.82422	16895.8
584.84444	17195
588.86181	17535.2
592.87633	18037.4
596.888	18268.3
600.89682	18211.3
604.9028	18792.6
608.90594	21290.1
612.90624	24511.3
616.90371	23300.2
620.89834	18479
624.89015	16203.7
628.87913	15828.1
632.86528	16081.1
636.84862	16348.2
640.82913	16137.4
644.80683	15625
648.78172	15247
652.75379	15224.8
656.72306	15530
660.68952	15980.4
664.65319	15851.5
668.61405	15396.4
672.57211	15226.5
676.52738	15295
680.47986	15265.2
684.42955	15151
688.37646	15072.6
692.32058	15089.9
696.26192	15212.6
700.20048	15399.9
704.13626	15558.1
708.06928	15553.5
711.99952	15475.7
715.927	15459.7
719.85171	15478.6
723.77365	15504.9
727.69284	15426.4
731.60928	15310.2
735.52295	15265.3
739.43388	15319
743.34206	15358.9
747.24749	15404.7
751.15017	15463.5
755.05012	15644.5
758.94733	16075.7
762.8418	17206.9
766.73354	19084.2
770.62254	20953.7
774.50882	21529.9
778.39237	20646.3
782.27321	18821.7
786.15132	17144.1
790.02671	16056
793.89938	15526.3
797.76935	15254.1
801.6366	15125.5
805.50115	15063
809.36299	14999.5
813.22213	14956.1
817.07857	14927.3
820.93231	14899.2
824.78336	14877.5
828.63172	14910.1
832.47738	14884.1
836.32036	14844.6
840.16066	14834.8
843.99827	14838.8
847.8332	14815.7
851.66546	14802.5
855.49504	14840.7
859.32195	14846.9
863.1462	14850.9
866.96777	14807.6
870.78668	14821.1
874.60293	14853.7
878.41652	14879
882.22745	14955.2
886.03573	15001.4
889.84136	15013.5
893.64433	14954.5
897.44466	14915.8
901.24235	14881.4
905.0374	14817.3
908.8298	14771.7
912.61957	14726
916.40671	14778.5
920.19121	14862.9
923.97308	14996.8
927.75233	15075.1
931.52895	15064.8
935.30295	14885.2
939.07433	14647.7
942.84309	14414.6
946.60924	14295.6
950.37278	14221.5
954.13371	14196.8
957.89203	14181.4
961.64774	14192.5
965.40086	14169.8
969.15137	14119.4
972.89929	14105.7
976.64461	14103.1
980.38733	14098.4
984.12747	14136.7
987.86502	14218.3
991.59999	14230.5
995.33237	14323.4
999.06217	14495.7
1002.78939	14719.1
1006.51404	15001.8
1010.23611	15275.8
1013.95561	15398.4
1017.67255	15433.6
1021.38692	15247.1
1025.09872	15014.3
1028.80796	14805.2
1032.51465	14711.1
1036.21877	14750.2
1039.92035	14817
1043.61937	14873.9
1047.31584	14938.9
1051.00976	15003
1054.70114	14997.3
1058.38998	15035.2
1062.07627	15130.6
1065.76003	15259.7
1069.44126	15379.1
1073.11995	15628.6
1076.79611	15921.6
1080.46974	16132.5
1084.14085	16333.1
1087.80943	16543
1091.47549	16686.6
1095.13903	16579.7
1098.80005	16309.5
1102.45857	15997.4
1106.11456	15797
1109.76805	15741.2
1113.41903	15870.8
1117.06751	16121.2
1120.71348	16442.5
1124.35696	16861.7
1127.99793	17210.1
1131.63641	17236.6
1135.2724	16886.3
1138.90589	16523.4
1142.5369	16314.8
1146.16542	16192.9
1149.79145	16140.2
1153.415	16078.2
1157.03607	16146.7
1160.65467	16362.4
1164.27079	16827.2
1167.88443	17534.7
1171.49561	18582.2
1175.10432	20001.7
1178.71056	21983.6
1182.31434	23697.5
1185.91565	24257.5
1189.51451	23905.8
1193.11091	23067.5
1196.70485	22065.3
1200.29634	21082.3
1203.88538	20231.2
1207.47197	19348
1211.05612	18615.3
1214.63782	18090.3
1218.21708	17809.9
1221.79391	17672.2
1225.36829	17668.4
1228.94024	17617.2
1232.50976	17480.5
1236.07685	17227.4
1239.6415	17175.6
1243.20374	17161.5
1246.76355	17227.8
1250.32093	17353.8
1253.8759	17553.9
1257.42845	17931.3
1260.97859	18423.5
1264.52631	18914.5
1268.07163	19466.5
1271.61453	19871.4
1275.15503	20228.2
1278.69312	20488.9
1282.22882	20813.2
1285.76211	21310.2
1289.29301	22029.7
1292.82151	22795.7
1296.34761	23644.5
1299.87133	24766.8
1303.39266	26270.9
1306.9116	28219.9
1310.42815	30182.4
1313.94233	31072.1
1317.45412	30334.4
1320.96354	28936.8
1324.47058	27471.8
1327.97525	26120.9
1331.47754	25125.8
1334.97747	24700.3
1338.47502	24663.6
1341.97022	24980.8
1345.46305	25679.6
1348.95352	26716.5
1352.44163	28005.9
1355.92738	29775.2
1359.41078	32334.3
1362.89183	34791
1366.37053	34217.8
1369.84688	30312.4
1373.32088	25964.9
1376.79254	23272.4
1380.26186	21953.5
1383.72883	21340
1387.19347	20835.9
1390.65578	20303.4
1394.11575	19869.4
1397.57339	19611.6
1401.0287	19474.3
1404.48168	19396.8
1407.93234	19254.1
1411.38068	19106.1
1414.82669	18935.8
1418.27039	18668.8
1421.71177	18353.9
1425.15083	17967.6
1428.58758	17739.7
1432.02203	17858
1435.45416	18045.3
1438.88399	18224.5
1442.31151	18349.5
1445.73673	18471.6
1449.15965	18594
1452.58027	18606.2
1455.9986	18577.1
1459.41463	18623.4
1462.82837	18863.4
1466.23982	19297.8
1469.64898	19748.2
1473.05586	20166.2
1476.46045	20409
1479.86276	20662.1
1483.26279	20870.1
1486.66054	21149.6
1490.05602	21701.2
1493.44922	22593.8
1496.84016	23811.5
1500.22882	25668.8
1503.61521	28048.4
1506.99934	30467.2
1510.38121	32081.3
1513.76081	31922.8
1517.13816	29832.1
1520.51324	27013.6
1523.88607	24619.5
1527.25665	23240.2
1530.62498	22450.6
1533.99105	21954.4
1537.35488	21515.5
1540.71647	21018.8
1544.07581	20531.4
1547.4329	20070.6
1550.78776	19768.4
1554.14038	19622.1
1557.49077	19647.8
1560.83892	19823.8
1564.18484	20206.8
1567.52853	20752.6
1570.86999	21264.6
1574.20922	21637.3
1577.54624	21611.6
1580.88103	20867.1
1584.2136	19893.5
1587.54395	19477.2
1590.87208	19705.7
1594.19801	20573.4
1597.52172	21668.6
1600.84321	22133.6
1604.16251	21472.5
1607.47959	20417.5
1610.79447	19233
1614.10715	18060.3
1617.41763	17048.3
1620.7259	16330
1624.03199	15925.1
1627.33587	15853.5
1630.63757	16146.4
1633.93707	16746.2
1637.23439	17999.1
1640.52951	19969.1
1643.82246	22766
1647.11321	25523.1
1650.40179	26864.7
1653.68819	25640.1
1656.97241	22519.7
1660.25446	19256.6
1663.53433	16892.5
1666.81203	15493.1
1670.08756	14645.4
1673.36092	14154.1
1676.63211	13800.6
1679.90115	13560.9
1683.16801	13377.9
1686.43272	13220.1
1689.69527	13121.8
1692.95567	12993
1696.2139	12936.9
1699.46999	12882.4
1702.72392	12816
1705.97571	12788.6
1709.22535	12769.9
1712.47284	12738.4
1715.71819	12743.6
1718.96139	12696.7
1722.20246	12636
1725.44139	12577.7
1728.67818	12526.4
1731.91284	12440.4
1735.14537	12375.5
1738.37576	12327
1741.60403	12271.2
1744.83017	12233.4
1748.05418	12193.2
1751.27607	12181.5
1754.49584	12119
1757.71349	12093.9
1760.92903	12074.5
1764.14244	12093.2
1767.35375	12088
1770.56294	12016.4
1773.77002	11959.4
1776.97499	11979.2
1780.17785	11927.2
1783.37861	11893
1786.57727	11894.9
1789.77382	11832.9
1792.96828	11863
1796.16064	11810.4
1799.3509	11757.2
1802.53907	11776.4
1805.72514	11707.6
1808.90913	11691.5
1812.09102	11664.5
1815.27083	11636.1
1818.44856	11618.3
1821.6242	11598.9
1824.79776	11542.3
1827.96924	11543.2
1831.13864	11525.4
1834.30597	11514.9
1837.47122	11495.1
1840.6344	11482
1843.7955	11471
1846.95454	11424
1850.11151	11409.2
1853.26642	11386.7
1856.41926	11421.5
1859.57004	11376.8
1862.71876	11387.2
1865.86542	11349.9
1869.01003	11322.2
1872.15258	11335.5
1875.29308	11307.1
1878.43152	11306
1881.56792	11315.5
1884.70227	11289.3
1887.83457	11306.9
1890.96482	11286.5
1894.09304	11256.6
1897.21921	11231.6
1900.34335	11210.7
1903.46544	11201.3
1906.58551	11222.8
1909.70353	11195.3
1912.81953	11170.1
1915.93349	11137.1
1919.04543	11106.8
1922.15534	11107.3
1925.26322	11042
1928.36908	11032.9
1931.47292	10999.8
1934.57473	10971.4
1937.67453	10947.8
1940.77232	10942.7
1943.86808	10912.2
1946.96184	10877.2
1950.05358	10817
1953.14331	10766.1
1956.23103	10748.1
1959.31675	10719.8
1962.40046	10681.9
1965.48217	10666.4
1968.56188	10641.4
1971.63959	10624.4
1974.7153	10591.1
1977.78901	10563.4
1980.86073	10531.4
1983.93046	10465.7
1986.99819	10439.3
1990.06394	10387.5
1993.1277	10358.2
1996.18947	10357.6
1999.24925	10313.4
2002.30706	10254.4
2005.36288	10223.8
2008.41672	10174.9
2011.46859	10141.2
2014.51848	10138.6
2017.56639	10090.1
2020.61233	10060
2023.6563	10056
2026.6983	10027.2
2029.73833	9975.7
2032.7764	9927.6
2035.8125	9909.7
2038.84664	9884.7
2041.87881	9872.4
2044.90903	9876.4
2047.93729	9847.8
2050.96359	9833.4
2053.98794	9821.6
2057.01034	9796.6
2060.03078	9774
2063.04927	9730
2066.06582	9738.5
2069.08042	9742.9
2072.09307	9734.6
2075.10378	9721.4
2078.11255	9719.7
2081.11938	9739.8
2084.12426	9702.4
2087.12722	9704.6
2090.12824	9709.6
2093.12732	9705
2096.12447	9713.4
2099.11969	9727.9
2102.11299	9702.2
2105.10435	9721.4
2108.09379	9733.7
2111.08131	9713.8
2114.0669	9732.1
2117.05057	9721.9
2120.03233	9729.9
2123.01216	9728.4
2125.99008	9745.5
2128.96609	9763.3
2131.94018	9772.1
2134.91236	9747.7
2137.88263	9746
2140.851	9747.7
2143.81746	9772.7
2146.78201	9759.9
2149.74466	9746.7
2152.7054	9731.8
2155.66425	9717.5
2158.6212	9710.9
2161.57625	9721.2
2164.52941	9680
2167.48067	9699.1
2170.43004	9681.9
2173.37752	9694.1
2176.32311	9697.9
2179.26681	9705.5
2182.20863	9671.4
2185.14856	9662
2188.08661	9653.1
2191.02278	9669.6
2193.95707	9652.8
2196.88948	9636.1
2199.82001	9628.6
2202.74867	9591.9
2205.67545	9591.4
2208.60037	9589.7
2211.52341	9574.7
2214.44458	9559.1
2217.36388	9501.9
2220.28132	9508.3
2223.1969	9497.9
2226.11061	9484.9
2229.02246	9441.6
2231.93245	9419.7
2234.84058	9395
2237.74686	9406.2
2240.65128	9405
2243.55385	9379.1
2246.45456	9367.7
2249.35343	9340.7
2252.25044	9336.1
2255.14561	9324.4
2258.03893	9330.3
2260.93041	9288.2
2263.82004	9276.6
2266.70783	9252.1
2269.59378	9247.9
2272.4779	9226.2
2275.36017	9206
2278.24061	9192.5
2281.11922	9173.4
2283.996	9136.6
2286.87094	9096.1
2289.74405	9110.7
2292.61534	9093.3
2295.4848	9059.5
2298.35243	9051.1
2301.21824	9049.5
2304.08223	9043.7
2306.94439	9054.1
2309.80474	9031.6
2312.66327	9013.6
2315.51999	9007
2318.37489	8992.3
2321.22797	8986.4
2324.07925	8960.7
2326.92871	8945.6
2329.77637	8952.3
2332.62222	8921.9
2335.46626	8898.5
2338.3085	8886.7
2341.14893	8886
2343.98756	8864.3
2346.8244	8876.6
2349.65943	8882.5
2352.49267	8881.3
2355.32411	8891.7
2358.15376	8874.5
2360.98161	8900.4
2363.80768	8884.8
2366.63195	8875.8
2369.45444	8880.6
2372.27514	8863.8
2375.09405	8849.9
2377.91118	8827.7
2380.72652	8823.1
2383.54009	8802.7
2386.35187	8778.1
2389.16188	8738
2391.97011	8709.4
2394.77657	8683.1
2397.58125	8666.5
2400.38416	8647.8
2403.18529	8630.6
2405.98466	8641.4
2408.78226	8625.2
2411.57809	8614.5
2414.37216	8569.2
2417.16446	8584.4
2419.955	8566.3
2422.74378	8541.2
2425.5308	8555.4
2428.31606	8545.8
2431.09956	8530.6
2433.88131	8546.6
2436.6613	8550.5
2439.43954	8524.4
2442.21603	8493.8
2444.99077	8482.8
2447.76377	8490.6
2450.53501	8498.6
2453.30451	8494.6
2456.07226	8475.5
2458.83827	8458.1
2461.60254	8472.3
2464.36507	8472
2467.12586	8454.4
2469.88492	8456.6
2472.64224	8463.4
2475.39782	8482.3
2478.15167	8485.7
2480.90379	8470.7
2483.65417	8480.9
2486.40283	8475.3
2489.14976	8485.7
2491.89497	8486
2494.63845	8467.9
2497.3802	8448.1
2500.12024	8436.1
2502.85855	8426.8
2505.59514	8417.8
2508.33002	8384.2
2511.06318	8378.9
2513.79462	8364.2
2516.52435	8348.6
2519.25237	8346.9
2521.97867	8313.3
2524.70327	8310.1
2527.42616	8296.5
2530.14734	8284.8
2532.86681	8250.8
2535.58458	8268
2538.30065	8240.2
2541.01501	8236.7
2543.72768	8228.2
2546.43864	8211.4
2549.14791	8217.3
2551.85548	8216.1
2554.56136	8185.3
2557.26554	8172.3
2559.96803	8149.2
2562.66883	8139.5
2565.36794	8114
2568.06536	8112.1
2570.7611	8112.9
2573.45514	8096.4
2576.14751	8064.3
2578.83819	8061.4
2581.52719	8068.6
2584.21451	8034
2586.90015	8026.8
2589.58411	8036.1
2592.2664	8010.5
2594.94701	7985.5
2597.62594	8003
2600.30321	7969.5
2602.9788	7984
2605.65273	7949.9
2608.32498	7954.1
2610.99557	7910.1
2613.66449	7923.9
2616.33175	7927.8
2618.99734	7935.2
2621.66128	7901.7
2624.32355	7902.1
2626.98416	7889.1
2629.64311	7869.3
2632.30041	7838.6
2634.95605	7829.5
2637.61004	7847
2640.26238	7828.6
2642.91306	7821.1
2645.56209	7836.5
2648.20948	7814
2650.85521	7805.1
2653.4993	7816
2656.14175	7798.6
2658.78255	7821.3
2661.42171	7833.5
2664.05923	7850.7
2666.6951	7826.1
2669.32934	7846.5
2671.96194	7827.3
2674.59291	7840.4
2677.22224	7821.7
2679.84993	7830.4
2682.476	7798.7
2685.10043	7796.1
2687.72324	7795.2
2690.34441	7795.1
2692.96396	7791.4
2695.58188	7804.8
2698.19818	7777.3
2700.81285	7780
2703.4259	7782.6
2706.03733	7782.5
2708.64714	7775.3
2711.25533	7782.9
2713.86191	7785.1
2716.46687	7825.1
2719.07021	7798.8
2721.67194	7792.9
2724.27206	7793.6
2726.87057	7802.9
2729.46747	7771.5
2732.06276	7768.6
2734.65644	7772
2737.24852	7764.5
2739.83899	7732.5
2742.42786	7746.3
2745.01513	7721.8
2747.60079	7710.9
2750.18486	7706
2752.76733	7699.8
2755.3482	7700.7
2757.92747	7685.8
2760.50515	7667.9
2763.08123	7655.1
2765.65573	7643.5
2768.22863	7660.2
2770.79994	7639.1
2773.36967	7650.3
2775.9378	7630.6
2778.50435	7607.7
2781.06932	7582
2783.6327	7605.5
2786.1945	7594.1
2788.75471	7589.6
2791.31335	7580.9
2793.87041	7573.7
2796.42589	7549
2798.97979	7538.8
2801.53212	7516.4
2804.08288	7522.4
2806.63206	7484.8
2809.17967	7504.1
2811.72571	7469.1
2814.27018	7488.4
2816.81308	7464.3
2819.35442	7450.6
2821.89419	7436
2824.43239	7439.6
2826.96904	7424.3
2829.50412	7403.1
2832.03763	7403
2834.56959	7385.9
2837.1	7368.1
2839.62884	7409.8
2842.15613	7407.3
2844.68186	7405.8
2847.20604	7401.6
2849.72867	7396.4
2852.24974	7403.1
2854.76927	7401.8
2857.28724	7400.3
2859.80367	7375.3
2862.31855	7349.7
2864.83189	7380.8
2867.34368	7370
2869.85393	7348.9
2872.36264	7364.4
2874.8698	7356.7
2877.37543	7349
2879.87952	7364.5
2882.38207	7334
2884.88308	7318.2
2887.38256	7310.3
2889.88051	7322.5
2892.37692	7309.3
2894.8718	7290.4
2897.36515	7304.7
2899.85698	7307.7
2902.34727	7315.3
2904.83604	7308.7
2907.32328	7329.4
2909.809	7342.9
2912.29319	7335.6
2914.77587	7330.3
2917.25702	7329.2
2919.73665	7315.8
2922.21476	7314.7
2924.69136	7309.2
2927.16644	7301.3
2929.64	7281
2932.11205	7278.5
2934.58258	7261.9
2937.05161	7255.9
2939.51912	7234.9
2941.98513	7228.6
2944.44962	7199
2946.91261	7183.4
2949.37409	7185.6
2951.83407	7195.5
2954.29254	7176
2956.74951	7196.4
2959.20498	7199.2
2961.65895	7169.8
2964.11142	7179
2966.56239	7146.1
2969.01186	7151.2
2971.45984	7139.5
2973.90632	7136.2
2976.35131	7115.9
2978.7948	7095.7
2981.23681	7080
2983.67732	7063.4
2986.11635	7053.3
2988.55388	7041
2990.98993	7022.4
2993.4245	7009.9
2995.85758	6986
2998.28917	6972.6
3000.71928	6969.1
3003.14791	6947.1
3005.57506	6950.3
3008.00073	6926
3010.42493	6934.8
3012.84764	6913.3
3015.26888	6911.6
3017.68865	6895.1
3020.10694	6875.5
3022.52376	6853.2
3024.9391	6873.7
3027.35298	6847.8
3029.76539	6820.5
3032.17632	6802.2
3034.5858	6789.2
3036.9938	6793.2
3039.40034	6785
3041.80542	6795.3
3044.20903	6770.3
3046.61118	6762.7
3049.01187	6746
3051.4111	6721.8
3053.80888	6721.6
3056.20519	6720.5
3058.60005	6722.7
3060.99345	6704.4
3063.3854	6668.4
3065.7759	6652.3
3068.16494	6650.3
3070.55254	6628
3072.93868	6623.3
3075.32338	6599.4
3077.70662	6597.1
3080.08842	6555.8
3082.46878	6571.9
3084.84769	6551
3087.22515	6562.8
3089.60118	6577.1
3091.97576	6570.9
3094.3489	6541.9
3096.72061	6538.5
3099.09087	6550.2
3101.4597	6541.4
3103.82709	6544
3106.19305	6544.6
3108.55757	6539
3110.92066	6531.6
3113.28232	6512.4
3115.64255	6504.9
3118.00134	6471.3
3120.35871	6470.7
3122.71466	6452.6
3125.06917	6446.9
3127.42226	6441
3129.77393	6423.2
3132.12417	6433.2
3134.47299	6445.2
3136.82039	6418.9
3139.16636	6416.4
3141.51092	6413.9
3143.85406	6411.6
3146.19579	6421.3
3148.53609	6423.3
3150.87499	6426.8
3153.21246	6443.6
3155.54853	6443.8
3157.88318	6422.7
3160.21642	6451
3162.54826	6441.6
3164.87868	6442.4
3167.2077	6424.7
3169.5353	6408.2
3171.86151	6413
3174.18631	6407.9
3176.5097	6421.5
3178.83169	6409
3181.15228	6386
3183.47147	6395.2
3185.78926	6380.5
3188.10565	6366.3
3190.42065	6362.4
3192.73424	6356.3
3195.04645	6352
3197.35725	6359.3
3199.66667	6372.9
3201.97469	6368.6
3204.28132	6364.1
3206.58656	6377.3
3208.8904	6376.5
3211.19287	6377.2
3213.49394	6390.1
3215.79363	6370.4
3218.09193	6376.8
3220.38884	6374.1
3222.68438	6364.7
3224.97853	6365.2
3227.2713	6378.9
3229.56269	6370.6
3231.8527	6377.6
3234.14133	6358.7
3236.42858	6353
3238.71446	6331
3240.99896	6314
3243.28209	6301.5
3245.56384	6305
3247.84423	6292.7
3250.12324	6284.9
3252.40088	6276.3
3254.67715	6273.2
3256.95205	6261.5
3259.22558	6281.3
3261.49775	6265.9
3263.76855	6253.1
3266.03799	6212.9
3268.30606	6246
3270.57277	6216.4
3272.83812	6193.6
3275.10211	6189.1
3277.36474	6187.3
3279.62601	6170.3
3281.88593	6169.8
3284.14448	6198.1
3286.40168	6186.2
3288.65753	6186.8
3290.91202	6172.1
3293.16516	6157.5
3295.41695	6142.8
3297.66738	6112.3
3299.91647	6089.5
3302.16421	6055.2
3304.4106	6046.1
3306.65564	6020.9
3308.89933	5972.5
3311.14169	5945.4
3313.38269	5888.8
3315.62236	5874.4
3317.86068	5804.3
3320.09766	5766
3322.3333	5713
3324.5676	5695.4
3326.80056	5613.5
3329.03219	5601.6
3331.26248	2.7
3333.49143	-1.3
3335.71905	-0.1
