Data from AgNP_FTO_APTES_UA_100uM_CRN_0uM_R6G_10uM_NaF_0.1M_Addition_RamanShift__22__11-10-50-112.txt Node

Date: Thu Mar 24 11:10:50 GMT 2022
User: TCL
Spectrometer: QEP01345
Trigger mode: 4
Integration Time (sec): 7.000000E0
Scans to average: 10
Electric dark correction enabled: true
Nonlinearity correction enabled: false
Boxcar width: 0
XAxis mode: Raman Shifts
Number of Pixels in Spectrum: 1044
>>>>>Begin Spectral Data<<<<<
46.04893	-2.1
50.45542	0.9
54.85868	0.8
59.25871	-0.3
63.6555	36.9
68.04907	40.7
72.43941	39.2
76.82654	38.3
81.21044	43.9
85.59113	47.7
89.96862	47.3
94.34289	46.7
98.71396	51.9
103.08183	47.8
107.4465	52
111.80798	52.1
116.16626	52.6
120.52136	57.2
124.87327	57.3
129.222	61.2
133.56755	66
137.90993	66.8
142.24913	77.7
146.58517	82.7
150.91804	98.4
155.24774	117.4
159.57429	145.2
163.89768	190.6
168.21792	245.8
172.53501	342
176.84895	474.5
181.15975	668.8
185.46741	934.8
189.77193	1291.4
194.07331	1725.4
198.37157	2223.5
202.6667	2748.2
206.9587	3272.9
211.24758	3772.7
215.53334	4318.3
219.81599	4859.8
224.09553	5502.1
228.37195	6207.8
232.64527	6970.8
236.91549	7786.1
241.18261	8575.7
245.44663	9268
249.70755	9812.8
253.96539	10292.8
258.22014	10623.6
262.4718	10880
266.72039	11047.8
270.96589	11098.7
275.20832	11047.7
279.44768	10909.5
283.68397	10770.4
287.91719	10664.9
292.14735	10577.4
296.37445	10542.9
300.59849	10610
304.81948	10762.4
309.03742	10874.8
313.25231	10970.8
317.46415	10929.4
321.67296	10777.2
325.87872	10647.8
330.08145	10573.8
334.28114	10534.3
338.47781	10563.4
342.67145	10666.2
346.86207	10885.6
351.04966	11137.7
355.23424	11367.4
359.4158	11496
363.59435	11548.6
367.76989	11543
371.94243	11514.4
376.11196	11452.9
380.27849	11484.4
384.44203	11484.5
388.60257	11575.2
392.76012	11671
396.91468	11804.2
401.06626	11994.5
405.21485	12076.7
409.36047	11913.7
413.50311	11578.6
417.64277	11379.2
421.77947	11334.6
425.9132	11381.4
430.04396	11428.2
434.17176	11493.1
438.2966	11631.7
442.41849	11945.7
446.53742	12417
450.6534	12911.7
454.76644	13165
458.87653	13158.9
462.98368	12952.7
467.08789	12732.8
471.18916	12429.3
475.2875	12126.3
479.38291	11849.7
483.4754	11625.9
487.56496	11479.2
491.6516	11306.6
495.73531	11182.3
499.81612	11075.9
503.89401	11124.4
507.96899	11197.7
512.04106	11165.5
516.11023	11092.7
520.1765	11010.5
524.23987	11017.5
528.30034	11092.1
532.35792	11063.1
536.41261	10828.6
540.46441	10546.4
544.51333	10340.7
548.55936	10397.3
552.60252	10626.6
556.64279	11052.7
560.6802	11426.7
564.71473	11566.5
568.7464	11778.5
572.7752	12324.1
576.80114	12926.6
580.82422	13431.6
584.84444	14116.2
588.86181	15536.4
592.87633	17487.6
596.888	18515.9
600.89682	17340
604.9028	15668.6
608.90594	15787.4
612.90624	16867.6
616.90371	15676.5
620.89834	12648.6
624.89015	11137.6
628.87913	10955.7
632.86528	11139.4
636.84862	11118
640.82913	10802.6
644.80683	10363.1
648.78172	10072.3
652.75379	10049.9
656.72306	10263
660.68952	10539.5
664.65319	10450.3
668.61405	10119.4
672.57211	9987
676.52738	10051.6
680.47986	10082.9
684.42955	9965.1
688.37646	9852.3
692.32058	9905.3
696.26192	10088.9
700.20048	10302.1
704.13626	10444.9
708.06928	10524.5
711.99952	10514.7
715.927	10545.1
719.85171	10548
723.77365	10460.4
727.69284	10231
731.60928	10080.2
735.52295	10085.7
739.43388	10168.9
743.34206	10285
747.24749	10414.8
751.15017	10537.7
755.05012	10748.5
758.94733	11122.9
762.8418	11951.6
766.73354	13333
770.62254	14679.9
774.50882	14912.6
778.39237	14000.2
782.27321	12714.9
786.15132	11590.1
790.02671	10831.9
793.89938	10404.5
797.76935	10182.9
801.6366	10047.7
805.50115	9965.6
809.36299	9858.4
813.22213	9789.1
817.07857	9731.2
820.93231	9699.5
824.78336	9645.1
828.63172	9609.2
832.47738	9591.4
836.32036	9571
840.16066	9576
843.99827	9604.1
847.8332	9613.1
851.66546	9630.2
855.49504	9656.9
859.32195	9639
863.1462	9577.4
866.96777	9530.2
870.78668	9507.4
874.60293	9506.5
878.41652	9534.1
882.22745	9601.9
886.03573	9664.2
889.84136	9659
893.64433	9622.8
897.44466	9639.1
901.24235	9626.9
905.0374	9567.8
908.8298	9528.4
912.61957	9477
916.40671	9561.4
920.19121	9747
923.97308	9965.6
927.75233	10109.7
931.52895	10007.1
935.30295	9695.1
939.07433	9371.9
942.84309	9121.6
946.60924	9025.3
950.37278	8965.5
954.13371	8955.4
957.89203	8942.7
961.64774	8955.4
965.40086	8963
969.15137	8957.6
972.89929	8931.4
976.64461	8883.6
980.38733	8860.5
984.12747	8854.8
987.86502	8874.1
991.59999	8952.7
995.33237	9081.4
999.06217	9286.3
1002.78939	9588
1006.51404	9958.1
1010.23611	10294
1013.95561	10493.9
1017.67255	10504.9
1021.38692	10261.3
1025.09872	9883.1
1028.80796	9564
1032.51465	9418.4
1036.21877	9411.3
1039.92035	9495.9
1043.61937	9543.1
1047.31584	9641.6
1051.00976	9673.6
1054.70114	9716.6
1058.38998	9748.8
1062.07627	9781.7
1065.76003	9878.4
1069.44126	10066.7
1073.11995	10360.4
1076.79611	10608.3
1080.46974	10794.9
1084.14085	10983.4
1087.80943	11235.3
1091.47549	11401.3
1095.13903	11335.6
1098.80005	11023.7
1102.45857	10640.7
1106.11456	10390.8
1109.76805	10346.8
1113.41903	10442.9
1117.06751	10577.4
1120.71348	10853.3
1124.35696	11096.2
1127.99793	11316
1131.63641	11412.9
1135.2724	11310.5
1138.90589	11227.7
1142.5369	11185
1146.16542	11311.5
1149.79145	11568.7
1153.415	11788.4
1157.03607	11922.7
1160.65467	12178.9
1164.27079	12646.3
1167.88443	13429.5
1171.49561	14576.6
1175.10432	16192.2
1178.71056	18200.6
1182.31434	19965.8
1185.91565	20509.4
1189.51451	19884.7
1193.11091	18798.2
1196.70485	17657
1200.29634	16541.2
1203.88538	15613.7
1207.47197	15003.7
1211.05612	14679.3
1214.63782	14397.2
1218.21708	14245.8
1221.79391	14272.2
1225.36829	14505
1228.94024	14568.5
1232.50976	14269.5
1236.07685	13669.9
1239.6415	13148.7
1243.20374	12922.6
1246.76355	12839
1250.32093	12928.2
1253.8759	13186.2
1257.42845	13681.3
1260.97859	14192.7
1264.52631	14803.9
1268.07163	15433
1271.61453	16037.4
1275.15503	16610.6
1278.69312	17285.3
1282.22882	18161.8
1285.76211	19348.1
1289.29301	20693.6
1292.82151	22044.8
1296.34761	23564.8
1299.87133	25268.6
1303.39266	27067.8
1306.9116	28705.6
1310.42815	30075.7
1313.94233	30674
1317.45412	29873.9
1320.96354	28268.4
1324.47058	26630.2
1327.97525	25249.2
1331.47754	24241.9
1334.97747	23486.5
1338.47502	22970
1341.97022	22640
1345.46305	22472.4
1348.95352	22766.1
1352.44163	23628.6
1355.92738	25384.3
1359.41078	27993.9
1362.89183	30401.1
1366.37053	30730.4
1369.84688	27977.2
1373.32088	23785.4
1376.79254	20843.1
1380.26186	19647
1383.72883	19205
1387.19347	18781.3
1390.65578	18287
1394.11575	18140.5
1397.57339	18276.9
1401.0287	18569.4
1404.48168	18632.6
1407.93234	18392.6
1411.38068	17854.1
1414.82669	17244.4
1418.27039	16616.2
1421.71177	16015
1425.15083	15476.3
1428.58758	15245.7
1432.02203	15354.9
1435.45416	15666.1
1438.88399	15928
1442.31151	16049.2
1445.73673	16191
1449.15965	16333.9
1452.58027	16373.2
1455.9986	16342.3
1459.41463	16440.9
1462.82837	16824.1
1466.23982	17379.1
1469.64898	17929.7
1473.05586	18338.2
1476.46045	18543.7
1479.86276	18709.2
1483.26279	18858.7
1486.66054	19126.2
1490.05602	19528.1
1493.44922	20232
1496.84016	20828.2
1500.22882	21403.1
1503.61521	21989.5
1506.99934	22599.7
1510.38121	23013.9
1513.76081	22934.4
1517.13816	22207.1
1520.51324	21330.6
1523.88607	20717.9
1527.25665	20499.5
1530.62498	20425.2
1533.99105	20141.4
1537.35488	19526.1
1540.71647	18664.4
1544.07581	17766
1547.4329	16918.3
1550.78776	16337.9
1554.14038	15931.5
1557.49077	15785.8
1560.83892	15786.4
1564.18484	15981
1567.52853	16237.6
1570.86999	16594.6
1574.20922	16965.3
1577.54624	17136.1
1580.88103	16873.7
1584.2136	16654.6
1587.54395	17034.8
1590.87208	18069.2
1594.19801	19619.5
1597.52172	21176.2
1600.84321	21584
1604.16251	20362.3
1607.47959	18162.8
1610.79447	15914.9
1614.10715	14069.6
1617.41763	12818.7
1620.7259	12038.5
1624.03199	11736.9
1627.33587	11797.6
1630.63757	12317.8
1633.93707	13451
1637.23439	15543.9
1640.52951	18893.4
1643.82246	23167.9
1647.11321	26770.5
1650.40179	27462.8
1653.68819	24705.5
1656.97241	20153
1660.25446	15971.2
1663.53433	13084.6
1666.81203	11358.7
1670.08756	10395.8
1673.36092	9799.1
1676.63211	9406.2
1679.90115	9128.5
1683.16801	8938.8
1686.43272	8761.7
1689.69527	8662
1692.95567	8566.8
1696.2139	8547
1699.46999	8467.4
1702.72392	8427.5
1705.97571	8385
1709.22535	8363.8
1712.47284	8349.5
1715.71819	8356
1718.96139	8304.5
1722.20246	8256.7
1725.44139	8199.2
1728.67818	8130.1
1731.91284	8075.4
1735.14537	7998
1738.37576	7964.2
1741.60403	7915
1744.83017	7895.5
1748.05418	7868.6
1751.27607	7829.5
1754.49584	7795.7
1757.71349	7790
1760.92903	7752.1
1764.14244	7744.1
1767.35375	7771.4
1770.56294	7713
1773.77002	7708.5
1776.97499	7681.6
1780.17785	7669.3
1783.37861	7641.1
1786.57727	7637.9
1789.77382	7608.3
1792.96828	7587.3
1796.16064	7567.3
1799.3509	7545.6
1802.53907	7536.4
1805.72514	7494.4
1808.90913	7483.9
1812.09102	7449.9
1815.27083	7425.9
1818.44856	7420.5
1821.6242	7385.1
1824.79776	7399.8
1827.96924	7373.3
1831.13864	7367.5
1834.30597	7375.2
1837.47122	7366.6
1840.6344	7380.2
1843.7955	7382.3
1846.95454	7354.4
1850.11151	7339.9
1853.26642	7361.6
1856.41926	7350.7
1859.57004	7351.2
1862.71876	7368
1865.86542	7364.2
1869.01003	7364.6
1872.15258	7376.4
1875.29308	7385.1
1878.43152	7371.1
1881.56792	7398
1884.70227	7421.4
1887.83457	7411.2
1890.96482	7421.5
1894.09304	7429.1
1897.21921	7439.4
1900.34335	7444.2
1903.46544	7429.1
1906.58551	7428.9
1909.70353	7395
1912.81953	7383.8
1915.93349	7331.5
1919.04543	7338.9
1922.15534	7309.9
1925.26322	7293
1928.36908	7248.5
1931.47292	7221.3
1934.57473	7208.7
1937.67453	7158.8
1940.77232	7174.2
1943.86808	7144.8
1946.96184	7135.8
1950.05358	7089.1
1953.14331	7095.6
1956.23103	7083.4
1959.31675	7045.9
1962.40046	7014.1
1965.48217	7000.1
1968.56188	6976.7
1971.63959	6935.9
1974.7153	6901.6
1977.78901	6873.8
1980.86073	6852
1983.93046	6799
1986.99819	6775.1
1990.06394	6740.6
1993.1277	6729.6
1996.18947	6703.3
1999.24925	6701.6
2002.30706	6664.8
2005.36288	6670.3
2008.41672	6656.6
2011.46859	6647.7
2014.51848	6631.8
2017.56639	6625.9
2020.61233	6622.1
2023.6563	6579.7
2026.6983	6556.5
2029.73833	6538.5
2032.7764	6523.6
2035.8125	6503.1
2038.84664	6463.8
2041.87881	6456.7
2044.90903	6400.9
2047.93729	6415.5
2050.96359	6385
2053.98794	6387.2
2057.01034	6361.4
2060.03078	6368.2
2063.04927	6372.8
2066.06582	6379.8
2069.08042	6408.6
2072.09307	6406.3
2075.10378	6419.2
2078.11255	6442.1
2081.11938	6456.6
2084.12426	6463.3
2087.12722	6481.7
2090.12824	6486.7
2093.12732	6467.2
2096.12447	6482.6
2099.11969	6501.5
2102.11299	6490.1
2105.10435	6472.2
2108.09379	6440.8
2111.08131	6429
2114.0669	6401.9
2117.05057	6407
2120.03233	6396
2123.01216	6388.4
2125.99008	6371.4
2128.96609	6380.1
2131.94018	6376.1
2134.91236	6375.1
2137.88263	6360.5
2140.851	6353.2
2143.81746	6367
2146.78201	6349.2
2149.74466	6330.4
2152.7054	6340.8
2155.66425	6332.3
2158.6212	6300.8
2161.57625	6288.9
2164.52941	6268.9
2167.48067	6244.5
2170.43004	6227.4
2173.37752	6200.3
2176.32311	6181.2
2179.26681	6176.1
2182.20863	6145.3
2185.14856	6146.8
2188.08661	6152
2191.02278	6134.3
2193.95707	6133.6
2196.88948	6101.2
2199.82001	6092.3
2202.74867	6081.3
2205.67545	6083.2
2208.60037	6061.6
2211.52341	6037.4
2214.44458	6037.3
2217.36388	6026.5
2220.28132	5982.4
2223.1969	5986.5
2226.11061	5985.6
2229.02246	5969.8
2231.93245	5973.8
2234.84058	5948.7
2237.74686	5963.2
2240.65128	5974.1
2243.55385	5968.1
2246.45456	5953.2
2249.35343	5933.7
2252.25044	5895.5
2255.14561	5889.7
2258.03893	5876
2260.93041	5864.7
2263.82004	5830.1
2266.70783	5827.4
2269.59378	5810.7
2272.4779	5786.3
2275.36017	5783.5
2278.24061	5772.2
2281.11922	5767.3
2283.996	5741.7
2286.87094	5726.2
2289.74405	5729.2
2292.61534	5724.1
2295.4848	5703.4
2298.35243	5695.6
2301.21824	5691.9
2304.08223	5683.4
2306.94439	5688.8
2309.80474	5670.5
2312.66327	5690.2
2315.51999	5666.4
2318.37489	5655.5
2321.22797	5657.6
2324.07925	5650.8
2326.92871	5640.1
2329.77637	5638.6
2332.62222	5630.1
2335.46626	5623.8
2338.3085	5607.8
2341.14893	5609.4
2343.98756	5614.8
2346.8244	5610.2
2349.65943	5598.6
2352.49267	5604.8
2355.32411	5609.9
2358.15376	5607.5
2360.98161	5608.1
2363.80768	5607.1
2366.63195	5607.6
2369.45444	5592.9
2372.27514	5593
2375.09405	5572.5
2377.91118	5593.5
2380.72652	5578
2383.54009	5554.8
2386.35187	5541.8
2389.16188	5498.1
2391.97011	5515.9
2394.77657	5478.4
2397.58125	5490.8
2400.38416	5473.3
2403.18529	5455.9
2405.98466	5466.7
2408.78226	5435.3
2411.57809	5445.1
2414.37216	5443.6
2417.16446	5437.4
2419.955	5411.5
2422.74378	5435.6
2425.5308	5429.8
2428.31606	5441.6
2431.09956	5416.7
2433.88131	5394.7
2436.6613	5408.2
2439.43954	5384.1
2442.21603	5407.8
2444.99077	5397.6
2447.76377	5398.3
2450.53501	5389.7
2453.30451	5411.6
2456.07226	5407.6
2458.83827	5400
2461.60254	5396.6
2464.36507	5405.7
2467.12586	5392.7
2469.88492	5393.5
2472.64224	5393.1
2475.39782	5405.2
2478.15167	5391.4
2480.90379	5385.4
2483.65417	5387.1
2486.40283	5394.6
2489.14976	5394.1
2491.89497	5391.4
2494.63845	5391.8
2497.3802	5373.2
2500.12024	5399.6
2502.85855	5369.5
2505.59514	5378.1
2508.33002	5370.5
2511.06318	5342.6
2513.79462	5343.2
2516.52435	5334
2519.25237	5318.6
2521.97867	5305
2524.70327	5336
2527.42616	5303.6
2530.14734	5287.7
2532.86681	5278
2535.58458	5287.9
2538.30065	5297.8
2541.01501	5301.1
2543.72768	5268.2
2546.43864	5274
2549.14791	5268.4
2551.85548	5258.4
2554.56136	5274.4
2557.26554	5264.3
2559.96803	5246.1
2562.66883	5262.4
2565.36794	5252.9
2568.06536	5259.1
2570.7611	5231.6
2573.45514	5242.4
2576.14751	5246.4
2578.83819	5225.4
2581.52719	5221.5
2584.21451	5219.5
2586.90015	5214.4
2589.58411	5204.2
2592.2664	5199.3
2594.94701	5183.2
2597.62594	5193.5
2600.30321	5173.6
2602.9788	5166.8
2605.65273	5170.8
2608.32498	5168.4
2610.99557	5153.7
2613.66449	5166.5
2616.33175	5159.5
2618.99734	5150.3
2621.66128	5156.7
2624.32355	5152.7
2626.98416	5136.8
2629.64311	5138.5
2632.30041	5137.3
2634.95605	5120.1
2637.61004	5114.7
2640.26238	5110.7
2642.91306	5122.7
2645.56209	5114.2
2648.20948	5124.5
2650.85521	5113.7
2653.4993	5123.3
2656.14175	5138.7
2658.78255	5145.4
2661.42171	5129.7
2664.05923	5142.2
2666.6951	5143
2669.32934	5166.2
2671.96194	5154.7
2674.59291	5163.9
2677.22224	5159.9
2679.84993	5153.8
2682.476	5145.4
2685.10043	5145.1
2687.72324	5135.4
2690.34441	5129.3
2692.96396	5125
2695.58188	5133.5
2698.19818	5120.5
2700.81285	5131.8
2703.4259	5147.5
2706.03733	5143.1
2708.64714	5142.7
2711.25533	5138.9
2713.86191	5125.7
2716.46687	5152.7
2719.07021	5149
2721.67194	5148
2724.27206	5153.1
2726.87057	5168.7
2729.46747	5164.9
2732.06276	5169.3
2734.65644	5149.6
2737.24852	5146.3
2739.83899	5141.5
2742.42786	5149.2
2745.01513	5129.1
2747.60079	5115.9
2750.18486	5117.7
2752.76733	5131.2
2755.3482	5116.9
2757.92747	5124.5
2760.50515	5128.2
2763.08123	5130.2
2765.65573	5114.8
2768.22863	5098.3
2770.79994	5114.6
2773.36967	5114.5
2775.9378	5100.7
2778.50435	5113.2
2781.06932	5103
2783.6327	5105
2786.1945	5110.4
2788.75471	5095.5
2791.31335	5070.2
2793.87041	5077.5
2796.42589	5060.3
2798.97979	5069.8
2801.53212	5057.9
2804.08288	5047.3
2806.63206	5062
2809.17967	5052
2811.72571	5027
2814.27018	5041.8
2816.81308	5044.6
2819.35442	5044.5
2821.89419	5032.9
2824.43239	5041.9
2826.96904	5024.8
2829.50412	5026.3
2832.03763	5016
2834.56959	5023
2837.1	5021.7
2839.62884	5013.7
2842.15613	5010.4
2844.68186	5036.4
2847.20604	5025.7
2849.72867	5053.6
2852.24974	5055.3
2854.76927	5068
2857.28724	5034.2
2859.80367	5045.6
2862.31855	5043.7
2864.83189	5043.3
2867.34368	5046.9
2869.85393	5054.8
2872.36264	5056.3
2874.8698	5037.7
2877.37543	5038.8
2879.87952	5057.1
2882.38207	5032.6
2884.88308	5057.3
2887.38256	5050.1
2889.88051	5030.9
2892.37692	5040.7
2894.8718	5049.4
2897.36515	5061.9
2899.85698	5036.5
2902.34727	5043.7
2904.83604	5060.8
2907.32328	5061
2909.809	5058.1
2912.29319	5056.8
2914.77587	5070.8
2917.25702	5060.1
2919.73665	5066.8
2922.21476	5059.1
2924.69136	5051.4
2927.16644	5046.3
2929.64	5026.1
2932.11205	5019.4
2934.58258	4990
2937.05161	4994.9
2939.51912	4994.1
2941.98513	4991.1
2944.44962	4982.8
2946.91261	4946.2
2949.37409	4951.3
2951.83407	4950.7
2954.29254	4935.5
2956.74951	4909.9
2959.20498	4893.2
2961.65895	4903
2964.11142	4891.7
2966.56239	4872.5
2969.01186	4844.1
2971.45984	4826.2
2973.90632	4822.1
2976.35131	4802.2
2978.7948	4787.8
2981.23681	4767.8
2983.67732	4753.4
2986.11635	4754.4
2988.55388	4727
2990.98993	4716
2993.4245	4704.3
2995.85758	4705.2
2998.28917	4696.1
3000.71928	4698.1
3003.14791	4676.2
3005.57506	4657.8
3008.00073	4668.7
3010.42493	4663.1
3012.84764	4643.7
3015.26888	4643.7
3017.68865	4618.9
3020.10694	4601.3
3022.52376	4593
3024.9391	4576.8
3027.35298	4577.7
3029.76539	4562.8
3032.17632	4569.1
3034.5858	4545
3036.9938	4531.1
3039.40034	4536.8
3041.80542	4532.4
3044.20903	4520.7
3046.61118	4495.2
3049.01187	4524.8
3051.4111	4507
3053.80888	4500.2
3056.20519	4487
3058.60005	4483.1
3060.99345	4489
3063.3854	4470.9
3065.7759	4445.9
3068.16494	4431.2
3070.55254	4446.1
3072.93868	4415.6
3075.32338	4428.9
3077.70662	4397.2
3080.08842	4395.2
3082.46878	4399.6
3084.84769	4378.7
3087.22515	4369.6
3089.60118	4377.2
3091.97576	4382
3094.3489	4361.1
3096.72061	4351.3
3099.09087	4366.8
3101.4597	4343.3
3103.82709	4337.4
3106.19305	4328.7
3108.55757	4321.3
3110.92066	4320
3113.28232	4302.8
3115.64255	4294.6
3118.00134	4283.5
3120.35871	4268.1
3122.71466	4299.3
3125.06917	4257.5
3127.42226	4265.9
3129.77393	4263.8
3132.12417	4277.5
3134.47299	4272.8
3136.82039	4279.3
3139.16636	4292
3141.51092	4282.1
3143.85406	4253.3
3146.19579	4265.8
3148.53609	4279.2
3150.87499	4273.1
3153.21246	4277.1
3155.54853	4290.4
3157.88318	4273.6
3160.21642	4272.3
3162.54826	4268.3
3164.87868	4270.5
3167.2077	4269.3
3169.5353	4254.2
3171.86151	4251.3
3174.18631	4256.4
3176.5097	4251.8
3178.83169	4253.5
3181.15228	4236.5
3183.47147	4250
3185.78926	4245.2
3188.10565	4236.3
3190.42065	4242.9
3192.73424	4245.2
3195.04645	4232.8
3197.35725	4247.4
3199.66667	4248.9
3201.97469	4235.4
3204.28132	4238.2
3206.58656	4247.2
3208.8904	4245
3211.19287	4238.5
3213.49394	4237.3
3215.79363	4236.1
3218.09193	4234.6
3220.38884	4225.8
3222.68438	4229.5
3224.97853	4216.5
3227.2713	4231.6
3229.56269	4224.7
3231.8527	4216.2
3234.14133	4213.4
3236.42858	4215.1
3238.71446	4208.9
3240.99896	4209.5
3243.28209	4183.8
3245.56384	4203.5
3247.84423	4191.4
3250.12324	4191.3
3252.40088	4181.6
3254.67715	4176.3
3256.95205	4157.5
3259.22558	4144.4
3261.49775	4142.9
3263.76855	4128.1
3266.03799	4120.4
3268.30606	4120.7
3270.57277	4101.8
3272.83812	4101.7
3275.10211	4100.7
3277.36474	4088.6
3279.62601	4093.1
3281.88593	4089.4
3284.14448	4093.3
3286.40168	4103.8
3288.65753	4101.7
3290.91202	4076.5
3293.16516	4086.3
3295.41695	4055.9
3297.66738	4049.9
3299.91647	4026.7
3302.16421	4014.2
3304.4106	3993.8
3306.65564	3967.7
3308.89933	3934
3311.14169	3897.8
3313.38269	3891.2
3315.62236	3851.7
3317.86068	3820.7
3320.09766	3787.8
3322.3333	3745.6
3324.5676	3747.5
3326.80056	3682.3
3329.03219	3667.8
3331.26248	1.7
3333.49143	-0.8
3335.71905	0.2
