Data from AgNP_FTO_APTES_UA_100uM_CRN_0uM_R6G_10uM_NaF_0.1M_Addition_RamanShift__32__11-22-30-123.txt Node

Date: Thu Mar 24 11:22:30 GMT 2022
User: TCL
Spectrometer: QEP01345
Trigger mode: 4
Integration Time (sec): 7.000000E0
Scans to average: 10
Electric dark correction enabled: true
Nonlinearity correction enabled: false
Boxcar width: 0
XAxis mode: Raman Shifts
Number of Pixels in Spectrum: 1044
>>>>>Begin Spectral Data<<<<<
46.04893	-1.1
50.45542	0.1
54.85868	0.4
59.25871	0.3
63.6555	44.4
68.04907	43.9
72.43941	41.1
76.82654	44.2
81.21044	49.6
85.59113	51.8
89.96862	55.8
94.34289	51.5
98.71396	57
103.08183	55
107.4465	57.9
111.80798	60.5
116.16626	60.2
120.52136	64.1
124.87327	63.8
129.222	65
133.56755	76.3
137.90993	77.7
142.24913	89.5
146.58517	97.2
150.91804	113.6
155.24774	139.4
159.57429	171.1
163.89768	224.5
168.21792	297.1
172.53501	413.6
176.84895	571.3
181.15975	803.3
185.46741	1136.2
189.77193	1567
194.07331	2088.1
198.37157	2703
202.6667	3312.7
206.9587	3986.9
211.24758	4649.6
215.53334	5381.4
219.81599	6180.8
224.09553	7109.7
228.37195	8126.4
232.64527	9251.1
236.91549	10333.6
241.18261	11276.9
245.44663	11999.2
249.70755	12580.8
253.96539	13028.2
258.22014	13421.4
262.4718	13782.8
266.72039	14023.3
270.96589	14041.5
275.20832	13864.8
279.44768	13608.2
283.68397	13378.2
287.91719	13239.3
292.14735	13288.7
296.37445	13599.4
300.59849	14191.7
304.81948	14910.5
309.03742	15483.3
313.25231	15599.7
317.46415	14977.1
321.67296	13835.4
325.87872	12834.3
330.08145	12299.8
334.28114	12214.7
338.47781	12413.7
342.67145	12761
346.86207	13276.5
351.04966	14050.4
355.23424	14948
359.4158	15625.3
363.59435	15889.8
367.76989	15943.5
371.94243	15817.1
376.11196	15613.5
380.27849	15496.7
384.44203	15314.3
388.60257	15133.2
392.76012	15018.8
396.91468	15113.3
401.06626	15486.8
405.21485	15744.6
409.36047	15392.4
413.50311	14491.5
417.64277	13686.5
421.77947	13241.3
425.9132	13116.5
430.04396	13103.9
434.17176	13163.3
438.2966	13398.8
442.41849	13857.6
446.53742	14491.8
450.6534	15105.7
454.76644	15425.4
458.87653	15269.7
462.98368	14906.3
467.08789	14512.4
471.18916	14056.1
475.2875	13639.2
479.38291	13299.9
483.4754	13046.7
487.56496	12831.6
491.6516	12651
495.73531	12501.2
499.81612	12433.2
503.89401	12568
507.96899	12745.3
512.04106	12864.6
516.11023	12991.6
520.1765	13059.1
524.23987	13008
528.30034	12905.4
532.35792	12730.2
536.41261	12420.2
540.46441	12008.5
544.51333	11776.3
548.55936	11860.8
552.60252	12300.3
556.64279	12941
560.6802	13349.7
564.71473	13753.3
568.7464	14565.2
572.7752	15217.6
576.80114	14995.6
580.82422	14534.4
584.84444	14529.1
588.86181	14991.6
592.87633	15762.9
596.888	16037.5
600.89682	15651
604.9028	16747.7
608.90594	21584.8
612.90624	27948
616.90371	26675.5
620.89834	17716.7
624.89015	13130.8
628.87913	12296.3
632.86528	12541.4
636.84862	12801.5
640.82913	12531.4
644.80683	11697.4
648.78172	11050.3
652.75379	11017.3
656.72306	11604.8
660.68952	12407.7
664.65319	12252.1
668.61405	11419.6
672.57211	11059.7
676.52738	11071.7
680.47986	11077.1
684.42955	10850.2
688.37646	10667.1
692.32058	10674.2
696.26192	10901.5
700.20048	11175.7
704.13626	11371.3
708.06928	11353.3
711.99952	11249.6
715.927	11189.7
719.85171	11255.7
723.77365	11289.1
727.69284	11120.9
731.60928	10974.8
735.52295	10962.4
739.43388	11064
743.34206	11164.9
747.24749	11187.2
751.15017	11301.9
755.05012	11557.8
758.94733	12396.6
762.8418	14411.4
766.73354	17882.7
770.62254	21243.1
774.50882	22588.1
778.39237	21290.3
782.27321	17939.1
786.15132	14608.1
790.02671	12529
793.89938	11528.7
797.76935	11087.7
801.6366	10921.6
805.50115	10812.4
809.36299	10693.6
813.22213	10583.6
817.07857	10479.9
820.93231	10451.9
824.78336	10486.2
828.63172	10481.3
832.47738	10487.3
836.32036	10471.2
840.16066	10405.4
843.99827	10381.4
847.8332	10364.5
851.66546	10313.2
855.49504	10339.8
859.32195	10303.7
863.1462	10258
866.96777	10200.7
870.78668	10173.8
874.60293	10170
878.41652	10201.9
882.22745	10348
886.03573	10450.8
889.84136	10474.8
893.64433	10415.8
897.44466	10383.7
901.24235	10334.2
905.0374	10222.5
908.8298	10068
912.61957	10002.1
916.40671	10028.4
920.19121	10205.2
923.97308	10437.4
927.75233	10672.8
931.52895	10788.5
935.30295	10567.7
939.07433	10099.6
942.84309	9707.9
946.60924	9507.7
950.37278	9403.6
954.13371	9373.9
957.89203	9311.4
961.64774	9284.1
965.40086	9248.7
969.15137	9228
972.89929	9178.7
976.64461	9157.5
980.38733	9152.5
984.12747	9165.3
987.86502	9237.5
991.59999	9364.8
995.33237	9605
999.06217	10004.7
1002.78939	10539.9
1006.51404	11033.6
1010.23611	11387
1013.95561	11587.1
1017.67255	11559.4
1021.38692	11240.2
1025.09872	10813
1028.80796	10595.8
1032.51465	10641.8
1036.21877	10804.3
1039.92035	10932.6
1043.61937	10929.6
1047.31584	10844.2
1051.00976	10742.9
1054.70114	10642.8
1058.38998	10573.2
1062.07627	10621.3
1065.76003	10681
1069.44126	10833.2
1073.11995	11136.8
1076.79611	11439.5
1080.46974	11794
1084.14085	12270.5
1087.80943	12793.2
1091.47549	13000.4
1095.13903	12737
1098.80005	12157.7
1102.45857	11636.6
1106.11456	11383.1
1109.76805	11479
1113.41903	11843.4
1117.06751	12414.4
1120.71348	13186
1124.35696	14068
1127.99793	14763.1
1131.63641	14576.5
1135.2724	13719.6
1138.90589	12945.7
1142.5369	12477.1
1146.16542	12175.2
1149.79145	12042.6
1153.415	12051
1157.03607	12226.7
1160.65467	12627.7
1164.27079	13480.6
1167.88443	14722.9
1171.49561	16670.6
1175.10432	19592.4
1178.71056	23419.7
1182.31434	26611.5
1185.91565	27606.5
1189.51451	26672.1
1193.11091	24759.9
1196.70485	22534.9
1200.29634	20552.9
1203.88538	18961.2
1207.47197	17264.6
1211.05612	16004.9
1214.63782	15298.2
1218.21708	15196.4
1221.79391	15448.7
1225.36829	15570.1
1228.94024	15312.8
1232.50976	14735.4
1236.07685	14267.9
1239.6415	14056.7
1243.20374	13975.3
1246.76355	13996.8
1250.32093	14196.1
1253.8759	14624.7
1257.42845	15319.7
1260.97859	16129.6
1264.52631	17080.4
1268.07163	18028.2
1271.61453	18883.1
1275.15503	19616.4
1278.69312	20177.4
1282.22882	20759.5
1285.76211	21594.8
1289.29301	22739.2
1292.82151	24029.5
1296.34761	25670.7
1299.87133	27832.1
1303.39266	30980.2
1306.9116	35347.2
1310.42815	39929.2
1313.94233	42252.3
1317.45412	40805.9
1320.96354	37229.3
1324.47058	33639.2
1327.97525	30712.5
1331.47754	28837.1
1334.97747	28009.1
1338.47502	27897.6
1341.97022	28282.8
1345.46305	29079.5
1348.95352	30615.8
1352.44163	32810.4
1355.92738	36549.5
1359.41078	42328.8
1362.89183	47603.1
1366.37053	45971.7
1369.84688	37912.9
1373.32088	30128.7
1376.79254	25491.2
1380.26186	23218.9
1383.72883	21978.3
1387.19347	21126
1390.65578	20460.3
1394.11575	20231
1397.57339	20342.8
1401.0287	20706.1
1404.48168	20938
1407.93234	20954.6
1411.38068	20668
1414.82669	20185.3
1418.27039	19474.6
1421.71177	18708.2
1425.15083	17899.2
1428.58758	17618.2
1432.02203	17842.6
1435.45416	18327.8
1438.88399	18566
1442.31151	18654.9
1445.73673	18849.6
1449.15965	19123.1
1452.58027	19250.9
1455.9986	19262
1459.41463	19440.4
1462.82837	19942.5
1466.23982	20590.3
1469.64898	21108.3
1473.05586	21412.2
1476.46045	21397.8
1479.86276	21386
1483.26279	21522.3
1486.66054	21961.5
1490.05602	22833.8
1493.44922	24066.4
1496.84016	25852.4
1500.22882	28786
1503.61521	33014.1
1506.99934	37818.5
1510.38121	41653
1513.76081	42223.8
1517.13816	38601.8
1520.51324	32903.6
1523.88607	27933.4
1527.25665	24932.6
1530.62498	23484.8
1533.99105	22633.3
1537.35488	21952
1540.71647	21309.9
1544.07581	20693
1547.4329	20177.7
1550.78776	19765.4
1554.14038	19601.3
1557.49077	19687.3
1560.83892	20042.7
1564.18484	20706.2
1567.52853	21565.9
1570.86999	22369
1574.20922	22826.9
1577.54624	22709.7
1580.88103	21470.8
1584.2136	19792
1587.54395	19202.9
1590.87208	19950.2
1594.19801	21862.2
1597.52172	24238.2
1600.84321	25297.9
1604.16251	24139.8
1607.47959	21714
1610.79447	19076.8
1614.10715	16697.4
1617.41763	14908.2
1620.7259	13747.6
1624.03199	13208.7
1627.33587	13226.1
1630.63757	13794.8
1633.93707	15135.9
1637.23439	17440.4
1640.52951	21073.4
1643.82246	26058.7
1647.11321	31114.8
1650.40179	33601.3
1653.68819	31274.8
1656.97241	25348.4
1660.25446	19320.4
1663.53433	15117.1
1666.81203	12653
1670.08756	11268.2
1673.36092	10454.3
1676.63211	9959.1
1679.90115	9572.3
1683.16801	9343.4
1686.43272	9160.3
1689.69527	9017
1692.95567	8941.7
1696.2139	8845
1699.46999	8812.4
1702.72392	8727.2
1705.97571	8717.2
1709.22535	8720.4
1712.47284	8706
1715.71819	8708.5
1718.96139	8647.8
1722.20246	8586.9
1725.44139	8496
1728.67818	8393.8
1731.91284	8315.9
1735.14537	8220.9
1738.37576	8159.6
1741.60403	8113.7
1744.83017	8073.4
1748.05418	8037.6
1751.27607	7992.5
1754.49584	7972.9
1757.71349	7952.3
1760.92903	7925
1764.14244	7912.7
1767.35375	7889.2
1770.56294	7858.2
1773.77002	7810.9
1776.97499	7780.1
1780.17785	7762.7
1783.37861	7729.1
1786.57727	7697.1
1789.77382	7676.5
1792.96828	7670
1796.16064	7638.8
1799.3509	7631.8
1802.53907	7615.1
1805.72514	7565.4
1808.90913	7540.1
1812.09102	7512.6
1815.27083	7496.9
1818.44856	7487.4
1821.6242	7436.5
1824.79776	7438
1827.96924	7425.2
1831.13864	7440.6
1834.30597	7426.6
1837.47122	7399.1
1840.6344	7400.7
1843.7955	7417.2
1846.95454	7388.7
1850.11151	7391.5
1853.26642	7400.8
1856.41926	7398.6
1859.57004	7389.6
1862.71876	7394.5
1865.86542	7394
1869.01003	7412.5
1872.15258	7402.4
1875.29308	7421.6
1878.43152	7428.2
1881.56792	7438.6
1884.70227	7451.3
1887.83457	7443.5
1890.96482	7417.3
1894.09304	7429.2
1897.21921	7454.6
1900.34335	7432.1
1903.46544	7449.4
1906.58551	7435.3
1909.70353	7432.8
1912.81953	7399
1915.93349	7401.8
1919.04543	7367.6
1922.15534	7332.5
1925.26322	7282.7
1928.36908	7265.7
1931.47292	7232.2
1934.57473	7211.8
1937.67453	7163.4
1940.77232	7139.1
1943.86808	7101.1
1946.96184	7088.6
1950.05358	7048
1953.14331	7023.2
1956.23103	7023.4
1959.31675	6991.9
1962.40046	6965
1965.48217	6979.1
1968.56188	6967.2
1971.63959	6952.4
1974.7153	6951.1
1977.78901	6929.4
1980.86073	6891
1983.93046	6861.2
1986.99819	6805.3
1990.06394	6783.3
1993.1277	6777
1996.18947	6736.7
1999.24925	6703.5
2002.30706	6684
2005.36288	6663.9
2008.41672	6656.3
2011.46859	6628.2
2014.51848	6587
2017.56639	6560.9
2020.61233	6542.5
2023.6563	6512.4
2026.6983	6503.1
2029.73833	6482.2
2032.7764	6469
2035.8125	6458.9
2038.84664	6439.9
2041.87881	6428
2044.90903	6393.6
2047.93729	6395.9
2050.96359	6407.3
2053.98794	6379.4
2057.01034	6349.9
2060.03078	6361.7
2063.04927	6366.8
2066.06582	6359.6
2069.08042	6364.7
2072.09307	6355.9
2075.10378	6381.7
2078.11255	6358.5
2081.11938	6385.9
2084.12426	6371.3
2087.12722	6351.1
2090.12824	6382.7
2093.12732	6356.7
2096.12447	6354.9
2099.11969	6369.3
2102.11299	6363.4
2105.10435	6358.5
2108.09379	6360.3
2111.08131	6359.2
2114.0669	6335.4
2117.05057	6351.9
2120.03233	6340.5
2123.01216	6318.4
2125.99008	6346.5
2128.96609	6338.4
2131.94018	6344.8
2134.91236	6346.9
2137.88263	6313.3
2140.851	6314.7
2143.81746	6317.5
2146.78201	6299
2149.74466	6284.8
2152.7054	6256.5
2155.66425	6266.3
2158.6212	6261.6
2161.57625	6243.3
2164.52941	6244
2167.48067	6220.2
2170.43004	6218
2173.37752	6200.1
2176.32311	6206.3
2179.26681	6193.1
2182.20863	6197.3
2185.14856	6190.4
2188.08661	6210.9
2191.02278	6199.7
2193.95707	6168
2196.88948	6186.3
2199.82001	6168.3
2202.74867	6150.1
2205.67545	6150.8
2208.60037	6148.9
2211.52341	6138.5
2214.44458	6130.2
2217.36388	6116.5
2220.28132	6109.8
2223.1969	6081.1
2226.11061	6069.3
2229.02246	6056.1
2231.93245	6043.2
2234.84058	6028.5
2237.74686	6024.6
2240.65128	6028.2
2243.55385	6014.2
2246.45456	6034.1
2249.35343	6004.5
2252.25044	5996.3
2255.14561	5985.7
2258.03893	5994.9
2260.93041	5985.7
2263.82004	5977.2
2266.70783	5968.3
2269.59378	5955.6
2272.4779	5927
2275.36017	5910.8
2278.24061	5895.1
2281.11922	5897.7
2283.996	5895.1
2286.87094	5885.5
2289.74405	5859.9
2292.61534	5849.4
2295.4848	5830.5
2298.35243	5830.4
2301.21824	5830.5
2304.08223	5831.1
2306.94439	5825.3
2309.80474	5834.7
2312.66327	5844
2315.51999	5834.4
2318.37489	5818.5
2321.22797	5842.3
2324.07925	5817.4
2326.92871	5808.1
2329.77637	5807.3
2332.62222	5790.7
2335.46626	5793.6
2338.3085	5796.7
2341.14893	5828.8
2343.98756	5818.6
2346.8244	5844
2349.65943	5850.8
2352.49267	5853.1
2355.32411	5863.6
2358.15376	5888.6
2360.98161	5878.8
2363.80768	5891.2
2366.63195	5915.3
2369.45444	5914.7
2372.27514	5889
2375.09405	5877.1
2377.91118	5864.7
2380.72652	5853.6
2383.54009	5813.4
2386.35187	5792
2389.16188	5761.6
2391.97011	5748.3
2394.77657	5722.9
2397.58125	5700
2400.38416	5699.7
2403.18529	5681
2405.98466	5660.1
2408.78226	5638.3
2411.57809	5617.6
2414.37216	5619.4
2417.16446	5618.4
2419.955	5603.2
2422.74378	5618.9
2425.5308	5606.7
2428.31606	5637.7
2431.09956	5622.7
2433.88131	5610.6
2436.6613	5609.4
2439.43954	5614.6
2442.21603	5589.8
2444.99077	5619.9
2447.76377	5628.5
2450.53501	5643.8
2453.30451	5659.3
2456.07226	5659.8
2458.83827	5669
2461.60254	5663.5
2464.36507	5666.3
2467.12586	5665.6
2469.88492	5673
2472.64224	5677
2475.39782	5681.6
2478.15167	5707.5
2480.90379	5698
2483.65417	5733.6
2486.40283	5737.2
2489.14976	5754.3
2491.89497	5754.4
2494.63845	5783.4
2497.3802	5760.1
2500.12024	5773.3
2502.85855	5746
2505.59514	5736.9
2508.33002	5701.9
2511.06318	5659.2
2513.79462	5653.4
2516.52435	5636.6
2519.25237	5594.5
2521.97867	5597
2524.70327	5585.2
2527.42616	5563.9
2530.14734	5553
2532.86681	5560.8
2535.58458	5574.7
2538.30065	5557.7
2541.01501	5564
2543.72768	5566.2
2546.43864	5588.1
2549.14791	5563.5
2551.85548	5578.6
2554.56136	5566.8
2557.26554	5569.1
2559.96803	5581
2562.66883	5556
2565.36794	5534.5
2568.06536	5551.4
2570.7611	5543.5
2573.45514	5542
2576.14751	5536
2578.83819	5530.1
2581.52719	5530.8
2584.21451	5510.1
2586.90015	5527.3
2589.58411	5525
2592.2664	5516.9
2594.94701	5499
2597.62594	5504.4
2600.30321	5519.9
2602.9788	5505.8
2605.65273	5500.3
2608.32498	5523.8
2610.99557	5514.6
2613.66449	5522.2
2616.33175	5530.3
2618.99734	5533.6
2621.66128	5540.3
2624.32355	5532.3
2626.98416	5531.1
2629.64311	5516.9
2632.30041	5520.9
2634.95605	5509
2637.61004	5522.2
2640.26238	5482.8
2642.91306	5485.1
2645.56209	5475
2648.20948	5471.9
2650.85521	5484.9
2653.4993	5482.5
2656.14175	5506.4
2658.78255	5496.5
2661.42171	5501.4
2664.05923	5520.7
2666.6951	5517.7
2669.32934	5543.3
2671.96194	5555
2674.59291	5542.2
2677.22224	5522
2679.84993	5530.6
2682.476	5524.6
2685.10043	5529.8
2687.72324	5516.3
2690.34441	5514.6
2692.96396	5490.2
2695.58188	5512.9
2698.19818	5492.5
2700.81285	5493
2703.4259	5503.1
2706.03733	5504.2
2708.64714	5505.8
2711.25533	5521.2
2713.86191	5502.7
2716.46687	5518.4
2719.07021	5520
2721.67194	5537.9
2724.27206	5535.8
2726.87057	5559.2
2729.46747	5548.6
2732.06276	5539.3
2734.65644	5518.7
2737.24852	5502.8
2739.83899	5513.4
2742.42786	5510.1
2745.01513	5490.2
2747.60079	5485.1
2750.18486	5480.7
2752.76733	5486.1
2755.3482	5488.4
2757.92747	5486.4
2760.50515	5491.8
2763.08123	5483.5
2765.65573	5478.6
2768.22863	5490.4
2770.79994	5468.3
2773.36967	5482.1
2775.9378	5491.7
2778.50435	5483.7
2781.06932	5481
2783.6327	5495.5
2786.1945	5471.4
2788.75471	5484
2791.31335	5468.2
2793.87041	5481
2796.42589	5480.1
2798.97979	5485.5
2801.53212	5481
2804.08288	5465.8
2806.63206	5480.1
2809.17967	5472.3
2811.72571	5459.8
2814.27018	5497.9
2816.81308	5501.7
2819.35442	5481.1
2821.89419	5504
2824.43239	5508
2826.96904	5516.8
2829.50412	5526.7
2832.03763	5510.8
2834.56959	5502
2837.1	5508.6
2839.62884	5502.4
2842.15613	5500.6
2844.68186	5522.8
2847.20604	5533
2849.72867	5547.3
2852.24974	5548.4
2854.76927	5559.6
2857.28724	5565.5
2859.80367	5573.5
2862.31855	5581.3
2864.83189	5598.3
2867.34368	5605
2869.85393	5631.1
2872.36264	5628.3
2874.8698	5628.9
2877.37543	5635.1
2879.87952	5630.5
2882.38207	5621.3
2884.88308	5623.7
2887.38256	5618.1
2889.88051	5604.6
2892.37692	5609.8
2894.8718	5615.4
2897.36515	5610.7
2899.85698	5599.8
2902.34727	5618.9
2904.83604	5626.4
2907.32328	5626.5
2909.809	5629.8
2912.29319	5618
2914.77587	5617.7
2917.25702	5593.2
2919.73665	5583.8
2922.21476	5591.4
2924.69136	5567.5
2927.16644	5572.9
2929.64	5543.3
2932.11205	5519.7
2934.58258	5497.2
2937.05161	5486.7
2939.51912	5486.3
2941.98513	5475.9
2944.44962	5467.4
2946.91261	5409.3
2949.37409	5435.5
2951.83407	5433.7
2954.29254	5425.8
2956.74951	5411
2959.20498	5397.2
2961.65895	5374.7
2964.11142	5378
2966.56239	5343.9
2969.01186	5332.2
2971.45984	5305.6
2973.90632	5285.1
2976.35131	5282.8
2978.7948	5237.4
2981.23681	5222.2
2983.67732	5230.6
2986.11635	5217.6
2988.55388	5202.2
2990.98993	5195.7
2993.4245	5180.3
2995.85758	5188.2
2998.28917	5166.7
3000.71928	5166.9
3003.14791	5161.6
3005.57506	5158.6
3008.00073	5150.6
3010.42493	5151.5
3012.84764	5140.4
3015.26888	5116.5
3017.68865	5116
3020.10694	5114.1
3022.52376	5090.1
3024.9391	5072.6
3027.35298	5047
3029.76539	5057.7
3032.17632	5045.6
3034.5858	5021.3
3036.9938	5006.4
3039.40034	5019.4
3041.80542	4998
3044.20903	4995.5
3046.61118	4977.8
3049.01187	4958.1
3051.4111	4961.9
3053.80888	4958.6
3056.20519	4931.3
3058.60005	4920.6
3060.99345	4935.1
3063.3854	4909.9
3065.7759	4879.6
3068.16494	4859.8
3070.55254	4851.5
3072.93868	4835.9
3075.32338	4836.3
3077.70662	4801.2
3080.08842	4807.8
3082.46878	4818
3084.84769	4778.6
3087.22515	4797.2
3089.60118	4789.9
3091.97576	4780.3
3094.3489	4761.6
3096.72061	4768.4
3099.09087	4760.2
3101.4597	4751.1
3103.82709	4738.8
3106.19305	4722.9
3108.55757	4720.8
3110.92066	4716
3113.28232	4710.6
3115.64255	4690.7
3118.00134	4689.2
3120.35871	4689
3122.71466	4657.3
3125.06917	4658.4
3127.42226	4666.4
3129.77393	4667.9
3132.12417	4661
3134.47299	4681.8
3136.82039	4695.1
3139.16636	4679
3141.51092	4688.5
3143.85406	4660.5
3146.19579	4685.8
3148.53609	4671.6
3150.87499	4698.8
3153.21246	4680.6
3155.54853	4689.9
3157.88318	4667.8
3160.21642	4679.6
3162.54826	4658.9
3164.87868	4670.4
3167.2077	4672.6
3169.5353	4669.3
3171.86151	4668.6
3174.18631	4666.9
3176.5097	4665.9
3178.83169	4675.2
3181.15228	4669.2
3183.47147	4665.9
3185.78926	4677.8
3188.10565	4680.3
3190.42065	4669.4
3192.73424	4691.9
3195.04645	4685.2
3197.35725	4694.9
3199.66667	4695
3201.97469	4692.2
3204.28132	4682.2
3206.58656	4720.8
3208.8904	4703.3
3211.19287	4700.9
3213.49394	4711.5
3215.79363	4707.6
3218.09193	4725.4
3220.38884	4705
3222.68438	4703.8
3224.97853	4709.3
3227.2713	4703.9
3229.56269	4711.4
3231.8527	4708.6
3234.14133	4703.9
3236.42858	4713.5
3238.71446	4694.7
3240.99896	4690.7
3243.28209	4714
3245.56384	4689.5
3247.84423	4701.5
3250.12324	4696
3252.40088	4675.2
3254.67715	4676.3
3256.95205	4680.8
3259.22558	4667.7
3261.49775	4677.5
3263.76855	4671.4
3266.03799	4642
3268.30606	4643.8
3270.57277	4653.8
3272.83812	4649.4
3275.10211	4629.5
3277.36474	4633.4
3279.62601	4649.3
3281.88593	4643.5
3284.14448	4640.1
3286.40168	4641.1
3288.65753	4670.9
3290.91202	4656.1
3293.16516	4637.5
3295.41695	4637.2
3297.66738	4603.2
3299.91647	4597.4
3302.16421	4573.5
3304.4106	4552.8
3306.65564	4511
3308.89933	4481
3311.14169	4477.2
3313.38269	4410.4
3315.62236	4412.1
3317.86068	4343.1
3320.09766	4314.1
3322.3333	4239
3324.5676	4265.8
3326.80056	4177.7
3329.03219	4162
3331.26248	1.8
3333.49143	-2.3
3335.71905	0.5
