Data from AgNP_FTO_APTES_UA_100uM_CRN_2uM_R6G_10uM_NaF_0.1M_Addition_RamanShift__41__14-32-40-343.txt Node

Date: Thu Mar 24 14:32:40 GMT 2022
User: TCL
Spectrometer: QEP01345
Trigger mode: 4
Integration Time (sec): 7.000000E0
Scans to average: 10
Electric dark correction enabled: true
Nonlinearity correction enabled: false
Boxcar width: 0
XAxis mode: Raman Shifts
Number of Pixels in Spectrum: 1044
>>>>>Begin Spectral Data<<<<<
46.04893	-2.9
50.45542	0.8
54.85868	0.4
59.25871	-0.2
63.6555	46.1
68.04907	50.2
72.43941	52.2
76.82654	52.4
81.21044	54
85.59113	58.1
89.96862	63.1
94.34289	60.8
98.71396	65.7
103.08183	63.7
107.4465	67.6
111.80798	69.4
116.16626	72.4
120.52136	71
124.87327	72
129.222	77.3
133.56755	88.3
137.90993	84.5
142.24913	101.9
146.58517	112.3
150.91804	128.1
155.24774	156
159.57429	194.2
163.89768	252.5
168.21792	329.9
172.53501	457.9
176.84895	638.7
181.15975	903.2
185.46741	1260.9
189.77193	1741.4
194.07331	2333.7
198.37157	3008.6
202.6667	3711
206.9587	4433.9
211.24758	5141.1
215.53334	5873.9
219.81599	6680.8
224.09553	7566.2
228.37195	8580
232.64527	9657.7
236.91549	10781.4
241.18261	11855.4
245.44663	12748.9
249.70755	13497.7
253.96539	14123.4
258.22014	14600.8
262.4718	15033.9
266.72039	15342.9
270.96589	15480.1
275.20832	15447
279.44768	15228.5
283.68397	15047.3
287.91719	14837.7
292.14735	14776.6
296.37445	14869.7
300.59849	15110.2
304.81948	15458.2
309.03742	15717.9
313.25231	15798.9
317.46415	15633
321.67296	15193.5
325.87872	14803.5
330.08145	14606.8
334.28114	14610.7
338.47781	14736.4
342.67145	14992.8
346.86207	15357.9
351.04966	15790.1
355.23424	16206.3
359.4158	16571.9
363.59435	16726.7
367.76989	16755.7
371.94243	16746.1
376.11196	16721.4
380.27849	16715.7
384.44203	16736.4
388.60257	16788.6
392.76012	16884.2
396.91468	16998.2
401.06626	17254.7
405.21485	17454.1
409.36047	17238.8
413.50311	16704.8
417.64277	16275.4
421.77947	16114.2
425.9132	16081.7
430.04396	16213.9
434.17176	16368.9
438.2966	16663
442.41849	17192
446.53742	17915.9
450.6534	18685
454.76644	19148.6
458.87653	19138.2
462.98368	18760.6
467.08789	18294.5
471.18916	17760.8
475.2875	17254.4
479.38291	16795.5
483.4754	16418.8
487.56496	16095.7
491.6516	15854.2
495.73531	15769
499.81612	15724.4
503.89401	15855.5
507.96899	15947.3
512.04106	15964.5
516.11023	15971.3
520.1765	15920.4
524.23987	15995.1
528.30034	16029.3
532.35792	15994.1
536.41261	15784.2
540.46441	15426.5
544.51333	15323.9
548.55936	15436.7
552.60252	15765.6
556.64279	16355.4
560.6802	16777.2
564.71473	16882
568.7464	17119
572.7752	17528.8
576.80114	17782.9
580.82422	18158.3
584.84444	18832.8
588.86181	20147.5
592.87633	21957.7
596.888	22925.7
600.89682	21988.6
604.9028	21375.1
608.90594	23367
612.90624	26399
616.90371	24818.1
620.89834	19226.1
624.89015	16471.5
628.87913	15980.2
632.86528	16145.7
636.84862	16272.4
640.82913	15917.6
644.80683	15297
648.78172	14895.2
652.75379	14882
656.72306	15220.5
660.68952	15716
664.65319	15558.8
668.61405	15007.1
672.57211	14824.2
676.52738	14908.6
680.47986	14882.4
684.42955	14673.5
688.37646	14548.6
692.32058	14631.3
696.26192	14871.2
700.20048	15179
704.13626	15314.6
708.06928	15309.9
711.99952	15186.9
715.927	15190.4
719.85171	15290.5
723.77365	15303.2
727.69284	15126.9
731.60928	15005.9
735.52295	15045.6
739.43388	15121.6
743.34206	15185
747.24749	15250.8
751.15017	15355.2
755.05012	15565.7
758.94733	16149.1
762.8418	17492.6
766.73354	19722.1
770.62254	21901.2
774.50882	22565.6
778.39237	21421.7
782.27321	19253.1
786.15132	17248
790.02671	15946.7
793.89938	15260
797.76935	14949.2
801.6366	14781.9
805.50115	14648.1
809.36299	14581.1
813.22213	14465.3
817.07857	14431
820.93231	14373.7
824.78336	14321.2
828.63172	14308.5
832.47738	14321
836.32036	14304.1
840.16066	14306.1
843.99827	14265.2
847.8332	14276
851.66546	14291.1
855.49504	14309.6
859.32195	14298.4
863.1462	14251.5
866.96777	14180.4
870.78668	14189.4
874.60293	14226
878.41652	14308.9
882.22745	14372.7
886.03573	14430.6
889.84136	14439.2
893.64433	14371.8
897.44466	14309.6
901.24235	14215.5
905.0374	14149.4
908.8298	14075.3
912.61957	14059
916.40671	14104
920.19121	14312
923.97308	14548.4
927.75233	14628.7
931.52895	14556.5
935.30295	14300
939.07433	13979.3
942.84309	13695.2
946.60924	13581.1
950.37278	13504.5
954.13371	13491.9
957.89203	13487.7
961.64774	13480.2
965.40086	13489
969.15137	13498.6
972.89929	13456.8
976.64461	13450.4
980.38733	13477.5
984.12747	13495.3
987.86502	13579.6
991.59999	13705.6
995.33237	13881.4
999.06217	14283.3
1002.78939	14749.4
1006.51404	15265.6
1010.23611	15635.2
1013.95561	15864.6
1017.67255	15870.6
1021.38692	15523.5
1025.09872	15046.6
1028.80796	14650.9
1032.51465	14581.8
1036.21877	14646.6
1039.92035	14711.8
1043.61937	14742.7
1047.31584	14749.9
1051.00976	14697.8
1054.70114	14668.2
1058.38998	14674.4
1062.07627	14789.5
1065.76003	14915
1069.44126	15106.1
1073.11995	15416.9
1076.79611	15716.9
1080.46974	16012.7
1084.14085	16319.9
1087.80943	16655.3
1091.47549	16829.5
1095.13903	16694.3
1098.80005	16289.7
1102.45857	15853
1106.11456	15709
1109.76805	15708.2
1113.41903	15891.2
1117.06751	16240
1120.71348	16675.1
1124.35696	17150.5
1127.99793	17517.9
1131.63641	17542.3
1135.2724	17169
1138.90589	16839.8
1142.5369	16655.7
1146.16542	16606.4
1149.79145	16723.4
1153.415	16828.5
1157.03607	17001.9
1160.65467	17413.8
1164.27079	18179
1167.88443	19340.7
1171.49561	21009.9
1175.10432	23397.5
1178.71056	26484.5
1182.31434	29154.4
1185.91565	29919.5
1189.51451	29006.4
1193.11091	27443.9
1196.70485	25714.4
1200.29634	24121.9
1203.88538	22866.6
1207.47197	21750.4
1211.05612	20908.4
1214.63782	20362.4
1218.21708	20218.5
1221.79391	20315.9
1225.36829	20513.8
1228.94024	20493.4
1232.50976	19926.4
1236.07685	19246.6
1239.6415	18863.3
1243.20374	18789.4
1246.76355	18872.3
1250.32093	19043.5
1253.8759	19411.5
1257.42845	20045.3
1260.97859	20792.7
1264.52631	21631.1
1268.07163	22486.7
1271.61453	23260
1275.15503	23837.4
1278.69312	24402.7
1282.22882	25095.4
1285.76211	26125.1
1289.29301	27455.2
1292.82151	29042.9
1296.34761	30809.3
1299.87133	32990.9
1303.39266	35664
1306.9116	38747.5
1310.42815	41877.9
1313.94233	43613.6
1317.45412	42933.3
1320.96354	40581.2
1324.47058	37978.5
1327.97525	35658.5
1331.47754	33891.8
1334.97747	32920.5
1338.47502	32605.7
1341.97022	32618.5
1345.46305	32934.3
1348.95352	33720.3
1352.44163	35280.1
1355.92738	37955.7
1359.41078	41882
1362.89183	45455.8
1366.37053	44924.3
1369.84688	39488.5
1373.32088	33113.5
1376.79254	29185.3
1380.26186	27648.7
1383.72883	27103.9
1387.19347	26613.2
1390.65578	25912.6
1394.11575	25521
1397.57339	25594.3
1401.0287	25776.1
1404.48168	25986.8
1407.93234	25825
1411.38068	25515.8
1414.82669	25012.9
1418.27039	24424.3
1421.71177	23600.6
1425.15083	22802.3
1428.58758	22478
1432.02203	22795.2
1435.45416	23509.1
1438.88399	24121.9
1442.31151	24437.9
1445.73673	24553.3
1449.15965	24604.7
1452.58027	24461.8
1455.9986	24129.4
1459.41463	24043.7
1462.82837	24441.4
1466.23982	25204
1469.64898	26092.8
1473.05586	26912
1476.46045	27455.4
1479.86276	27810.5
1483.26279	27974.6
1486.66054	28212.8
1490.05602	28834.6
1493.44922	29714.2
1496.84016	30603.6
1500.22882	31685.6
1503.61521	33406.9
1506.99934	35374.6
1510.38121	36860.2
1513.76081	36652.2
1517.13816	34523.3
1520.51324	31640.7
1523.88607	29357.1
1527.25665	28120
1530.62498	27630.4
1533.99105	27314.8
1537.35488	26752.4
1540.71647	26049.1
1544.07581	25204.6
1547.4329	24398
1550.78776	23722.6
1554.14038	23215.7
1557.49077	23022.5
1560.83892	23071.8
1564.18484	23418.3
1567.52853	24049
1570.86999	24658
1574.20922	25275.5
1577.54624	25366.8
1580.88103	24764.7
1584.2136	23976.6
1587.54395	24057
1590.87208	25315.9
1594.19801	27478.3
1597.52172	30026.3
1600.84321	31323
1604.16251	30146.8
1607.47959	27396.5
1610.79447	24263.5
1614.10715	21588.7
1617.41763	19577.3
1620.7259	18381.5
1624.03199	17793.2
1627.33587	17837.2
1630.63757	18469
1633.93707	20006.7
1637.23439	22649.7
1640.52951	26902.7
1643.82246	32364.2
1647.11321	37148.7
1650.40179	38296
1653.68819	34865
1656.97241	28852.2
1660.25446	23206.6
1663.53433	19343.4
1666.81203	17013.9
1670.08756	15677
1673.36092	14856.9
1676.63211	14323.6
1679.90115	13948.8
1683.16801	13699.2
1686.43272	13505.7
1689.69527	13299.6
1692.95567	13205.6
1696.2139	13097
1699.46999	13065
1702.72392	12986.7
1705.97571	12929.4
1709.22535	12900.4
1712.47284	12865.9
1715.71819	12853.2
1718.96139	12808.5
1722.20246	12771.2
1725.44139	12709
1728.67818	12547.3
1731.91284	12435.5
1735.14537	12358.3
1738.37576	12281.6
1741.60403	12239.1
1744.83017	12189.7
1748.05418	12133.7
1751.27607	12089.6
1754.49584	12092.6
1757.71349	12084.5
1760.92903	12060.8
1764.14244	12043.1
1767.35375	12024.9
1770.56294	11973.4
1773.77002	11940.6
1776.97499	11932
1780.17785	11891.5
1783.37861	11851.9
1786.57727	11797.3
1789.77382	11759.8
1792.96828	11756
1796.16064	11729.8
1799.3509	11691.9
1802.53907	11672.6
1805.72514	11621.1
1808.90913	11605.7
1812.09102	11587.9
1815.27083	11527.4
1818.44856	11511.8
1821.6242	11501.4
1824.79776	11489.2
1827.96924	11491.3
1831.13864	11441.1
1834.30597	11464.1
1837.47122	11413.4
1840.6344	11407.6
1843.7955	11386.5
1846.95454	11403.4
1850.11151	11394.4
1853.26642	11353.3
1856.41926	11368.1
1859.57004	11344.6
1862.71876	11330.5
1865.86542	11336.7
1869.01003	11301
1872.15258	11305.9
1875.29308	11268.8
1878.43152	11277.2
1881.56792	11268.3
1884.70227	11253.7
1887.83457	11275.6
1890.96482	11263.8
1894.09304	11248.1
1897.21921	11232.5
1900.34335	11221.6
1903.46544	11222.9
1906.58551	11203.7
1909.70353	11222.1
1912.81953	11204.9
1915.93349	11177
1919.04543	11140.6
1922.15534	11110.6
1925.26322	11078.9
1928.36908	11060.4
1931.47292	11022.4
1934.57473	10974.7
1937.67453	10950.3
1940.77232	10912
1943.86808	10893.4
1946.96184	10835.8
1950.05358	10823.6
1953.14331	10791
1956.23103	10774.3
1959.31675	10754.7
1962.40046	10715.1
1965.48217	10688.4
1968.56188	10676.7
1971.63959	10640.7
1974.7153	10611.8
1977.78901	10568.8
1980.86073	10539
1983.93046	10515
1986.99819	10450.3
1990.06394	10440.2
1993.1277	10379.3
1996.18947	10351.9
1999.24925	10308.4
2002.30706	10250.1
2005.36288	10223.3
2008.41672	10196
2011.46859	10151.4
2014.51848	10127.8
2017.56639	10112.2
2020.61233	10062.4
2023.6563	10055.8
2026.6983	10034.7
2029.73833	10019.3
2032.7764	9959.1
2035.8125	9978.2
2038.84664	9948.5
2041.87881	9944.8
2044.90903	9930.5
2047.93729	9908.6
2050.96359	9892.5
2053.98794	9871.6
2057.01034	9856.5
2060.03078	9850.9
2063.04927	9826.6
2066.06582	9798.8
2069.08042	9798.1
2072.09307	9793.8
2075.10378	9780.6
2078.11255	9780.8
2081.11938	9773.7
2084.12426	9746.5
2087.12722	9769.7
2090.12824	9759.9
2093.12732	9785.4
2096.12447	9777.5
2099.11969	9782.9
2102.11299	9794.4
2105.10435	9772.5
2108.09379	9776.1
2111.08131	9766.8
2114.0669	9775
2117.05057	9804.1
2120.03233	9798.6
2123.01216	9788.7
2125.99008	9775
2128.96609	9802.4
2131.94018	9818
2134.91236	9780.8
2137.88263	9802.8
2140.851	9779.1
2143.81746	9794.9
2146.78201	9807.2
2149.74466	9789.1
2152.7054	9780
2155.66425	9795.1
2158.6212	9787.6
2161.57625	9741.5
2164.52941	9777.6
2167.48067	9747.9
2170.43004	9753.2
2173.37752	9745.1
2176.32311	9757.2
2179.26681	9754.2
2182.20863	9757.6
2185.14856	9749.5
2188.08661	9725.6
2191.02278	9713.4
2193.95707	9703.8
2196.88948	9701.5
2199.82001	9699.8
2202.74867	9670.9
2205.67545	9687.5
2208.60037	9665.3
2211.52341	9638.9
2214.44458	9622
2217.36388	9581.8
2220.28132	9591.1
2223.1969	9589.6
2226.11061	9566.8
2229.02246	9532.5
2231.93245	9536.7
2234.84058	9518.3
2237.74686	9493.6
2240.65128	9502.1
2243.55385	9460.1
2246.45456	9468.7
2249.35343	9457.2
2252.25044	9437.1
2255.14561	9418.5
2258.03893	9403.4
2260.93041	9385
2263.82004	9345.4
2266.70783	9334
2269.59378	9333.3
2272.4779	9296.2
2275.36017	9265.7
2278.24061	9272.2
2281.11922	9235.3
2283.996	9246
2286.87094	9225.4
2289.74405	9177.4
2292.61534	9174.6
2295.4848	9154.8
2298.35243	9167.1
2301.21824	9161.6
2304.08223	9118.9
2306.94439	9129.6
2309.80474	9130
2312.66327	9143.3
2315.51999	9130.8
2318.37489	9090.4
2321.22797	9113.9
2324.07925	9072.3
2326.92871	9105.8
2329.77637	9065.2
2332.62222	9052.6
2335.46626	9059.5
2338.3085	9053.1
2341.14893	9049.9
2343.98756	9041.4
2346.8244	9037.4
2349.65943	9074.8
2352.49267	9065.7
2355.32411	9060.2
2358.15376	9051.2
2360.98161	9072.2
2363.80768	9051.7
2366.63195	9068.3
2369.45444	9051
2372.27514	9037.7
2375.09405	9032.3
2377.91118	9015.7
2380.72652	9009.9
2383.54009	8976.8
2386.35187	8960.4
2389.16188	8933.3
2391.97011	8919.6
2394.77657	8928.8
2397.58125	8868.3
2400.38416	8854.1
2403.18529	8826.4
2405.98466	8849.4
2408.78226	8807
2411.57809	8799.5
2414.37216	8770.8
2417.16446	8777.9
2419.955	8733.4
2422.74378	8765.5
2425.5308	8744
2428.31606	8745
2431.09956	8732.7
2433.88131	8709
2436.6613	8726.5
2439.43954	8715.5
2442.21603	8727.2
2444.99077	8700
2447.76377	8748.7
2450.53501	8719.4
2453.30451	8754.8
2456.07226	8715.5
2458.83827	8753.7
2461.60254	8745
2464.36507	8735.3
2467.12586	8724.5
2469.88492	8738.1
2472.64224	8757.5
2475.39782	8746.9
2478.15167	8759.6
2480.90379	8751.8
2483.65417	8762.8
2486.40283	8787.5
2489.14976	8790.6
2491.89497	8788.2
2494.63845	8786.8
2497.3802	8772.3
2500.12024	8780.4
2502.85855	8772.9
2505.59514	8767.3
2508.33002	8745.4
2511.06318	8717.8
2513.79462	8709
2516.52435	8685.9
2519.25237	8686.1
2521.97867	8660.9
2524.70327	8666.7
2527.42616	8663.2
2530.14734	8645.8
2532.86681	8643.5
2535.58458	8642
2538.30065	8608.3
2541.01501	8613.7
2543.72768	8610
2546.43864	8620
2549.14791	8599.6
2551.85548	8579.1
2554.56136	8592.8
2557.26554	8581.9
2559.96803	8558.8
2562.66883	8579.9
2565.36794	8581.4
2568.06536	8587.9
2570.7611	8578
2573.45514	8561
2576.14751	8546.6
2578.83819	8556.9
2581.52719	8543.8
2584.21451	8511.8
2586.90015	8514.8
2589.58411	8478.8
2592.2664	8509.9
2594.94701	8496.3
2597.62594	8467.7
2600.30321	8437.6
2602.9788	8455
2605.65273	8447.9
2608.32498	8458.2
2610.99557	8466.4
2613.66449	8458
2616.33175	8456.2
2618.99734	8464.8
2621.66128	8448.3
2624.32355	8447.6
2626.98416	8437.6
2629.64311	8414.4
2632.30041	8423.3
2634.95605	8412.8
2637.61004	8416.5
2640.26238	8387.8
2642.91306	8382.2
2645.56209	8391.1
2648.20948	8393.3
2650.85521	8394.4
2653.4993	8407.9
2656.14175	8420.8
2658.78255	8425.2
2661.42171	8426.1
2664.05923	8449.6
2666.6951	8440.1
2669.32934	8473.2
2671.96194	8446.9
2674.59291	8429.9
2677.22224	8450.4
2679.84993	8440.6
2682.476	8410.7
2685.10043	8440.7
2687.72324	8440.2
2690.34441	8446.6
2692.96396	8446.2
2695.58188	8453.1
2698.19818	8426
2700.81285	8406.5
2703.4259	8436.6
2706.03733	8438.6
2708.64714	8424.5
2711.25533	8449.9
2713.86191	8457
2716.46687	8461.9
2719.07021	8455.8
2721.67194	8474.2
2724.27206	8462
2726.87057	8470
2729.46747	8475.9
2732.06276	8464.8
2734.65644	8456.1
2737.24852	8465.1
2739.83899	8471
2742.42786	8481.5
2745.01513	8440.9
2747.60079	8441.4
2750.18486	8421.5
2752.76733	8448
2755.3482	8428.1
2757.92747	8433
2760.50515	8423.8
2763.08123	8398.7
2765.65573	8425.8
2768.22863	8418.3
2770.79994	8396.5
2773.36967	8411.1
2775.9378	8408.4
2778.50435	8376
2781.06932	8384.5
2783.6327	8411.6
2786.1945	8378.2
2788.75471	8361.3
2791.31335	8344.2
2793.87041	8356
2796.42589	8332.4
2798.97979	8346.3
2801.53212	8340.5
2804.08288	8336.7
2806.63206	8303.9
2809.17967	8312.2
2811.72571	8307
2814.27018	8306.5
2816.81308	8281.9
2819.35442	8287.3
2821.89419	8282.4
2824.43239	8272.7
2826.96904	8233.9
2829.50412	8251.2
2832.03763	8261.8
2834.56959	8252.4
2837.1	8214.8
2839.62884	8239.5
2842.15613	8205.5
2844.68186	8241.1
2847.20604	8215.2
2849.72867	8223.6
2852.24974	8208.4
2854.76927	8197.6
2857.28724	8172.1
2859.80367	8191.8
2862.31855	8158.4
2864.83189	8182.5
2867.34368	8181.1
2869.85393	8179.5
2872.36264	8181.5
2874.8698	8193.2
2877.37543	8199
2879.87952	8171.5
2882.38207	8197.1
2884.88308	8173.8
2887.38256	8160.3
2889.88051	8165.1
2892.37692	8157
2894.8718	8162
2897.36515	8163.8
2899.85698	8159.8
2902.34727	8190.5
2904.83604	8188.6
2907.32328	8191.9
2909.809	8193.9
2912.29319	8199.1
2914.77587	8191.2
2917.25702	8199.7
2919.73665	8189.8
2922.21476	8178.8
2924.69136	8166.9
2927.16644	8144.8
2929.64	8174.5
2932.11205	8143.5
2934.58258	8117.6
2937.05161	8125.5
2939.51912	8119.6
2941.98513	8110.7
2944.44962	8083.8
2946.91261	8071.5
2949.37409	8086.2
2951.83407	8075.9
2954.29254	8070.4
2956.74951	8051.4
2959.20498	8039.2
2961.65895	8028.7
2964.11142	8039.7
2966.56239	8019.8
2969.01186	8019.5
2971.45984	7976.6
2973.90632	7965.2
2976.35131	7939.4
2978.7948	7927.9
2981.23681	7908.3
2983.67732	7890.7
2986.11635	7878.6
2988.55388	7855.8
2990.98993	7837
2993.4245	7814.3
2995.85758	7812.7
2998.28917	7782.8
3000.71928	7754.5
3003.14791	7743.4
3005.57506	7755.9
3008.00073	7730
3010.42493	7728
3012.84764	7722.6
3015.26888	7701.4
3017.68865	7683.3
3020.10694	7659.3
3022.52376	7637.9
3024.9391	7609.6
3027.35298	7585.6
3029.76539	7620.9
3032.17632	7591.5
3034.5858	7594.6
3036.9938	7579.4
3039.40034	7530.2
3041.80542	7534.3
3044.20903	7497.4
3046.61118	7517.9
3049.01187	7475
3051.4111	7491.8
3053.80888	7457.9
3056.20519	7475.2
3058.60005	7437.5
3060.99345	7410
3063.3854	7439.9
3065.7759	7371.8
3068.16494	7399.4
3070.55254	7351.4
3072.93868	7346.8
3075.32338	7324.5
3077.70662	7312.5
3080.08842	7277.8
3082.46878	7297.1
3084.84769	7245.9
3087.22515	7273.7
3089.60118	7243.1
3091.97576	7251.7
3094.3489	7245.9
3096.72061	7249
3099.09087	7271
3101.4597	7232.4
3103.82709	7210
3106.19305	7200.6
3108.55757	7213.3
3110.92066	7169.9
3113.28232	7156.5
3115.64255	7122.7
3118.00134	7114
3120.35871	7109
3122.71466	7105.5
3125.06917	7073.1
3127.42226	7097.8
3129.77393	7099.3
3132.12417	7088.7
3134.47299	7088.7
3136.82039	7095.6
3139.16636	7073.1
3141.51092	7110
3143.85406	7083.1
3146.19579	7081.2
3148.53609	7077.7
3150.87499	7077.4
3153.21246	7074
3155.54853	7069.5
3157.88318	7055.3
3160.21642	7041.4
3162.54826	7011.8
3164.87868	7008.3
3167.2077	7015.9
3169.5353	7024.9
3171.86151	7009.4
3174.18631	7007.7
3176.5097	7007.5
3178.83169	7006.7
3181.15228	7011.9
3183.47147	6972.6
3185.78926	6991
3188.10565	6980.9
3190.42065	6982.4
3192.73424	6991.3
3195.04645	6989.6
3197.35725	6989.7
3199.66667	7005.7
3201.97469	6991.6
3204.28132	6985.6
3206.58656	6998.2
3208.8904	6974.1
3211.19287	6985.3
3213.49394	6993.7
3215.79363	6975
3218.09193	6970.5
3220.38884	6950.1
3222.68438	6961.5
3224.97853	6941.2
3227.2713	6919.3
3229.56269	6933.1
3231.8527	6930.7
3234.14133	6904.7
3236.42858	6895.8
3238.71446	6895.8
3240.99896	6915.3
3243.28209	6890.4
3245.56384	6895.5
3247.84423	6887.3
3250.12324	6872.9
3252.40088	6868.3
3254.67715	6866
3256.95205	6851.3
3259.22558	6831
3261.49775	6799.3
3263.76855	6814.2
3266.03799	6772.8
3268.30606	6791.6
3270.57277	6748.6
3272.83812	6753.5
3275.10211	6734.3
3277.36474	6748.5
3279.62601	6758.5
3281.88593	6768.1
3284.14448	6758.4
3286.40168	6768.1
3288.65753	6760
3290.91202	6766.2
3293.16516	6747
3295.41695	6725.5
3297.66738	6676.9
3299.91647	6675.2
3302.16421	6621.5
3304.4106	6602.8
3306.65564	6575.5
3308.89933	6535
3311.14169	6491.8
3313.38269	6462.6
3315.62236	6408.6
3317.86068	6356.7
3320.09766	6283.8
3322.3333	6220.5
3324.5676	6229.5
3326.80056	6119.2
3329.03219	6108.9
3331.26248	1.6
3333.49143	0.1
3335.71905	0.2
