Data from AgNP_FTO_APTES_UA_100uM_CRN_20uM_R6G_10uM_NaF_0.1M_Addition_RamanShift__33__17-04-20-515.txt Node

Date: Thu Mar 24 17:04:20 GMT 2022
User: TCL
Spectrometer: QEP01345
Trigger mode: 4
Integration Time (sec): 7.000000E0
Scans to average: 10
Electric dark correction enabled: true
Nonlinearity correction enabled: false
Boxcar width: 0
XAxis mode: Raman Shifts
Number of Pixels in Spectrum: 1044
>>>>>Begin Spectral Data<<<<<
46.04893	-2.5625
50.45542	0.1375
54.85868	-0.1625
59.25871	-0.2625
63.6555	41.3375
68.04907	47.8375
72.43941	48.3375
76.82654	47.5375
81.21044	52.1375
85.59113	51.7375
89.96862	55.6375
94.34289	54.8375
98.71396	59.2375
103.08183	58.2375
107.4465	60.9375
111.80798	64.7375
116.16626	67.2375
120.52136	69.0375
124.87327	71.3375
129.222	76.2375
133.56755	79.2375
137.90993	85.1375
142.24913	97.1375
146.58517	106.5375
150.91804	130.2375
155.24774	155.9375
159.57429	197.5375
163.89768	258.6375
168.21792	349.5375
172.53501	489.7375
176.84895	687.4375
181.15975	963.3375
185.46741	1357.9375
189.77193	1878.8375
194.07331	2535.6375
198.37157	3285.3375
202.6667	4078.1375
206.9587	4888.2375
211.24758	5740.1375
215.53334	6667.7375
219.81599	7710.5375
224.09553	8925.1375
228.37195	10257.6375
232.64527	11695.5375
236.91549	13092.7375
241.18261	14220.1375
245.44663	15026.1375
249.70755	15647.7375
253.96539	16174.3375
258.22014	16696.6375
262.4718	17168.3375
266.72039	17435.3375
270.96589	17493.0375
275.20832	17208.1375
279.44768	16768.0375
283.68397	16257.9375
287.91719	16033.0375
292.14735	16111.3375
296.37445	16722.1375
300.59849	17785.8375
304.81948	19052.7375
309.03742	20088.3375
313.25231	20246.9375
317.46415	19270.9375
321.67296	17438.1375
325.87872	15771.4375
330.08145	14943.0375
334.28114	14830.3375
338.47781	15166.4375
342.67145	15701.4375
346.86207	16544.7375
351.04966	17831.6375
355.23424	19300.2375
359.4158	20365.7375
363.59435	20760.6375
367.76989	20721.0375
371.94243	20479.0375
376.11196	20194.5375
380.27849	19844.5375
384.44203	19405.1375
388.60257	18987.6375
392.76012	18745.3375
396.91468	18846.5375
401.06626	19374.9375
405.21485	19729.2375
409.36047	19081.8375
413.50311	17593.2375
417.64277	16205.9375
421.77947	15350.2375
425.9132	15005.5375
430.04396	14934.6375
434.17176	15042.6375
438.2966	15298.5375
442.41849	15802.9375
446.53742	16463.0375
450.6534	17010.4375
454.76644	17351.2375
458.87653	17180.8375
462.98368	16852.8375
467.08789	16439.4375
471.18916	15934.6375
475.2875	15413.7375
479.38291	14945.1375
483.4754	14575.5375
487.56496	14256.8375
491.6516	14112.3375
495.73531	14036.0375
499.81612	14076.8375
503.89401	14294.5375
507.96899	14550.4375
512.04106	14900.0375
516.11023	15290.4375
520.1765	15568.4375
524.23987	15573.7375
528.30034	15391.8375
532.35792	15127.4375
536.41261	14764.4375
540.46441	14310.4375
544.51333	14075.7375
548.55936	14251.2375
552.60252	14730.6375
556.64279	15348.2375
560.6802	15639.2375
564.71473	16044.4375
568.7464	17038.4375
572.7752	17529.6375
576.80114	16610.7375
580.82422	15591.7375
584.84444	15243.8375
588.86181	15366.7375
592.87633	15742.9375
596.888	16094.2375
600.89682	16680.0375
604.9028	19415.6375
608.90594	27372.2375
612.90624	38051.1375
616.90371	36055.4375
620.89834	22499.5375
624.89015	16018.3375
628.87913	14887.2375
632.86528	15291.7375
636.84862	15749.8375
640.82913	15275.9375
644.80683	14065.7375
648.78172	13252.8375
652.75379	13239.0375
656.72306	14172.5375
660.68952	15260.5375
664.65319	14912.8375
668.61405	13617.1375
672.57211	13006.3375
676.52738	12980.4375
680.47986	12958.8375
684.42955	12746.2375
688.37646	12595.5375
692.32058	12639.0375
696.26192	12833.4375
700.20048	13123.6375
704.13626	13313.8375
708.06928	13236.9375
711.99952	13085.8375
715.927	13031.7375
719.85171	13210.0375
723.77365	13328.0375
727.69284	13217.9375
731.60928	13047.1375
735.52295	13045.0375
739.43388	13127.6375
743.34206	13202.6375
747.24749	13202.0375
751.15017	13256.5375
755.05012	13605.1375
758.94733	14776.1375
762.8418	17725.4375
766.73354	22641.5375
770.62254	27243.1375
774.50882	29211.1375
778.39237	27329.7375
782.27321	22406.0375
786.15132	17621.3375
790.02671	14875.9375
793.89938	13653.8375
797.76935	13152.5375
801.6366	12919.2375
805.50115	12812.5375
809.36299	12721.2375
813.22213	12673.7375
817.07857	12621.9375
820.93231	12608.3375
824.78336	12694.8375
828.63172	12772.4375
832.47738	12781.8375
836.32036	12711.0375
840.16066	12550.1375
843.99827	12455.0375
847.8332	12456.3375
851.66546	12379.6375
855.49504	12417.2375
859.32195	12366.6375
863.1462	12279.9375
866.96777	12275.3375
870.78668	12258.8375
874.60293	12332.3375
878.41652	12379.4375
882.22745	12549.4375
886.03573	12646.5375
889.84136	12620.9375
893.64433	12521.2375
897.44466	12490.7375
901.24235	12490.8375
905.0374	12411.3375
908.8298	12277.6375
912.61957	12157.7375
916.40671	12209.1375
920.19121	12324.2375
923.97308	12558.3375
927.75233	12837.6375
931.52895	13149.0375
935.30295	12919.7375
939.07433	12332.2375
942.84309	11854.5375
946.60924	11570.8375
950.37278	11442.3375
954.13371	11349.8375
957.89203	11309.5375
961.64774	11285.2375
965.40086	11242.5375
969.15137	11214.1375
972.89929	11151.6375
976.64461	11121.8375
980.38733	11123.9375
984.12747	11170.3375
987.86502	11271.1375
991.59999	11402.4375
995.33237	11608.8375
999.06217	12006.9375
1002.78939	12452.2375
1006.51404	12905.8375
1010.23611	13263.4375
1013.95561	13394.7375
1017.67255	13291.9375
1021.38692	13023.2375
1025.09872	12756.3375
1028.80796	12620.9375
1032.51465	12743.3375
1036.21877	12983.1375
1039.92035	13135.8375
1043.61937	13134.3375
1047.31584	13048.9375
1051.00976	12897.2375
1054.70114	12737.6375
1058.38998	12679.2375
1062.07627	12697.2375
1065.76003	12742.7375
1069.44126	12812.0375
1073.11995	13024.6375
1076.79611	13350.8375
1080.46974	13906.2375
1084.14085	14625.3375
1087.80943	15316.1375
1091.47549	15529.8375
1095.13903	15024.8375
1098.80005	14270.1375
1102.45857	13696.8375
1106.11456	13570.2375
1109.76805	13872.9375
1113.41903	14537.6375
1117.06751	15622.3375
1120.71348	16950.6375
1124.35696	18389.4375
1127.99793	19233.3375
1131.63641	18575.7375
1135.2724	16950.4375
1138.90589	15642.7375
1142.5369	14813.3375
1146.16542	14291.4375
1149.79145	14007.6375
1153.415	13972.9375
1157.03607	14111.5375
1160.65467	14594.9375
1164.27079	15428.0375
1167.88443	16765.7375
1171.49561	18884.2375
1175.10432	22211.3375
1178.71056	26750.1375
1182.31434	30347.3375
1185.91565	31098.6375
1189.51451	29553.1375
1193.11091	26810.5375
1196.70485	23917.0375
1200.29634	21838.7375
1203.88538	20341.4375
1207.47197	18574.5375
1211.05612	17003.7375
1214.63782	16088.6375
1218.21708	15740.6375
1221.79391	15721.3375
1225.36829	15736.8375
1228.94024	15576.1375
1232.50976	15266.8375
1236.07685	15089.5375
1239.6415	15101.0375
1243.20374	15278.4375
1246.76355	15406.4375
1250.32093	15725.7375
1253.8759	16187.4375
1257.42845	16856.8375
1260.97859	17771.2375
1264.52631	18720.7375
1268.07163	19644.8375
1271.61453	20341.7375
1275.15503	20740.3375
1278.69312	20929.2375
1282.22882	21290.0375
1285.76211	22069.4375
1289.29301	23258.2375
1292.82151	24427.2375
1296.34761	25764.5375
1299.87133	28023.0375
1303.39266	31869.6375
1306.9116	37654.0375
1310.42815	43685.1375
1313.94233	45974.2375
1317.45412	43107.6375
1320.96354	37825.3375
1324.47058	32842.0375
1327.97525	28823.5375
1331.47754	26356.7375
1334.97747	25470.6375
1338.47502	25752.9375
1341.97022	27009.9375
1345.46305	29300.1375
1348.95352	32542.6375
1352.44163	36683.1375
1355.92738	42824.7375
1359.41078	52325.0375
1362.89183	60128.3375
1366.37053	56196.6375
1369.84688	43789.9375
1373.32088	33337.6375
1376.79254	27535.1375
1380.26186	24564.6375
1383.72883	22799.7375
1387.19347	21485.5375
1390.65578	20298.8375
1394.11575	19439.2375
1397.57339	19075.2375
1401.0287	19048.6375
1404.48168	19172.1375
1407.93234	19210.0375
1411.38068	19298.4375
1414.82669	19348.7375
1418.27039	19204.4375
1421.71177	18688.4375
1425.15083	18108.2375
1428.58758	17952.5375
1432.02203	18366.8375
1435.45416	18838.9375
1438.88399	18998.2375
1442.31151	18991.0375
1445.73673	19143.8375
1449.15965	19357.9375
1452.58027	19239.4375
1455.9986	18948.0375
1459.41463	18795.4375
1462.82837	19115.6375
1466.23982	19822.1375
1469.64898	20578.0375
1473.05586	21042.5375
1476.46045	21269.9375
1479.86276	21668.6375
1483.26279	22265.4375
1486.66054	23169.2375
1490.05602	24480.1375
1493.44922	26475.2375
1496.84016	29559.8375
1500.22882	34574.2375
1503.61521	41874.5375
1506.99934	50210.5375
1510.38121	56522.2375
1513.76081	57009.0375
1517.13816	50577.3375
1520.51324	41014.2375
1523.88607	32877.1375
1527.25665	28004.9375
1530.62498	25369.3375
1533.99105	23924.9375
1537.35488	22875.2375
1540.71647	22177.6375
1544.07581	21736.0375
1547.4329	21535.3375
1550.78776	21466.6375
1554.14038	21611.6375
1557.49077	21985.9375
1560.83892	22756.0375
1564.18484	23933.0375
1567.52853	25351.2375
1570.86999	26300.7375
1574.20922	26863.7375
1577.54624	26475.1375
1580.88103	24325.3375
1584.2136	21670.6375
1587.54395	20172.9375
1590.87208	20317.3375
1594.19801	21927.6375
1597.52172	24260.3375
1600.84321	25295.3375
1604.16251	24338.8375
1607.47959	22428.6375
1610.79447	20336.8375
1614.10715	18286.6375
1617.41763	16617.0375
1620.7259	15556.7375
1624.03199	15107.7375
1627.33587	15215.3375
1630.63757	15818.1375
1633.93707	17096.7375
1637.23439	19276.8375
1640.52951	22899.9375
1643.82246	28344.0375
1647.11321	34805.1375
1650.40179	38774.5375
1653.68819	36584.0375
1656.97241	29453.3375
1660.25446	22335.2375
1663.53433	17646.9375
1666.81203	15053.4375
1670.08756	13581.3375
1673.36092	12684.2375
1676.63211	12106.0375
1679.90115	11771.4375
1683.16801	11476.2375
1686.43272	11286.7375
1689.69527	11135.5375
1692.95567	11013.9375
1696.2139	10941.9375
1699.46999	10886.5375
1702.72392	10838.9375
1705.97571	10838.6375
1709.22535	10806.5375
1712.47284	10796.7375
1715.71819	10821.4375
1718.96139	10766.2375
1722.20246	10707.7375
1725.44139	10604.1375
1728.67818	10476.6375
1731.91284	10358.7375
1735.14537	10254.4375
1738.37576	10195.2375
1741.60403	10166.5375
1744.83017	10103.9375
1748.05418	10070.0375
1751.27607	10007.6375
1754.49584	9975.1375
1757.71349	9944.4375
1760.92903	9916.7375
1764.14244	9896.0375
1767.35375	9883.2375
1770.56294	9814.0375
1773.77002	9744.8375
1776.97499	9707.5375
1780.17785	9650.0375
1783.37861	9604.9375
1786.57727	9582.1375
1789.77382	9572.4375
1792.96828	9570.4375
1796.16064	9528.6375
1799.3509	9511.3375
1802.53907	9503.4375
1805.72514	9445.6375
1808.90913	9396.1375
1812.09102	9369.6375
1815.27083	9353.7375
1818.44856	9333.6375
1821.6242	9293.7375
1824.79776	9288.0375
1827.96924	9230.9375
1831.13864	9238.4375
1834.30597	9200.1375
1837.47122	9171.8375
1840.6344	9154.5375
1843.7955	9145.1375
1846.95454	9131.6375
1850.11151	9093.6375
1853.26642	9102.9375
1856.41926	9104.8375
1859.57004	9113.0375
1862.71876	9087.1375
1865.86542	9098.7375
1869.01003	9108.2375
1872.15258	9105.7375
1875.29308	9078.7375
1878.43152	9100.8375
1881.56792	9103.4375
1884.70227	9097.3375
1887.83457	9099.4375
1890.96482	9080.8375
1894.09304	9064.9375
1897.21921	9044.8375
1900.34335	9026.0375
1903.46544	9055.5375
1906.58551	9058.1375
1909.70353	9039.9375
1912.81953	9026.6375
1915.93349	9029.4375
1919.04543	8987.3375
1922.15534	8982.7375
1925.26322	8935.7375
1928.36908	8905.3375
1931.47292	8893.2375
1934.57473	8857.9375
1937.67453	8818.0375
1940.77232	8796.2375
1943.86808	8753.8375
1946.96184	8725.6375
1950.05358	8682.5375
1953.14331	8668.1375
1956.23103	8645.3375
1959.31675	8640.0375
1962.40046	8596.0375
1965.48217	8609.5375
1968.56188	8584.4375
1971.63959	8599.9375
1974.7153	8583.0375
1977.78901	8554.4375
1980.86073	8503.3375
1983.93046	8444.2375
1986.99819	8398.4375
1990.06394	8382.8375
1993.1277	8350.4375
1996.18947	8303.5375
1999.24925	8282.4375
2002.30706	8251.2375
2005.36288	8206.5375
2008.41672	8193.1375
2011.46859	8131.5375
2014.51848	8140.4375
2017.56639	8105.4375
2020.61233	8067.7375
2023.6563	8063.9375
2026.6983	8041.0375
2029.73833	8013.4375
2032.7764	7991.7375
2035.8125	7979.4375
2038.84664	7979.8375
2041.87881	7973.6375
2044.90903	7954.6375
2047.93729	7937.4375
2050.96359	7917.8375
2053.98794	7875.7375
2057.01034	7878.7375
2060.03078	7881.0375
2063.04927	7836.8375
2066.06582	7836.0375
2069.08042	7827.8375
2072.09307	7827.7375
2075.10378	7802.4375
2078.11255	7811.9375
2081.11938	7807.7375
2084.12426	7822.9375
2087.12722	7805.6375
2090.12824	7807.3375
2093.12732	7824.2375
2096.12447	7813.3375
2099.11969	7809.5375
2102.11299	7816.2375
2105.10435	7801.8375
2108.09379	7822.8375
2111.08131	7807.3375
2114.0669	7821.5375
2117.05057	7836.5375
2120.03233	7846.2375
2123.01216	7875.9375
2125.99008	7874.3375
2128.96609	7896.1375
2131.94018	7877.6375
2134.91236	7860.9375
2137.88263	7838.7375
2140.851	7882.7375
2143.81746	7867.9375
2146.78201	7840.8375
2149.74466	7828.6375
2152.7054	7810.9375
2155.66425	7808.1375
2158.6212	7796.9375
2161.57625	7778.8375
2164.52941	7784.4375
2167.48067	7782.4375
2170.43004	7784.6375
2173.37752	7760.3375
2176.32311	7784.8375
2179.26681	7772.7375
2182.20863	7770.4375
2185.14856	7814.8375
2188.08661	7768.8375
2191.02278	7766.3375
2193.95707	7778.0375
2196.88948	7769.1375
2199.82001	7750.8375
2202.74867	7744.3375
2205.67545	7756.9375
2208.60037	7746.4375
2211.52341	7741.8375
2214.44458	7730.0375
2217.36388	7684.2375
2220.28132	7699.4375
2223.1969	7677.0375
2226.11061	7668.8375
2229.02246	7621.8375
2231.93245	7604.1375
2234.84058	7590.8375
2237.74686	7605.3375
2240.65128	7589.6375
2243.55385	7572.3375
2246.45456	7553.2375
2249.35343	7558.5375
2252.25044	7579.9375
2255.14561	7611.2375
2258.03893	7620.8375
2260.93041	7607.8375
2263.82004	7609.8375
2266.70783	7576.7375
2269.59378	7556.4375
2272.4779	7539.2375
2275.36017	7521.2375
2278.24061	7510.0375
2281.11922	7484.5375
2283.996	7466.4375
2286.87094	7469.2375
2289.74405	7448.9375
2292.61534	7397.9375
2295.4848	7393.1375
2298.35243	7385.1375
2301.21824	7364.8375
2304.08223	7367.6375
2306.94439	7371.0375
2309.80474	7395.7375
2312.66327	7407.6375
2315.51999	7379.0375
2318.37489	7373.5375
2321.22797	7374.1375
2324.07925	7378.7375
2326.92871	7357.9375
2329.77637	7363.6375
2332.62222	7344.4375
2335.46626	7329.5375
2338.3085	7361.7375
2341.14893	7375.7375
2343.98756	7390.7375
2346.8244	7402.3375
2349.65943	7411.2375
2352.49267	7427.7375
2355.32411	7462.4375
2358.15376	7476.3375
2360.98161	7474.9375
2363.80768	7494.7375
2366.63195	7525.2375
2369.45444	7521.3375
2372.27514	7497.7375
2375.09405	7471.4375
2377.91118	7467.5375
2380.72652	7400.9375
2383.54009	7376.4375
2386.35187	7335.6375
2389.16188	7290.6375
2391.97011	7273.9375
2394.77657	7246.6375
2397.58125	7220.1375
2400.38416	7187.7375
2403.18529	7176.4375
2405.98466	7172.3375
2408.78226	7145.2375
2411.57809	7099.4375
2414.37216	7106.5375
2417.16446	7106.2375
2419.955	7091.2375
2422.74378	7116.5375
2425.5308	7090.2375
2428.31606	7083.6375
2431.09956	7123.2375
2433.88131	7092.5375
2436.6613	7110.1375
2439.43954	7106.8375
2442.21603	7121.0375
2444.99077	7122.3375
2447.76377	7147.6375
2450.53501	7152.8375
2453.30451	7161.5375
2456.07226	7148.2375
2458.83827	7156.5375
2461.60254	7167.9375
2464.36507	7140.3375
2467.12586	7153.9375
2469.88492	7139.7375
2472.64224	7168.9375
2475.39782	7177.7375
2478.15167	7190.7375
2480.90379	7229.9375
2483.65417	7272.1375
2486.40283	7292.3375
2489.14976	7314.3375
2491.89497	7327.2375
2494.63845	7317.7375
2497.3802	7315.0375
2500.12024	7285.4375
2502.85855	7259.7375
2505.59514	7242.2375
2508.33002	7203.2375
2511.06318	7145.1375
2513.79462	7102.1375
2516.52435	7066.9375
2519.25237	7069.1375
2521.97867	7011.0375
2524.70327	6988.0375
2527.42616	7000.0375
2530.14734	6988.2375
2532.86681	6994.1375
2535.58458	6983.1375
2538.30065	6972.7375
2541.01501	6995.0375
2543.72768	6985.0375
2546.43864	7007.2375
2549.14791	6996.1375
2551.85548	6997.3375
2554.56136	7008.2375
2557.26554	6975.8375
2559.96803	6977.9375
2562.66883	6984.5375
2565.36794	6952.1375
2568.06536	6939.4375
2570.7611	6935.7375
2573.45514	6925.8375
2576.14751	6916.1375
2578.83819	6907.4375
2581.52719	6902.7375
2584.21451	6874.1375
2586.90015	6891.0375
2589.58411	6886.2375
2592.2664	6888.5375
2594.94701	6893.1375
2597.62594	6873.5375
2600.30321	6841.9375
2602.9788	6867.3375
2605.65273	6862.2375
2608.32498	6853.8375
2610.99557	6860.5375
2613.66449	6884.4375
2616.33175	6887.3375
2618.99734	6895.0375
2621.66128	6892.2375
2624.32355	6872.6375
2626.98416	6870.7375
2629.64311	6859.6375
2632.30041	6871.7375
2634.95605	6850.5375
2637.61004	6838.8375
2640.26238	6822.5375
2642.91306	6808.3375
2645.56209	6803.3375
2648.20948	6793.3375
2650.85521	6790.2375
2653.4993	6806.3375
2656.14175	6806.1375
2658.78255	6812.3375
2661.42171	6816.3375
2664.05923	6844.0375
2666.6951	6867.8375
2669.32934	6888.7375
2671.96194	6880.4375
2674.59291	6899.6375
2677.22224	6872.2375
2679.84993	6880.5375
2682.476	6849.0375
2685.10043	6852.4375
2687.72324	6838.3375
2690.34441	6830.7375
2692.96396	6822.2375
2695.58188	6824.1375
2698.19818	6816.9375
2700.81285	6828.8375
2703.4259	6828.4375
2706.03733	6822.6375
2708.64714	6805.6375
2711.25533	6839.4375
2713.86191	6839.3375
2716.46687	6867.5375
2719.07021	6861.4375
2721.67194	6871.5375
2724.27206	6861.0375
2726.87057	6866.9375
2729.46747	6870.7375
2732.06276	6861.1375
2734.65644	6822.8375
2737.24852	6811.9375
2739.83899	6789.0375
2742.42786	6802.7375
2745.01513	6768.0375
2747.60079	6773.1375
2750.18486	6734.3375
2752.76733	6756.9375
2755.3482	6756.8375
2757.92747	6736.3375
2760.50515	6698.1375
2763.08123	6728.5375
2765.65573	6715.8375
2768.22863	6731.1375
2770.79994	6709.5375
2773.36967	6717.6375
2775.9378	6730.6375
2778.50435	6720.2375
2781.06932	6716.2375
2783.6327	6737.8375
2786.1945	6730.8375
2788.75471	6722.8375
2791.31335	6727.8375
2793.87041	6732.1375
2796.42589	6725.5375
2798.97979	6709.1375
2801.53212	6714.6375
2804.08288	6712.7375
2806.63206	6701.8375
2809.17967	6695.9375
2811.72571	6716.6375
2814.27018	6734.7375
2816.81308	6744.2375
2819.35442	6735.0375
2821.89419	6769.7375
2824.43239	6763.8375
2826.96904	6760.6375
2829.50412	6763.0375
2832.03763	6723.2375
2834.56959	6732.6375
2837.1	6731.4375
2839.62884	6752.8375
2842.15613	6738.3375
2844.68186	6746.9375
2847.20604	6752.2375
2849.72867	6774.3375
2852.24974	6764.9375
2854.76927	6760.8375
2857.28724	6779.6375
2859.80367	6816.6375
2862.31855	6811.2375
2864.83189	6827.9375
2867.34368	6830.7375
2869.85393	6842.8375
2872.36264	6842.4375
2874.8698	6840.4375
2877.37543	6845.2375
2879.87952	6858.3375
2882.38207	6839.6375
2884.88308	6817.4375
2887.38256	6820.8375
2889.88051	6800.7375
2892.37692	6798.0375
2894.8718	6783.6375
2897.36515	6791.9375
2899.85698	6771.5375
2902.34727	6778.2375
2904.83604	6782.7375
2907.32328	6813.1375
2909.809	6775.9375
2912.29319	6799.7375
2914.77587	6772.4375
2917.25702	6790.7375
2919.73665	6778.4375
2922.21476	6746.4375
2924.69136	6729.9375
2927.16644	6748.0375
2929.64	6697.5375
2932.11205	6695.3375
2934.58258	6655.1375
2937.05161	6659.4375
2939.51912	6630.6375
2941.98513	6619.0375
2944.44962	6591.1375
2946.91261	6600.6375
2949.37409	6611.1375
2951.83407	6612.5375
2954.29254	6628.7375
2956.74951	6612.6375
2959.20498	6646.7375
2961.65895	6631.7375
2964.11142	6597.2375
2966.56239	6559.6375
2969.01186	6579.0375
2971.45984	6561.3375
2973.90632	6521.2375
2976.35131	6505.8375
2978.7948	6483.4375
2981.23681	6473.1375
2983.67732	6449.7375
2986.11635	6458.1375
2988.55388	6433.2375
2990.98993	6440.3375
2993.4245	6419.8375
2995.85758	6403.3375
2998.28917	6425.8375
3000.71928	6397.4375
3003.14791	6402.2375
3005.57506	6411.9375
3008.00073	6381.3375
3010.42493	6422.2375
3012.84764	6394.8375
3015.26888	6401.7375
3017.68865	6375.0375
3020.10694	6385.8375
3022.52376	6349.6375
3024.9391	6332.1375
3027.35298	6306.2375
3029.76539	6306.1375
3032.17632	6291.2375
3034.5858	6257.5375
3036.9938	6246.2375
3039.40034	6228.9375
3041.80542	6239.8375
3044.20903	6196.0375
3046.61118	6208.8375
3049.01187	6171.1375
3051.4111	6176.8375
3053.80888	6143.2375
3056.20519	6146.8375
3058.60005	6109.2375
3060.99345	6114.4375
3063.3854	6074.2375
3065.7759	6069.3375
3068.16494	6058.1375
3070.55254	6031.2375
3072.93868	6027.6375
3075.32338	6017.0375
3077.70662	6004.3375
3080.08842	5988.7375
3082.46878	5981.0375
3084.84769	5971.3375
3087.22515	5984.5375
3089.60118	5990.2375
3091.97576	5974.5375
3094.3489	5946.2375
3096.72061	5958.8375
3099.09087	5963.1375
3101.4597	5940.6375
3103.82709	5945.8375
3106.19305	5936.3375
3108.55757	5930.0375
3110.92066	5922.4375
3113.28232	5940.1375
3115.64255	5923.4375
3118.00134	5888.6375
3120.35871	5899.3375
3122.71466	5875.2375
3125.06917	5873.0375
3127.42226	5866.9375
3129.77393	5867.9375
3132.12417	5855.7375
3134.47299	5862.6375
3136.82039	5858.2375
3139.16636	5844.8375
3141.51092	5856.0375
3143.85406	5857.4375
3146.19579	5863.8375
3148.53609	5863.4375
3150.87499	5875.8375
3153.21246	5883.0375
3155.54853	5905.3375
3157.88318	5894.3375
3160.21642	5895.5375
3162.54826	5889.8375
3164.87868	5878.9375
3167.2077	5891.8375
3169.5353	5879.4375
3171.86151	5895.8375
3174.18631	5893.0375
3176.5097	5890.9375
3178.83169	5881.9375
3181.15228	5871.1375
3183.47147	5868.7375
3185.78926	5885.6375
3188.10565	5864.4375
3190.42065	5868.9375
3192.73424	5867.1375
3195.04645	5867.7375
3197.35725	5868.1375
3199.66667	5881.3375
3201.97469	5911.1375
3204.28132	5911.7375
3206.58656	5924.6375
3208.8904	5916.3375
3211.19287	5924.7375
3213.49394	5946.6375
3215.79363	5958.5375
3218.09193	5961.3375
3220.38884	5964.5375
3222.68438	5974.1375
3224.97853	5971.5375
3227.2713	5969.6375
3229.56269	5980.8375
3231.8527	5979.3375
3234.14133	5967.9375
3236.42858	5968.5375
3238.71446	5953.4375
3240.99896	5949.0375
3243.28209	5928.8375
3245.56384	5935.7375
3247.84423	5937.8375
3250.12324	5934.7375
3252.40088	5917.8375
3254.67715	5943.3375
3256.95205	5942.3375
3259.22558	5934.5375
3261.49775	5934.8375
3263.76855	5928.6375
3266.03799	5916.3375
3268.30606	5926.6375
3270.57277	5898.4375
3272.83812	5908.1375
3275.10211	5900.6375
3277.36474	5899.1375
3279.62601	5895.1375
3281.88593	5876.2375
3284.14448	5914.2375
3286.40168	5907.2375
3288.65753	5919.9375
3290.91202	5917.7375
3293.16516	5890.4375
3295.41695	5897.4375
3297.66738	5876.9375
3299.91647	5836.2375
3302.16421	5797.6375
3304.4106	5766.2375
3306.65564	5748.1375
3308.89933	5696.9375
3311.14169	5649.6375
3313.38269	5608.5375
3315.62236	5563.7375
3317.86068	5511.3375
3320.09766	5468.6375
3322.3333	5409.8375
3324.5676	5401.2375
3326.80056	5316.8375
3329.03219	5285.7375
3331.26248	3.0375
3333.49143	-1.5625
3335.71905	0.8375
