Data from AgNP_FTO_APTES_UA_100uM_CRN_0uM_R6G_10uM_NaF_0.1M_Addition_RamanShift__35__11-26-00-127.txt Node

Date: Thu Mar 24 11:26:00 GMT 2022
User: TCL
Spectrometer: QEP01345
Trigger mode: 4
Integration Time (sec): 7.000000E0
Scans to average: 10
Electric dark correction enabled: true
Nonlinearity correction enabled: false
Boxcar width: 0
XAxis mode: Raman Shifts
Number of Pixels in Spectrum: 1044
>>>>>Begin Spectral Data<<<<<
46.04893	-0.4375
50.45542	0.7625
54.85868	-0.9375
59.25871	0.2625
63.6555	41.8625
68.04907	46.8625
72.43941	44.5625
76.82654	44.7625
81.21044	51.2625
85.59113	52.7625
89.96862	54.8625
94.34289	54.2625
98.71396	55.7625
103.08183	58.5625
107.4465	60.8625
111.80798	57.4625
116.16626	60.7625
120.52136	63.3625
124.87327	63.8625
129.222	70.0625
133.56755	75.9625
137.90993	80.2625
142.24913	89.7625
146.58517	97.0625
150.91804	118.8625
155.24774	142.7625
159.57429	172.4625
163.89768	226.1625
168.21792	305.3625
172.53501	417.7625
176.84895	579.2625
181.15975	820.8625
185.46741	1136.6625
189.77193	1581.7625
194.07331	2118.9625
198.37157	2734.5625
202.6667	3388.2625
206.9587	4037.9625
211.24758	4725.7625
215.53334	5493.0625
219.81599	6317.9625
224.09553	7290.9625
228.37195	8396.1625
232.64527	9500.0625
236.91549	10642.9625
241.18261	11589.4625
245.44663	12335.5625
249.70755	12876.8625
253.96539	13283.2625
258.22014	13675.9625
262.4718	14033.7625
266.72039	14239.7625
270.96589	14247.5625
275.20832	14075.2625
279.44768	13796.0625
283.68397	13473.1625
287.91719	13320.9625
292.14735	13398.6625
296.37445	13763.4625
300.59849	14441.5625
304.81948	15277.2625
309.03742	15997.1625
313.25231	16180.1625
317.46415	15500.0625
321.67296	14241.2625
325.87872	13113.6625
330.08145	12525.5625
334.28114	12445.9625
338.47781	12649.3625
342.67145	13022.3625
346.86207	13587.0625
351.04966	14475.3625
355.23424	15489.0625
359.4158	16238.3625
363.59435	16509.1625
367.76989	16493.4625
371.94243	16350.8625
376.11196	16107.9625
380.27849	15938.8625
384.44203	15737.2625
388.60257	15496.0625
392.76012	15314.9625
396.91468	15406.4625
401.06626	15800.0625
405.21485	16117.6625
409.36047	15709.0625
413.50311	14742.4625
417.64277	13820.6625
421.77947	13316.0625
425.9132	13117.6625
430.04396	13135.8625
434.17176	13271.2625
438.2966	13513.8625
442.41849	14039.3625
446.53742	14784.0625
450.6534	15473.3625
454.76644	15740.1625
458.87653	15615.4625
462.98368	15170.5625
467.08789	14681.0625
471.18916	14181.5625
475.2875	13748.4625
479.38291	13390.3625
483.4754	13084.2625
487.56496	12840.4625
491.6516	12614.5625
495.73531	12428.3625
499.81612	12385.9625
503.89401	12516.9625
507.96899	12712.6625
512.04106	12849.8625
516.11023	12987.5625
520.1765	13067.1625
524.23987	13041.0625
528.30034	12996.4625
532.35792	12799.6625
536.41261	12463.9625
540.46441	12035.1625
544.51333	11755.8625
548.55936	11873.4625
552.60252	12303.6625
556.64279	12974.7625
560.6802	13493.3625
564.71473	13959.0625
568.7464	14864.7625
572.7752	15589.5625
576.80114	15256.3625
580.82422	14613.4625
584.84444	14574.9625
588.86181	15109.4625
592.87633	16049.5625
596.888	16445.3625
600.89682	15968.1625
604.9028	17062.4625
608.90594	22354.3625
612.90624	29510.1625
616.90371	28247.3625
620.89834	18317.3625
624.89015	13284.5625
628.87913	12342.7625
632.86528	12561.1625
636.84862	12872.7625
640.82913	12556.3625
644.80683	11616.7625
648.78172	10936.3625
652.75379	10911.0625
656.72306	11565.4625
660.68952	12419.6625
664.65319	12266.4625
668.61405	11374.6625
672.57211	10935.1625
676.52738	10952.2625
680.47986	10904.6625
684.42955	10709.1625
688.37646	10483.9625
692.32058	10535.3625
696.26192	10744.6625
700.20048	11043.8625
704.13626	11223.0625
708.06928	11208.7625
711.99952	11097.8625
715.927	11042.3625
719.85171	11159.8625
723.77365	11181.6625
727.69284	11007.4625
731.60928	10821.9625
735.52295	10843.4625
739.43388	10951.5625
743.34206	11062.2625
747.24749	11095.4625
751.15017	11201.3625
755.05012	11511.3625
758.94733	12396.1625
762.8418	14624.3625
766.73354	18415.6625
770.62254	22059.2625
774.50882	23569.9625
778.39237	22145.1625
782.27321	18564.8625
786.15132	14862.8625
790.02671	12556.0625
793.89938	11478.1625
797.76935	11016.5625
801.6366	10827.6625
805.50115	10705.4625
809.36299	10580.5625
813.22213	10467.4625
817.07857	10374.4625
820.93231	10333.9625
824.78336	10377.3625
828.63172	10419.1625
832.47738	10457.0625
836.32036	10403.1625
840.16066	10335.8625
843.99827	10303.6625
847.8332	10267.5625
851.66546	10221.5625
855.49504	10231.9625
859.32195	10189.6625
863.1462	10120.5625
866.96777	10058.2625
870.78668	10067.0625
874.60293	10062.8625
878.41652	10091.5625
882.22745	10242.9625
886.03573	10361.7625
889.84136	10375.5625
893.64433	10303.1625
897.44466	10261.4625
901.24235	10239.4625
905.0374	10094.7625
908.8298	9978.6625
912.61957	9874.6625
916.40671	9924.6625
920.19121	10090.0625
923.97308	10343.8625
927.75233	10621.9625
931.52895	10749.2625
935.30295	10550.5625
939.07433	10019.8625
942.84309	9585.2625
946.60924	9376.8625
950.37278	9274.0625
954.13371	9236.6625
957.89203	9181.4625
961.64774	9135.3625
965.40086	9102.6625
969.15137	9084.5625
972.89929	9043.4625
976.64461	8998.0625
980.38733	9001.2625
984.12747	9005.2625
987.86502	9117.8625
991.59999	9237.9625
995.33237	9504.4625
999.06217	9981.6625
1002.78939	10579.9625
1006.51404	11105.7625
1010.23611	11465.7625
1013.95561	11643.9625
1017.67255	11593.1625
1021.38692	11243.2625
1025.09872	10783.5625
1028.80796	10541.4625
1032.51465	10640.4625
1036.21877	10854.0625
1039.92035	10962.4625
1043.61937	10948.6625
1047.31584	10863.4625
1051.00976	10695.6625
1054.70114	10587.7625
1058.38998	10499.9625
1062.07627	10534.6625
1065.76003	10574.6625
1069.44126	10742.1625
1073.11995	11025.7625
1076.79611	11365.6625
1080.46974	11735.9625
1084.14085	12309.6625
1087.80943	12893.6625
1091.47549	13107.8625
1095.13903	12775.9625
1098.80005	12136.9625
1102.45857	11565.5625
1106.11456	11330.6625
1109.76805	11444.3625
1113.41903	11873.4625
1117.06751	12525.8625
1120.71348	13448.2625
1124.35696	14469.5625
1127.99793	15252.0625
1131.63641	14995.5625
1135.2724	13969.3625
1138.90589	13079.3625
1142.5369	12563.4625
1146.16542	12252.0625
1149.79145	12094.7625
1153.415	12106.5625
1157.03607	12279.4625
1160.65467	12735.4625
1164.27079	13600.1625
1167.88443	14940.2625
1171.49561	17037.0625
1175.10432	20219.3625
1178.71056	24431.3625
1182.31434	27859.9625
1185.91565	28844.9625
1189.51451	27654.0625
1193.11091	25437.3625
1196.70485	23088.7625
1200.29634	21009.5625
1203.88538	19240.7625
1207.47197	17528.7625
1211.05612	16156.9625
1214.63782	15439.5625
1218.21708	15404.4625
1221.79391	15714.2625
1225.36829	15876.4625
1228.94024	15543.9625
1232.50976	14841.3625
1236.07685	14334.3625
1239.6415	14103.9625
1243.20374	14033.1625
1246.76355	14110.9625
1250.32093	14327.4625
1253.8759	14785.4625
1257.42845	15491.3625
1260.97859	16367.4625
1264.52631	17404.1625
1268.07163	18379.6625
1271.61453	19277.0625
1275.15503	20013.3625
1278.69312	20567.4625
1282.22882	21157.7625
1285.76211	22119.5625
1289.29301	23430.3625
1292.82151	24877.3625
1296.34761	26676.8625
1299.87133	29062.9625
1303.39266	32626.0625
1306.9116	37487.8625
1310.42815	42746.5625
1313.94233	45299.9625
1317.45412	43462.4625
1320.96354	39319.3625
1324.47058	35102.8625
1327.97525	31761.0625
1331.47754	29627.9625
1334.97747	28764.2625
1338.47502	28735.3625
1341.97022	29178.2625
1345.46305	30079.4625
1348.95352	31813.3625
1352.44163	34415.3625
1355.92738	38771.8625
1359.41078	45501.9625
1362.89183	51447.5625
1366.37053	49337.7625
1369.84688	40193.1625
1373.32088	31631.0625
1376.79254	26672.7625
1380.26186	24246.3625
1383.72883	22839.2625
1387.19347	21863.1625
1390.65578	21118.8625
1394.11575	20882.3625
1397.57339	21102.8625
1401.0287	21544.2625
1404.48168	21830.5625
1407.93234	21814.7625
1411.38068	21483.6625
1414.82669	20974.6625
1418.27039	20209.8625
1421.71177	19307.5625
1425.15083	18453.0625
1428.58758	18142.8625
1432.02203	18507.5625
1435.45416	18996.0625
1438.88399	19251.3625
1442.31151	19375.5625
1445.73673	19574.2625
1449.15965	19828.1625
1452.58027	19927.3625
1455.9986	19853.1625
1459.41463	20008.6625
1462.82837	20548.5625
1466.23982	21255.1625
1469.64898	21860.6625
1473.05586	22146.6625
1476.46045	22191.2625
1479.86276	22162.5625
1483.26279	22366.7625
1486.66054	22867.8625
1490.05602	23813.3625
1493.44922	25138.5625
1496.84016	27050.7625
1500.22882	30265.7625
1503.61521	34883.0625
1506.99934	40267.8625
1510.38121	44558.1625
1513.76081	45094.3625
1517.13816	41075.8625
1520.51324	34633.0625
1523.88607	29164.9625
1527.25665	25906.7625
1530.62498	24297.8625
1533.99105	23364.7625
1537.35488	22632.7625
1540.71647	21972.1625
1544.07581	21393.1625
1547.4329	20820.8625
1550.78776	20437.3625
1554.14038	20217.6625
1557.49077	20262.0625
1560.83892	20577.9625
1564.18484	21321.8625
1567.52853	22356.9625
1570.86999	23247.2625
1574.20922	23766.6625
1577.54624	23597.9625
1580.88103	22167.2625
1584.2136	20378.2625
1587.54395	19732.6625
1590.87208	20592.2625
1594.19801	22767.4625
1597.52172	25458.8625
1600.84321	26650.4625
1604.16251	25355.0625
1607.47959	22613.7625
1610.79447	19653.4625
1614.10715	17027.2625
1617.41763	15108.6625
1620.7259	13904.7625
1624.03199	13358.7625
1627.33587	13441.5625
1630.63757	14102.6625
1633.93707	15535.2625
1637.23439	18075.2625
1640.52951	22100.9625
1643.82246	27651.8625
1647.11321	33273.7625
1650.40179	35952.0625
1653.68819	33307.0625
1656.97241	26650.3625
1660.25446	20075.1625
1663.53433	15494.7625
1666.81203	12873.2625
1670.08756	11423.0625
1673.36092	10529.5625
1676.63211	9992.6625
1679.90115	9615.2625
1683.16801	9335.3625
1686.43272	9155.0625
1689.69527	9029.3625
1692.95567	8898.8625
1696.2139	8863.4625
1699.46999	8784.7625
1702.72392	8735.8625
1705.97571	8724.7625
1709.22535	8701.4625
1712.47284	8682.8625
1715.71819	8661.8625
1718.96139	8613.3625
1722.20246	8566.4625
1725.44139	8476.5625
1728.67818	8355.2625
1731.91284	8276.8625
1735.14537	8181.6625
1738.37576	8102.0625
1741.60403	8053.0625
1744.83017	8011.7625
1748.05418	7980.1625
1751.27607	7944.0625
1754.49584	7907.6625
1757.71349	7897.3625
1760.92903	7871.5625
1764.14244	7853.1625
1767.35375	7831.2625
1770.56294	7796.6625
1773.77002	7749.8625
1776.97499	7690.0625
1780.17785	7674.6625
1783.37861	7637.1625
1786.57727	7608.0625
1789.77382	7593.4625
1792.96828	7572.0625
1796.16064	7569.9625
1799.3509	7533.7625
1802.53907	7504.8625
1805.72514	7488.3625
1808.90913	7449.4625
1812.09102	7438.1625
1815.27083	7406.9625
1818.44856	7376.1625
1821.6242	7362.5625
1824.79776	7343.6625
1827.96924	7347.9625
1831.13864	7324.4625
1834.30597	7300.4625
1837.47122	7295.9625
1840.6344	7277.7625
1843.7955	7294.0625
1846.95454	7285.2625
1850.11151	7274.2625
1853.26642	7263.4625
1856.41926	7295.8625
1859.57004	7288.6625
1862.71876	7302.0625
1865.86542	7284.0625
1869.01003	7295.0625
1872.15258	7310.9625
1875.29308	7313.7625
1878.43152	7331.3625
1881.56792	7319.2625
1884.70227	7339.7625
1887.83457	7325.9625
1890.96482	7349.8625
1894.09304	7348.9625
1897.21921	7349.8625
1900.34335	7355.5625
1903.46544	7358.3625
1906.58551	7350.5625
1909.70353	7344.6625
1912.81953	7324.6625
1915.93349	7300.9625
1919.04543	7285.7625
1922.15534	7241.2625
1925.26322	7229.7625
1928.36908	7178.7625
1931.47292	7148.5625
1934.57473	7101.9625
1937.67453	7057.8625
1940.77232	7032.5625
1943.86808	7014.6625
1946.96184	6966.5625
1950.05358	6965.7625
1953.14331	6916.7625
1956.23103	6931.1625
1959.31675	6910.5625
1962.40046	6883.6625
1965.48217	6894.3625
1968.56188	6885.4625
1971.63959	6906.5625
1974.7153	6883.5625
1977.78901	6842.8625
1980.86073	6813.6625
1983.93046	6766.5625
1986.99819	6725.4625
1990.06394	6721.3625
1993.1277	6672.5625
1996.18947	6659.1625
1999.24925	6635.9625
2002.30706	6594.9625
2005.36288	6575.9625
2008.41672	6547.5625
2011.46859	6539.5625
2014.51848	6501.0625
2017.56639	6485.7625
2020.61233	6457.7625
2023.6563	6427.7625
2026.6983	6392.7625
2029.73833	6397.1625
2032.7764	6376.4625
2035.8125	6367.2625
2038.84664	6352.2625
2041.87881	6339.7625
2044.90903	6316.7625
2047.93729	6334.0625
2050.96359	6321.5625
2053.98794	6293.0625
2057.01034	6283.5625
2060.03078	6265.5625
2063.04927	6274.9625
2066.06582	6261.2625
2069.08042	6275.8625
2072.09307	6264.9625
2075.10378	6244.8625
2078.11255	6255.6625
2081.11938	6290.8625
2084.12426	6274.4625
2087.12722	6262.2625
2090.12824	6261.4625
2093.12732	6264.5625
2096.12447	6268.2625
2099.11969	6259.9625
2102.11299	6253.7625
2105.10435	6256.2625
2108.09379	6245.7625
2111.08131	6241.9625
2114.0669	6229.4625
2117.05057	6249.0625
2120.03233	6234.3625
2123.01216	6238.9625
2125.99008	6240.7625
2128.96609	6241.2625
2131.94018	6240.6625
2134.91236	6242.3625
2137.88263	6227.6625
2140.851	6221.4625
2143.81746	6211.9625
2146.78201	6203.9625
2149.74466	6188.7625
2152.7054	6176.2625
2155.66425	6150.5625
2158.6212	6155.5625
2161.57625	6142.8625
2164.52941	6137.0625
2167.48067	6128.7625
2170.43004	6090.7625
2173.37752	6113.6625
2176.32311	6113.9625
2179.26681	6110.8625
2182.20863	6109.9625
2185.14856	6126.1625
2188.08661	6120.7625
2191.02278	6089.0625
2193.95707	6094.2625
2196.88948	6076.5625
2199.82001	6088.1625
2202.74867	6043.2625
2205.67545	6065.9625
2208.60037	6053.6625
2211.52341	6045.5625
2214.44458	6020.5625
2217.36388	6022.9625
2220.28132	6010.5625
2223.1969	5990.3625
2226.11061	5966.8625
2229.02246	5956.7625
2231.93245	5939.7625
2234.84058	5926.1625
2237.74686	5925.9625
2240.65128	5938.6625
2243.55385	5918.9625
2246.45456	5905.6625
2249.35343	5900.7625
2252.25044	5910.6625
2255.14561	5891.0625
2258.03893	5894.2625
2260.93041	5896.7625
2263.82004	5903.8625
2266.70783	5883.5625
2269.59378	5868.1625
2272.4779	5850.9625
2275.36017	5830.9625
2278.24061	5814.6625
2281.11922	5820.5625
2283.996	5800.7625
2286.87094	5776.0625
2289.74405	5768.3625
2292.61534	5755.7625
2295.4848	5724.3625
2298.35243	5753.5625
2301.21824	5735.0625
2304.08223	5748.8625
2306.94439	5729.2625
2309.80474	5730.3625
2312.66327	5754.4625
2315.51999	5756.6625
2318.37489	5761.8625
2321.22797	5743.5625
2324.07925	5730.5625
2326.92871	5729.1625
2329.77637	5740.8625
2332.62222	5737.1625
2335.46626	5732.7625
2338.3085	5720.8625
2341.14893	5727.7625
2343.98756	5756.9625
2346.8244	5782.4625
2349.65943	5785.5625
2352.49267	5773.6625
2355.32411	5796.3625
2358.15376	5801.6625
2360.98161	5819.9625
2363.80768	5848.8625
2366.63195	5844.2625
2369.45444	5855.6625
2372.27514	5843.3625
2375.09405	5834.4625
2377.91118	5815.0625
2380.72652	5789.3625
2383.54009	5768.0625
2386.35187	5722.0625
2389.16188	5696.3625
2391.97011	5675.4625
2394.77657	5664.2625
2397.58125	5640.2625
2400.38416	5634.1625
2403.18529	5607.7625
2405.98466	5595.4625
2408.78226	5578.9625
2411.57809	5582.6625
2414.37216	5545.5625
2417.16446	5543.4625
2419.955	5533.9625
2422.74378	5549.0625
2425.5308	5559.5625
2428.31606	5536.9625
2431.09956	5547.2625
2433.88131	5537.4625
2436.6613	5549.9625
2439.43954	5548.5625
2442.21603	5546.5625
2444.99077	5573.2625
2447.76377	5591.1625
2450.53501	5576.8625
2453.30451	5595.8625
2456.07226	5605.5625
2458.83827	5598.7625
2461.60254	5611.9625
2464.36507	5594.3625
2467.12586	5604.9625
2469.88492	5612.4625
2472.64224	5618.4625
2475.39782	5630.2625
2478.15167	5653.4625
2480.90379	5663.1625
2483.65417	5688.6625
2486.40283	5698.2625
2489.14976	5715.5625
2491.89497	5748.6625
2494.63845	5745.0625
2497.3802	5725.3625
2500.12024	5738.5625
2502.85855	5717.4625
2505.59514	5694.0625
2508.33002	5657.3625
2511.06318	5636.3625
2513.79462	5611.1625
2516.52435	5557.7625
2519.25237	5544.4625
2521.97867	5533.0625
2524.70327	5528.5625
2527.42616	5514.3625
2530.14734	5513.9625
2532.86681	5499.3625
2535.58458	5519.2625
2538.30065	5507.2625
2541.01501	5514.6625
2543.72768	5533.1625
2546.43864	5529.6625
2549.14791	5517.5625
2551.85548	5534.0625
2554.56136	5532.6625
2557.26554	5545.6625
2559.96803	5533.9625
2562.66883	5534.6625
2565.36794	5524.8625
2568.06536	5501.4625
2570.7611	5520.4625
2573.45514	5503.8625
2576.14751	5507.6625
2578.83819	5479.8625
2581.52719	5495.9625
2584.21451	5491.2625
2586.90015	5485.2625
2589.58411	5480.0625
2592.2664	5491.9625
2594.94701	5482.0625
2597.62594	5493.0625
2600.30321	5472.5625
2602.9788	5469.4625
2605.65273	5486.6625
2608.32498	5504.7625
2610.99557	5492.7625
2613.66449	5508.0625
2616.33175	5510.6625
2618.99734	5511.0625
2621.66128	5514.3625
2624.32355	5523.9625
2626.98416	5503.3625
2629.64311	5511.3625
2632.30041	5492.4625
2634.95605	5509.2625
2637.61004	5485.5625
2640.26238	5471.9625
2642.91306	5460.1625
2645.56209	5450.3625
2648.20948	5465.5625
2650.85521	5468.9625
2653.4993	5445.4625
2656.14175	5482.0625
2658.78255	5475.9625
2661.42171	5496.6625
2664.05923	5504.0625
2666.6951	5521.7625
2669.32934	5522.0625
2671.96194	5514.4625
2674.59291	5526.3625
2677.22224	5528.1625
2679.84993	5534.7625
2682.476	5527.8625
2685.10043	5523.9625
2687.72324	5515.3625
2690.34441	5491.0625
2692.96396	5499.1625
2695.58188	5491.7625
2698.19818	5481.0625
2700.81285	5486.8625
2703.4259	5494.2625
2706.03733	5509.1625
2708.64714	5486.9625
2711.25533	5506.7625
2713.86191	5504.3625
2716.46687	5521.3625
2719.07021	5513.8625
2721.67194	5527.3625
2724.27206	5523.2625
2726.87057	5553.1625
2729.46747	5535.3625
2732.06276	5540.5625
2734.65644	5511.2625
2737.24852	5504.2625
2739.83899	5514.7625
2742.42786	5509.8625
2745.01513	5486.5625
2747.60079	5485.8625
2750.18486	5480.1625
2752.76733	5475.7625
2755.3482	5473.1625
2757.92747	5485.8625
2760.50515	5468.1625
2763.08123	5469.1625
2765.65573	5468.9625
2768.22863	5471.8625
2770.79994	5477.4625
2773.36967	5468.3625
2775.9378	5491.7625
2778.50435	5490.4625
2781.06932	5478.3625
2783.6327	5480.4625
2786.1945	5489.5625
2788.75471	5478.7625
2791.31335	5478.8625
2793.87041	5477.7625
2796.42589	5494.2625
2798.97979	5479.7625
2801.53212	5496.0625
2804.08288	5481.3625
2806.63206	5476.6625
2809.17967	5481.8625
2811.72571	5503.4625
2814.27018	5492.1625
2816.81308	5504.0625
2819.35442	5500.1625
2821.89419	5527.7625
2824.43239	5539.9625
2826.96904	5539.8625
2829.50412	5551.9625
2832.03763	5542.8625
2834.56959	5535.4625
2837.1	5513.9625
2839.62884	5533.7625
2842.15613	5525.2625
2844.68186	5526.3625
2847.20604	5568.5625
2849.72867	5576.9625
2852.24974	5578.7625
2854.76927	5598.5625
2857.28724	5578.1625
2859.80367	5602.2625
2862.31855	5611.7625
2864.83189	5624.0625
2867.34368	5662.4625
2869.85393	5649.9625
2872.36264	5652.7625
2874.8698	5646.0625
2877.37543	5667.4625
2879.87952	5654.4625
2882.38207	5650.1625
2884.88308	5641.8625
2887.38256	5642.6625
2889.88051	5618.2625
2892.37692	5645.6625
2894.8718	5634.4625
2897.36515	5656.6625
2899.85698	5628.8625
2902.34727	5638.4625
2904.83604	5639.5625
2907.32328	5652.8625
2909.809	5633.8625
2912.29319	5645.9625
2914.77587	5623.4625
2917.25702	5640.8625
2919.73665	5607.7625
2922.21476	5587.9625
2924.69136	5587.2625
2927.16644	5583.4625
2929.64	5559.6625
2932.11205	5517.3625
2934.58258	5500.9625
2937.05161	5513.9625
2939.51912	5511.5625
2941.98513	5478.3625
2944.44962	5465.7625
2946.91261	5439.5625
2949.37409	5466.9625
2951.83407	5464.1625
2954.29254	5439.9625
2956.74951	5424.7625
2959.20498	5421.4625
2961.65895	5411.8625
2964.11142	5390.3625
2966.56239	5365.8625
2969.01186	5336.2625
2971.45984	5318.2625
2973.90632	5291.5625
2976.35131	5272.6625
2978.7948	5247.3625
2981.23681	5243.7625
2983.67732	5221.5625
2986.11635	5204.1625
2988.55388	5209.6625
2990.98993	5197.8625
2993.4245	5190.7625
2995.85758	5185.4625
2998.28917	5164.2625
3000.71928	5186.6625
3003.14791	5176.2625
3005.57506	5160.8625
3008.00073	5149.3625
3010.42493	5155.4625
3012.84764	5147.9625
3015.26888	5138.0625
3017.68865	5119.4625
3020.10694	5103.7625
3022.52376	5102.9625
3024.9391	5060.4625
3027.35298	5073.5625
3029.76539	5036.4625
3032.17632	5037.2625
3034.5858	5026.1625
3036.9938	5005.6625
3039.40034	4992.9625
3041.80542	4993.9625
3044.20903	4969.7625
3046.61118	4959.6625
3049.01187	4972.5625
3051.4111	4958.0625
3053.80888	4943.1625
3056.20519	4929.0625
3058.60005	4909.5625
3060.99345	4904.9625
3063.3854	4894.7625
3065.7759	4865.3625
3068.16494	4860.6625
3070.55254	4846.5625
3072.93868	4834.4625
3075.32338	4814.8625
3077.70662	4807.5625
3080.08842	4789.7625
3082.46878	4790.5625
3084.84769	4760.2625
3087.22515	4752.0625
3089.60118	4755.5625
3091.97576	4758.3625
3094.3489	4734.2625
3096.72061	4725.6625
3099.09087	4741.3625
3101.4597	4731.0625
3103.82709	4709.3625
3106.19305	4702.1625
3108.55757	4703.1625
3110.92066	4693.7625
3113.28232	4670.6625
3115.64255	4675.4625
3118.00134	4662.0625
3120.35871	4655.0625
3122.71466	4656.9625
3125.06917	4642.9625
3127.42226	4625.7625
3129.77393	4622.9625
3132.12417	4646.7625
3134.47299	4656.0625
3136.82039	4659.7625
3139.16636	4645.0625
3141.51092	4646.2625
3143.85406	4643.2625
3146.19579	4636.7625
3148.53609	4630.1625
3150.87499	4661.1625
3153.21246	4659.1625
3155.54853	4659.5625
3157.88318	4649.6625
3160.21642	4646.3625
3162.54826	4646.3625
3164.87868	4642.6625
3167.2077	4632.1625
3169.5353	4630.8625
3171.86151	4628.1625
3174.18631	4625.3625
3176.5097	4618.1625
3178.83169	4637.0625
3181.15228	4619.2625
3183.47147	4627.9625
3185.78926	4625.2625
3188.10565	4622.3625
3190.42065	4639.8625
3192.73424	4655.7625
3195.04645	4654.8625
3197.35725	4659.8625
3199.66667	4662.8625
3201.97469	4650.8625
3204.28132	4665.8625
3206.58656	4656.7625
3208.8904	4668.9625
3211.19287	4671.4625
3213.49394	4664.1625
3215.79363	4686.2625
3218.09193	4680.2625
3220.38884	4684.9625
3222.68438	4687.6625
3224.97853	4678.6625
3227.2713	4696.8625
3229.56269	4684.1625
3231.8527	4690.8625
3234.14133	4687.4625
3236.42858	4663.1625
3238.71446	4681.3625
3240.99896	4680.6625
3243.28209	4676.8625
3245.56384	4669.8625
3247.84423	4688.1625
3250.12324	4673.5625
3252.40088	4672.6625
3254.67715	4654.7625
3256.95205	4652.6625
3259.22558	4649.5625
3261.49775	4638.8625
3263.76855	4632.7625
3266.03799	4618.5625
3268.30606	4618.2625
3270.57277	4609.9625
3272.83812	4641.0625
3275.10211	4622.5625
3277.36474	4624.1625
3279.62601	4619.9625
3281.88593	4627.9625
3284.14448	4625.5625
3286.40168	4634.6625
3288.65753	4639.2625
3290.91202	4618.8625
3293.16516	4627.7625
3295.41695	4617.1625
3297.66738	4599.4625
3299.91647	4573.4625
3302.16421	4537.0625
3304.4106	4524.1625
3306.65564	4507.0625
3308.89933	4479.7625
3311.14169	4443.6625
3313.38269	4394.8625
3315.62236	4383.1625
3317.86068	4335.8625
3320.09766	4284.5625
3322.3333	4233.4625
3324.5676	4243.5625
3326.80056	4149.5625
3329.03219	4145.6625
3331.26248	1.6625
3333.49143	-0.7375
3335.71905	0.0625
