Data from AgNP_FTO_APTES_UA_100uM_CRN_20uM_R6G_10uM_NaF_0.1M_Addition_RamanShift__13__16-41-00-490.txt Node

Date: Thu Mar 24 16:41:00 GMT 2022
User: TCL
Spectrometer: QEP01345
Trigger mode: 4
Integration Time (sec): 7.000000E0
Scans to average: 10
Electric dark correction enabled: true
Nonlinearity correction enabled: false
Boxcar width: 0
XAxis mode: Raman Shifts
Number of Pixels in Spectrum: 1044
>>>>>Begin Spectral Data<<<<<
46.04893	-1.5
50.45542	0
54.85868	-0.3
59.25871	-0.6
63.6555	43.8
68.04907	45.7
72.43941	47.3
76.82654	44.6
81.21044	49.1
85.59113	52
89.96862	53.5
94.34289	51.8
98.71396	55.9
103.08183	52.9
107.4465	59.4
111.80798	60.1
116.16626	60.5
120.52136	59.2
124.87327	65.4
129.222	69
133.56755	75.1
137.90993	75.7
142.24913	87.2
146.58517	94.8
150.91804	113
155.24774	137.4
159.57429	172.2
163.89768	228.1
168.21792	304
172.53501	418
176.84895	585.8
181.15975	829.1
185.46741	1166.2
189.77193	1618
194.07331	2179.6
198.37157	2817
202.6667	3487.5
206.9587	4151.8
211.24758	4817.5
215.53334	5473.4
219.81599	6175.4
224.09553	6961.6
228.37195	7812.7
232.64527	8766.3
236.91549	9771.2
241.18261	10731.2
245.44663	11627.9
249.70755	12415.6
253.96539	13110.4
258.22014	13697.4
262.4718	14167.1
266.72039	14499.8
270.96589	14696.2
275.20832	14684.5
279.44768	14564.8
283.68397	14369.7
287.91719	14249.1
292.14735	14181.8
296.37445	14218.9
300.59849	14350.5
304.81948	14586.6
309.03742	14723.5
313.25231	14707.8
317.46415	14457.2
321.67296	14046.9
325.87872	13673.2
330.08145	13481.6
334.28114	13500.1
338.47781	13658.1
342.67145	13849.4
346.86207	14134.5
351.04966	14463.9
355.23424	14834.9
359.4158	15131.9
363.59435	15364.1
367.76989	15465.6
371.94243	15564.9
376.11196	15586.1
380.27849	15582.2
384.44203	15575.6
388.60257	15623.1
392.76012	15748.5
396.91468	15897.5
401.06626	16146.8
405.21485	16307.8
409.36047	16187.7
413.50311	15821.8
417.64277	15506.8
421.77947	15295.5
425.9132	15260.4
430.04396	15306.4
434.17176	15393.7
438.2966	15478.4
442.41849	15654.6
446.53742	15910.3
450.6534	16148
454.76644	16383.9
458.87653	16439.1
462.98368	16429.2
467.08789	16354.2
471.18916	16258
475.2875	16074.5
479.38291	15919.7
483.4754	15789.1
487.56496	15723.1
491.6516	15663.3
495.73531	15647.4
499.81612	15623.6
503.89401	15732.3
507.96899	15840.3
512.04106	15875.2
516.11023	15954.2
520.1765	15995.1
524.23987	15957.3
528.30034	15919.5
532.35792	15871.7
536.41261	15716.7
540.46441	15594.5
544.51333	15546.6
548.55936	15675.5
552.60252	15834.8
556.64279	16054.6
560.6802	16163.4
564.71473	16219.2
568.7464	16369.4
572.7752	16560.3
576.80114	16626.4
580.82422	16695.2
584.84444	16808.3
588.86181	16974.4
592.87633	17087
596.888	17172.1
600.89682	17325.6
604.9028	18112.1
608.90594	20304.1
612.90624	22949.8
616.90371	22054.4
620.89834	18224.5
624.89015	16418.6
628.87913	16129.2
632.86528	16311.5
636.84862	16538.8
640.82913	16455
644.80683	16052.1
648.78172	15784.5
652.75379	15746.4
656.72306	15983.4
660.68952	16369.4
664.65319	16271.6
668.61405	15919.8
672.57211	15822.9
676.52738	15890.8
680.47986	15857
684.42955	15776.7
688.37646	15685.7
692.32058	15728.6
696.26192	15806
700.20048	15979.5
704.13626	16098.4
708.06928	16079.8
711.99952	16003.5
715.927	15965
719.85171	15998.1
723.77365	16015.3
727.69284	15946.5
731.60928	15870
735.52295	15820.8
739.43388	15809.5
743.34206	15895.1
747.24749	15916.4
751.15017	15962.2
755.05012	16072.2
758.94733	16472.2
762.8418	17319.6
766.73354	18825.8
770.62254	20352.2
774.50882	20834.9
778.39237	20150.6
782.27321	18722.8
786.15132	17370.1
790.02671	16524.7
793.89938	16082
797.76935	15880.6
801.6366	15763.9
805.50115	15706.9
809.36299	15646.5
813.22213	15595.9
817.07857	15617.3
820.93231	15602.2
824.78336	15596.5
828.63172	15612.9
832.47738	15578.8
836.32036	15549
840.16066	15530.5
843.99827	15540.5
847.8332	15544.9
851.66546	15553.4
855.49504	15570.8
859.32195	15597.4
863.1462	15560
866.96777	15597.1
870.78668	15581.8
874.60293	15590.9
878.41652	15625.4
882.22745	15689.5
886.03573	15738.4
889.84136	15732
893.64433	15672.7
897.44466	15658.2
901.24235	15618.2
905.0374	15613
908.8298	15545.1
912.61957	15508.4
916.40671	15526.7
920.19121	15584.4
923.97308	15666.8
927.75233	15720.3
931.52895	15712.6
935.30295	15631.3
939.07433	15394.2
942.84309	15222.1
946.60924	15105.2
950.37278	15096.4
954.13371	15027.1
957.89203	15042.6
961.64774	15027.5
965.40086	15012.7
969.15137	14980.9
972.89929	14939.9
976.64461	14916.8
980.38733	14928.3
984.12747	14954.4
987.86502	14992.7
991.59999	15044.1
995.33237	15123.4
999.06217	15214.9
1002.78939	15396.3
1006.51404	15572.2
1010.23611	15748.7
1013.95561	15886.2
1017.67255	15879
1021.38692	15767.3
1025.09872	15669.7
1028.80796	15472.4
1032.51465	15455.8
1036.21877	15415.7
1039.92035	15481.9
1043.61937	15580.1
1047.31584	15631.7
1051.00976	15675.1
1054.70114	15705.9
1058.38998	15748.5
1062.07627	15786.9
1065.76003	15903.9
1069.44126	16025.7
1073.11995	16240.9
1076.79611	16503.8
1080.46974	16662.5
1084.14085	16785.2
1087.80943	16947
1091.47549	17062.1
1095.13903	16977.9
1098.80005	16795.5
1102.45857	16585.3
1106.11456	16419.4
1109.76805	16381.8
1113.41903	16411.3
1117.06751	16557
1120.71348	16818
1124.35696	17125.3
1127.99793	17427.1
1131.63641	17426.8
1135.2724	17190.2
1138.90589	16917.2
1142.5369	16732.2
1146.16542	16559.7
1149.79145	16455.5
1153.415	16387.3
1157.03607	16432.6
1160.65467	16600.6
1164.27079	16930.9
1167.88443	17412.1
1171.49561	18133.2
1175.10432	19183.8
1178.71056	20616.3
1182.31434	21897.6
1185.91565	22442.5
1189.51451	22293.8
1193.11091	21853.6
1196.70485	21161.5
1200.29634	20384.9
1203.88538	19751.6
1207.47197	19000.2
1211.05612	18364.9
1214.63782	17919.7
1218.21708	17610.9
1221.79391	17439
1225.36829	17348.5
1228.94024	17342.6
1232.50976	17308
1236.07685	17231.8
1239.6415	17201
1243.20374	17229.6
1246.76355	17265.5
1250.32093	17375.2
1253.8759	17530.8
1257.42845	17790
1260.97859	18128.3
1264.52631	18522.3
1268.07163	18926.6
1271.61453	19232
1275.15503	19470.6
1278.69312	19653.7
1282.22882	19808.4
1285.76211	20047.4
1289.29301	20442.1
1292.82151	20891.6
1296.34761	21374.7
1299.87133	22117
1303.39266	23124.8
1306.9116	24540.9
1310.42815	25912.1
1313.94233	26612
1317.45412	26075.9
1320.96354	25110.6
1324.47058	24118.3
1327.97525	23220.8
1331.47754	22592.5
1334.97747	22352.3
1338.47502	22467.4
1341.97022	22897.6
1345.46305	23617.2
1348.95352	24606.8
1352.44163	25635.5
1355.92738	26837.4
1359.41078	28570.1
1362.89183	30200.1
1366.37053	29802.1
1369.84688	26851.2
1373.32088	23613.9
1376.79254	21489.9
1380.26186	20408.5
1383.72883	19791.5
1387.19347	19358
1390.65578	18883.3
1394.11575	18506.1
1397.57339	18225.2
1401.0287	18001.8
1404.48168	17907.1
1407.93234	17857.6
1411.38068	17796.3
1414.82669	17712.5
1418.27039	17592
1421.71177	17401.5
1425.15083	17168.4
1428.58758	16995.1
1432.02203	17014.6
1435.45416	17029.4
1438.88399	17138.3
1442.31151	17222.9
1445.73673	17277.2
1449.15965	17371.2
1452.58027	17434.9
1455.9986	17458
1459.41463	17515.7
1462.82837	17714.5
1466.23982	17972.3
1469.64898	18324
1473.05586	18659.4
1476.46045	18879.9
1479.86276	19049.2
1483.26279	19221.7
1486.66054	19482.4
1490.05602	19924.5
1493.44922	20598.6
1496.84016	21743.1
1500.22882	23360.6
1503.61521	25526.1
1506.99934	27632.2
1510.38121	28945.7
1513.76081	28730.9
1517.13816	26942.6
1520.51324	24641.9
1523.88607	22653.2
1527.25665	21482.1
1530.62498	20830.6
1533.99105	20398.2
1537.35488	20067.5
1540.71647	19745
1544.07581	19397.1
1547.4329	19122.1
1550.78776	18895.8
1554.14038	18797.6
1557.49077	18857.4
1560.83892	19001
1564.18484	19321.3
1567.52853	19739.3
1570.86999	20161
1574.20922	20407.7
1577.54624	20339.7
1580.88103	19677.6
1584.2136	18840.6
1587.54395	18377.3
1590.87208	18362.6
1594.19801	18834.8
1597.52172	19568.7
1600.84321	19858.2
1604.16251	19500.8
1607.47959	18893
1610.79447	18247.3
1614.10715	17524.9
1617.41763	16831.3
1620.7259	16232.7
1624.03199	15881.2
1627.33587	15780.7
1630.63757	15906.3
1633.93707	16272.1
1637.23439	17005
1640.52951	18187.1
1643.82246	19921.1
1647.11321	21762.5
1650.40179	22910.6
1653.68819	22362.2
1656.97241	20387.7
1660.25446	18155.5
1663.53433	16486.6
1666.81203	15482.1
1670.08756	14843
1673.36092	14432.1
1676.63211	14168.7
1679.90115	13996.6
1683.16801	13828.6
1686.43272	13737.3
1689.69527	13616.5
1692.95567	13544.2
1696.2139	13506
1699.46999	13444.1
1702.72392	13383.2
1705.97571	13377.5
1709.22535	13339.4
1712.47284	13333.7
1715.71819	13334.9
1718.96139	13304.1
1722.20246	13250.7
1725.44139	13182.8
1728.67818	13145.7
1731.91284	13048.5
1735.14537	13016.7
1738.37576	12964.6
1741.60403	12912.8
1744.83017	12894.6
1748.05418	12835.8
1751.27607	12804.2
1754.49584	12779.5
1757.71349	12735.9
1760.92903	12732.6
1764.14244	12724.2
1767.35375	12697.6
1770.56294	12678.3
1773.77002	12644.4
1776.97499	12641.3
1780.17785	12571.2
1783.37861	12562.3
1786.57727	12539.1
1789.77382	12518.8
1792.96828	12517.7
1796.16064	12444.8
1799.3509	12463.3
1802.53907	12445.6
1805.72514	12378.4
1808.90913	12355.4
1812.09102	12353.5
1815.27083	12294.7
1818.44856	12294.3
1821.6242	12265
1824.79776	12221
1827.96924	12223.1
1831.13864	12193.8
1834.30597	12170.1
1837.47122	12163.6
1840.6344	12141.2
1843.7955	12113.8
1846.95454	12088.2
1850.11151	12065.1
1853.26642	12077.9
1856.41926	12068.4
1859.57004	12075.6
1862.71876	12039.3
1865.86542	12055.5
1869.01003	12029.4
1872.15258	11997.3
1875.29308	12003.3
1878.43152	11974.8
1881.56792	11967.4
1884.70227	11946
1887.83457	11953.6
1890.96482	11916.9
1894.09304	11898.5
1897.21921	11868.1
1900.34335	11845
1903.46544	11832.7
1906.58551	11840.7
1909.70353	11801.2
1912.81953	11803.4
1915.93349	11773.3
1919.04543	11755.3
1922.15534	11703.2
1925.26322	11672.6
1928.36908	11662
1931.47292	11626
1934.57473	11592.8
1937.67453	11574.9
1940.77232	11575.6
1943.86808	11544.5
1946.96184	11468
1950.05358	11437.1
1953.14331	11371.7
1956.23103	11360.5
1959.31675	11315
1962.40046	11287.5
1965.48217	11281.2
1968.56188	11254.2
1971.63959	11224.1
1974.7153	11180.5
1977.78901	11145.1
1980.86073	11132.5
1983.93046	11075
1986.99819	11014.9
1990.06394	10998.5
1993.1277	10961.3
1996.18947	10916.8
1999.24925	10905
2002.30706	10846.7
2005.36288	10815
2008.41672	10771.1
2011.46859	10722.5
2014.51848	10701.1
2017.56639	10688.4
2020.61233	10637.5
2023.6563	10616.2
2026.6983	10593.4
2029.73833	10572.8
2032.7764	10505.3
2035.8125	10471.7
2038.84664	10461.2
2041.87881	10421
2044.90903	10398.5
2047.93729	10380.4
2050.96359	10395.1
2053.98794	10348.5
2057.01034	10319.1
2060.03078	10315
2063.04927	10301.2
2066.06582	10289.1
2069.08042	10297.8
2072.09307	10286.7
2075.10378	10281.1
2078.11255	10267.5
2081.11938	10244
2084.12426	10237.3
2087.12722	10242.1
2090.12824	10254.9
2093.12732	10273.5
2096.12447	10243
2099.11969	10255.6
2102.11299	10261.9
2105.10435	10244.7
2108.09379	10235.2
2111.08131	10274.9
2114.0669	10285.1
2117.05057	10273.5
2120.03233	10253.8
2123.01216	10261.1
2125.99008	10295.3
2128.96609	10315.9
2131.94018	10278.7
2134.91236	10300
2137.88263	10277.8
2140.851	10310.3
2143.81746	10332.1
2146.78201	10295.7
2149.74466	10295.9
2152.7054	10269.2
2155.66425	10263.6
2158.6212	10268.2
2161.57625	10253.5
2164.52941	10247.8
2167.48067	10271.3
2170.43004	10243.2
2173.37752	10248.4
2176.32311	10221
2179.26681	10224.7
2182.20863	10217.5
2185.14856	10230.4
2188.08661	10199.1
2191.02278	10200.5
2193.95707	10190.3
2196.88948	10179
2199.82001	10174
2202.74867	10153.4
2205.67545	10143.7
2208.60037	10132.1
2211.52341	10120.4
2214.44458	10099.7
2217.36388	10073
2220.28132	10048.9
2223.1969	10015
2226.11061	9999
2229.02246	9946.3
2231.93245	9934.9
2234.84058	9915.2
2237.74686	9904.6
2240.65128	9921.3
2243.55385	9889
2246.45456	9880.3
2249.35343	9852.6
2252.25044	9865.7
2255.14561	9823.6
2258.03893	9845
2260.93041	9797.7
2263.82004	9791.3
2266.70783	9781.9
2269.59378	9730.9
2272.4779	9710.8
2275.36017	9719.6
2278.24061	9690.8
2281.11922	9658
2283.996	9659.2
2286.87094	9649.6
2289.74405	9591.4
2292.61534	9580.6
2295.4848	9581.4
2298.35243	9548.1
2301.21824	9541.8
2304.08223	9533.6
2306.94439	9535.1
2309.80474	9525.5
2312.66327	9514.5
2315.51999	9477.9
2318.37489	9449.8
2321.22797	9453.1
2324.07925	9440.1
2326.92871	9421.9
2329.77637	9427.5
2332.62222	9405.7
2335.46626	9364.5
2338.3085	9324.1
2341.14893	9331
2343.98756	9372.4
2346.8244	9362
2349.65943	9323.8
2352.49267	9331.7
2355.32411	9306.3
2358.15376	9308.2
2360.98161	9319.5
2363.80768	9302.8
2366.63195	9318.6
2369.45444	9319.2
2372.27514	9299.3
2375.09405	9281.2
2377.91118	9270
2380.72652	9247.7
2383.54009	9232.1
2386.35187	9232.6
2389.16188	9184.3
2391.97011	9147.6
2394.77657	9114.5
2397.58125	9087.7
2400.38416	9073.5
2403.18529	9062.4
2405.98466	9065.8
2408.78226	9010.2
2411.57809	9011.2
2414.37216	9008
2417.16446	9017.5
2419.955	8995.5
2422.74378	8977.6
2425.5308	8945.9
2428.31606	8980.4
2431.09956	8951.8
2433.88131	8944.6
2436.6613	8930.8
2439.43954	8924.3
2442.21603	8897.8
2444.99077	8880
2447.76377	8883
2450.53501	8892
2453.30451	8861.3
2456.07226	8843.7
2458.83827	8867
2461.60254	8852.6
2464.36507	8867.3
2467.12586	8821.3
2469.88492	8825.7
2472.64224	8829.3
2475.39782	8828.8
2478.15167	8833.5
2480.90379	8853.4
2483.65417	8830
2486.40283	8831.1
2489.14976	8814.9
2491.89497	8817.6
2494.63845	8809.7
2497.3802	8791.3
2500.12024	8786.3
2502.85855	8764.5
2505.59514	8761
2508.33002	8738.8
2511.06318	8720.3
2513.79462	8705.3
2516.52435	8680.7
2519.25237	8668.8
2521.97867	8662.4
2524.70327	8647.8
2527.42616	8610.7
2530.14734	8624.3
2532.86681	8601.5
2535.58458	8594.9
2538.30065	8558.6
2541.01501	8560.1
2543.72768	8550.7
2546.43864	8525.3
2549.14791	8531.5
2551.85548	8510.1
2554.56136	8507.1
2557.26554	8474.7
2559.96803	8454.8
2562.66883	8442.8
2565.36794	8441.2
2568.06536	8414.2
2570.7611	8392.1
2573.45514	8373.9
2576.14751	8355.6
2578.83819	8344.2
2581.52719	8342.4
2584.21451	8337
2586.90015	8306.7
2589.58411	8302.3
2592.2664	8306.1
2594.94701	8261.3
2597.62594	8247.4
2600.30321	8217.9
2602.9788	8227.5
2605.65273	8211.3
2608.32498	8219.7
2610.99557	8184
2613.66449	8187.6
2616.33175	8167.8
2618.99734	8170.1
2621.66128	8143.8
2624.32355	8116.2
2626.98416	8104.6
2629.64311	8093.7
2632.30041	8088.5
2634.95605	8068.7
2637.61004	8073.4
2640.26238	8047
2642.91306	8052.8
2645.56209	8037.2
2648.20948	8045.5
2650.85521	8052
2653.4993	8044.1
2656.14175	8037.2
2658.78255	8023.9
2661.42171	8022.1
2664.05923	8038.9
2666.6951	8020.3
2669.32934	8035.8
2671.96194	8035.6
2674.59291	8043.2
2677.22224	8009.9
2679.84993	8020.1
2682.476	8004.4
2685.10043	7993.9
2687.72324	7988.9
2690.34441	8001.8
2692.96396	7984.4
2695.58188	8000.2
2698.19818	7971.5
2700.81285	8002.5
2703.4259	7969.3
2706.03733	7971.1
2708.64714	7966.9
2711.25533	7981.1
2713.86191	7956.7
2716.46687	7997.1
2719.07021	7976.4
2721.67194	7986.1
2724.27206	7974.7
2726.87057	7952.2
2729.46747	7958.3
2732.06276	7959.8
2734.65644	7928.6
2737.24852	7925.3
2739.83899	7918.8
2742.42786	7912.8
2745.01513	7919.7
2747.60079	7886
2750.18486	7863.7
2752.76733	7855.2
2755.3482	7870
2757.92747	7861.9
2760.50515	7815.5
2763.08123	7828.5
2765.65573	7806.4
2768.22863	7801.5
2770.79994	7800.4
2773.36967	7781
2775.9378	7781.4
2778.50435	7748.3
2781.06932	7737.7
2783.6327	7757.8
2786.1945	7743.8
2788.75471	7734.4
2791.31335	7714.1
2793.87041	7688.3
2796.42589	7676.3
2798.97979	7669.9
2801.53212	7647.5
2804.08288	7635.2
2806.63206	7598.7
2809.17967	7605.4
2811.72571	7576.2
2814.27018	7570
2816.81308	7568.7
2819.35442	7557.7
2821.89419	7538.2
2824.43239	7552.7
2826.96904	7519.3
2829.50412	7507.1
2832.03763	7478.9
2834.56959	7473.8
2837.1	7479.2
2839.62884	7494.5
2842.15613	7487.8
2844.68186	7494.3
2847.20604	7471.6
2849.72867	7497.4
2852.24974	7498.6
2854.76927	7478.1
2857.28724	7483
2859.80367	7443.1
2862.31855	7455.1
2864.83189	7435.5
2867.34368	7425.8
2869.85393	7427.9
2872.36264	7405.5
2874.8698	7422
2877.37543	7414.2
2879.87952	7386.8
2882.38207	7394.4
2884.88308	7382.5
2887.38256	7391.4
2889.88051	7383.9
2892.37692	7367
2894.8718	7374.7
2897.36515	7368.3
2899.85698	7366
2902.34727	7380.4
2904.83604	7377.3
2907.32328	7365.2
2909.809	7375.6
2912.29319	7376.2
2914.77587	7382.3
2917.25702	7398.4
2919.73665	7399.4
2922.21476	7371.7
2924.69136	7353.8
2927.16644	7376
2929.64	7348.4
2932.11205	7340.6
2934.58258	7308.3
2937.05161	7313.1
2939.51912	7303.8
2941.98513	7309.9
2944.44962	7265
2946.91261	7227.5
2949.37409	7242.4
2951.83407	7237
2954.29254	7252
2956.74951	7249.5
2959.20498	7253.3
2961.65895	7240.8
2964.11142	7241.8
2966.56239	7208.6
2969.01186	7203.4
2971.45984	7194.3
2973.90632	7201.3
2976.35131	7173.4
2978.7948	7179.5
2981.23681	7161.2
2983.67732	7142.2
2986.11635	7125.3
2988.55388	7103.2
2990.98993	7097.2
2993.4245	7083
2995.85758	7070.3
2998.28917	7069.2
3000.71928	7048.5
3003.14791	7030
3005.57506	7037.3
3008.00073	7003.9
3010.42493	7001
3012.84764	6985
3015.26888	6992.1
3017.68865	6970.8
3020.10694	6965.4
3022.52376	6944.1
3024.9391	6931.2
3027.35298	6904.4
3029.76539	6893.5
3032.17632	6884.9
3034.5858	6878.1
3036.9938	6878.1
3039.40034	6848.1
3041.80542	6850.2
3044.20903	6837.3
3046.61118	6853
3049.01187	6818.6
3051.4111	6808.7
3053.80888	6786.7
3056.20519	6783.4
3058.60005	6778.1
3060.99345	6756.3
3063.3854	6763.6
3065.7759	6725.4
3068.16494	6715.8
3070.55254	6694.2
3072.93868	6699.1
3075.32338	6684.1
3077.70662	6679.3
3080.08842	6650.4
3082.46878	6660.9
3084.84769	6645
3087.22515	6626.5
3089.60118	6640.1
3091.97576	6651.3
3094.3489	6621.2
3096.72061	6635.8
3099.09087	6633.5
3101.4597	6620.6
3103.82709	6621.9
3106.19305	6618.6
3108.55757	6633.9
3110.92066	6610.4
3113.28232	6619.1
3115.64255	6603.6
3118.00134	6568.3
3120.35871	6558.1
3122.71466	6532.6
3125.06917	6531.9
3127.42226	6535.3
3129.77393	6519
3132.12417	6503.1
3134.47299	6524.8
3136.82039	6510.6
3139.16636	6509.6
3141.51092	6503.3
3143.85406	6500.9
3146.19579	6511.4
3148.53609	6515.3
3150.87499	6533.8
3153.21246	6517.9
3155.54853	6528.7
3157.88318	6534.9
3160.21642	6519.9
3162.54826	6543.3
3164.87868	6524.5
3167.2077	6519
3169.5353	6505.2
3171.86151	6523.9
3174.18631	6520.8
3176.5097	6529.6
3178.83169	6502.1
3181.15228	6504.9
3183.47147	6469.6
3185.78926	6473.8
3188.10565	6457.3
3190.42065	6475.5
3192.73424	6461.8
3195.04645	6448.5
3197.35725	6466.8
3199.66667	6453.1
3201.97469	6451.5
3204.28132	6458.6
3206.58656	6454.6
3208.8904	6464.5
3211.19287	6469.9
3213.49394	6489.6
3215.79363	6468.7
3218.09193	6486.5
3220.38884	6467.5
3222.68438	6462.8
3224.97853	6479.2
3227.2713	6472.8
3229.56269	6478.3
3231.8527	6451.4
3234.14133	6458.2
3236.42858	6427.4
3238.71446	6402.3
3240.99896	6398.4
3243.28209	6395.9
3245.56384	6370
3247.84423	6373.1
3250.12324	6369.5
3252.40088	6371.1
3254.67715	6354.1
3256.95205	6368
3259.22558	6345.8
3261.49775	6357.7
3263.76855	6345.5
3266.03799	6328.1
3268.30606	6293.3
3270.57277	6305.1
3272.83812	6283.3
3275.10211	6257.4
3277.36474	6268
3279.62601	6270.6
3281.88593	6255
3284.14448	6251.9
3286.40168	6257.3
3288.65753	6254.4
3290.91202	6246.9
3293.16516	6244
3295.41695	6215
3297.66738	6164.9
3299.91647	6170.7
3302.16421	6114.9
3304.4106	6120.8
3306.65564	6098.5
3308.89933	6045.2
3311.14169	6011
3313.38269	5961
3315.62236	5918.6
3317.86068	5880.1
3320.09766	5841.4
3322.3333	5784
3324.5676	5774.1
3326.80056	5691.4
3329.03219	5660.8
3331.26248	2.9
3333.49143	-1.7
3335.71905	1.2
