Data from AgNP_FTO_APTES_UA_100uM_CRN_5uM_R6G_10uM_NaF_0.1M_Addition_RamanShift__26__15-08-50-385.txt Node

Date: Thu Mar 24 15:08:50 GMT 2022
User: TCL
Spectrometer: QEP01345
Trigger mode: 4
Integration Time (sec): 7.000000E0
Scans to average: 10
Electric dark correction enabled: true
Nonlinearity correction enabled: false
Boxcar width: 0
XAxis mode: Raman Shifts
Number of Pixels in Spectrum: 1044
>>>>>Begin Spectral Data<<<<<
46.04893	-1.9875
50.45542	0.5125
54.85868	0.0125
59.25871	-0.1875
63.6555	33.7125
68.04907	35.2125
72.43941	32.8125
76.82654	35.1125
81.21044	38.9125
85.59113	40.0125
89.96862	40.0125
94.34289	39.2125
98.71396	45.7125
103.08183	41.8125
107.4465	47.1125
111.80798	43.2125
116.16626	44.3125
120.52136	47.1125
124.87327	48.6125
129.222	50.8125
133.56755	56.2125
137.90993	56.8125
142.24913	68.7125
146.58517	72.8125
150.91804	86.0125
155.24774	106.6125
159.57429	130.0125
163.89768	167.8125
168.21792	225.3125
172.53501	309.6125
176.84895	430.8125
181.15975	611.7125
185.46741	845.6125
189.77193	1175.0125
194.07331	1593.9125
198.37157	2069.1125
202.6667	2583.1125
206.9587	3111.0125
211.24758	3678.9125
215.53334	4290.0125
219.81599	5012.6125
224.09553	5821.3125
228.37195	6775.9125
232.64527	7741.9125
236.91549	8616.9125
241.18261	9334.3125
245.44663	9791.0125
249.70755	10133.9125
253.96539	10404.9125
258.22014	10684.4125
262.4718	10951.5125
266.72039	11064.9125
270.96589	11026.6125
275.20832	10710.8125
279.44768	10305.6125
283.68397	9944.8125
287.91719	9756.3125
292.14735	9841.1125
296.37445	10362.4125
300.59849	11232.6125
304.81948	12350.2125
309.03742	13218.6125
313.25231	13472.8125
317.46415	12747.6125
321.67296	11294.3125
325.87872	9961.0125
330.08145	9312.8125
334.28114	9224.4125
338.47781	9508.7125
342.67145	9928.6125
346.86207	10641.2125
351.04966	11622.4125
355.23424	12839.8125
359.4158	13734.4125
363.59435	14019.7125
367.76989	13908.4125
371.94243	13565.3125
376.11196	13178.4125
380.27849	12905.7125
384.44203	12479.7125
388.60257	12072.4125
392.76012	11843.4125
396.91468	11932.7125
401.06626	12315.6125
405.21485	12609.1125
409.36047	12128.3125
413.50311	11007.1125
417.64277	9877.0125
421.77947	9225.8125
425.9132	8934.3125
430.04396	8824.4125
434.17176	8874.5125
438.2966	9028.9125
442.41849	9379.3125
446.53742	9804.7125
450.6534	10185.6125
454.76644	10337.0125
458.87653	10208.6125
462.98368	9953.1125
467.08789	9631.6125
471.18916	9284.2125
475.2875	8894.4125
479.38291	8571.4125
483.4754	8295.8125
487.56496	8110.1125
491.6516	8052.2125
495.73531	8006.5125
499.81612	8086.4125
503.89401	8260.1125
507.96899	8486.1125
512.04106	8771.9125
516.11023	9116.1125
520.1765	9352.8125
524.23987	9366.0125
528.30034	9250.3125
532.35792	9048.7125
536.41261	8831.3125
540.46441	8458.6125
544.51333	8221.5125
548.55936	8278.2125
552.60252	8616.0125
556.64279	9062.5125
560.6802	9295.3125
564.71473	9681.7125
568.7464	10527.9125
572.7752	10849.3125
576.80114	10014.4125
580.82422	9137.7125
584.84444	8816.6125
588.86181	8832.5125
592.87633	9088.4125
596.888	9360.9125
600.89682	9807.8125
604.9028	11900.5125
608.90594	18129.5125
612.90624	26459.3125
616.90371	25592.9125
620.89834	15034.4125
624.89015	9775.5125
628.87913	8834.1125
632.86528	9122.2125
636.84862	9463.3125
640.82913	9133.4125
644.80683	8190.3125
648.78172	7594.1125
652.75379	7643.7125
656.72306	8348.2125
660.68952	9222.3125
664.65319	8982.2125
668.61405	7980.4125
672.57211	7482.6125
676.52738	7443.6125
680.47986	7400.8125
684.42955	7199.5125
688.37646	7077.2125
692.32058	7096.8125
696.26192	7244.7125
700.20048	7444.8125
704.13626	7571.1125
708.06928	7548.7125
711.99952	7447.5125
715.927	7442.5125
719.85171	7560.9125
723.77365	7654.2125
727.69284	7577.1125
731.60928	7453.9125
735.52295	7436.6125
739.43388	7479.8125
743.34206	7560.7125
747.24749	7533.5125
751.15017	7570.1125
755.05012	7802.1125
758.94733	8731.6125
762.8418	11018.7125
766.73354	14746.5125
770.62254	18194.6125
774.50882	19713.2125
778.39237	18583.8125
782.27321	15000.9125
786.15132	11203.0125
790.02671	8968.3125
793.89938	7987.4125
797.76935	7589.7125
801.6366	7412.7125
805.50115	7344.9125
809.36299	7277.4125
813.22213	7262.8125
817.07857	7208.8125
820.93231	7213.5125
824.78336	7257.8125
828.63172	7369.3125
832.47738	7407.3125
836.32036	7330.4125
840.16066	7194.0125
843.99827	7136.5125
847.8332	7067.8125
851.66546	7061.9125
855.49504	7041.4125
859.32195	7042.2125
863.1462	6965.9125
866.96777	6940.5125
870.78668	6943.4125
874.60293	6989.3125
878.41652	7045.5125
882.22745	7181.1125
886.03573	7276.9125
889.84136	7213.5125
893.64433	7178.8125
897.44466	7161.5125
901.24235	7184.4125
905.0374	7102.1125
908.8298	6980.0125
912.61957	6879.1125
916.40671	6855.9125
920.19121	6948.3125
923.97308	7145.2125
927.75233	7453.0125
931.52895	7757.3125
935.30295	7639.5125
939.07433	7176.7125
942.84309	6819.1125
946.60924	6648.0125
950.37278	6519.1125
954.13371	6426.4125
957.89203	6365.4125
961.64774	6304.7125
965.40086	6281.6125
969.15137	6251.4125
972.89929	6224.3125
976.64461	6229.1125
980.38733	6238.8125
984.12747	6270.4125
987.86502	6291.5125
991.59999	6369.6125
995.33237	6517.4125
999.06217	6748.4125
1002.78939	7110.3125
1006.51404	7422.8125
1010.23611	7679.3125
1013.95561	7762.5125
1017.67255	7662.6125
1021.38692	7470.4125
1025.09872	7276.8125
1028.80796	7177.7125
1032.51465	7303.3125
1036.21877	7480.2125
1039.92035	7589.0125
1043.61937	7593.5125
1047.31584	7535.5125
1051.00976	7432.5125
1054.70114	7288.8125
1058.38998	7212.3125
1062.07627	7205.1125
1065.76003	7217.3125
1069.44126	7271.9125
1073.11995	7417.5125
1076.79611	7715.5125
1080.46974	8137.9125
1084.14085	8770.4125
1087.80943	9337.1125
1091.47549	9456.9125
1095.13903	9059.1125
1098.80005	8423.9125
1102.45857	7978.9125
1106.11456	7916.5125
1109.76805	8151.7125
1113.41903	8704.2125
1117.06751	9552.3125
1120.71348	10711.7125
1124.35696	11970.7125
1127.99793	12709.3125
1131.63641	12035.5125
1135.2724	10607.2125
1138.90589	9504.5125
1142.5369	8848.5125
1146.16542	8446.8125
1149.79145	8188.9125
1153.415	8132.3125
1157.03607	8250.2125
1160.65467	8585.5125
1164.27079	9183.2125
1167.88443	10120.7125
1171.49561	11680.0125
1175.10432	14175.6125
1178.71056	17490.9125
1182.31434	20021.1125
1185.91565	20520.3125
1189.51451	19332.6125
1193.11091	17340.4125
1196.70485	15214.7125
1200.29634	13704.6125
1203.88538	12575.2125
1207.47197	11188.2125
1211.05612	9984.4125
1214.63782	9308.6125
1218.21708	9064.9125
1221.79391	9031.0125
1225.36829	9087.3125
1228.94024	9051.2125
1232.50976	8927.5125
1236.07685	8803.0125
1239.6415	8790.0125
1243.20374	8863.8125
1246.76355	8985.3125
1250.32093	9164.4125
1253.8759	9485.4125
1257.42845	10043.0125
1260.97859	10715.2125
1264.52631	11440.3125
1268.07163	12120.9125
1271.61453	12634.8125
1275.15503	12896.0125
1278.69312	13008.1125
1282.22882	13286.7125
1285.76211	13931.9125
1289.29301	14847.8125
1292.82151	15623.7125
1296.34761	16479.3125
1299.87133	18067.8125
1303.39266	20963.3125
1306.9116	25625.2125
1310.42815	30584.9125
1313.94233	32524.1125
1317.45412	29862.4125
1320.96354	25256.8125
1324.47058	20988.9125
1327.97525	17742.5125
1331.47754	15835.6125
1334.97747	15169.6125
1338.47502	15391.8125
1341.97022	16424.9125
1345.46305	18417.1125
1348.95352	21171.1125
1352.44163	24581.9125
1355.92738	29594.5125
1359.41078	37289.7125
1362.89183	43733.4125
1366.37053	40135.1125
1369.84688	29913.4125
1373.32088	21866.6125
1376.79254	17602.7125
1380.26186	15310.2125
1383.72883	13838.8125
1387.19347	12753.2125
1390.65578	11752.9125
1394.11575	11066.6125
1397.57339	10757.9125
1401.0287	10718.8125
1404.48168	10730.9125
1407.93234	10761.8125
1411.38068	10877.0125
1414.82669	11082.4125
1418.27039	11173.1125
1421.71177	10988.3125
1425.15083	10675.5125
1428.58758	10700.0125
1432.02203	11118.9125
1435.45416	11417.5125
1438.88399	11368.2125
1442.31151	11289.2125
1445.73673	11347.6125
1449.15965	11425.4125
1452.58027	11324.1125
1455.9986	11024.9125
1459.41463	10947.9125
1462.82837	11175.2125
1466.23982	11698.0125
1469.64898	12187.4125
1473.05586	12446.3125
1476.46045	12543.7125
1479.86276	12762.2125
1483.26279	13281.8125
1486.66054	14033.2125
1490.05602	15154.2125
1493.44922	16817.4125
1496.84016	19510.4125
1500.22882	23776.7125
1503.61521	29918.9125
1506.99934	37021.8125
1510.38121	42595.0125
1513.76081	43068.1125
1517.13816	37609.1125
1520.51324	29319.0125
1523.88607	22413.0125
1527.25665	18234.1125
1530.62498	15967.8125
1533.99105	14654.4125
1537.35488	13759.3125
1540.71647	13196.8125
1544.07581	12986.4125
1547.4329	12952.0125
1550.78776	13073.1125
1554.14038	13319.1125
1557.49077	13691.3125
1560.83892	14342.8125
1564.18484	15311.8125
1567.52853	16444.9125
1570.86999	17283.8125
1574.20922	17638.7125
1577.54624	17358.0125
1580.88103	15624.4125
1584.2136	13419.7125
1587.54395	12117.9125
1590.87208	12043.3125
1594.19801	13153.8125
1597.52172	14741.5125
1600.84321	15556.2125
1604.16251	14880.7125
1607.47959	13673.9125
1610.79447	12354.4125
1614.10715	11062.6125
1617.41763	9958.3125
1620.7259	9258.6125
1624.03199	8960.2125
1627.33587	9042.9125
1630.63757	9502.9125
1633.93707	10429.4125
1637.23439	12029.4125
1640.52951	14722.3125
1643.82246	18984.6125
1647.11321	24198.5125
1650.40179	27608.3125
1653.68819	26106.0125
1656.97241	20499.6125
1660.25446	14917.6125
1663.53433	11295.9125
1666.81203	9291.6125
1670.08756	8217.0125
1673.36092	7544.2125
1676.63211	7162.3125
1679.90115	6884.7125
1683.16801	6729.9125
1686.43272	6577.2125
1689.69527	6477.5125
1692.95567	6411.0125
1696.2139	6369.5125
1699.46999	6334.0125
1702.72392	6316.4125
1705.97571	6285.2125
1709.22535	6273.6125
1712.47284	6273.4125
1715.71819	6282.7125
1718.96139	6276.5125
1722.20246	6230.5125
1725.44139	6156.5125
1728.67818	6079.9125
1731.91284	5982.5125
1735.14537	5907.8125
1738.37576	5864.2125
1741.60403	5842.1125
1744.83017	5788.0125
1748.05418	5777.6125
1751.27607	5749.5125
1754.49584	5732.7125
1757.71349	5706.5125
1760.92903	5682.5125
1764.14244	5669.3125
1767.35375	5643.6125
1770.56294	5614.4125
1773.77002	5549.1125
1776.97499	5499.7125
1780.17785	5481.0125
1783.37861	5445.0125
1786.57727	5414.9125
1789.77382	5387.4125
1792.96828	5381.7125
1796.16064	5355.3125
1799.3509	5361.6125
1802.53907	5341.9125
1805.72514	5321.6125
1808.90913	5299.7125
1812.09102	5260.8125
1815.27083	5235.5125
1818.44856	5236.0125
1821.6242	5215.8125
1824.79776	5193.3125
1827.96924	5186.0125
1831.13864	5169.8125
1834.30597	5159.5125
1837.47122	5147.3125
1840.6344	5144.1125
1843.7955	5127.5125
1846.95454	5108.8125
1850.11151	5100.0125
1853.26642	5095.1125
1856.41926	5104.0125
1859.57004	5088.0125
1862.71876	5100.3125
1865.86542	5111.6125
1869.01003	5120.0125
1872.15258	5115.4125
1875.29308	5106.4125
1878.43152	5107.6125
1881.56792	5113.2125
1884.70227	5123.4125
1887.83457	5096.5125
1890.96482	5089.0125
1894.09304	5093.0125
1897.21921	5086.2125
1900.34335	5080.6125
1903.46544	5074.3125
1906.58551	5100.7125
1909.70353	5081.3125
1912.81953	5094.3125
1915.93349	5063.9125
1919.04543	5067.2125
1922.15534	5053.8125
1925.26322	5012.5125
1928.36908	4993.5125
1931.47292	4973.7125
1934.57473	4945.5125
1937.67453	4912.5125
1940.77232	4897.7125
1943.86808	4890.4125
1946.96184	4881.9125
1950.05358	4859.4125
1953.14331	4848.6125
1956.23103	4820.4125
1959.31675	4825.8125
1962.40046	4827.9125
1965.48217	4824.8125
1968.56188	4822.8125
1971.63959	4808.9125
1974.7153	4817.4125
1977.78901	4797.1125
1980.86073	4764.8125
1983.93046	4730.6125
1986.99819	4683.0125
1990.06394	4673.2125
1993.1277	4638.4125
1996.18947	4614.5125
1999.24925	4601.2125
2002.30706	4579.5125
2005.36288	4565.9125
2008.41672	4541.4125
2011.46859	4530.4125
2014.51848	4528.0125
2017.56639	4521.1125
2020.61233	4501.1125
2023.6563	4483.1125
2026.6983	4477.5125
2029.73833	4467.5125
2032.7764	4450.9125
2035.8125	4434.8125
2038.84664	4442.5125
2041.87881	4446.9125
2044.90903	4446.2125
2047.93729	4422.9125
2050.96359	4415.5125
2053.98794	4414.1125
2057.01034	4403.7125
2060.03078	4382.5125
2063.04927	4367.7125
2066.06582	4359.0125
2069.08042	4345.6125
2072.09307	4348.9125
2075.10378	4337.3125
2078.11255	4338.5125
2081.11938	4347.9125
2084.12426	4357.6125
2087.12722	4335.7125
2090.12824	4335.2125
2093.12732	4335.5125
2096.12447	4354.7125
2099.11969	4358.2125
2102.11299	4354.4125
2105.10435	4351.1125
2108.09379	4344.9125
2111.08131	4364.7125
2114.0669	4368.6125
2117.05057	4365.1125
2120.03233	4399.6125
2123.01216	4405.4125
2125.99008	4416.9125
2128.96609	4422.5125
2131.94018	4404.4125
2134.91236	4403.6125
2137.88263	4394.0125
2140.851	4400.6125
2143.81746	4391.0125
2146.78201	4377.5125
2149.74466	4367.8125
2152.7054	4349.5125
2155.66425	4359.9125
2158.6212	4331.8125
2161.57625	4332.5125
2164.52941	4314.2125
2167.48067	4334.7125
2170.43004	4330.2125
2173.37752	4332.3125
2176.32311	4331.4125
2179.26681	4349.7125
2182.20863	4337.3125
2185.14856	4343.3125
2188.08661	4333.5125
2191.02278	4311.3125
2193.95707	4313.0125
2196.88948	4308.1125
2199.82001	4311.2125
2202.74867	4309.6125
2205.67545	4306.2125
2208.60037	4296.2125
2211.52341	4294.2125
2214.44458	4298.3125
2217.36388	4291.7125
2220.28132	4270.5125
2223.1969	4272.2125
2226.11061	4262.6125
2229.02246	4255.3125
2231.93245	4268.6125
2234.84058	4233.1125
2237.74686	4225.5125
2240.65128	4212.8125
2243.55385	4216.0125
2246.45456	4206.6125
2249.35343	4231.2125
2252.25044	4244.4125
2255.14561	4250.7125
2258.03893	4273.2125
2260.93041	4275.1125
2263.82004	4283.7125
2266.70783	4268.7125
2269.59378	4252.8125
2272.4779	4227.5125
2275.36017	4222.5125
2278.24061	4216.6125
2281.11922	4205.2125
2283.996	4198.3125
2286.87094	4180.5125
2289.74405	4179.9125
2292.61534	4154.1125
2295.4848	4139.8125
2298.35243	4125.1125
2301.21824	4132.6125
2304.08223	4133.5125
2306.94439	4142.7125
2309.80474	4141.7125
2312.66327	4145.4125
2315.51999	4131.4125
2318.37489	4137.2125
2321.22797	4135.1125
2324.07925	4139.8125
2326.92871	4135.4125
2329.77637	4130.1125
2332.62222	4139.2125
2335.46626	4131.1125
2338.3085	4128.4125
2341.14893	4141.2125
2343.98756	4164.8125
2346.8244	4164.7125
2349.65943	4176.0125
2352.49267	4194.3125
2355.32411	4199.0125
2358.15376	4216.4125
2360.98161	4235.5125
2363.80768	4251.8125
2366.63195	4264.6125
2369.45444	4267.8125
2372.27514	4272.3125
2375.09405	4264.8125
2377.91118	4242.5125
2380.72652	4201.9125
2383.54009	4180.0125
2386.35187	4162.6125
2389.16188	4112.5125
2391.97011	4106.1125
2394.77657	4087.2125
2397.58125	4080.3125
2400.38416	4058.8125
2403.18529	4051.1125
2405.98466	4031.9125
2408.78226	4020.2125
2411.57809	4010.7125
2414.37216	3999.6125
2417.16446	4002.3125
2419.955	3992.8125
2422.74378	4005.4125
2425.5308	3993.1125
2428.31606	4017.3125
2431.09956	4000.8125
2433.88131	4014.5125
2436.6613	4004.6125
2439.43954	4037.6125
2442.21603	4040.4125
2444.99077	4057.0125
2447.76377	4061.9125
2450.53501	4063.0125
2453.30451	4058.8125
2456.07226	4053.3125
2458.83827	4059.8125
2461.60254	4067.1125
2464.36507	4071.6125
2467.12586	4078.8125
2469.88492	4055.5125
2472.64224	4086.3125
2475.39782	4081.1125
2478.15167	4098.6125
2480.90379	4123.1125
2483.65417	4141.6125
2486.40283	4169.6125
2489.14976	4186.5125
2491.89497	4202.3125
2494.63845	4208.1125
2497.3802	4192.2125
2500.12024	4191.1125
2502.85855	4180.5125
2505.59514	4141.4125
2508.33002	4089.7125
2511.06318	4066.9125
2513.79462	4027.1125
2516.52435	4007.5125
2519.25237	3975.8125
2521.97867	3966.7125
2524.70327	3949.0125
2527.42616	3937.2125
2530.14734	3938.7125
2532.86681	3940.5125
2535.58458	3945.5125
2538.30065	3931.4125
2541.01501	3962.5125
2543.72768	3954.6125
2546.43864	3959.0125
2549.14791	3956.8125
2551.85548	3961.8125
2554.56136	3973.9125
2557.26554	3980.3125
2559.96803	3961.5125
2562.66883	3951.2125
2565.36794	3966.4125
2568.06536	3958.6125
2570.7611	3952.9125
2573.45514	3943.8125
2576.14751	3942.8125
2578.83819	3926.1125
2581.52719	3916.7125
2584.21451	3918.3125
2586.90015	3899.6125
2589.58411	3901.2125
2592.2664	3891.9125
2594.94701	3893.8125
2597.62594	3894.3125
2600.30321	3884.3125
2602.9788	3890.5125
2605.65273	3882.3125
2608.32498	3921.6125
2610.99557	3901.2125
2613.66449	3899.0125
2616.33175	3915.6125
2618.99734	3916.8125
2621.66128	3912.4125
2624.32355	3919.2125
2626.98416	3914.3125
2629.64311	3922.0125
2632.30041	3890.1125
2634.95605	3889.9125
2637.61004	3865.5125
2640.26238	3857.9125
2642.91306	3862.8125
2645.56209	3855.5125
2648.20948	3855.2125
2650.85521	3863.5125
2653.4993	3856.9125
2656.14175	3848.5125
2658.78255	3867.0125
2661.42171	3865.3125
2664.05923	3877.2125
2666.6951	3884.7125
2669.32934	3904.0125
2671.96194	3907.8125
2674.59291	3911.7125
2677.22224	3903.3125
2679.84993	3916.1125
2682.476	3902.9125
2685.10043	3893.2125
2687.72324	3898.7125
2690.34441	3887.3125
2692.96396	3882.0125
2695.58188	3884.8125
2698.19818	3874.8125
2700.81285	3875.9125
2703.4259	3877.4125
2706.03733	3888.0125
2708.64714	3881.6125
2711.25533	3892.6125
2713.86191	3888.3125
2716.46687	3891.7125
2719.07021	3908.0125
2721.67194	3910.6125
2724.27206	3905.9125
2726.87057	3885.4125
2729.46747	3891.4125
2732.06276	3875.1125
2734.65644	3879.5125
2737.24852	3877.8125
2739.83899	3859.0125
2742.42786	3843.7125
2745.01513	3817.9125
2747.60079	3833.8125
2750.18486	3810.1125
2752.76733	3828.2125
2755.3482	3809.5125
2757.92747	3818.6125
2760.50515	3786.7125
2763.08123	3806.1125
2765.65573	3804.9125
2768.22863	3799.2125
2770.79994	3784.3125
2773.36967	3790.2125
2775.9378	3794.6125
2778.50435	3789.0125
2781.06932	3788.6125
2783.6327	3797.5125
2786.1945	3803.1125
2788.75471	3789.7125
2791.31335	3781.7125
2793.87041	3796.3125
2796.42589	3790.7125
2798.97979	3795.8125
2801.53212	3809.0125
2804.08288	3817.0125
2806.63206	3831.3125
2809.17967	3834.4125
2811.72571	3845.4125
2814.27018	3858.6125
2816.81308	3863.5125
2819.35442	3885.6125
2821.89419	3884.1125
2824.43239	3923.8125
2826.96904	3905.6125
2829.50412	3913.3125
2832.03763	3910.4125
2834.56959	3902.5125
2837.1	3900.3125
2839.62884	3895.6125
2842.15613	3866.4125
2844.68186	3883.1125
2847.20604	3889.6125
2849.72867	3883.2125
2852.24974	3892.7125
2854.76927	3921.5125
2857.28724	3917.3125
2859.80367	3929.8125
2862.31855	3940.3125
2864.83189	3956.9125
2867.34368	3982.0125
2869.85393	3993.6125
2872.36264	4004.4125
2874.8698	4016.4125
2877.37543	4010.2125
2879.87952	4010.9125
2882.38207	3991.2125
2884.88308	3966.2125
2887.38256	3970.7125
2889.88051	3960.8125
2892.37692	3950.2125
2894.8718	3958.6125
2897.36515	3947.1125
2899.85698	3949.7125
2902.34727	3936.9125
2904.83604	3954.0125
2907.32328	3951.4125
2909.809	3931.1125
2912.29319	3925.0125
2914.77587	3909.7125
2917.25702	3914.3125
2919.73665	3882.3125
2922.21476	3881.6125
2924.69136	3863.2125
2927.16644	3852.6125
2929.64	3859.8125
2932.11205	3838.8125
2934.58258	3823.4125
2937.05161	3818.5125
2939.51912	3819.2125
2941.98513	3831.6125
2944.44962	3828.3125
2946.91261	3828.8125
2949.37409	3818.9125
2951.83407	3825.7125
2954.29254	3821.0125
2956.74951	3815.7125
2959.20498	3823.1125
2961.65895	3798.8125
2964.11142	3805.5125
2966.56239	3788.9125
2969.01186	3784.1125
2971.45984	3752.6125
2973.90632	3749.7125
2976.35131	3743.8125
2978.7948	3726.8125
2981.23681	3720.9125
2983.67732	3701.6125
2986.11635	3700.3125
2988.55388	3673.4125
2990.98993	3690.0125
2993.4245	3689.1125
2995.85758	3694.1125
2998.28917	3707.2125
3000.71928	3691.2125
3003.14791	3684.9125
3005.57506	3707.5125
3008.00073	3693.2125
3010.42493	3718.9125
3012.84764	3706.2125
3015.26888	3711.1125
3017.68865	3687.7125
3020.10694	3687.3125
3022.52376	3671.7125
3024.9391	3666.4125
3027.35298	3653.2125
3029.76539	3640.3125
3032.17632	3639.4125
3034.5858	3613.1125
3036.9938	3587.5125
3039.40034	3579.5125
3041.80542	3571.8125
3044.20903	3547.1125
3046.61118	3537.9125
3049.01187	3539.4125
3051.4111	3529.8125
3053.80888	3526.7125
3056.20519	3519.8125
3058.60005	3513.6125
3060.99345	3506.5125
3063.3854	3495.3125
3065.7759	3482.0125
3068.16494	3490.2125
3070.55254	3471.8125
3072.93868	3469.9125
3075.32338	3443.1125
3077.70662	3440.4125
3080.08842	3450.5125
3082.46878	3440.6125
3084.84769	3426.2125
3087.22515	3426.1125
3089.60118	3424.3125
3091.97576	3426.7125
3094.3489	3426.5125
3096.72061	3406.6125
3099.09087	3418.1125
3101.4597	3420.5125
3103.82709	3415.3125
3106.19305	3408.3125
3108.55757	3402.5125
3110.92066	3398.4125
3113.28232	3407.2125
3115.64255	3389.9125
3118.00134	3390.4125
3120.35871	3395.3125
3122.71466	3391.7125
3125.06917	3385.4125
3127.42226	3394.9125
3129.77393	3404.7125
3132.12417	3391.0125
3134.47299	3387.9125
3136.82039	3389.7125
3139.16636	3415.5125
3141.51092	3398.8125
3143.85406	3415.0125
3146.19579	3424.9125
3148.53609	3429.7125
3150.87499	3429.7125
3153.21246	3437.3125
3155.54853	3433.7125
3157.88318	3437.9125
3160.21642	3447.8125
3162.54826	3442.8125
3164.87868	3457.2125
3167.2077	3444.9125
3169.5353	3456.0125
3171.86151	3451.4125
3174.18631	3438.8125
3176.5097	3448.8125
3178.83169	3446.0125
3181.15228	3453.3125
3183.47147	3448.7125
3185.78926	3440.1125
3188.10565	3444.6125
3190.42065	3454.0125
3192.73424	3464.0125
3195.04645	3480.6125
3197.35725	3477.7125
3199.66667	3489.2125
3201.97469	3499.3125
3204.28132	3511.0125
3206.58656	3516.0125
3208.8904	3529.1125
3211.19287	3544.5125
3213.49394	3559.4125
3215.79363	3550.0125
3218.09193	3560.6125
3220.38884	3565.8125
3222.68438	3557.7125
3224.97853	3569.0125
3227.2713	3567.4125
3229.56269	3566.0125
3231.8527	3563.8125
3234.14133	3566.3125
3236.42858	3563.6125
3238.71446	3565.0125
3240.99896	3557.3125
3243.28209	3559.9125
3245.56384	3562.1125
3247.84423	3574.2125
3250.12324	3581.4125
3252.40088	3570.9125
3254.67715	3569.9125
3256.95205	3560.0125
3259.22558	3560.5125
3261.49775	3558.5125
3263.76855	3551.9125
3266.03799	3542.7125
3268.30606	3544.6125
3270.57277	3541.6125
3272.83812	3535.5125
3275.10211	3542.6125
3277.36474	3535.1125
3279.62601	3544.1125
3281.88593	3546.8125
3284.14448	3553.7125
3286.40168	3555.8125
3288.65753	3552.8125
3290.91202	3558.4125
3293.16516	3545.8125
3295.41695	3533.5125
3297.66738	3522.7125
3299.91647	3523.6125
3302.16421	3488.5125
3304.4106	3476.0125
3306.65564	3453.5125
3308.89933	3425.8125
3311.14169	3400.4125
3313.38269	3372.9125
3315.62236	3355.6125
3317.86068	3309.0125
3320.09766	3271.5125
3322.3333	3228.5125
3324.5676	3239.3125
3326.80056	3181.6125
3329.03219	3168.8125
3331.26248	0.9125
3333.49143	-0.6875
3335.71905	1.1125
