Data from AgNP_FTO_APTES_UA_100uM_CRN_50uM_R6G_10uM_NaF_0.1M_Addition_RamanShift__14__17-24-10-537.txt Node

Date: Thu Mar 24 17:24:10 GMT 2022
User: TCL
Spectrometer: QEP01345
Trigger mode: 4
Integration Time (sec): 7.000000E0
Scans to average: 10
Electric dark correction enabled: true
Nonlinearity correction enabled: false
Boxcar width: 0
XAxis mode: Raman Shifts
Number of Pixels in Spectrum: 1044
>>>>>Begin Spectral Data<<<<<
46.04893	-1.5625
50.45542	-1.5625
54.85868	0.3375
59.25871	-0.5625
63.6555	38.0375
68.04907	41.3375
72.43941	40.1375
76.82654	44.0375
81.21044	45.5375
85.59113	46.5375
89.96862	47.9375
94.34289	46.1375
98.71396	52.1375
103.08183	49.6375
107.4465	57.0375
111.80798	56.4375
116.16626	54.5375
120.52136	55.5375
124.87327	56.5375
129.222	62.6375
133.56755	68.2375
137.90993	70.7375
142.24913	81.4375
146.58517	83.2375
150.91804	103.4375
155.24774	119.5375
159.57429	153.6375
163.89768	199.0375
168.21792	265.9375
172.53501	358.8375
176.84895	509.8375
181.15975	718.3375
185.46741	1016.8375
189.77193	1404.1375
194.07331	1886.6375
198.37157	2444.6375
202.6667	3034.3375
206.9587	3608.0375
211.24758	4176.4375
215.53334	4755.5375
219.81599	5329.7375
224.09553	5995.9375
228.37195	6750.6375
232.64527	7560.0375
236.91549	8445.3375
241.18261	9309.9375
245.44663	10096.4375
249.70755	10833.2375
253.96539	11441.7375
258.22014	11938.3375
262.4718	12370.4375
266.72039	12657.0375
270.96589	12847.8375
275.20832	12870.1375
279.44768	12789.0375
283.68397	12674.6375
287.91719	12559.9375
292.14735	12500.4375
296.37445	12530.2375
300.59849	12607.1375
304.81948	12709.1375
309.03742	12752.0375
313.25231	12679.2375
317.46415	12483.1375
321.67296	12166.6375
325.87872	11918.1375
330.08145	11819.4375
334.28114	11843.5375
338.47781	11974.2375
342.67145	12125.7375
346.86207	12345.4375
351.04966	12561.2375
355.23424	12847.6375
359.4158	13052.4375
363.59435	13205.6375
367.76989	13300.7375
371.94243	13370.7375
376.11196	13450.3375
380.27849	13441.6375
384.44203	13492.6375
388.60257	13523.7375
392.76012	13632.2375
396.91468	13767.2375
401.06626	13952.2375
405.21485	14060.4375
409.36047	13977.6375
413.50311	13751.5375
417.64277	13516.1375
421.77947	13409.5375
425.9132	13381.7375
430.04396	13454.4375
434.17176	13506.3375
438.2966	13607.6375
442.41849	13779.0375
446.53742	14027.1375
450.6534	14296.1375
454.76644	14429.9375
458.87653	14502.4375
462.98368	14510.8375
467.08789	14438.0375
471.18916	14348.5375
475.2875	14214.1375
479.38291	14084.5375
483.4754	13994.6375
487.56496	13865.5375
491.6516	13819.2375
495.73531	13768.3375
499.81612	13750.1375
503.89401	13807.4375
507.96899	13852.2375
512.04106	13907.4375
516.11023	13922.5375
520.1765	13932.9375
524.23987	13870.7375
528.30034	13854.5375
532.35792	13777.6375
536.41261	13711.2375
540.46441	13618.2375
544.51333	13585.6375
548.55936	13683.9375
552.60252	13862.7375
556.64279	14092.7375
560.6802	14220.2375
564.71473	14241.7375
568.7464	14351.9375
572.7752	14536.0375
576.80114	14693.6375
580.82422	14813.1375
584.84444	14964.8375
588.86181	15121.2375
592.87633	15321.1375
596.888	15469.4375
600.89682	15528.5375
604.9028	15981.4375
608.90594	17471.9375
612.90624	19252.6375
616.90371	18473.8375
620.89834	15607.8375
624.89015	14253.3375
628.87913	14050.4375
632.86528	14197.4375
636.84862	14421.3375
640.82913	14316.3375
644.80683	14031.6375
648.78172	13752.8375
652.75379	13655.0375
656.72306	13799.5375
660.68952	14055.5375
664.65319	14022.0375
668.61405	13730.5375
672.57211	13640.4375
676.52738	13701.2375
680.47986	13692.7375
684.42955	13613.1375
688.37646	13572.0375
692.32058	13598.4375
696.26192	13675.7375
700.20048	13807.2375
704.13626	13877.0375
708.06928	13886.6375
711.99952	13848.0375
715.927	13817.1375
719.85171	13832.7375
723.77365	13859.7375
727.69284	13786.5375
731.60928	13729.4375
735.52295	13703.7375
739.43388	13707.6375
743.34206	13742.9375
747.24749	13764.9375
751.15017	13830.8375
755.05012	13925.1375
758.94733	14235.5375
762.8418	14915.0375
766.73354	16097.8375
770.62254	17306.3375
774.50882	17698.3375
778.39237	17048.0375
782.27321	15868.5375
786.15132	14830.2375
790.02671	14163.8375
793.89938	13809.9375
797.76935	13635.7375
801.6366	13533.5375
805.50115	13492.3375
809.36299	13455.8375
813.22213	13440.8375
817.07857	13440.3375
820.93231	13405.0375
824.78336	13381.9375
828.63172	13381.2375
832.47738	13328.7375
836.32036	13308.1375
840.16066	13305.9375
843.99827	13320.9375
847.8332	13331.5375
851.66546	13317.0375
855.49504	13330.2375
859.32195	13318.4375
863.1462	13318.3375
866.96777	13331.1375
870.78668	13338.2375
874.60293	13348.6375
878.41652	13367.9375
882.22745	13409.9375
886.03573	13447.8375
889.84136	13470.0375
893.64433	13424.4375
897.44466	13376.4375
901.24235	13318.3375
905.0374	13300.4375
908.8298	13275.3375
912.61957	13215.4375
916.40671	13268.0375
920.19121	13323.2375
923.97308	13413.1375
927.75233	13414.4375
931.52895	13374.3375
935.30295	13231.9375
939.07433	13074.1375
942.84309	12922.1375
946.60924	12833.2375
950.37278	12791.0375
954.13371	12758.7375
957.89203	12771.3375
961.64774	12762.0375
965.40086	12740.5375
969.15137	12707.4375
972.89929	12665.6375
976.64461	12666.8375
980.38733	12621.8375
984.12747	12631.7375
987.86502	12644.5375
991.59999	12716.5375
995.33237	12737.6375
999.06217	12858.9375
1002.78939	13012.2375
1006.51404	13165.3375
1010.23611	13332.2375
1013.95561	13428.3375
1017.67255	13433.1375
1021.38692	13370.0375
1025.09872	13244.0375
1028.80796	13097.7375
1032.51465	13024.6375
1036.21877	13014.6375
1039.92035	13047.1375
1043.61937	13122.5375
1047.31584	13210.1375
1051.00976	13274.3375
1054.70114	13299.8375
1058.38998	13316.4375
1062.07627	13380.6375
1065.76003	13509.5375
1069.44126	13610.1375
1073.11995	13771.3375
1076.79611	13919.0375
1080.46974	14051.3375
1084.14085	14154.5375
1087.80943	14209.0375
1091.47549	14333.7375
1095.13903	14273.6375
1098.80005	14151.0375
1102.45857	13957.7375
1106.11456	13829.8375
1109.76805	13756.2375
1113.41903	13810.1375
1117.06751	13946.8375
1120.71348	14130.0375
1124.35696	14380.4375
1127.99793	14594.8375
1131.63641	14656.4375
1135.2724	14499.1375
1138.90589	14313.5375
1142.5369	14179.0375
1146.16542	14061.3375
1149.79145	14002.4375
1153.415	13972.9375
1157.03607	14029.5375
1160.65467	14164.0375
1164.27079	14480.9375
1167.88443	14930.1375
1171.49561	15533.2375
1175.10432	16474.6375
1178.71056	17688.0375
1182.31434	18746.0375
1185.91565	19241.0375
1189.51451	19158.4375
1193.11091	18818.8375
1196.70485	18177.0375
1200.29634	17548.8375
1203.88538	16986.4375
1207.47197	16385.1375
1211.05612	15880.7375
1214.63782	15488.2375
1218.21708	15260.0375
1221.79391	15062.0375
1225.36829	15007.5375
1228.94024	14955.7375
1232.50976	14851.2375
1236.07685	14766.2375
1239.6415	14673.1375
1243.20374	14676.6375
1246.76355	14697.3375
1250.32093	14784.4375
1253.8759	14942.3375
1257.42845	15150.9375
1260.97859	15466.7375
1264.52631	15781.7375
1268.07163	16051.1375
1271.61453	16373.6375
1275.15503	16588.4375
1278.69312	16807.1375
1282.22882	16992.7375
1285.76211	17236.2375
1289.29301	17626.1375
1292.82151	18052.2375
1296.34761	18590.6375
1299.87133	19290.2375
1303.39266	20181.5375
1306.9116	21272.2375
1310.42815	22367.3375
1313.94233	22918.1375
1317.45412	22730.2375
1320.96354	22077.5375
1324.47058	21382.5375
1327.97525	20728.0375
1331.47754	20177.0375
1334.97747	19951.3375
1338.47502	19981.5375
1341.97022	20258.7375
1345.46305	20784.1375
1348.95352	21378.3375
1352.44163	22065.9375
1355.92738	22920.4375
1359.41078	24147.4375
1362.89183	25470.5375
1366.37053	25245.4375
1369.84688	23106.3375
1373.32088	20490.9375
1376.79254	18697.2375
1380.26186	17755.8375
1383.72883	17307.5375
1387.19347	17016.1375
1390.65578	16655.0375
1394.11575	16342.3375
1397.57339	16129.8375
1401.0287	16014.3375
1404.48168	15950.5375
1407.93234	15859.8375
1411.38068	15749.8375
1414.82669	15548.5375
1418.27039	15272.6375
1421.71177	14999.9375
1425.15083	14684.4375
1428.58758	14512.4375
1432.02203	14523.8375
1435.45416	14598.1375
1438.88399	14711.8375
1442.31151	14787.2375
1445.73673	14915.0375
1449.15965	15021.1375
1452.58027	15069.0375
1455.9986	15105.4375
1459.41463	15179.3375
1462.82837	15340.2375
1466.23982	15656.6375
1469.64898	15968.1375
1473.05586	16275.8375
1476.46045	16449.7375
1479.86276	16622.0375
1483.26279	16716.6375
1486.66054	16923.5375
1490.05602	17201.6375
1493.44922	17687.1375
1496.84016	18403.0375
1500.22882	19522.3375
1503.61521	21025.7375
1506.99934	22434.0375
1510.38121	23379.4375
1513.76081	23294.3375
1517.13816	22192.3375
1520.51324	20687.6375
1523.88607	19436.2375
1527.25665	18635.4375
1530.62498	18189.4375
1533.99105	17884.3375
1537.35488	17567.3375
1540.71647	17210.4375
1544.07581	16863.9375
1547.4329	16533.8375
1550.78776	16282.6375
1554.14038	16101.4375
1557.49077	16085.4375
1560.83892	16182.4375
1564.18484	16393.3375
1567.52853	16702.3375
1570.86999	16991.1375
1574.20922	17206.6375
1577.54624	17186.4375
1580.88103	16789.1375
1584.2136	16196.9375
1587.54395	15921.2375
1590.87208	16043.5375
1594.19801	16502.0375
1597.52172	17150.7375
1600.84321	17362.1375
1604.16251	17014.8375
1607.47959	16368.7375
1610.79447	15674.7375
1614.10715	14973.6375
1617.41763	14310.1375
1620.7259	13769.5375
1624.03199	13421.4375
1627.33587	13346.7375
1630.63757	13429.8375
1633.93707	13770.0375
1637.23439	14494.1375
1640.52951	15670.6375
1643.82246	17245.9375
1647.11321	18846.8375
1650.40179	19660.9375
1653.68819	19125.8375
1656.97241	17424.0375
1660.25446	15470.5375
1663.53433	13960.6375
1666.81203	13002.7375
1670.08756	12394.7375
1673.36092	12010.7375
1676.63211	11805.1375
1679.90115	11608.8375
1683.16801	11481.1375
1686.43272	11371.0375
1689.69527	11281.2375
1692.95567	11202.4375
1696.2139	11162.9375
1699.46999	11137.9375
1702.72392	11066.1375
1705.97571	11054.9375
1709.22535	11010.8375
1712.47284	10997.8375
1715.71819	10964.2375
1718.96139	10890.9375
1722.20246	10846.2375
1725.44139	10800.1375
1728.67818	10744.6375
1731.91284	10697.7375
1735.14537	10631.1375
1738.37576	10590.0375
1741.60403	10569.4375
1744.83017	10515.4375
1748.05418	10505.1375
1751.27607	10454.6375
1754.49584	10428.0375
1757.71349	10431.5375
1760.92903	10418.7375
1764.14244	10425.5375
1767.35375	10371.1375
1770.56294	10349.8375
1773.77002	10339.5375
1776.97499	10285.5375
1780.17785	10256.1375
1783.37861	10251.3375
1786.57727	10255.0375
1789.77382	10215.3375
1792.96828	10190.6375
1796.16064	10158.3375
1799.3509	10155.8375
1802.53907	10120.1375
1805.72514	10087.4375
1808.90913	10060.8375
1812.09102	10047.1375
1815.27083	10018.6375
1818.44856	10001.6375
1821.6242	9966.6375
1824.79776	9941.6375
1827.96924	9913.4375
1831.13864	9894.5375
1834.30597	9866.1375
1837.47122	9864.0375
1840.6344	9841.7375
1843.7955	9855.6375
1846.95454	9843.7375
1850.11151	9826.8375
1853.26642	9810.7375
1856.41926	9819.4375
1859.57004	9786.2375
1862.71876	9773.4375
1865.86542	9775.2375
1869.01003	9747.7375
1872.15258	9755.4375
1875.29308	9712.8375
1878.43152	9709.8375
1881.56792	9718.8375
1884.70227	9721.3375
1887.83457	9669.6375
1890.96482	9673.9375
1894.09304	9643.5375
1897.21921	9622.3375
1900.34335	9618.9375
1903.46544	9609.2375
1906.58551	9587.5375
1909.70353	9582.4375
1912.81953	9571.1375
1915.93349	9557.9375
1919.04543	9517.0375
1922.15534	9476.3375
1925.26322	9462.8375
1928.36908	9448.9375
1931.47292	9443.5375
1934.57473	9411.0375
1937.67453	9378.0375
1940.77232	9355.3375
1943.86808	9337.4375
1946.96184	9295.4375
1950.05358	9248.6375
1953.14331	9201.0375
1956.23103	9191.4375
1959.31675	9132.8375
1962.40046	9127.0375
1965.48217	9102.5375
1968.56188	9100.2375
1971.63959	9042.8375
1974.7153	9033.2375
1977.78901	8997.6375
1980.86073	8957.3375
1983.93046	8945.2375
1986.99819	8896.6375
1990.06394	8879.5375
1993.1277	8846.9375
1996.18947	8801.2375
1999.24925	8813.4375
2002.30706	8753.9375
2005.36288	8740.3375
2008.41672	8670.6375
2011.46859	8666.2375
2014.51848	8650.7375
2017.56639	8628.1375
2020.61233	8589.6375
2023.6563	8554.2375
2026.6983	8535.1375
2029.73833	8508.7375
2032.7764	8468.3375
2035.8125	8452.0375
2038.84664	8424.8375
2041.87881	8409.6375
2044.90903	8371.6375
2047.93729	8349.5375
2050.96359	8339.1375
2053.98794	8315.0375
2057.01034	8333.2375
2060.03078	8289.7375
2063.04927	8274.5375
2066.06582	8281.0375
2069.08042	8270.3375
2072.09307	8288.2375
2075.10378	8256.2375
2078.11255	8240.1375
2081.11938	8245.9375
2084.12426	8254.4375
2087.12722	8240.4375
2090.12824	8244.9375
2093.12732	8229.8375
2096.12447	8222.5375
2099.11969	8218.5375
2102.11299	8213.4375
2105.10435	8220.2375
2108.09379	8207.5375
2111.08131	8212.3375
2114.0669	8217.0375
2117.05057	8247.7375
2120.03233	8240.6375
2123.01216	8246.3375
2125.99008	8237.2375
2128.96609	8224.2375
2131.94018	8227.7375
2134.91236	8224.0375
2137.88263	8226.1375
2140.851	8247.7375
2143.81746	8261.2375
2146.78201	8246.6375
2149.74466	8228.7375
2152.7054	8236.2375
2155.66425	8209.6375
2158.6212	8216.5375
2161.57625	8173.6375
2164.52941	8184.8375
2167.48067	8205.0375
2170.43004	8166.1375
2173.37752	8181.2375
2176.32311	8172.3375
2179.26681	8154.1375
2182.20863	8148.1375
2185.14856	8155.0375
2188.08661	8139.6375
2191.02278	8136.2375
2193.95707	8104.2375
2196.88948	8114.5375
2199.82001	8117.3375
2202.74867	8108.7375
2205.67545	8110.4375
2208.60037	8084.5375
2211.52341	8066.3375
2214.44458	8041.1375
2217.36388	8011.5375
2220.28132	8007.7375
2223.1969	7996.2375
2226.11061	7977.3375
2229.02246	7951.1375
2231.93245	7954.7375
2234.84058	7899.8375
2237.74686	7900.5375
2240.65128	7908.2375
2243.55385	7870.6375
2246.45456	7886.7375
2249.35343	7874.0375
2252.25044	7837.4375
2255.14561	7839.4375
2258.03893	7830.6375
2260.93041	7798.3375
2263.82004	7783.6375
2266.70783	7755.0375
2269.59378	7741.6375
2272.4779	7721.9375
2275.36017	7712.0375
2278.24061	7706.2375
2281.11922	7659.8375
2283.996	7675.9375
2286.87094	7642.6375
2289.74405	7633.5375
2292.61534	7625.2375
2295.4848	7597.2375
2298.35243	7585.6375
2301.21824	7577.8375
2304.08223	7556.0375
2306.94439	7567.2375
2309.80474	7547.7375
2312.66327	7548.6375
2315.51999	7528.9375
2318.37489	7515.7375
2321.22797	7512.5375
2324.07925	7490.3375
2326.92871	7481.6375
2329.77637	7485.7375
2332.62222	7429.7375
2335.46626	7427.9375
2338.3085	7411.7375
2341.14893	7408.9375
2343.98756	7409.1375
2346.8244	7404.6375
2349.65943	7400.9375
2352.49267	7400.7375
2355.32411	7397.8375
2358.15376	7404.2375
2360.98161	7407.2375
2363.80768	7386.3375
2366.63195	7411.5375
2369.45444	7390.4375
2372.27514	7368.9375
2375.09405	7339.2375
2377.91118	7344.8375
2380.72652	7320.8375
2383.54009	7302.6375
2386.35187	7291.2375
2389.16188	7269.0375
2391.97011	7247.6375
2394.77657	7223.8375
2397.58125	7207.1375
2400.38416	7181.6375
2403.18529	7164.3375
2405.98466	7161.1375
2408.78226	7127.7375
2411.57809	7131.8375
2414.37216	7112.3375
2417.16446	7113.4375
2419.955	7111.8375
2422.74378	7085.5375
2425.5308	7084.3375
2428.31606	7085.6375
2431.09956	7078.7375
2433.88131	7061.5375
2436.6613	7048.3375
2439.43954	7056.9375
2442.21603	7038.0375
2444.99077	7032.1375
2447.76377	7019.0375
2450.53501	7009.7375
2453.30451	7020.1375
2456.07226	6994.1375
2458.83827	6998.1375
2461.60254	7003.8375
2464.36507	6987.3375
2467.12586	6987.1375
2469.88492	6950.8375
2472.64224	6960.9375
2475.39782	6967.9375
2478.15167	6970.2375
2480.90379	6968.1375
2483.65417	6970.7375
2486.40283	6960.2375
2489.14976	6980.0375
2491.89497	6953.5375
2494.63845	6971.2375
2497.3802	6939.5375
2500.12024	6929.5375
2502.85855	6936.1375
2505.59514	6904.9375
2508.33002	6893.9375
2511.06318	6883.0375
2513.79462	6857.3375
2516.52435	6845.0375
2519.25237	6842.4375
2521.97867	6834.4375
2524.70327	6820.6375
2527.42616	6803.0375
2530.14734	6799.1375
2532.86681	6781.7375
2535.58458	6789.7375
2538.30065	6776.7375
2541.01501	6762.6375
2543.72768	6751.8375
2546.43864	6740.1375
2549.14791	6744.9375
2551.85548	6726.4375
2554.56136	6680.0375
2557.26554	6677.8375
2559.96803	6670.5375
2562.66883	6648.0375
2565.36794	6633.3375
2568.06536	6630.9375
2570.7611	6609.9375
2573.45514	6618.7375
2576.14751	6604.5375
2578.83819	6582.2375
2581.52719	6582.3375
2584.21451	6559.5375
2586.90015	6551.3375
2589.58411	6538.5375
2592.2664	6512.0375
2594.94701	6523.9375
2597.62594	6501.9375
2600.30321	6487.2375
2602.9788	6466.3375
2605.65273	6469.6375
2608.32498	6448.5375
2610.99557	6447.9375
2613.66449	6424.3375
2616.33175	6424.4375
2618.99734	6430.4375
2621.66128	6420.7375
2624.32355	6396.7375
2626.98416	6391.5375
2629.64311	6375.9375
2632.30041	6378.0375
2634.95605	6379.0375
2637.61004	6346.2375
2640.26238	6359.4375
2642.91306	6342.6375
2645.56209	6343.4375
2648.20948	6337.6375
2650.85521	6334.5375
2653.4993	6324.6375
2656.14175	6323.5375
2658.78255	6299.4375
2661.42171	6315.4375
2664.05923	6329.4375
2666.6951	6326.2375
2669.32934	6351.1375
2671.96194	6336.2375
2674.59291	6330.1375
2677.22224	6333.2375
2679.84993	6329.4375
2682.476	6301.1375
2685.10043	6293.3375
2687.72324	6266.4375
2690.34441	6292.4375
2692.96396	6294.0375
2695.58188	6319.9375
2698.19818	6284.6375
2700.81285	6288.1375
2703.4259	6279.1375
2706.03733	6277.1375
2708.64714	6275.2375
2711.25533	6290.4375
2713.86191	6278.7375
2716.46687	6316.3375
2719.07021	6280.0375
2721.67194	6303.8375
2724.27206	6286.3375
2726.87057	6284.9375
2729.46747	6283.3375
2732.06276	6278.7375
2734.65644	6291.6375
2737.24852	6260.5375
2739.83899	6256.3375
2742.42786	6233.1375
2745.01513	6227.7375
2747.60079	6217.7375
2750.18486	6196.9375
2752.76733	6185.0375
2755.3482	6190.4375
2757.92747	6164.8375
2760.50515	6150.6375
2763.08123	6149.4375
2765.65573	6144.9375
2768.22863	6156.9375
2770.79994	6139.1375
2773.36967	6139.7375
2775.9378	6129.8375
2778.50435	6106.0375
2781.06932	6108.7375
2783.6327	6091.2375
2786.1945	6101.4375
2788.75471	6090.0375
2791.31335	6080.1375
2793.87041	6080.1375
2796.42589	6042.1375
2798.97979	6033.2375
2801.53212	6040.6375
2804.08288	6011.5375
2806.63206	5997.3375
2809.17967	6003.2375
2811.72571	5973.1375
2814.27018	5978.3375
2816.81308	5970.6375
2819.35442	5948.9375
2821.89419	5938.3375
2824.43239	5936.0375
2826.96904	5931.7375
2829.50412	5910.1375
2832.03763	5901.9375
2834.56959	5891.0375
2837.1	5889.6375
2839.62884	5900.1375
2842.15613	5902.5375
2844.68186	5895.9375
2847.20604	5900.9375
2849.72867	5911.2375
2852.24974	5896.1375
2854.76927	5885.2375
2857.28724	5898.5375
2859.80367	5881.7375
2862.31855	5871.7375
2864.83189	5876.3375
2867.34368	5872.8375
2869.85393	5866.5375
2872.36264	5861.3375
2874.8698	5848.2375
2877.37543	5834.6375
2879.87952	5858.6375
2882.38207	5835.9375
2884.88308	5808.4375
2887.38256	5833.2375
2889.88051	5820.8375
2892.37692	5814.7375
2894.8718	5812.2375
2897.36515	5841.6375
2899.85698	5822.1375
2902.34727	5820.8375
2904.83604	5799.6375
2907.32328	5815.0375
2909.809	5828.0375
2912.29319	5841.8375
2914.77587	5846.5375
2917.25702	5827.6375
2919.73665	5821.3375
2922.21476	5825.8375
2924.69136	5807.9375
2927.16644	5815.4375
2929.64	5812.7375
2932.11205	5776.0375
2934.58258	5759.3375
2937.05161	5764.1375
2939.51912	5765.1375
2941.98513	5748.3375
2944.44962	5738.7375
2946.91261	5728.7375
2949.37409	5717.4375
2951.83407	5710.9375
2954.29254	5726.7375
2956.74951	5718.4375
2959.20498	5711.0375
2961.65895	5695.4375
2964.11142	5702.8375
2966.56239	5687.1375
2969.01186	5669.0375
2971.45984	5670.5375
2973.90632	5659.2375
2976.35131	5643.6375
2978.7948	5615.0375
2981.23681	5620.5375
2983.67732	5623.3375
2986.11635	5580.6375
2988.55388	5578.1375
2990.98993	5581.0375
2993.4245	5559.6375
2995.85758	5553.9375
2998.28917	5533.6375
3000.71928	5530.5375
3003.14791	5532.2375
3005.57506	5525.3375
3008.00073	5528.2375
3010.42493	5498.3375
3012.84764	5503.8375
3015.26888	5476.5375
3017.68865	5486.3375
3020.10694	5488.9375
3022.52376	5446.3375
3024.9391	5455.6375
3027.35298	5429.4375
3029.76539	5429.5375
3032.17632	5422.1375
3034.5858	5417.4375
3036.9938	5400.9375
3039.40034	5407.8375
3041.80542	5398.3375
3044.20903	5401.2375
3046.61118	5393.2375
3049.01187	5373.3375
3051.4111	5371.0375
3053.80888	5357.4375
3056.20519	5346.0375
3058.60005	5338.6375
3060.99345	5319.9375
3063.3854	5311.3375
3065.7759	5301.8375
3068.16494	5281.7375
3070.55254	5282.0375
3072.93868	5273.8375
3075.32338	5259.1375
3077.70662	5268.0375
3080.08842	5239.2375
3082.46878	5241.8375
3084.84769	5243.6375
3087.22515	5241.8375
3089.60118	5256.3375
3091.97576	5236.1375
3094.3489	5237.9375
3096.72061	5212.6375
3099.09087	5226.5375
3101.4597	5229.9375
3103.82709	5237.9375
3106.19305	5217.3375
3108.55757	5232.5375
3110.92066	5209.7375
3113.28232	5215.9375
3115.64255	5185.9375
3118.00134	5184.9375
3120.35871	5183.7375
3122.71466	5164.9375
3125.06917	5161.4375
3127.42226	5158.1375
3129.77393	5164.0375
3132.12417	5143.1375
3134.47299	5161.5375
3136.82039	5131.1375
3139.16636	5143.6375
3141.51092	5137.3375
3143.85406	5145.1375
3146.19579	5130.4375
3148.53609	5152.4375
3150.87499	5167.5375
3153.21246	5159.7375
3155.54853	5190.0375
3157.88318	5177.8375
3160.21642	5169.9375
3162.54826	5187.6375
3164.87868	5179.8375
3167.2077	5172.3375
3169.5353	5179.0375
3171.86151	5198.6375
3174.18631	5179.9375
3176.5097	5176.1375
3178.83169	5158.5375
3181.15228	5163.6375
3183.47147	5145.1375
3185.78926	5168.5375
3188.10565	5141.9375
3190.42065	5149.0375
3192.73424	5147.6375
3195.04645	5123.8375
3197.35725	5142.8375
3199.66667	5136.2375
3201.97469	5151.5375
3204.28132	5138.0375
3206.58656	5144.2375
3208.8904	5140.1375
3211.19287	5126.0375
3213.49394	5142.3375
3215.79363	5153.9375
3218.09193	5149.8375
3220.38884	5154.6375
3222.68438	5153.7375
3224.97853	5158.7375
3227.2713	5159.2375
3229.56269	5157.0375
3231.8527	5145.9375
3234.14133	5137.5375
3236.42858	5130.1375
3238.71446	5116.3375
3240.99896	5113.7375
3243.28209	5104.4375
3245.56384	5095.7375
3247.84423	5092.7375
3250.12324	5097.7375
3252.40088	5081.9375
3254.67715	5068.6375
3256.95205	5067.3375
3259.22558	5059.1375
3261.49775	5063.5375
3263.76855	5047.7375
3266.03799	5036.5375
3268.30606	5043.9375
3270.57277	5036.1375
3272.83812	5015.8375
3275.10211	5004.0375
3277.36474	5000.1375
3279.62601	4994.1375
3281.88593	4985.0375
3284.14448	4998.3375
3286.40168	4980.2375
3288.65753	4990.2375
3290.91202	4983.1375
3293.16516	4965.6375
3295.41695	4952.1375
3297.66738	4935.5375
3299.91647	4894.7375
3302.16421	4882.3375
3304.4106	4873.6375
3306.65564	4850.8375
3308.89933	4811.6375
3311.14169	4771.9375
3313.38269	4749.4375
3315.62236	4723.5375
3317.86068	4686.7375
3320.09766	4651.1375
3322.3333	4615.8375
3324.5676	4594.8375
3326.80056	4518.3375
3329.03219	4498.5375
3331.26248	2.5375
3333.49143	-0.6625
3335.71905	1.2375
