Data from AgNP_FTO_APTES_UA_100uM_CRN_5uM_R6G_10uM_NaF_0.1M_Addition_RamanShift__31__15-14-40-392.txt Node

Date: Thu Mar 24 15:14:40 GMT 2022
User: TCL
Spectrometer: QEP01345
Trigger mode: 4
Integration Time (sec): 7.000000E0
Scans to average: 10
Electric dark correction enabled: true
Nonlinearity correction enabled: false
Boxcar width: 0
XAxis mode: Raman Shifts
Number of Pixels in Spectrum: 1044
>>>>>Begin Spectral Data<<<<<
46.04893	-0.8875
50.45542	0.0125
54.85868	-0.3875
59.25871	0.4125
63.6555	31.7125
68.04907	34.0125
72.43941	35.0125
76.82654	35.5125
81.21044	39.6125
85.59113	41.4125
89.96862	45.8125
94.34289	41.3125
98.71396	43.4125
103.08183	46.1125
107.4465	46.4125
111.80798	48.3125
116.16626	50.7125
120.52136	53.1125
124.87327	53.4125
129.222	55.3125
133.56755	63.1125
137.90993	63.1125
142.24913	73.3125
146.58517	82.1125
150.91804	91.9125
155.24774	115.5125
159.57429	142.8125
163.89768	189.8125
168.21792	251.6125
172.53501	342.4125
176.84895	482.5125
181.15975	680.9125
185.46741	963.6125
189.77193	1335.0125
194.07331	1796.9125
198.37157	2360.5125
202.6667	2958.8125
206.9587	3569.1125
211.24758	4233.0125
215.53334	4961.1125
219.81599	5833.1125
224.09553	6847.2125
228.37195	7973.4125
232.64527	9169.4125
236.91549	10177.9125
241.18261	10963.6125
245.44663	11465.4125
249.70755	11772.5125
253.96539	12044.8125
258.22014	12296.7125
262.4718	12476.7125
266.72039	12473.7125
270.96589	12242.3125
275.20832	11825.4125
279.44768	11297.7125
283.68397	10865.8125
287.91719	10705.7125
292.14735	10913.9125
296.37445	11641.3125
300.59849	12929.5125
304.81948	14489.5125
309.03742	15886.5125
313.25231	16399.4125
317.46415	15372.9125
321.67296	13259.6125
325.87872	11353.8125
330.08145	10409.2125
334.28114	10298.8125
338.47781	10677.3125
342.67145	11285.9125
346.86207	12279.3125
351.04966	13819.5125
355.23424	15577.1125
359.4158	16837.3125
363.59435	17168.7125
367.76989	16853.8125
371.94243	16220.5125
376.11196	15553.1125
380.27849	14992.1125
384.44203	14349.3125
388.60257	13729.7125
392.76012	13390.5125
396.91468	13490.4125
401.06626	14022.0125
405.21485	14375.1125
409.36047	13758.6125
413.50311	12130.7125
417.64277	10624.6125
421.77947	9677.0125
425.9132	9245.1125
430.04396	9092.1125
434.17176	9105.8125
438.2966	9322.5125
442.41849	9760.3125
446.53742	10271.8125
450.6534	10695.5125
454.76644	10762.2125
458.87653	10545.9125
462.98368	10202.1125
467.08789	9827.1125
471.18916	9395.5125
475.2875	8871.0125
479.38291	8491.8125
483.4754	8215.5125
487.56496	8016.2125
491.6516	7927.6125
495.73531	7906.1125
499.81612	8000.5125
503.89401	8238.7125
507.96899	8583.5125
512.04106	9004.9125
516.11023	9497.9125
520.1765	9827.9125
524.23987	9913.1125
528.30034	9709.5125
532.35792	9471.0125
536.41261	9126.0125
540.46441	8627.6125
544.51333	8273.1125
548.55936	8326.4125
552.60252	8719.9125
556.64279	9270.0125
560.6802	9602.9125
564.71473	10225.4125
568.7464	11572.1125
572.7752	12040.4125
576.80114	10587.1125
580.82422	9067.5125
584.84444	8417.0125
588.86181	8216.0125
592.87633	8261.3125
596.888	8495.6125
600.89682	9341.9125
604.9028	12539.5125
608.90594	21226.4125
612.90624	32891.3125
616.90371	31808.2125
620.89834	17290.8125
624.89015	10135.3125
628.87913	8923.6125
632.86528	9360.4125
636.84862	9847.4125
640.82913	9345.2125
644.80683	8112.4125
648.78172	7340.2125
652.75379	7432.7125
656.72306	8446.0125
660.68952	9643.6125
664.65319	9285.8125
668.61405	7867.7125
672.57211	7161.6125
676.52738	7124.7125
680.47986	7070.5125
684.42955	6849.7125
688.37646	6709.2125
692.32058	6735.3125
696.26192	6873.4125
700.20048	7129.0125
704.13626	7312.6125
708.06928	7265.4125
711.99952	7150.6125
715.927	7138.0125
719.85171	7316.2125
723.77365	7450.5125
727.69284	7322.0125
731.60928	7175.2125
735.52295	7143.8125
739.43388	7188.4125
743.34206	7235.1125
747.24749	7213.2125
751.15017	7245.7125
755.05012	7597.1125
758.94733	8935.4125
762.8418	12118.4125
766.73354	17128.2125
770.62254	21370.2125
774.50882	23316.8125
778.39237	22092.3125
782.27321	17423.8125
786.15132	12225.5125
790.02671	9193.5125
793.89938	7917.5125
797.76935	7360.6125
801.6366	7145.1125
805.50115	7039.4125
809.36299	6983.4125
813.22213	6939.3125
817.07857	6879.2125
820.93231	6916.3125
824.78336	7022.7125
828.63172	7206.6125
832.47738	7268.9125
836.32036	7119.8125
840.16066	6895.7125
843.99827	6741.6125
847.8332	6687.2125
851.66546	6672.3125
855.49504	6671.7125
859.32195	6621.6125
863.1462	6569.4125
866.96777	6511.5125
870.78668	6521.6125
874.60293	6578.2125
878.41652	6700.3125
882.22745	6871.5125
886.03573	6953.1125
889.84136	6918.3125
893.64433	6839.8125
897.44466	6885.0125
901.24235	6916.0125
905.0374	6835.8125
908.8298	6657.0125
912.61957	6490.3125
916.40671	6437.2125
920.19121	6527.4125
923.97308	6747.6125
927.75233	7162.7125
931.52895	7624.6125
935.30295	7455.5125
939.07433	6770.2125
942.84309	6254.4125
946.60924	6002.6125
950.37278	5858.7125
954.13371	5798.9125
957.89203	5755.5125
961.64774	5742.4125
965.40086	5731.9125
969.15137	5713.0125
972.89929	5685.5125
976.64461	5682.1125
980.38733	5672.3125
984.12747	5673.4125
987.86502	5715.4125
991.59999	5766.0125
995.33237	5881.8125
999.06217	6087.6125
1002.78939	6369.8125
1006.51404	6730.2125
1010.23611	7037.1125
1013.95561	7076.6125
1017.67255	6944.4125
1021.38692	6760.8125
1025.09872	6519.4125
1028.80796	6372.1125
1032.51465	6429.9125
1036.21877	6570.7125
1039.92035	6722.4125
1043.61937	6804.7125
1047.31584	6860.3125
1051.00976	6843.1125
1054.70114	6723.5125
1058.38998	6650.7125
1062.07627	6660.4125
1065.76003	6640.5125
1069.44126	6710.8125
1073.11995	6924.2125
1076.79611	7300.3125
1080.46974	7915.6125
1084.14085	8795.6125
1087.80943	9511.5125
1091.47549	9621.4125
1095.13903	9078.3125
1098.80005	8193.2125
1102.45857	7629.0125
1106.11456	7548.9125
1109.76805	7849.6125
1113.41903	8583.9125
1117.06751	9796.9125
1120.71348	11470.4125
1124.35696	13392.1125
1127.99793	14329.7125
1131.63641	13160.7125
1135.2724	11068.6125
1138.90589	9505.9125
1142.5369	8630.9125
1146.16542	8057.5125
1149.79145	7730.4125
1153.415	7640.5125
1157.03607	7787.7125
1160.65467	8152.9125
1164.27079	8862.9125
1167.88443	9980.0125
1171.49561	11851.0125
1175.10432	15043.3125
1178.71056	19141.3125
1182.31434	21966.8125
1185.91565	22293.2125
1189.51451	20922.3125
1193.11091	18570.4125
1196.70485	15969.6125
1200.29634	14107.5125
1203.88538	12724.7125
1207.47197	10987.7125
1211.05612	9415.0125
1214.63782	8534.0125
1218.21708	8109.8125
1221.79391	7986.0125
1225.36829	8003.1125
1228.94024	7984.3125
1232.50976	7945.8125
1236.07685	7932.2125
1239.6415	8031.8125
1243.20374	8218.7125
1246.76355	8394.0125
1250.32093	8590.9125
1253.8759	8990.4125
1257.42845	9626.0125
1260.97859	10496.8125
1264.52631	11364.0125
1268.07163	12135.0125
1271.61453	12561.2125
1275.15503	12660.9125
1278.69312	12569.3125
1282.22882	12803.6125
1285.76211	13664.5125
1289.29301	14671.4125
1292.82151	15511.3125
1296.34761	16454.6125
1299.87133	18260.1125
1303.39266	21799.0125
1306.9116	27766.8125
1310.42815	34228.5125
1313.94233	36607.8125
1317.45412	32957.5125
1320.96354	26910.4125
1324.47058	21241.7125
1327.97525	16987.1125
1331.47754	14585.3125
1334.97747	13746.7125
1338.47502	14126.0125
1341.97022	15693.9125
1345.46305	18656.0125
1348.95352	22464.0125
1352.44163	26945.8125
1355.92738	33693.8125
1359.41078	44212.7125
1362.89183	51946.2125
1366.37053	46474.9125
1369.84688	33712.8125
1373.32088	23941.8125
1376.79254	18613.3125
1380.26186	15663.2125
1383.72883	13702.2125
1387.19347	12244.4125
1390.65578	10907.5125
1394.11575	9924.5125
1397.57339	9377.7125
1401.0287	9124.6125
1404.48168	9001.8125
1407.93234	8987.9125
1411.38068	9176.3125
1414.82669	9551.4125
1418.27039	9829.8125
1421.71177	9797.2125
1425.15083	9659.1125
1428.58758	9854.1125
1432.02203	10351.5125
1435.45416	10546.0125
1438.88399	10356.0125
1442.31151	10139.9125
1445.73673	10209.2125
1449.15965	10328.0125
1452.58027	10171.3125
1455.9986	9835.1125
1459.41463	9669.2125
1462.82837	9931.9125
1466.23982	10468.6125
1469.64898	10913.4125
1473.05586	11115.9125
1476.46045	11174.4125
1479.86276	11465.7125
1483.26279	12126.4125
1486.66054	13187.1125
1490.05602	14708.8125
1493.44922	17002.8125
1496.84016	20694.6125
1500.22882	26489.0125
1503.61521	34691.5125
1506.99934	44244.4125
1510.38121	51968.7125
1513.76081	53306.3125
1517.13816	46375.1125
1520.51324	35163.5125
1523.88607	25604.2125
1527.25665	19749.6125
1530.62498	16522.9125
1533.99105	14580.3125
1537.35488	13322.6125
1540.71647	12655.5125
1544.07581	12458.4125
1547.4329	12528.3125
1550.78776	12744.8125
1554.14038	13145.9125
1557.49077	13715.0125
1560.83892	14641.3125
1564.18484	16054.0125
1567.52853	17639.4125
1570.86999	18667.8125
1574.20922	19113.3125
1577.54624	18670.6125
1580.88103	16391.7125
1584.2136	13382.9125
1587.54395	11535.1125
1590.87208	11121.7125
1594.19801	12131.8125
1597.52172	13855.0125
1600.84321	14645.0125
1604.16251	13977.5125
1607.47959	12805.9125
1610.79447	11548.5125
1614.10715	10201.0125
1617.41763	9008.2125
1620.7259	8324.5125
1624.03199	8087.5125
1627.33587	8231.5125
1630.63757	8746.8125
1633.93707	9739.4125
1637.23439	11559.8125
1640.52951	14712.1125
1643.82246	19996.6125
1647.11321	26701.3125
1650.40179	31275.4125
1653.68819	29517.9125
1656.97241	22563.8125
1660.25446	15704.4125
1663.53433	11271.5125
1666.81203	8885.0125
1670.08756	7623.4125
1673.36092	6868.3125
1676.63211	6434.6125
1679.90115	6136.8125
1683.16801	5929.8125
1686.43272	5773.4125
1689.69527	5694.5125
1692.95567	5609.1125
1696.2139	5550.3125
1699.46999	5551.8125
1702.72392	5524.6125
1705.97571	5509.4125
1709.22535	5486.7125
1712.47284	5537.9125
1715.71819	5548.2125
1718.96139	5536.3125
1722.20246	5520.1125
1725.44139	5415.6125
1728.67818	5301.0125
1731.91284	5187.1125
1735.14537	5109.3125
1738.37576	5064.2125
1741.60403	5005.5125
1744.83017	4971.8125
1748.05418	4921.9125
1751.27607	4902.3125
1754.49584	4866.4125
1757.71349	4843.8125
1760.92903	4812.6125
1764.14244	4791.1125
1767.35375	4758.2125
1770.56294	4693.8125
1773.77002	4635.5125
1776.97499	4566.5125
1780.17785	4526.2125
1783.37861	4486.5125
1786.57727	4464.3125
1789.77382	4434.0125
1792.96828	4427.4125
1796.16064	4412.9125
1799.3509	4401.1125
1802.53907	4389.4125
1805.72514	4340.9125
1808.90913	4335.6125
1812.09102	4309.6125
1815.27083	4261.1125
1818.44856	4250.2125
1821.6242	4232.4125
1824.79776	4234.7125
1827.96924	4205.8125
1831.13864	4187.8125
1834.30597	4162.4125
1837.47122	4147.6125
1840.6344	4124.6125
1843.7955	4112.3125
1846.95454	4102.6125
1850.11151	4104.6125
1853.26642	4084.0125
1856.41926	4076.9125
1859.57004	4090.3125
1862.71876	4102.7125
1865.86542	4087.9125
1869.01003	4105.9125
1872.15258	4104.0125
1875.29308	4106.0125
1878.43152	4105.3125
1881.56792	4095.5125
1884.70227	4104.4125
1887.83457	4096.9125
1890.96482	4084.3125
1894.09304	4067.0125
1897.21921	4061.7125
1900.34335	4074.3125
1903.46544	4065.1125
1906.58551	4058.6125
1909.70353	4061.8125
1912.81953	4049.2125
1915.93349	4057.2125
1919.04543	4033.1125
1922.15534	4021.5125
1925.26322	3991.2125
1928.36908	3960.7125
1931.47292	3939.6125
1934.57473	3887.4125
1937.67453	3875.9125
1940.77232	3852.0125
1943.86808	3821.4125
1946.96184	3817.5125
1950.05358	3804.6125
1953.14331	3802.1125
1956.23103	3796.1125
1959.31675	3779.5125
1962.40046	3778.1125
1965.48217	3786.6125
1968.56188	3809.6125
1971.63959	3809.0125
1974.7153	3805.7125
1977.78901	3784.3125
1980.86073	3742.9125
1983.93046	3724.1125
1986.99819	3677.8125
1990.06394	3649.2125
1993.1277	3606.8125
1996.18947	3583.8125
1999.24925	3562.5125
2002.30706	3559.1125
2005.36288	3533.4125
2008.41672	3522.8125
2011.46859	3505.5125
2014.51848	3503.5125
2017.56639	3477.9125
2020.61233	3460.6125
2023.6563	3454.6125
2026.6983	3449.9125
2029.73833	3442.8125
2032.7764	3417.4125
2035.8125	3410.1125
2038.84664	3416.8125
2041.87881	3401.9125
2044.90903	3400.2125
2047.93729	3406.9125
2050.96359	3381.9125
2053.98794	3363.8125
2057.01034	3347.2125
2060.03078	3337.4125
2063.04927	3324.7125
2066.06582	3312.5125
2069.08042	3305.3125
2072.09307	3297.5125
2075.10378	3287.2125
2078.11255	3297.0125
2081.11938	3299.4125
2084.12426	3288.9125
2087.12722	3287.3125
2090.12824	3283.4125
2093.12732	3300.5125
2096.12447	3296.3125
2099.11969	3295.6125
2102.11299	3301.6125
2105.10435	3295.4125
2108.09379	3290.8125
2111.08131	3294.5125
2114.0669	3318.3125
2117.05057	3336.3125
2120.03233	3343.4125
2123.01216	3363.1125
2125.99008	3359.2125
2128.96609	3373.9125
2131.94018	3362.8125
2134.91236	3345.1125
2137.88263	3354.3125
2140.851	3321.4125
2143.81746	3320.5125
2146.78201	3308.6125
2149.74466	3273.4125
2152.7054	3263.2125
2155.66425	3233.1125
2158.6212	3239.6125
2161.57625	3245.5125
2164.52941	3221.5125
2167.48067	3224.7125
2170.43004	3228.7125
2173.37752	3236.7125
2176.32311	3227.0125
2179.26681	3222.8125
2182.20863	3234.1125
2185.14856	3235.8125
2188.08661	3226.4125
2191.02278	3217.0125
2193.95707	3202.9125
2196.88948	3196.5125
2199.82001	3189.3125
2202.74867	3179.5125
2205.67545	3192.1125
2208.60037	3189.5125
2211.52341	3171.9125
2214.44458	3171.9125
2217.36388	3162.8125
2220.28132	3160.7125
2223.1969	3140.8125
2226.11061	3133.6125
2229.02246	3114.8125
2231.93245	3123.0125
2234.84058	3105.6125
2237.74686	3094.0125
2240.65128	3099.8125
2243.55385	3092.9125
2246.45456	3097.0125
2249.35343	3110.8125
2252.25044	3130.4125
2255.14561	3148.0125
2258.03893	3174.2125
2260.93041	3198.0125
2263.82004	3204.9125
2266.70783	3198.2125
2269.59378	3166.0125
2272.4779	3175.0125
2275.36017	3161.3125
2278.24061	3160.9125
2281.11922	3132.1125
2283.996	3117.4125
2286.87094	3099.8125
2289.74405	3072.5125
2292.61534	3062.8125
2295.4848	3053.0125
2298.35243	3015.7125
2301.21824	3024.8125
2304.08223	3027.9125
2306.94439	3031.4125
2309.80474	3023.6125
2312.66327	3017.3125
2315.51999	3014.9125
2318.37489	3023.0125
2321.22797	3014.1125
2324.07925	3008.9125
2326.92871	3012.5125
2329.77637	3010.6125
2332.62222	3011.6125
2335.46626	3009.2125
2338.3085	3017.3125
2341.14893	3021.8125
2343.98756	3033.9125
2346.8244	3056.0125
2349.65943	3049.9125
2352.49267	3079.1125
2355.32411	3100.8125
2358.15376	3125.7125
2360.98161	3137.7125
2363.80768	3175.4125
2366.63195	3194.6125
2369.45444	3212.5125
2372.27514	3209.4125
2375.09405	3187.6125
2377.91118	3171.1125
2380.72652	3131.7125
2383.54009	3107.4125
2386.35187	3074.5125
2389.16188	3047.3125
2391.97011	3008.6125
2394.77657	3002.2125
2397.58125	2965.2125
2400.38416	2956.3125
2403.18529	2935.5125
2405.98466	2938.6125
2408.78226	2926.5125
2411.57809	2907.0125
2414.37216	2899.4125
2417.16446	2899.9125
2419.955	2897.8125
2422.74378	2896.2125
2425.5308	2900.3125
2428.31606	2902.6125
2431.09956	2925.0125
2433.88131	2932.2125
2436.6613	2945.6125
2439.43954	2951.1125
2442.21603	2964.0125
2444.99077	2976.3125
2447.76377	2996.7125
2450.53501	2998.8125
2453.30451	3004.7125
2456.07226	2996.6125
2458.83827	2993.2125
2461.60254	2980.0125
2464.36507	2982.2125
2467.12586	2996.4125
2469.88492	2988.6125
2472.64224	3006.4125
2475.39782	3020.6125
2478.15167	3046.6125
2480.90379	3063.7125
2483.65417	3080.6125
2486.40283	3119.6125
2489.14976	3144.4125
2491.89497	3148.5125
2494.63845	3159.0125
2497.3802	3145.7125
2500.12024	3125.9125
2502.85855	3085.7125
2505.59514	3069.8125
2508.33002	3012.8125
2511.06318	2991.1125
2513.79462	2936.8125
2516.52435	2896.3125
2519.25237	2859.8125
2521.97867	2847.3125
2524.70327	2832.4125
2527.42616	2823.8125
2530.14734	2806.3125
2532.86681	2802.5125
2535.58458	2815.0125
2538.30065	2813.9125
2541.01501	2828.9125
2543.72768	2839.1125
2546.43864	2842.9125
2549.14791	2852.6125
2551.85548	2860.7125
2554.56136	2859.4125
2557.26554	2864.7125
2559.96803	2868.0125
2562.66883	2865.1125
2565.36794	2856.8125
2568.06536	2843.3125
2570.7611	2840.9125
2573.45514	2829.1125
2576.14751	2812.0125
2578.83819	2813.1125
2581.52719	2791.1125
2584.21451	2784.8125
2586.90015	2775.1125
2589.58411	2755.6125
2592.2664	2768.2125
2594.94701	2765.7125
2597.62594	2765.1125
2600.30321	2750.8125
2602.9788	2763.7125
2605.65273	2762.8125
2608.32498	2766.2125
2610.99557	2767.1125
2613.66449	2767.3125
2616.33175	2775.7125
2618.99734	2785.8125
2621.66128	2789.2125
2624.32355	2787.0125
2626.98416	2782.2125
2629.64311	2751.6125
2632.30041	2754.5125
2634.95605	2737.4125
2637.61004	2723.6125
2640.26238	2697.2125
2642.91306	2711.9125
2645.56209	2701.3125
2648.20948	2699.1125
2650.85521	2704.6125
2653.4993	2702.9125
2656.14175	2700.5125
2658.78255	2715.5125
2661.42171	2712.3125
2664.05923	2724.8125
2666.6951	2738.9125
2669.32934	2765.8125
2671.96194	2764.7125
2674.59291	2779.3125
2677.22224	2768.7125
2679.84993	2777.2125
2682.476	2754.6125
2685.10043	2762.8125
2687.72324	2752.9125
2690.34441	2740.7125
2692.96396	2756.0125
2695.58188	2751.7125
2698.19818	2737.4125
2700.81285	2739.6125
2703.4259	2756.6125
2706.03733	2765.8125
2708.64714	2752.5125
2711.25533	2765.6125
2713.86191	2767.2125
2716.46687	2766.7125
2719.07021	2774.2125
2721.67194	2780.0125
2724.27206	2761.2125
2726.87057	2759.9125
2729.46747	2756.1125
2732.06276	2747.1125
2734.65644	2737.7125
2737.24852	2717.4125
2739.83899	2701.6125
2742.42786	2692.1125
2745.01513	2669.5125
2747.60079	2662.0125
2750.18486	2658.7125
2752.76733	2647.1125
2755.3482	2648.6125
2757.92747	2639.2125
2760.50515	2634.0125
2763.08123	2619.6125
2765.65573	2617.2125
2768.22863	2617.2125
2770.79994	2606.0125
2773.36967	2623.1125
2775.9378	2613.6125
2778.50435	2623.0125
2781.06932	2616.6125
2783.6327	2622.3125
2786.1945	2625.5125
2788.75471	2623.4125
2791.31335	2631.5125
2793.87041	2626.5125
2796.42589	2633.5125
2798.97979	2657.4125
2801.53212	2654.0125
2804.08288	2663.9125
2806.63206	2670.7125
2809.17967	2691.2125
2811.72571	2704.3125
2814.27018	2730.1125
2816.81308	2767.7125
2819.35442	2775.1125
2821.89419	2789.5125
2824.43239	2808.4125
2826.96904	2806.8125
2829.50412	2820.7125
2832.03763	2815.3125
2834.56959	2801.6125
2837.1	2799.0125
2839.62884	2802.8125
2842.15613	2803.7125
2844.68186	2816.5125
2847.20604	2829.6125
2849.72867	2850.6125
2852.24974	2857.1125
2854.76927	2876.8125
2857.28724	2893.5125
2859.80367	2902.6125
2862.31855	2940.6125
2864.83189	2956.8125
2867.34368	2976.5125
2869.85393	3008.6125
2872.36264	3006.3125
2874.8698	3007.1125
2877.37543	2985.6125
2879.87952	2980.1125
2882.38207	2969.3125
2884.88308	2944.0125
2887.38256	2937.9125
2889.88051	2911.4125
2892.37692	2906.0125
2894.8718	2891.8125
2897.36515	2908.1125
2899.85698	2883.2125
2902.34727	2890.5125
2904.83604	2869.6125
2907.32328	2866.9125
2909.809	2858.9125
2912.29319	2846.8125
2914.77587	2837.0125
2917.25702	2818.6125
2919.73665	2810.0125
2922.21476	2784.2125
2924.69136	2772.9125
2927.16644	2773.6125
2929.64	2759.5125
2932.11205	2753.5125
2934.58258	2738.5125
2937.05161	2743.3125
2939.51912	2734.9125
2941.98513	2725.5125
2944.44962	2708.2125
2946.91261	2705.0125
2949.37409	2705.2125
2951.83407	2713.6125
2954.29254	2701.7125
2956.74951	2713.5125
2959.20498	2715.0125
2961.65895	2700.5125
2964.11142	2695.8125
2966.56239	2696.2125
2969.01186	2673.8125
2971.45984	2667.2125
2973.90632	2643.4125
2976.35131	2640.8125
2978.7948	2634.1125
2981.23681	2602.4125
2983.67732	2597.6125
2986.11635	2583.6125
2988.55388	2586.7125
2990.98993	2598.0125
2993.4245	2592.0125
2995.85758	2598.2125
2998.28917	2608.7125
3000.71928	2605.1125
3003.14791	2624.5125
3005.57506	2627.5125
3008.00073	2618.7125
3010.42493	2634.1125
3012.84764	2628.7125
3015.26888	2644.1125
3017.68865	2625.5125
3020.10694	2629.2125
3022.52376	2622.8125
3024.9391	2593.4125
3027.35298	2592.6125
3029.76539	2576.1125
3032.17632	2551.9125
3034.5858	2542.1125
3036.9938	2519.4125
3039.40034	2498.1125
3041.80542	2488.1125
3044.20903	2463.5125
3046.61118	2468.1125
3049.01187	2459.8125
3051.4111	2447.9125
3053.80888	2441.4125
3056.20519	2433.2125
3058.60005	2430.3125
3060.99345	2419.4125
3063.3854	2426.6125
3065.7759	2402.4125
3068.16494	2411.6125
3070.55254	2412.1125
3072.93868	2396.2125
3075.32338	2379.0125
3077.70662	2379.1125
3080.08842	2370.0125
3082.46878	2368.5125
3084.84769	2354.1125
3087.22515	2361.2125
3089.60118	2358.0125
3091.97576	2355.5125
3094.3489	2348.9125
3096.72061	2346.2125
3099.09087	2338.2125
3101.4597	2341.5125
3103.82709	2358.3125
3106.19305	2340.9125
3108.55757	2347.0125
3110.92066	2344.7125
3113.28232	2332.5125
3115.64255	2336.7125
3118.00134	2340.4125
3120.35871	2335.8125
3122.71466	2345.8125
3125.06917	2352.3125
3127.42226	2348.5125
3129.77393	2355.1125
3132.12417	2353.1125
3134.47299	2372.4125
3136.82039	2364.2125
3139.16636	2366.8125
3141.51092	2369.4125
3143.85406	2378.0125
3146.19579	2404.7125
3148.53609	2407.0125
3150.87499	2420.7125
3153.21246	2422.7125
3155.54853	2441.4125
3157.88318	2435.5125
3160.21642	2444.5125
3162.54826	2441.7125
3164.87868	2448.0125
3167.2077	2443.2125
3169.5353	2449.3125
3171.86151	2447.2125
3174.18631	2454.9125
3176.5097	2458.4125
3178.83169	2446.2125
3181.15228	2453.9125
3183.47147	2453.6125
3185.78926	2464.3125
3188.10565	2470.5125
3190.42065	2472.2125
3192.73424	2474.7125
3195.04645	2492.6125
3197.35725	2491.3125
3199.66667	2520.7125
3201.97469	2526.4125
3204.28132	2548.7125
3206.58656	2558.5125
3208.8904	2554.0125
3211.19287	2559.6125
3213.49394	2584.1125
3215.79363	2582.2125
3218.09193	2583.3125
3220.38884	2600.8125
3222.68438	2609.4125
3224.97853	2593.6125
3227.2713	2597.9125
3229.56269	2595.4125
3231.8527	2597.5125
3234.14133	2583.5125
3236.42858	2590.6125
3238.71446	2587.3125
3240.99896	2590.9125
3243.28209	2574.9125
3245.56384	2588.1125
3247.84423	2586.2125
3250.12324	2590.0125
3252.40088	2582.7125
3254.67715	2575.8125
3256.95205	2569.2125
3259.22558	2564.0125
3261.49775	2555.4125
3263.76855	2556.3125
3266.03799	2541.8125
3268.30606	2554.8125
3270.57277	2557.5125
3272.83812	2543.3125
3275.10211	2538.9125
3277.36474	2545.0125
3279.62601	2550.2125
3281.88593	2550.6125
3284.14448	2549.9125
3286.40168	2549.9125
3288.65753	2562.4125
3290.91202	2566.4125
3293.16516	2563.9125
3295.41695	2551.4125
3297.66738	2543.2125
3299.91647	2540.0125
3302.16421	2511.2125
3304.4106	2501.2125
3306.65564	2472.2125
3308.89933	2448.7125
3311.14169	2427.0125
3313.38269	2396.1125
3315.62236	2370.7125
3317.86068	2336.5125
3320.09766	2322.5125
3322.3333	2284.1125
3324.5676	2286.6125
3326.80056	2238.3125
3329.03219	2223.0125
3331.26248	0.9125
3333.49143	-1.4875
3335.71905	1.5125
