Data from AgNP_FTO_APTES_UA_100uM_CRN_2uM_R6G_10uM_NaF_0.1M_Addition_RamanShift__22__14-10-30-317.txt Node

Date: Thu Mar 24 14:10:30 GMT 2022
User: TCL
Spectrometer: QEP01345
Trigger mode: 4
Integration Time (sec): 7.000000E0
Scans to average: 10
Electric dark correction enabled: true
Nonlinearity correction enabled: false
Boxcar width: 0
XAxis mode: Raman Shifts
Number of Pixels in Spectrum: 1044
>>>>>Begin Spectral Data<<<<<
46.04893	-0.4625
50.45542	-0.9625
54.85868	-0.9625
59.25871	0.0375
63.6555	42.4375
68.04907	47.1375
72.43941	44.7375
76.82654	45.3375
81.21044	55.3375
85.59113	54.0375
89.96862	55.7375
94.34289	54.1375
98.71396	59.4375
103.08183	59.1375
107.4465	59.4375
111.80798	66.1375
116.16626	64.0375
120.52136	64.5375
124.87327	67.8375
129.222	76.9375
133.56755	76.3375
137.90993	82.5375
142.24913	92.9375
146.58517	102.6375
150.91804	116.6375
155.24774	143.1375
159.57429	172.0375
163.89768	223.1375
168.21792	299.1375
172.53501	406.4375
176.84895	566.6375
181.15975	805.6375
185.46741	1121.9375
189.77193	1552.1375
194.07331	2087.3375
198.37157	2708.3375
202.6667	3354.0375
206.9587	4011.5375
211.24758	4706.8375
215.53334	5424.4375
219.81599	6228.5375
224.09553	7150.2375
228.37195	8150.2375
232.64527	9282.8375
236.91549	10382.7375
241.18261	11364.8375
245.44663	12118.9375
249.70755	12710.8375
253.96539	13215.6375
258.22014	13643.4375
262.4718	14057.1375
266.72039	14380.2375
270.96589	14440.4375
275.20832	14319.8375
279.44768	14040.0375
283.68397	13694.4375
287.91719	13523.8375
292.14735	13563.6375
296.37445	13910.4375
300.59849	14478.5375
304.81948	15264.9375
309.03742	15823.6375
313.25231	15887.7375
317.46415	15274.8375
321.67296	14119.4375
325.87872	13087.5375
330.08145	12562.6375
334.28114	12497.6375
338.47781	12743.9375
342.67145	13098.8375
346.86207	13648.9375
351.04966	14418.9375
355.23424	15336.6375
359.4158	16068.3375
363.59435	16422.3375
367.76989	16476.8375
371.94243	16409.2375
376.11196	16287.1375
380.27849	16137.4375
384.44203	15986.3375
388.60257	15737.5375
392.76012	15612.4375
396.91468	15675.3375
401.06626	16036.2375
405.21485	16319.5375
409.36047	15969.0375
413.50311	15038.9375
417.64277	14148.2375
421.77947	13598.8375
425.9132	13390.5375
430.04396	13356.9375
434.17176	13429.3375
438.2966	13620.0375
442.41849	13949.0375
446.53742	14420.1375
450.6534	14858.9375
454.76644	15126.9375
458.87653	15127.6375
462.98368	14911.4375
467.08789	14641.5375
471.18916	14267.0375
475.2875	13902.2375
479.38291	13574.8375
483.4754	13292.5375
487.56496	13097.4375
491.6516	12980.9375
495.73531	12918.1375
499.81612	12955.3375
503.89401	13143.9375
507.96899	13358.8375
512.04106	13545.2375
516.11023	13740.4375
520.1765	13921.1375
524.23987	13931.7375
528.30034	13788.4375
532.35792	13630.8375
536.41261	13398.3375
540.46441	13038.3375
544.51333	12897.3375
548.55936	12994.7375
552.60252	13356.9375
556.64279	13782.1375
560.6802	13989.6375
564.71473	14179.2375
568.7464	14707.9375
572.7752	15032.0375
576.80114	14644.9375
580.82422	14173.2375
584.84444	14076.0375
588.86181	14211.4375
592.87633	14524.5375
596.888	14752.0375
600.89682	15073.4375
604.9028	16923.8375
608.90594	22046.4375
612.90624	28783.4375
616.90371	27643.0375
620.89834	18797.3375
624.89015	14394.6375
628.87913	13579.0375
632.86528	13791.9375
636.84862	14125.5375
640.82913	13863.8375
644.80683	13081.1375
648.78172	12459.3375
652.75379	12436.3375
656.72306	13034.8375
660.68952	13771.7375
664.65319	13626.4375
668.61405	12805.9375
672.57211	12473.4375
676.52738	12460.6375
680.47986	12420.3375
684.42955	12226.3375
688.37646	12090.1375
692.32058	12111.4375
696.26192	12264.8375
700.20048	12458.6375
704.13626	12583.7375
708.06928	12549.3375
711.99952	12428.9375
715.927	12395.3375
719.85171	12494.6375
723.77365	12566.8375
727.69284	12490.2375
731.60928	12363.8375
735.52295	12326.3375
739.43388	12359.0375
743.34206	12452.4375
747.24749	12503.2375
751.15017	12530.9375
755.05012	12724.6375
758.94733	13489.4375
762.8418	15409.3375
766.73354	18636.4375
770.62254	21925.0375
774.50882	23463.7375
778.39237	22225.8375
782.27321	18928.8375
786.15132	15662.8375
790.02671	13674.4375
793.89938	12763.1375
797.76935	12391.7375
801.6366	12217.9375
805.50115	12160.8375
809.36299	12086.2375
813.22213	12022.3375
817.07857	11957.2375
820.93231	11952.3375
824.78336	11950.9375
828.63172	11968.9375
832.47738	12019.2375
836.32036	11976.3375
840.16066	11904.6375
843.99827	11877.1375
847.8332	11869.8375
851.66546	11833.3375
855.49504	11826.0375
859.32195	11828.4375
863.1462	11799.7375
866.96777	11744.4375
870.78668	11725.1375
874.60293	11771.9375
878.41652	11836.7375
882.22745	11900.4375
886.03573	12018.9375
889.84136	11983.0375
893.64433	11916.2375
897.44466	11866.9375
901.24235	11847.3375
905.0374	11743.2375
908.8298	11650.6375
912.61957	11595.0375
916.40671	11610.9375
920.19121	11746.7375
923.97308	11900.8375
927.75233	12079.7375
931.52895	12275.3375
935.30295	12142.2375
939.07433	11767.3375
942.84309	11449.2375
946.60924	11234.7375
950.37278	11118.9375
954.13371	11035.6375
957.89203	11005.5375
961.64774	10969.1375
965.40086	10899.1375
969.15137	10888.2375
972.89929	10852.8375
976.64461	10841.5375
980.38733	10834.1375
984.12747	10860.9375
987.86502	10929.0375
991.59999	11057.6375
995.33237	11258.3375
999.06217	11571.1375
1002.78939	11984.0375
1006.51404	12333.5375
1010.23611	12597.1375
1013.95561	12770.6375
1017.67255	12758.3375
1021.38692	12593.9375
1025.09872	12346.3375
1028.80796	12245.0375
1032.51465	12410.9375
1036.21877	12664.8375
1039.92035	12758.9375
1043.61937	12734.3375
1047.31584	12584.9375
1051.00976	12413.1375
1054.70114	12267.4375
1058.38998	12206.6375
1062.07627	12227.6375
1065.76003	12267.5375
1069.44126	12353.7375
1073.11995	12485.7375
1076.79611	12765.4375
1080.46974	13097.4375
1084.14085	13527.2375
1087.80943	13962.5375
1091.47549	14171.6375
1095.13903	13879.4375
1098.80005	13370.0375
1102.45857	12985.0375
1106.11456	12841.0375
1109.76805	13008.9375
1113.41903	13445.6375
1117.06751	14106.4375
1120.71348	14893.3375
1124.35696	15764.3375
1127.99793	16420.4375
1131.63641	16173.7375
1135.2724	15192.3375
1138.90589	14368.8375
1142.5369	13810.5375
1146.16542	13456.1375
1149.79145	13205.1375
1153.415	13134.3375
1157.03607	13266.7375
1160.65467	13632.8375
1164.27079	14280.9375
1167.88443	15261.2375
1171.49561	16758.9375
1175.10432	19080.1375
1178.71056	22273.2375
1182.31434	24998.3375
1185.91565	25842.8375
1189.51451	25006.8375
1193.11091	23150.5375
1196.70485	21045.8375
1200.29634	19434.9375
1203.88538	18268.4375
1207.47197	16968.8375
1211.05612	15785.0375
1214.63782	15099.0375
1218.21708	14853.0375
1221.79391	14854.0375
1225.36829	14937.8375
1228.94024	14850.4375
1232.50976	14643.7375
1236.07685	14441.5375
1239.6415	14324.5375
1243.20374	14403.3375
1246.76355	14558.1375
1250.32093	14788.2375
1253.8759	15157.8375
1257.42845	15688.8375
1260.97859	16317.0375
1264.52631	17018.1375
1268.07163	17746.5375
1271.61453	18381.6375
1275.15503	18908.2375
1278.69312	19246.0375
1282.22882	19564.9375
1285.76211	20079.9375
1289.29301	20866.6375
1292.82151	21716.0375
1296.34761	22766.3375
1299.87133	24374.1375
1303.39266	27039.3375
1306.9116	30947.0375
1310.42815	35022.3375
1313.94233	36787.8375
1317.45412	35049.5375
1320.96354	31686.9375
1324.47058	28413.3375
1327.97525	25756.2375
1331.47754	24040.9375
1334.97747	23383.8375
1338.47502	23524.3375
1341.97022	24273.2375
1345.46305	25681.6375
1348.95352	27616.5375
1352.44163	30240.4375
1355.92738	34143.5375
1359.41078	40073.8375
1362.89183	45534.2375
1366.37053	43553.0375
1369.84688	35345.6375
1373.32088	27944.3375
1376.79254	23674.2375
1380.26186	21446.8375
1383.72883	20198.3375
1387.19347	19323.1375
1390.65578	18433.1375
1394.11575	17840.0375
1397.57339	17582.3375
1401.0287	17602.6375
1404.48168	17711.6375
1407.93234	17807.4375
1411.38068	17837.3375
1414.82669	17887.0375
1418.27039	17718.7375
1421.71177	17313.5375
1425.15083	16865.5375
1428.58758	16617.1375
1432.02203	16820.4375
1435.45416	17216.7375
1438.88399	17392.9375
1442.31151	17448.5375
1445.73673	17603.3375
1449.15965	17733.9375
1452.58027	17703.7375
1455.9986	17546.2375
1459.41463	17526.4375
1462.82837	17810.0375
1466.23982	18367.3375
1469.64898	18947.1375
1473.05586	19352.6375
1476.46045	19561.6375
1479.86276	19800.0375
1483.26279	20099.9375
1486.66054	20679.5375
1490.05602	21533.7375
1493.44922	22834.8375
1496.84016	24942.2375
1500.22882	28263.6375
1503.61521	33094.3375
1506.99934	38495.7375
1510.38121	42496.6375
1513.76081	42589.5375
1517.13816	38406.1375
1520.51324	32275.2375
1523.88607	27016.5375
1527.25665	23813.6375
1530.62498	22088.5375
1533.99105	21102.9375
1537.35488	20398.9375
1540.71647	19943.5375
1544.07581	19608.2375
1547.4329	19441.6375
1550.78776	19354.1375
1554.14038	19384.7375
1557.49077	19599.9375
1560.83892	19984.1375
1564.18484	20724.3375
1567.52853	21649.0375
1570.86999	22343.8375
1574.20922	22779.9375
1577.54624	22583.3375
1580.88103	21199.5375
1584.2136	19351.8375
1587.54395	18356.7375
1590.87208	18497.1375
1594.19801	19783.8375
1597.52172	21586.5375
1600.84321	22490.2375
1604.16251	21791.8375
1607.47959	20312.7375
1610.79447	18684.5375
1614.10715	17065.9375
1617.41763	15681.6375
1620.7259	14746.4375
1624.03199	14298.2375
1627.33587	14336.0375
1630.63757	14705.0375
1633.93707	15674.1375
1637.23439	17275.3375
1640.52951	19829.2375
1643.82246	23568.8375
1647.11321	27816.1375
1650.40179	30405.7375
1653.68819	29067.6375
1656.97241	24295.5375
1660.25446	19345.4375
1663.53433	15980.6375
1666.81203	13991.3375
1670.08756	12845.7375
1673.36092	12148.3375
1676.63211	11725.0375
1679.90115	11401.2375
1683.16801	11189.4375
1686.43272	10994.0375
1689.69527	10880.3375
1692.95567	10787.1375
1696.2139	10708.7375
1699.46999	10666.2375
1702.72392	10636.7375
1705.97571	10589.1375
1709.22535	10556.5375
1712.47284	10546.5375
1715.71819	10573.2375
1718.96139	10512.5375
1722.20246	10509.4375
1725.44139	10392.8375
1728.67818	10302.6375
1731.91284	10199.1375
1735.14537	10123.6375
1738.37576	10070.3375
1741.60403	10021.4375
1744.83017	9982.1375
1748.05418	9945.0375
1751.27607	9917.1375
1754.49584	9897.2375
1757.71349	9858.6375
1760.92903	9845.9375
1764.14244	9857.5375
1767.35375	9836.0375
1770.56294	9793.5375
1773.77002	9747.4375
1776.97499	9707.1375
1780.17785	9687.1375
1783.37861	9673.1375
1786.57727	9656.6375
1789.77382	9597.4375
1792.96828	9597.2375
1796.16064	9566.5375
1799.3509	9557.4375
1802.53907	9557.2375
1805.72514	9527.9375
1808.90913	9476.9375
1812.09102	9458.3375
1815.27083	9427.3375
1818.44856	9399.4375
1821.6242	9389.8375
1824.79776	9361.1375
1827.96924	9359.1375
1831.13864	9346.2375
1834.30597	9325.1375
1837.47122	9302.6375
1840.6344	9266.3375
1843.7955	9276.3375
1846.95454	9266.7375
1850.11151	9253.5375
1853.26642	9240.4375
1856.41926	9240.0375
1859.57004	9229.0375
1862.71876	9230.3375
1865.86542	9208.8375
1869.01003	9217.1375
1872.15258	9229.2375
1875.29308	9221.7375
1878.43152	9193.3375
1881.56792	9204.4375
1884.70227	9185.7375
1887.83457	9186.9375
1890.96482	9202.7375
1894.09304	9186.2375
1897.21921	9183.8375
1900.34335	9194.2375
1903.46544	9179.6375
1906.58551	9179.7375
1909.70353	9185.4375
1912.81953	9174.0375
1915.93349	9146.7375
1919.04543	9123.4375
1922.15534	9099.5375
1925.26322	9087.6375
1928.36908	9058.4375
1931.47292	9041.2375
1934.57473	9013.6375
1937.67453	9002.9375
1940.77232	8970.4375
1943.86808	8912.1375
1946.96184	8909.8375
1950.05358	8899.3375
1953.14331	8866.0375
1956.23103	8854.7375
1959.31675	8846.9375
1962.40046	8826.3375
1965.48217	8821.4375
1968.56188	8787.8375
1971.63959	8793.0375
1974.7153	8761.2375
1977.78901	8755.8375
1980.86073	8734.0375
1983.93046	8674.9375
1986.99819	8625.9375
1990.06394	8598.2375
1993.1277	8567.9375
1996.18947	8512.6375
1999.24925	8501.8375
2002.30706	8480.7375
2005.36288	8456.1375
2008.41672	8410.5375
2011.46859	8375.5375
2014.51848	8377.3375
2017.56639	8360.7375
2020.61233	8316.2375
2023.6563	8315.2375
2026.6983	8290.4375
2029.73833	8268.5375
2032.7764	8241.9375
2035.8125	8240.5375
2038.84664	8230.5375
2041.87881	8229.9375
2044.90903	8179.9375
2047.93729	8187.0375
2050.96359	8170.6375
2053.98794	8143.3375
2057.01034	8118.3375
2060.03078	8100.0375
2063.04927	8087.2375
2066.06582	8108.6375
2069.08042	8090.3375
2072.09307	8078.0375
2075.10378	8083.9375
2078.11255	8051.4375
2081.11938	8082.7375
2084.12426	8074.0375
2087.12722	8071.0375
2090.12824	8072.8375
2093.12732	8081.4375
2096.12447	8074.1375
2099.11969	8089.9375
2102.11299	8057.8375
2105.10435	8086.0375
2108.09379	8073.3375
2111.08131	8089.6375
2114.0669	8098.6375
2117.05057	8115.8375
2120.03233	8100.1375
2123.01216	8126.4375
2125.99008	8136.0375
2128.96609	8147.8375
2131.94018	8131.6375
2134.91236	8137.4375
2137.88263	8170.0375
2140.851	8139.4375
2143.81746	8144.8375
2146.78201	8135.3375
2149.74466	8128.6375
2152.7054	8140.0375
2155.66425	8120.5375
2158.6212	8108.7375
2161.57625	8103.4375
2164.52941	8104.5375
2167.48067	8097.2375
2170.43004	8104.0375
2173.37752	8095.6375
2176.32311	8098.9375
2179.26681	8113.8375
2182.20863	8096.8375
2185.14856	8090.5375
2188.08661	8099.7375
2191.02278	8057.4375
2193.95707	8085.5375
2196.88948	8061.3375
2199.82001	8093.6375
2202.74867	8072.6375
2205.67545	8072.0375
2208.60037	8044.5375
2211.52341	8056.9375
2214.44458	8043.7375
2217.36388	8030.1375
2220.28132	8021.9375
2223.1969	8012.9375
2226.11061	7984.6375
2229.02246	7973.8375
2231.93245	7960.0375
2234.84058	7927.9375
2237.74686	7918.7375
2240.65128	7897.0375
2243.55385	7910.0375
2246.45456	7881.9375
2249.35343	7890.5375
2252.25044	7899.5375
2255.14561	7896.8375
2258.03893	7889.4375
2260.93041	7891.5375
2263.82004	7878.2375
2266.70783	7885.5375
2269.59378	7847.9375
2272.4779	7845.9375
2275.36017	7829.6375
2278.24061	7806.1375
2281.11922	7795.9375
2283.996	7802.1375
2286.87094	7765.5375
2289.74405	7743.9375
2292.61534	7742.6375
2295.4848	7712.3375
2298.35243	7717.6375
2301.21824	7717.9375
2304.08223	7699.4375
2306.94439	7711.0375
2309.80474	7713.0375
2312.66327	7717.1375
2315.51999	7700.5375
2318.37489	7711.8375
2321.22797	7701.1375
2324.07925	7699.9375
2326.92871	7707.3375
2329.77637	7668.9375
2332.62222	7693.8375
2335.46626	7692.7375
2338.3085	7711.0375
2341.14893	7685.6375
2343.98756	7706.7375
2346.8244	7714.7375
2349.65943	7712.9375
2352.49267	7737.2375
2355.32411	7740.8375
2358.15376	7750.7375
2360.98161	7741.2375
2363.80768	7763.2375
2366.63195	7772.9375
2369.45444	7754.5375
2372.27514	7737.3375
2375.09405	7750.1375
2377.91118	7728.6375
2380.72652	7687.5375
2383.54009	7655.2375
2386.35187	7623.7375
2389.16188	7611.3375
2391.97011	7578.8375
2394.77657	7581.6375
2397.58125	7554.6375
2400.38416	7541.4375
2403.18529	7507.5375
2405.98466	7489.9375
2408.78226	7467.3375
2411.57809	7439.8375
2414.37216	7422.7375
2417.16446	7444.5375
2419.955	7428.5375
2422.74378	7417.9375
2425.5308	7405.5375
2428.31606	7432.2375
2431.09956	7425.2375
2433.88131	7422.6375
2436.6613	7391.4375
2439.43954	7425.8375
2442.21603	7434.8375
2444.99077	7421.7375
2447.76377	7420.5375
2450.53501	7421.5375
2453.30451	7437.4375
2456.07226	7429.1375
2458.83827	7434.4375
2461.60254	7424.7375
2464.36507	7439.9375
2467.12586	7426.9375
2469.88492	7451.1375
2472.64224	7452.7375
2475.39782	7447.6375
2478.15167	7469.6375
2480.90379	7482.2375
2483.65417	7505.1375
2486.40283	7496.0375
2489.14976	7547.4375
2491.89497	7541.6375
2494.63845	7551.6375
2497.3802	7532.5375
2500.12024	7542.3375
2502.85855	7531.9375
2505.59514	7503.1375
2508.33002	7471.3375
2511.06318	7456.9375
2513.79462	7398.0375
2516.52435	7389.6375
2519.25237	7395.5375
2521.97867	7356.0375
2524.70327	7353.9375
2527.42616	7334.7375
2530.14734	7327.5375
2532.86681	7307.5375
2535.58458	7297.6375
2538.30065	7302.4375
2541.01501	7294.6375
2543.72768	7324.6375
2546.43864	7313.6375
2549.14791	7288.0375
2551.85548	7294.4375
2554.56136	7301.4375
2557.26554	7287.9375
2559.96803	7285.4375
2562.66883	7281.9375
2565.36794	7291.3375
2568.06536	7264.8375
2570.7611	7286.6375
2573.45514	7269.9375
2576.14751	7250.8375
2578.83819	7260.5375
2581.52719	7250.0375
2584.21451	7214.2375
2586.90015	7218.1375
2589.58411	7204.3375
2592.2664	7198.0375
2594.94701	7211.3375
2597.62594	7181.0375
2600.30321	7176.6375
2602.9788	7156.5375
2605.65273	7190.1375
2608.32498	7178.9375
2610.99557	7183.3375
2613.66449	7198.2375
2616.33175	7192.9375
2618.99734	7194.5375
2621.66128	7206.7375
2624.32355	7186.1375
2626.98416	7185.8375
2629.64311	7173.8375
2632.30041	7167.1375
2634.95605	7169.6375
2637.61004	7148.9375
2640.26238	7153.9375
2642.91306	7148.4375
2645.56209	7131.0375
2648.20948	7126.2375
2650.85521	7110.6375
2653.4993	7094.1375
2656.14175	7118.9375
2658.78255	7124.5375
2661.42171	7139.0375
2664.05923	7124.6375
2666.6951	7153.9375
2669.32934	7170.6375
2671.96194	7151.1375
2674.59291	7164.0375
2677.22224	7166.8375
2679.84993	7186.4375
2682.476	7143.7375
2685.10043	7152.1375
2687.72324	7163.5375
2690.34441	7165.1375
2692.96396	7164.5375
2695.58188	7153.7375
2698.19818	7133.6375
2700.81285	7147.6375
2703.4259	7129.4375
2706.03733	7139.3375
2708.64714	7126.1375
2711.25533	7144.3375
2713.86191	7128.8375
2716.46687	7170.5375
2719.07021	7147.0375
2721.67194	7160.5375
2724.27206	7149.6375
2726.87057	7160.1375
2729.46747	7163.1375
2732.06276	7157.0375
2734.65644	7153.6375
2737.24852	7142.7375
2739.83899	7126.8375
2742.42786	7128.3375
2745.01513	7088.7375
2747.60079	7091.7375
2750.18486	7093.3375
2752.76733	7092.7375
2755.3482	7091.8375
2757.92747	7084.2375
2760.50515	7070.2375
2763.08123	7076.6375
2765.65573	7080.1375
2768.22863	7062.4375
2770.79994	7065.6375
2773.36967	7051.2375
2775.9378	7061.0375
2778.50435	7060.8375
2781.06932	7055.7375
2783.6327	7048.0375
2786.1945	7034.6375
2788.75471	7043.0375
2791.31335	7015.7375
2793.87041	7027.7375
2796.42589	7017.3375
2798.97979	7018.7375
2801.53212	7004.3375
2804.08288	7020.0375
2806.63206	7004.5375
2809.17967	7023.8375
2811.72571	7020.3375
2814.27018	7021.2375
2816.81308	7025.7375
2819.35442	7039.6375
2821.89419	7039.1375
2824.43239	7040.7375
2826.96904	7025.4375
2829.50412	7029.5375
2832.03763	7026.2375
2834.56959	6994.6375
2837.1	6999.8375
2839.62884	7001.2375
2842.15613	6978.1375
2844.68186	6996.6375
2847.20604	6997.8375
2849.72867	6986.9375
2852.24974	7000.1375
2854.76927	6984.6375
2857.28724	6985.7375
2859.80367	6983.6375
2862.31855	6999.2375
2864.83189	7019.0375
2867.34368	7023.5375
2869.85393	7029.1375
2872.36264	7045.1375
2874.8698	7057.8375
2877.37543	7046.7375
2879.87952	7056.6375
2882.38207	7042.0375
2884.88308	7036.1375
2887.38256	7051.2375
2889.88051	7031.9375
2892.37692	7034.2375
2894.8718	7011.8375
2897.36515	7018.7375
2899.85698	7025.2375
2902.34727	7028.9375
2904.83604	7039.4375
2907.32328	7047.7375
2909.809	7038.0375
2912.29319	7049.2375
2914.77587	7039.9375
2917.25702	7029.4375
2919.73665	6990.9375
2922.21476	7001.1375
2924.69136	6996.1375
2927.16644	6996.1375
2929.64	6980.7375
2932.11205	6975.2375
2934.58258	6943.0375
2937.05161	6938.3375
2939.51912	6933.8375
2941.98513	6956.7375
2944.44962	6926.2375
2946.91261	6897.9375
2949.37409	6907.9375
2951.83407	6902.7375
2954.29254	6915.3375
2956.74951	6895.6375
2959.20498	6881.4375
2961.65895	6884.1375
2964.11142	6859.5375
2966.56239	6846.1375
2969.01186	6843.3375
2971.45984	6838.7375
2973.90632	6814.5375
2976.35131	6794.0375
2978.7948	6794.8375
2981.23681	6767.3375
2983.67732	6763.2375
2986.11635	6749.2375
2988.55388	6732.2375
2990.98993	6728.1375
2993.4245	6726.7375
2995.85758	6719.8375
2998.28917	6705.2375
3000.71928	6696.5375
3003.14791	6687.7375
3005.57506	6657.2375
3008.00073	6660.6375
3010.42493	6680.1375
3012.84764	6682.8375
3015.26888	6672.2375
3017.68865	6664.0375
3020.10694	6644.3375
3022.52376	6605.6375
3024.9391	6605.3375
3027.35298	6587.5375
3029.76539	6588.2375
3032.17632	6566.0375
3034.5858	6557.7375
3036.9938	6549.8375
3039.40034	6544.7375
3041.80542	6513.0375
3044.20903	6476.9375
3046.61118	6490.8375
3049.01187	6478.6375
3051.4111	6457.7375
3053.80888	6445.4375
3056.20519	6434.0375
3058.60005	6421.0375
3060.99345	6422.5375
3063.3854	6405.1375
3065.7759	6368.8375
3068.16494	6380.5375
3070.55254	6362.2375
3072.93868	6352.0375
3075.32338	6317.2375
3077.70662	6319.2375
3080.08842	6316.9375
3082.46878	6300.6375
3084.84769	6292.2375
3087.22515	6292.6375
3089.60118	6281.6375
3091.97576	6274.5375
3094.3489	6273.5375
3096.72061	6279.0375
3099.09087	6263.8375
3101.4597	6276.5375
3103.82709	6270.7375
3106.19305	6270.6375
3108.55757	6263.2375
3110.92066	6233.4375
3113.28232	6233.0375
3115.64255	6204.9375
3118.00134	6200.4375
3120.35871	6192.9375
3122.71466	6187.7375
3125.06917	6174.5375
3127.42226	6172.6375
3129.77393	6193.8375
3132.12417	6191.8375
3134.47299	6179.0375
3136.82039	6182.3375
3139.16636	6208.5375
3141.51092	6192.6375
3143.85406	6190.0375
3146.19579	6207.1375
3148.53609	6193.5375
3150.87499	6211.5375
3153.21246	6197.1375
3155.54853	6208.8375
3157.88318	6199.3375
3160.21642	6186.5375
3162.54826	6192.0375
3164.87868	6196.0375
3167.2077	6178.7375
3169.5353	6172.5375
3171.86151	6176.7375
3174.18631	6169.1375
3176.5097	6181.8375
3178.83169	6174.5375
3181.15228	6176.8375
3183.47147	6166.7375
3185.78926	6164.4375
3188.10565	6163.1375
3190.42065	6175.9375
3192.73424	6171.3375
3195.04645	6181.8375
3197.35725	6189.3375
3199.66667	6203.6375
3201.97469	6205.4375
3204.28132	6199.2375
3206.58656	6228.2375
3208.8904	6209.1375
3211.19287	6215.1375
3213.49394	6237.1375
3215.79363	6239.0375
3218.09193	6228.3375
3220.38884	6220.9375
3222.68438	6226.3375
3224.97853	6207.8375
3227.2713	6223.6375
3229.56269	6215.8375
3231.8527	6211.2375
3234.14133	6203.0375
3236.42858	6185.4375
3238.71446	6191.2375
3240.99896	6191.0375
3243.28209	6196.4375
3245.56384	6182.8375
3247.84423	6196.4375
3250.12324	6205.1375
3252.40088	6165.2375
3254.67715	6179.8375
3256.95205	6186.0375
3259.22558	6189.3375
3261.49775	6177.8375
3263.76855	6157.2375
3266.03799	6160.9375
3268.30606	6161.3375
3270.57277	6140.8375
3272.83812	6142.1375
3275.10211	6123.9375
3277.36474	6148.5375
3279.62601	6139.9375
3281.88593	6143.5375
3284.14448	6162.6375
3286.40168	6136.6375
3288.65753	6147.9375
3290.91202	6133.7375
3293.16516	6134.8375
3295.41695	6109.7375
3297.66738	6088.0375
3299.91647	6074.2375
3302.16421	6033.0375
3304.4106	6039.2375
3306.65564	5996.6375
3308.89933	5951.5375
3311.14169	5929.2375
3313.38269	5867.8375
3315.62236	5855.9375
3317.86068	5792.1375
3320.09766	5726.5375
3322.3333	5683.8375
3324.5676	5671.9375
3326.80056	5580.1375
3329.03219	5564.9375
3331.26248	2.2375
3333.49143	-1.4625
3335.71905	0.3375
