Data from AgNP_FTO_APTES_UA_100uM_CRN_1uM_R6G_10uM_NaF_0.1M_Addition_RamanShift__30__12-23-10-193.txt Node

Date: Thu Mar 24 12:23:10 GMT 2022
User: TCL
Spectrometer: QEP01345
Trigger mode: 4
Integration Time (sec): 7.000000E0
Scans to average: 10
Electric dark correction enabled: true
Nonlinearity correction enabled: false
Boxcar width: 0
XAxis mode: Raman Shifts
Number of Pixels in Spectrum: 1044
>>>>>Begin Spectral Data<<<<<
46.04893	-1.4125
50.45542	-0.6125
54.85868	1.0875
59.25871	-0.2125
63.6555	44.9875
68.04907	49.8875
72.43941	54.6875
76.82654	52.1875
81.21044	55.1875
85.59113	58.1875
89.96862	61.3875
94.34289	59.8875
98.71396	65.2875
103.08183	62.5875
107.4465	67.1875
111.80798	67.2875
116.16626	72.0875
120.52136	74.0875
124.87327	72.8875
129.222	81.5875
133.56755	87.7875
137.90993	89.4875
142.24913	104.9875
146.58517	117.0875
150.91804	136.5875
155.24774	162.8875
159.57429	203.5875
163.89768	258.6875
168.21792	352.8875
172.53501	483.6875
176.84895	681.0875
181.15975	954.9875
185.46741	1343.8875
189.77193	1859.9875
194.07331	2509.0875
198.37157	3263.7875
202.6667	4050.0875
206.9587	4892.8875
211.24758	5716.7875
215.53334	6664.4875
219.81599	7723.7875
224.09553	8911.5875
228.37195	10263.0875
232.64527	11733.3875
236.91549	13134.5875
241.18261	14366.9875
245.44663	15255.1875
249.70755	15921.9875
253.96539	16471.3875
258.22014	16934.6875
262.4718	17219.0875
266.72039	17284.5875
270.96589	17141.2875
275.20832	16780.9875
279.44768	16419.3875
283.68397	16057.3875
287.91719	15953.9875
292.14735	16142.2875
296.37445	16736.1875
300.59849	17752.2875
304.81948	19067.4875
309.03742	20166.0875
313.25231	20461.3875
317.46415	19497.4875
321.67296	17591.8875
325.87872	15859.8875
330.08145	14988.0875
334.28114	14850.4875
338.47781	15196.6875
342.67145	15749.5875
346.86207	16627.7875
351.04966	18013.6875
355.23424	19625.5875
359.4158	20782.3875
363.59435	21242.6875
367.76989	21126.8875
371.94243	20727.0875
376.11196	20184.9875
380.27849	19769.3875
384.44203	19259.0875
388.60257	18788.9875
392.76012	18516.7875
396.91468	18685.3875
401.06626	19249.6875
405.21485	19704.2875
409.36047	19135.5875
413.50311	17676.0875
417.64277	16205.1875
421.77947	15391.5875
425.9132	15133.5875
430.04396	15036.2875
434.17176	15165.9875
438.2966	15392.1875
442.41849	15917.5875
446.53742	16574.4875
450.6534	17192.2875
454.76644	17420.8875
458.87653	17239.9875
462.98368	16774.6875
467.08789	16360.1875
471.18916	15767.9875
475.2875	15173.5875
479.38291	14649.9875
483.4754	14270.6875
487.56496	14045.3875
491.6516	13910.1875
495.73531	13886.9875
499.81612	13967.6875
503.89401	14227.2875
507.96899	14501.2875
512.04106	14830.0875
516.11023	15149.7875
520.1765	15350.3875
524.23987	15342.6875
528.30034	15104.1875
532.35792	14824.7875
536.41261	14402.3875
540.46441	13887.4875
544.51333	13581.2875
548.55936	13750.4875
552.60252	14335.2875
556.64279	14982.9875
560.6802	15328.8875
564.71473	15833.9875
568.7464	17056.5875
572.7752	17702.7875
576.80114	16794.6875
580.82422	15752.6875
584.84444	15326.5875
588.86181	15247.7875
592.87633	15370.7875
596.888	15556.0875
600.89682	16230.9875
604.9028	19373.1875
608.90594	27903.8875
612.90624	38782.4875
616.90371	36944.4875
620.89834	22808.5875
624.89015	15852.5875
628.87913	14637.8875
632.86528	15058.5875
636.84862	15475.7875
640.82913	14958.4875
644.80683	13690.4875
648.78172	12784.1875
652.75379	12882.7875
656.72306	13895.9875
660.68952	15113.1875
664.65319	14823.7875
668.61405	13496.5875
672.57211	12837.2875
676.52738	12747.2875
680.47986	12670.9875
684.42955	12400.7875
688.37646	12278.2875
692.32058	12345.7875
696.26192	12581.0875
700.20048	12973.5875
704.13626	13236.5875
708.06928	13303.4875
711.99952	13150.2875
715.927	13036.3875
719.85171	13110.8875
723.77365	13143.0875
727.69284	12961.3875
731.60928	12702.3875
735.52295	12657.9875
739.43388	12748.6875
743.34206	12925.7875
747.24749	12973.1875
751.15017	13148.5875
755.05012	13695.0875
758.94733	15076.3875
762.8418	18495.5875
766.73354	23857.5875
770.62254	28632.9875
774.50882	30422.3875
778.39237	28610.7875
782.27321	23435.7875
786.15132	18143.6875
790.02671	15019.0875
793.89938	13652.5875
797.76935	13078.1875
801.6366	12775.7875
805.50115	12632.8875
809.36299	12493.9875
813.22213	12398.6875
817.07857	12363.0875
820.93231	12365.4875
824.78336	12468.1875
828.63172	12610.4875
832.47738	12692.4875
836.32036	12572.1875
840.16066	12446.2875
843.99827	12343.9875
847.8332	12260.8875
851.66546	12272.6875
855.49504	12257.7875
859.32195	12237.0875
863.1462	12117.9875
866.96777	12056.1875
870.78668	12049.5875
874.60293	12078.3875
878.41652	12196.8875
882.22745	12365.3875
886.03573	12486.2875
889.84136	12454.2875
893.64433	12360.0875
897.44466	12359.4875
901.24235	12371.4875
905.0374	12283.9875
908.8298	12150.5875
912.61957	12036.5875
916.40671	12110.1875
920.19121	12347.7875
923.97308	12650.1875
927.75233	12998.0875
931.52895	13188.5875
935.30295	12864.6875
939.07433	12123.5875
942.84309	11562.2875
946.60924	11283.1875
950.37278	11145.1875
954.13371	11085.9875
957.89203	11032.1875
961.64774	10988.5875
965.40086	10944.6875
969.15137	10912.9875
972.89929	10905.4875
976.64461	10900.7875
980.38733	10883.3875
984.12747	10911.5875
987.86502	10977.5875
991.59999	11125.6875
995.33237	11349.7875
999.06217	11741.8875
1002.78939	12267.3875
1006.51404	12775.3875
1010.23611	13113.8875
1013.95561	13310.2875
1017.67255	13256.5875
1021.38692	12942.9875
1025.09872	12597.0875
1028.80796	12471.5875
1032.51465	12672.4875
1036.21877	12999.9875
1039.92035	13213.4875
1043.61937	13268.4875
1047.31584	13174.2875
1051.00976	13046.0875
1054.70114	12916.4875
1058.38998	12858.1875
1062.07627	12928.2875
1065.76003	13051.5875
1069.44126	13260.5875
1073.11995	13607.9875
1076.79611	13959.1875
1080.46974	14490.1875
1084.14085	15245.7875
1087.80943	15918.8875
1091.47549	16054.9875
1095.13903	15553.0875
1098.80005	14640.4875
1102.45857	13947.5875
1106.11456	13645.2875
1109.76805	13824.8875
1113.41903	14487.6875
1117.06751	15526.3875
1120.71348	17054.7875
1124.35696	18773.0875
1127.99793	19710.0875
1131.63641	18809.9875
1135.2724	16961.0875
1138.90589	15609.8875
1142.5369	14805.8875
1146.16542	14276.9875
1149.79145	14019.2875
1153.415	13991.0875
1157.03607	14205.5875
1160.65467	14667.0875
1164.27079	15561.5875
1167.88443	16969.6875
1171.49561	19265.1875
1175.10432	22972.7875
1178.71056	27654.8875
1182.31434	31130.9875
1185.91565	31810.4875
1189.51451	30492.9875
1193.11091	28164.8875
1196.70485	25436.1875
1200.29634	23238.5875
1203.88538	21450.8875
1207.47197	19320.7875
1211.05612	17519.3875
1214.63782	16518.0875
1218.21708	16198.8875
1221.79391	16190.7875
1225.36829	16145.9875
1228.94024	15946.5875
1232.50976	15707.7875
1236.07685	15601.1875
1239.6415	15668.4875
1243.20374	15779.4875
1246.76355	15983.4875
1250.32093	16293.5875
1253.8759	16828.0875
1257.42845	17657.8875
1260.97859	18615.9875
1264.52631	19649.5875
1268.07163	20589.1875
1271.61453	21310.1875
1275.15503	21795.3875
1278.69312	22139.6875
1282.22882	22642.1875
1285.76211	23606.6875
1289.29301	24703.7875
1292.82151	25746.1875
1296.34761	27093.1875
1299.87133	29392.5875
1303.39266	33267.6875
1306.9116	39319.9875
1310.42815	45448.2875
1313.94233	47698.1875
1317.45412	44640.1875
1320.96354	39428.7875
1324.47058	34362.0875
1327.97525	30477.5875
1331.47754	28305.6875
1334.97747	27699.5875
1338.47502	28196.3875
1341.97022	29726.2875
1345.46305	32111.8875
1348.95352	35171.0875
1352.44163	39017.4875
1355.92738	45059.9875
1359.41078	54394.6875
1362.89183	61250.1875
1366.37053	56694.9875
1369.84688	45111.5875
1373.32088	35386.4875
1376.79254	29636.2875
1380.26186	26335.6875
1383.72883	24245.2875
1387.19347	22806.2875
1390.65578	21448.5875
1394.11575	20533.9875
1397.57339	20103.4875
1401.0287	20051.5875
1404.48168	20187.7875
1407.93234	20411.1875
1411.38068	20662.3875
1414.82669	20708.2875
1418.27039	20401.6875
1421.71177	19766.3875
1425.15083	19174.7875
1428.58758	19103.1875
1432.02203	19419.7875
1435.45416	19686.5875
1438.88399	19650.9875
1442.31151	19569.5875
1445.73673	19727.3875
1449.15965	19878.0875
1452.58027	19782.8875
1455.9986	19536.3875
1459.41463	19566.5875
1462.82837	20018.4875
1466.23982	20790.2875
1469.64898	21494.6875
1473.05586	21868.8875
1476.46045	22100.6875
1479.86276	22571.7875
1483.26279	23260.6875
1486.66054	24432.0875
1490.05602	26088.2875
1493.44922	28488.0875
1496.84016	32086.1875
1500.22882	37748.9875
1503.61521	45251.9875
1506.99934	53363.7875
1510.38121	59123.9875
1513.76081	59373.0875
1517.13816	52972.3875
1520.51324	43469.7875
1523.88607	35540.7875
1527.25665	30724.2875
1530.62498	28182.5875
1533.99105	26677.5875
1537.35488	25592.9875
1540.71647	24876.2875
1544.07581	24315.5875
1547.4329	23932.9875
1550.78776	23733.2875
1554.14038	23624.1875
1557.49077	23865.9875
1560.83892	24524.9875
1564.18484	25828.9875
1567.52853	27329.7875
1570.86999	28372.8875
1574.20922	28815.2875
1577.54624	28216.9875
1580.88103	25798.8875
1584.2136	22894.5875
1587.54395	21340.1875
1590.87208	21542.5875
1594.19801	23367.1875
1597.52172	25941.9875
1600.84321	27170.8875
1604.16251	26145.6875
1607.47959	23941.3875
1610.79447	21438.2875
1614.10715	19070.6875
1617.41763	17257.9875
1620.7259	16196.3875
1624.03199	15711.4875
1627.33587	15866.6875
1630.63757	16465.3875
1633.93707	17787.7875
1637.23439	20045.7875
1640.52951	23671.9875
1643.82246	28967.3875
1647.11321	35085.6875
1650.40179	38771.9875
1653.68819	36557.1875
1656.97241	29772.5875
1660.25446	22842.3875
1663.53433	18099.6875
1666.81203	15348.2875
1670.08756	13852.7875
1673.36092	12965.0875
1676.63211	12413.8875
1679.90115	12045.5875
1683.16801	11766.2875
1686.43272	11587.5875
1689.69527	11431.1875
1692.95567	11339.3875
1696.2139	11277.6875
1699.46999	11210.7875
1702.72392	11178.7875
1705.97571	11180.7875
1709.22535	11169.8875
1712.47284	11180.2875
1715.71819	11173.3875
1718.96139	11156.3875
1722.20246	11127.0875
1725.44139	11019.6875
1728.67818	10872.1875
1731.91284	10759.2875
1735.14537	10640.5875
1738.37576	10574.4875
1741.60403	10475.5875
1744.83017	10445.8875
1748.05418	10414.8875
1751.27607	10379.2875
1754.49584	10342.6875
1757.71349	10296.2875
1760.92903	10285.0875
1764.14244	10246.7875
1767.35375	10201.8875
1770.56294	10190.1875
1773.77002	10099.5875
1776.97499	10070.7875
1780.17785	10059.8875
1783.37861	10011.4875
1786.57727	9963.8875
1789.77382	9963.2875
1792.96828	9955.8875
1796.16064	9931.6875
1799.3509	9911.7875
1802.53907	9876.5875
1805.72514	9819.0875
1808.90913	9810.6875
1812.09102	9785.1875
1815.27083	9729.4875
1818.44856	9712.6875
1821.6242	9668.5875
1824.79776	9657.4875
1827.96924	9614.8875
1831.13864	9631.0875
1834.30597	9617.0875
1837.47122	9582.1875
1840.6344	9573.0875
1843.7955	9568.3875
1846.95454	9537.3875
1850.11151	9548.2875
1853.26642	9513.0875
1856.41926	9538.0875
1859.57004	9563.0875
1862.71876	9543.3875
1865.86542	9562.9875
1869.01003	9569.0875
1872.15258	9546.0875
1875.29308	9565.6875
1878.43152	9566.3875
1881.56792	9569.4875
1884.70227	9558.1875
1887.83457	9543.6875
1890.96482	9543.7875
1894.09304	9530.4875
1897.21921	9549.5875
1900.34335	9524.8875
1903.46544	9544.9875
1906.58551	9550.7875
1909.70353	9552.3875
1912.81953	9529.1875
1915.93349	9511.3875
1919.04543	9496.5875
1922.15534	9488.7875
1925.26322	9439.4875
1928.36908	9391.0875
1931.47292	9363.2875
1934.57473	9314.0875
1937.67453	9278.1875
1940.77232	9234.3875
1943.86808	9210.3875
1946.96184	9185.3875
1950.05358	9157.6875
1953.14331	9126.5875
1956.23103	9126.8875
1959.31675	9107.4875
1962.40046	9095.0875
1965.48217	9086.6875
1968.56188	9064.0875
1971.63959	9092.3875
1974.7153	9065.5875
1977.78901	9021.1875
1980.86073	8966.1875
1983.93046	8947.5875
1986.99819	8891.4875
1990.06394	8839.3875
1993.1277	8789.8875
1996.18947	8763.1875
1999.24925	8728.8875
2002.30706	8672.1875
2005.36288	8661.7875
2008.41672	8618.4875
2011.46859	8600.8875
2014.51848	8563.2875
2017.56639	8541.9875
2020.61233	8508.5875
2023.6563	8501.4875
2026.6983	8461.9875
2029.73833	8446.4875
2032.7764	8448.9875
2035.8125	8399.6875
2038.84664	8402.9875
2041.87881	8402.8875
2044.90903	8387.1875
2047.93729	8348.3875
2050.96359	8341.8875
2053.98794	8313.0875
2057.01034	8282.2875
2060.03078	8286.4875
2063.04927	8255.0875
2066.06582	8242.6875
2069.08042	8228.1875
2072.09307	8209.8875
2075.10378	8203.5875
2078.11255	8215.3875
2081.11938	8218.9875
2084.12426	8212.5875
2087.12722	8215.7875
2090.12824	8221.5875
2093.12732	8226.6875
2096.12447	8225.7875
2099.11969	8215.4875
2102.11299	8256.5875
2105.10435	8220.3875
2108.09379	8239.5875
2111.08131	8248.6875
2114.0669	8258.4875
2117.05057	8248.6875
2120.03233	8267.8875
2123.01216	8283.7875
2125.99008	8305.7875
2128.96609	8311.8875
2131.94018	8282.3875
2134.91236	8304.9875
2137.88263	8292.7875
2140.851	8274.5875
2143.81746	8257.8875
2146.78201	8245.2875
2149.74466	8282.5875
2152.7054	8227.0875
2155.66425	8232.4875
2158.6212	8214.9875
2161.57625	8196.5875
2164.52941	8189.5875
2167.48067	8177.2875
2170.43004	8185.0875
2173.37752	8205.2875
2176.32311	8159.9875
2179.26681	8181.9875
2182.20863	8179.9875
2185.14856	8178.0875
2188.08661	8160.3875
2191.02278	8160.5875
2193.95707	8159.2875
2196.88948	8139.4875
2199.82001	8123.5875
2202.74867	8118.4875
2205.67545	8117.5875
2208.60037	8107.0875
2211.52341	8090.3875
2214.44458	8084.0875
2217.36388	8068.7875
2220.28132	8056.7875
2223.1969	8045.1875
2226.11061	8026.3875
2229.02246	8013.3875
2231.93245	7985.1875
2234.84058	7956.0875
2237.74686	7956.5875
2240.65128	7976.3875
2243.55385	7939.6875
2246.45456	7925.2875
2249.35343	7931.6875
2252.25044	7959.1875
2255.14561	7954.7875
2258.03893	7961.8875
2260.93041	7983.1875
2263.82004	7968.4875
2266.70783	7940.9875
2269.59378	7924.2875
2272.4779	7907.5875
2275.36017	7890.2875
2278.24061	7863.8875
2281.11922	7841.4875
2283.996	7817.3875
2286.87094	7806.0875
2289.74405	7780.0875
2292.61534	7764.6875
2295.4848	7748.4875
2298.35243	7723.4875
2301.21824	7725.0875
2304.08223	7707.1875
2306.94439	7702.7875
2309.80474	7723.2875
2312.66327	7729.5875
2315.51999	7717.2875
2318.37489	7723.6875
2321.22797	7720.9875
2324.07925	7693.7875
2326.92871	7703.7875
2329.77637	7694.3875
2332.62222	7678.5875
2335.46626	7664.6875
2338.3085	7653.9875
2341.14893	7674.0875
2343.98756	7726.8875
2346.8244	7712.2875
2349.65943	7763.7875
2352.49267	7753.0875
2355.32411	7782.6875
2358.15376	7780.6875
2360.98161	7811.1875
2363.80768	7802.3875
2366.63195	7833.7875
2369.45444	7824.7875
2372.27514	7822.4875
2375.09405	7823.7875
2377.91118	7795.3875
2380.72652	7761.6875
2383.54009	7695.0875
2386.35187	7666.5875
2389.16188	7635.4875
2391.97011	7596.8875
2394.77657	7568.0875
2397.58125	7544.8875
2400.38416	7528.6875
2403.18529	7488.6875
2405.98466	7459.9875
2408.78226	7469.5875
2411.57809	7419.1875
2414.37216	7420.9875
2417.16446	7412.0875
2419.955	7394.5875
2422.74378	7418.6875
2425.5308	7381.3875
2428.31606	7397.1875
2431.09956	7389.8875
2433.88131	7384.0875
2436.6613	7411.5875
2439.43954	7408.4875
2442.21603	7427.3875
2444.99077	7424.4875
2447.76377	7437.0875
2450.53501	7431.9875
2453.30451	7439.1875
2456.07226	7442.4875
2458.83827	7436.6875
2461.60254	7439.1875
2464.36507	7442.1875
2467.12586	7421.9875
2469.88492	7446.0875
2472.64224	7442.2875
2475.39782	7449.8875
2478.15167	7472.1875
2480.90379	7512.6875
2483.65417	7528.5875
2486.40283	7558.9875
2489.14976	7590.3875
2491.89497	7598.7875
2494.63845	7607.9875
2497.3802	7589.7875
2500.12024	7588.3875
2502.85855	7583.5875
2505.59514	7537.2875
2508.33002	7484.6875
2511.06318	7455.2875
2513.79462	7398.4875
2516.52435	7365.7875
2519.25237	7334.9875
2521.97867	7293.8875
2524.70327	7288.0875
2527.42616	7274.0875
2530.14734	7287.6875
2532.86681	7262.8875
2535.58458	7273.7875
2538.30065	7248.0875
2541.01501	7254.0875
2543.72768	7273.3875
2546.43864	7260.0875
2549.14791	7263.1875
2551.85548	7243.4875
2554.56136	7244.8875
2557.26554	7247.8875
2559.96803	7233.9875
2562.66883	7235.5875
2565.36794	7215.4875
2568.06536	7241.8875
2570.7611	7211.7875
2573.45514	7183.5875
2576.14751	7196.8875
2578.83819	7160.7875
2581.52719	7189.3875
2584.21451	7166.0875
2586.90015	7144.7875
2589.58411	7119.8875
2592.2664	7114.1875
2594.94701	7099.9875
2597.62594	7107.2875
2600.30321	7074.5875
2602.9788	7098.3875
2605.65273	7081.3875
2608.32498	7103.2875
2610.99557	7091.3875
2613.66449	7116.2875
2616.33175	7116.0875
2618.99734	7115.7875
2621.66128	7126.6875
2624.32355	7116.0875
2626.98416	7096.1875
2629.64311	7102.8875
2632.30041	7071.4875
2634.95605	7086.4875
2637.61004	7060.7875
2640.26238	7045.2875
2642.91306	7012.9875
2645.56209	7041.0875
2648.20948	7014.8875
2650.85521	7008.4875
2653.4993	6999.5875
2656.14175	7032.2875
2658.78255	7035.2875
2661.42171	7032.7875
2664.05923	7074.6875
2666.6951	7085.4875
2669.32934	7081.4875
2671.96194	7069.1875
2674.59291	7089.9875
2677.22224	7089.3875
2679.84993	7099.8875
2682.476	7079.6875
2685.10043	7082.5875
2687.72324	7069.3875
2690.34441	7093.6875
2692.96396	7084.3875
2695.58188	7063.8875
2698.19818	7062.1875
2700.81285	7092.4875
2703.4259	7065.5875
2706.03733	7062.8875
2708.64714	7052.3875
2711.25533	7066.4875
2713.86191	7078.1875
2716.46687	7084.1875
2719.07021	7080.0875
2721.67194	7103.1875
2724.27206	7084.5875
2726.87057	7083.6875
2729.46747	7079.6875
2732.06276	7083.3875
2734.65644	7054.0875
2737.24852	7059.0875
2739.83899	7023.1875
2742.42786	7042.2875
2745.01513	7005.1875
2747.60079	6989.8875
2750.18486	7001.4875
2752.76733	6998.3875
2755.3482	6983.6875
2757.92747	6977.0875
2760.50515	6958.2875
2763.08123	6979.8875
2765.65573	6954.8875
2768.22863	6965.5875
2770.79994	6943.1875
2773.36967	6962.1875
2775.9378	6963.7875
2778.50435	6945.1875
2781.06932	6955.1875
2783.6327	6968.8875
2786.1945	6957.4875
2788.75471	6966.5875
2791.31335	6936.6875
2793.87041	6961.8875
2796.42589	6937.7875
2798.97979	6972.3875
2801.53212	6961.8875
2804.08288	6974.5875
2806.63206	6982.3875
2809.17967	6992.9875
2811.72571	6997.1875
2814.27018	7020.6875
2816.81308	7012.3875
2819.35442	7023.8875
2821.89419	7025.2875
2824.43239	7057.1875
2826.96904	7055.8875
2829.50412	7062.2875
2832.03763	7059.0875
2834.56959	7058.9875
2837.1	7056.9875
2839.62884	7036.4875
2842.15613	7044.8875
2844.68186	7079.0875
2847.20604	7084.3875
2849.72867	7102.1875
2852.24974	7108.2875
2854.76927	7106.3875
2857.28724	7129.2875
2859.80367	7126.5875
2862.31855	7146.6875
2864.83189	7164.5875
2867.34368	7177.7875
2869.85393	7187.8875
2872.36264	7194.1875
2874.8698	7203.5875
2877.37543	7184.2875
2879.87952	7170.6875
2882.38207	7164.7875
2884.88308	7152.6875
2887.38256	7143.3875
2889.88051	7133.7875
2892.37692	7114.4875
2894.8718	7118.3875
2897.36515	7111.4875
2899.85698	7097.5875
2902.34727	7107.6875
2904.83604	7109.2875
2907.32328	7118.9875
2909.809	7086.8875
2912.29319	7083.2875
2914.77587	7057.0875
2917.25702	7039.6875
2919.73665	7014.1875
2922.21476	7020.9875
2924.69136	6989.3875
2927.16644	7001.4875
2929.64	6971.5875
2932.11205	6936.7875
2934.58258	6916.5875
2937.05161	6894.1875
2939.51912	6925.9875
2941.98513	6896.5875
2944.44962	6873.0875
2946.91261	6809.6875
2949.37409	6830.0875
2951.83407	6817.5875
2954.29254	6808.3875
2956.74951	6787.6875
2959.20498	6778.3875
2961.65895	6752.4875
2964.11142	6752.9875
2966.56239	6721.2875
2969.01186	6709.4875
2971.45984	6685.6875
2973.90632	6673.9875
2976.35131	6642.4875
2978.7948	6615.4875
2981.23681	6586.5875
2983.67732	6583.2875
2986.11635	6547.8875
2988.55388	6566.6875
2990.98993	6540.2875
2993.4245	6516.6875
2995.85758	6532.0875
2998.28917	6507.0875
3000.71928	6494.6875
3003.14791	6527.4875
3005.57506	6500.6875
3008.00073	6498.8875
3010.42493	6479.0875
3012.84764	6475.8875
3015.26888	6490.5875
3017.68865	6458.1875
3020.10694	6450.3875
3022.52376	6428.5875
3024.9391	6426.4875
3027.35298	6400.6875
3029.76539	6390.1875
3032.17632	6351.6875
3034.5858	6335.3875
3036.9938	6322.1875
3039.40034	6296.3875
3041.80542	6281.2875
3044.20903	6254.5875
3046.61118	6254.5875
3049.01187	6241.2875
3051.4111	6235.8875
3053.80888	6213.5875
3056.20519	6190.7875
3058.60005	6185.3875
3060.99345	6159.2875
3063.3854	6146.9875
3065.7759	6126.5875
3068.16494	6111.4875
3070.55254	6103.2875
3072.93868	6084.2875
3075.32338	6061.0875
3077.70662	6031.5875
3080.08842	6019.1875
3082.46878	6013.4875
3084.84769	6003.8875
3087.22515	5983.7875
3089.60118	5987.1875
3091.97576	5975.6875
3094.3489	5961.2875
3096.72061	5961.5875
3099.09087	5963.3875
3101.4597	5954.8875
3103.82709	5941.9875
3106.19305	5911.2875
3108.55757	5908.9875
3110.92066	5881.1875
3113.28232	5887.3875
3115.64255	5880.3875
3118.00134	5876.9875
3120.35871	5871.9875
3122.71466	5853.9875
3125.06917	5860.5875
3127.42226	5841.8875
3129.77393	5860.3875
3132.12417	5842.7875
3134.47299	5870.2875
3136.82039	5866.5875
3139.16636	5881.0875
3141.51092	5871.2875
3143.85406	5889.3875
3146.19579	5866.5875
3148.53609	5870.2875
3150.87499	5885.8875
3153.21246	5897.6875
3155.54853	5894.7875
3157.88318	5881.5875
3160.21642	5870.5875
3162.54826	5872.6875
3164.87868	5852.9875
3167.2077	5869.0875
3169.5353	5858.8875
3171.86151	5866.7875
3174.18631	5859.5875
3176.5097	5848.7875
3178.83169	5839.9875
3181.15228	5853.6875
3183.47147	5834.3875
3185.78926	5865.4875
3188.10565	5838.6875
3190.42065	5870.5875
3192.73424	5861.0875
3195.04645	5877.8875
3197.35725	5883.3875
3199.66667	5882.5875
3201.97469	5878.9875
3204.28132	5901.4875
3206.58656	5900.9875
3208.8904	5908.6875
3211.19287	5896.0875
3213.49394	5902.5875
3215.79363	5893.2875
3218.09193	5911.2875
3220.38884	5891.7875
3222.68438	5895.1875
3224.97853	5905.4875
3227.2713	5898.4875
3229.56269	5885.6875
3231.8527	5874.5875
3234.14133	5861.4875
3236.42858	5863.9875
3238.71446	5870.4875
3240.99896	5855.9875
3243.28209	5854.7875
3245.56384	5849.3875
3247.84423	5851.2875
3250.12324	5846.5875
3252.40088	5824.8875
3254.67715	5827.0875
3256.95205	5827.2875
3259.22558	5817.0875
3261.49775	5787.6875
3263.76855	5785.2875
3266.03799	5777.8875
3268.30606	5768.8875
3270.57277	5756.9875
3272.83812	5744.5875
3275.10211	5743.0875
3277.36474	5741.3875
3279.62601	5721.0875
3281.88593	5739.1875
3284.14448	5755.7875
3286.40168	5749.8875
3288.65753	5734.5875
3290.91202	5741.1875
3293.16516	5707.2875
3295.41695	5703.5875
3297.66738	5670.0875
3299.91647	5628.3875
3302.16421	5602.8875
3304.4106	5597.8875
3306.65564	5554.0875
3308.89933	5514.7875
3311.14169	5473.0875
3313.38269	5419.9875
3315.62236	5400.4875
3317.86068	5341.1875
3320.09766	5272.5875
3322.3333	5213.9875
3324.5676	5200.8875
3326.80056	5111.0875
3329.03219	5092.0875
3331.26248	2.9875
3333.49143	-2.0125
3335.71905	-0.2125
