Data from AgNP_FTO_APTES_UA_100uM_CRN_0uM_R6G_10uM_NaF_0.1M_Addition_RamanShift__43__11-35-20-138.txt Node

Date: Thu Mar 24 11:35:20 GMT 2022
User: TCL
Spectrometer: QEP01345
Trigger mode: 4
Integration Time (sec): 7.000000E0
Scans to average: 10
Electric dark correction enabled: true
Nonlinearity correction enabled: false
Boxcar width: 0
XAxis mode: Raman Shifts
Number of Pixels in Spectrum: 1044
>>>>>Begin Spectral Data<<<<<
46.04893	-1.675
50.45542	0.425
54.85868	0.725
59.25871	-0.575
63.6555	37.625
68.04907	41.525
72.43941	41.425
76.82654	45.325
81.21044	46.025
85.59113	46.225
89.96862	50.825
94.34289	51.025
98.71396	53.025
103.08183	54.225
107.4465	56.125
111.80798	58.625
116.16626	59.125
120.52136	59.725
124.87327	62.025
129.222	65.625
133.56755	71.225
137.90993	70.225
142.24913	84.125
146.58517	90.625
150.91804	107.025
155.24774	128.925
159.57429	162.125
163.89768	207.525
168.21792	279.125
172.53501	377.125
176.84895	535.825
181.15975	750.025
185.46741	1054.325
189.77193	1451.825
194.07331	1968.625
198.37157	2557.125
202.6667	3205.725
206.9587	3860.425
211.24758	4538.825
215.53334	5283.625
219.81599	6154.625
224.09553	7195.425
228.37195	8317.525
232.64527	9510.925
236.91549	10618.125
241.18261	11571.325
245.44663	12242.025
249.70755	12752.325
253.96539	13106.725
258.22014	13372.625
262.4718	13480.725
266.72039	13393.625
270.96589	13118.825
275.20832	12706.125
279.44768	12245.725
283.68397	11883.725
287.91719	11733.025
292.14735	11903.925
296.37445	12532.425
300.59849	13596.625
304.81948	14968.325
309.03742	16165.425
313.25231	16528.625
317.46415	15604.825
321.67296	13693.525
325.87872	11967.625
330.08145	11132.425
334.28114	11038.725
338.47781	11356.825
342.67145	11914.325
346.86207	12775.425
351.04966	14197.625
355.23424	15837.625
359.4158	17028.025
363.59435	17385.425
367.76989	17154.625
371.94243	16709.425
376.11196	16170.725
380.27849	15635.025
384.44203	15063.625
388.60257	14518.525
392.76012	14213.625
396.91468	14289.225
401.06626	14787.625
405.21485	15147.925
409.36047	14616.725
413.50311	13173.325
417.64277	11752.425
421.77947	10897.825
425.9132	10488.425
430.04396	10376.925
434.17176	10404.925
438.2966	10642.825
442.41849	11091.325
446.53742	11611.825
450.6534	12071.825
454.76644	12202.025
458.87653	11951.225
462.98368	11581.425
467.08789	11171.225
471.18916	10751.425
475.2875	10215.025
479.38291	9756.825
483.4754	9451.825
487.56496	9304.125
491.6516	9206.225
495.73531	9187.925
499.81612	9273.725
503.89401	9482.025
507.96899	9787.925
512.04106	10161.525
516.11023	10550.325
520.1765	10800.725
524.23987	10830.225
528.30034	10629.125
532.35792	10350.925
536.41261	9948.225
540.46441	9439.425
544.51333	9091.925
548.55936	9116.525
552.60252	9518.525
556.64279	10065.925
560.6802	10366.625
564.71473	10928.025
568.7464	12127.125
572.7752	12716.525
576.80114	11665.925
580.82422	10414.425
584.84444	9946.325
588.86181	9815.625
592.87633	9853.525
596.888	10021.025
600.89682	10671.025
604.9028	13566.425
608.90594	21523.825
612.90624	32022.125
616.90371	30968.925
620.89834	17692.025
624.89015	10948.325
628.87913	9752.325
632.86528	10145.225
636.84862	10653.225
640.82913	10150.225
644.80683	9007.125
648.78172	8182.525
652.75379	8271.825
656.72306	9225.025
660.68952	10352.725
664.65319	10062.325
668.61405	8808.925
672.57211	8168.525
676.52738	8066.825
680.47986	8002.725
684.42955	7752.625
688.37646	7588.725
692.32058	7676.125
696.26192	7866.725
700.20048	8176.225
704.13626	8393.925
708.06928	8378.825
711.99952	8236.425
715.927	8173.825
719.85171	8284.925
723.77365	8357.525
727.69284	8200.825
731.60928	8002.825
735.52295	7969.225
739.43388	8021.325
743.34206	8137.225
747.24749	8153.525
751.15017	8228.325
755.05012	8599.525
758.94733	9850.925
762.8418	12905.725
766.73354	17634.025
770.62254	21736.525
774.50882	23717.825
778.39237	22791.825
782.27321	18315.925
786.15132	13207.825
790.02671	10182.625
793.89938	8847.525
797.76935	8304.125
801.6366	8067.325
805.50115	7935.325
809.36299	7840.825
813.22213	7752.325
817.07857	7689.625
820.93231	7700.825
824.78336	7803.325
828.63172	7967.325
832.47738	8021.225
836.32036	7919.725
840.16066	7738.025
843.99827	7608.025
847.8332	7511.525
851.66546	7523.225
855.49504	7530.125
859.32195	7495.325
863.1462	7407.025
866.96777	7337.725
870.78668	7335.625
874.60293	7387.825
878.41652	7473.525
882.22745	7604.725
886.03573	7728.125
889.84136	7703.725
893.64433	7661.125
897.44466	7693.225
901.24235	7712.525
905.0374	7609.525
908.8298	7435.025
912.61957	7294.625
916.40671	7285.425
920.19121	7398.825
923.97308	7654.825
927.75233	8001.525
931.52895	8378.125
935.30295	8153.425
939.07433	7455.825
942.84309	6919.125
946.60924	6644.625
950.37278	6547.625
954.13371	6493.425
957.89203	6447.425
961.64774	6453.925
965.40086	6418.225
969.15137	6399.625
972.89929	6365.125
976.64461	6349.225
980.38733	6351.025
984.12747	6367.825
987.86502	6388.125
991.59999	6476.825
995.33237	6582.725
999.06217	6810.425
1002.78939	7134.625
1006.51404	7481.325
1010.23611	7793.225
1013.95561	7906.025
1017.67255	7823.725
1021.38692	7581.025
1025.09872	7307.325
1028.80796	7152.225
1032.51465	7186.325
1036.21877	7335.525
1039.92035	7506.225
1043.61937	7641.625
1047.31584	7707.125
1051.00976	7668.825
1054.70114	7593.525
1058.38998	7531.225
1062.07627	7540.225
1065.76003	7599.425
1069.44126	7755.625
1073.11995	8049.125
1076.79611	8442.625
1080.46974	8997.625
1084.14085	9744.925
1087.80943	10353.525
1091.47549	10443.725
1095.13903	9952.425
1098.80005	9103.125
1102.45857	8523.325
1106.11456	8320.325
1109.76805	8549.225
1113.41903	9137.925
1117.06751	10182.525
1120.71348	11675.625
1124.35696	13449.125
1127.99793	14410.425
1131.63641	13403.325
1135.2724	11532.725
1138.90589	10150.925
1142.5369	9362.325
1146.16542	8866.125
1149.79145	8577.725
1153.415	8491.425
1157.03607	8627.825
1160.65467	8969.525
1164.27079	9706.625
1167.88443	10866.825
1171.49561	12767.825
1175.10432	15948.025
1178.71056	20027.425
1182.31434	22864.925
1185.91565	23161.325
1189.51451	21813.825
1193.11091	19715.125
1196.70485	17466.725
1200.29634	15721.825
1203.88538	14205.925
1207.47197	12362.425
1211.05612	10795.325
1214.63782	9939.025
1218.21708	9619.825
1221.79391	9531.525
1225.36829	9493.825
1228.94024	9384.825
1232.50976	9276.425
1236.07685	9291.325
1239.6415	9379.025
1243.20374	9528.825
1246.76355	9651.825
1250.32093	9815.925
1253.8759	10177.225
1257.42845	10801.125
1260.97859	11630.325
1264.52631	12546.125
1268.07163	13339.225
1271.61453	13908.125
1275.15503	14164.325
1278.69312	14210.825
1282.22882	14521.525
1285.76211	15351.325
1289.29301	16324.125
1292.82151	17227.125
1296.34761	18302.825
1299.87133	20160.625
1303.39266	23551.625
1306.9116	28842.625
1310.42815	34297.025
1313.94233	36102.025
1317.45412	32861.525
1320.96354	27688.525
1324.47058	22870.525
1327.97525	19388.425
1331.47754	17484.925
1334.97747	16927.825
1338.47502	17404.425
1341.97022	18795.525
1345.46305	21136.425
1348.95352	24273.725
1352.44163	28160.125
1355.92738	34098.925
1359.41078	42814.325
1362.89183	48881.225
1366.37053	44372.825
1369.84688	34015.625
1373.32088	25744.425
1376.79254	20745.825
1380.26186	17864.625
1383.72883	15904.925
1387.19347	14369.525
1390.65578	13082.425
1394.11575	12175.525
1397.57339	11747.325
1401.0287	11608.325
1404.48168	11624.925
1407.93234	11668.525
1411.38068	11864.825
1414.82669	12026.125
1418.27039	11988.625
1421.71177	11707.025
1425.15083	11431.525
1428.58758	11509.825
1432.02203	11832.625
1435.45416	11989.125
1438.88399	11902.825
1442.31151	11802.325
1445.73673	11882.425
1449.15965	11936.625
1452.58027	11858.325
1455.9986	11627.025
1459.41463	11626.625
1462.82837	11972.625
1466.23982	12524.525
1469.64898	13068.625
1473.05586	13289.725
1476.46045	13451.925
1479.86276	13834.925
1483.26279	14473.625
1486.66054	15429.125
1490.05602	16857.625
1493.44922	18966.925
1496.84016	22280.625
1500.22882	27419.725
1503.61521	34435.125
1506.99934	42069.725
1510.38121	47959.325
1513.76081	48483.825
1517.13816	42498.225
1520.51324	33382.925
1523.88607	25616.925
1527.25665	20897.625
1530.62498	18409.525
1533.99105	16955.725
1537.35488	15933.625
1540.71647	15347.725
1544.07581	15083.825
1547.4329	15019.225
1550.78776	15063.125
1554.14038	15140.625
1557.49077	15412.225
1560.83892	16014.425
1564.18484	17170.525
1567.52853	18670.125
1570.86999	19765.925
1574.20922	20226.025
1577.54624	19699.125
1580.88103	17506.825
1584.2136	14697.425
1587.54395	13089.625
1590.87208	12950.925
1594.19801	14145.825
1597.52172	15963.225
1600.84321	16834.825
1604.16251	16114.225
1607.47959	14540.225
1610.79447	12789.725
1614.10715	11147.125
1617.41763	9932.925
1620.7259	9248.225
1624.03199	9014.225
1627.33587	9110.025
1630.63757	9568.925
1633.93707	10510.225
1637.23439	12186.625
1640.52951	15147.025
1643.82246	19736.725
1647.11321	25266.125
1650.40179	28726.625
1653.68819	27047.225
1656.97241	21270.525
1660.25446	15339.525
1663.53433	11398.825
1666.81203	9208.225
1670.08756	8027.625
1673.36092	7322.325
1676.63211	6903.125
1679.90115	6649.125
1683.16801	6460.025
1686.43272	6311.825
1689.69527	6204.625
1692.95567	6126.525
1696.2139	6085.925
1699.46999	6076.225
1702.72392	6023.525
1705.97571	6035.225
1709.22535	6020.425
1712.47284	6044.725
1715.71819	6046.125
1718.96139	6040.825
1722.20246	6017.025
1725.44139	5932.025
1728.67818	5806.425
1731.91284	5708.325
1735.14537	5611.425
1738.37576	5550.425
1741.60403	5531.325
1744.83017	5474.025
1748.05418	5448.925
1751.27607	5414.325
1754.49584	5387.925
1757.71349	5353.225
1760.92903	5321.125
1764.14244	5300.125
1767.35375	5263.325
1770.56294	5219.625
1773.77002	5168.625
1776.97499	5119.725
1780.17785	5087.225
1783.37861	5062.025
1786.57727	5026.725
1789.77382	4982.825
1792.96828	5008.325
1796.16064	4993.325
1799.3509	4965.225
1802.53907	4968.425
1805.72514	4920.825
1808.90913	4910.625
1812.09102	4904.125
1815.27083	4870.025
1818.44856	4847.625
1821.6242	4826.325
1824.79776	4810.925
1827.96924	4781.125
1831.13864	4785.225
1834.30597	4777.025
1837.47122	4756.525
1840.6344	4734.125
1843.7955	4735.825
1846.95454	4704.025
1850.11151	4717.225
1853.26642	4722.025
1856.41926	4723.625
1859.57004	4732.325
1862.71876	4733.725
1865.86542	4713.625
1869.01003	4717.125
1872.15258	4719.525
1875.29308	4728.725
1878.43152	4730.625
1881.56792	4730.325
1884.70227	4721.225
1887.83457	4733.725
1890.96482	4717.525
1894.09304	4721.425
1897.21921	4711.525
1900.34335	4723.525
1903.46544	4698.225
1906.58551	4722.925
1909.70353	4720.025
1912.81953	4707.325
1915.93349	4695.225
1919.04543	4693.025
1922.15534	4675.225
1925.26322	4643.725
1928.36908	4626.725
1931.47292	4584.625
1934.57473	4554.125
1937.67453	4538.325
1940.77232	4493.725
1943.86808	4483.625
1946.96184	4462.225
1950.05358	4452.625
1953.14331	4439.825
1956.23103	4419.925
1959.31675	4423.325
1962.40046	4409.125
1965.48217	4422.825
1968.56188	4420.325
1971.63959	4445.525
1974.7153	4437.125
1977.78901	4405.225
1980.86073	4387.825
1983.93046	4330.025
1986.99819	4298.325
1990.06394	4271.125
1993.1277	4238.525
1996.18947	4228.725
1999.24925	4193.625
2002.30706	4164.825
2005.36288	4151.425
2008.41672	4132.625
2011.46859	4110.925
2014.51848	4093.225
2017.56639	4086.325
2020.61233	4060.725
2023.6563	4051.325
2026.6983	4024.225
2029.73833	4028.325
2032.7764	4019.025
2035.8125	4006.725
2038.84664	3997.725
2041.87881	4005.125
2044.90903	4005.125
2047.93729	3984.425
2050.96359	3965.325
2053.98794	3967.425
2057.01034	3946.725
2060.03078	3942.325
2063.04927	3926.025
2066.06582	3911.025
2069.08042	3920.225
2072.09307	3898.125
2075.10378	3908.825
2078.11255	3900.325
2081.11938	3899.825
2084.12426	3891.225
2087.12722	3893.325
2090.12824	3890.725
2093.12732	3879.025
2096.12447	3896.825
2099.11969	3892.625
2102.11299	3897.425
2105.10435	3902.225
2108.09379	3903.225
2111.08131	3905.625
2114.0669	3896.125
2117.05057	3920.625
2120.03233	3918.725
2123.01216	3938.825
2125.99008	3934.125
2128.96609	3941.925
2131.94018	3925.925
2134.91236	3929.825
2137.88263	3922.825
2140.851	3888.525
2143.81746	3882.925
2146.78201	3868.125
2149.74466	3843.725
2152.7054	3834.025
2155.66425	3817.325
2158.6212	3812.025
2161.57625	3810.125
2164.52941	3789.825
2167.48067	3764.125
2170.43004	3779.725
2173.37752	3765.825
2176.32311	3755.525
2179.26681	3774.325
2182.20863	3768.425
2185.14856	3775.925
2188.08661	3762.525
2191.02278	3760.025
2193.95707	3746.225
2196.88948	3728.725
2199.82001	3712.825
2202.74867	3711.925
2205.67545	3706.725
2208.60037	3692.425
2211.52341	3686.025
2214.44458	3679.725
2217.36388	3668.925
2220.28132	3658.025
2223.1969	3646.725
2226.11061	3624.325
2229.02246	3614.925
2231.93245	3606.525
2234.84058	3602.725
2237.74686	3596.325
2240.65128	3589.625
2243.55385	3600.025
2246.45456	3594.025
2249.35343	3603.025
2252.25044	3607.425
2255.14561	3626.925
2258.03893	3642.825
2260.93041	3658.925
2263.82004	3650.025
2266.70783	3654.625
2269.59378	3636.625
2272.4779	3621.025
2275.36017	3611.825
2278.24061	3593.725
2281.11922	3593.925
2283.996	3575.325
2286.87094	3567.725
2289.74405	3529.325
2292.61534	3530.525
2295.4848	3512.625
2298.35243	3490.925
2301.21824	3494.925
2304.08223	3485.425
2306.94439	3477.925
2309.80474	3481.125
2312.66327	3493.525
2315.51999	3479.125
2318.37489	3482.025
2321.22797	3465.225
2324.07925	3474.425
2326.92871	3466.425
2329.77637	3466.525
2332.62222	3446.125
2335.46626	3459.925
2338.3085	3468.425
2341.14893	3461.025
2343.98756	3471.325
2346.8244	3500.325
2349.65943	3498.325
2352.49267	3515.325
2355.32411	3540.025
2358.15376	3545.125
2360.98161	3575.325
2363.80768	3580.025
2366.63195	3588.125
2369.45444	3622.425
2372.27514	3631.725
2375.09405	3611.325
2377.91118	3596.325
2380.72652	3574.425
2383.54009	3533.125
2386.35187	3528.925
2389.16188	3482.525
2391.97011	3466.625
2394.77657	3447.425
2397.58125	3412.725
2400.38416	3390.325
2403.18529	3391.425
2405.98466	3364.725
2408.78226	3355.925
2411.57809	3337.525
2414.37216	3325.025
2417.16446	3336.425
2419.955	3331.025
2422.74378	3339.025
2425.5308	3334.525
2428.31606	3342.825
2431.09956	3348.225
2433.88131	3356.225
2436.6613	3354.825
2439.43954	3377.325
2442.21603	3380.125
2444.99077	3388.225
2447.76377	3405.425
2450.53501	3405.425
2453.30451	3413.125
2456.07226	3412.625
2458.83827	3408.025
2461.60254	3405.225
2464.36507	3403.325
2467.12586	3401.225
2469.88492	3416.425
2472.64224	3416.525
2475.39782	3429.125
2478.15167	3449.925
2480.90379	3476.025
2483.65417	3485.525
2486.40283	3522.325
2489.14976	3529.925
2491.89497	3543.025
2494.63845	3556.525
2497.3802	3539.825
2500.12024	3533.225
2502.85855	3505.525
2505.59514	3485.025
2508.33002	3438.225
2511.06318	3401.925
2513.79462	3357.625
2516.52435	3334.925
2519.25237	3286.625
2521.97867	3282.025
2524.70327	3275.425
2527.42616	3256.625
2530.14734	3251.325
2532.86681	3254.725
2535.58458	3237.625
2538.30065	3250.725
2541.01501	3260.425
2543.72768	3269.825
2546.43864	3280.125
2549.14791	3270.525
2551.85548	3285.625
2554.56136	3286.425
2557.26554	3276.325
2559.96803	3294.425
2562.66883	3283.725
2565.36794	3278.725
2568.06536	3272.425
2570.7611	3270.425
2573.45514	3259.925
2576.14751	3240.025
2578.83819	3239.725
2581.52719	3228.025
2584.21451	3209.125
2586.90015	3208.025
2589.58411	3197.925
2592.2664	3185.525
2594.94701	3195.125
2597.62594	3192.325
2600.30321	3202.525
2602.9788	3198.425
2605.65273	3187.225
2608.32498	3210.625
2610.99557	3195.425
2613.66449	3213.525
2616.33175	3214.125
2618.99734	3210.525
2621.66128	3203.525
2624.32355	3208.225
2626.98416	3185.525
2629.64311	3182.125
2632.30041	3170.025
2634.95605	3156.325
2637.61004	3156.625
2640.26238	3144.725
2642.91306	3134.825
2645.56209	3129.025
2648.20948	3133.825
2650.85521	3123.925
2653.4993	3141.425
2656.14175	3149.025
2658.78255	3154.725
2661.42171	3157.425
2664.05923	3171.125
2666.6951	3185.225
2669.32934	3196.725
2671.96194	3197.625
2674.59291	3206.925
2677.22224	3202.425
2679.84993	3207.425
2682.476	3202.825
2685.10043	3205.325
2687.72324	3192.125
2690.34441	3192.125
2692.96396	3189.125
2695.58188	3210.325
2698.19818	3187.425
2700.81285	3186.325
2703.4259	3197.925
2706.03733	3191.025
2708.64714	3185.925
2711.25533	3212.425
2713.86191	3219.725
2716.46687	3218.025
2719.07021	3208.525
2721.67194	3239.825
2724.27206	3229.125
2726.87057	3225.025
2729.46747	3225.225
2732.06276	3215.025
2734.65644	3185.725
2737.24852	3188.225
2739.83899	3179.025
2742.42786	3175.225
2745.01513	3151.325
2747.60079	3142.625
2750.18486	3118.325
2752.76733	3135.825
2755.3482	3134.125
2757.92747	3129.225
2760.50515	3111.425
2763.08123	3116.125
2765.65573	3107.725
2768.22863	3104.725
2770.79994	3117.225
2773.36967	3117.325
2775.9378	3118.725
2778.50435	3117.625
2781.06932	3121.925
2783.6327	3145.625
2786.1945	3138.625
2788.75471	3153.425
2791.31335	3149.425
2793.87041	3162.525
2796.42589	3164.325
2798.97979	3197.325
2801.53212	3192.325
2804.08288	3203.525
2806.63206	3225.025
2809.17967	3238.025
2811.72571	3254.925
2814.27018	3284.825
2816.81308	3301.525
2819.35442	3321.225
2821.89419	3329.525
2824.43239	3335.525
2826.96904	3358.325
2829.50412	3363.825
2832.03763	3370.425
2834.56959	3372.225
2837.1	3359.925
2839.62884	3366.725
2842.15613	3387.025
2844.68186	3422.825
2847.20604	3439.625
2849.72867	3482.525
2852.24974	3490.325
2854.76927	3512.325
2857.28724	3520.025
2859.80367	3528.525
2862.31855	3547.125
2864.83189	3562.625
2867.34368	3575.725
2869.85393	3577.325
2872.36264	3580.925
2874.8698	3587.625
2877.37543	3576.525
2879.87952	3581.925
2882.38207	3554.325
2884.88308	3535.825
2887.38256	3533.325
2889.88051	3511.325
2892.37692	3508.825
2894.8718	3507.825
2897.36515	3488.725
2899.85698	3488.825
2902.34727	3480.925
2904.83604	3478.125
2907.32328	3471.625
2909.809	3464.125
2912.29319	3441.425
2914.77587	3418.425
2917.25702	3410.525
2919.73665	3402.825
2922.21476	3388.625
2924.69136	3368.625
2927.16644	3364.225
2929.64	3346.625
2932.11205	3318.525
2934.58258	3301.025
2937.05161	3291.725
2939.51912	3278.225
2941.98513	3256.825
2944.44962	3241.325
2946.91261	3213.625
2949.37409	3216.425
2951.83407	3204.925
2954.29254	3187.825
2956.74951	3174.525
2959.20498	3160.225
2961.65895	3140.925
2964.11142	3137.525
2966.56239	3121.325
2969.01186	3115.225
2971.45984	3078.025
2973.90632	3063.525
2976.35131	3040.225
2978.7948	3037.025
2981.23681	3010.925
2983.67732	3003.825
2986.11635	3000.525
2988.55388	2996.325
2990.98993	3000.125
2993.4245	3002.625
2995.85758	3003.025
2998.28917	2995.125
3000.71928	2981.325
3003.14791	2990.125
3005.57506	2994.025
3008.00073	2984.525
3010.42493	3000.425
3012.84764	2993.625
3015.26888	2994.425
3017.68865	2985.925
3020.10694	2975.925
3022.52376	2965.825
3024.9391	2949.025
3027.35298	2935.325
3029.76539	2936.225
3032.17632	2914.925
3034.5858	2890.025
3036.9938	2890.025
3039.40034	2866.725
3041.80542	2855.625
3044.20903	2847.925
3046.61118	2840.625
3049.01187	2836.125
3051.4111	2815.425
3053.80888	2815.125
3056.20519	2807.525
3058.60005	2804.825
3060.99345	2799.225
3063.3854	2783.125
3065.7759	2772.725
3068.16494	2769.825
3070.55254	2759.225
3072.93868	2759.525
3075.32338	2744.625
3077.70662	2743.825
3080.08842	2716.625
3082.46878	2712.325
3084.84769	2698.625
3087.22515	2711.125
3089.60118	2694.325
3091.97576	2700.725
3094.3489	2692.525
3096.72061	2691.325
3099.09087	2685.625
3101.4597	2686.525
3103.82709	2680.025
3106.19305	2676.025
3108.55757	2667.125
3110.92066	2665.725
3113.28232	2649.925
3115.64255	2652.925
3118.00134	2649.825
3120.35871	2636.525
3122.71466	2654.325
3125.06917	2644.425
3127.42226	2659.025
3129.77393	2663.125
3132.12417	2669.425
3134.47299	2665.325
3136.82039	2668.425
3139.16636	2679.125
3141.51092	2698.225
3143.85406	2691.825
3146.19579	2694.925
3148.53609	2704.925
3150.87499	2700.325
3153.21246	2732.525
3155.54853	2733.725
3157.88318	2724.225
3160.21642	2726.125
3162.54826	2734.625
3164.87868	2729.525
3167.2077	2738.025
3169.5353	2735.525
3171.86151	2734.425
3174.18631	2738.925
3176.5097	2732.625
3178.83169	2732.025
3181.15228	2739.425
3183.47147	2743.425
3185.78926	2756.125
3188.10565	2746.325
3190.42065	2765.225
3192.73424	2773.225
3195.04645	2771.625
3197.35725	2782.525
3199.66667	2790.125
3201.97469	2802.025
3204.28132	2798.325
3206.58656	2807.825
3208.8904	2818.025
3211.19287	2824.025
3213.49394	2825.125
3215.79363	2834.225
3218.09193	2828.925
3220.38884	2836.525
3222.68438	2832.525
3224.97853	2839.125
3227.2713	2843.225
3229.56269	2834.325
3231.8527	2847.225
3234.14133	2832.325
3236.42858	2836.825
3238.71446	2825.025
3240.99896	2815.625
3243.28209	2826.925
3245.56384	2826.025
3247.84423	2834.225
3250.12324	2821.425
3252.40088	2823.525
3254.67715	2824.725
3256.95205	2814.025
3259.22558	2817.925
3261.49775	2804.825
3263.76855	2806.625
3266.03799	2794.725
3268.30606	2804.525
3270.57277	2798.025
3272.83812	2789.825
3275.10211	2794.125
3277.36474	2778.525
3279.62601	2781.625
3281.88593	2773.125
3284.14448	2790.725
3286.40168	2787.125
3288.65753	2789.225
3290.91202	2788.425
3293.16516	2779.625
3295.41695	2767.425
3297.66738	2754.225
3299.91647	2736.125
3302.16421	2720.925
3304.4106	2698.025
3306.65564	2693.525
3308.89933	2666.125
3311.14169	2643.325
3313.38269	2621.825
3315.62236	2591.225
3317.86068	2559.525
3320.09766	2537.025
3322.3333	2496.625
3324.5676	2505.925
3326.80056	2456.525
3329.03219	2450.425
3331.26248	0.625
3333.49143	-0.575
3335.71905	0.325
