Data from AgNP_FTO_APTES_UA_100uM_CRN_100uM_R6G_10uM_NaF_0.1M_Addition_RamanShift__32__18-24-50-591.txt Node

Date: Thu Mar 24 18:24:50 GMT 2022
User: TCL
Spectrometer: QEP01345
Trigger mode: 4
Integration Time (sec): 7.000000E0
Scans to average: 10
Electric dark correction enabled: true
Nonlinearity correction enabled: false
Boxcar width: 0
XAxis mode: Raman Shifts
Number of Pixels in Spectrum: 1044
>>>>>Begin Spectral Data<<<<<
46.04893	-0.225
50.45542	0.075
54.85868	-1.525
59.25871	-0.125
63.6555	33.775
68.04907	35.875
72.43941	38.175
76.82654	32.175
81.21044	45.075
85.59113	40.575
89.96862	40.975
94.34289	43.375
98.71396	46.575
103.08183	42.975
107.4465	47.775
111.80798	49.175
116.16626	47.775
120.52136	49.975
124.87327	49.275
129.222	54.175
133.56755	57.775
137.90993	57.975
142.24913	77.875
146.58517	84.575
150.91804	82.075
155.24774	92.275
159.57429	112.875
163.89768	140.475
168.21792	189.675
172.53501	256.675
176.84895	354.175
181.15975	495.175
185.46741	702.175
189.77193	958.575
194.07331	1290.675
198.37157	1668.275
202.6667	2053.375
206.9587	2462.675
211.24758	2880.475
215.53334	3294.275
219.81599	3773.475
224.09553	4299.675
228.37195	4900.775
232.64527	5560.275
236.91549	6181.375
241.18261	6763.175
245.44663	7251.675
249.70755	7611.675
253.96539	7928.775
258.22014	8191.075
262.4718	8425.975
266.72039	8596.975
270.96589	8703.175
275.20832	8644.275
279.44768	8509.375
283.68397	8383.575
287.91719	8286.175
292.14735	8293.575
296.37445	8439.275
300.59849	8721.275
304.81948	9033.575
309.03742	9307.075
313.25231	9312.475
317.46415	8997.775
321.67296	8471.375
325.87872	7970.075
330.08145	7669.675
334.28114	7618.775
338.47781	7728.875
342.67145	7888.075
346.86207	8133.875
351.04966	8510.275
355.23424	8890.175
359.4158	9221.875
363.59435	9358.975
367.76989	9381.375
371.94243	9346.375
376.11196	9297.375
380.27849	9236.275
384.44203	9166.575
388.60257	9113.175
392.76012	9074.275
396.91468	9149.375
401.06626	9355.775
405.21485	9493.375
409.36047	9309.275
413.50311	8870.775
417.64277	8429.275
421.77947	8198.875
425.9132	8108.075
430.04396	8105.775
434.17176	8136.675
438.2966	8224.675
442.41849	8420.975
446.53742	8662.175
450.6534	8907.475
454.76644	9045.575
458.87653	9047.875
462.98368	8945.275
467.08789	8837.075
471.18916	8679.275
475.2875	8525.875
479.38291	8359.975
483.4754	8219.475
487.56496	8102.075
491.6516	8014.775
495.73531	7962.175
499.81612	7957.975
503.89401	8031.475
507.96899	8086.675
512.04106	8154.475
516.11023	8187.875
520.1765	8242.975
524.23987	8211.875
528.30034	8149.075
532.35792	8052.575
536.41261	7927.475
540.46441	7768.975
544.51333	7712.875
548.55936	7749.975
552.60252	7977.875
556.64279	8192.575
560.6802	8334.275
564.71473	8456.275
568.7464	8714.175
572.7752	8981.275
576.80114	8977.175
580.82422	8926.275
584.84444	8966.375
588.86181	9126.075
592.87633	9305.675
596.888	9435.375
600.89682	9517.675
604.9028	10233.175
608.90594	12575.075
612.90624	15668.775
616.90371	14840.175
620.89834	10486.975
624.89015	8372.075
628.87913	8043.475
632.86528	8222.775
636.84862	8426.975
640.82913	8279.875
644.80683	7833.375
648.78172	7463.975
652.75379	7419.175
656.72306	7652.875
660.68952	8020.075
664.65319	7918.975
668.61405	7470.575
672.57211	7267.675
676.52738	7275.775
680.47986	7266.975
684.42955	7182.875
688.37646	7121.275
692.32058	7116.175
696.26192	7222.375
700.20048	7323.375
704.13626	7386.175
708.06928	7374.875
711.99952	7340.575
715.927	7317.175
719.85171	7372.575
723.77365	7422.275
727.69284	7373.375
731.60928	7315.575
735.52295	7287.675
739.43388	7309.775
743.34206	7328.975
747.24749	7334.275
751.15017	7370.575
755.05012	7483.375
758.94733	7892.575
762.8418	8855.475
766.73354	10573.475
770.62254	12206.675
774.50882	12812.675
778.39237	12076.975
782.27321	10403.275
786.15132	8806.175
790.02671	7825.475
793.89938	7399.275
797.76935	7176.675
801.6366	7110.775
805.50115	7037.875
809.36299	7003.475
813.22213	6974.875
817.07857	6934.975
820.93231	6902.475
824.78336	6898.075
828.63172	6900.375
832.47738	6871.575
836.32036	6834.675
840.16066	6831.475
843.99827	6809.875
847.8332	6800.775
851.66546	6772.475
855.49504	6775.175
859.32195	6779.275
863.1462	6775.275
866.96777	6735.175
870.78668	6725.375
874.60293	6761.675
878.41652	6789.075
882.22745	6828.975
886.03573	6901.475
889.84136	6904.475
893.64433	6854.975
897.44466	6821.875
901.24235	6789.375
905.0374	6739.375
908.8298	6687.075
912.61957	6664.675
916.40671	6664.575
920.19121	6768.875
923.97308	6856.075
927.75233	6909.375
931.52895	6948.475
935.30295	6833.175
939.07433	6610.675
942.84309	6435.375
946.60924	6330.475
950.37278	6267.275
954.13371	6270.275
957.89203	6225.775
961.64774	6221.775
965.40086	6201.175
969.15137	6198.775
972.89929	6161.575
976.64461	6132.675
980.38733	6143.175
984.12747	6150.175
987.86502	6159.975
991.59999	6218.775
995.33237	6283.575
999.06217	6453.175
1002.78939	6658.875
1006.51404	6857.975
1010.23611	7007.775
1013.95561	7112.775
1017.67255	7100.075
1021.38692	6971.075
1025.09872	6815.075
1028.80796	6713.875
1032.51465	6703.075
1036.21877	6782.675
1039.92035	6852.375
1043.61937	6861.375
1047.31584	6839.975
1051.00976	6851.475
1054.70114	6816.975
1058.38998	6826.975
1062.07627	6853.375
1065.76003	6900.275
1069.44126	6972.775
1073.11995	7102.475
1076.79611	7226.475
1080.46974	7401.175
1084.14085	7584.975
1087.80943	7801.975
1091.47549	7890.175
1095.13903	7776.475
1098.80005	7522.975
1102.45857	7282.275
1106.11456	7152.675
1109.76805	7203.075
1113.41903	7351.975
1117.06751	7660.175
1120.71348	8028.375
1124.35696	8448.675
1127.99793	8767.975
1131.63641	8731.375
1135.2724	8336.775
1138.90589	7966.875
1142.5369	7735.375
1146.16542	7545.575
1149.79145	7478.975
1153.415	7447.775
1157.03607	7552.575
1160.65467	7748.175
1164.27079	8133.275
1167.88443	8714.675
1171.49561	9583.875
1175.10432	10868.075
1178.71056	12603.875
1182.31434	14057.975
1185.91565	14482.775
1189.51451	14021.675
1193.11091	13077.475
1196.70485	12039.975
1200.29634	11155.575
1203.88538	10487.075
1207.47197	9791.875
1211.05612	9124.775
1214.63782	8739.775
1218.21708	8567.175
1221.79391	8514.475
1225.36829	8552.875
1228.94024	8466.075
1232.50976	8322.175
1236.07685	8191.975
1239.6415	8110.975
1243.20374	8117.775
1246.76355	8156.075
1250.32093	8247.875
1253.8759	8423.575
1257.42845	8709.975
1260.97859	9050.375
1264.52631	9472.075
1268.07163	9864.275
1271.61453	10236.175
1275.15503	10554.275
1278.69312	10755.675
1282.22882	10993.575
1285.76211	11366.375
1289.29301	11895.775
1292.82151	12433.575
1296.34761	13111.375
1299.87133	14088.875
1303.39266	15514.575
1306.9116	17432.475
1310.42815	19331.775
1313.94233	20181.375
1317.45412	19420.375
1320.96354	17976.675
1324.47058	16510.175
1327.97525	15274.275
1331.47754	14436.775
1334.97747	13984.075
1338.47502	13889.875
1341.97022	14138.575
1345.46305	14650.975
1348.95352	15480.775
1352.44163	16681.775
1355.92738	18455.675
1359.41078	21177.775
1362.89183	23789.475
1366.37053	23096.975
1369.84688	19290.275
1373.32088	15612.375
1376.79254	13396.975
1380.26186	12294.675
1383.72883	11669.275
1387.19347	11162.575
1390.65578	10746.975
1394.11575	10449.975
1397.57339	10353.275
1401.0287	10357.975
1404.48168	10417.275
1407.93234	10348.275
1411.38068	10232.675
1414.82669	10051.075
1418.27039	9810.075
1421.71177	9525.375
1425.15083	9227.375
1428.58758	9058.475
1432.02203	9136.875
1435.45416	9344.075
1438.88399	9495.375
1442.31151	9573.175
1445.73673	9666.875
1449.15965	9796.975
1452.58027	9830.975
1455.9986	9811.675
1459.41463	9846.375
1462.82837	10088.675
1466.23982	10414.975
1469.64898	10784.175
1473.05586	11056.875
1476.46045	11234.075
1479.86276	11356.075
1483.26279	11574.075
1486.66054	11849.175
1490.05602	12301.875
1493.44922	12984.775
1496.84016	14015.175
1500.22882	15667.575
1503.61521	17896.275
1506.99934	20354.475
1510.38121	22033.675
1513.76081	21939.075
1517.13816	19957.075
1520.51324	17136.175
1523.88607	14736.175
1527.25665	13275.575
1530.62498	12494.175
1533.99105	12040.575
1537.35488	11667.875
1540.71647	11270.875
1544.07581	10970.575
1547.4329	10696.975
1550.78776	10539.675
1554.14038	10473.075
1557.49077	10546.775
1560.83892	10742.575
1564.18484	11156.675
1567.52853	11687.575
1570.86999	12131.675
1574.20922	12451.775
1577.54624	12359.475
1580.88103	11663.175
1584.2136	10787.075
1587.54395	10373.075
1590.87208	10543.475
1594.19801	11147.775
1597.52172	12036.875
1600.84321	12322.575
1604.16251	11832.275
1607.47959	10940.475
1610.79447	10014.275
1614.10715	9193.975
1617.41763	8471.375
1620.7259	7939.775
1624.03199	7693.875
1627.33587	7660.475
1630.63757	7915.675
1633.93707	8465.875
1637.23439	9469.175
1640.52951	11040.275
1643.82246	13241.275
1647.11321	15591.175
1650.40179	16962.275
1653.68819	16149.475
1656.97241	13623.875
1660.25446	10857.775
1663.53433	8890.375
1666.81203	7664.275
1670.08756	6980.975
1673.36092	6553.775
1676.63211	6278.875
1679.90115	6095.675
1683.16801	5920.975
1686.43272	5821.575
1689.69527	5745.675
1692.95567	5673.375
1696.2139	5651.975
1699.46999	5602.775
1702.72392	5537.675
1705.97571	5520.975
1709.22535	5500.175
1712.47284	5490.675
1715.71819	5480.375
1718.96139	5435.475
1722.20246	5401.275
1725.44139	5372.875
1728.67818	5323.875
1731.91284	5275.075
1735.14537	5211.175
1738.37576	5176.575
1741.60403	5151.475
1744.83017	5125.975
1748.05418	5106.675
1751.27607	5079.975
1754.49584	5066.175
1757.71349	5049.975
1760.92903	5045.775
1764.14244	5032.975
1767.35375	5022.175
1770.56294	5001.775
1773.77002	4974.175
1776.97499	4936.875
1780.17785	4909.475
1783.37861	4902.775
1786.57727	4893.575
1789.77382	4865.275
1792.96828	4879.975
1796.16064	4871.775
1799.3509	4840.075
1802.53907	4810.775
1805.72514	4812.675
1808.90913	4783.175
1812.09102	4774.375
1815.27083	4745.375
1818.44856	4757.875
1821.6242	4734.975
1824.79776	4712.675
1827.96924	4704.175
1831.13864	4685.475
1834.30597	4678.175
1837.47122	4686.075
1840.6344	4664.075
1843.7955	4664.275
1846.95454	4669.675
1850.11151	4647.975
1853.26642	4652.375
1856.41926	4626.875
1859.57004	4628.775
1862.71876	4616.475
1865.86542	4616.575
1869.01003	4611.475
1872.15258	4610.275
1875.29308	4602.575
1878.43152	4609.775
1881.56792	4584.975
1884.70227	4596.275
1887.83457	4599.675
1890.96482	4597.775
1894.09304	4580.675
1897.21921	4573.375
1900.34335	4561.975
1903.46544	4562.275
1906.58551	4558.175
1909.70353	4550.675
1912.81953	4543.675
1915.93349	4537.275
1919.04543	4527.675
1922.15534	4503.475
1925.26322	4492.575
1928.36908	4486.275
1931.47292	4470.575
1934.57473	4442.675
1937.67453	4431.475
1940.77232	4422.975
1943.86808	4402.375
1946.96184	4391.475
1950.05358	4365.575
1953.14331	4356.675
1956.23103	4346.975
1959.31675	4340.075
1962.40046	4314.875
1965.48217	4327.175
1968.56188	4324.475
1971.63959	4301.175
1974.7153	4286.075
1977.78901	4275.975
1980.86073	4258.175
1983.93046	4233.575
1986.99819	4198.275
1990.06394	4197.375
1993.1277	4180.775
1996.18947	4160.275
1999.24925	4144.375
2002.30706	4140.675
2005.36288	4119.175
2008.41672	4089.375
2011.46859	4106.275
2014.51848	4086.375
2017.56639	4054.275
2020.61233	4055.175
2023.6563	4049.475
2026.6983	4027.975
2029.73833	4031.475
2032.7764	3999.475
2035.8125	3995.675
2038.84664	3983.875
2041.87881	3977.775
2044.90903	3968.875
2047.93729	3976.575
2050.96359	3959.675
2053.98794	3949.875
2057.01034	3935.175
2060.03078	3940.875
2063.04927	3920.675
2066.06582	3915.575
2069.08042	3915.075
2072.09307	3887.775
2075.10378	3887.675
2078.11255	3909.775
2081.11938	3911.175
2084.12426	3904.875
2087.12722	3908.475
2090.12824	3899.175
2093.12732	3903.575
2096.12447	3889.475
2099.11969	3893.875
2102.11299	3899.075
2105.10435	3894.675
2108.09379	3909.675
2111.08131	3898.975
2114.0669	3907.275
2117.05057	3908.075
2120.03233	3913.975
2123.01216	3924.175
2125.99008	3921.175
2128.96609	3906.575
2131.94018	3904.075
2134.91236	3912.175
2137.88263	3902.675
2140.851	3895.775
2143.81746	3908.475
2146.78201	3892.475
2149.74466	3899.475
2152.7054	3892.675
2155.66425	3884.575
2158.6212	3885.675
2161.57625	3884.575
2164.52941	3861.775
2167.48067	3868.075
2170.43004	3860.375
2173.37752	3860.175
2176.32311	3858.375
2179.26681	3864.475
2182.20863	3860.075
2185.14856	3868.575
2188.08661	3847.975
2191.02278	3851.875
2193.95707	3859.175
2196.88948	3861.575
2199.82001	3853.875
2202.74867	3848.875
2205.67545	3845.275
2208.60037	3837.475
2211.52341	3826.975
2214.44458	3810.675
2217.36388	3801.675
2220.28132	3795.275
2223.1969	3785.875
2226.11061	3776.675
2229.02246	3776.575
2231.93245	3762.575
2234.84058	3763.175
2237.74686	3761.275
2240.65128	3749.375
2243.55385	3752.375
2246.45456	3746.475
2249.35343	3748.775
2252.25044	3732.275
2255.14561	3728.475
2258.03893	3745.175
2260.93041	3727.975
2263.82004	3717.975
2266.70783	3708.375
2269.59378	3697.875
2272.4779	3690.475
2275.36017	3685.675
2278.24061	3683.275
2281.11922	3666.375
2283.996	3669.575
2286.87094	3660.375
2289.74405	3635.075
2292.61534	3636.075
2295.4848	3613.575
2298.35243	3627.675
2301.21824	3612.175
2304.08223	3617.475
2306.94439	3616.975
2309.80474	3609.775
2312.66327	3610.375
2315.51999	3614.275
2318.37489	3599.675
2321.22797	3606.275
2324.07925	3601.875
2326.92871	3595.875
2329.77637	3595.775
2332.62222	3591.975
2335.46626	3576.575
2338.3085	3584.175
2341.14893	3579.775
2343.98756	3582.275
2346.8244	3591.175
2349.65943	3591.175
2352.49267	3599.475
2355.32411	3614.975
2358.15376	3619.175
2360.98161	3623.375
2363.80768	3623.975
2366.63195	3637.775
2369.45444	3638.975
2372.27514	3627.575
2375.09405	3615.975
2377.91118	3608.475
2380.72652	3574.675
2383.54009	3581.975
2386.35187	3570.375
2389.16188	3558.675
2391.97011	3524.275
2394.77657	3535.975
2397.58125	3515.475
2400.38416	3501.075
2403.18529	3498.675
2405.98466	3488.275
2408.78226	3477.475
2411.57809	3468.675
2414.37216	3452.475
2417.16446	3453.575
2419.955	3455.575
2422.74378	3454.075
2425.5308	3447.475
2428.31606	3441.675
2431.09956	3449.175
2433.88131	3451.875
2436.6613	3446.875
2439.43954	3450.075
2442.21603	3450.775
2444.99077	3448.675
2447.76377	3447.075
2450.53501	3448.375
2453.30451	3452.375
2456.07226	3456.175
2458.83827	3448.775
2461.60254	3460.075
2464.36507	3463.875
2467.12586	3444.475
2469.88492	3433.275
2472.64224	3444.175
2475.39782	3468.475
2478.15167	3464.575
2480.90379	3478.075
2483.65417	3483.475
2486.40283	3503.575
2489.14976	3503.075
2491.89497	3496.375
2494.63845	3507.475
2497.3802	3505.675
2500.12024	3506.375
2502.85855	3492.775
2505.59514	3474.375
2508.33002	3453.375
2511.06318	3440.475
2513.79462	3426.175
2516.52435	3405.175
2519.25237	3404.875
2521.97867	3398.375
2524.70327	3384.475
2527.42616	3374.875
2530.14734	3374.575
2532.86681	3377.575
2535.58458	3373.275
2538.30065	3363.375
2541.01501	3381.575
2543.72768	3380.475
2546.43864	3390.875
2549.14791	3382.875
2551.85548	3366.375
2554.56136	3366.975
2557.26554	3355.375
2559.96803	3342.975
2562.66883	3354.675
2565.36794	3351.875
2568.06536	3357.675
2570.7611	3335.775
2573.45514	3331.775
2576.14751	3329.975
2578.83819	3329.275
2581.52719	3334.975
2584.21451	3320.575
2586.90015	3328.175
2589.58411	3310.475
2592.2664	3309.975
2594.94701	3313.775
2597.62594	3302.375
2600.30321	3296.775
2602.9788	3312.675
2605.65273	3301.875
2608.32498	3312.175
2610.99557	3295.875
2613.66449	3302.775
2616.33175	3297.575
2618.99734	3300.975
2621.66128	3300.775
2624.32355	3309.375
2626.98416	3290.775
2629.64311	3295.575
2632.30041	3286.175
2634.95605	3284.975
2637.61004	3278.675
2640.26238	3271.875
2642.91306	3280.875
2645.56209	3279.675
2648.20948	3276.475
2650.85521	3272.175
2653.4993	3260.875
2656.14175	3268.975
2658.78255	3283.175
2661.42171	3280.975
2664.05923	3289.575
2666.6951	3290.975
2669.32934	3288.875
2671.96194	3300.075
2674.59291	3294.775
2677.22224	3287.975
2679.84993	3284.875
2682.476	3276.075
2685.10043	3277.775
2687.72324	3261.675
2690.34441	3256.475
2692.96396	3260.575
2695.58188	3264.075
2698.19818	3268.575
2700.81285	3263.875
2703.4259	3265.975
2706.03733	3267.175
2708.64714	3262.975
2711.25533	3278.975
2713.86191	3269.475
2716.46687	3290.675
2719.07021	3283.775
2721.67194	3282.975
2724.27206	3288.475
2726.87057	3295.375
2729.46747	3280.875
2732.06276	3294.675
2734.65644	3282.275
2737.24852	3287.075
2739.83899	3253.775
2742.42786	3268.975
2745.01513	3255.575
2747.60079	3257.575
2750.18486	3244.375
2752.76733	3259.975
2755.3482	3246.075
2757.92747	3236.775
2760.50515	3223.175
2763.08123	3239.475
2765.65573	3225.775
2768.22863	3229.675
2770.79994	3223.675
2773.36967	3240.775
2775.9378	3226.575
2778.50435	3224.375
2781.06932	3233.375
2783.6327	3249.675
2786.1945	3227.175
2788.75471	3235.675
2791.31335	3228.575
2793.87041	3230.075
2796.42589	3225.175
2798.97979	3220.575
2801.53212	3226.875
2804.08288	3221.075
2806.63206	3196.675
2809.17967	3210.775
2811.72571	3206.875
2814.27018	3221.175
2816.81308	3217.975
2819.35442	3212.675
2821.89419	3189.675
2824.43239	3222.475
2826.96904	3197.275
2829.50412	3204.275
2832.03763	3213.575
2834.56959	3200.875
2837.1	3212.875
2839.62884	3207.175
2842.15613	3194.575
2844.68186	3215.375
2847.20604	3217.475
2849.72867	3220.175
2852.24974	3212.575
2854.76927	3211.075
2857.28724	3212.975
2859.80367	3215.675
2862.31855	3213.875
2864.83189	3227.375
2867.34368	3233.275
2869.85393	3234.475
2872.36264	3236.575
2874.8698	3230.275
2877.37543	3235.975
2879.87952	3219.175
2882.38207	3217.075
2884.88308	3230.175
2887.38256	3228.875
2889.88051	3227.675
2892.37692	3230.675
2894.8718	3226.375
2897.36515	3229.275
2899.85698	3231.175
2902.34727	3224.275
2904.83604	3213.975
2907.32328	3244.575
2909.809	3249.875
2912.29319	3230.275
2914.77587	3250.375
2917.25702	3234.475
2919.73665	3225.375
2922.21476	3244.675
2924.69136	3237.675
2927.16644	3226.675
2929.64	3212.875
2932.11205	3202.675
2934.58258	3193.775
2937.05161	3187.375
2939.51912	3180.775
2941.98513	3186.675
2944.44962	3169.875
2946.91261	3157.275
2949.37409	3170.075
2951.83407	3162.275
2954.29254	3167.975
2956.74951	3163.275
2959.20498	3168.575
2961.65895	3164.575
2964.11142	3150.975
2966.56239	3148.775
2969.01186	3136.275
2971.45984	3118.475
2973.90632	3117.975
2976.35131	3111.175
2978.7948	3114.375
2981.23681	3093.575
2983.67732	3101.075
2986.11635	3088.475
2988.55388	3081.375
2990.98993	3083.375
2993.4245	3059.475
2995.85758	3071.675
2998.28917	3067.975
3000.71928	3062.075
3003.14791	3062.175
3005.57506	3059.175
3008.00073	3052.375
3010.42493	3062.375
3012.84764	3051.975
3015.26888	3050.375
3017.68865	3033.375
3020.10694	3043.575
3022.52376	3030.875
3024.9391	3034.675
3027.35298	3024.375
3029.76539	3007.275
3032.17632	3012.375
3034.5858	2993.575
3036.9938	2993.475
3039.40034	2978.875
3041.80542	2992.275
3044.20903	2988.275
3046.61118	3007.075
3049.01187	2991.975
3051.4111	2994.775
3053.80888	2972.075
3056.20519	2963.775
3058.60005	2948.975
3060.99345	2960.875
3063.3854	2940.975
3065.7759	2949.775
3068.16494	2966.375
3070.55254	2944.075
3072.93868	2946.275
3075.32338	2926.475
3077.70662	2928.375
3080.08842	2925.175
3082.46878	2929.475
3084.84769	2919.975
3087.22515	2915.375
3089.60118	2922.375
3091.97576	2929.175
3094.3489	2932.675
3096.72061	2917.975
3099.09087	2936.075
3101.4597	2943.475
3103.82709	2932.175
3106.19305	2926.875
3108.55757	2928.575
3110.92066	2926.475
3113.28232	2924.675
3115.64255	2926.075
3118.00134	2914.375
3120.35871	2911.375
3122.71466	2913.575
3125.06917	2904.275
3127.42226	2901.375
3129.77393	2906.975
3132.12417	2916.675
3134.47299	2915.675
3136.82039	2917.075
3139.16636	2916.175
3141.51092	2907.675
3143.85406	2915.075
3146.19579	2912.775
3148.53609	2919.375
3150.87499	2926.775
3153.21246	2939.375
3155.54853	2950.175
3157.88318	2956.275
3160.21642	2965.175
3162.54826	2949.275
3164.87868	2963.375
3167.2077	2960.275
3169.5353	2961.675
3171.86151	2982.075
3174.18631	2981.375
3176.5097	2976.275
3178.83169	2955.475
3181.15228	2953.575
3183.47147	2965.475
3185.78926	2972.575
3188.10565	2965.875
3190.42065	2972.975
3192.73424	2976.975
3195.04645	2972.075
3197.35725	2968.375
3199.66667	2981.575
3201.97469	2993.475
3204.28132	2990.675
3206.58656	2995.675
3208.8904	2997.675
3211.19287	3001.275
3213.49394	3012.175
3215.79363	3002.275
3218.09193	3017.075
3220.38884	3027.775
3222.68438	3028.075
3224.97853	3019.275
3227.2713	3026.575
3229.56269	3025.875
3231.8527	3022.575
3234.14133	3016.475
3236.42858	3007.575
3238.71446	2993.175
3240.99896	2994.375
3243.28209	2998.275
3245.56384	2992.675
3247.84423	3003.875
3250.12324	3002.375
3252.40088	2983.175
3254.67715	2988.175
3256.95205	2996.075
3259.22558	2984.675
3261.49775	2998.875
3263.76855	2989.875
3266.03799	2984.075
3268.30606	2989.075
3270.57277	2976.975
3272.83812	2981.575
3275.10211	2985.175
3277.36474	2979.375
3279.62601	2982.975
3281.88593	2980.875
3284.14448	2990.675
3286.40168	2995.475
3288.65753	2982.275
3290.91202	2973.175
3293.16516	2971.975
3295.41695	2981.375
3297.66738	2965.475
3299.91647	2946.775
3302.16421	2944.175
3304.4106	2925.975
3306.65564	2914.275
3308.89933	2898.975
3311.14169	2881.375
3313.38269	2847.975
3315.62236	2848.575
3317.86068	2821.475
3320.09766	2787.075
3322.3333	2762.175
3324.5676	2768.075
3326.80056	2717.875
3329.03219	2706.375
3331.26248	1.675
3333.49143	-1.525
3335.71905	1.475
