Data from AgNP_FTO_APTES_UA_100uM_CRN_100uM_R6G_10uM_NaF_0.1M_Addition_RamanShift__3__17-51-00-567.txt Node

Date: Thu Mar 24 17:51:00 GMT 2022
User: TCL
Spectrometer: QEP01345
Trigger mode: 4
Integration Time (sec): 7.000000E0
Scans to average: 10
Electric dark correction enabled: true
Nonlinearity correction enabled: false
Boxcar width: 0
XAxis mode: Raman Shifts
Number of Pixels in Spectrum: 1044
>>>>>Begin Spectral Data<<<<<
46.04893	-0.3875
50.45542	-0.2875
54.85868	-0.3875
59.25871	0.7125
63.6555	37.4125
68.04907	39.5125
72.43941	40.0125
76.82654	36.2125
81.21044	40.5125
85.59113	43.2125
89.96862	47.0125
94.34289	44.8125
98.71396	49.1125
103.08183	46.7125
107.4465	49.7125
111.80798	50.2125
116.16626	48.7125
120.52136	51.9125
124.87327	51.9125
129.222	54.3125
133.56755	60.5125
137.90993	59.0125
142.24913	67.2125
146.58517	70.8125
150.91804	82.6125
155.24774	97.6125
159.57429	118.6125
163.89768	155.2125
168.21792	200.9125
172.53501	271.7125
176.84895	380.1125
181.15975	537.2125
185.46741	753.1125
189.77193	1034.4125
194.07331	1389.4125
198.37157	1800.7125
202.6667	2223.6125
206.9587	2664.6125
211.24758	3088.8125
215.53334	3529.0125
219.81599	4022.8125
224.09553	4574.7125
228.37195	5165.3125
232.64527	5804.7125
236.91549	6509.5125
241.18261	7124.1125
245.44663	7660.5125
249.70755	8097.4125
253.96539	8460.2125
258.22014	8745.7125
262.4718	9034.2125
266.72039	9215.8125
270.96589	9294.6125
275.20832	9266.6125
279.44768	9174.3125
283.68397	9036.4125
287.91719	8928.3125
292.14735	8929.8125
296.37445	9017.1125
300.59849	9212.0125
304.81948	9455.9125
309.03742	9651.0125
313.25231	9678.7125
317.46415	9437.7125
321.67296	9023.6125
325.87872	8622.5125
330.08145	8416.6125
334.28114	8376.1125
338.47781	8521.1125
342.67145	8655.2125
346.86207	8875.1125
351.04966	9174.6125
355.23424	9499.4125
359.4158	9758.6125
363.59435	9859.7125
367.76989	9928.7125
371.94243	9893.9125
376.11196	9859.9125
380.27849	9819.0125
384.44203	9785.0125
388.60257	9765.5125
392.76012	9810.9125
396.91468	9919.7125
401.06626	10117.7125
405.21485	10218.1125
409.36047	10089.4125
413.50311	9716.7125
417.64277	9425.4125
421.77947	9217.7125
425.9132	9180.5125
430.04396	9201.0125
434.17176	9229.5125
438.2966	9332.3125
442.41849	9529.7125
446.53742	9792.3125
450.6534	10064.8125
454.76644	10226.3125
458.87653	10201.5125
462.98368	10095.5125
467.08789	9971.1125
471.18916	9817.1125
475.2875	9667.3125
479.38291	9536.5125
483.4754	9394.7125
487.56496	9294.9125
491.6516	9225.1125
495.73531	9153.0125
499.81612	9145.7125
503.89401	9186.9125
507.96899	9254.6125
512.04106	9284.9125
516.11023	9330.2125
520.1765	9323.0125
524.23987	9307.0125
528.30034	9242.0125
532.35792	9210.0125
536.41261	9107.0125
540.46441	8934.4125
544.51333	8870.8125
548.55936	8933.7125
552.60252	9090.5125
556.64279	9331.4125
560.6802	9484.8125
564.71473	9567.3125
568.7464	9793.3125
572.7752	10065.9125
576.80114	10159.8125
580.82422	10205.4125
584.84444	10404.3125
588.86181	10670.7125
592.87633	10990.7125
596.888	11140.7125
600.89682	11063.7125
604.9028	11437.6125
608.90594	13214.7125
612.90624	15650.6125
616.90371	14853.2125
620.89834	11215.9125
624.89015	9462.8125
628.87913	9185.2125
632.86528	9360.7125
636.84862	9565.8125
640.82913	9433.6125
644.80683	9064.8125
648.78172	8732.9125
652.75379	8640.9125
656.72306	8871.2125
660.68952	9175.1125
664.65319	9090.9125
668.61405	8754.9125
672.57211	8602.7125
676.52738	8601.6125
680.47986	8587.4125
684.42955	8492.6125
688.37646	8429.4125
692.32058	8421.1125
696.26192	8522.8125
700.20048	8628.3125
704.13626	8725.2125
708.06928	8703.6125
711.99952	8659.4125
715.927	8649.2125
719.85171	8693.6125
723.77365	8722.2125
727.69284	8676.1125
731.60928	8598.7125
735.52295	8605.5125
739.43388	8619.1125
743.34206	8633.1125
747.24749	8652.6125
751.15017	8694.9125
755.05012	8825.3125
758.94733	9154.6125
762.8418	9954.4125
766.73354	11367.0125
770.62254	12697.1125
774.50882	13160.1125
778.39237	12530.0125
782.27321	11177.9125
786.15132	9853.2125
790.02671	9033.6125
793.89938	8647.4125
797.76935	8452.8125
801.6366	8381.0125
805.50115	8332.7125
809.36299	8290.6125
813.22213	8291.9125
817.07857	8249.5125
820.93231	8235.5125
824.78336	8204.3125
828.63172	8215.8125
832.47738	8192.4125
836.32036	8181.3125
840.16066	8152.6125
843.99827	8126.0125
847.8332	8128.3125
851.66546	8110.0125
855.49504	8114.0125
859.32195	8088.0125
863.1462	8074.0125
866.96777	8069.9125
870.78668	8083.0125
874.60293	8096.0125
878.41652	8121.2125
882.22745	8167.8125
886.03573	8208.8125
889.84136	8208.9125
893.64433	8170.0125
897.44466	8134.2125
901.24235	8084.5125
905.0374	8050.9125
908.8298	8006.2125
912.61957	7986.7125
916.40671	7988.2125
920.19121	8045.7125
923.97308	8174.8125
927.75233	8199.7125
931.52895	8199.0125
935.30295	8091.6125
939.07433	7899.9125
942.84309	7722.8125
946.60924	7641.4125
950.37278	7600.0125
954.13371	7567.9125
957.89203	7556.6125
961.64774	7556.4125
965.40086	7538.0125
969.15137	7544.2125
972.89929	7485.4125
976.64461	7471.9125
980.38733	7461.0125
984.12747	7456.7125
987.86502	7476.8125
991.59999	7536.7125
995.33237	7608.9125
999.06217	7733.1125
1002.78939	7897.7125
1006.51404	8108.9125
1010.23611	8283.9125
1013.95561	8349.1125
1017.67255	8316.5125
1021.38692	8206.8125
1025.09872	8033.1125
1028.80796	7886.9125
1032.51465	7835.0125
1036.21877	7855.4125
1039.92035	7900.7125
1043.61937	7961.2125
1047.31584	7993.0125
1051.00976	8010.3125
1054.70114	8042.3125
1058.38998	8037.9125
1062.07627	8078.1125
1065.76003	8165.4125
1069.44126	8251.2125
1073.11995	8450.8125
1076.79611	8589.3125
1080.46974	8726.2125
1084.14085	8879.8125
1087.80943	9020.1125
1091.47549	9115.1125
1095.13903	9023.3125
1098.80005	8787.0125
1102.45857	8543.9125
1106.11456	8406.7125
1109.76805	8385.4125
1113.41903	8495.2125
1117.06751	8714.2125
1120.71348	8993.2125
1124.35696	9321.2125
1127.99793	9607.5125
1131.63641	9592.9125
1135.2724	9326.4125
1138.90589	9046.6125
1142.5369	8864.7125
1146.16542	8762.5125
1149.79145	8684.2125
1153.415	8695.3125
1157.03607	8739.5125
1160.65467	8921.9125
1164.27079	9236.5125
1167.88443	9812.1125
1171.49561	10586.3125
1175.10432	11759.2125
1178.71056	13214.6125
1182.31434	14436.0125
1185.91565	14742.8125
1189.51451	14276.1125
1193.11091	13555.5125
1196.70485	12671.7125
1200.29634	11951.4125
1203.88538	11386.7125
1207.47197	10778.1125
1211.05612	10251.0125
1214.63782	9949.1125
1218.21708	9785.0125
1221.79391	9771.0125
1225.36829	9743.2125
1228.94024	9684.7125
1232.50976	9544.8125
1236.07685	9386.6125
1239.6415	9331.9125
1243.20374	9311.7125
1246.76355	9366.8125
1250.32093	9463.0125
1253.8759	9598.4125
1257.42845	9873.3125
1260.97859	10209.9125
1264.52631	10570.4125
1268.07163	10910.7125
1271.61453	11238.1125
1275.15503	11492.6125
1278.69312	11709.5125
1282.22882	11961.8125
1285.76211	12392.9125
1289.29301	12906.3125
1292.82151	13472.9125
1296.34761	14108.5125
1299.87133	15008.5125
1303.39266	16191.7125
1306.9116	17754.3125
1310.42815	19265.4125
1313.94233	19984.3125
1317.45412	19446.2125
1320.96354	18313.5125
1324.47058	17183.9125
1327.97525	16146.3125
1331.47754	15407.2125
1334.97747	14984.7125
1338.47502	14854.3125
1341.97022	14945.8125
1345.46305	15307.0125
1348.95352	15877.2125
1352.44163	16788.6125
1355.92738	18226.3125
1359.41078	20364.3125
1362.89183	22400.0125
1366.37053	21956.8125
1369.84688	18999.8125
1373.32088	15871.4125
1376.79254	13979.6125
1380.26186	13029.5125
1383.72883	12505.7125
1387.19347	12116.2125
1390.65578	11729.3125
1394.11575	11460.9125
1397.57339	11410.2125
1401.0287	11461.6125
1404.48168	11522.8125
1407.93234	11485.8125
1411.38068	11355.6125
1414.82669	11147.7125
1418.27039	10865.9125
1421.71177	10538.7125
1425.15083	10184.1125
1428.58758	10042.4125
1432.02203	10113.0125
1435.45416	10329.3125
1438.88399	10484.9125
1442.31151	10592.0125
1445.73673	10712.7125
1449.15965	10830.6125
1452.58027	10847.0125
1455.9986	10797.6125
1459.41463	10858.5125
1462.82837	11025.2125
1466.23982	11365.8125
1469.64898	11706.6125
1473.05586	11997.7125
1476.46045	12218.7125
1479.86276	12380.1125
1483.26279	12558.0125
1486.66054	12794.5125
1490.05602	13182.7125
1493.44922	13808.3125
1496.84016	14667.0125
1500.22882	15903.6125
1503.61521	17617.6125
1506.99934	19400.8125
1510.38121	20653.6125
1513.76081	20503.8125
1517.13816	18897.7125
1520.51324	16717.6125
1523.88607	14840.7125
1527.25665	13667.3125
1530.62498	13067.8125
1533.99105	12701.0125
1537.35488	12353.2125
1540.71647	12019.0125
1544.07581	11704.2125
1547.4329	11435.7125
1550.78776	11227.5125
1554.14038	11108.5125
1557.49077	11098.6125
1560.83892	11249.0125
1564.18484	11576.8125
1567.52853	11997.3125
1570.86999	12426.7125
1574.20922	12684.0125
1577.54624	12656.2125
1580.88103	12131.8125
1584.2136	11457.6125
1587.54395	11173.4125
1590.87208	11409.9125
1594.19801	12049.2125
1597.52172	12881.5125
1600.84321	13169.8125
1604.16251	12721.6125
1607.47959	11829.8125
1610.79447	10872.5125
1614.10715	10032.4125
1617.41763	9351.7125
1620.7259	8824.8125
1624.03199	8603.6125
1627.33587	8594.2125
1630.63757	8809.5125
1633.93707	9309.9125
1637.23439	10249.7125
1640.52951	11816.9125
1643.82246	13968.7125
1647.11321	16135.1125
1650.40179	17254.2125
1653.68819	16470.1125
1656.97241	14116.7125
1660.25446	11584.7125
1663.53433	9694.0125
1666.81203	8578.3125
1670.08756	7921.3125
1673.36092	7522.2125
1676.63211	7286.1125
1679.90115	7105.9125
1683.16801	6977.6125
1686.43272	6850.1125
1689.69527	6779.1125
1692.95567	6705.3125
1696.2139	6677.7125
1699.46999	6636.8125
1702.72392	6568.8125
1705.97571	6561.0125
1709.22535	6528.8125
1712.47284	6523.8125
1715.71819	6502.1125
1718.96139	6464.0125
1722.20246	6422.7125
1725.44139	6401.3125
1728.67818	6351.6125
1731.91284	6288.9125
1735.14537	6249.3125
1738.37576	6216.6125
1741.60403	6181.0125
1744.83017	6148.3125
1748.05418	6153.8125
1751.27607	6103.4125
1754.49584	6079.4125
1757.71349	6079.1125
1760.92903	6055.9125
1764.14244	6055.4125
1767.35375	6058.9125
1770.56294	6012.7125
1773.77002	5983.6125
1776.97499	5965.2125
1780.17785	5957.5125
1783.37861	5921.5125
1786.57727	5909.1125
1789.77382	5891.6125
1792.96828	5910.5125
1796.16064	5868.9125
1799.3509	5869.0125
1802.53907	5853.9125
1805.72514	5813.5125
1808.90913	5802.1125
1812.09102	5774.7125
1815.27083	5778.0125
1818.44856	5754.1125
1821.6242	5731.6125
1824.79776	5734.7125
1827.96924	5706.2125
1831.13864	5701.4125
1834.30597	5696.5125
1837.47122	5682.1125
1840.6344	5689.8125
1843.7955	5653.6125
1846.95454	5659.7125
1850.11151	5649.4125
1853.26642	5637.2125
1856.41926	5627.9125
1859.57004	5631.4125
1862.71876	5608.2125
1865.86542	5608.7125
1869.01003	5620.3125
1872.15258	5598.1125
1875.29308	5600.5125
1878.43152	5593.0125
1881.56792	5586.1125
1884.70227	5588.7125
1887.83457	5595.2125
1890.96482	5557.6125
1894.09304	5559.5125
1897.21921	5540.1125
1900.34335	5544.6125
1903.46544	5526.1125
1906.58551	5518.9125
1909.70353	5517.0125
1912.81953	5516.4125
1915.93349	5514.4125
1919.04543	5478.2125
1922.15534	5481.1125
1925.26322	5462.2125
1928.36908	5440.8125
1931.47292	5411.3125
1934.57473	5405.8125
1937.67453	5390.0125
1940.77232	5379.5125
1943.86808	5346.2125
1946.96184	5346.1125
1950.05358	5317.5125
1953.14331	5295.3125
1956.23103	5289.3125
1959.31675	5260.8125
1962.40046	5272.0125
1965.48217	5244.5125
1968.56188	5238.0125
1971.63959	5212.9125
1974.7153	5204.6125
1977.78901	5195.3125
1980.86073	5168.5125
1983.93046	5142.8125
1986.99819	5108.9125
1990.06394	5105.1125
1993.1277	5079.1125
1996.18947	5059.1125
1999.24925	5052.9125
2002.30706	5023.9125
2005.36288	5008.8125
2008.41672	4976.6125
2011.46859	4984.1125
2014.51848	4950.2125
2017.56639	4926.9125
2020.61233	4929.8125
2023.6563	4912.3125
2026.6983	4879.7125
2029.73833	4879.3125
2032.7764	4865.8125
2035.8125	4826.1125
2038.84664	4829.8125
2041.87881	4842.4125
2044.90903	4824.0125
2047.93729	4812.6125
2050.96359	4799.9125
2053.98794	4801.5125
2057.01034	4775.5125
2060.03078	4771.5125
2063.04927	4765.0125
2066.06582	4761.6125
2069.08042	4759.0125
2072.09307	4755.1125
2075.10378	4741.2125
2078.11255	4763.5125
2081.11938	4744.2125
2084.12426	4747.1125
2087.12722	4739.0125
2090.12824	4753.3125
2093.12732	4723.1125
2096.12447	4747.6125
2099.11969	4741.1125
2102.11299	4730.8125
2105.10435	4738.4125
2108.09379	4725.3125
2111.08131	4751.1125
2114.0669	4745.6125
2117.05057	4737.2125
2120.03233	4746.5125
2123.01216	4753.4125
2125.99008	4755.4125
2128.96609	4747.3125
2131.94018	4735.9125
2134.91236	4739.8125
2137.88263	4745.7125
2140.851	4759.0125
2143.81746	4743.2125
2146.78201	4726.5125
2149.74466	4713.0125
2152.7054	4714.9125
2155.66425	4725.7125
2158.6212	4728.7125
2161.57625	4699.5125
2164.52941	4686.1125
2167.48067	4688.4125
2170.43004	4686.3125
2173.37752	4692.3125
2176.32311	4694.8125
2179.26681	4690.6125
2182.20863	4684.7125
2185.14856	4695.3125
2188.08661	4677.1125
2191.02278	4669.0125
2193.95707	4677.9125
2196.88948	4672.3125
2199.82001	4676.2125
2202.74867	4656.8125
2205.67545	4650.8125
2208.60037	4642.1125
2211.52341	4630.2125
2214.44458	4619.3125
2217.36388	4603.3125
2220.28132	4615.1125
2223.1969	4582.7125
2226.11061	4587.4125
2229.02246	4574.4125
2231.93245	4569.5125
2234.84058	4545.5125
2237.74686	4556.7125
2240.65128	4544.0125
2243.55385	4545.3125
2246.45456	4527.4125
2249.35343	4523.8125
2252.25044	4527.7125
2255.14561	4519.0125
2258.03893	4525.5125
2260.93041	4501.8125
2263.82004	4496.2125
2266.70783	4476.2125
2269.59378	4478.9125
2272.4779	4476.3125
2275.36017	4447.0125
2278.24061	4446.7125
2281.11922	4418.9125
2283.996	4411.8125
2286.87094	4405.3125
2289.74405	4394.3125
2292.61534	4385.4125
2295.4848	4386.6125
2298.35243	4364.5125
2301.21824	4363.9125
2304.08223	4361.5125
2306.94439	4363.9125
2309.80474	4355.1125
2312.66327	4350.5125
2315.51999	4349.4125
2318.37489	4330.5125
2321.22797	4340.0125
2324.07925	4344.0125
2326.92871	4321.4125
2329.77637	4328.5125
2332.62222	4312.8125
2335.46626	4305.3125
2338.3085	4293.6125
2341.14893	4293.7125
2343.98756	4296.3125
2346.8244	4299.5125
2349.65943	4299.6125
2352.49267	4293.4125
2355.32411	4309.2125
2358.15376	4313.9125
2360.98161	4303.2125
2363.80768	4314.6125
2366.63195	4316.1125
2369.45444	4317.2125
2372.27514	4315.9125
2375.09405	4295.6125
2377.91118	4297.7125
2380.72652	4272.0125
2383.54009	4267.5125
2386.35187	4252.2125
2389.16188	4246.6125
2391.97011	4223.4125
2394.77657	4213.7125
2397.58125	4192.7125
2400.38416	4182.1125
2403.18529	4169.5125
2405.98466	4178.9125
2408.78226	4136.0125
2411.57809	4151.9125
2414.37216	4144.3125
2417.16446	4133.4125
2419.955	4130.4125
2422.74378	4143.8125
2425.5308	4130.8125
2428.31606	4119.9125
2431.09956	4121.4125
2433.88131	4113.5125
2436.6613	4114.0125
2439.43954	4107.4125
2442.21603	4110.4125
2444.99077	4112.6125
2447.76377	4099.8125
2450.53501	4113.1125
2453.30451	4108.3125
2456.07226	4121.0125
2458.83827	4097.9125
2461.60254	4109.6125
2464.36507	4094.0125
2467.12586	4099.9125
2469.88492	4103.7125
2472.64224	4113.8125
2475.39782	4108.6125
2478.15167	4107.8125
2480.90379	4122.0125
2483.65417	4122.0125
2486.40283	4127.8125
2489.14976	4114.8125
2491.89497	4127.2125
2494.63845	4140.2125
2497.3802	4122.8125
2500.12024	4123.9125
2502.85855	4103.8125
2505.59514	4091.9125
2508.33002	4074.4125
2511.06318	4063.7125
2513.79462	4037.7125
2516.52435	4028.8125
2519.25237	4047.6125
2521.97867	4021.5125
2524.70327	4018.0125
2527.42616	4023.1125
2530.14734	4010.5125
2532.86681	3997.4125
2535.58458	4002.5125
2538.30065	3991.5125
2541.01501	4000.9125
2543.72768	3979.2125
2546.43864	3987.3125
2549.14791	3988.5125
2551.85548	3981.6125
2554.56136	3975.9125
2557.26554	3978.0125
2559.96803	3962.9125
2562.66883	3951.5125
2565.36794	3962.5125
2568.06536	3953.1125
2570.7611	3938.4125
2573.45514	3928.7125
2576.14751	3936.4125
2578.83819	3922.0125
2581.52719	3929.5125
2584.21451	3914.7125
2586.90015	3905.6125
2589.58411	3892.0125
2592.2664	3901.5125
2594.94701	3892.8125
2597.62594	3890.5125
2600.30321	3868.8125
2602.9788	3879.1125
2605.65273	3877.8125
2608.32498	3888.0125
2610.99557	3866.5125
2613.66449	3874.0125
2616.33175	3863.0125
2618.99734	3867.0125
2621.66128	3864.3125
2624.32355	3855.1125
2626.98416	3853.9125
2629.64311	3837.3125
2632.30041	3834.1125
2634.95605	3835.6125
2637.61004	3835.0125
2640.26238	3812.2125
2642.91306	3820.3125
2645.56209	3813.0125
2648.20948	3822.0125
2650.85521	3814.7125
2653.4993	3818.0125
2656.14175	3826.6125
2658.78255	3821.0125
2661.42171	3823.6125
2664.05923	3833.2125
2666.6951	3830.7125
2669.32934	3859.8125
2671.96194	3844.7125
2674.59291	3858.4125
2677.22224	3839.5125
2679.84993	3825.1125
2682.476	3816.2125
2685.10043	3817.7125
2687.72324	3806.1125
2690.34441	3815.6125
2692.96396	3824.9125
2695.58188	3811.5125
2698.19818	3807.4125
2700.81285	3817.8125
2703.4259	3808.6125
2706.03733	3821.6125
2708.64714	3819.0125
2711.25533	3818.6125
2713.86191	3826.3125
2716.46687	3820.2125
2719.07021	3823.6125
2721.67194	3838.9125
2724.27206	3827.3125
2726.87057	3843.2125
2729.46747	3838.9125
2732.06276	3827.2125
2734.65644	3822.1125
2737.24852	3828.0125
2739.83899	3799.2125
2742.42786	3815.3125
2745.01513	3796.2125
2747.60079	3795.1125
2750.18486	3790.6125
2752.76733	3788.6125
2755.3482	3777.4125
2757.92747	3771.1125
2760.50515	3776.9125
2763.08123	3751.0125
2765.65573	3766.6125
2768.22863	3776.2125
2770.79994	3763.8125
2773.36967	3761.4125
2775.9378	3754.2125
2778.50435	3746.2125
2781.06932	3764.0125
2783.6327	3754.0125
2786.1945	3746.8125
2788.75471	3733.7125
2791.31335	3748.7125
2793.87041	3734.9125
2796.42589	3740.6125
2798.97979	3729.7125
2801.53212	3732.1125
2804.08288	3714.8125
2806.63206	3712.8125
2809.17967	3717.2125
2811.72571	3707.9125
2814.27018	3702.6125
2816.81308	3695.6125
2819.35442	3683.1125
2821.89419	3692.0125
2824.43239	3695.1125
2826.96904	3685.9125
2829.50412	3685.3125
2832.03763	3682.8125
2834.56959	3676.0125
2837.1	3666.2125
2839.62884	3677.9125
2842.15613	3679.2125
2844.68186	3686.5125
2847.20604	3680.9125
2849.72867	3692.8125
2852.24974	3688.7125
2854.76927	3691.0125
2857.28724	3690.0125
2859.80367	3694.0125
2862.31855	3679.9125
2864.83189	3682.4125
2867.34368	3686.2125
2869.85393	3687.1125
2872.36264	3676.4125
2874.8698	3678.8125
2877.37543	3666.8125
2879.87952	3690.6125
2882.38207	3683.6125
2884.88308	3661.0125
2887.38256	3662.4125
2889.88051	3658.2125
2892.37692	3664.8125
2894.8718	3668.2125
2897.36515	3675.8125
2899.85698	3665.9125
2902.34727	3661.7125
2904.83604	3670.6125
2907.32328	3687.4125
2909.809	3675.3125
2912.29319	3679.1125
2914.77587	3683.3125
2917.25702	3680.5125
2919.73665	3658.9125
2922.21476	3665.9125
2924.69136	3659.4125
2927.16644	3675.2125
2929.64	3663.5125
2932.11205	3664.0125
2934.58258	3640.7125
2937.05161	3642.6125
2939.51912	3630.5125
2941.98513	3627.5125
2944.44962	3624.7125
2946.91261	3604.5125
2949.37409	3605.8125
2951.83407	3602.8125
2954.29254	3615.5125
2956.74951	3611.1125
2959.20498	3597.4125
2961.65895	3587.2125
2964.11142	3608.2125
2966.56239	3586.0125
2969.01186	3574.2125
2971.45984	3570.4125
2973.90632	3563.3125
2976.35131	3566.6125
2978.7948	3534.4125
2981.23681	3520.8125
2983.67732	3518.6125
2986.11635	3516.9125
2988.55388	3515.7125
2990.98993	3508.5125
2993.4245	3502.0125
2995.85758	3499.0125
2998.28917	3498.2125
3000.71928	3484.7125
3003.14791	3486.5125
3005.57506	3481.4125
3008.00073	3459.7125
3010.42493	3473.7125
3012.84764	3464.2125
3015.26888	3466.4125
3017.68865	3455.0125
3020.10694	3462.3125
3022.52376	3434.1125
3024.9391	3440.5125
3027.35298	3432.8125
3029.76539	3414.5125
3032.17632	3413.9125
3034.5858	3413.4125
3036.9938	3398.4125
3039.40034	3397.6125
3041.80542	3391.4125
3044.20903	3382.3125
3046.61118	3397.9125
3049.01187	3396.9125
3051.4111	3393.3125
3053.80888	3384.1125
3056.20519	3357.9125
3058.60005	3363.5125
3060.99345	3349.7125
3063.3854	3345.9125
3065.7759	3346.1125
3068.16494	3349.9125
3070.55254	3320.4125
3072.93868	3324.0125
3075.32338	3321.6125
3077.70662	3314.1125
3080.08842	3299.1125
3082.46878	3317.3125
3084.84769	3307.4125
3087.22515	3306.9125
3089.60118	3310.8125
3091.97576	3318.8125
3094.3489	3312.2125
3096.72061	3311.4125
3099.09087	3308.5125
3101.4597	3310.1125
3103.82709	3310.4125
3106.19305	3310.9125
3108.55757	3301.1125
3110.92066	3294.6125
3113.28232	3294.5125
3115.64255	3292.3125
3118.00134	3295.9125
3120.35871	3294.3125
3122.71466	3281.6125
3125.06917	3276.2125
3127.42226	3278.3125
3129.77393	3267.3125
3132.12417	3273.3125
3134.47299	3271.5125
3136.82039	3279.2125
3139.16636	3282.2125
3141.51092	3275.1125
3143.85406	3274.7125
3146.19579	3275.3125
3148.53609	3286.1125
3150.87499	3296.3125
3153.21246	3302.2125
3155.54853	3308.0125
3157.88318	3320.0125
3160.21642	3304.9125
3162.54826	3310.4125
3164.87868	3317.5125
3167.2077	3315.0125
3169.5353	3320.1125
3171.86151	3314.4125
3174.18631	3312.5125
3176.5097	3316.1125
3178.83169	3316.5125
3181.15228	3316.4125
3183.47147	3306.3125
3185.78926	3312.6125
3188.10565	3308.0125
3190.42065	3311.3125
3192.73424	3308.9125
3195.04645	3308.9125
3197.35725	3310.8125
3199.66667	3318.5125
3201.97469	3312.8125
3204.28132	3322.9125
3206.58656	3321.6125
3208.8904	3321.8125
3211.19287	3307.7125
3213.49394	3327.6125
3215.79363	3327.6125
3218.09193	3339.7125
3220.38884	3338.4125
3222.68438	3339.5125
3224.97853	3344.2125
3227.2713	3335.2125
3229.56269	3333.2125
3231.8527	3344.2125
3234.14133	3335.2125
3236.42858	3332.3125
3238.71446	3320.6125
3240.99896	3304.3125
3243.28209	3315.1125
3245.56384	3293.8125
3247.84423	3311.7125
3250.12324	3300.7125
3252.40088	3302.0125
3254.67715	3303.3125
3256.95205	3295.9125
3259.22558	3282.2125
3261.49775	3280.0125
3263.76855	3295.4125
3266.03799	3289.6125
3268.30606	3266.7125
3270.57277	3274.4125
3272.83812	3274.6125
3275.10211	3268.0125
3277.36474	3271.1125
3279.62601	3267.0125
3281.88593	3274.4125
3284.14448	3270.2125
3286.40168	3266.8125
3288.65753	3264.0125
3290.91202	3262.3125
3293.16516	3266.6125
3295.41695	3242.0125
3297.66738	3236.3125
3299.91647	3220.6125
3302.16421	3200.9125
3304.4106	3197.6125
3306.65564	3176.5125
3308.89933	3153.0125
3311.14169	3133.8125
3313.38269	3099.1125
3315.62236	3094.7125
3317.86068	3064.7125
3320.09766	3047.2125
3322.3333	3013.7125
3324.5676	3022.1125
3326.80056	2968.2125
3329.03219	2946.4125
3331.26248	1.1125
3333.49143	-1.1875
3335.71905	-0.0875
