Data from AgNP_FTO_APTES_UA_100uM_CRN_0uM_R6G_10uM_NaF_0.1M_Addition_RamanShift__38__11-29-30-131.txt Node

Date: Thu Mar 24 11:29:30 GMT 2022
User: TCL
Spectrometer: QEP01345
Trigger mode: 4
Integration Time (sec): 7.000000E0
Scans to average: 10
Electric dark correction enabled: true
Nonlinearity correction enabled: false
Boxcar width: 0
XAxis mode: Raman Shifts
Number of Pixels in Spectrum: 1044
>>>>>Begin Spectral Data<<<<<
46.04893	-1.3125
50.45542	-0.0125
54.85868	-0.2125
59.25871	0.1875
63.6555	42.5875
68.04907	48.6875
72.43941	46.8875
76.82654	47.9875
81.21044	52.5875
85.59113	53.9875
89.96862	56.5875
94.34289	55.3875
98.71396	59.6875
103.08183	60.2875
107.4465	63.7875
111.80798	65.9875
116.16626	64.9875
120.52136	70.1875
124.87327	70.9875
129.222	74.6875
133.56755	80.3875
137.90993	80.6875
142.24913	91.5875
146.58517	106.1875
150.91804	119.6875
155.24774	147.1875
159.57429	184.7875
163.89768	237.1875
168.21792	321.3875
172.53501	441.4875
176.84895	613.9875
181.15975	859.1875
185.46741	1213.6875
189.77193	1682.5875
194.07331	2250.7875
198.37157	2903.6875
202.6667	3618.4875
206.9587	4339.8875
211.24758	5108.4875
215.53334	5939.1875
219.81599	6854.2875
224.09553	7938.5875
228.37195	9132.0875
232.64527	10402.2875
236.91549	11638.0875
241.18261	12672.7875
245.44663	13472.5875
249.70755	13986.8875
253.96539	14493.0875
258.22014	14888.8875
262.4718	15236.8875
266.72039	15379.2875
270.96589	15272.7875
275.20832	14924.6875
279.44768	14543.4875
283.68397	14187.1875
287.91719	14031.9875
292.14735	14131.5875
296.37445	14623.1875
300.59849	15496.8875
304.81948	16559.2875
309.03742	17548.0875
313.25231	17814.4875
317.46415	17035.8875
321.67296	15423.4875
325.87872	13963.0875
330.08145	13231.9875
334.28114	13130.1875
338.47781	13424.4875
342.67145	13928.2875
346.86207	14617.9875
351.04966	15789.4875
355.23424	17115.9875
359.4158	18156.7875
363.59435	18479.6875
367.76989	18406.8875
371.94243	18111.2875
376.11196	17716.9875
380.27849	17409.3875
384.44203	17053.5875
388.60257	16655.7875
392.76012	16413.2875
396.91468	16507.4875
401.06626	17006.3875
405.21485	17364.5875
409.36047	16878.0875
413.50311	15657.6875
417.64277	14493.9875
421.77947	13836.8875
425.9132	13600.3875
430.04396	13561.8875
434.17176	13659.1875
438.2966	13960.5875
442.41849	14469.2875
446.53742	15197.5875
450.6534	15893.7875
454.76644	16138.5875
458.87653	15960.9875
462.98368	15482.6875
467.08789	15007.3875
471.18916	14496.5875
475.2875	13958.3875
479.38291	13531.3875
483.4754	13221.9875
487.56496	12939.8875
491.6516	12743.2875
495.73531	12625.2875
499.81612	12639.9875
503.89401	12803.4875
507.96899	13024.5875
512.04106	13288.7875
516.11023	13497.1875
520.1765	13668.5875
524.23987	13674.3875
528.30034	13545.4875
532.35792	13331.4875
536.41261	12972.0875
540.46441	12460.9875
544.51333	12170.4875
548.55936	12272.2875
552.60252	12760.3875
556.64279	13419.3875
560.6802	13878.5875
564.71473	14433.6875
568.7464	15523.0875
572.7752	16271.7875
576.80114	15566.0875
580.82422	14614.9875
584.84444	14342.7875
588.86181	14669.3875
592.87633	15273.8875
596.888	15598.1875
600.89682	15601.1875
604.9028	17581.5875
608.90594	24413.6875
612.90624	33453.1875
616.90371	32162.8875
620.89834	20215.0875
624.89015	14091.1875
628.87913	13012.1875
632.86528	13285.0875
636.84862	13653.2875
640.82913	13253.4875
644.80683	12110.3875
648.78172	11317.5875
652.75379	11328.6875
656.72306	12138.4875
660.68952	13183.6875
664.65319	13001.0875
668.61405	11903.5875
672.57211	11385.8875
676.52738	11321.6875
680.47986	11277.6875
684.42955	11025.2875
688.37646	10831.9875
692.32058	10875.4875
696.26192	11088.5875
700.20048	11425.9875
704.13626	11639.3875
708.06928	11656.6875
711.99952	11494.2875
715.927	11441.7875
719.85171	11575.8875
723.77365	11618.9875
727.69284	11437.8875
731.60928	11227.5875
735.52295	11216.9875
739.43388	11290.6875
743.34206	11406.1875
747.24749	11498.5875
751.15017	11581.1875
755.05012	11947.2875
758.94733	13071.2875
762.8418	15830.1875
766.73354	20355.7875
770.62254	24412.4875
774.50882	26186.5875
778.39237	24813.1875
782.27321	20583.9875
786.15132	16031.4875
790.02671	13290.9875
793.89938	12001.0875
797.76935	11499.8875
801.6366	11261.4875
805.50115	11130.8875
809.36299	11024.5875
813.22213	10909.3875
817.07857	10820.3875
820.93231	10824.2875
824.78336	10899.6875
828.63172	10978.3875
832.47738	11034.3875
836.32036	10972.3875
840.16066	10871.0875
843.99827	10795.2875
847.8332	10732.7875
851.66546	10692.4875
855.49504	10689.5875
859.32195	10666.6875
863.1462	10592.9875
866.96777	10524.4875
870.78668	10486.0875
874.60293	10521.2875
878.41652	10590.1875
882.22745	10752.3875
886.03573	10889.6875
889.84136	10882.5875
893.64433	10847.2875
897.44466	10788.1875
901.24235	10785.3875
905.0374	10679.5875
908.8298	10513.9875
912.61957	10358.6875
916.40671	10416.3875
920.19121	10612.1875
923.97308	10885.6875
927.75233	11222.7875
931.52895	11473.3875
935.30295	11220.6875
939.07433	10588.1875
942.84309	10104.5875
946.60924	9863.4875
950.37278	9748.8875
954.13371	9662.3875
957.89203	9615.2875
961.64774	9566.3875
965.40086	9519.7875
969.15137	9501.1875
972.89929	9471.3875
976.64461	9434.6875
980.38733	9431.3875
984.12747	9478.0875
987.86502	9563.2875
991.59999	9686.5875
995.33237	9934.2875
999.06217	10413.2875
1002.78939	11025.7875
1006.51404	11568.7875
1010.23611	11940.0875
1013.95561	12101.6875
1017.67255	12033.0875
1021.38692	11657.7875
1025.09872	11270.4875
1028.80796	11134.3875
1032.51465	11268.6875
1036.21877	11516.7875
1039.92035	11611.0875
1043.61937	11601.5875
1047.31584	11516.3875
1051.00976	11343.4875
1054.70114	11177.4875
1058.38998	11106.3875
1062.07627	11108.6875
1065.76003	11136.5875
1069.44126	11331.7875
1073.11995	11621.2875
1076.79611	12013.8875
1080.46974	12490.0875
1084.14085	13186.5875
1087.80943	13803.8875
1091.47549	13996.4875
1095.13903	13554.0875
1098.80005	12773.6875
1102.45857	12129.2875
1106.11456	11920.5875
1109.76805	12118.9875
1113.41903	12630.7875
1117.06751	13519.3875
1120.71348	14736.7875
1124.35696	16161.3875
1127.99793	17065.1875
1131.63641	16450.5875
1135.2724	15008.5875
1138.90589	13841.5875
1142.5369	13158.4875
1146.16542	12734.9875
1149.79145	12533.5875
1153.415	12513.0875
1157.03607	12687.4875
1160.65467	13113.3875
1164.27079	13956.4875
1167.88443	15364.2875
1171.49561	17550.3875
1175.10432	20958.2875
1178.71056	25432.8875
1182.31434	28951.7875
1185.91565	29839.7875
1189.51451	28638.2875
1193.11091	26332.3875
1196.70485	23866.5875
1200.29634	21767.2875
1203.88538	19888.3875
1207.47197	17914.6875
1211.05612	16296.0875
1214.63782	15522.8875
1218.21708	15411.6875
1221.79391	15630.9875
1225.36829	15705.9875
1228.94024	15375.2875
1232.50976	14865.0875
1236.07685	14514.2875
1239.6415	14411.2875
1243.20374	14470.1875
1246.76355	14519.2875
1250.32093	14783.4875
1253.8759	15228.5875
1257.42845	16020.4875
1260.97859	16954.1875
1264.52631	17970.8875
1268.07163	18952.7875
1271.61453	19779.2875
1275.15503	20420.9875
1278.69312	20867.9875
1282.22882	21454.0875
1285.76211	22439.8875
1289.29301	23680.6875
1292.82151	24969.0875
1296.34761	26519.9875
1299.87133	28914.8875
1303.39266	32700.4875
1306.9116	38312.9875
1310.42815	44273.0875
1313.94233	46783.7875
1317.45412	44233.6875
1320.96354	39187.9875
1324.47058	34327.4875
1327.97525	30600.4875
1331.47754	28436.5875
1334.97747	27727.0875
1338.47502	28040.7875
1341.97022	29069.5875
1345.46305	30786.5875
1348.95352	33176.9875
1352.44163	36394.1875
1355.92738	41617.6875
1359.41078	49657.2875
1362.89183	56204.8875
1366.37053	52752.9875
1369.84688	42067.6875
1373.32088	32883.8875
1376.79254	27679.2875
1380.26186	24832.1875
1383.72883	23035.6875
1387.19347	21730.9875
1390.65578	20719.3875
1394.11575	20255.3875
1397.57339	20268.1875
1401.0287	20583.9875
1404.48168	20934.4875
1407.93234	21102.5875
1411.38068	21041.9875
1414.82669	20851.2875
1418.27039	20223.0875
1421.71177	19432.1875
1425.15083	18646.4875
1428.58758	18458.9875
1432.02203	18808.5875
1435.45416	19188.0875
1438.88399	19291.9875
1442.31151	19239.3875
1445.73673	19373.8875
1449.15965	19608.7875
1452.58027	19683.2875
1455.9986	19515.6875
1459.41463	19630.6875
1462.82837	20179.3875
1466.23982	20942.5875
1469.64898	21629.7875
1473.05586	21921.9875
1476.46045	22061.9875
1479.86276	22182.8875
1483.26279	22576.3875
1486.66054	23332.1875
1490.05602	24602.1875
1493.44922	26343.1875
1496.84016	29032.5875
1500.22882	33265.8875
1503.61521	39316.3875
1506.99934	46072.8875
1510.38121	51305.0875
1513.76081	51815.8875
1517.13816	46506.3875
1520.51324	38409.6875
1523.88607	31550.2875
1527.25665	27350.9875
1530.62498	25316.9875
1533.99105	24094.5875
1537.35488	23235.1875
1540.71647	22535.8875
1544.07581	22098.6875
1547.4329	21726.4875
1550.78776	21501.6875
1554.14038	21418.1875
1557.49077	21559.1875
1560.83892	22029.0875
1564.18484	22938.4875
1567.52853	24202.9875
1570.86999	25123.2875
1574.20922	25607.9875
1577.54624	25286.1875
1580.88103	23359.5875
1584.2136	21035.8875
1587.54395	19928.6875
1590.87208	20548.0875
1594.19801	22619.8875
1597.52172	25372.0875
1600.84321	26738.7875
1604.16251	25649.9875
1607.47959	23154.4875
1610.79447	20232.2875
1614.10715	17630.3875
1617.41763	15767.7875
1620.7259	14578.0875
1624.03199	14099.4875
1627.33587	14131.1875
1630.63757	14803.0875
1633.93707	16212.1875
1637.23439	18621.6875
1640.52951	22526.1875
1643.82246	28088.4875
1647.11321	34042.6875
1650.40179	37282.2875
1653.68819	34807.5875
1656.97241	27978.7875
1660.25446	21052.7875
1663.53433	16323.7875
1666.81203	13641.9875
1670.08756	12125.9875
1673.36092	11253.1875
1676.63211	10707.5875
1679.90115	10344.5875
1683.16801	10062.6875
1686.43272	9881.4875
1689.69527	9740.6875
1692.95567	9640.6875
1696.2139	9589.3875
1699.46999	9540.2875
1702.72392	9499.5875
1705.97571	9467.3875
1709.22535	9441.2875
1712.47284	9444.9875
1715.71819	9470.0875
1718.96139	9410.3875
1722.20246	9367.7875
1725.44139	9261.6875
1728.67818	9172.3875
1731.91284	9049.4875
1735.14537	8972.3875
1738.37576	8886.6875
1741.60403	8838.7875
1744.83017	8771.6875
1748.05418	8760.8875
1751.27607	8721.9875
1754.49584	8677.1875
1757.71349	8665.2875
1760.92903	8635.5875
1764.14244	8602.3875
1767.35375	8579.1875
1770.56294	8557.5875
1773.77002	8493.9875
1776.97499	8442.2875
1780.17785	8405.7875
1783.37861	8390.6875
1786.57727	8369.6875
1789.77382	8350.7875
1792.96828	8316.8875
1796.16064	8309.7875
1799.3509	8269.5875
1802.53907	8268.7875
1805.72514	8247.6875
1808.90913	8221.3875
1812.09102	8200.8875
1815.27083	8152.1875
1818.44856	8129.3875
1821.6242	8103.3875
1824.79776	8090.3875
1827.96924	8070.3875
1831.13864	8055.0875
1834.30597	8049.3875
1837.47122	8022.0875
1840.6344	7998.4875
1843.7955	8014.2875
1846.95454	8029.8875
1850.11151	8009.7875
1853.26642	8006.1875
1856.41926	8027.8875
1859.57004	8032.9875
1862.71876	8042.2875
1865.86542	8042.9875
1869.01003	8040.7875
1872.15258	8057.2875
1875.29308	8059.5875
1878.43152	8065.4875
1881.56792	8071.0875
1884.70227	8089.7875
1887.83457	8062.1875
1890.96482	8082.1875
1894.09304	8080.2875
1897.21921	8078.1875
1900.34335	8101.1875
1903.46544	8107.9875
1906.58551	8086.1875
1909.70353	8090.7875
1912.81953	8084.7875
1915.93349	8063.7875
1919.04543	8017.9875
1922.15534	8005.3875
1925.26322	7958.3875
1928.36908	7931.3875
1931.47292	7898.0875
1934.57473	7864.8875
1937.67453	7820.7875
1940.77232	7771.3875
1943.86808	7768.7875
1946.96184	7737.9875
1950.05358	7704.3875
1953.14331	7677.0875
1956.23103	7673.1875
1959.31675	7642.1875
1962.40046	7630.3875
1965.48217	7651.9875
1968.56188	7653.5875
1971.63959	7635.8875
1974.7153	7627.3875
1977.78901	7577.0875
1980.86073	7559.4875
1983.93046	7507.5875
1986.99819	7466.8875
1990.06394	7412.4875
1993.1277	7387.9875
1996.18947	7364.9875
1999.24925	7330.9875
2002.30706	7315.6875
2005.36288	7271.7875
2008.41672	7264.2875
2011.46859	7229.2875
2014.51848	7200.6875
2017.56639	7176.6875
2020.61233	7154.1875
2023.6563	7128.2875
2026.6983	7111.9875
2029.73833	7094.1875
2032.7764	7093.6875
2035.8125	7068.3875
2038.84664	7053.0875
2041.87881	7043.3875
2044.90903	7039.6875
2047.93729	7011.0875
2050.96359	7010.9875
2053.98794	7017.0875
2057.01034	6987.1875
2060.03078	6969.6875
2063.04927	6979.2875
2066.06582	6955.9875
2069.08042	6953.7875
2072.09307	6944.1875
2075.10378	6938.6875
2078.11255	6938.5875
2081.11938	6935.8875
2084.12426	6933.4875
2087.12722	6914.5875
2090.12824	6936.2875
2093.12732	6920.8875
2096.12447	6928.6875
2099.11969	6921.1875
2102.11299	6926.8875
2105.10435	6934.1875
2108.09379	6935.3875
2111.08131	6935.2875
2114.0669	6914.1875
2117.05057	6942.3875
2120.03233	6965.2875
2123.01216	6950.1875
2125.99008	6954.2875
2128.96609	6943.8875
2131.94018	6978.3875
2134.91236	6964.2875
2137.88263	6944.6875
2140.851	6925.7875
2143.81746	6924.3875
2146.78201	6912.9875
2149.74466	6907.5875
2152.7054	6880.5875
2155.66425	6867.9875
2158.6212	6872.8875
2161.57625	6869.0875
2164.52941	6837.0875
2167.48067	6812.4875
2170.43004	6829.9875
2173.37752	6808.5875
2176.32311	6812.3875
2179.26681	6824.3875
2182.20863	6818.0875
2185.14856	6840.4875
2188.08661	6805.4875
2191.02278	6830.3875
2193.95707	6789.2875
2196.88948	6790.3875
2199.82001	6776.4875
2202.74867	6757.2875
2205.67545	6758.4875
2208.60037	6771.6875
2211.52341	6739.9875
2214.44458	6739.2875
2217.36388	6714.0875
2220.28132	6716.1875
2223.1969	6689.4875
2226.11061	6662.6875
2229.02246	6643.9875
2231.93245	6649.4875
2234.84058	6646.1875
2237.74686	6627.9875
2240.65128	6633.5875
2243.55385	6630.9875
2246.45456	6622.4875
2249.35343	6613.4875
2252.25044	6629.0875
2255.14561	6625.9875
2258.03893	6616.1875
2260.93041	6623.4875
2263.82004	6619.5875
2266.70783	6599.0875
2269.59378	6595.8875
2272.4779	6561.8875
2275.36017	6559.9875
2278.24061	6537.5875
2281.11922	6529.7875
2283.996	6520.7875
2286.87094	6512.5875
2289.74405	6487.4875
2292.61534	6468.1875
2295.4848	6446.9875
2298.35243	6415.0875
2301.21824	6451.1875
2304.08223	6416.4875
2306.94439	6440.1875
2309.80474	6448.4875
2312.66327	6460.2875
2315.51999	6454.1875
2318.37489	6465.9875
2321.22797	6455.0875
2324.07925	6447.0875
2326.92871	6412.3875
2329.77637	6429.2875
2332.62222	6425.4875
2335.46626	6417.2875
2338.3085	6432.5875
2341.14893	6437.2875
2343.98756	6454.1875
2346.8244	6475.7875
2349.65943	6479.4875
2352.49267	6503.5875
2355.32411	6527.8875
2358.15376	6506.0875
2360.98161	6548.4875
2363.80768	6555.6875
2366.63195	6562.2875
2369.45444	6564.0875
2372.27514	6541.5875
2375.09405	6538.8875
2377.91118	6530.6875
2380.72652	6492.9875
2383.54009	6475.8875
2386.35187	6421.3875
2389.16188	6380.7875
2391.97011	6374.3875
2394.77657	6349.6875
2397.58125	6343.4875
2400.38416	6316.7875
2403.18529	6306.1875
2405.98466	6284.2875
2408.78226	6257.1875
2411.57809	6236.2875
2414.37216	6238.8875
2417.16446	6237.2875
2419.955	6212.8875
2422.74378	6233.1875
2425.5308	6216.5875
2428.31606	6240.7875
2431.09956	6218.5875
2433.88131	6222.5875
2436.6613	6223.9875
2439.43954	6235.5875
2442.21603	6241.3875
2444.99077	6244.1875
2447.76377	6260.8875
2450.53501	6264.3875
2453.30451	6272.8875
2456.07226	6271.0875
2458.83827	6262.9875
2461.60254	6284.0875
2464.36507	6283.8875
2467.12586	6270.6875
2469.88492	6282.6875
2472.64224	6299.1875
2475.39782	6297.6875
2478.15167	6321.2875
2480.90379	6330.4875
2483.65417	6365.9875
2486.40283	6385.0875
2489.14976	6413.1875
2491.89497	6406.0875
2494.63845	6442.7875
2497.3802	6431.4875
2500.12024	6425.7875
2502.85855	6421.1875
2505.59514	6380.7875
2508.33002	6343.9875
2511.06318	6305.5875
2513.79462	6262.2875
2516.52435	6243.9875
2519.25237	6227.0875
2521.97867	6165.7875
2524.70327	6193.1875
2527.42616	6158.1875
2530.14734	6142.0875
2532.86681	6148.1875
2535.58458	6170.6875
2538.30065	6145.3875
2541.01501	6174.7875
2543.72768	6165.2875
2546.43864	6195.8875
2549.14791	6185.7875
2551.85548	6182.9875
2554.56136	6185.8875
2557.26554	6183.4875
2559.96803	6174.2875
2562.66883	6154.1875
2565.36794	6146.3875
2568.06536	6149.9875
2570.7611	6169.8875
2573.45514	6154.0875
2576.14751	6148.2875
2578.83819	6132.3875
2581.52719	6139.9875
2584.21451	6124.1875
2586.90015	6131.4875
2589.58411	6129.4875
2592.2664	6120.5875
2594.94701	6090.6875
2597.62594	6111.7875
2600.30321	6092.4875
2602.9788	6109.8875
2605.65273	6109.5875
2608.32498	6114.8875
2610.99557	6128.6875
2613.66449	6134.1875
2616.33175	6143.6875
2618.99734	6150.1875
2621.66128	6157.9875
2624.32355	6146.6875
2626.98416	6132.9875
2629.64311	6122.4875
2632.30041	6120.9875
2634.95605	6130.3875
2637.61004	6113.2875
2640.26238	6099.9875
2642.91306	6098.6875
2645.56209	6085.2875
2648.20948	6072.1875
2650.85521	6072.7875
2653.4993	6066.4875
2656.14175	6065.9875
2658.78255	6095.4875
2661.42171	6087.3875
2664.05923	6115.0875
2666.6951	6130.3875
2669.32934	6153.8875
2671.96194	6146.2875
2674.59291	6136.8875
2677.22224	6140.3875
2679.84993	6155.7875
2682.476	6155.7875
2685.10043	6144.8875
2687.72324	6137.5875
2690.34441	6120.6875
2692.96396	6121.3875
2695.58188	6125.9875
2698.19818	6102.1875
2700.81285	6119.0875
2703.4259	6098.2875
2706.03733	6113.4875
2708.64714	6112.5875
2711.25533	6129.4875
2713.86191	6134.6875
2716.46687	6142.3875
2719.07021	6131.3875
2721.67194	6148.2875
2724.27206	6146.1875
2726.87057	6173.7875
2729.46747	6138.1875
2732.06276	6147.2875
2734.65644	6141.4875
2737.24852	6128.3875
2739.83899	6107.6875
2742.42786	6103.2875
2745.01513	6082.6875
2747.60079	6080.9875
2750.18486	6077.4875
2752.76733	6095.7875
2755.3482	6076.6875
2757.92747	6078.5875
2760.50515	6077.8875
2763.08123	6087.1875
2765.65573	6059.0875
2768.22863	6067.5875
2770.79994	6059.4875
2773.36967	6082.0875
2775.9378	6088.9875
2778.50435	6069.3875
2781.06932	6073.8875
2783.6327	6085.6875
2786.1945	6087.5875
2788.75471	6076.4875
2791.31335	6083.4875
2793.87041	6082.5875
2796.42589	6079.5875
2798.97979	6086.9875
2801.53212	6093.9875
2804.08288	6082.1875
2806.63206	6104.5875
2809.17967	6088.0875
2811.72571	6105.5875
2814.27018	6126.8875
2816.81308	6117.4875
2819.35442	6154.5875
2821.89419	6172.1875
2824.43239	6173.8875
2826.96904	6186.0875
2829.50412	6185.2875
2832.03763	6183.5875
2834.56959	6180.9875
2837.1	6158.5875
2839.62884	6176.7875
2842.15613	6144.1875
2844.68186	6175.7875
2847.20604	6183.6875
2849.72867	6223.4875
2852.24974	6248.3875
2854.76927	6243.8875
2857.28724	6257.9875
2859.80367	6272.2875
2862.31855	6266.0875
2864.83189	6286.9875
2867.34368	6282.8875
2869.85393	6321.4875
2872.36264	6308.0875
2874.8698	6323.2875
2877.37543	6317.7875
2879.87952	6336.5875
2882.38207	6312.1875
2884.88308	6306.8875
2887.38256	6287.7875
2889.88051	6296.6875
2892.37692	6285.7875
2894.8718	6280.9875
2897.36515	6281.0875
2899.85698	6277.1875
2902.34727	6283.4875
2904.83604	6263.3875
2907.32328	6281.0875
2909.809	6263.4875
2912.29319	6264.3875
2914.77587	6247.1875
2917.25702	6228.7875
2919.73665	6204.3875
2922.21476	6212.4875
2924.69136	6186.3875
2927.16644	6178.2875
2929.64	6133.3875
2932.11205	6131.3875
2934.58258	6111.0875
2937.05161	6114.0875
2939.51912	6096.4875
2941.98513	6088.9875
2944.44962	6066.0875
2946.91261	6025.2875
2949.37409	6034.8875
2951.83407	6023.4875
2954.29254	6033.1875
2956.74951	5999.5875
2959.20498	5983.9875
2961.65895	5970.0875
2964.11142	5955.1875
2966.56239	5966.5875
2969.01186	5917.2875
2971.45984	5893.4875
2973.90632	5869.8875
2976.35131	5866.0875
2978.7948	5828.4875
2981.23681	5801.5875
2983.67732	5807.9875
2986.11635	5778.4875
2988.55388	5772.7875
2990.98993	5758.2875
2993.4245	5750.9875
2995.85758	5766.1875
2998.28917	5766.0875
3000.71928	5737.7875
3003.14791	5746.0875
3005.57506	5723.3875
3008.00073	5745.6875
3010.42493	5732.5875
3012.84764	5713.2875
3015.26888	5719.6875
3017.68865	5709.9875
3020.10694	5697.1875
3022.52376	5664.8875
3024.9391	5654.3875
3027.35298	5619.1875
3029.76539	5627.5875
3032.17632	5607.8875
3034.5858	5582.4875
3036.9938	5557.8875
3039.40034	5561.2875
3041.80542	5520.9875
3044.20903	5509.9875
3046.61118	5508.2875
3049.01187	5506.4875
3051.4111	5495.2875
3053.80888	5486.5875
3056.20519	5473.4875
3058.60005	5448.8875
3060.99345	5454.2875
3063.3854	5431.9875
3065.7759	5405.0875
3068.16494	5396.5875
3070.55254	5375.6875
3072.93868	5349.7875
3075.32338	5337.9875
3077.70662	5315.8875
3080.08842	5300.9875
3082.46878	5318.3875
3084.84769	5297.6875
3087.22515	5293.6875
3089.60118	5288.9875
3091.97576	5296.3875
3094.3489	5274.5875
3096.72061	5259.4875
3099.09087	5266.6875
3101.4597	5236.7875
3103.82709	5231.7875
3106.19305	5225.6875
3108.55757	5214.6875
3110.92066	5198.5875
3113.28232	5199.8875
3115.64255	5189.6875
3118.00134	5166.8875
3120.35871	5159.6875
3122.71466	5152.5875
3125.06917	5151.6875
3127.42226	5164.4875
3129.77393	5161.2875
3132.12417	5156.2875
3134.47299	5154.3875
3136.82039	5171.0875
3139.16636	5174.7875
3141.51092	5168.6875
3143.85406	5181.8875
3146.19579	5149.8875
3148.53609	5149.4875
3150.87499	5185.0875
3153.21246	5180.5875
3155.54853	5179.8875
3157.88318	5187.3875
3160.21642	5189.5875
3162.54826	5170.5875
3164.87868	5172.9875
3167.2077	5165.3875
3169.5353	5170.0875
3171.86151	5146.2875
3174.18631	5146.8875
3176.5097	5180.6875
3178.83169	5159.3875
3181.15228	5146.0875
3183.47147	5156.9875
3185.78926	5179.1875
3188.10565	5160.0875
3190.42065	5159.4875
3192.73424	5179.2875
3195.04645	5198.6875
3197.35725	5205.3875
3199.66667	5220.4875
3201.97469	5212.2875
3204.28132	5201.2875
3206.58656	5213.6875
3208.8904	5229.5875
3211.19287	5226.6875
3213.49394	5223.7875
3215.79363	5233.5875
3218.09193	5237.7875
3220.38884	5211.9875
3222.68438	5237.0875
3224.97853	5240.7875
3227.2713	5238.4875
3229.56269	5239.4875
3231.8527	5231.9875
3234.14133	5212.0875
3236.42858	5210.4875
3238.71446	5214.3875
3240.99896	5215.4875
3243.28209	5214.8875
3245.56384	5225.4875
3247.84423	5230.0875
3250.12324	5225.9875
3252.40088	5215.9875
3254.67715	5212.2875
3256.95205	5201.9875
3259.22558	5198.5875
3261.49775	5175.5875
3263.76855	5174.4875
3266.03799	5158.2875
3268.30606	5161.5875
3270.57277	5152.4875
3272.83812	5143.4875
3275.10211	5163.6875
3277.36474	5131.9875
3279.62601	5159.1875
3281.88593	5152.4875
3284.14448	5149.7875
3286.40168	5160.4875
3288.65753	5148.9875
3290.91202	5156.0875
3293.16516	5130.5875
3295.41695	5136.9875
3297.66738	5097.9875
3299.91647	5072.7875
3302.16421	5041.9875
3304.4106	5034.1875
3306.65564	5005.4875
3308.89933	4952.9875
3311.14169	4931.5875
3313.38269	4887.8875
3315.62236	4848.6875
3317.86068	4807.4875
3320.09766	4731.6875
3322.3333	4709.8875
3324.5676	4704.2875
3326.80056	4611.6875
3329.03219	4595.5875
3331.26248	1.9875
3333.49143	-0.9125
3335.71905	-0.4125
