Data from AgNP_FTO_APTES_UA_100uM_CRN_20uM_R6G_10uM_NaF_0.1M_Addition_RamanShift__30__17-00-50-511.txt Node

Date: Thu Mar 24 17:00:50 GMT 2022
User: TCL
Spectrometer: QEP01345
Trigger mode: 4
Integration Time (sec): 7.000000E0
Scans to average: 10
Electric dark correction enabled: true
Nonlinearity correction enabled: false
Boxcar width: 0
XAxis mode: Raman Shifts
Number of Pixels in Spectrum: 1044
>>>>>Begin Spectral Data<<<<<
46.04893	-2.3
50.45542	-1.3
54.85868	0.3
59.25871	1.3
63.6555	43.9
68.04907	50.4
72.43941	49.9
76.82654	49.1
81.21044	56.5
85.59113	54.5
89.96862	56.6
94.34289	57.4
98.71396	60
103.08183	60.3
107.4465	62.8
111.80798	66.5
116.16626	66.8
120.52136	68.3
124.87327	70.9
129.222	76.2
133.56755	83.5
137.90993	86.8
142.24913	101.9
146.58517	113.6
150.91804	131.4
155.24774	162.9
159.57429	204.6
163.89768	269.9
168.21792	360.2
172.53501	501.4
176.84895	704.4
181.15975	990.1
185.46741	1389.5
189.77193	1920.1
194.07331	2595.9
198.37157	3354.9
202.6667	4174.9
206.9587	4990.3
211.24758	5868.4
215.53334	6794.3
219.81599	7840.6
224.09553	9035.4
228.37195	10389.1
232.64527	11831.2
236.91549	13229.8
241.18261	14420
245.44663	15306
249.70755	15949
253.96539	16508.1
258.22014	17045
262.4718	17495.8
266.72039	17788.4
270.96589	17825.3
275.20832	17605
279.44768	17157.7
283.68397	16769.4
287.91719	16548.1
292.14735	16685.7
296.37445	17270
300.59849	18253.9
304.81948	19482.7
309.03742	20382.1
313.25231	20513.9
317.46415	19557.8
321.67296	17788.5
325.87872	16243.6
330.08145	15445.1
334.28114	15307.5
338.47781	15604.2
342.67145	16126.7
346.86207	16938.1
351.04966	18140.7
355.23424	19505.2
359.4158	20536.5
363.59435	21021.4
367.76989	21030.9
371.94243	20844.1
376.11196	20568.7
380.27849	20234.9
384.44203	19843.4
388.60257	19419.6
392.76012	19212.7
396.91468	19362.3
401.06626	19838.9
405.21485	20183.7
409.36047	19587.5
413.50311	18214.2
417.64277	16857.3
421.77947	16070.1
425.9132	15724.3
430.04396	15719.2
434.17176	15804.5
438.2966	16082.5
442.41849	16525
446.53742	17154.2
450.6534	17742.5
454.76644	17995.8
458.87653	17913.7
462.98368	17594.7
467.08789	17174.2
471.18916	16716.5
475.2875	16177.1
479.38291	15725.2
483.4754	15377.8
487.56496	15105
491.6516	14936.6
495.73531	14854.9
499.81612	14892.3
503.89401	15117.7
507.96899	15360.1
512.04106	15674
516.11023	16048.7
520.1765	16307.8
524.23987	16306
528.30034	16170.6
532.35792	15901.7
536.41261	15587.3
540.46441	15092.7
544.51333	14906.5
548.55936	15083
552.60252	15631.3
556.64279	16226.7
560.6802	16487.2
564.71473	16766.7
568.7464	17595.5
572.7752	18072.9
576.80114	17298.4
580.82422	16389.7
584.84444	16072.4
588.86181	16131.9
592.87633	16407.7
596.888	16706.6
600.89682	17370.3
604.9028	20130.1
608.90594	27890
612.90624	38075.4
616.90371	36035.7
620.89834	23010.8
624.89015	16856.7
628.87913	15745.2
632.86528	16118.2
636.84862	16562.1
640.82913	16100
644.80683	14939.7
648.78172	14152.5
652.75379	14160.5
656.72306	15005.6
660.68952	16073.9
664.65319	15794
668.61405	14557.7
672.57211	13967.2
676.52738	13958.2
680.47986	13921.9
684.42955	13698.8
688.37646	13543.7
692.32058	13616.4
696.26192	13810.8
700.20048	14103.8
704.13626	14240.4
708.06928	14233.5
711.99952	14068.2
715.927	14029.7
719.85171	14196.4
723.77365	14281.6
727.69284	14184.2
731.60928	13982.1
735.52295	13985.7
739.43388	14033
743.34206	14118.7
747.24749	14149.6
751.15017	14207
755.05012	14560.1
758.94733	15733
762.8418	18561.3
766.73354	23337
770.62254	27835.2
774.50882	29724.8
778.39237	27767.6
782.27321	22934.9
786.15132	18354.3
790.02671	15752.6
793.89938	14559.2
797.76935	14083.6
801.6366	13874.1
805.50115	13735.3
809.36299	13668.2
813.22213	13613.9
817.07857	13562.7
820.93231	13543
824.78336	13583.7
828.63172	13689.1
832.47738	13715.9
836.32036	13655.6
840.16066	13503.9
843.99827	13438.3
847.8332	13388.9
851.66546	13348.9
855.49504	13359.1
859.32195	13369.9
863.1462	13261.4
866.96777	13234.2
870.78668	13231.1
874.60293	13263.8
878.41652	13352.6
882.22745	13498.8
886.03573	13635.2
889.84136	13618.7
893.64433	13483.4
897.44466	13461.1
901.24235	13452.3
905.0374	13378.8
908.8298	13269.5
912.61957	13133.9
916.40671	13198.6
920.19121	13386
923.97308	13582.5
927.75233	13857.9
931.52895	14102
935.30295	13917.2
939.07433	13344.5
942.84309	12873.4
946.60924	12579.9
950.37278	12443.2
954.13371	12385
957.89203	12319.5
961.64774	12301.4
965.40086	12255.9
969.15137	12228.5
972.89929	12154.8
976.64461	12149.3
980.38733	12146.8
984.12747	12180.5
987.86502	12304.4
991.59999	12424.4
995.33237	12656.9
999.06217	13024.7
1002.78939	13461
1006.51404	13931.5
1010.23611	14276.2
1013.95561	14424.6
1017.67255	14393.3
1021.38692	14131.5
1025.09872	13855.1
1028.80796	13775.8
1032.51465	13933.4
1036.21877	14210.1
1039.92035	14329.1
1043.61937	14332.6
1047.31584	14273.2
1051.00976	14108.4
1054.70114	13938.5
1058.38998	13865.5
1062.07627	13873.9
1065.76003	13946.7
1069.44126	14012.3
1073.11995	14231.2
1076.79611	14527.8
1080.46974	15014.4
1084.14085	15705.3
1087.80943	16311.5
1091.47549	16500.5
1095.13903	16106.9
1098.80005	15370.1
1102.45857	14774
1106.11456	14650.9
1109.76805	14902.8
1113.41903	15561.6
1117.06751	16578.3
1120.71348	17849.9
1124.35696	19153.4
1127.99793	19924.7
1131.63641	19304.6
1135.2724	17827.1
1138.90589	16589.2
1142.5369	15842.4
1146.16542	15364.8
1149.79145	15062.1
1153.415	15017.3
1157.03607	15218.2
1160.65467	15693.2
1164.27079	16513.3
1167.88443	17845.7
1171.49561	19869.4
1175.10432	23150
1178.71056	27476.7
1182.31434	31044.6
1185.91565	31996
1189.51451	30850.3
1193.11091	28339.1
1196.70485	25410.6
1200.29634	23223.1
1203.88538	21612.9
1207.47197	19846.6
1211.05612	18275.8
1214.63782	17320.2
1218.21708	16903.7
1221.79391	16846.3
1225.36829	16908.1
1228.94024	16792.8
1232.50976	16526.9
1236.07685	16414.9
1239.6415	16430.3
1243.20374	16537.9
1246.76355	16747.5
1250.32093	17022
1253.8759	17472.4
1257.42845	18159.1
1260.97859	19049.6
1264.52631	19952.6
1268.07163	20826.9
1271.61453	21533.8
1275.15503	21963.3
1278.69312	22203.8
1282.22882	22569.4
1285.76211	23363
1289.29301	24432.7
1292.82151	25489.7
1296.34761	26775.4
1299.87133	28847.5
1303.39266	32554.5
1306.9116	38112.3
1310.42815	43945.9
1313.94233	46301.6
1317.45412	43672.9
1320.96354	38866
1324.47058	34108
1327.97525	30117.4
1331.47754	27691.4
1334.97747	26860.3
1338.47502	27143.4
1341.97022	28423.6
1345.46305	30646.9
1348.95352	33776.8
1352.44163	37656.7
1355.92738	43453.7
1359.41078	52351.1
1362.89183	59691.7
1366.37053	56020.4
1369.84688	44210.9
1373.32088	34131.3
1376.79254	28358.4
1380.26186	25418
1383.72883	23723.7
1387.19347	22551.5
1390.65578	21453.8
1394.11575	20590.4
1397.57339	20159.8
1401.0287	20094.8
1404.48168	20177.5
1407.93234	20294.4
1411.38068	20379.9
1414.82669	20487.6
1418.27039	20400.3
1421.71177	19958.2
1425.15083	19373.9
1428.58758	19180.5
1432.02203	19545
1435.45416	19899
1438.88399	19989.2
1442.31151	19995.8
1445.73673	20154.5
1449.15965	20314
1452.58027	20224.7
1455.9986	19967.1
1459.41463	19888.9
1462.82837	20211
1466.23982	20892.7
1469.64898	21628.2
1473.05586	22076.2
1476.46045	22294.4
1479.86276	22612
1483.26279	23144.8
1486.66054	24054.9
1490.05602	25442
1493.44922	27480
1496.84016	30628.8
1500.22882	35762.4
1503.61521	42978.2
1506.99934	51118.3
1510.38121	57030.1
1513.76081	57216.2
1517.13816	50777
1520.51324	41516.2
1523.88607	33764.9
1527.25665	29137.8
1530.62498	26699
1533.99105	25297.3
1537.35488	24281.5
1540.71647	23580.5
1544.07581	23140.1
1547.4329	22852.8
1550.78776	22823.3
1554.14038	22942.5
1557.49077	23365.2
1560.83892	24102.4
1564.18484	25236.8
1567.52853	26453.5
1570.86999	27307.9
1574.20922	27766
1577.54624	27462.6
1580.88103	25609.9
1584.2136	23044.9
1587.54395	21587.7
1590.87208	21714.3
1594.19801	23233
1597.52172	25439.2
1600.84321	26482.2
1604.16251	25604.2
1607.47959	23906
1610.79447	21972.3
1614.10715	19950.8
1617.41763	18211.1
1620.7259	17060.8
1624.03199	16516.9
1627.33587	16598.3
1630.63757	17222.9
1633.93707	18451.2
1637.23439	20532
1640.52951	23927.7
1643.82246	29059.9
1647.11321	35035.7
1650.40179	38712.7
1653.68819	36611.2
1656.97241	29886.9
1660.25446	23161.2
1663.53433	18738.5
1666.81203	16239.1
1670.08756	14812.6
1673.36092	13950.4
1676.63211	13373.1
1679.90115	12994.7
1683.16801	12756.3
1686.43272	12546.8
1689.69527	12416.3
1692.95567	12304.6
1696.2139	12215.2
1699.46999	12165.7
1702.72392	12122.4
1705.97571	12101
1709.22535	12058.6
1712.47284	12065.4
1715.71819	12059.6
1718.96139	12024.5
1722.20246	12001.2
1725.44139	11876.6
1728.67818	11772.2
1731.91284	11645
1735.14537	11558.2
1738.37576	11478.7
1741.60403	11408.6
1744.83017	11377.4
1748.05418	11342.9
1751.27607	11291
1754.49584	11239.4
1757.71349	11244
1760.92903	11218.4
1764.14244	11193.9
1767.35375	11163.4
1770.56294	11084.9
1773.77002	11046.1
1776.97499	10986.1
1780.17785	10929.8
1783.37861	10922.4
1786.57727	10896.6
1789.77382	10873.3
1792.96828	10850.9
1796.16064	10849.5
1799.3509	10798.9
1802.53907	10793.8
1805.72514	10748.6
1808.90913	10709.1
1812.09102	10673.7
1815.27083	10618.7
1818.44856	10633.5
1821.6242	10574
1824.79776	10575.2
1827.96924	10540.4
1831.13864	10507.5
1834.30597	10521.3
1837.47122	10496.6
1840.6344	10471.9
1843.7955	10444.9
1846.95454	10418.9
1850.11151	10408
1853.26642	10413.5
1856.41926	10409.8
1859.57004	10434.5
1862.71876	10406.4
1865.86542	10397.6
1869.01003	10417.2
1872.15258	10401.8
1875.29308	10426.4
1878.43152	10406.4
1881.56792	10409.2
1884.70227	10406.3
1887.83457	10434
1890.96482	10419.5
1894.09304	10394.4
1897.21921	10389.3
1900.34335	10343.8
1903.46544	10356.6
1906.58551	10353.8
1909.70353	10371.8
1912.81953	10360.7
1915.93349	10343.1
1919.04543	10309.3
1922.15534	10263.3
1925.26322	10239.5
1928.36908	10210.8
1931.47292	10203.5
1934.57473	10180.1
1937.67453	10129.9
1940.77232	10094.9
1943.86808	10071.8
1946.96184	10049.7
1950.05358	9975.7
1953.14331	9971.5
1956.23103	9940.6
1959.31675	9912
1962.40046	9920.8
1965.48217	9908.6
1968.56188	9906.5
1971.63959	9883.3
1974.7153	9858.4
1977.78901	9844
1980.86073	9778.2
1983.93046	9736.9
1986.99819	9682.6
1990.06394	9637.4
1993.1277	9616.5
1996.18947	9581.5
1999.24925	9538.7
2002.30706	9500
2005.36288	9464.8
2008.41672	9439
2011.46859	9390.1
2014.51848	9406.5
2017.56639	9328.7
2020.61233	9330.1
2023.6563	9317.5
2026.6983	9320.9
2029.73833	9263.3
2032.7764	9226.8
2035.8125	9224.8
2038.84664	9204.7
2041.87881	9201.6
2044.90903	9180.4
2047.93729	9148
2050.96359	9146.4
2053.98794	9110.2
2057.01034	9116.8
2060.03078	9084.3
2063.04927	9081.3
2066.06582	9068.7
2069.08042	9058.6
2072.09307	9057
2075.10378	9043.1
2078.11255	9052.1
2081.11938	9050.7
2084.12426	9053.1
2087.12722	9045
2090.12824	9016.7
2093.12732	9035.3
2096.12447	9041
2099.11969	9034.3
2102.11299	9034.2
2105.10435	9059.1
2108.09379	9077.1
2111.08131	9071.3
2114.0669	9065.6
2117.05057	9085.8
2120.03233	9112.4
2123.01216	9128.5
2125.99008	9139.9
2128.96609	9158.8
2131.94018	9154.8
2134.91236	9117.7
2137.88263	9133.4
2140.851	9138.4
2143.81746	9134.1
2146.78201	9121.9
2149.74466	9074.8
2152.7054	9097.5
2155.66425	9066.1
2158.6212	9056.7
2161.57625	9058
2164.52941	9052.4
2167.48067	9064.5
2170.43004	9060.4
2173.37752	9042.7
2176.32311	9041.9
2179.26681	9043
2182.20863	9052
2185.14856	9089.2
2188.08661	9042
2191.02278	9061.1
2193.95707	9070.1
2196.88948	9016.8
2199.82001	9035.6
2202.74867	9016.8
2205.67545	9031.3
2208.60037	9035.6
2211.52341	9012.9
2214.44458	8999.6
2217.36388	8992.8
2220.28132	8994.3
2223.1969	8951.1
2226.11061	8933.8
2229.02246	8901.2
2231.93245	8898.8
2234.84058	8873.1
2237.74686	8862
2240.65128	8860
2243.55385	8847.1
2246.45456	8841.2
2249.35343	8832.4
2252.25044	8834.9
2255.14561	8875.1
2258.03893	8895
2260.93041	8874.3
2263.82004	8862
2266.70783	8824
2269.59378	8798.7
2272.4779	8803.7
2275.36017	8789.9
2278.24061	8771.4
2281.11922	8742.8
2283.996	8731
2286.87094	8718
2289.74405	8673.9
2292.61534	8661.7
2295.4848	8636.4
2298.35243	8640.2
2301.21824	8603
2304.08223	8632.6
2306.94439	8641.6
2309.80474	8630.2
2312.66327	8661.6
2315.51999	8652
2318.37489	8641.9
2321.22797	8632.6
2324.07925	8623.1
2326.92871	8603.9
2329.77637	8632.5
2332.62222	8606.2
2335.46626	8599.1
2338.3085	8621.3
2341.14893	8619.8
2343.98756	8625.8
2346.8244	8644.6
2349.65943	8693.8
2352.49267	8676.5
2355.32411	8709.4
2358.15376	8704.5
2360.98161	8729.3
2363.80768	8761.7
2366.63195	8760.4
2369.45444	8760.7
2372.27514	8741.9
2375.09405	8709.9
2377.91118	8702
2380.72652	8659.9
2383.54009	8603.9
2386.35187	8563.4
2389.16188	8539.7
2391.97011	8509.6
2394.77657	8477.4
2397.58125	8439.7
2400.38416	8423.5
2403.18529	8416.6
2405.98466	8401.9
2408.78226	8346.8
2411.57809	8347.2
2414.37216	8345.1
2417.16446	8352.5
2419.955	8326
2422.74378	8324.4
2425.5308	8341.1
2428.31606	8338.5
2431.09956	8321.4
2433.88131	8334.3
2436.6613	8363.9
2439.43954	8343.5
2442.21603	8344
2444.99077	8349.5
2447.76377	8344.1
2450.53501	8354.3
2453.30451	8362.8
2456.07226	8349.2
2458.83827	8360.8
2461.60254	8362.7
2464.36507	8367.9
2467.12586	8358.2
2469.88492	8359.8
2472.64224	8366.8
2475.39782	8412.7
2478.15167	8400.8
2480.90379	8434.2
2483.65417	8453.7
2486.40283	8487.5
2489.14976	8516.1
2491.89497	8496.8
2494.63845	8539.4
2497.3802	8502.6
2500.12024	8478.5
2502.85855	8485.9
2505.59514	8459.7
2508.33002	8396.4
2511.06318	8354.9
2513.79462	8320.1
2516.52435	8303.2
2519.25237	8279.4
2521.97867	8243.4
2524.70327	8228.7
2527.42616	8211.6
2530.14734	8216
2532.86681	8190.5
2535.58458	8194.2
2538.30065	8193.2
2541.01501	8207.9
2543.72768	8206.5
2546.43864	8183.5
2549.14791	8214.9
2551.85548	8235.7
2554.56136	8185.6
2557.26554	8167.5
2559.96803	8166.8
2562.66883	8145.9
2565.36794	8140.4
2568.06536	8153.3
2570.7611	8112.6
2573.45514	8100.4
2576.14751	8127.7
2578.83819	8103.8
2581.52719	8100.7
2584.21451	8091.7
2586.90015	8098.1
2589.58411	8094.5
2592.2664	8082.6
2594.94701	8061.4
2597.62594	8064.6
2600.30321	8049.9
2602.9788	8056.1
2605.65273	8045.7
2608.32498	8054.3
2610.99557	8036.9
2613.66449	8048.8
2616.33175	8071.8
2618.99734	8069.3
2621.66128	8062.4
2624.32355	8059
2626.98416	8082.1
2629.64311	8059.9
2632.30041	8053.9
2634.95605	8019.5
2637.61004	8013
2640.26238	8018.9
2642.91306	7991.6
2645.56209	7975.8
2648.20948	7970.1
2650.85521	7973.9
2653.4993	7976.8
2656.14175	7997.3
2658.78255	7989.4
2661.42171	7997.3
2664.05923	8033.9
2666.6951	8039.6
2669.32934	8060.3
2671.96194	8081.5
2674.59291	8069.2
2677.22224	8065.2
2679.84993	8056.1
2682.476	8053.9
2685.10043	8029.5
2687.72324	8025.5
2690.34441	8011.2
2692.96396	8026.5
2695.58188	8032.2
2698.19818	8019.7
2700.81285	8017.7
2703.4259	8000.8
2706.03733	8016.5
2708.64714	8005.1
2711.25533	8028.2
2713.86191	8030
2716.46687	8052.8
2719.07021	8049.6
2721.67194	8053.4
2724.27206	8048
2726.87057	8061
2729.46747	8053.2
2732.06276	8047.7
2734.65644	8030.6
2737.24852	8010
2739.83899	7997.8
2742.42786	8001.4
2745.01513	7979.7
2747.60079	7957
2750.18486	7956.8
2752.76733	7952.1
2755.3482	7954.1
2757.92747	7942.8
2760.50515	7925.5
2763.08123	7926.1
2765.65573	7901
2768.22863	7937.2
2770.79994	7915
2773.36967	7916.6
2775.9378	7892
2778.50435	7900.4
2781.06932	7906.2
2783.6327	7924.2
2786.1945	7936.9
2788.75471	7917.6
2791.31335	7914.3
2793.87041	7914.9
2796.42589	7882.8
2798.97979	7888.3
2801.53212	7883
2804.08288	7874.7
2806.63206	7866.7
2809.17967	7877.1
2811.72571	7896.7
2814.27018	7902.3
2816.81308	7900
2819.35442	7889.9
2821.89419	7926.8
2824.43239	7916.3
2826.96904	7901.4
2829.50412	7887.7
2832.03763	7886.6
2834.56959	7909.1
2837.1	7868.5
2839.62884	7888.6
2842.15613	7904.6
2844.68186	7891.7
2847.20604	7910.8
2849.72867	7906.3
2852.24974	7921.1
2854.76927	7913.5
2857.28724	7916.8
2859.80367	7932
2862.31855	7952
2864.83189	7964.7
2867.34368	7983.7
2869.85393	7981.1
2872.36264	7994.6
2874.8698	7977
2877.37543	7975.7
2879.87952	7987.5
2882.38207	7979
2884.88308	7953.9
2887.38256	7953.6
2889.88051	7942
2892.37692	7939
2894.8718	7924.8
2897.36515	7933.5
2899.85698	7923.5
2902.34727	7920.8
2904.83604	7945.1
2907.32328	7954.9
2909.809	7944.6
2912.29319	7957.7
2914.77587	7956.3
2917.25702	7941.3
2919.73665	7922.2
2922.21476	7904.2
2924.69136	7876.7
2927.16644	7881.3
2929.64	7876.2
2932.11205	7825.8
2934.58258	7815.6
2937.05161	7829.3
2939.51912	7799.8
2941.98513	7798.1
2944.44962	7770.5
2946.91261	7779.8
2949.37409	7759.6
2951.83407	7769
2954.29254	7804.5
2956.74951	7784.7
2959.20498	7789.2
2961.65895	7776.3
2964.11142	7764.3
2966.56239	7720.1
2969.01186	7728.8
2971.45984	7694.1
2973.90632	7703.8
2976.35131	7679.1
2978.7948	7649.2
2981.23681	7628.2
2983.67732	7629
2986.11635	7610.8
2988.55388	7597.4
2990.98993	7590.1
2993.4245	7567.1
2995.85758	7554
2998.28917	7549.6
3000.71928	7573.5
3003.14791	7543.4
3005.57506	7546.9
3008.00073	7518
3010.42493	7546
3012.84764	7541.9
3015.26888	7528.8
3017.68865	7506.6
3020.10694	7516.6
3022.52376	7461.8
3024.9391	7450.4
3027.35298	7445.5
3029.76539	7430.6
3032.17632	7401.2
3034.5858	7383
3036.9938	7378.2
3039.40034	7358.6
3041.80542	7361.7
3044.20903	7332.2
3046.61118	7325.9
3049.01187	7322.7
3051.4111	7302.9
3053.80888	7279.6
3056.20519	7268.9
3058.60005	7258.9
3060.99345	7231.4
3063.3854	7207.1
3065.7759	7182.6
3068.16494	7180.6
3070.55254	7157.1
3072.93868	7150.8
3075.32338	7142.5
3077.70662	7119.8
3080.08842	7098.1
3082.46878	7094.6
3084.84769	7063.4
3087.22515	7087.9
3089.60118	7096.2
3091.97576	7103.2
3094.3489	7087
3096.72061	7046.9
3099.09087	7067.6
3101.4597	7054
3103.82709	7067.8
3106.19305	7059.7
3108.55757	7047.5
3110.92066	7029.1
3113.28232	7062.8
3115.64255	7031.6
3118.00134	7005.4
3120.35871	7001.3
3122.71466	6980.1
3125.06917	6982.1
3127.42226	6976.3
3129.77393	6964.2
3132.12417	6943.2
3134.47299	6955.8
3136.82039	6949.4
3139.16636	6952.4
3141.51092	6939.3
3143.85406	6955.6
3146.19579	6965.1
3148.53609	6961
3150.87499	6969.3
3153.21246	6980.8
3155.54853	7005
3157.88318	6988.4
3160.21642	7005.5
3162.54826	7022
3164.87868	6990.4
3167.2077	6982.2
3169.5353	6984.8
3171.86151	6991.5
3174.18631	6977.7
3176.5097	6987.2
3178.83169	6988.5
3181.15228	6969.2
3183.47147	6974
3185.78926	6973.5
3188.10565	6961.2
3190.42065	6982.1
3192.73424	6975.4
3195.04645	6958.9
3197.35725	6986.1
3199.66667	7000.4
3201.97469	6991.8
3204.28132	6994
3206.58656	7021.4
3208.8904	7024.6
3211.19287	7006.9
3213.49394	7025.4
3215.79363	7038.3
3218.09193	7065.2
3220.38884	7054.8
3222.68438	7056.3
3224.97853	7038.6
3227.2713	7071.1
3229.56269	7055.9
3231.8527	7062.6
3234.14133	7060.7
3236.42858	7044.7
3238.71446	7054.5
3240.99896	7009.8
3243.28209	7009.6
3245.56384	7002.7
3247.84423	7009.3
3250.12324	6993.1
3252.40088	6986.3
3254.67715	6982.4
3256.95205	6959.4
3259.22558	7003.4
3261.49775	6995.6
3263.76855	6974.5
3266.03799	6967.4
3268.30606	6973.2
3270.57277	6952.4
3272.83812	6940.7
3275.10211	6926.7
3277.36474	6926.6
3279.62601	6928.4
3281.88593	6941.3
3284.14448	6939.7
3286.40168	6942
3288.65753	6953.1
3290.91202	6955.7
3293.16516	6924.3
3295.41695	6924.8
3297.66738	6895.7
3299.91647	6840.1
3302.16421	6805.9
3304.4106	6791.1
3306.65564	6753
3308.89933	6710.3
3311.14169	6654.4
3313.38269	6602.4
3315.62236	6534.7
3317.86068	6486.4
3320.09766	6436.9
3322.3333	6387
3324.5676	6377.8
3326.80056	6266.2
3329.03219	6240.2
3331.26248	1.7
3333.49143	0.6
3335.71905	-0.3
