Data from AgNP_FTO_APTES_UA_100uM_CRN_100uM_R6G_10uM_NaF_0.1M_Addition_RamanShift__23__18-14-20-593.txt Node

Date: Thu Mar 24 18:14:20 GMT 2022
User: TCL
Spectrometer: QEP01345
Trigger mode: 4
Integration Time (sec): 7.000000E0
Scans to average: 10
Electric dark correction enabled: true
Nonlinearity correction enabled: false
Boxcar width: 0
XAxis mode: Raman Shifts
Number of Pixels in Spectrum: 1044
>>>>>Begin Spectral Data<<<<<
46.04893	-2.0125
50.45542	0.2875
54.85868	0.0875
59.25871	1.2875
63.6555	28.8875
68.04907	31.9875
72.43941	34.4875
76.82654	34.7875
81.21044	41.2875
85.59113	40.1875
89.96862	40.4875
94.34289	39.9875
98.71396	40.7875
103.08183	43.6875
107.4465	45.1875
111.80798	47.9875
116.16626	47.5875
120.52136	46.0875
124.87327	44.2875
129.222	49.2875
133.56755	47.8875
137.90993	52.7875
142.24913	59.4875
146.58517	67.4875
150.91804	74.0875
155.24774	87.2875
159.57429	107.5875
163.89768	136.3875
168.21792	178.1875
172.53501	243.4875
176.84895	335.2875
181.15975	471.2875
185.46741	657.1875
189.77193	903.1875
194.07331	1218.0875
198.37157	1576.9875
202.6667	1945.2875
206.9587	2316.3875
211.24758	2698.9875
215.53334	3091.9875
219.81599	3513.0875
224.09553	3966.9875
228.37195	4473.5875
232.64527	5048.0875
236.91549	5626.8875
241.18261	6185.6875
245.44663	6657.0875
249.70755	7072.9875
253.96539	7377.8875
258.22014	7676.7875
262.4718	7917.1875
266.72039	8063.3875
270.96589	8142.4875
275.20832	8156.1875
279.44768	8061.9875
283.68397	7964.6875
287.91719	7895.4875
292.14735	7889.1875
296.37445	7960.4875
300.59849	8100.0875
304.81948	8291.1875
309.03742	8419.8875
313.25231	8395.0875
317.46415	8191.5875
321.67296	7842.1875
325.87872	7512.6875
330.08145	7331.6875
334.28114	7315.5875
338.47781	7405.9875
342.67145	7520.9875
346.86207	7704.7875
351.04966	7926.2875
355.23424	8167.3875
359.4158	8351.6875
363.59435	8467.2875
367.76989	8515.4875
371.94243	8504.0875
376.11196	8481.9875
380.27849	8479.6875
384.44203	8451.9875
388.60257	8456.2875
392.76012	8501.3875
396.91468	8571.5875
401.06626	8735.7875
405.21485	8818.9875
409.36047	8724.3875
413.50311	8411.4875
417.64277	8165.9875
421.77947	8011.6875
425.9132	7988.1875
430.04396	7993.4875
434.17176	8001.9875
438.2966	8090.2875
442.41849	8209.6875
446.53742	8404.5875
450.6534	8570.1875
454.76644	8734.8875
458.87653	8721.5875
462.98368	8703.5875
467.08789	8592.9875
471.18916	8486.7875
475.2875	8361.2875
479.38291	8258.0875
483.4754	8158.2875
487.56496	8081.9875
491.6516	7997.4875
495.73531	7961.2875
499.81612	7962.3875
503.89401	7994.3875
507.96899	8030.9875
512.04106	8046.5875
516.11023	8077.8875
520.1765	8097.0875
524.23987	8060.4875
528.30034	8006.4875
532.35792	7963.4875
536.41261	7870.1875
540.46441	7754.6875
544.51333	7706.6875
548.55936	7759.5875
552.60252	7910.1875
556.64279	8124.8875
560.6802	8206.3875
564.71473	8260.3875
568.7464	8421.8875
572.7752	8616.1875
576.80114	8721.3875
580.82422	8785.7875
584.84444	8947.0875
588.86181	9068.7875
592.87633	9199.8875
596.888	9285.6875
600.89682	9291.3875
604.9028	9720.4875
608.90594	11243.9875
612.90624	13193.3875
616.90371	12510.6875
620.89834	9569.2875
624.89015	8141.0875
628.87913	7943.1875
632.86528	8111.1875
636.84862	8230.5875
640.82913	8161.6875
644.80683	7829.6875
648.78172	7587.9875
652.75379	7491.1875
656.72306	7638.1875
660.68952	7882.1875
664.65319	7789.0875
668.61405	7526.7875
672.57211	7407.7875
676.52738	7409.2875
680.47986	7414.5875
684.42955	7353.2875
688.37646	7297.1875
692.32058	7289.4875
696.26192	7350.1875
700.20048	7433.6875
704.13626	7514.6875
708.06928	7527.1875
711.99952	7485.9875
715.927	7469.0875
719.85171	7490.0875
723.77365	7524.2875
727.69284	7502.9875
731.60928	7430.3875
735.52295	7390.7875
739.43388	7398.5875
743.34206	7435.2875
747.24749	7441.4875
751.15017	7466.1875
755.05012	7583.2875
758.94733	7850.2875
762.8418	8505.7875
766.73354	9727.6875
770.62254	10854.5875
774.50882	11241.7875
778.39237	10668.4875
782.27321	9491.2875
786.15132	8406.0875
790.02671	7768.3875
793.89938	7399.0875
797.76935	7266.3875
801.6366	7177.1875
805.50115	7140.3875
809.36299	7128.8875
813.22213	7099.7875
817.07857	7087.6875
820.93231	7048.6875
824.78336	7029.8875
828.63172	7035.9875
832.47738	7009.9875
836.32036	7009.4875
840.16066	6969.5875
843.99827	6942.2875
847.8332	6941.3875
851.66546	6924.8875
855.49504	6937.0875
859.32195	6919.4875
863.1462	6927.0875
866.96777	6909.1875
870.78668	6906.9875
874.60293	6916.3875
878.41652	6928.7875
882.22745	6973.1875
886.03573	7008.8875
889.84136	7022.8875
893.64433	6998.3875
897.44466	6942.7875
901.24235	6906.3875
905.0374	6870.4875
908.8298	6833.1875
912.61957	6801.7875
916.40671	6836.3875
920.19121	6899.6875
923.97308	6942.3875
927.75233	6981.5875
931.52895	6979.8875
935.30295	6843.6875
939.07433	6731.3875
942.84309	6597.1875
946.60924	6490.5875
950.37278	6458.8875
954.13371	6434.6875
957.89203	6424.2875
961.64774	6422.5875
965.40086	6419.1875
969.15137	6397.8875
972.89929	6364.9875
976.64461	6342.5875
980.38733	6326.6875
984.12747	6328.1875
987.86502	6355.3875
991.59999	6381.3875
995.33237	6442.8875
999.06217	6523.8875
1002.78939	6669.0875
1006.51404	6826.7875
1010.23611	6950.9875
1013.95561	7041.7875
1017.67255	7018.2875
1021.38692	6928.3875
1025.09872	6804.0875
1028.80796	6693.4875
1032.51465	6647.4875
1036.21877	6661.7875
1039.92035	6695.8875
1043.61937	6730.3875
1047.31584	6768.6875
1051.00976	6800.4875
1054.70114	6816.2875
1058.38998	6844.0875
1062.07627	6888.2875
1065.76003	6943.1875
1069.44126	7024.3875
1073.11995	7151.1875
1076.79611	7256.2875
1080.46974	7330.3875
1084.14085	7474.9875
1087.80943	7588.6875
1091.47549	7661.2875
1095.13903	7579.6875
1098.80005	7419.3875
1102.45857	7224.6875
1106.11456	7101.3875
1109.76805	7061.6875
1113.41903	7186.8875
1117.06751	7353.2875
1120.71348	7565.1875
1124.35696	7852.5875
1127.99793	8067.7875
1131.63641	8100.7875
1135.2724	7874.8875
1138.90589	7653.4875
1142.5369	7494.3875
1146.16542	7382.8875
1149.79145	7325.3875
1153.415	7326.6875
1157.03607	7373.3875
1160.65467	7526.4875
1164.27079	7803.5875
1167.88443	8259.1875
1171.49561	8901.0875
1175.10432	9848.1875
1178.71056	11052.1875
1182.31434	12042.6875
1185.91565	12384.4875
1189.51451	12139.5875
1193.11091	11562.7875
1196.70485	10868.9875
1200.29634	10182.9875
1203.88538	9691.2875
1207.47197	9161.7875
1211.05612	8712.3875
1214.63782	8390.7875
1218.21708	8242.0875
1221.79391	8168.6875
1225.36829	8146.6875
1228.94024	8085.3875
1232.50976	8007.1875
1236.07685	7906.9875
1239.6415	7858.4875
1243.20374	7843.7875
1246.76355	7867.2875
1250.32093	7940.7875
1253.8759	8044.6875
1257.42845	8286.7875
1260.97859	8544.7875
1264.52631	8846.8875
1268.07163	9130.6875
1271.61453	9408.1875
1275.15503	9628.4875
1278.69312	9790.2875
1282.22882	9983.8875
1285.76211	10296.1875
1289.29301	10702.4875
1292.82151	11105.6875
1296.34761	11586.0875
1299.87133	12320.0875
1303.39266	13254.8875
1306.9116	14454.6875
1310.42815	15667.4875
1313.94233	16217.0875
1317.45412	15825.8875
1320.96354	15033.0875
1324.47058	14157.0875
1327.97525	13447.9875
1331.47754	12854.8875
1334.97747	12578.4875
1338.47502	12505.9875
1341.97022	12620.6875
1345.46305	12960.8875
1348.95352	13481.3875
1352.44163	14200.9875
1355.92738	15252.4875
1359.41078	16855.7875
1362.89183	18457.5875
1366.37053	18147.7875
1369.84688	15817.7875
1373.32088	13285.8875
1376.79254	11663.4875
1380.26186	10824.6875
1383.72883	10406.0875
1387.19347	10053.8875
1390.65578	9757.3875
1394.11575	9511.7875
1397.57339	9427.4875
1401.0287	9416.1875
1404.48168	9430.7875
1407.93234	9368.0875
1411.38068	9257.3875
1414.82669	9116.0875
1418.27039	8921.9875
1421.71177	8664.1875
1425.15083	8445.1875
1428.58758	8272.5875
1432.02203	8305.6875
1435.45416	8423.0875
1438.88399	8547.0875
1442.31151	8626.7875
1445.73673	8743.6875
1449.15965	8840.2875
1452.58027	8889.5875
1455.9986	8884.5875
1459.41463	8947.4875
1462.82837	9114.1875
1466.23982	9382.3875
1469.64898	9677.3875
1473.05586	9901.6875
1476.46045	10077.2875
1479.86276	10209.2875
1483.26279	10347.6875
1486.66054	10567.2875
1490.05602	10888.1875
1493.44922	11407.7875
1496.84016	12122.7875
1500.22882	13239.3875
1503.61521	14700.3875
1506.99934	16195.2875
1510.38121	17215.0875
1513.76081	17100.4875
1517.13816	15854.4875
1520.51324	14051.2875
1523.88607	12560.5875
1527.25665	11597.1875
1530.62498	11116.9875
1533.99105	10749.7875
1537.35488	10461.6875
1540.71647	10187.8875
1544.07581	9891.7875
1547.4329	9655.2875
1550.78776	9455.7875
1554.14038	9396.9875
1557.49077	9418.0875
1560.83892	9565.3875
1564.18484	9815.3875
1567.52853	10153.4875
1570.86999	10456.5875
1574.20922	10657.0875
1577.54624	10629.9875
1580.88103	10154.8875
1584.2136	9577.8875
1587.54395	9308.5875
1590.87208	9425.1875
1594.19801	9905.0875
1597.52172	10498.2875
1600.84321	10734.4875
1604.16251	10328.5875
1607.47959	9720.0875
1610.79447	9034.3875
1614.10715	8380.7875
1617.41763	7826.6875
1620.7259	7417.4875
1624.03199	7216.8875
1627.33587	7161.4875
1630.63757	7295.2875
1633.93707	7712.8875
1637.23439	8446.9875
1640.52951	9640.2875
1643.82246	11256.6875
1647.11321	12960.1875
1650.40179	13880.1875
1653.68819	13326.8875
1656.97241	11532.0875
1660.25446	9537.1875
1663.53433	8071.6875
1666.81203	7140.8875
1670.08756	6603.8875
1673.36092	6266.6875
1676.63211	6034.2875
1679.90115	5890.6875
1683.16801	5760.2875
1686.43272	5655.3875
1689.69527	5613.9875
1692.95567	5552.6875
1696.2139	5516.5875
1699.46999	5478.4875
1702.72392	5435.2875
1705.97571	5416.0875
1709.22535	5391.8875
1712.47284	5375.3875
1715.71819	5364.4875
1718.96139	5314.6875
1722.20246	5274.2875
1725.44139	5272.4875
1728.67818	5207.1875
1731.91284	5163.0875
1735.14537	5138.1875
1738.37576	5103.3875
1741.60403	5077.1875
1744.83017	5047.4875
1748.05418	5023.6875
1751.27607	5008.3875
1754.49584	4993.4875
1757.71349	4972.0875
1760.92903	4973.4875
1764.14244	4964.8875
1767.35375	4941.4875
1770.56294	4935.0875
1773.77002	4909.3875
1776.97499	4875.8875
1780.17785	4868.5875
1783.37861	4850.8875
1786.57727	4843.6875
1789.77382	4817.9875
1792.96828	4824.0875
1796.16064	4804.5875
1799.3509	4822.6875
1802.53907	4784.2875
1805.72514	4744.4875
1808.90913	4744.2875
1812.09102	4719.1875
1815.27083	4710.4875
1818.44856	4714.2875
1821.6242	4688.9875
1824.79776	4670.3875
1827.96924	4654.6875
1831.13864	4643.0875
1834.30597	4652.3875
1837.47122	4627.7875
1840.6344	4634.7875
1843.7955	4628.4875
1846.95454	4623.7875
1850.11151	4605.2875
1853.26642	4608.4875
1856.41926	4583.7875
1859.57004	4597.8875
1862.71876	4581.0875
1865.86542	4571.1875
1869.01003	4563.2875
1872.15258	4571.1875
1875.29308	4564.5875
1878.43152	4550.0875
1881.56792	4537.6875
1884.70227	4538.2875
1887.83457	4544.8875
1890.96482	4520.4875
1894.09304	4515.9875
1897.21921	4517.0875
1900.34335	4500.0875
1903.46544	4491.1875
1906.58551	4489.0875
1909.70353	4493.8875
1912.81953	4473.2875
1915.93349	4469.0875
1919.04543	4460.0875
1922.15534	4446.9875
1925.26322	4427.0875
1928.36908	4412.9875
1931.47292	4386.3875
1934.57473	4383.5875
1937.67453	4365.5875
1940.77232	4354.7875
1943.86808	4356.5875
1946.96184	4340.8875
1950.05358	4302.6875
1953.14331	4290.8875
1956.23103	4289.0875
1959.31675	4268.3875
1962.40046	4249.1875
1965.48217	4251.5875
1968.56188	4243.3875
1971.63959	4226.3875
1974.7153	4221.6875
1977.78901	4205.7875
1980.86073	4190.5875
1983.93046	4156.0875
1986.99819	4142.0875
1990.06394	4113.4875
1993.1277	4128.6875
1996.18947	4105.1875
1999.24925	4071.5875
2002.30706	4063.6875
2005.36288	4050.7875
2008.41672	4045.5875
2011.46859	4013.6875
2014.51848	4006.1875
2017.56639	3997.3875
2020.61233	3988.4875
2023.6563	3966.0875
2026.6983	3964.0875
2029.73833	3943.9875
2032.7764	3924.2875
2035.8125	3924.9875
2038.84664	3910.6875
2041.87881	3899.6875
2044.90903	3886.2875
2047.93729	3870.5875
2050.96359	3883.9875
2053.98794	3879.6875
2057.01034	3853.4875
2060.03078	3847.6875
2063.04927	3829.2875
2066.06582	3842.6875
2069.08042	3842.6875
2072.09307	3829.2875
2075.10378	3818.2875
2078.11255	3829.0875
2081.11938	3830.4875
2084.12426	3838.0875
2087.12722	3817.7875
2090.12824	3805.0875
2093.12732	3816.5875
2096.12447	3828.6875
2099.11969	3808.7875
2102.11299	3808.1875
2105.10435	3826.4875
2108.09379	3805.5875
2111.08131	3815.6875
2114.0669	3818.8875
2117.05057	3823.5875
2120.03233	3821.1875
2123.01216	3837.9875
2125.99008	3826.6875
2128.96609	3823.2875
2131.94018	3798.6875
2134.91236	3825.9875
2137.88263	3817.5875
2140.851	3815.8875
2143.81746	3807.2875
2146.78201	3802.2875
2149.74466	3800.7875
2152.7054	3791.8875
2155.66425	3789.3875
2158.6212	3787.4875
2161.57625	3803.5875
2164.52941	3767.5875
2167.48067	3780.0875
2170.43004	3769.6875
2173.37752	3774.4875
2176.32311	3769.0875
2179.26681	3786.5875
2182.20863	3775.4875
2185.14856	3766.1875
2188.08661	3772.0875
2191.02278	3763.6875
2193.95707	3760.9875
2196.88948	3749.4875
2199.82001	3752.1875
2202.74867	3736.3875
2205.67545	3737.5875
2208.60037	3719.0875
2211.52341	3710.9875
2214.44458	3711.9875
2217.36388	3683.2875
2220.28132	3678.6875
2223.1969	3666.3875
2226.11061	3673.7875
2229.02246	3659.2875
2231.93245	3647.9875
2234.84058	3653.9875
2237.74686	3650.6875
2240.65128	3649.3875
2243.55385	3623.6875
2246.45456	3626.3875
2249.35343	3612.8875
2252.25044	3625.9875
2255.14561	3603.8875
2258.03893	3611.1875
2260.93041	3599.8875
2263.82004	3593.7875
2266.70783	3576.1875
2269.59378	3577.1875
2272.4779	3562.4875
2275.36017	3562.0875
2278.24061	3542.5875
2281.11922	3538.7875
2283.996	3523.3875
2286.87094	3526.8875
2289.74405	3515.5875
2292.61534	3500.1875
2295.4848	3497.7875
2298.35243	3500.1875
2301.21824	3472.0875
2304.08223	3482.2875
2306.94439	3469.8875
2309.80474	3474.2875
2312.66327	3481.4875
2315.51999	3473.3875
2318.37489	3468.8875
2321.22797	3453.1875
2324.07925	3458.7875
2326.92871	3458.8875
2329.77637	3438.0875
2332.62222	3440.5875
2335.46626	3427.2875
2338.3085	3429.7875
2341.14893	3420.4875
2343.98756	3429.0875
2346.8244	3417.6875
2349.65943	3425.4875
2352.49267	3438.7875
2355.32411	3434.6875
2358.15376	3440.8875
2360.98161	3433.2875
2363.80768	3429.1875
2366.63195	3435.9875
2369.45444	3452.3875
2372.27514	3437.6875
2375.09405	3436.2875
2377.91118	3424.2875
2380.72652	3420.9875
2383.54009	3381.9875
2386.35187	3392.7875
2389.16188	3374.1875
2391.97011	3355.2875
2394.77657	3355.5875
2397.58125	3335.6875
2400.38416	3332.7875
2403.18529	3317.2875
2405.98466	3298.5875
2408.78226	3303.0875
2411.57809	3309.9875
2414.37216	3291.8875
2417.16446	3294.4875
2419.955	3273.6875
2422.74378	3287.2875
2425.5308	3289.0875
2428.31606	3283.1875
2431.09956	3287.6875
2433.88131	3268.3875
2436.6613	3282.6875
2439.43954	3262.9875
2442.21603	3268.9875
2444.99077	3267.3875
2447.76377	3264.6875
2450.53501	3258.0875
2453.30451	3288.1875
2456.07226	3270.8875
2458.83827	3270.3875
2461.60254	3264.0875
2464.36507	3261.9875
2467.12586	3257.6875
2469.88492	3255.0875
2472.64224	3252.4875
2475.39782	3254.9875
2478.15167	3266.0875
2480.90379	3266.1875
2483.65417	3276.9875
2486.40283	3280.5875
2489.14976	3279.8875
2491.89497	3280.8875
2494.63845	3285.8875
2497.3802	3272.5875
2500.12024	3268.4875
2502.85855	3255.3875
2505.59514	3261.9875
2508.33002	3241.0875
2511.06318	3221.0875
2513.79462	3213.1875
2516.52435	3210.6875
2519.25237	3207.4875
2521.97867	3177.8875
2524.70327	3185.1875
2527.42616	3179.0875
2530.14734	3182.8875
2532.86681	3166.5875
2535.58458	3174.4875
2538.30065	3174.7875
2541.01501	3154.0875
2543.72768	3160.3875
2546.43864	3154.8875
2549.14791	3159.2875
2551.85548	3148.3875
2554.56136	3135.5875
2557.26554	3143.5875
2559.96803	3119.6875
2562.66883	3130.1875
2565.36794	3140.9875
2568.06536	3118.9875
2570.7611	3117.6875
2573.45514	3105.8875
2576.14751	3103.0875
2578.83819	3087.7875
2581.52719	3092.4875
2584.21451	3095.6875
2586.90015	3084.6875
2589.58411	3079.9875
2592.2664	3076.1875
2594.94701	3063.1875
2597.62594	3075.1875
2600.30321	3066.2875
2602.9788	3058.3875
2605.65273	3072.7875
2608.32498	3061.9875
2610.99557	3057.3875
2613.66449	3053.8875
2616.33175	3049.9875
2618.99734	3058.3875
2621.66128	3046.0875
2624.32355	3046.9875
2626.98416	3039.0875
2629.64311	3040.7875
2632.30041	3028.1875
2634.95605	3017.0875
2637.61004	3029.9875
2640.26238	3016.8875
2642.91306	3033.9875
2645.56209	3029.5875
2648.20948	3010.5875
2650.85521	3005.2875
2653.4993	3014.4875
2656.14175	3014.9875
2658.78255	3022.8875
2661.42171	3023.7875
2664.05923	3012.8875
2666.6951	3022.7875
2669.32934	3022.0875
2671.96194	3033.2875
2674.59291	3028.5875
2677.22224	3016.0875
2679.84993	3024.7875
2682.476	3027.1875
2685.10043	3016.5875
2687.72324	3012.4875
2690.34441	2992.1875
2692.96396	3022.3875
2695.58188	3014.7875
2698.19818	2994.3875
2700.81285	3011.2875
2703.4259	3008.0875
2706.03733	2991.2875
2708.64714	3016.9875
2711.25533	3006.5875
2713.86191	3012.8875
2716.46687	3028.3875
2719.07021	3022.2875
2721.67194	3021.2875
2724.27206	3019.9875
2726.87057	3020.4875
2729.46747	3021.8875
2732.06276	3024.4875
2734.65644	3011.4875
2737.24852	3010.1875
2739.83899	2999.1875
2742.42786	2991.8875
2745.01513	2991.7875
2747.60079	2977.2875
2750.18486	2963.3875
2752.76733	2984.7875
2755.3482	2980.8875
2757.92747	2977.4875
2760.50515	2966.5875
2763.08123	2962.9875
2765.65573	2970.3875
2768.22863	2958.5875
2770.79994	2958.1875
2773.36967	2959.6875
2775.9378	2955.3875
2778.50435	2956.3875
2781.06932	2955.2875
2783.6327	2942.8875
2786.1945	2953.5875
2788.75471	2946.7875
2791.31335	2943.0875
2793.87041	2937.8875
2796.42589	2939.9875
2798.97979	2936.3875
2801.53212	2925.9875
2804.08288	2923.8875
2806.63206	2923.2875
2809.17967	2920.9875
2811.72571	2922.0875
2814.27018	2919.7875
2816.81308	2901.0875
2819.35442	2901.8875
2821.89419	2905.4875
2824.43239	2910.0875
2826.96904	2916.3875
2829.50412	2901.6875
2832.03763	2906.7875
2834.56959	2908.6875
2837.1	2887.7875
2839.62884	2897.4875
2842.15613	2900.6875
2844.68186	2903.0875
2847.20604	2914.0875
2849.72867	2901.2875
2852.24974	2910.8875
2854.76927	2903.9875
2857.28724	2895.5875
2859.80367	2897.8875
2862.31855	2904.7875
2864.83189	2919.8875
2867.34368	2913.5875
2869.85393	2916.0875
2872.36264	2898.6875
2874.8698	2903.9875
2877.37543	2920.5875
2879.87952	2912.8875
2882.38207	2900.6875
2884.88308	2893.4875
2887.38256	2893.9875
2889.88051	2889.3875
2892.37692	2895.1875
2894.8718	2910.4875
2897.36515	2910.8875
2899.85698	2902.1875
2902.34727	2907.6875
2904.83604	2901.6875
2907.32328	2897.8875
2909.809	2904.6875
2912.29319	2906.0875
2914.77587	2914.9875
2917.25702	2912.7875
2919.73665	2894.4875
2922.21476	2910.0875
2924.69136	2897.6875
2927.16644	2894.8875
2929.64	2895.9875
2932.11205	2881.0875
2934.58258	2874.5875
2937.05161	2874.0875
2939.51912	2868.6875
2941.98513	2873.6875
2944.44962	2863.3875
2946.91261	2850.0875
2949.37409	2847.7875
2951.83407	2838.3875
2954.29254	2844.4875
2956.74951	2842.9875
2959.20498	2847.3875
2961.65895	2847.4875
2964.11142	2837.9875
2966.56239	2833.0875
2969.01186	2825.1875
2971.45984	2818.4875
2973.90632	2813.2875
2976.35131	2802.1875
2978.7948	2798.6875
2981.23681	2779.3875
2983.67732	2784.8875
2986.11635	2775.0875
2988.55388	2765.7875
2990.98993	2760.2875
2993.4245	2762.4875
2995.85758	2771.2875
2998.28917	2772.3875
3000.71928	2749.6875
3003.14791	2746.8875
3005.57506	2746.0875
3008.00073	2747.0875
3010.42493	2744.7875
3012.84764	2735.2875
3015.26888	2731.7875
3017.68865	2735.4875
3020.10694	2726.8875
3022.52376	2727.8875
3024.9391	2716.6875
3027.35298	2706.9875
3029.76539	2703.7875
3032.17632	2700.4875
3034.5858	2702.0875
3036.9938	2701.8875
3039.40034	2685.7875
3041.80542	2696.7875
3044.20903	2678.0875
3046.61118	2691.1875
3049.01187	2694.4875
3051.4111	2686.6875
3053.80888	2680.2875
3056.20519	2668.7875
3058.60005	2668.4875
3060.99345	2667.0875
3063.3854	2668.8875
3065.7759	2660.0875
3068.16494	2653.5875
3070.55254	2657.0875
3072.93868	2641.5875
3075.32338	2642.3875
3077.70662	2638.2875
3080.08842	2641.3875
3082.46878	2633.3875
3084.84769	2637.7875
3087.22515	2637.7875
3089.60118	2626.9875
3091.97576	2640.1875
3094.3489	2643.4875
3096.72061	2628.5875
3099.09087	2646.7875
3101.4597	2652.2875
3103.82709	2645.0875
3106.19305	2635.9875
3108.55757	2640.7875
3110.92066	2635.3875
3113.28232	2642.0875
3115.64255	2630.9875
3118.00134	2630.5875
3120.35871	2636.2875
3122.71466	2629.8875
3125.06917	2625.9875
3127.42226	2623.6875
3129.77393	2623.9875
3132.12417	2628.9875
3134.47299	2639.7875
3136.82039	2636.5875
3139.16636	2624.6875
3141.51092	2634.9875
3143.85406	2641.2875
3146.19579	2637.6875
3148.53609	2648.7875
3150.87499	2661.6875
3153.21246	2657.3875
3155.54853	2669.0875
3157.88318	2680.6875
3160.21642	2679.3875
3162.54826	2692.0875
3164.87868	2690.6875
3167.2077	2671.0875
3169.5353	2683.9875
3171.86151	2693.3875
3174.18631	2691.6875
3176.5097	2688.0875
3178.83169	2679.1875
3181.15228	2686.9875
3183.47147	2686.7875
3185.78926	2687.8875
3188.10565	2695.8875
3190.42065	2681.8875
3192.73424	2678.4875
3195.04645	2690.5875
3197.35725	2698.1875
3199.66667	2698.1875
3201.97469	2699.2875
3204.28132	2701.8875
3206.58656	2696.9875
3208.8904	2708.9875
3211.19287	2708.6875
3213.49394	2716.1875
3215.79363	2719.4875
3218.09193	2729.6875
3220.38884	2733.2875
3222.68438	2726.1875
3224.97853	2725.6875
3227.2713	2740.6875
3229.56269	2724.6875
3231.8527	2732.2875
3234.14133	2722.5875
3236.42858	2718.8875
3238.71446	2710.6875
3240.99896	2707.8875
3243.28209	2716.0875
3245.56384	2701.1875
3247.84423	2708.2875
3250.12324	2705.3875
3252.40088	2698.4875
3254.67715	2688.0875
3256.95205	2690.7875
3259.22558	2694.2875
3261.49775	2690.1875
3263.76855	2691.4875
3266.03799	2670.2875
3268.30606	2684.3875
3270.57277	2679.3875
3272.83812	2670.1875
3275.10211	2674.0875
3277.36474	2661.0875
3279.62601	2669.4875
3281.88593	2668.2875
3284.14448	2673.3875
3286.40168	2681.0875
3288.65753	2667.1875
3290.91202	2668.5875
3293.16516	2667.0875
3295.41695	2646.8875
3297.66738	2642.5875
3299.91647	2634.0875
3302.16421	2624.5875
3304.4106	2607.6875
3306.65564	2612.8875
3308.89933	2580.4875
3311.14169	2568.4875
3313.38269	2562.8875
3315.62236	2541.2875
3317.86068	2507.5875
3320.09766	2483.8875
3322.3333	2474.0875
3324.5676	2479.6875
3326.80056	2432.8875
3329.03219	2416.3875
3331.26248	0.5875
3333.49143	-1.0125
3335.71905	0.5875
