Data from AgNP_FTO_APTES_UA_100uM_CRN_1uM_R6G_10uM_NaF_0.1M_Addition_RamanShift__6__11-55-10-161.txt Node

Date: Thu Mar 24 11:55:10 GMT 2022
User: TCL
Spectrometer: QEP01345
Trigger mode: 4
Integration Time (sec): 7.000000E0
Scans to average: 10
Electric dark correction enabled: true
Nonlinearity correction enabled: false
Boxcar width: 0
XAxis mode: Raman Shifts
Number of Pixels in Spectrum: 1044
>>>>>Begin Spectral Data<<<<<
46.04893	-1
50.45542	-0.6
54.85868	-0.8
59.25871	-0.9
63.6555	48.9
68.04907	52.6
72.43941	57.4
76.82654	57
81.21044	60.5
85.59113	61
89.96862	62.8
94.34289	62.5
98.71396	65.8
103.08183	66.1
107.4465	68.3
111.80798	73.7
116.16626	73.6
120.52136	76.8
124.87327	78.1
129.222	83.1
133.56755	91.9
137.90993	92.7
142.24913	107.1
146.58517	115.3
150.91804	138.2
155.24774	174.1
159.57429	211.4
163.89768	277
168.21792	370.6
172.53501	509.1
176.84895	709.5
181.15975	996
185.46741	1400.6
189.77193	1924.4
194.07331	2572.3
198.37157	3336.3
202.6667	4118.7
206.9587	4898.4
211.24758	5690.9
215.53334	6504.7
219.81599	7379
224.09553	8379.2
228.37195	9457.6
232.64527	10682.7
236.91549	11899.9
241.18261	13103.5
245.44663	14069.9
249.70755	14883.5
253.96539	15522
258.22014	16019.7
262.4718	16458.1
266.72039	16736.6
270.96589	16914.6
275.20832	16836.1
279.44768	16663.8
283.68397	16460.7
287.91719	16333
292.14735	16234.7
296.37445	16303
300.59849	16491.1
304.81948	16786.5
309.03742	17007.3
313.25231	17116.7
317.46415	16933.3
321.67296	16571.3
325.87872	16213.3
330.08145	16066.2
334.28114	16048.4
338.47781	16080.9
342.67145	16311.2
346.86207	16691.4
351.04966	17124.2
355.23424	17555.8
359.4158	17836.3
363.59435	17944.3
367.76989	17891.2
371.94243	17887.9
376.11196	17893.6
380.27849	17926.7
384.44203	17967.9
388.60257	18093.7
392.76012	18199.3
396.91468	18398.2
401.06626	18617.5
405.21485	18799.4
409.36047	18546.1
413.50311	18014.7
417.64277	17627.3
421.77947	17612.3
425.9132	17653
430.04396	17785.7
434.17176	17957.7
438.2966	18247.7
442.41849	18833.5
446.53742	19827.5
450.6534	20777.7
454.76644	21262.4
458.87653	21224.3
462.98368	20798.5
467.08789	20307.1
471.18916	19774.3
475.2875	19203.2
479.38291	18750.4
483.4754	18413.6
487.56496	18106.5
491.6516	17725.6
495.73531	17406
499.81612	17221.3
503.89401	17306.3
507.96899	17383.4
512.04106	17324.2
516.11023	17196.2
520.1765	17043.9
524.23987	17072.9
528.30034	17128.3
532.35792	17092.1
536.41261	16765.8
540.46441	16329.5
544.51333	16127.6
548.55936	16203.9
552.60252	16763.7
556.64279	17476.2
560.6802	18138.3
564.71473	18513.7
568.7464	19030.8
572.7752	19968.2
576.80114	20765.2
580.82422	21362.8
584.84444	22284.3
588.86181	24194.2
592.87633	26814.8
596.888	27951.6
600.89682	26011.9
604.9028	24056.9
608.90594	25291.3
612.90624	27691.6
616.90371	25672.1
620.89834	20001
624.89015	17290.5
628.87913	16920.2
632.86528	17100.8
636.84862	17145.3
640.82913	16617.1
644.80683	15904.2
648.78172	15400.9
652.75379	15359.2
656.72306	15766.1
660.68952	16291.5
664.65319	16112
668.61405	15507
672.57211	15360.3
676.52738	15502.9
680.47986	15456.4
684.42955	15217.1
688.37646	15061.9
692.32058	15195.9
696.26192	15536.7
700.20048	15913
704.13626	16134.6
708.06928	16188.4
711.99952	16122.1
715.927	16143.6
719.85171	16232.6
723.77365	16137.4
727.69284	15843
731.60928	15596.2
735.52295	15574.4
739.43388	15786
743.34206	15918
747.24749	16033.6
751.15017	16211.4
755.05012	16593
758.94733	17304.9
762.8418	18721.3
766.73354	21152.1
770.62254	23422.8
774.50882	23768.7
778.39237	22274.8
782.27321	20024.8
786.15132	18034.1
790.02671	16735.3
793.89938	16042.3
797.76935	15682.2
801.6366	15472.9
805.50115	15349.2
809.36299	15216.5
813.22213	15104.8
817.07857	14995.2
820.93231	14933.3
824.78336	14841
828.63172	14802.1
832.47738	14761.1
836.32036	14777.8
840.16066	14784.1
843.99827	14770.4
847.8332	14776.8
851.66546	14766
855.49504	14821.6
859.32195	14794.4
863.1462	14716.8
866.96777	14605.7
870.78668	14572.9
874.60293	14617.5
878.41652	14664.1
882.22745	14773.9
886.03573	14876.8
889.84136	14877.3
893.64433	14793.9
897.44466	14710.4
901.24235	14664.5
905.0374	14585.3
908.8298	14458.7
912.61957	14436.6
916.40671	14569.3
920.19121	14863.9
923.97308	15193.5
927.75233	15331.9
931.52895	15166.1
935.30295	14743.1
939.07433	14250.4
942.84309	13939.1
946.60924	13788.8
950.37278	13725.3
954.13371	13769.8
957.89203	13781.2
961.64774	13789
965.40086	13810.4
969.15137	13807.4
972.89929	13788.2
976.64461	13718
980.38733	13673.2
984.12747	13699.3
987.86502	13777.5
991.59999	13911.7
995.33237	14139
999.06217	14571.4
1002.78939	15223.4
1006.51404	15892.5
1010.23611	16454.7
1013.95561	16783.6
1017.67255	16788.4
1021.38692	16343.6
1025.09872	15604.1
1028.80796	15080.5
1032.51465	14937.5
1036.21877	15030.9
1039.92035	15108.1
1043.61937	15213.1
1047.31584	15208.2
1051.00976	15184.4
1054.70114	15194.6
1058.38998	15226.5
1062.07627	15353.4
1065.76003	15517.1
1069.44126	15792.8
1073.11995	16209
1076.79611	16596.5
1080.46974	16919.1
1084.14085	17289.3
1087.80943	17721.6
1091.47549	17941.4
1095.13903	17818
1098.80005	17331.9
1102.45857	16696.7
1106.11456	16330.9
1109.76805	16281.9
1113.41903	16472.2
1117.06751	16767.4
1120.71348	17226.6
1124.35696	17654.5
1127.99793	18045.5
1131.63641	18135.3
1135.2724	17902.7
1138.90589	17647.2
1142.5369	17633.9
1146.16542	17817.8
1149.79145	18111
1153.415	18407.5
1157.03607	18691.3
1160.65467	19197.4
1164.27079	20193.9
1167.88443	21728.3
1171.49561	23883
1175.10432	26885.3
1178.71056	30657.5
1182.31434	33880
1185.91565	34836.1
1189.51451	33573.7
1193.11091	31582.8
1196.70485	29479.3
1200.29634	27539.9
1203.88538	25974
1207.47197	24850.4
1211.05612	24112.6
1214.63782	23601.2
1218.21708	23392
1221.79391	23550
1225.36829	23802.8
1228.94024	23750.5
1232.50976	23011.1
1236.07685	21879.9
1239.6415	21090.5
1243.20374	20766.9
1246.76355	20791.6
1250.32093	21013.8
1253.8759	21531.2
1257.42845	22330.4
1260.97859	23326.8
1264.52631	24466.2
1268.07163	25512.9
1271.61453	26455.1
1275.15503	27431.2
1278.69312	28468.7
1282.22882	29698.4
1285.76211	31509.7
1289.29301	33708.6
1292.82151	36127
1296.34761	38812.3
1299.87133	41950.7
1303.39266	45450.6
1306.9116	48943.8
1310.42815	52193.8
1313.94233	53839.8
1317.45412	52806.7
1320.96354	50078.9
1324.47058	47109.8
1327.97525	44633.7
1331.47754	42791.9
1334.97747	41474.3
1338.47502	40544.9
1341.97022	39980.8
1345.46305	39616.1
1348.95352	39854.2
1352.44163	41131.9
1355.92738	43973.2
1359.41078	48325
1362.89183	52304.2
1366.37053	52205.9
1369.84688	46736.3
1373.32088	39491.8
1376.79254	34820.4
1380.26186	33047.1
1383.72883	32621.6
1387.19347	32171.9
1390.65578	31628.6
1394.11575	31459.5
1397.57339	31774.1
1401.0287	32186.6
1404.48168	32358.9
1407.93234	32010.6
1411.38068	31131.1
1414.82669	30070.3
1418.27039	28882.2
1421.71177	27608.4
1425.15083	26495.6
1428.58758	26010.7
1432.02203	26396.3
1435.45416	27208.3
1438.88399	27973.3
1442.31151	28426.3
1445.73673	28648.2
1449.15965	28878.4
1452.58027	28779.5
1455.9986	28628.7
1459.41463	28683.4
1462.82837	29239.5
1466.23982	30178.5
1469.64898	31052.8
1473.05586	31711.4
1476.46045	32161.4
1479.86276	32374.2
1483.26279	32394.9
1486.66054	32720.2
1490.05602	33402.8
1493.44922	34298.4
1496.84016	35088.7
1500.22882	35994.9
1503.61521	37199.9
1506.99934	38653.5
1510.38121	39678.6
1513.76081	39470.3
1517.13816	37846.9
1520.51324	35625.1
1523.88607	34002
1527.25665	33459
1530.62498	33438.1
1533.99105	33243.7
1537.35488	32563.3
1540.71647	31418.1
1544.07581	29975.1
1547.4329	28616.5
1550.78776	27477.4
1554.14038	26693.4
1557.49077	26341.9
1560.83892	26354.8
1564.18484	26649.5
1567.52853	27212.1
1570.86999	27881.8
1574.20922	28610
1577.54624	28959.4
1580.88103	28517.2
1584.2136	28169.8
1587.54395	28868.6
1590.87208	30827.5
1594.19801	33742.3
1597.52172	36711.9
1600.84321	37843.4
1604.16251	35759.5
1607.47959	31866.5
1610.79447	27653
1614.10715	24094.5
1617.41763	21590.8
1620.7259	20107.3
1624.03199	19401.7
1627.33587	19575.2
1630.63757	20498.1
1633.93707	22570.3
1637.23439	26321
1640.52951	32296.2
1643.82246	39845.1
1647.11321	46104.7
1650.40179	47295.5
1653.68819	42372
1656.97241	34212.9
1660.25446	26799.1
1663.53433	21665.8
1666.81203	18575.7
1670.08756	16790.1
1673.36092	15719.7
1676.63211	15055.2
1679.90115	14571.7
1683.16801	14260.6
1686.43272	13989.5
1689.69527	13781.9
1692.95567	13634.8
1696.2139	13502.1
1699.46999	13414.8
1702.72392	13348.8
1705.97571	13304.4
1709.22535	13238.4
1712.47284	13244.9
1715.71819	13218.4
1718.96139	13143.8
1722.20246	13104.3
1725.44139	13001.2
1728.67818	12889.7
1731.91284	12773.5
1735.14537	12651
1738.37576	12557.5
1741.60403	12463.8
1744.83017	12416.1
1748.05418	12398.9
1751.27607	12316
1754.49584	12283.7
1757.71349	12232.3
1760.92903	12219.7
1764.14244	12220
1767.35375	12191.9
1770.56294	12180.7
1773.77002	12160.3
1776.97499	12116.9
1780.17785	12060.1
1783.37861	12031.7
1786.57727	12015.3
1789.77382	11978.6
1792.96828	11957.9
1796.16064	11920
1799.3509	11890.3
1802.53907	11846.2
1805.72514	11793.3
1808.90913	11772.5
1812.09102	11743.3
1815.27083	11717.5
1818.44856	11689.3
1821.6242	11658.8
1824.79776	11641.2
1827.96924	11641.6
1831.13864	11598.9
1834.30597	11598.6
1837.47122	11611
1840.6344	11608.2
1843.7955	11580.1
1846.95454	11561.1
1850.11151	11576.8
1853.26642	11552
1856.41926	11551.1
1859.57004	11554.8
1862.71876	11530.3
1865.86542	11509.1
1869.01003	11517.7
1872.15258	11503.3
1875.29308	11517.8
1878.43152	11490.6
1881.56792	11498.9
1884.70227	11490.5
1887.83457	11483.6
1890.96482	11472
1894.09304	11476.1
1897.21921	11453.5
1900.34335	11454.8
1903.46544	11450.7
1906.58551	11434.2
1909.70353	11408.8
1912.81953	11391.2
1915.93349	11360.5
1919.04543	11350.6
1922.15534	11296.8
1925.26322	11264.8
1928.36908	11207.8
1931.47292	11197.1
1934.57473	11139.7
1937.67453	11123.9
1940.77232	11073.2
1943.86808	11044.6
1946.96184	10997.5
1950.05358	10994
1953.14331	10966.3
1956.23103	10962.6
1959.31675	10934.6
1962.40046	10878.4
1965.48217	10862.8
1968.56188	10805
1971.63959	10779.1
1974.7153	10727.7
1977.78901	10712.7
1980.86073	10657.4
1983.93046	10615.5
1986.99819	10578.9
1990.06394	10563
1993.1277	10493.9
1996.18947	10472.5
1999.24925	10443
2002.30706	10381.6
2005.36288	10363.2
2008.41672	10331.7
2011.46859	10311.9
2014.51848	10271.5
2017.56639	10238.5
2020.61233	10202.2
2023.6563	10174.1
2026.6983	10153.3
2029.73833	10151.7
2032.7764	10119.1
2035.8125	10063.7
2038.84664	10059.7
2041.87881	10045.4
2044.90903	10011.9
2047.93729	9991.9
2050.96359	9984.8
2053.98794	9972.7
2057.01034	9931.3
2060.03078	9931.9
2063.04927	9920.1
2066.06582	9909
2069.08042	9912.7
2072.09307	9899.7
2075.10378	9894.3
2078.11255	9910
2081.11938	9909.5
2084.12426	9936.8
2087.12722	9931.5
2090.12824	9919.5
2093.12732	9927.5
2096.12447	9922.9
2099.11969	9932.6
2102.11299	9935.2
2105.10435	9908.5
2108.09379	9930.6
2111.08131	9926.3
2114.0669	9930.4
2117.05057	9929.7
2120.03233	9931
2123.01216	9939.7
2125.99008	9918.4
2128.96609	9915.2
2131.94018	9921.9
2134.91236	9912.2
2137.88263	9912.9
2140.851	9892.2
2143.81746	9877.7
2146.78201	9885.4
2149.74466	9879.2
2152.7054	9885.5
2155.66425	9853.1
2158.6212	9841.3
2161.57625	9855.3
2164.52941	9804.1
2167.48067	9794.7
2170.43004	9828.2
2173.37752	9783.1
2176.32311	9772.5
2179.26681	9784.8
2182.20863	9782.1
2185.14856	9767.3
2188.08661	9768.6
2191.02278	9781.7
2193.95707	9774.5
2196.88948	9738.5
2199.82001	9705
2202.74867	9725.7
2205.67545	9686.8
2208.60037	9651.8
2211.52341	9635.5
2214.44458	9661.3
2217.36388	9612.5
2220.28132	9600.6
2223.1969	9567.1
2226.11061	9595.2
2229.02246	9553.1
2231.93245	9568.2
2234.84058	9545.4
2237.74686	9548.3
2240.65128	9535.3
2243.55385	9541.6
2246.45456	9502.9
2249.35343	9462
2252.25044	9460.9
2255.14561	9439.1
2258.03893	9423
2260.93041	9398
2263.82004	9362.7
2266.70783	9319.6
2269.59378	9301.7
2272.4779	9291
2275.36017	9268
2278.24061	9261
2281.11922	9239.1
2283.996	9212.8
2286.87094	9212
2289.74405	9170.9
2292.61534	9163.7
2295.4848	9154.9
2298.35243	9167.6
2301.21824	9166.7
2304.08223	9155
2306.94439	9148.1
2309.80474	9122.6
2312.66327	9136.4
2315.51999	9124.7
2318.37489	9140.4
2321.22797	9111.2
2324.07925	9100.1
2326.92871	9093.9
2329.77637	9078.3
2332.62222	9071.4
2335.46626	9044.8
2338.3085	9064.5
2341.14893	9065.1
2343.98756	9056.4
2346.8244	9070.4
2349.65943	9085.5
2352.49267	9075.7
2355.32411	9089.5
2358.15376	9084.8
2360.98161	9062.9
2363.80768	9079.4
2366.63195	9080.6
2369.45444	9048.4
2372.27514	9065.4
2375.09405	9043.5
2377.91118	9012.4
2380.72652	8993.5
2383.54009	8967.5
2386.35187	8962.5
2389.16188	8916.3
2391.97011	8891.3
2394.77657	8886.2
2397.58125	8896.9
2400.38416	8859.9
2403.18529	8834.2
2405.98466	8835.9
2408.78226	8824.2
2411.57809	8814
2414.37216	8792.4
2417.16446	8801.2
2419.955	8759.1
2422.74378	8753.8
2425.5308	8765
2428.31606	8748.6
2431.09956	8733.9
2433.88131	8729.4
2436.6613	8754.6
2439.43954	8763.6
2442.21603	8743.3
2444.99077	8749
2447.76377	8759.1
2450.53501	8765.6
2453.30451	8759.3
2456.07226	8772.9
2458.83827	8784
2461.60254	8792.8
2464.36507	8761.7
2467.12586	8756.4
2469.88492	8767.9
2472.64224	8756
2475.39782	8762.6
2478.15167	8769.4
2480.90379	8758.5
2483.65417	8783.3
2486.40283	8798.6
2489.14976	8786.5
2491.89497	8793.3
2494.63845	8822.7
2497.3802	8807.3
2500.12024	8789.1
2502.85855	8833
2505.59514	8791.6
2508.33002	8786.2
2511.06318	8756.6
2513.79462	8752.2
2516.52435	8737.2
2519.25237	8738
2521.97867	8707.2
2524.70327	8706.7
2527.42616	8673.2
2530.14734	8694.8
2532.86681	8673.2
2535.58458	8671.5
2538.30065	8673.8
2541.01501	8679.8
2543.72768	8684.1
2546.43864	8664.5
2549.14791	8656.4
2551.85548	8646.3
2554.56136	8660.2
2557.26554	8658.1
2559.96803	8649.3
2562.66883	8637.1
2565.36794	8663.8
2568.06536	8646.5
2570.7611	8651.9
2573.45514	8641.1
2576.14751	8646.8
2578.83819	8639.7
2581.52719	8638.3
2584.21451	8610.1
2586.90015	8604.6
2589.58411	8571.5
2592.2664	8579.6
2594.94701	8577.5
2597.62594	8561.1
2600.30321	8572.5
2602.9788	8548.4
2605.65273	8570.6
2608.32498	8562.6
2610.99557	8545.1
2613.66449	8565.9
2616.33175	8611.6
2618.99734	8587.2
2621.66128	8569.7
2624.32355	8566.4
2626.98416	8567.4
2629.64311	8563.6
2632.30041	8559.6
2634.95605	8526.9
2637.61004	8536.9
2640.26238	8498.3
2642.91306	8530.5
2645.56209	8538.8
2648.20948	8542.4
2650.85521	8546.8
2653.4993	8543.1
2656.14175	8573.5
2658.78255	8594.5
2661.42171	8602.1
2664.05923	8610.8
2666.6951	8624.1
2669.32934	8618.5
2671.96194	8603.1
2674.59291	8629
2677.22224	8620.6
2679.84993	8624.9
2682.476	8612.3
2685.10043	8623.2
2687.72324	8584.3
2690.34441	8616.8
2692.96396	8603.5
2695.58188	8609.4
2698.19818	8583.5
2700.81285	8606.6
2703.4259	8591.3
2706.03733	8591.5
2708.64714	8579.5
2711.25533	8580.6
2713.86191	8579.7
2716.46687	8622.4
2719.07021	8636.6
2721.67194	8654
2724.27206	8641.3
2726.87057	8633.1
2729.46747	8640.1
2732.06276	8669.6
2734.65644	8658.6
2737.24852	8662.2
2739.83899	8637.2
2742.42786	8647.6
2745.01513	8636.1
2747.60079	8627
2750.18486	8631.8
2752.76733	8614.6
2755.3482	8613.8
2757.92747	8632.9
2760.50515	8613.3
2763.08123	8640.8
2765.65573	8629.1
2768.22863	8637.7
2770.79994	8638.7
2773.36967	8619.2
2775.9378	8613.1
2778.50435	8620.4
2781.06932	8632.5
2783.6327	8604.8
2786.1945	8602.3
2788.75471	8597.5
2791.31335	8585.8
2793.87041	8573.4
2796.42589	8548.9
2798.97979	8537.9
2801.53212	8568
2804.08288	8563.2
2806.63206	8535
2809.17967	8540.9
2811.72571	8526
2814.27018	8531.8
2816.81308	8503.5
2819.35442	8494.7
2821.89419	8499.2
2824.43239	8508.3
2826.96904	8492.5
2829.50412	8501.6
2832.03763	8475.5
2834.56959	8468.8
2837.1	8475.2
2839.62884	8451.6
2842.15613	8452.5
2844.68186	8450.6
2847.20604	8466.6
2849.72867	8459.6
2852.24974	8444.5
2854.76927	8430.9
2857.28724	8444.2
2859.80367	8453.6
2862.31855	8437.9
2864.83189	8439.5
2867.34368	8432.3
2869.85393	8422.4
2872.36264	8443.8
2874.8698	8438.7
2877.37543	8426.6
2879.87952	8455.7
2882.38207	8437.8
2884.88308	8426.7
2887.38256	8438.8
2889.88051	8438.4
2892.37692	8415
2894.8718	8456.9
2897.36515	8450.6
2899.85698	8451
2902.34727	8465.4
2904.83604	8470.9
2907.32328	8470.2
2909.809	8458.7
2912.29319	8465.5
2914.77587	8472.5
2917.25702	8455.8
2919.73665	8468.1
2922.21476	8466.1
2924.69136	8450.6
2927.16644	8448.2
2929.64	8421.2
2932.11205	8401
2934.58258	8373.4
2937.05161	8390.2
2939.51912	8383.8
2941.98513	8376.5
2944.44962	8359.7
2946.91261	8319.5
2949.37409	8364.2
2951.83407	8329
2954.29254	8335.4
2956.74951	8308.9
2959.20498	8302.2
2961.65895	8260.5
2964.11142	8265
2966.56239	8227.8
2969.01186	8225.1
2971.45984	8187.8
2973.90632	8189.4
2976.35131	8149
2978.7948	8116.2
2981.23681	8079.4
2983.67732	8063.1
2986.11635	8019.6
2988.55388	7998.6
2990.98993	7966.4
2993.4245	7967.9
2995.85758	7953.4
2998.28917	7948.2
3000.71928	7913.2
3003.14791	7926.1
3005.57506	7905.9
3008.00073	7875.9
3010.42493	7868.9
3012.84764	7856.9
3015.26888	7843
3017.68865	7822.5
3020.10694	7798.4
3022.52376	7775.4
3024.9391	7766.1
3027.35298	7772.1
3029.76539	7718.8
3032.17632	7713
3034.5858	7712
3036.9938	7693.4
3039.40034	7700.2
3041.80542	7711.9
3044.20903	7660.1
3046.61118	7663.7
3049.01187	7625.5
3051.4111	7647
3053.80888	7617.9
3056.20519	7591.9
3058.60005	7587.1
3060.99345	7555.5
3063.3854	7546.7
3065.7759	7525.8
3068.16494	7536.6
3070.55254	7496.3
3072.93868	7467.2
3075.32338	7422.3
3077.70662	7413
3080.08842	7420.3
3082.46878	7398.2
3084.84769	7391.5
3087.22515	7376
3089.60118	7356.9
3091.97576	7348.3
3094.3489	7345
3096.72061	7328.9
3099.09087	7331.5
3101.4597	7326.2
3103.82709	7293.9
3106.19305	7287.4
3108.55757	7255.1
3110.92066	7228.4
3113.28232	7223
3115.64255	7214.8
3118.00134	7200.7
3120.35871	7192.6
3122.71466	7166.2
3125.06917	7144.7
3127.42226	7150.5
3129.77393	7163.6
3132.12417	7150.4
3134.47299	7143.6
3136.82039	7122.9
3139.16636	7148.3
3141.51092	7138.2
3143.85406	7137.4
3146.19579	7128.2
3148.53609	7098.1
3150.87499	7115.9
3153.21246	7105
3155.54853	7122.1
3157.88318	7095
3160.21642	7093.9
3162.54826	7062.6
3164.87868	7057.3
3167.2077	7043.8
3169.5353	7061
3171.86151	7063.3
3174.18631	7039.8
3176.5097	7050.4
3178.83169	7043.3
3181.15228	7058.8
3183.47147	7022.3
3185.78926	7033.3
3188.10565	7001.1
3190.42065	7015
3192.73424	7018.5
3195.04645	7025.3
3197.35725	7011.4
3199.66667	6996.4
3201.97469	7010.1
3204.28132	6995.2
3206.58656	6976.1
3208.8904	6978.7
3211.19287	6983.3
3213.49394	6981.2
3215.79363	6953.6
3218.09193	6969
3220.38884	6946.1
3222.68438	6963.9
3224.97853	6965.1
3227.2713	6942.3
3229.56269	6948.8
3231.8527	6936
3234.14133	6943.2
3236.42858	6910.7
3238.71446	6909.9
3240.99896	6912.3
3243.28209	6913.9
3245.56384	6899.2
3247.84423	6895.2
3250.12324	6887.1
3252.40088	6855.9
3254.67715	6851.1
3256.95205	6824.4
3259.22558	6804
3261.49775	6788
3263.76855	6791.2
3266.03799	6771
3268.30606	6774
3270.57277	6754.4
3272.83812	6746.3
3275.10211	6729.2
3277.36474	6736.8
3279.62601	6747.8
3281.88593	6731.6
3284.14448	6745.7
3286.40168	6756.5
3288.65753	6747.1
3290.91202	6754.7
3293.16516	6732.7
3295.41695	6714.7
3297.66738	6675.3
3299.91647	6644
3302.16421	6596.8
3304.4106	6572.8
3306.65564	6561.6
3308.89933	6526.6
3311.14169	6467.4
3313.38269	6421.6
3315.62236	6378.8
3317.86068	6301.7
3320.09766	6242.4
3322.3333	6181.4
3324.5676	6188.9
3326.80056	6073.6
3329.03219	6042
3331.26248	3.8
3333.49143	-1.3
3335.71905	1.2
