Data from AgNP_FTO_APTES_UA_100uM_CRN_10uM_R6G_10uM_NaF_0.1M_Addition_RamanShift__37__16-00-10-444.txt Node

Date: Thu Mar 24 16:00:10 GMT 2022
User: TCL
Spectrometer: QEP01345
Trigger mode: 4
Integration Time (sec): 7.000000E0
Scans to average: 10
Electric dark correction enabled: true
Nonlinearity correction enabled: false
Boxcar width: 0
XAxis mode: Raman Shifts
Number of Pixels in Spectrum: 1044
>>>>>Begin Spectral Data<<<<<
46.04893	-0.7625
50.45542	0.6375
54.85868	0.2375
59.25871	-0.8625
63.6555	24.8375
68.04907	29.4375
72.43941	29.3375
76.82654	28.6375
81.21044	32.1375
85.59113	32.8375
89.96862	37.9375
94.34289	32.7375
98.71396	36.8375
103.08183	38.1375
107.4465	38.7375
111.80798	42.4375
116.16626	40.0375
120.52136	40.8375
124.87327	40.4375
129.222	46.0375
133.56755	47.3375
137.90993	47.1375
142.24913	56.6375
146.58517	59.5375
150.91804	67.3375
155.24774	83.6375
159.57429	98.6375
163.89768	127.3375
168.21792	169.2375
172.53501	227.7375
176.84895	322.2375
181.15975	456.2375
185.46741	637.8375
189.77193	879.2375
194.07331	1183.3375
198.37157	1543.2375
202.6667	1913.2375
206.9587	2276.6375
211.24758	2640.6375
215.53334	3012.3375
219.81599	3414.3375
224.09553	3863.4375
228.37195	4343.9375
232.64527	4881.4375
236.91549	5445.1375
241.18261	5982.8375
245.44663	6491.5375
249.70755	6896.3375
253.96539	7246.3375
258.22014	7516.8375
262.4718	7764.4375
266.72039	7962.5375
270.96589	8028.9375
275.20832	8027.7375
279.44768	7932.4375
283.68397	7822.9375
287.91719	7722.7375
292.14735	7677.6375
296.37445	7704.1375
300.59849	7840.1375
304.81948	8030.4375
309.03742	8166.4375
313.25231	8165.0375
317.46415	8008.0375
321.67296	7715.6375
325.87872	7445.6375
330.08145	7293.2375
334.28114	7281.4375
338.47781	7347.3375
342.67145	7470.5375
346.86207	7670.3375
351.04966	7908.4375
355.23424	8144.4375
359.4158	8347.7375
363.59435	8486.3375
367.76989	8555.0375
371.94243	8586.8375
376.11196	8572.7375
380.27849	8576.6375
384.44203	8535.8375
388.60257	8555.5375
392.76012	8574.1375
396.91468	8658.7375
401.06626	8803.5375
405.21485	8926.5375
409.36047	8829.0375
413.50311	8546.9375
417.64277	8298.3375
421.77947	8162.1375
425.9132	8091.4375
430.04396	8124.1375
434.17176	8156.1375
438.2966	8187.9375
442.41849	8284.6375
446.53742	8426.1375
450.6534	8590.2375
454.76644	8671.1375
458.87653	8710.5375
462.98368	8686.7375
467.08789	8671.0375
471.18916	8577.2375
475.2875	8454.3375
479.38291	8323.6375
483.4754	8226.4375
487.56496	8188.1375
491.6516	8189.8375
495.73531	8144.4375
499.81612	8143.6375
503.89401	8221.4375
507.96899	8303.8375
512.04106	8344.2375
516.11023	8394.0375
520.1765	8436.7375
524.23987	8451.8375
528.30034	8401.9375
532.35792	8348.1375
536.41261	8275.3375
540.46441	8165.7375
544.51333	8108.5375
548.55936	8150.3375
552.60252	8261.9375
556.64279	8394.4375
560.6802	8448.8375
564.71473	8484.7375
568.7464	8580.3375
572.7752	8695.3375
576.80114	8698.5375
580.82422	8701.8375
584.84444	8793.1375
588.86181	8894.2375
592.87633	8986.1375
596.888	9113.9375
600.89682	9208.3375
604.9028	9667.0375
608.90594	11186.2375
612.90624	13205.3375
616.90371	12726.9375
620.89834	9970.2375
624.89015	8612.6375
628.87913	8343.4375
632.86528	8454.9375
636.84862	8616.7375
640.82913	8583.5375
644.80683	8294.5375
648.78172	8115.2375
652.75379	8079.8375
656.72306	8266.0375
660.68952	8490.7375
664.65319	8465.9375
668.61405	8202.7375
672.57211	8093.7375
676.52738	8108.9375
680.47986	8090.8375
684.42955	8034.6375
688.37646	8013.8375
692.32058	7975.7375
696.26192	8047.3375
700.20048	8140.9375
704.13626	8184.1375
708.06928	8196.0375
711.99952	8142.8375
715.927	8130.1375
719.85171	8140.3375
723.77365	8167.7375
727.69284	8135.8375
731.60928	8097.1375
735.52295	8080.9375
739.43388	8090.0375
743.34206	8111.0375
747.24749	8117.1375
751.15017	8101.7375
755.05012	8190.1375
758.94733	8423.9375
762.8418	9007.9375
766.73354	10035.0375
770.62254	11127.3375
774.50882	11563.2375
778.39237	11133.2375
782.27321	10118.5375
786.15132	9153.7375
790.02671	8519.5375
793.89938	8232.9375
797.76935	8075.9375
801.6366	7984.7375
805.50115	7934.9375
809.36299	7916.6375
813.22213	7899.0375
817.07857	7855.3375
820.93231	7836.1375
824.78336	7847.2375
828.63172	7880.2375
832.47738	7859.7375
836.32036	7829.0375
840.16066	7807.3375
843.99827	7800.7375
847.8332	7813.8375
851.66546	7810.7375
855.49504	7829.0375
859.32195	7822.7375
863.1462	7807.1375
866.96777	7806.3375
870.78668	7812.1375
874.60293	7844.6375
878.41652	7823.8375
882.22745	7874.0375
886.03573	7885.2375
889.84136	7902.5375
893.64433	7870.6375
897.44466	7834.9375
901.24235	7830.0375
905.0374	7811.5375
908.8298	7759.2375
912.61957	7746.2375
916.40671	7716.7375
920.19121	7771.8375
923.97308	7830.0375
927.75233	7877.6375
931.52895	7910.5375
935.30295	7817.9375
939.07433	7684.7375
942.84309	7554.1375
946.60924	7482.9375
950.37278	7458.8375
954.13371	7456.0375
957.89203	7455.6375
961.64774	7405.4375
965.40086	7394.0375
969.15137	7394.5375
972.89929	7389.9375
976.64461	7366.9375
980.38733	7351.7375
984.12747	7338.2375
987.86502	7388.4375
991.59999	7401.0375
995.33237	7432.8375
999.06217	7499.7375
1002.78939	7602.2375
1006.51404	7708.5375
1010.23611	7825.5375
1013.95561	7909.3375
1017.67255	7923.7375
1021.38692	7877.4375
1025.09872	7758.4375
1028.80796	7672.2375
1032.51465	7591.4375
1036.21877	7606.3375
1039.92035	7671.8375
1043.61937	7705.1375
1047.31584	7738.0375
1051.00976	7787.2375
1054.70114	7794.2375
1058.38998	7783.8375
1062.07627	7835.1375
1065.76003	7854.4375
1069.44126	7931.2375
1073.11995	8052.6375
1076.79611	8172.1375
1080.46974	8275.4375
1084.14085	8398.2375
1087.80943	8532.7375
1091.47549	8586.4375
1095.13903	8529.6375
1098.80005	8374.9375
1102.45857	8228.0375
1106.11456	8133.7375
1109.76805	8128.0375
1113.41903	8192.4375
1117.06751	8342.7375
1120.71348	8516.0375
1124.35696	8740.6375
1127.99793	8935.2375
1131.63641	8928.4375
1135.2724	8740.2375
1138.90589	8530.3375
1142.5369	8357.2375
1146.16542	8240.1375
1149.79145	8179.2375
1153.415	8173.3375
1157.03607	8182.6375
1160.65467	8280.8375
1164.27079	8502.4375
1167.88443	8820.4375
1171.49561	9301.2375
1175.10432	10034.1375
1178.71056	11009.7375
1182.31434	11873.2375
1185.91565	12205.7375
1189.51451	12035.0375
1193.11091	11629.5375
1196.70485	11053.9375
1200.29634	10526.2375
1203.88538	10078.3375
1207.47197	9574.1375
1211.05612	9124.7375
1214.63782	8827.5375
1218.21708	8716.3375
1221.79391	8621.5375
1225.36829	8614.8375
1228.94024	8610.7375
1232.50976	8570.8375
1236.07685	8564.0375
1239.6415	8545.0375
1243.20374	8551.3375
1246.76355	8553.2375
1250.32093	8604.2375
1253.8759	8697.1375
1257.42845	8873.4375
1260.97859	9081.4375
1264.52631	9347.7375
1268.07163	9581.0375
1271.61453	9822.1375
1275.15503	9978.3375
1278.69312	10090.7375
1282.22882	10218.7375
1285.76211	10368.4375
1289.29301	10646.7375
1292.82151	10915.4375
1296.34761	11219.8375
1299.87133	11700.9375
1303.39266	12405.4375
1306.9116	13414.9375
1310.42815	14447.4375
1313.94233	14903.0375
1317.45412	14531.6375
1320.96354	13726.9375
1324.47058	12953.0375
1327.97525	12258.4375
1331.47754	11778.9375
1334.97747	11552.8375
1338.47502	11570.7375
1341.97022	11799.3375
1345.46305	12274.4375
1348.95352	12913.9375
1352.44163	13727.9375
1355.92738	14714.9375
1359.41078	16136.7375
1362.89183	17562.6375
1366.37053	17251.8375
1369.84688	15082.1375
1373.32088	12754.8375
1376.79254	11288.9375
1380.26186	10537.5375
1383.72883	10113.1375
1387.19347	9768.0375
1390.65578	9435.5375
1394.11575	9167.0375
1397.57339	9026.1375
1401.0287	8943.0375
1404.48168	8901.2375
1407.93234	8853.3375
1411.38068	8840.8375
1414.82669	8812.3375
1418.27039	8759.5375
1421.71177	8694.6375
1425.15083	8570.9375
1428.58758	8491.0375
1432.02203	8483.5375
1435.45416	8557.7375
1438.88399	8605.6375
1442.31151	8618.7375
1445.73673	8667.7375
1449.15965	8729.9375
1452.58027	8711.2375
1455.9986	8706.5375
1459.41463	8766.1375
1462.82837	8859.7375
1466.23982	9060.5375
1469.64898	9251.0375
1473.05586	9462.5375
1476.46045	9577.9375
1479.86276	9727.9375
1483.26279	9877.2375
1486.66054	10066.6375
1490.05602	10404.7375
1493.44922	10944.2375
1496.84016	11677.0375
1500.22882	12828.5375
1503.61521	14332.9375
1506.99934	15854.2375
1510.38121	16873.7375
1513.76081	16765.4375
1517.13816	15510.7375
1520.51324	13766.6375
1523.88607	12268.4375
1527.25665	11278.6375
1530.62498	10753.6375
1533.99105	10413.2375
1537.35488	10163.8375
1540.71647	9933.6375
1544.07581	9735.6375
1547.4329	9577.4375
1550.78776	9516.4375
1554.14038	9473.3375
1557.49077	9553.4375
1560.83892	9698.9375
1564.18484	9907.2375
1567.52853	10240.1375
1570.86999	10527.8375
1574.20922	10710.3375
1577.54624	10630.5375
1580.88103	10180.1375
1584.2136	9595.6375
1587.54395	9220.5375
1590.87208	9210.8375
1594.19801	9497.0375
1597.52172	9948.8375
1600.84321	10153.6375
1604.16251	9920.6375
1607.47959	9552.0375
1610.79447	9176.3375
1614.10715	8733.6375
1617.41763	8298.7375
1620.7259	8004.8375
1624.03199	7825.4375
1627.33587	7763.3375
1630.63757	7852.0375
1633.93707	8108.4375
1637.23439	8574.0375
1640.52951	9395.8375
1643.82246	10568.1375
1647.11321	11890.0375
1650.40179	12757.7375
1653.68819	12434.8375
1656.97241	11054.4375
1660.25446	9530.4375
1663.53433	8390.5375
1666.81203	7716.0375
1670.08756	7306.6375
1673.36092	7051.8375
1676.63211	6902.6375
1679.90115	6801.5375
1683.16801	6699.9375
1686.43272	6631.5375
1689.69527	6590.2375
1692.95567	6552.3375
1696.2139	6534.8375
1699.46999	6506.3375
1702.72392	6471.1375
1705.97571	6472.3375
1709.22535	6454.3375
1712.47284	6422.4375
1715.71819	6414.0375
1718.96139	6378.4375
1722.20246	6340.3375
1725.44139	6344.1375
1728.67818	6303.9375
1731.91284	6268.3375
1735.14537	6216.7375
1738.37576	6192.4375
1741.60403	6155.2375
1744.83017	6132.8375
1748.05418	6131.4375
1751.27607	6121.2375
1754.49584	6105.7375
1757.71349	6102.6375
1760.92903	6095.3375
1764.14244	6081.6375
1767.35375	6074.9375
1770.56294	6087.4375
1773.77002	6030.6375
1776.97499	6010.5375
1780.17785	5979.4375
1783.37861	5975.2375
1786.57727	5935.0375
1789.77382	5935.9375
1792.96828	5933.4375
1796.16064	5906.8375
1799.3509	5881.7375
1802.53907	5880.3375
1805.72514	5857.1375
1808.90913	5841.4375
1812.09102	5825.8375
1815.27083	5810.9375
1818.44856	5793.8375
1821.6242	5776.1375
1824.79776	5771.6375
1827.96924	5759.2375
1831.13864	5755.2375
1834.30597	5757.5375
1837.47122	5734.5375
1840.6344	5729.5375
1843.7955	5723.2375
1846.95454	5712.6375
1850.11151	5694.8375
1853.26642	5705.3375
1856.41926	5718.8375
1859.57004	5695.7375
1862.71876	5685.5375
1865.86542	5695.8375
1869.01003	5679.8375
1872.15258	5649.2375
1875.29308	5672.5375
1878.43152	5653.9375
1881.56792	5646.4375
1884.70227	5647.9375
1887.83457	5616.8375
1890.96482	5614.2375
1894.09304	5586.8375
1897.21921	5591.4375
1900.34335	5576.7375
1903.46544	5578.4375
1906.58551	5572.4375
1909.70353	5555.2375
1912.81953	5552.6375
1915.93349	5537.0375
1919.04543	5512.0375
1922.15534	5515.6375
1925.26322	5493.5375
1928.36908	5488.3375
1931.47292	5480.2375
1934.57473	5482.2375
1937.67453	5454.7375
1940.77232	5426.6375
1943.86808	5421.2375
1946.96184	5387.4375
1950.05358	5375.8375
1953.14331	5342.9375
1956.23103	5351.8375
1959.31675	5340.3375
1962.40046	5314.3375
1965.48217	5289.7375
1968.56188	5275.2375
1971.63959	5276.7375
1974.7153	5245.3375
1977.78901	5238.8375
1980.86073	5209.4375
1983.93046	5192.6375
1986.99819	5183.5375
1990.06394	5157.3375
1993.1277	5138.3375
1996.18947	5111.4375
1999.24925	5104.9375
2002.30706	5085.5375
2005.36288	5058.1375
2008.41672	5051.4375
2011.46859	5024.7375
2014.51848	5028.7375
2017.56639	4994.7375
2020.61233	4979.2375
2023.6563	4961.9375
2026.6983	4948.8375
2029.73833	4941.9375
2032.7764	4922.5375
2035.8125	4903.2375
2038.84664	4920.8375
2041.87881	4881.8375
2044.90903	4890.7375
2047.93729	4873.4375
2050.96359	4868.2375
2053.98794	4862.6375
2057.01034	4843.4375
2060.03078	4843.7375
2063.04927	4824.2375
2066.06582	4826.9375
2069.08042	4831.0375
2072.09307	4817.3375
2075.10378	4813.5375
2078.11255	4801.8375
2081.11938	4805.7375
2084.12426	4807.6375
2087.12722	4785.9375
2090.12824	4786.6375
2093.12732	4799.9375
2096.12447	4799.4375
2099.11969	4799.5375
2102.11299	4802.1375
2105.10435	4787.8375
2108.09379	4797.2375
2111.08131	4812.2375
2114.0669	4805.7375
2117.05057	4803.4375
2120.03233	4805.3375
2123.01216	4812.3375
2125.99008	4819.1375
2128.96609	4830.5375
2131.94018	4832.3375
2134.91236	4820.8375
2137.88263	4821.3375
2140.851	4821.8375
2143.81746	4804.6375
2146.78201	4801.4375
2149.74466	4804.7375
2152.7054	4809.6375
2155.66425	4811.7375
2158.6212	4798.9375
2161.57625	4782.3375
2164.52941	4781.2375
2167.48067	4775.4375
2170.43004	4773.8375
2173.37752	4774.1375
2176.32311	4783.9375
2179.26681	4765.9375
2182.20863	4752.1375
2185.14856	4761.5375
2188.08661	4746.3375
2191.02278	4745.3375
2193.95707	4739.3375
2196.88948	4744.7375
2199.82001	4745.6375
2202.74867	4733.1375
2205.67545	4718.8375
2208.60037	4708.2375
2211.52341	4708.2375
2214.44458	4677.7375
2217.36388	4668.5375
2220.28132	4667.7375
2223.1969	4666.7375
2226.11061	4663.7375
2229.02246	4655.0375
2231.93245	4645.9375
2234.84058	4613.9375
2237.74686	4593.5375
2240.65128	4634.9375
2243.55385	4603.3375
2246.45456	4581.0375
2249.35343	4605.0375
2252.25044	4585.5375
2255.14561	4595.5375
2258.03893	4575.9375
2260.93041	4573.3375
2263.82004	4565.2375
2266.70783	4546.1375
2269.59378	4532.0375
2272.4779	4520.3375
2275.36017	4519.6375
2278.24061	4505.8375
2281.11922	4498.2375
2283.996	4481.8375
2286.87094	4480.2375
2289.74405	4462.3375
2292.61534	4453.7375
2295.4848	4443.3375
2298.35243	4439.6375
2301.21824	4438.1375
2304.08223	4427.6375
2306.94439	4411.9375
2309.80474	4425.3375
2312.66327	4408.1375
2315.51999	4400.6375
2318.37489	4411.4375
2321.22797	4392.3375
2324.07925	4394.4375
2326.92871	4385.5375
2329.77637	4376.5375
2332.62222	4372.0375
2335.46626	4375.1375
2338.3085	4349.8375
2341.14893	4349.5375
2343.98756	4341.2375
2346.8244	4347.8375
2349.65943	4344.8375
2352.49267	4361.2375
2355.32411	4350.6375
2358.15376	4343.0375
2360.98161	4358.9375
2363.80768	4345.0375
2366.63195	4350.5375
2369.45444	4338.9375
2372.27514	4337.3375
2375.09405	4342.7375
2377.91118	4320.5375
2380.72652	4316.7375
2383.54009	4307.6375
2386.35187	4298.4375
2389.16188	4265.6375
2391.97011	4250.8375
2394.77657	4239.4375
2397.58125	4221.6375
2400.38416	4215.0375
2403.18529	4198.7375
2405.98466	4193.3375
2408.78226	4176.7375
2411.57809	4184.8375
2414.37216	4181.4375
2417.16446	4179.9375
2419.955	4167.0375
2422.74378	4167.4375
2425.5308	4160.8375
2428.31606	4150.3375
2431.09956	4168.8375
2433.88131	4148.2375
2436.6613	4155.8375
2439.43954	4145.0375
2442.21603	4146.6375
2444.99077	4142.6375
2447.76377	4145.6375
2450.53501	4148.6375
2453.30451	4161.8375
2456.07226	4136.9375
2458.83827	4146.8375
2461.60254	4133.1375
2464.36507	4109.4375
2467.12586	4110.0375
2469.88492	4121.7375
2472.64224	4120.6375
2475.39782	4115.7375
2478.15167	4123.5375
2480.90379	4130.9375
2483.65417	4114.3375
2486.40283	4126.3375
2489.14976	4118.9375
2491.89497	4117.0375
2494.63845	4136.6375
2497.3802	4105.1375
2500.12024	4098.5375
2502.85855	4112.3375
2505.59514	4081.1375
2508.33002	4068.5375
2511.06318	4063.1375
2513.79462	4042.3375
2516.52435	4031.5375
2519.25237	4031.3375
2521.97867	4000.9375
2524.70327	4021.7375
2527.42616	4006.2375
2530.14734	3996.6375
2532.86681	3984.2375
2535.58458	3984.2375
2538.30065	3976.5375
2541.01501	3982.6375
2543.72768	3972.3375
2546.43864	3959.7375
2549.14791	3966.8375
2551.85548	3950.7375
2554.56136	3955.6375
2557.26554	3931.0375
2559.96803	3937.0375
2562.66883	3927.3375
2565.36794	3922.0375
2568.06536	3920.3375
2570.7611	3900.3375
2573.45514	3900.7375
2576.14751	3908.9375
2578.83819	3888.8375
2581.52719	3878.6375
2584.21451	3872.3375
2586.90015	3872.6375
2589.58411	3863.3375
2592.2664	3861.7375
2594.94701	3843.2375
2597.62594	3854.8375
2600.30321	3833.1375
2602.9788	3827.9375
2605.65273	3834.6375
2608.32498	3824.7375
2610.99557	3829.7375
2613.66449	3804.3375
2616.33175	3797.9375
2618.99734	3789.3375
2621.66128	3788.1375
2624.32355	3777.2375
2626.98416	3778.2375
2629.64311	3779.1375
2632.30041	3773.2375
2634.95605	3768.2375
2637.61004	3757.0375
2640.26238	3749.0375
2642.91306	3757.5375
2645.56209	3746.3375
2648.20948	3747.2375
2650.85521	3739.7375
2653.4993	3744.6375
2656.14175	3733.9375
2658.78255	3732.7375
2661.42171	3742.0375
2664.05923	3738.5375
2666.6951	3744.6375
2669.32934	3741.9375
2671.96194	3739.8375
2674.59291	3740.4375
2677.22224	3740.7375
2679.84993	3746.6375
2682.476	3724.6375
2685.10043	3723.2375
2687.72324	3721.6375
2690.34441	3732.6375
2692.96396	3718.7375
2695.58188	3714.2375
2698.19818	3714.4375
2700.81285	3718.4375
2703.4259	3720.8375
2706.03733	3731.6375
2708.64714	3707.2375
2711.25533	3731.7375
2713.86191	3721.6375
2716.46687	3724.8375
2719.07021	3720.6375
2721.67194	3724.2375
2724.27206	3715.9375
2726.87057	3729.7375
2729.46747	3720.9375
2732.06276	3706.2375
2734.65644	3698.2375
2737.24852	3715.3375
2739.83899	3693.8375
2742.42786	3687.1375
2745.01513	3676.4375
2747.60079	3673.6375
2750.18486	3667.2375
2752.76733	3656.5375
2755.3482	3657.3375
2757.92747	3650.4375
2760.50515	3652.5375
2763.08123	3639.8375
2765.65573	3636.0375
2768.22863	3632.8375
2770.79994	3617.3375
2773.36967	3623.2375
2775.9378	3609.8375
2778.50435	3599.4375
2781.06932	3600.2375
2783.6327	3599.0375
2786.1945	3588.6375
2788.75471	3594.9375
2791.31335	3582.9375
2793.87041	3583.0375
2796.42589	3583.3375
2798.97979	3574.0375
2801.53212	3573.6375
2804.08288	3565.0375
2806.63206	3550.1375
2809.17967	3551.0375
2811.72571	3548.1375
2814.27018	3559.7375
2816.81308	3539.0375
2819.35442	3535.0375
2821.89419	3522.0375
2824.43239	3525.4375
2826.96904	3514.4375
2829.50412	3511.6375
2832.03763	3501.0375
2834.56959	3504.6375
2837.1	3508.4375
2839.62884	3508.2375
2842.15613	3514.7375
2844.68186	3514.4375
2847.20604	3522.6375
2849.72867	3521.9375
2852.24974	3516.4375
2854.76927	3504.8375
2857.28724	3510.5375
2859.80367	3504.1375
2862.31855	3502.9375
2864.83189	3508.0375
2867.34368	3499.0375
2869.85393	3503.6375
2872.36264	3509.5375
2874.8698	3493.4375
2877.37543	3486.9375
2879.87952	3482.1375
2882.38207	3487.6375
2884.88308	3476.1375
2887.38256	3482.1375
2889.88051	3463.4375
2892.37692	3460.7375
2894.8718	3469.9375
2897.36515	3485.9375
2899.85698	3474.5375
2902.34727	3466.1375
2904.83604	3474.9375
2907.32328	3467.1375
2909.809	3470.4375
2912.29319	3493.8375
2914.77587	3490.8375
2917.25702	3489.4375
2919.73665	3475.1375
2922.21476	3486.6375
2924.69136	3470.0375
2927.16644	3490.0375
2929.64	3472.1375
2932.11205	3453.1375
2934.58258	3456.6375
2937.05161	3443.8375
2939.51912	3442.1375
2941.98513	3449.4375
2944.44962	3435.7375
2946.91261	3422.8375
2949.37409	3412.9375
2951.83407	3415.1375
2954.29254	3423.6375
2956.74951	3413.5375
2959.20498	3421.9375
2961.65895	3397.5375
2964.11142	3404.3375
2966.56239	3391.9375
2969.01186	3404.4375
2971.45984	3393.9375
2973.90632	3369.4375
2976.35131	3381.0375
2978.7948	3371.9375
2981.23681	3350.7375
2983.67732	3356.9375
2986.11635	3358.7375
2988.55388	3333.8375
2990.98993	3341.3375
2993.4245	3329.9375
2995.85758	3336.9375
2998.28917	3320.3375
3000.71928	3313.8375
3003.14791	3309.4375
3005.57506	3313.1375
3008.00073	3296.3375
3010.42493	3302.4375
3012.84764	3289.9375
3015.26888	3295.4375
3017.68865	3285.1375
3020.10694	3283.5375
3022.52376	3271.1375
3024.9391	3272.2375
3027.35298	3271.7375
3029.76539	3269.4375
3032.17632	3261.1375
3034.5858	3250.6375
3036.9938	3252.4375
3039.40034	3236.9375
3041.80542	3239.9375
3044.20903	3236.3375
3046.61118	3234.9375
3049.01187	3231.7375
3051.4111	3236.5375
3053.80888	3226.0375
3056.20519	3224.7375
3058.60005	3208.8375
3060.99345	3211.9375
3063.3854	3204.1375
3065.7759	3191.9375
3068.16494	3195.0375
3070.55254	3198.3375
3072.93868	3187.1375
3075.32338	3180.8375
3077.70662	3183.2375
3080.08842	3167.0375
3082.46878	3178.6375
3084.84769	3171.2375
3087.22515	3177.7375
3089.60118	3176.6375
3091.97576	3185.7375
3094.3489	3171.1375
3096.72061	3170.0375
3099.09087	3186.1375
3101.4597	3178.1375
3103.82709	3175.6375
3106.19305	3183.4375
3108.55757	3173.7375
3110.92066	3165.1375
3113.28232	3167.7375
3115.64255	3157.7375
3118.00134	3165.3375
3120.35871	3162.0375
3122.71466	3160.6375
3125.06917	3158.2375
3127.42226	3150.3375
3129.77393	3147.0375
3132.12417	3143.7375
3134.47299	3157.7375
3136.82039	3163.1375
3139.16636	3159.6375
3141.51092	3161.4375
3143.85406	3151.0375
3146.19579	3161.4375
3148.53609	3176.0375
3150.87499	3178.0375
3153.21246	3190.2375
3155.54853	3200.1375
3157.88318	3198.7375
3160.21642	3189.8375
3162.54826	3198.9375
3164.87868	3188.9375
3167.2077	3193.8375
3169.5353	3191.9375
3171.86151	3194.8375
3174.18631	3207.2375
3176.5097	3207.9375
3178.83169	3192.9375
3181.15228	3193.9375
3183.47147	3197.9375
3185.78926	3192.4375
3188.10565	3199.7375
3190.42065	3205.4375
3192.73424	3188.8375
3195.04645	3203.1375
3197.35725	3195.9375
3199.66667	3189.9375
3201.97469	3205.2375
3204.28132	3208.9375
3206.58656	3202.4375
3208.8904	3213.8375
3211.19287	3213.1375
3213.49394	3220.7375
3215.79363	3225.3375
3218.09193	3223.0375
3220.38884	3238.9375
3222.68438	3219.7375
3224.97853	3228.2375
3227.2713	3229.0375
3229.56269	3227.9375
3231.8527	3233.9375
3234.14133	3209.5375
3236.42858	3215.5375
3238.71446	3210.4375
3240.99896	3186.9375
3243.28209	3208.1375
3245.56384	3197.1375
3247.84423	3200.2375
3250.12324	3184.0375
3252.40088	3183.8375
3254.67715	3181.6375
3256.95205	3180.9375
3259.22558	3188.9375
3261.49775	3188.1375
3263.76855	3189.6375
3266.03799	3168.6375
3268.30606	3188.4375
3270.57277	3181.2375
3272.83812	3168.7375
3275.10211	3157.8375
3277.36474	3155.1375
3279.62601	3151.1375
3281.88593	3144.5375
3284.14448	3145.0375
3286.40168	3139.6375
3288.65753	3145.4375
3290.91202	3136.4375
3293.16516	3135.6375
3295.41695	3132.3375
3297.66738	3114.0375
3299.91647	3108.6375
3302.16421	3093.9375
3304.4106	3061.4375
3306.65564	3057.7375
3308.89933	3037.6375
3311.14169	3020.6375
3313.38269	2990.6375
3315.62236	2982.4375
3317.86068	2957.8375
3320.09766	2938.4375
3322.3333	2912.1375
3324.5676	2916.1375
3326.80056	2866.8375
3329.03219	2866.0375
3331.26248	0.7375
3333.49143	-1.3625
3335.71905	0.7375
