Data from AgNP_FTO_APTES_UA_100uM_CRN_0uM_R6G_10uM_NaF_0.1M_Addition_RamanShift__5__10-51-00-086.txt Node

Date: Thu Mar 24 10:51:00 GMT 2022
User: TCL
Spectrometer: QEP01345
Trigger mode: 4
Integration Time (sec): 7.000000E0
Scans to average: 10
Electric dark correction enabled: true
Nonlinearity correction enabled: false
Boxcar width: 0
XAxis mode: Raman Shifts
Number of Pixels in Spectrum: 1044
>>>>>Begin Spectral Data<<<<<
46.04893	-0.775
50.45542	-0.975
54.85868	0.925
59.25871	-0.575
63.6555	38.625
68.04907	38.025
72.43941	41.425
76.82654	38.825
81.21044	44.625
85.59113	46.025
89.96862	49.125
94.34289	47.025
98.71396	50.225
103.08183	51.225
107.4465	51.525
111.80798	55.525
116.16626	52.025
120.52136	55.325
124.87327	59.825
129.222	61.025
133.56755	66.325
137.90993	73.825
142.24913	81.825
146.58517	86.825
150.91804	98.725
155.24774	123.925
159.57429	156.525
163.89768	198.225
168.21792	270.725
172.53501	368.625
176.84895	516.025
181.15975	716.325
185.46741	999.125
189.77193	1385.025
194.07331	1848.925
198.37157	2395.525
202.6667	2945.825
206.9587	3510.425
211.24758	4071.225
215.53334	4693.125
219.81599	5384.625
224.09553	6205.025
228.37195	7091.925
232.64527	8060.725
236.91549	8994.925
241.18261	9813.125
245.44663	10463.325
249.70755	10902.825
253.96539	11196.925
258.22014	11480.025
262.4718	11714.125
266.72039	11834.825
270.96589	11819.925
275.20832	11638.325
279.44768	11395.425
283.68397	11105.425
287.91719	10946.625
292.14735	10985.425
296.37445	11298.925
300.59849	11882.325
304.81948	12635.125
309.03742	13343.825
313.25231	13581.625
317.46415	13186.125
321.67296	12286.825
325.87872	11381.025
330.08145	10947.025
334.28114	10911.625
338.47781	11086.125
342.67145	11378.225
346.86207	11836.425
351.04966	12499.625
355.23424	13320.725
359.4158	13877.725
363.59435	14123.825
367.76989	14153.125
371.94243	14005.925
376.11196	13866.925
380.27849	13740.625
384.44203	13542.725
388.60257	13299.425
392.76012	13144.325
396.91468	13195.425
401.06626	13495.025
405.21485	13785.525
409.36047	13502.225
413.50311	12603.225
417.64277	11772.125
421.77947	11265.625
425.9132	11117.725
430.04396	11131.325
434.17176	11277.425
438.2966	11617.025
442.41849	12286.525
446.53742	13176.625
450.6534	14035.725
454.76644	14344.925
458.87653	13974.225
462.98368	13155.025
467.08789	12395.225
471.18916	11788.325
475.2875	11222.925
479.38291	10747.025
483.4754	10428.425
487.56496	10176.125
491.6516	10035.225
495.73531	10013.025
499.81612	10089.825
503.89401	10183.025
507.96899	10401.525
512.04106	10564.825
516.11023	10783.525
520.1765	11028.225
524.23987	11173.825
528.30034	11234.125
532.35792	11147.625
536.41261	10791.925
540.46441	10283.225
544.51333	9907.225
548.55936	9881.025
552.60252	10216.925
556.64279	10800.925
560.6802	11219.225
564.71473	11367.625
568.7464	11772.725
572.7752	12214.825
576.80114	11877.625
580.82422	11401.025
584.84444	11696.725
588.86181	12884.025
592.87633	14675.525
596.888	15476.025
600.89682	14449.725
604.9028	14421.225
608.90594	18343.225
612.90624	24461.225
616.90371	23870.025
620.89834	15512.225
624.89015	10983.725
628.87913	10126.025
632.86528	10264.325
636.84862	10472.625
640.82913	10221.825
644.80683	9503.425
648.78172	8952.525
652.75379	8892.925
656.72306	9439.525
660.68952	10169.425
664.65319	10095.925
668.61405	9400.425
672.57211	9074.425
676.52738	9089.725
680.47986	9051.825
684.42955	8803.225
688.37646	8589.225
692.32058	8562.025
696.26192	8724.225
700.20048	8987.625
704.13626	9161.125
708.06928	9146.325
711.99952	9048.525
715.927	9009.225
719.85171	9103.625
723.77365	9130.625
727.69284	8984.425
731.60928	8876.925
735.52295	8922.725
739.43388	9029.325
743.34206	9140.625
747.24749	9156.225
751.15017	9192.725
755.05012	9372.625
758.94733	9990.725
762.8418	11663.325
766.73354	14730.225
770.62254	17952.525
774.50882	19653.525
778.39237	18815.225
782.27321	15829.325
786.15132	12557.425
790.02671	10476.725
793.89938	9497.825
797.76935	9084.925
801.6366	8883.425
805.50115	8750.825
809.36299	8645.725
813.22213	8534.025
817.07857	8467.025
820.93231	8425.925
824.78336	8479.725
828.63172	8573.025
832.47738	8593.125
836.32036	8556.025
840.16066	8494.425
843.99827	8442.125
847.8332	8427.525
851.66546	8393.525
855.49504	8411.925
859.32195	8402.425
863.1462	8362.225
866.96777	8324.425
870.78668	8322.325
874.60293	8324.725
878.41652	8340.725
882.22745	8426.425
886.03573	8532.425
889.84136	8559.325
893.64433	8494.325
897.44466	8440.825
901.24235	8426.625
905.0374	8325.825
908.8298	8241.025
912.61957	8143.925
916.40671	8154.225
920.19121	8287.825
923.97308	8494.125
927.75233	8763.025
931.52895	8885.825
935.30295	8721.525
939.07433	8288.125
942.84309	7900.425
946.60924	7704.125
950.37278	7592.125
954.13371	7537.925
957.89203	7470.925
961.64774	7413.425
965.40086	7357.525
969.15137	7317.525
972.89929	7252.425
976.64461	7254.525
980.38733	7262.125
984.12747	7263.225
987.86502	7323.325
991.59999	7446.625
995.33237	7663.925
999.06217	8056.025
1002.78939	8531.925
1006.51404	8858.525
1010.23611	9064.425
1013.95561	9227.025
1017.67255	9228.025
1021.38692	8903.125
1025.09872	8452.125
1028.80796	8159.825
1032.51465	8118.325
1036.21877	8236.225
1039.92035	8333.325
1043.61937	8355.325
1047.31584	8361.125
1051.00976	8336.225
1054.70114	8309.325
1058.38998	8237.325
1062.07627	8240.225
1065.76003	8204.625
1069.44126	8265.425
1073.11995	8494.725
1076.79611	8821.825
1080.46974	9153.125
1084.14085	9644.325
1087.80943	10139.525
1091.47549	10290.925
1095.13903	9965.325
1098.80005	9379.625
1102.45857	8893.025
1106.11456	8744.125
1109.76805	8854.625
1113.41903	9206.425
1117.06751	9696.225
1120.71348	10405.425
1124.35696	11257.725
1127.99793	11911.825
1131.63641	11820.025
1135.2724	11026.525
1138.90589	10226.825
1142.5369	9762.125
1146.16542	9476.825
1149.79145	9324.025
1153.415	9270.825
1157.03607	9288.325
1160.65467	9513.325
1164.27079	10042.725
1167.88443	11140.625
1171.49561	12927.225
1175.10432	15642.125
1178.71056	19186.725
1182.31434	21970.625
1185.91565	22520.125
1189.51451	21326.025
1193.11091	19392.525
1196.70485	17463.025
1200.29634	15766.625
1203.88538	14177.725
1207.47197	12614.225
1211.05612	11485.725
1214.63782	11081.325
1218.21708	11344.525
1221.79391	11904.525
1225.36829	12119.725
1228.94024	11681.325
1232.50976	10940.225
1236.07685	10433.425
1239.6415	10221.825
1243.20374	10195.525
1246.76355	10210.025
1250.32093	10325.825
1253.8759	10645.125
1257.42845	11211.725
1260.97859	11877.925
1264.52631	12660.725
1268.07163	13418.525
1271.61453	14012.425
1275.15503	14518.425
1278.69312	14876.725
1282.22882	15326.325
1285.76211	16154.125
1289.29301	17321.025
1292.82151	18615.425
1296.34761	20051.125
1299.87133	21834.625
1303.39266	24395.125
1306.9116	28103.825
1310.42815	32480.325
1313.94233	35148.825
1317.45412	34005.725
1320.96354	30135.125
1324.47058	25750.725
1327.97525	22307.225
1331.47754	20364.225
1334.97747	19731.025
1338.47502	19823.325
1341.97022	20039.625
1345.46305	20720.925
1348.95352	22347.925
1352.44163	25273.025
1355.92738	29667.125
1359.41078	35601.025
1362.89183	40433.425
1366.37053	39309.025
1369.84688	32438.225
1373.32088	25103.525
1376.79254	20551.725
1380.26186	18280.225
1383.72883	16960.625
1387.19347	15929.425
1390.65578	15052.125
1394.11575	14628.125
1397.57339	14723.725
1401.0287	15096.825
1404.48168	15397.525
1407.93234	15428.825
1411.38068	15194.225
1414.82669	14855.925
1418.27039	14379.425
1421.71177	13773.325
1425.15083	13303.625
1428.58758	13224.125
1432.02203	13556.525
1435.45416	13988.625
1438.88399	14238.925
1442.31151	14220.425
1445.73673	14256.925
1449.15965	14337.225
1452.58027	14189.225
1455.9986	13853.725
1459.41463	13719.725
1462.82837	14060.125
1466.23982	14741.625
1469.64898	15424.725
1473.05586	15871.525
1476.46045	16104.725
1479.86276	16322.525
1483.26279	16543.525
1486.66054	16824.625
1490.05602	17395.425
1493.44922	18206.825
1496.84016	19384.925
1500.22882	21438.525
1503.61521	24579.625
1506.99934	28398.025
1510.38121	31996.325
1513.76081	33484.925
1517.13816	31111.525
1520.51324	26193.825
1523.88607	21637.425
1527.25665	18919.825
1530.62498	17674.225
1533.99105	16962.125
1537.35488	16388.025
1540.71647	15825.625
1544.07581	15306.525
1547.4329	14832.425
1550.78776	14404.125
1554.14038	14072.825
1557.49077	13980.825
1560.83892	14106.625
1564.18484	14608.525
1567.52853	15392.225
1570.86999	16196.825
1574.20922	16662.425
1577.54624	16622.125
1580.88103	15519.225
1584.2136	13940.925
1587.54395	13144.325
1590.87208	13685.725
1594.19801	15481.425
1597.52172	18083.525
1600.84321	19783.825
1604.16251	19290.525
1607.47959	17040.025
1610.79447	14223.125
1614.10715	11904.525
1617.41763	10335.625
1620.7259	9463.825
1624.03199	9129.125
1627.33587	9122.625
1630.63757	9556.925
1633.93707	10472.725
1637.23439	12250.725
1640.52951	15261.925
1643.82246	19664.925
1647.11321	24245.025
1650.40179	26572.725
1653.68819	24706.225
1656.97241	19749.725
1660.25446	14624.925
1663.53433	11097.925
1666.81203	9098.425
1670.08756	8031.225
1673.36092	7416.925
1676.63211	7014.725
1679.90115	6772.325
1683.16801	6598.325
1686.43272	6449.125
1689.69527	6380.825
1692.95567	6305.525
1696.2139	6278.025
1699.46999	6273.225
1702.72392	6216.925
1705.97571	6189.625
1709.22535	6166.025
1712.47284	6173.625
1715.71819	6161.525
1718.96139	6130.825
1722.20246	6104.725
1725.44139	6044.225
1728.67818	5982.325
1731.91284	5898.725
1735.14537	5827.625
1738.37576	5773.925
1741.60403	5733.425
1744.83017	5720.825
1748.05418	5679.725
1751.27607	5665.925
1754.49584	5629.725
1757.71349	5610.225
1760.92903	5583.225
1764.14244	5576.825
1767.35375	5581.425
1770.56294	5548.625
1773.77002	5511.625
1776.97499	5467.825
1780.17785	5450.225
1783.37861	5429.025
1786.57727	5394.125
1789.77382	5363.325
1792.96828	5364.925
1796.16064	5345.625
1799.3509	5344.725
1802.53907	5333.425
1805.72514	5312.325
1808.90913	5274.525
1812.09102	5252.925
1815.27083	5237.325
1818.44856	5212.025
1821.6242	5197.025
1824.79776	5187.125
1827.96924	5150.225
1831.13864	5152.025
1834.30597	5147.425
1837.47122	5121.225
1840.6344	5124.125
1843.7955	5100.325
1846.95454	5120.425
1850.11151	5109.025
1853.26642	5095.725
1856.41926	5113.125
1859.57004	5115.025
1862.71876	5128.025
1865.86542	5133.625
1869.01003	5135.825
1872.15258	5169.025
1875.29308	5174.125
1878.43152	5166.925
1881.56792	5170.225
1884.70227	5164.925
1887.83457	5163.725
1890.96482	5160.425
1894.09304	5167.825
1897.21921	5174.525
1900.34335	5158.125
1903.46544	5177.925
1906.58551	5174.725
1909.70353	5154.025
1912.81953	5164.125
1915.93349	5107.425
1919.04543	5096.825
1922.15534	5073.825
1925.26322	5043.725
1928.36908	5031.025
1931.47292	5001.125
1934.57473	4957.425
1937.67453	4929.725
1940.77232	4902.925
1943.86808	4881.925
1946.96184	4857.825
1950.05358	4827.725
1953.14331	4810.125
1956.23103	4800.125
1959.31675	4776.025
1962.40046	4771.225
1965.48217	4770.825
1968.56188	4766.625
1971.63959	4770.725
1974.7153	4763.125
1977.78901	4749.025
1980.86073	4743.325
1983.93046	4721.525
1986.99819	4708.125
1990.06394	4683.725
1993.1277	4688.525
1996.18947	4675.625
1999.24925	4673.825
2002.30706	4641.125
2005.36288	4634.425
2008.41672	4626.525
2011.46859	4593.225
2014.51848	4584.025
2017.56639	4549.725
2020.61233	4524.925
2023.6563	4507.525
2026.6983	4480.425
2029.73833	4459.025
2032.7764	4433.025
2035.8125	4437.125
2038.84664	4419.225
2041.87881	4406.725
2044.90903	4401.025
2047.93729	4370.225
2050.96359	4383.825
2053.98794	4372.425
2057.01034	4374.825
2060.03078	4367.225
2063.04927	4379.625
2066.06582	4352.325
2069.08042	4370.125
2072.09307	4364.625
2075.10378	4356.125
2078.11255	4357.125
2081.11938	4349.825
2084.12426	4355.925
2087.12722	4362.625
2090.12824	4360.625
2093.12732	4356.625
2096.12447	4354.425
2099.11969	4371.125
2102.11299	4361.525
2105.10435	4370.325
2108.09379	4371.525
2111.08131	4369.725
2114.0669	4345.225
2117.05057	4322.025
2120.03233	4312.325
2123.01216	4286.225
2125.99008	4269.525
2128.96609	4263.125
2131.94018	4264.925
2134.91236	4255.225
2137.88263	4239.725
2140.851	4236.125
2143.81746	4234.425
2146.78201	4224.625
2149.74466	4213.925
2152.7054	4192.025
2155.66425	4178.225
2158.6212	4168.825
2161.57625	4160.225
2164.52941	4165.525
2167.48067	4149.025
2170.43004	4139.525
2173.37752	4148.525
2176.32311	4133.725
2179.26681	4143.725
2182.20863	4138.125
2185.14856	4144.025
2188.08661	4145.225
2191.02278	4136.025
2193.95707	4127.225
2196.88948	4124.625
2199.82001	4127.025
2202.74867	4110.625
2205.67545	4114.625
2208.60037	4109.125
2211.52341	4076.525
2214.44458	4081.425
2217.36388	4066.525
2220.28132	4051.425
2223.1969	4040.925
2226.11061	4043.925
2229.02246	4020.025
2231.93245	4016.725
2234.84058	4020.525
2237.74686	4016.425
2240.65128	4012.025
2243.55385	4011.725
2246.45456	3999.125
2249.35343	3980.525
2252.25044	3996.725
2255.14561	3969.425
2258.03893	3973.625
2260.93041	3974.525
2263.82004	3969.225
2266.70783	3970.225
2269.59378	3957.325
2272.4779	3942.025
2275.36017	3934.725
2278.24061	3917.225
2281.11922	3910.225
2283.996	3908.825
2286.87094	3898.125
2289.74405	3862.625
2292.61534	3871.825
2295.4848	3847.925
2298.35243	3834.625
2301.21824	3843.525
2304.08223	3843.125
2306.94439	3839.325
2309.80474	3839.325
2312.66327	3854.225
2315.51999	3850.625
2318.37489	3836.725
2321.22797	3840.425
2324.07925	3832.225
2326.92871	3830.125
2329.77637	3836.625
2332.62222	3833.025
2335.46626	3822.925
2338.3085	3807.325
2341.14893	3824.125
2343.98756	3824.125
2346.8244	3840.925
2349.65943	3857.225
2352.49267	3850.125
2355.32411	3868.325
2358.15376	3868.225
2360.98161	3884.925
2363.80768	3903.325
2366.63195	3906.525
2369.45444	3920.725
2372.27514	3921.825
2375.09405	3908.425
2377.91118	3892.825
2380.72652	3872.525
2383.54009	3855.625
2386.35187	3831.225
2389.16188	3799.525
2391.97011	3798.925
2394.77657	3776.625
2397.58125	3770.825
2400.38416	3750.525
2403.18529	3737.125
2405.98466	3725.625
2408.78226	3692.925
2411.57809	3696.825
2414.37216	3691.425
2417.16446	3695.525
2419.955	3674.325
2422.74378	3679.525
2425.5308	3685.025
2428.31606	3675.225
2431.09956	3684.725
2433.88131	3671.825
2436.6613	3683.325
2439.43954	3690.425
2442.21603	3699.925
2444.99077	3687.725
2447.76377	3700.925
2450.53501	3698.725
2453.30451	3710.625
2456.07226	3720.025
2458.83827	3729.925
2461.60254	3741.325
2464.36507	3729.825
2467.12586	3728.625
2469.88492	3717.525
2472.64224	3722.525
2475.39782	3738.125
2478.15167	3750.225
2480.90379	3755.325
2483.65417	3769.425
2486.40283	3803.125
2489.14976	3874.025
2491.89497	3826.025
2494.63845	3831.225
2497.3802	3815.625
2500.12024	3814.325
2502.85855	3807.825
2505.59514	3766.625
2508.33002	3754.025
2511.06318	3725.825
2513.79462	3684.225
2516.52435	3665.125
2519.25237	3658.425
2521.97867	3633.525
2524.70327	3616.525
2527.42616	3617.625
2530.14734	3608.325
2532.86681	3614.325
2535.58458	3614.625
2538.30065	3605.725
2541.01501	3609.725
2543.72768	3615.525
2546.43864	3614.625
2549.14791	3606.025
2551.85548	3624.025
2554.56136	3611.125
2557.26554	3627.925
2559.96803	3628.325
2562.66883	3615.725
2565.36794	3628.825
2568.06536	3614.725
2570.7611	3608.925
2573.45514	3621.425
2576.14751	3591.325
2578.83819	3591.925
2581.52719	3578.925
2584.21451	3585.225
2586.90015	3583.425
2589.58411	3569.025
2592.2664	3578.725
2594.94701	3567.725
2597.62594	3557.525
2600.30321	3554.625
2602.9788	3575.425
2605.65273	3574.825
2608.32498	3557.125
2610.99557	3553.525
2613.66449	3573.225
2616.33175	3569.925
2618.99734	3592.125
2621.66128	3571.525
2624.32355	3562.825
2626.98416	3562.425
2629.64311	3562.925
2632.30041	3566.125
2634.95605	3538.025
2637.61004	3532.625
2640.26238	3530.225
2642.91306	3521.425
2645.56209	3519.725
2648.20948	3529.825
2650.85521	3518.725
2653.4993	3519.425
2656.14175	3528.325
2658.78255	3546.025
2661.42171	3547.725
2664.05923	3561.425
2666.6951	3570.025
2669.32934	3571.425
2671.96194	3580.025
2674.59291	3577.125
2677.22224	3561.125
2679.84993	3556.425
2682.476	3560.625
2685.10043	3556.625
2687.72324	3549.525
2690.34441	3543.125
2692.96396	3540.525
2695.58188	3549.525
2698.19818	3532.125
2700.81285	3532.325
2703.4259	3546.525
2706.03733	3545.025
2708.64714	3555.025
2711.25533	3546.925
2713.86191	3538.925
2716.46687	3575.725
2719.07021	3557.625
2721.67194	3579.725
2724.27206	3575.625
2726.87057	3593.925
2729.46747	3576.325
2732.06276	3572.425
2734.65644	3559.725
2737.24852	3547.825
2739.83899	3550.825
2742.42786	3552.325
2745.01513	3529.325
2747.60079	3532.325
2750.18486	3524.025
2752.76733	3533.825
2755.3482	3526.925
2757.92747	3530.825
2760.50515	3545.425
2763.08123	3532.825
2765.65573	3523.825
2768.22863	3514.125
2770.79994	3529.725
2773.36967	3524.125
2775.9378	3534.625
2778.50435	3547.725
2781.06932	3533.225
2783.6327	3539.325
2786.1945	3553.425
2788.75471	3548.425
2791.31335	3544.325
2793.87041	3563.125
2796.42589	3543.325
2798.97979	3557.325
2801.53212	3554.425
2804.08288	3562.225
2806.63206	3571.925
2809.17967	3575.325
2811.72571	3571.725
2814.27018	3578.825
2816.81308	3600.225
2819.35442	3591.425
2821.89419	3620.025
2824.43239	3622.625
2826.96904	3633.125
2829.50412	3639.625
2832.03763	3648.525
2834.56959	3657.225
2837.1	3648.525
2839.62884	3660.425
2842.15613	3677.025
2844.68186	3718.025
2847.20604	3759.925
2849.72867	3794.625
2852.24974	3808.125
2854.76927	3842.125
2857.28724	3847.125
2859.80367	3850.325
2862.31855	3859.525
2864.83189	3871.225
2867.34368	3860.425
2869.85393	3885.425
2872.36264	3887.425
2874.8698	3896.625
2877.37543	3906.625
2879.87952	3911.825
2882.38207	3900.025
2884.88308	3900.125
2887.38256	3886.325
2889.88051	3873.925
2892.37692	3871.825
2894.8718	3883.625
2897.36515	3875.625
2899.85698	3878.325
2902.34727	3883.525
2904.83604	3873.825
2907.32328	3881.425
2909.809	3869.825
2912.29319	3878.225
2914.77587	3886.525
2917.25702	3883.225
2919.73665	3866.825
2922.21476	3861.525
2924.69136	3852.225
2927.16644	3854.625
2929.64	3817.025
2932.11205	3798.425
2934.58258	3784.725
2937.05161	3770.325
2939.51912	3756.225
2941.98513	3730.025
2944.44962	3684.525
2946.91261	3653.525
2949.37409	3637.825
2951.83407	3622.325
2954.29254	3601.525
2956.74951	3588.725
2959.20498	3573.725
2961.65895	3554.525
2964.11142	3543.825
2966.56239	3502.225
2969.01186	3478.325
2971.45984	3456.125
2973.90632	3454.425
2976.35131	3425.625
2978.7948	3408.925
2981.23681	3374.925
2983.67732	3373.725
2986.11635	3357.025
2988.55388	3349.725
2990.98993	3340.325
2993.4245	3333.625
2995.85758	3326.725
2998.28917	3338.325
3000.71928	3325.325
3003.14791	3321.325
3005.57506	3326.925
3008.00073	3321.225
3010.42493	3312.525
3012.84764	3303.225
3015.26888	3309.625
3017.68865	3306.425
3020.10694	3290.525
3022.52376	3264.725
3024.9391	3270.025
3027.35298	3259.325
3029.76539	3239.825
3032.17632	3239.225
3034.5858	3218.125
3036.9938	3219.725
3039.40034	3208.325
3041.80542	3192.525
3044.20903	3185.525
3046.61118	3177.125
3049.01187	3183.025
3051.4111	3181.125
3053.80888	3184.725
3056.20519	3172.725
3058.60005	3176.725
3060.99345	3165.425
3063.3854	3148.025
3065.7759	3145.925
3068.16494	3136.425
3070.55254	3119.125
3072.93868	3119.025
3075.32338	3108.925
3077.70662	3096.725
3080.08842	3088.525
3082.46878	3095.125
3084.84769	3075.725
3087.22515	3085.025
3089.60118	3076.625
3091.97576	3065.825
3094.3489	3074.825
3096.72061	3071.725
3099.09087	3075.825
3101.4597	3064.025
3103.82709	3057.525
3106.19305	3051.625
3108.55757	3057.225
3110.92066	3035.825
3113.28232	3031.825
3115.64255	3026.725
3118.00134	3028.125
3120.35871	3021.225
3122.71466	3033.125
3125.06917	3028.825
3127.42226	3026.525
3129.77393	3036.525
3132.12417	3030.425
3134.47299	3037.725
3136.82039	3033.425
3139.16636	3044.725
3141.51092	3057.225
3143.85406	3050.425
3146.19579	3035.825
3148.53609	3038.525
3150.87499	3051.025
3153.21246	3059.425
3155.54853	3048.625
3157.88318	3046.925
3160.21642	3042.625
3162.54826	3047.525
3164.87868	3048.425
3167.2077	3055.225
3169.5353	3058.925
3171.86151	3048.225
3174.18631	3061.425
3176.5097	3049.725
3178.83169	3057.725
3181.15228	3061.625
3183.47147	3065.125
3185.78926	3070.025
3188.10565	3082.225
3190.42065	3076.825
3192.73424	3080.625
3195.04645	3092.225
3197.35725	3099.225
3199.66667	3098.225
3201.97469	3105.525
3204.28132	3105.225
3206.58656	3121.425
3208.8904	3126.125
3211.19287	3117.125
3213.49394	3127.225
3215.79363	3113.825
3218.09193	3117.825
3220.38884	3140.425
3222.68438	3139.125
3224.97853	3127.225
3227.2713	3133.925
3229.56269	3140.525
3231.8527	3139.525
3234.14133	3151.925
3236.42858	3129.225
3238.71446	3151.525
3240.99896	3137.925
3243.28209	3144.525
3245.56384	3143.825
3247.84423	3151.425
3250.12324	3150.025
3252.40088	3133.525
3254.67715	3136.425
3256.95205	3128.625
3259.22558	3120.725
3261.49775	3122.925
3263.76855	3118.025
3266.03799	3116.425
3268.30606	3109.225
3270.57277	3123.225
3272.83812	3116.525
3275.10211	3110.925
3277.36474	3114.725
3279.62601	3134.325
3281.88593	3123.525
3284.14448	3127.825
3286.40168	3125.125
3288.65753	3140.025
3290.91202	3134.025
3293.16516	3105.325
3295.41695	3100.825
3297.66738	3094.025
3299.91647	3093.925
3302.16421	3063.825
3304.4106	3048.625
3306.65564	3033.025
3308.89933	3030.725
3311.14169	3000.225
3313.38269	2987.625
3315.62236	2946.425
3317.86068	2926.725
3320.09766	2877.825
3322.3333	2864.225
3324.5676	2863.025
3326.80056	2818.425
3329.03219	2805.025
3331.26248	0.525
3333.49143	-1.275
3335.71905	1.925
