Data from AgNP_FTO_APTES_UA_100uM_CRN_5uM_R6G_10uM_NaF_0.1M_Addition_RamanShift__27__15-10-00-387.txt Node

Date: Thu Mar 24 15:10:00 GMT 2022
User: TCL
Spectrometer: QEP01345
Trigger mode: 4
Integration Time (sec): 7.000000E0
Scans to average: 10
Electric dark correction enabled: true
Nonlinearity correction enabled: false
Boxcar width: 0
XAxis mode: Raman Shifts
Number of Pixels in Spectrum: 1044
>>>>>Begin Spectral Data<<<<<
46.04893	-1.525
50.45542	-0.325
54.85868	1.275
59.25871	-0.625
63.6555	31.675
68.04907	34.375
72.43941	34.775
76.82654	34.875
81.21044	36.875
85.59113	41.775
89.96862	39.575
94.34289	37.475
98.71396	42.475
103.08183	42.775
107.4465	44.175
111.80798	45.875
116.16626	47.775
120.52136	48.175
124.87327	47.575
129.222	52.775
133.56755	57.875
137.90993	56.175
142.24913	69.775
146.58517	70.975
150.91804	84.975
155.24774	105.375
159.57429	129.675
163.89768	168.775
168.21792	226.875
172.53501	305.675
176.84895	437.775
181.15975	615.075
185.46741	851.875
189.77193	1191.775
194.07331	1599.175
198.37157	2089.375
202.6667	2601.075
206.9587	3140.875
211.24758	3707.275
215.53334	4332.975
219.81599	5041.075
224.09553	5889.175
228.37195	6825.775
232.64527	7814.975
236.91549	8702.175
241.18261	9424.075
245.44663	9899.675
249.70755	10210.875
253.96539	10494.875
258.22014	10768.775
262.4718	11046.075
266.72039	11176.275
270.96589	11086.975
275.20832	10798.375
279.44768	10376.775
283.68397	9987.675
287.91719	9804.875
292.14735	9908.675
296.37445	10404.575
300.59849	11326.875
304.81948	12422.575
309.03742	13372.975
313.25231	13665.975
317.46415	12898.675
321.67296	11408.375
325.87872	10069.775
330.08145	9363.375
334.28114	9297.175
338.47781	9574.575
342.67145	10020.175
346.86207	10714.575
351.04966	11765.475
355.23424	12987.875
359.4158	13890.775
363.59435	14196.675
367.76989	14050.675
371.94243	13723.875
376.11196	13331.275
380.27849	12979.975
384.44203	12583.075
388.60257	12191.475
392.76012	11931.775
396.91468	11988.875
401.06626	12403.975
405.21485	12694.275
409.36047	12214.375
413.50311	11053.075
417.64277	9924.575
421.77947	9217.575
425.9132	8928.275
430.04396	8841.375
434.17176	8866.075
438.2966	9031.575
442.41849	9408.175
446.53742	9850.375
450.6534	10221.975
454.76644	10375.775
458.87653	10230.775
462.98368	9964.775
467.08789	9645.775
471.18916	9283.375
475.2875	8886.075
479.38291	8531.075
483.4754	8285.275
487.56496	8099.675
491.6516	8011.675
495.73531	7989.175
499.81612	8053.575
503.89401	8217.175
507.96899	8479.975
512.04106	8754.775
516.11023	9111.775
520.1765	9347.975
524.23987	9369.175
528.30034	9249.375
532.35792	9040.375
536.41261	8797.675
540.46441	8425.775
544.51333	8197.875
548.55936	8266.375
552.60252	8600.575
556.64279	9053.775
560.6802	9319.675
564.71473	9704.375
568.7464	10577.275
572.7752	10939.575
576.80114	10029.775
580.82422	9097.675
584.84444	8776.675
588.86181	8823.075
592.87633	9066.075
596.888	9353.875
600.89682	9809.775
604.9028	11955.775
608.90594	18273.975
612.90624	26839.675
616.90371	25952.375
620.89834	15163.675
624.89015	9756.375
628.87913	8808.375
632.86528	9091.775
636.84862	9447.875
640.82913	9086.875
644.80683	8179.375
648.78172	7537.175
652.75379	7567.875
656.72306	8298.875
660.68952	9207.375
664.65319	8942.675
668.61405	7941.075
672.57211	7430.375
676.52738	7365.475
680.47986	7335.475
684.42955	7139.275
688.37646	7033.875
692.32058	7056.875
696.26192	7181.275
700.20048	7397.375
704.13626	7516.875
708.06928	7475.975
711.99952	7351.875
715.927	7361.375
719.85171	7487.875
723.77365	7582.975
727.69284	7514.675
731.60928	7388.175
735.52295	7378.475
739.43388	7430.875
743.34206	7482.375
747.24749	7473.075
751.15017	7503.375
755.05012	7764.675
758.94733	8694.475
762.8418	11010.975
766.73354	14835.775
770.62254	18355.975
774.50882	19951.175
778.39237	18761.675
782.27321	15110.575
786.15132	11217.275
790.02671	8952.675
793.89938	7938.975
797.76935	7507.675
801.6366	7366.775
805.50115	7282.675
809.36299	7244.975
813.22213	7198.475
817.07857	7152.975
820.93231	7138.675
824.78336	7209.575
828.63172	7318.875
832.47738	7369.575
836.32036	7280.075
840.16066	7127.475
843.99827	7056.675
847.8332	7007.975
851.66546	6990.775
855.49504	6980.875
859.32195	6954.975
863.1462	6895.775
866.96777	6843.275
870.78668	6854.675
874.60293	6900.775
878.41652	6979.975
882.22745	7101.475
886.03573	7205.575
889.84136	7174.775
893.64433	7084.575
897.44466	7095.075
901.24235	7103.075
905.0374	7034.575
908.8298	6905.275
912.61957	6797.975
916.40671	6796.475
920.19121	6878.175
923.97308	7064.175
927.75233	7394.775
931.52895	7699.775
935.30295	7578.175
939.07433	7090.575
942.84309	6754.675
946.60924	6557.575
950.37278	6433.175
954.13371	6348.575
957.89203	6278.675
961.64774	6237.475
965.40086	6206.475
969.15137	6170.775
972.89929	6156.475
976.64461	6147.975
980.38733	6155.275
984.12747	6162.975
987.86502	6222.275
991.59999	6299.075
995.33237	6444.275
999.06217	6672.275
1002.78939	7020.375
1006.51404	7349.675
1010.23611	7611.675
1013.95561	7660.675
1017.67255	7605.875
1021.38692	7409.475
1025.09872	7158.375
1028.80796	7084.375
1032.51465	7214.575
1036.21877	7395.675
1039.92035	7484.275
1043.61937	7491.675
1047.31584	7442.275
1051.00976	7335.775
1054.70114	7201.375
1058.38998	7129.975
1062.07627	7105.475
1065.76003	7115.775
1069.44126	7178.275
1073.11995	7331.275
1076.79611	7643.375
1080.46974	8089.675
1084.14085	8706.675
1087.80943	9288.075
1091.47549	9395.075
1095.13903	9000.675
1098.80005	8358.475
1102.45857	7915.875
1106.11456	7819.475
1109.76805	8085.175
1113.41903	8653.675
1117.06751	9522.775
1120.71348	10715.575
1124.35696	12023.075
1127.99793	12771.375
1131.63641	12053.775
1135.2724	10607.675
1138.90589	9447.575
1142.5369	8785.275
1146.16542	8339.675
1149.79145	8124.375
1153.415	8042.875
1157.03607	8209.475
1160.65467	8507.575
1164.27079	9118.975
1167.88443	10115.175
1171.49561	11648.575
1175.10432	14197.175
1178.71056	17586.275
1182.31434	20172.075
1185.91565	20656.975
1189.51451	19462.275
1193.11091	17383.975
1196.70485	15226.475
1200.29634	13715.575
1203.88538	12557.775
1207.47197	11148.675
1211.05612	9943.775
1214.63782	9230.975
1218.21708	8981.975
1221.79391	8979.575
1225.36829	9043.175
1228.94024	9006.175
1232.50976	8863.475
1236.07685	8755.175
1239.6415	8705.575
1243.20374	8802.875
1246.76355	8921.075
1250.32093	9106.475
1253.8759	9430.975
1257.42845	9987.575
1260.97859	10688.575
1264.52631	11424.375
1268.07163	12116.075
1271.61453	12606.675
1275.15503	12888.575
1278.69312	12959.775
1282.22882	13223.475
1285.76211	13919.875
1289.29301	14809.375
1292.82151	15633.275
1296.34761	16558.575
1299.87133	18153.275
1303.39266	21074.875
1306.9116	25813.475
1310.42815	31001.975
1313.94233	32912.375
1317.45412	30238.875
1320.96354	25464.175
1324.47058	21091.575
1327.97525	17707.675
1331.47754	15801.875
1334.97747	15150.975
1338.47502	15380.175
1341.97022	16412.175
1345.46305	18463.975
1348.95352	21296.075
1352.44163	24762.675
1355.92738	29922.275
1359.41078	37815.175
1362.89183	44385.275
1366.37053	40686.475
1369.84688	30298.375
1373.32088	22055.375
1376.79254	17708.075
1380.26186	15386.275
1383.72883	13867.975
1387.19347	12761.175
1390.65578	11755.175
1394.11575	11037.475
1397.57339	10745.375
1401.0287	10702.475
1404.48168	10691.775
1407.93234	10726.175
1411.38068	10865.975
1414.82669	11062.375
1418.27039	11142.375
1421.71177	10969.975
1425.15083	10632.775
1428.58758	10689.075
1432.02203	11076.175
1435.45416	11439.575
1438.88399	11412.875
1442.31151	11286.775
1445.73673	11352.175
1449.15965	11429.775
1452.58027	11307.775
1455.9986	11029.575
1459.41463	10915.575
1462.82837	11172.675
1466.23982	11700.575
1469.64898	12180.675
1473.05586	12427.575
1476.46045	12559.875
1479.86276	12766.775
1483.26279	13270.875
1486.66054	14075.875
1490.05602	15191.375
1493.44922	16949.475
1496.84016	19580.875
1500.22882	23935.175
1503.61521	30172.675
1506.99934	37438.175
1510.38121	43156.675
1513.76081	43717.775
1517.13816	38197.875
1520.51324	29734.775
1523.88607	22616.375
1527.25665	18332.575
1530.62498	16026.975
1533.99105	14657.375
1537.35488	13768.575
1540.71647	13206.375
1544.07581	12975.875
1547.4329	12951.275
1550.78776	13062.075
1554.14038	13319.375
1557.49077	13687.575
1560.83892	14337.475
1564.18484	15343.875
1567.52853	16528.975
1570.86999	17357.275
1574.20922	17743.275
1577.54624	17470.375
1580.88103	15700.175
1584.2136	13401.075
1587.54395	12081.775
1590.87208	11986.175
1594.19801	13110.775
1597.52172	14778.675
1600.84321	15586.975
1604.16251	14938.775
1607.47959	13698.675
1610.79447	12336.675
1614.10715	11010.775
1617.41763	9889.275
1620.7259	9207.875
1624.03199	8905.475
1627.33587	8985.075
1630.63757	9441.075
1633.93707	10382.675
1637.23439	12004.975
1640.52951	14770.875
1643.82246	19135.075
1647.11321	24513.375
1650.40179	28027.475
1653.68819	26440.975
1656.97241	20734.775
1660.25446	15011.575
1663.53433	11299.075
1666.81203	9233.875
1670.08756	8118.375
1673.36092	7488.175
1676.63211	7059.375
1679.90115	6831.575
1683.16801	6621.275
1686.43272	6478.775
1689.69527	6367.075
1692.95567	6300.475
1696.2139	6270.475
1699.46999	6246.875
1702.72392	6211.375
1705.97571	6198.975
1709.22535	6172.575
1712.47284	6179.675
1715.71819	6190.775
1718.96139	6164.875
1722.20246	6151.775
1725.44139	6079.675
1728.67818	5973.975
1731.91284	5874.475
1735.14537	5799.975
1738.37576	5757.975
1741.60403	5716.575
1744.83017	5696.575
1748.05418	5669.175
1751.27607	5639.975
1754.49584	5615.375
1757.71349	5596.775
1760.92903	5586.775
1764.14244	5572.775
1767.35375	5526.575
1770.56294	5476.275
1773.77002	5431.075
1776.97499	5396.075
1780.17785	5362.975
1783.37861	5326.775
1786.57727	5296.575
1789.77382	5288.175
1792.96828	5264.675
1796.16064	5248.575
1799.3509	5250.375
1802.53907	5236.775
1805.72514	5202.575
1808.90913	5167.375
1812.09102	5153.375
1815.27083	5127.975
1818.44856	5113.975
1821.6242	5098.375
1824.79776	5090.675
1827.96924	5077.075
1831.13864	5057.475
1834.30597	5039.375
1837.47122	5032.875
1840.6344	4997.075
1843.7955	5007.975
1846.95454	4991.675
1850.11151	4988.875
1853.26642	4969.375
1856.41926	4987.875
1859.57004	4966.375
1862.71876	4990.575
1865.86542	4971.475
1869.01003	4980.575
1872.15258	4983.875
1875.29308	4994.775
1878.43152	4969.075
1881.56792	4993.175
1884.70227	4972.675
1887.83457	4982.875
1890.96482	4977.175
1894.09304	4965.175
1897.21921	4969.275
1900.34335	4969.975
1903.46544	4960.775
1906.58551	4956.075
1909.70353	4978.775
1912.81953	4962.875
1915.93349	4959.675
1919.04543	4940.175
1922.15534	4923.675
1925.26322	4904.675
1928.36908	4865.475
1931.47292	4842.875
1934.57473	4821.975
1937.67453	4802.075
1940.77232	4771.475
1943.86808	4757.075
1946.96184	4738.275
1950.05358	4723.075
1953.14331	4721.975
1956.23103	4703.675
1959.31675	4710.075
1962.40046	4696.675
1965.48217	4694.175
1968.56188	4706.575
1971.63959	4697.075
1974.7153	4687.675
1977.78901	4661.575
1980.86073	4641.675
1983.93046	4614.275
1986.99819	4565.775
1990.06394	4543.375
1993.1277	4520.975
1996.18947	4495.075
1999.24925	4474.275
2002.30706	4463.775
2005.36288	4437.075
2008.41672	4427.475
2011.46859	4403.575
2014.51848	4392.875
2017.56639	4399.175
2020.61233	4385.075
2023.6563	4358.875
2026.6983	4355.475
2029.73833	4329.875
2032.7764	4344.375
2035.8125	4311.775
2038.84664	4332.475
2041.87881	4315.575
2044.90903	4307.675
2047.93729	4304.675
2050.96359	4283.775
2053.98794	4286.875
2057.01034	4269.275
2060.03078	4268.575
2063.04927	4257.375
2066.06582	4243.375
2069.08042	4230.375
2072.09307	4216.975
2075.10378	4216.375
2078.11255	4213.575
2081.11938	4224.675
2084.12426	4220.275
2087.12722	4221.275
2090.12824	4231.375
2093.12732	4225.375
2096.12447	4231.975
2099.11969	4228.475
2102.11299	4229.675
2105.10435	4224.275
2108.09379	4226.175
2111.08131	4230.375
2114.0669	4244.275
2117.05057	4254.275
2120.03233	4268.275
2123.01216	4261.375
2125.99008	4296.675
2128.96609	4278.375
2131.94018	4281.675
2134.91236	4280.075
2137.88263	4279.975
2140.851	4265.275
2143.81746	4259.675
2146.78201	4240.275
2149.74466	4248.075
2152.7054	4221.375
2155.66425	4213.475
2158.6212	4191.975
2161.57625	4210.375
2164.52941	4195.975
2167.48067	4193.575
2170.43004	4203.775
2173.37752	4203.475
2176.32311	4211.275
2179.26681	4214.375
2182.20863	4208.975
2185.14856	4218.875
2188.08661	4203.175
2191.02278	4192.175
2193.95707	4191.675
2196.88948	4176.375
2199.82001	4189.775
2202.74867	4183.275
2205.67545	4175.375
2208.60037	4175.575
2211.52341	4169.575
2214.44458	4169.575
2217.36388	4160.175
2220.28132	4151.375
2223.1969	4128.375
2226.11061	4134.175
2229.02246	4116.975
2231.93245	4118.775
2234.84058	4095.975
2237.74686	4105.175
2240.65128	4104.575
2243.55385	4094.975
2246.45456	4094.575
2249.35343	4096.275
2252.25044	4100.275
2255.14561	4126.675
2258.03893	4145.575
2260.93041	4148.475
2263.82004	4147.775
2266.70783	4137.175
2269.59378	4129.775
2272.4779	4117.975
2275.36017	4116.475
2278.24061	4100.275
2281.11922	4082.775
2283.996	4073.875
2286.87094	4054.075
2289.74405	4045.475
2292.61534	4014.875
2295.4848	4015.975
2298.35243	3998.075
2301.21824	3994.675
2304.08223	4010.075
2306.94439	4009.875
2309.80474	4014.575
2312.66327	4007.975
2315.51999	4014.875
2318.37489	4000.775
2321.22797	4002.175
2324.07925	4011.575
2326.92871	4011.575
2329.77637	4012.775
2332.62222	4011.175
2335.46626	3999.675
2338.3085	4027.275
2341.14893	4025.175
2343.98756	4028.275
2346.8244	4064.575
2349.65943	4059.575
2352.49267	4069.575
2355.32411	4087.775
2358.15376	4106.975
2360.98161	4118.275
2363.80768	4139.275
2366.63195	4160.875
2369.45444	4160.475
2372.27514	4157.075
2375.09405	4148.175
2377.91118	4112.475
2380.72652	4079.975
2383.54009	4067.375
2386.35187	4049.275
2389.16188	4013.475
2391.97011	3980.275
2394.77657	3970.575
2397.58125	3959.775
2400.38416	3933.375
2403.18529	3922.575
2405.98466	3917.375
2408.78226	3903.075
2411.57809	3888.975
2414.37216	3886.775
2417.16446	3884.675
2419.955	3850.675
2422.74378	3873.575
2425.5308	3874.775
2428.31606	3891.275
2431.09956	3901.875
2433.88131	3894.675
2436.6613	3905.275
2439.43954	3907.275
2442.21603	3913.575
2444.99077	3917.175
2447.76377	3924.475
2450.53501	3936.275
2453.30451	3960.875
2456.07226	3946.075
2458.83827	3955.575
2461.60254	3944.675
2464.36507	3954.375
2467.12586	3957.875
2469.88492	3962.775
2472.64224	3954.475
2475.39782	3980.975
2478.15167	3983.775
2480.90379	4003.675
2483.65417	4027.675
2486.40283	4045.675
2489.14976	4072.175
2491.89497	4086.575
2494.63845	4082.475
2497.3802	4081.475
2500.12024	4069.575
2502.85855	4048.975
2505.59514	4015.075
2508.33002	3979.975
2511.06318	3969.175
2513.79462	3923.675
2516.52435	3878.375
2519.25237	3853.175
2521.97867	3864.775
2524.70327	3833.775
2527.42616	3839.075
2530.14734	3803.075
2532.86681	3833.775
2535.58458	3835.275
2538.30065	3824.375
2541.01501	3830.875
2543.72768	3836.575
2546.43864	3841.975
2549.14791	3853.875
2551.85548	3845.875
2554.56136	3854.775
2557.26554	3855.175
2559.96803	3841.975
2562.66883	3872.875
2565.36794	3853.675
2568.06536	3850.775
2570.7611	3834.175
2573.45514	3841.375
2576.14751	3818.575
2578.83819	3824.875
2581.52719	3803.575
2584.21451	3814.975
2586.90015	3782.375
2589.58411	3783.675
2592.2664	3791.575
2594.94701	3782.075
2597.62594	3779.375
2600.30321	3787.875
2602.9788	3791.975
2605.65273	3778.175
2608.32498	3787.675
2610.99557	3789.275
2613.66449	3787.075
2616.33175	3807.375
2618.99734	3810.275
2621.66128	3807.675
2624.32355	3818.675
2626.98416	3793.575
2629.64311	3788.275
2632.30041	3784.875
2634.95605	3785.275
2637.61004	3762.475
2640.26238	3751.475
2642.91306	3757.375
2645.56209	3740.875
2648.20948	3723.975
2650.85521	3739.975
2653.4993	3743.775
2656.14175	3748.875
2658.78255	3761.075
2661.42171	3762.375
2664.05923	3770.375
2666.6951	3767.275
2669.32934	3788.775
2671.96194	3795.875
2674.59291	3808.275
2677.22224	3796.175
2679.84993	3807.475
2682.476	3793.675
2685.10043	3799.075
2687.72324	3770.275
2690.34441	3771.575
2692.96396	3775.375
2695.58188	3765.775
2698.19818	3766.975
2700.81285	3769.375
2703.4259	3777.475
2706.03733	3773.775
2708.64714	3779.175
2711.25533	3793.475
2713.86191	3789.875
2716.46687	3792.875
2719.07021	3796.075
2721.67194	3792.675
2724.27206	3794.175
2726.87057	3796.975
2729.46747	3787.975
2732.06276	3788.875
2734.65644	3756.675
2737.24852	3747.875
2739.83899	3748.375
2742.42786	3747.075
2745.01513	3738.075
2747.60079	3712.775
2750.18486	3725.575
2752.76733	3703.575
2755.3482	3706.475
2757.92747	3686.775
2760.50515	3687.175
2763.08123	3688.775
2765.65573	3686.175
2768.22863	3681.975
2770.79994	3678.475
2773.36967	3687.175
2775.9378	3682.875
2778.50435	3689.475
2781.06932	3692.475
2783.6327	3682.675
2786.1945	3685.275
2788.75471	3687.175
2791.31335	3687.875
2793.87041	3686.475
2796.42589	3692.375
2798.97979	3700.975
2801.53212	3704.475
2804.08288	3702.075
2806.63206	3713.975
2809.17967	3724.575
2811.72571	3738.575
2814.27018	3760.475
2816.81308	3762.075
2819.35442	3787.375
2821.89419	3790.775
2824.43239	3814.275
2826.96904	3813.375
2829.50412	3807.575
2832.03763	3797.275
2834.56959	3783.175
2837.1	3779.375
2839.62884	3775.775
2842.15613	3774.675
2844.68186	3788.075
2847.20604	3775.375
2849.72867	3794.275
2852.24974	3802.175
2854.76927	3810.575
2857.28724	3819.575
2859.80367	3835.475
2862.31855	3854.975
2864.83189	3868.775
2867.34368	3875.375
2869.85393	3900.275
2872.36264	3905.475
2874.8698	3914.675
2877.37543	3915.275
2879.87952	3904.075
2882.38207	3890.775
2884.88308	3876.375
2887.38256	3864.775
2889.88051	3877.175
2892.37692	3854.775
2894.8718	3850.275
2897.36515	3855.275
2899.85698	3853.775
2902.34727	3861.975
2904.83604	3837.675
2907.32328	3826.575
2909.809	3846.575
2912.29319	3825.075
2914.77587	3805.575
2917.25702	3803.375
2919.73665	3798.975
2922.21476	3779.575
2924.69136	3769.175
2927.16644	3769.875
2929.64	3734.675
2932.11205	3731.675
2934.58258	3720.875
2937.05161	3739.975
2939.51912	3718.275
2941.98513	3733.275
2944.44962	3719.975
2946.91261	3700.775
2949.37409	3714.775
2951.83407	3723.275
2954.29254	3713.175
2956.74951	3707.375
2959.20498	3713.975
2961.65895	3699.075
2964.11142	3702.075
2966.56239	3683.375
2969.01186	3668.375
2971.45984	3675.875
2973.90632	3643.275
2976.35131	3653.475
2978.7948	3627.975
2981.23681	3618.475
2983.67732	3590.575
2986.11635	3585.775
2988.55388	3585.275
2990.98993	3570.075
2993.4245	3590.675
2995.85758	3598.975
2998.28917	3597.675
3000.71928	3587.975
3003.14791	3601.475
3005.57506	3602.375
3008.00073	3593.175
3010.42493	3606.475
3012.84764	3603.575
3015.26888	3594.175
3017.68865	3600.975
3020.10694	3589.075
3022.52376	3568.675
3024.9391	3555.875
3027.35298	3555.075
3029.76539	3533.575
3032.17632	3516.775
3034.5858	3506.575
3036.9938	3500.075
3039.40034	3471.175
3041.80542	3454.375
3044.20903	3443.275
3046.61118	3453.275
3049.01187	3436.775
3051.4111	3418.875
3053.80888	3425.275
3056.20519	3429.875
3058.60005	3416.775
3060.99345	3405.775
3063.3854	3393.875
3065.7759	3382.975
3068.16494	3382.775
3070.55254	3379.975
3072.93868	3365.375
3075.32338	3358.075
3077.70662	3351.575
3080.08842	3330.875
3082.46878	3331.675
3084.84769	3332.275
3087.22515	3324.475
3089.60118	3316.175
3091.97576	3332.375
3094.3489	3317.675
3096.72061	3306.975
3099.09087	3309.275
3101.4597	3310.975
3103.82709	3316.175
3106.19305	3298.875
3108.55757	3315.975
3110.92066	3296.675
3113.28232	3306.175
3115.64255	3287.475
3118.00134	3282.775
3120.35871	3280.875
3122.71466	3289.675
3125.06917	3292.075
3127.42226	3293.675
3129.77393	3297.275
3132.12417	3296.775
3134.47299	3299.675
3136.82039	3304.775
3139.16636	3310.075
3141.51092	3302.175
3143.85406	3316.775
3146.19579	3324.175
3148.53609	3331.975
3150.87499	3335.075
3153.21246	3339.575
3155.54853	3352.675
3157.88318	3349.775
3160.21642	3347.275
3162.54826	3344.775
3164.87868	3345.475
3167.2077	3339.175
3169.5353	3348.675
3171.86151	3350.375
3174.18631	3350.175
3176.5097	3348.575
3178.83169	3349.275
3181.15228	3357.075
3183.47147	3353.275
3185.78926	3356.675
3188.10565	3347.775
3190.42065	3367.775
3192.73424	3365.275
3195.04645	3367.975
3197.35725	3377.575
3199.66667	3385.075
3201.97469	3408.675
3204.28132	3415.675
3206.58656	3421.375
3208.8904	3435.775
3211.19287	3433.775
3213.49394	3451.075
3215.79363	3446.675
3218.09193	3459.075
3220.38884	3471.675
3222.68438	3483.075
3224.97853	3462.775
3227.2713	3463.575
3229.56269	3466.075
3231.8527	3471.375
3234.14133	3473.375
3236.42858	3461.975
3238.71446	3472.275
3240.99896	3484.275
3243.28209	3469.275
3245.56384	3465.875
3247.84423	3470.875
3250.12324	3480.675
3252.40088	3476.475
3254.67715	3475.575
3256.95205	3471.975
3259.22558	3460.275
3261.49775	3468.775
3263.76855	3456.175
3266.03799	3455.375
3268.30606	3453.875
3270.57277	3458.475
3272.83812	3456.375
3275.10211	3443.675
3277.36474	3443.875
3279.62601	3454.875
3281.88593	3457.775
3284.14448	3459.875
3286.40168	3472.275
3288.65753	3468.375
3290.91202	3466.375
3293.16516	3450.275
3295.41695	3463.975
3297.66738	3439.075
3299.91647	3424.475
3302.16421	3401.775
3304.4106	3390.175
3306.65564	3360.875
3308.89933	3322.975
3311.14169	3316.975
3313.38269	3266.175
3315.62236	3260.175
3317.86068	3239.675
3320.09766	3187.075
3322.3333	3155.675
3324.5676	3150.475
3326.80056	3095.275
3329.03219	3073.375
3331.26248	1.275
3333.49143	-1.425
3335.71905	1.275
