Data from AgNP_FTO_APTES_UA_100uM_CRN_0uM_R6G_10uM_NaF_0.1M_Addition_RamanShift__33__11-23-40-124.txt Node

Date: Thu Mar 24 11:23:40 GMT 2022
User: TCL
Spectrometer: QEP01345
Trigger mode: 4
Integration Time (sec): 7.000000E0
Scans to average: 10
Electric dark correction enabled: true
Nonlinearity correction enabled: false
Boxcar width: 0
XAxis mode: Raman Shifts
Number of Pixels in Spectrum: 1044
>>>>>Begin Spectral Data<<<<<
46.04893	-1.9625
50.45542	1.3375
54.85868	-2.5625
59.25871	-0.0625
63.6555	42.2375
68.04907	42.8375
72.43941	45.4375
76.82654	45.9375
81.21044	51.4375
85.59113	50.5375
89.96862	56.1375
94.34289	54.3375
98.71396	60.7375
103.08183	56.3375
107.4465	57.9375
111.80798	60.1375
116.16626	62.0375
120.52136	64.9375
124.87327	65.5375
129.222	69.1375
133.56755	74.9375
137.90993	80.9375
142.24913	91.3375
146.58517	100.2375
150.91804	118.1375
155.24774	142.5375
159.57429	175.0375
163.89768	227.3375
168.21792	307.0375
172.53501	416.7375
176.84895	585.8375
181.15975	818.1375
185.46741	1144.6375
189.77193	1585.1375
194.07331	2121.4375
198.37157	2743.0375
202.6667	3377.3375
206.9587	4041.2375
211.24758	4713.3375
215.53334	5449.6375
219.81599	6304.9375
224.09553	7244.4375
228.37195	8299.0375
232.64527	9449.4375
236.91549	10556.7375
241.18261	11533.7375
245.44663	12309.8375
249.70755	12822.9375
253.96539	13263.6375
258.22014	13653.9375
262.4718	14033.7375
266.72039	14253.9375
270.96589	14254.9375
275.20832	14057.2375
279.44768	13760.4375
283.68397	13501.7375
287.91719	13361.1375
292.14735	13432.3375
296.37445	13758.7375
300.59849	14417.4375
304.81948	15191.6375
309.03742	15856.8375
313.25231	16020.8375
317.46415	15352.0375
321.67296	14120.7375
325.87872	13058.9375
330.08145	12508.7375
334.28114	12401.8375
338.47781	12606.7375
342.67145	12974.0375
346.86207	13489.6375
351.04966	14337.5375
355.23424	15313.2375
359.4158	16073.5375
363.59435	16359.5375
367.76989	16344.3375
371.94243	16192.8375
376.11196	16013.7375
380.27849	15837.2375
384.44203	15645.8375
388.60257	15425.2375
392.76012	15293.3375
396.91468	15358.5375
401.06626	15742.4375
405.21485	16003.5375
409.36047	15694.9375
413.50311	14707.7375
417.64277	13824.2375
421.77947	13358.7375
425.9132	13194.6375
430.04396	13221.3375
434.17176	13288.5375
438.2966	13537.2375
442.41849	14001.9375
446.53742	14691.5375
450.6534	15360.0375
454.76644	15649.6375
458.87653	15520.5375
462.98368	15089.3375
467.08789	14646.3375
471.18916	14185.0375
475.2875	13753.9375
479.38291	13408.8375
483.4754	13150.5375
487.56496	12920.5375
491.6516	12706.0375
495.73531	12536.0375
499.81612	12511.4375
503.89401	12641.0375
507.96899	12804.8375
512.04106	12990.3375
516.11023	13070.6375
520.1765	13147.5375
524.23987	13112.2375
528.30034	13030.4375
532.35792	12847.9375
536.41261	12518.6375
540.46441	12082.5375
544.51333	11840.1375
548.55936	11940.9375
552.60252	12376.6375
556.64279	13030.7375
560.6802	13492.4375
564.71473	13929.6375
568.7464	14754.6375
572.7752	15506.2375
576.80114	15183.5375
580.82422	14656.4375
584.84444	14602.9375
588.86181	15126.0375
592.87633	15910.2375
596.888	16232.3375
600.89682	15816.5375
604.9028	16995.1375
608.90594	22113.6375
612.90624	28986.3375
616.90371	27681.2375
620.89834	18152.7375
624.89015	13314.6375
628.87913	12402.0375
632.86528	12634.4375
636.84862	12929.2375
640.82913	12612.7375
644.80683	11731.7375
648.78172	11075.5375
652.75379	11042.6375
656.72306	11663.8375
660.68952	12490.4375
664.65319	12332.2375
668.61405	11458.4375
672.57211	11090.4375
676.52738	11089.0375
680.47986	11047.5375
684.42955	10830.8375
688.37646	10639.3375
692.32058	10670.1375
696.26192	10878.1375
700.20048	11168.4375
704.13626	11360.1375
708.06928	11369.4375
711.99952	11239.0375
715.927	11191.3375
719.85171	11275.9375
723.77365	11306.6375
727.69284	11140.2375
731.60928	10985.7375
735.52295	10958.5375
739.43388	11079.3375
743.34206	11171.0375
747.24749	11198.6375
751.15017	11321.6375
755.05012	11588.9375
758.94733	12473.2375
762.8418	14606.6375
766.73354	18268.8375
770.62254	21791.4375
774.50882	23281.9375
778.39237	21894.3375
782.27321	18408.5375
786.15132	14882.8375
790.02671	12646.4375
793.89938	11580.2375
797.76935	11133.0375
801.6366	10945.8375
805.50115	10805.6375
809.36299	10688.0375
813.22213	10576.4375
817.07857	10488.2375
820.93231	10464.9375
824.78336	10477.6375
828.63172	10528.9375
832.47738	10563.8375
836.32036	10489.2375
840.16066	10451.3375
843.99827	10389.9375
847.8332	10367.1375
851.66546	10333.1375
855.49504	10346.1375
859.32195	10338.5375
863.1462	10277.4375
866.96777	10201.4375
870.78668	10172.5375
874.60293	10185.5375
878.41652	10239.7375
882.22745	10372.0375
886.03573	10468.8375
889.84136	10512.5375
893.64433	10441.1375
897.44466	10391.4375
901.24235	10336.3375
905.0374	10238.7375
908.8298	10094.6375
912.61957	10021.7375
916.40671	10027.4375
920.19121	10232.6375
923.97308	10466.2375
927.75233	10708.6375
931.52895	10848.7375
935.30295	10629.0375
939.07433	10109.9375
942.84309	9714.2375
946.60924	9513.9375
950.37278	9421.3375
954.13371	9380.8375
957.89203	9313.4375
961.64774	9286.9375
965.40086	9265.9375
969.15137	9213.7375
972.89929	9161.0375
976.64461	9144.0375
980.38733	9133.5375
984.12747	9140.0375
987.86502	9221.7375
991.59999	9390.6375
995.33237	9636.9375
999.06217	10071.5375
1002.78939	10626.1375
1006.51404	11140.1375
1010.23611	11503.7375
1013.95561	11710.2375
1017.67255	11647.6375
1021.38692	11315.6375
1025.09872	10881.7375
1028.80796	10639.3375
1032.51465	10720.3375
1036.21877	10925.2375
1039.92035	11010.1375
1043.61937	11029.6375
1047.31584	10950.8375
1051.00976	10811.5375
1054.70114	10696.5375
1058.38998	10622.6375
1062.07627	10657.1375
1065.76003	10701.1375
1069.44126	10869.0375
1073.11995	11158.2375
1076.79611	11493.0375
1080.46974	11855.9375
1084.14085	12397.4375
1087.80943	12955.2375
1091.47549	13133.5375
1095.13903	12867.9375
1098.80005	12225.7375
1102.45857	11700.1375
1106.11456	11464.7375
1109.76805	11567.4375
1113.41903	11972.0375
1117.06751	12565.2375
1120.71348	13440.6375
1124.35696	14416.7375
1127.99793	15162.1375
1131.63641	14911.8375
1135.2724	13959.2375
1138.90589	13129.3375
1142.5369	12599.5375
1146.16542	12277.1375
1149.79145	12151.0375
1153.415	12167.4375
1157.03607	12313.5375
1160.65467	12739.5375
1164.27079	13569.3375
1167.88443	14924.8375
1171.49561	16933.4375
1175.10432	20015.0375
1178.71056	24032.1375
1182.31434	27393.9375
1185.91565	28398.2375
1189.51451	27273.9375
1193.11091	25250.6375
1196.70485	22941.6375
1200.29634	20915.3375
1203.88538	19232.2375
1207.47197	17510.1375
1211.05612	16139.6375
1214.63782	15437.8375
1218.21708	15398.9375
1221.79391	15630.3375
1225.36829	15785.5375
1228.94024	15503.4375
1232.50976	14873.2375
1236.07685	14384.9375
1239.6415	14154.5375
1243.20374	14093.1375
1246.76355	14139.0375
1250.32093	14362.8375
1253.8759	14775.4375
1257.42845	15502.4375
1260.97859	16333.7375
1264.52631	17313.3375
1268.07163	18282.6375
1271.61453	19201.6375
1275.15503	19938.8375
1278.69312	20476.2375
1282.22882	21040.4375
1285.76211	21961.4375
1289.29301	23197.8375
1292.82151	24564.7375
1296.34761	26246.5375
1299.87133	28522.2375
1303.39266	31910.3375
1306.9116	36551.0375
1310.42815	41523.4375
1313.94233	43946.5375
1317.45412	42262.0375
1320.96354	38369.2375
1324.47058	34456.6375
1327.97525	31301.8375
1331.47754	29297.4375
1334.97747	28520.9375
1338.47502	28466.3375
1341.97022	28880.6375
1345.46305	29750.6375
1348.95352	31379.9375
1352.44163	33881.2375
1355.92738	37944.5375
1359.41078	44181.3375
1362.89183	49787.2375
1366.37053	47863.7375
1369.84688	39203.3375
1373.32088	30993.3375
1376.79254	26223.6375
1380.26186	23853.8375
1383.72883	22484.9375
1387.19347	21562.7375
1390.65578	20872.8375
1394.11575	20593.4375
1397.57339	20767.7375
1401.0287	21155.1375
1404.48168	21454.0375
1407.93234	21432.4375
1411.38068	21187.8375
1414.82669	20650.5375
1418.27039	19943.5375
1421.71177	19058.7375
1425.15083	18289.7375
1428.58758	17966.6375
1432.02203	18292.3375
1435.45416	18728.2375
1438.88399	18998.6375
1442.31151	19099.2375
1445.73673	19267.0375
1449.15965	19571.1375
1452.58027	19687.2375
1455.9986	19624.3375
1459.41463	19824.5375
1462.82837	20325.6375
1466.23982	21033.1375
1469.64898	21607.8375
1473.05586	21877.4375
1476.46045	21860.2375
1479.86276	21849.8375
1483.26279	21985.7375
1486.66054	22491.0375
1490.05602	23451.0375
1493.44922	24695.7375
1496.84016	26627.5375
1500.22882	29731.5375
1503.61521	34275.7375
1506.99934	39405.2375
1510.38121	43443.7375
1513.76081	44072.5375
1517.13816	40157.3375
1520.51324	34018.0375
1523.88607	28712.7375
1527.25665	25574.6375
1530.62498	23975.4375
1533.99105	23098.8375
1537.35488	22379.4375
1540.71647	21725.8375
1544.07581	21164.4375
1547.4329	20583.7375
1550.78776	20237.6375
1554.14038	20037.3375
1557.49077	20123.4375
1560.83892	20467.4375
1564.18484	21175.2375
1567.52853	22111.1375
1570.86999	22982.3375
1574.20922	23472.2375
1577.54624	23316.8375
1580.88103	21932.5375
1584.2136	20195.7375
1587.54395	19570.2375
1590.87208	20330.8375
1594.19801	22381.4375
1597.52172	24937.4375
1600.84321	26058.3375
1604.16251	24814.4375
1607.47959	22245.6375
1610.79447	19447.0375
1614.10715	16941.2375
1617.41763	15119.4375
1620.7259	13894.2375
1624.03199	13371.0375
1627.33587	13419.9375
1630.63757	14010.0375
1633.93707	15405.6375
1637.23439	17826.4375
1640.52951	21691.3375
1643.82246	26917.8375
1647.11321	32315.1375
1650.40179	34907.2375
1653.68819	32420.9375
1656.97241	26118.9375
1660.25446	19809.6375
1663.53433	15369.6375
1666.81203	12854.7375
1670.08756	11420.7375
1673.36092	10575.4375
1676.63211	10026.1375
1679.90115	9671.0375
1683.16801	9412.1375
1686.43272	9231.5375
1689.69527	9070.8375
1692.95567	8983.3375
1696.2139	8950.4375
1699.46999	8891.2375
1702.72392	8830.2375
1705.97571	8782.7375
1709.22535	8784.1375
1712.47284	8761.9375
1715.71819	8762.1375
1718.96139	8690.8375
1722.20246	8660.5375
1725.44139	8548.9375
1728.67818	8447.8375
1731.91284	8359.6375
1735.14537	8253.0375
1738.37576	8194.5375
1741.60403	8154.5375
1744.83017	8107.4375
1748.05418	8071.7375
1751.27607	8031.4375
1754.49584	8006.3375
1757.71349	7980.4375
1760.92903	7953.3375
1764.14244	7947.0375
1767.35375	7937.4375
1770.56294	7915.3375
1773.77002	7860.3375
1776.97499	7805.5375
1780.17785	7777.3375
1783.37861	7764.1375
1786.57727	7725.7375
1789.77382	7692.3375
1792.96828	7680.3375
1796.16064	7669.3375
1799.3509	7646.9375
1802.53907	7614.1375
1805.72514	7596.2375
1808.90913	7569.8375
1812.09102	7540.2375
1815.27083	7524.5375
1818.44856	7492.6375
1821.6242	7479.7375
1824.79776	7463.3375
1827.96924	7454.2375
1831.13864	7433.9375
1834.30597	7436.1375
1837.47122	7418.9375
1840.6344	7417.1375
1843.7955	7417.4375
1846.95454	7416.0375
1850.11151	7396.1375
1853.26642	7396.3375
1856.41926	7415.2375
1859.57004	7419.0375
1862.71876	7396.3375
1865.86542	7412.7375
1869.01003	7423.3375
1872.15258	7431.0375
1875.29308	7442.2375
1878.43152	7408.0375
1881.56792	7439.0375
1884.70227	7466.7375
1887.83457	7470.1375
1890.96482	7451.3375
1894.09304	7443.4375
1897.21921	7464.3375
1900.34335	7466.3375
1903.46544	7473.8375
1906.58551	7458.5375
1909.70353	7434.7375
1912.81953	7432.8375
1915.93349	7420.3375
1919.04543	7374.8375
1922.15534	7368.3375
1925.26322	7307.0375
1928.36908	7282.4375
1931.47292	7234.9375
1934.57473	7207.2375
1937.67453	7178.1375
1940.77232	7176.4375
1943.86808	7104.9375
1946.96184	7106.1375
1950.05358	7072.6375
1953.14331	7040.3375
1956.23103	7025.6375
1959.31675	7018.4375
1962.40046	7008.5375
1965.48217	6982.8375
1968.56188	7002.9375
1971.63959	7004.4375
1974.7153	6978.2375
1977.78901	6953.6375
1980.86073	6918.6375
1983.93046	6871.6375
1986.99819	6820.6375
1990.06394	6811.0375
1993.1277	6762.9375
1996.18947	6757.3375
1999.24925	6733.2375
2002.30706	6708.5375
2005.36288	6673.4375
2008.41672	6659.4375
2011.46859	6640.4375
2014.51848	6620.1375
2017.56639	6582.9375
2020.61233	6566.3375
2023.6563	6534.1375
2026.6983	6504.2375
2029.73833	6488.7375
2032.7764	6486.0375
2035.8125	6464.3375
2038.84664	6462.0375
2041.87881	6464.2375
2044.90903	6440.6375
2047.93729	6414.0375
2050.96359	6422.1375
2053.98794	6399.3375
2057.01034	6406.2375
2060.03078	6382.9375
2063.04927	6380.4375
2066.06582	6379.2375
2069.08042	6374.4375
2072.09307	6378.2375
2075.10378	6381.2375
2078.11255	6369.0375
2081.11938	6373.9375
2084.12426	6361.2375
2087.12722	6358.9375
2090.12824	6358.3375
2093.12732	6369.4375
2096.12447	6395.6375
2099.11969	6354.7375
2102.11299	6367.8375
2105.10435	6373.0375
2108.09379	6345.5375
2111.08131	6358.7375
2114.0669	6358.5375
2117.05057	6356.9375
2120.03233	6352.5375
2123.01216	6341.8375
2125.99008	6345.0375
2128.96609	6340.8375
2131.94018	6347.7375
2134.91236	6339.2375
2137.88263	6329.7375
2140.851	6319.9375
2143.81746	6311.6375
2146.78201	6311.6375
2149.74466	6292.7375
2152.7054	6292.1375
2155.66425	6277.5375
2158.6212	6266.9375
2161.57625	6255.8375
2164.52941	6229.4375
2167.48067	6222.3375
2170.43004	6221.8375
2173.37752	6227.0375
2176.32311	6207.6375
2179.26681	6212.6375
2182.20863	6224.8375
2185.14856	6218.7375
2188.08661	6206.2375
2191.02278	6204.5375
2193.95707	6206.3375
2196.88948	6184.0375
2199.82001	6175.4375
2202.74867	6170.3375
2205.67545	6161.5375
2208.60037	6157.8375
2211.52341	6159.6375
2214.44458	6142.2375
2217.36388	6126.2375
2220.28132	6110.2375
2223.1969	6087.7375
2226.11061	6069.9375
2229.02246	6066.6375
2231.93245	6077.5375
2234.84058	6040.1375
2237.74686	6037.1375
2240.65128	6043.4375
2243.55385	6036.9375
2246.45456	6010.2375
2249.35343	6024.2375
2252.25044	6014.7375
2255.14561	5990.6375
2258.03893	6006.1375
2260.93041	6001.9375
2263.82004	6006.2375
2266.70783	5990.0375
2269.59378	5976.8375
2272.4779	5966.5375
2275.36017	5919.8375
2278.24061	5914.7375
2281.11922	5902.9375
2283.996	5906.7375
2286.87094	5882.0375
2289.74405	5863.1375
2292.61534	5856.5375
2295.4848	5839.1375
2298.35243	5851.3375
2301.21824	5821.1375
2304.08223	5821.6375
2306.94439	5838.1375
2309.80474	5855.3375
2312.66327	5855.9375
2315.51999	5851.9375
2318.37489	5838.6375
2321.22797	5841.4375
2324.07925	5840.8375
2326.92871	5839.2375
2329.77637	5841.4375
2332.62222	5819.5375
2335.46626	5817.6375
2338.3085	5823.4375
2341.14893	5818.9375
2343.98756	5831.3375
2346.8244	5843.8375
2349.65943	5844.9375
2352.49267	5873.0375
2355.32411	5895.0375
2358.15376	5885.6375
2360.98161	5911.1375
2363.80768	5904.2375
2366.63195	5923.2375
2369.45444	5925.3375
2372.27514	5920.1375
2375.09405	5904.4375
2377.91118	5893.1375
2380.72652	5865.5375
2383.54009	5850.7375
2386.35187	5807.2375
2389.16188	5773.0375
2391.97011	5769.2375
2394.77657	5735.3375
2397.58125	5708.6375
2400.38416	5723.9375
2403.18529	5688.3375
2405.98466	5682.8375
2408.78226	5660.4375
2411.57809	5651.8375
2414.37216	5640.1375
2417.16446	5640.9375
2419.955	5631.6375
2422.74378	5649.1375
2425.5308	5624.5375
2428.31606	5635.4375
2431.09956	5630.6375
2433.88131	5634.4375
2436.6613	5626.8375
2439.43954	5630.7375
2442.21603	5638.5375
2444.99077	5649.4375
2447.76377	5653.5375
2450.53501	5675.9375
2453.30451	5690.1375
2456.07226	5679.9375
2458.83827	5674.2375
2461.60254	5688.2375
2464.36507	5690.1375
2467.12586	5677.1375
2469.88492	5700.2375
2472.64224	5707.6375
2475.39782	5707.3375
2478.15167	5723.0375
2480.90379	5741.3375
2483.65417	5762.6375
2486.40283	5776.3375
2489.14976	5789.0375
2491.89497	5809.1375
2494.63845	5820.1375
2497.3802	5804.8375
2500.12024	5783.4375
2502.85855	5794.1375
2505.59514	5779.4375
2508.33002	5746.6375
2511.06318	5691.6375
2513.79462	5692.1375
2516.52435	5633.9375
2519.25237	5640.1375
2521.97867	5604.0375
2524.70327	5590.3375
2527.42616	5575.7375
2530.14734	5587.3375
2532.86681	5581.7375
2535.58458	5580.0375
2538.30065	5587.5375
2541.01501	5608.9375
2543.72768	5601.3375
2546.43864	5595.4375
2549.14791	5594.4375
2551.85548	5597.2375
2554.56136	5597.8375
2557.26554	5595.8375
2559.96803	5591.2375
2562.66883	5576.7375
2565.36794	5586.1375
2568.06536	5593.1375
2570.7611	5570.3375
2573.45514	5577.5375
2576.14751	5575.1375
2578.83819	5555.6375
2581.52719	5579.0375
2584.21451	5552.9375
2586.90015	5553.4375
2589.58411	5538.1375
2592.2664	5552.6375
2594.94701	5552.4375
2597.62594	5556.6375
2600.30321	5542.2375
2602.9788	5527.7375
2605.65273	5538.6375
2608.32498	5554.3375
2610.99557	5555.3375
2613.66449	5570.1375
2616.33175	5563.5375
2618.99734	5566.9375
2621.66128	5575.5375
2624.32355	5556.1375
2626.98416	5573.6375
2629.64311	5549.8375
2632.30041	5554.2375
2634.95605	5545.1375
2637.61004	5551.1375
2640.26238	5533.1375
2642.91306	5512.7375
2645.56209	5520.5375
2648.20948	5517.4375
2650.85521	5510.0375
2653.4993	5512.5375
2656.14175	5524.7375
2658.78255	5544.4375
2661.42171	5540.5375
2664.05923	5559.6375
2666.6951	5559.5375
2669.32934	5571.3375
2671.96194	5591.6375
2674.59291	5593.1375
2677.22224	5584.5375
2679.84993	5579.1375
2682.476	5557.9375
2685.10043	5573.4375
2687.72324	5545.8375
2690.34441	5557.2375
2692.96396	5535.7375
2695.58188	5543.8375
2698.19818	5539.7375
2700.81285	5530.0375
2703.4259	5539.7375
2706.03733	5542.5375
2708.64714	5568.2375
2711.25533	5560.2375
2713.86191	5559.9375
2716.46687	5570.2375
2719.07021	5573.9375
2721.67194	5568.6375
2724.27206	5562.3375
2726.87057	5584.1375
2729.46747	5567.0375
2732.06276	5572.7375
2734.65644	5564.1375
2737.24852	5549.5375
2739.83899	5544.7375
2742.42786	5541.2375
2745.01513	5551.0375
2747.60079	5528.8375
2750.18486	5526.1375
2752.76733	5547.5375
2755.3482	5527.3375
2757.92747	5527.9375
2760.50515	5528.2375
2763.08123	5514.3375
2765.65573	5522.1375
2768.22863	5531.7375
2770.79994	5526.2375
2773.36967	5536.5375
2775.9378	5526.0375
2778.50435	5538.3375
2781.06932	5522.0375
2783.6327	5550.6375
2786.1945	5532.6375
2788.75471	5532.7375
2791.31335	5498.6375
2793.87041	5523.8375
2796.42589	5524.3375
2798.97979	5530.6375
2801.53212	5525.4375
2804.08288	5526.5375
2806.63206	5515.4375
2809.17967	5536.8375
2811.72571	5525.2375
2814.27018	5545.3375
2816.81308	5552.4375
2819.35442	5577.5375
2821.89419	5551.9375
2824.43239	5572.7375
2826.96904	5581.5375
2829.50412	5593.2375
2832.03763	5569.9375
2834.56959	5574.0375
2837.1	5558.1375
2839.62884	5555.7375
2842.15613	5552.9375
2844.68186	5560.5375
2847.20604	5573.8375
2849.72867	5604.3375
2852.24974	5602.7375
2854.76927	5627.3375
2857.28724	5605.2375
2859.80367	5645.5375
2862.31855	5631.6375
2864.83189	5650.7375
2867.34368	5659.9375
2869.85393	5676.7375
2872.36264	5670.8375
2874.8698	5705.4375
2877.37543	5703.7375
2879.87952	5693.4375
2882.38207	5671.5375
2884.88308	5669.0375
2887.38256	5679.3375
2889.88051	5648.1375
2892.37692	5657.4375
2894.8718	5655.8375
2897.36515	5682.1375
2899.85698	5656.7375
2902.34727	5675.8375
2904.83604	5686.0375
2907.32328	5686.8375
2909.809	5677.9375
2912.29319	5660.9375
2914.77587	5660.5375
2917.25702	5662.0375
2919.73665	5636.0375
2922.21476	5632.8375
2924.69136	5626.4375
2927.16644	5611.5375
2929.64	5580.5375
2932.11205	5566.4375
2934.58258	5535.4375
2937.05161	5539.4375
2939.51912	5534.0375
2941.98513	5526.5375
2944.44962	5515.9375
2946.91261	5476.2375
2949.37409	5477.9375
2951.83407	5484.4375
2954.29254	5472.4375
2956.74951	5465.0375
2959.20498	5456.8375
2961.65895	5436.4375
2964.11142	5415.3375
2966.56239	5408.2375
2969.01186	5382.2375
2971.45984	5356.6375
2973.90632	5342.7375
2976.35131	5320.5375
2978.7948	5295.2375
2981.23681	5280.1375
2983.67732	5280.4375
2986.11635	5251.3375
2988.55388	5251.2375
2990.98993	5234.8375
2993.4245	5217.6375
2995.85758	5211.9375
2998.28917	5220.0375
3000.71928	5206.6375
3003.14791	5208.8375
3005.57506	5195.4375
3008.00073	5195.9375
3010.42493	5184.7375
3012.84764	5180.6375
3015.26888	5186.1375
3017.68865	5149.8375
3020.10694	5158.3375
3022.52376	5125.0375
3024.9391	5108.0375
3027.35298	5099.8375
3029.76539	5100.3375
3032.17632	5070.9375
3034.5858	5053.8375
3036.9938	5050.3375
3039.40034	5039.7375
3041.80542	5026.5375
3044.20903	5018.9375
3046.61118	5014.2375
3049.01187	5002.3375
3051.4111	4980.9375
3053.80888	4987.9375
3056.20519	4970.8375
3058.60005	4955.2375
3060.99345	4958.8375
3063.3854	4926.9375
3065.7759	4909.9375
3068.16494	4903.6375
3070.55254	4882.6375
3072.93868	4873.4375
3075.32338	4853.2375
3077.70662	4850.9375
3080.08842	4836.3375
3082.46878	4835.0375
3084.84769	4825.1375
3087.22515	4813.9375
3089.60118	4824.7375
3091.97576	4807.4375
3094.3489	4790.3375
3096.72061	4779.5375
3099.09087	4782.8375
3101.4597	4772.7375
3103.82709	4755.3375
3106.19305	4764.2375
3108.55757	4761.2375
3110.92066	4717.7375
3113.28232	4739.6375
3115.64255	4723.2375
3118.00134	4717.4375
3120.35871	4705.8375
3122.71466	4690.7375
3125.06917	4684.5375
3127.42226	4684.1375
3129.77393	4702.7375
3132.12417	4689.4375
3134.47299	4695.1375
3136.82039	4695.4375
3139.16636	4701.8375
3141.51092	4694.5375
3143.85406	4688.1375
3146.19579	4694.0375
3148.53609	4680.6375
3150.87499	4712.9375
3153.21246	4700.9375
3155.54853	4714.4375
3157.88318	4704.0375
3160.21642	4702.5375
3162.54826	4689.2375
3164.87868	4674.5375
3167.2077	4696.3375
3169.5353	4689.7375
3171.86151	4682.5375
3174.18631	4705.3375
3176.5097	4674.4375
3178.83169	4682.4375
3181.15228	4682.0375
3183.47147	4687.0375
3185.78926	4678.3375
3188.10565	4673.7375
3190.42065	4683.8375
3192.73424	4696.8375
3195.04645	4700.9375
3197.35725	4711.0375
3199.66667	4718.5375
3201.97469	4731.1375
3204.28132	4727.0375
3206.58656	4725.1375
3208.8904	4736.5375
3211.19287	4722.7375
3213.49394	4729.9375
3215.79363	4737.9375
3218.09193	4743.1375
3220.38884	4729.5375
3222.68438	4731.6375
3224.97853	4725.5375
3227.2713	4748.8375
3229.56269	4735.7375
3231.8527	4733.1375
3234.14133	4724.8375
3236.42858	4722.1375
3238.71446	4723.5375
3240.99896	4707.4375
3243.28209	4725.2375
3245.56384	4715.1375
3247.84423	4723.5375
3250.12324	4716.5375
3252.40088	4707.5375
3254.67715	4701.9375
3256.95205	4707.4375
3259.22558	4692.7375
3261.49775	4703.6375
3263.76855	4671.7375
3266.03799	4676.2375
3268.30606	4670.0375
3270.57277	4645.2375
3272.83812	4641.8375
3275.10211	4653.9375
3277.36474	4672.2375
3279.62601	4683.5375
3281.88593	4672.9375
3284.14448	4679.5375
3286.40168	4684.7375
3288.65753	4688.5375
3290.91202	4683.9375
3293.16516	4672.6375
3295.41695	4648.9375
3297.66738	4646.6375
3299.91647	4621.9375
3302.16421	4585.8375
3304.4106	4574.6375
3306.65564	4549.5375
3308.89933	4510.4375
3311.14169	4477.9375
3313.38269	4443.5375
3315.62236	4416.1375
3317.86068	4381.1375
3320.09766	4323.8375
3322.3333	4277.8375
3324.5676	4282.4375
3326.80056	4192.5375
3329.03219	4176.4375
3331.26248	2.4375
3333.49143	-0.3625
3335.71905	1.3375
