Data from AgNP_FTO_APTES_UA_100uM_CRN_1uM_R6G_10uM_NaF_0.1M_Addition_RamanShift__9__11-58-40-164.txt Node

Date: Thu Mar 24 11:58:40 GMT 2022
User: TCL
Spectrometer: QEP01345
Trigger mode: 4
Integration Time (sec): 7.000000E0
Scans to average: 10
Electric dark correction enabled: true
Nonlinearity correction enabled: false
Boxcar width: 0
XAxis mode: Raman Shifts
Number of Pixels in Spectrum: 1044
>>>>>Begin Spectral Data<<<<<
46.04893	-1.4125
50.45542	-1.1125
54.85868	-0.0125
59.25871	-0.3125
63.6555	48.2875
68.04907	53.0875
72.43941	53.4875
76.82654	53.1875
81.21044	60.8875
85.59113	58.3875
89.96862	62.7875
94.34289	61.9875
98.71396	65.1875
103.08183	65.3875
107.4465	66.5875
111.80798	69.7875
116.16626	73.3875
120.52136	70.9875
124.87327	74.8875
129.222	77.8875
133.56755	85.7875
137.90993	92.4875
142.24913	106.8875
146.58517	114.1875
150.91804	135.2875
155.24774	163.4875
159.57429	205.4875
163.89768	262.3875
168.21792	357.5875
172.53501	484.4875
176.84895	679.8875
181.15975	960.3875
185.46741	1342.7875
189.77193	1850.4875
194.07331	2479.8875
198.37157	3206.8875
202.6667	3970.7875
206.9587	4739.4875
211.24758	5494.9875
215.53334	6264.0875
219.81599	7085.7875
224.09553	8020.0875
228.37195	9055.7875
232.64527	10202.3875
236.91549	11378.5875
241.18261	12522.4875
245.44663	13478.4875
249.70755	14318.0875
253.96539	14947.2875
258.22014	15469.1875
262.4718	15890.0875
266.72039	16169.4875
270.96589	16287.1875
275.20832	16278.5875
279.44768	16114.2875
283.68397	16004.9875
287.91719	15893.5875
292.14735	15788.2875
296.37445	15870.7875
300.59849	15995.9875
304.81948	16239.6875
309.03742	16432.7875
313.25231	16461.3875
317.46415	16284.2875
321.67296	15926.7875
325.87872	15582.6875
330.08145	15407.8875
334.28114	15386.5875
338.47781	15455.3875
342.67145	15663.7875
346.86207	16016.2875
351.04966	16386.1875
355.23424	16760.1875
359.4158	17021.0875
363.59435	17132.7875
367.76989	17125.4875
371.94243	17111.1875
376.11196	17112.3875
380.27849	17098.5875
384.44203	17131.2875
388.60257	17264.7875
392.76012	17408.1875
396.91468	17637.0875
401.06626	17905.8875
405.21485	18026.7875
409.36047	17798.4875
413.50311	17330.5875
417.64277	16949.9875
421.77947	16924.4875
425.9132	17001.1875
430.04396	17115.9875
434.17176	17196.8875
438.2966	17450.0875
442.41849	17892.8875
446.53742	18626.5875
450.6534	19318.1875
454.76644	19790.7875
458.87653	19811.0875
462.98368	19569.1875
467.08789	19212.8875
471.18916	18826.1875
475.2875	18389.1875
479.38291	18034.7875
483.4754	17788.7875
487.56496	17541.4875
491.6516	17250.1875
495.73531	16961.7875
499.81612	16779.2875
503.89401	16856.8875
507.96899	16962.6875
512.04106	16895.2875
516.11023	16762.8875
520.1765	16664.8875
524.23987	16623.8875
528.30034	16632.5875
532.35792	16565.6875
536.41261	16258.9875
540.46441	15945.0875
544.51333	15787.2875
548.55936	15891.8875
552.60252	16336.6875
556.64279	16970.0875
560.6802	17505.6875
564.71473	17784.1875
568.7464	18268.7875
572.7752	19116.8875
576.80114	19930.2875
580.82422	20571.4875
584.84444	21305.7875
588.86181	22739.9875
592.87633	24677.0875
596.888	25484.0875
600.89682	24013.7875
604.9028	22641.3875
608.90594	23899.9875
612.90624	26006.3875
616.90371	24165.3875
620.89834	19181.5875
624.89015	16815.7875
628.87913	16504.8875
632.86528	16760.0875
636.84862	16827.7875
640.82913	16436.5875
644.80683	15755.8875
648.78172	15325.6875
652.75379	15307.8875
656.72306	15614.3875
660.68952	16033.6875
664.65319	15940.7875
668.61405	15410.1875
672.57211	15300.0875
676.52738	15384.0875
680.47986	15362.9875
684.42955	15175.8875
688.37646	15016.9875
692.32058	15110.5875
696.26192	15421.6875
700.20048	15721.0875
704.13626	15964.1875
708.06928	16058.9875
711.99952	15984.4875
715.927	15971.3875
719.85171	16005.8875
723.77365	15907.8875
727.69284	15643.5875
731.60928	15408.2875
735.52295	15419.2875
739.43388	15482.9875
743.34206	15601.8875
747.24749	15789.5875
751.15017	15924.2875
755.05012	16272.5875
758.94733	16944.6875
762.8418	18246.9875
766.73354	20460.0875
770.62254	22502.7875
774.50882	22803.3875
778.39237	21402.7875
782.27321	19372.2875
786.15132	17623.9875
790.02671	16490.6875
793.89938	15838.6875
797.76935	15525.4875
801.6366	15353.7875
805.50115	15190.8875
809.36299	15090.8875
813.22213	14967.3875
817.07857	14942.0875
820.93231	14844.8875
824.78336	14771.2875
828.63172	14719.5875
832.47738	14682.5875
836.32036	14674.2875
840.16066	14655.8875
843.99827	14655.8875
847.8332	14676.0875
851.66546	14727.0875
855.49504	14757.5875
859.32195	14720.1875
863.1462	14652.4875
866.96777	14628.3875
870.78668	14585.0875
874.60293	14586.5875
878.41652	14622.4875
882.22745	14727.1875
886.03573	14852.5875
889.84136	14840.3875
893.64433	14741.7875
897.44466	14688.3875
901.24235	14645.6875
905.0374	14554.6875
908.8298	14515.1875
912.61957	14476.8875
916.40671	14610.5875
920.19121	14851.9875
923.97308	15157.7875
927.75233	15314.8875
931.52895	15106.4875
935.30295	14697.5875
939.07433	14260.8875
942.84309	13960.5875
946.60924	13827.5875
950.37278	13777.6875
954.13371	13826.6875
957.89203	13791.0875
961.64774	13809.1875
965.40086	13827.6875
969.15137	13811.3875
972.89929	13776.6875
976.64461	13735.6875
980.38733	13692.9875
984.12747	13689.4875
987.86502	13769.6875
991.59999	13886.2875
995.33237	14057.3875
999.06217	14396.9875
1002.78939	14872.0875
1006.51404	15429.0875
1010.23611	15916.7875
1013.95561	16198.2875
1017.67255	16227.9875
1021.38692	15894.4875
1025.09872	15341.7875
1028.80796	14868.6875
1032.51465	14698.9875
1036.21877	14737.1875
1039.92035	14828.4875
1043.61937	14899.7875
1047.31584	14987.6875
1051.00976	15014.4875
1054.70114	15085.7875
1058.38998	15129.0875
1062.07627	15279.4875
1065.76003	15469.1875
1069.44126	15749.4875
1073.11995	16134.2875
1076.79611	16475.7875
1080.46974	16722.6875
1084.14085	17056.8875
1087.80943	17393.2875
1091.47549	17662.3875
1095.13903	17572.4875
1098.80005	17148.0875
1102.45857	16577.6875
1106.11456	16227.3875
1109.76805	16135.3875
1113.41903	16220.9875
1117.06751	16468.5875
1120.71348	16864.0875
1124.35696	17215.7875
1127.99793	17555.6875
1131.63641	17674.0875
1135.2724	17467.4875
1138.90589	17279.6875
1142.5369	17272.0875
1146.16542	17422.8875
1149.79145	17677.3875
1153.415	17959.0875
1157.03607	18197.5875
1160.65467	18663.2875
1164.27079	19487.1875
1167.88443	20717.5875
1171.49561	22519.5875
1175.10432	25037.3875
1178.71056	28123.7875
1182.31434	30876.2875
1185.91565	31737.7875
1189.51451	30961.7875
1193.11091	29518.7875
1196.70485	27791.3875
1200.29634	26139.9875
1203.88538	24710.6875
1207.47197	23713.5875
1211.05612	22999.8875
1214.63782	22529.6875
1218.21708	22207.3875
1221.79391	22118.3875
1225.36829	22306.3875
1228.94024	22277.7875
1232.50976	21700.8875
1236.07685	20903.1875
1239.6415	20290.9875
1243.20374	19999.7875
1246.76355	19969.9875
1250.32093	20182.2875
1253.8759	20596.6875
1257.42845	21326.9875
1260.97859	22221.3875
1264.52631	23158.5875
1268.07163	24110.9875
1271.61453	24954.0875
1275.15503	25791.7875
1278.69312	26688.3875
1282.22882	27720.8875
1285.76211	29223.5875
1289.29301	31084.7875
1292.82151	33032.1875
1296.34761	35309.2875
1299.87133	37866.3875
1303.39266	40684.5875
1306.9116	43489.1875
1310.42815	45918.6875
1313.94233	47047.1875
1317.45412	46161.7875
1320.96354	44101.6875
1324.47058	41962.4875
1327.97525	40174.9875
1331.47754	38798.8875
1334.97747	37865.9875
1338.47502	37218.0875
1341.97022	36888.6875
1345.46305	36800.1875
1348.95352	37150.3875
1352.44163	38079.0875
1355.92738	40046.1875
1359.41078	43342.5875
1362.89183	46378.1875
1366.37053	46372.2875
1369.84688	41842.6875
1373.32088	35889.4875
1376.79254	31909.9875
1380.26186	30325.3875
1383.72883	29829.9875
1387.19347	29468.5875
1390.65578	29028.4875
1394.11575	28764.6875
1397.57339	28865.2875
1401.0287	29044.1875
1404.48168	29041.9875
1407.93234	28716.6875
1411.38068	27957.8875
1414.82669	27045.2875
1418.27039	26006.7875
1421.71177	25030.9875
1425.15083	24190.7875
1428.58758	23739.2875
1432.02203	23990.4875
1435.45416	24626.5875
1438.88399	25184.7875
1442.31151	25530.9875
1445.73673	25792.0875
1449.15965	26041.6875
1452.58027	26092.9875
1455.9986	26062.5875
1459.41463	26270.1875
1462.82837	26796.9875
1466.23982	27537.8875
1469.64898	28247.6875
1473.05586	28764.9875
1476.46045	29117.4875
1479.86276	29192.8875
1483.26279	29330.6875
1486.66054	29622.5875
1490.05602	30234.4875
1493.44922	31150.5875
1496.84016	32122.1875
1500.22882	33235.5875
1503.61521	34576.0875
1506.99934	36041.4875
1510.38121	36951.6875
1513.76081	36738.9875
1517.13816	35251.0875
1520.51324	33351.1875
1523.88607	31977.3875
1527.25665	31455.7875
1530.62498	31366.0875
1533.99105	31115.8875
1537.35488	30428.9875
1540.71647	29325.4875
1544.07581	27967.0875
1547.4329	26786.1875
1550.78776	25809.6875
1554.14038	25221.8875
1557.49077	24949.4875
1560.83892	25061.8875
1564.18484	25321.9875
1567.52853	25795.3875
1570.86999	26359.7875
1574.20922	26934.6875
1577.54624	27194.2875
1580.88103	26821.0875
1584.2136	26372.5875
1587.54395	26793.1875
1590.87208	28287.0875
1594.19801	30505.6875
1597.52172	32763.5875
1600.84321	33436.6875
1604.16251	31719.4875
1607.47959	28652.6875
1610.79447	25424.0875
1614.10715	22731.5875
1617.41763	20612.4875
1620.7259	19301.6875
1624.03199	18672.0875
1627.33587	18721.9875
1630.63757	19422.3875
1633.93707	21144.0875
1637.23439	24259.0875
1640.52951	29158.2875
1643.82246	35328.9875
1647.11321	40533.2875
1650.40179	41601.6875
1653.68819	37729.6875
1656.97241	31108.8875
1660.25446	24944.2875
1663.53433	20580.6875
1666.81203	17912.0875
1670.08756	16315.9875
1673.36092	15392.1875
1676.63211	14821.8875
1679.90115	14352.7875
1683.16801	14068.3875
1686.43272	13802.3875
1689.69527	13660.1875
1692.95567	13497.0875
1696.2139	13387.2875
1699.46999	13300.1875
1702.72392	13242.6875
1705.97571	13203.2875
1709.22535	13174.4875
1712.47284	13131.6875
1715.71819	13118.8875
1718.96139	13049.4875
1722.20246	13008.6875
1725.44139	12944.1875
1728.67818	12827.0875
1731.91284	12707.5875
1735.14537	12599.9875
1738.37576	12526.8875
1741.60403	12438.5875
1744.83017	12382.3875
1748.05418	12376.7875
1751.27607	12311.7875
1754.49584	12265.4875
1757.71349	12254.8875
1760.92903	12195.8875
1764.14244	12194.4875
1767.35375	12189.1875
1770.56294	12160.2875
1773.77002	12141.2875
1776.97499	12112.1875
1780.17785	12065.1875
1783.37861	12037.2875
1786.57727	12018.9875
1789.77382	11989.8875
1792.96828	11958.6875
1796.16064	11928.7875
1799.3509	11925.0875
1802.53907	11858.0875
1805.72514	11789.8875
1808.90913	11784.4875
1812.09102	11764.8875
1815.27083	11710.6875
1818.44856	11708.0875
1821.6242	11677.4875
1824.79776	11649.6875
1827.96924	11644.6875
1831.13864	11606.5875
1834.30597	11645.2875
1837.47122	11624.1875
1840.6344	11606.6875
1843.7955	11618.7875
1846.95454	11598.9875
1850.11151	11578.1875
1853.26642	11595.2875
1856.41926	11587.7875
1859.57004	11564.8875
1862.71876	11564.0875
1865.86542	11543.7875
1869.01003	11520.7875
1872.15258	11504.2875
1875.29308	11510.2875
1878.43152	11491.2875
1881.56792	11499.1875
1884.70227	11468.1875
1887.83457	11469.6875
1890.96482	11466.6875
1894.09304	11442.0875
1897.21921	11451.7875
1900.34335	11424.1875
1903.46544	11429.5875
1906.58551	11443.4875
1909.70353	11397.4875
1912.81953	11380.5875
1915.93349	11348.2875
1919.04543	11305.5875
1922.15534	11296.1875
1925.26322	11258.9875
1928.36908	11208.2875
1931.47292	11172.2875
1934.57473	11136.9875
1937.67453	11100.7875
1940.77232	11072.0875
1943.86808	11046.7875
1946.96184	11008.9875
1950.05358	10998.6875
1953.14331	10985.4875
1956.23103	10943.1875
1959.31675	10918.4875
1962.40046	10877.2875
1965.48217	10869.1875
1968.56188	10814.9875
1971.63959	10806.3875
1974.7153	10739.0875
1977.78901	10701.2875
1980.86073	10668.0875
1983.93046	10620.2875
1986.99819	10554.7875
1990.06394	10534.2875
1993.1277	10533.4875
1996.18947	10461.3875
1999.24925	10423.8875
2002.30706	10392.5875
2005.36288	10386.9875
2008.41672	10333.5875
2011.46859	10310.8875
2014.51848	10287.5875
2017.56639	10232.1875
2020.61233	10209.2875
2023.6563	10183.1875
2026.6983	10165.7875
2029.73833	10131.1875
2032.7764	10129.2875
2035.8125	10083.0875
2038.84664	10047.2875
2041.87881	10035.9875
2044.90903	10017.8875
2047.93729	9985.4875
2050.96359	9988.9875
2053.98794	9953.0875
2057.01034	9950.3875
2060.03078	9927.9875
2063.04927	9918.5875
2066.06582	9897.7875
2069.08042	9899.7875
2072.09307	9887.8875
2075.10378	9895.0875
2078.11255	9867.5875
2081.11938	9879.1875
2084.12426	9895.3875
2087.12722	9894.4875
2090.12824	9912.7875
2093.12732	9908.9875
2096.12447	9932.0875
2099.11969	9941.5875
2102.11299	9921.3875
2105.10435	9916.0875
2108.09379	9932.9875
2111.08131	9922.3875
2114.0669	9907.5875
2117.05057	9915.4875
2120.03233	9922.1875
2123.01216	9930.3875
2125.99008	9936.5875
2128.96609	9928.5875
2131.94018	9953.5875
2134.91236	9930.2875
2137.88263	9945.7875
2140.851	9907.5875
2143.81746	9895.8875
2146.78201	9887.8875
2149.74466	9905.7875
2152.7054	9893.8875
2155.66425	9875.9875
2158.6212	9876.2875
2161.57625	9835.4875
2164.52941	9843.9875
2167.48067	9819.1875
2170.43004	9825.5875
2173.37752	9823.0875
2176.32311	9782.2875
2179.26681	9811.5875
2182.20863	9769.6875
2185.14856	9767.2875
2188.08661	9792.8875
2191.02278	9785.7875
2193.95707	9750.2875
2196.88948	9752.9875
2199.82001	9720.8875
2202.74867	9718.8875
2205.67545	9673.9875
2208.60037	9694.0875
2211.52341	9672.7875
2214.44458	9647.5875
2217.36388	9628.9875
2220.28132	9610.4875
2223.1969	9579.4875
2226.11061	9559.4875
2229.02246	9572.0875
2231.93245	9540.9875
2234.84058	9540.3875
2237.74686	9531.8875
2240.65128	9506.9875
2243.55385	9497.9875
2246.45456	9496.5875
2249.35343	9463.2875
2252.25044	9461.3875
2255.14561	9433.2875
2258.03893	9427.8875
2260.93041	9400.8875
2263.82004	9358.4875
2266.70783	9341.9875
2269.59378	9324.4875
2272.4779	9275.2875
2275.36017	9261.1875
2278.24061	9256.9875
2281.11922	9244.9875
2283.996	9236.9875
2286.87094	9208.7875
2289.74405	9191.8875
2292.61534	9163.8875
2295.4848	9159.4875
2298.35243	9169.5875
2301.21824	9142.3875
2304.08223	9136.7875
2306.94439	9147.7875
2309.80474	9118.2875
2312.66327	9130.7875
2315.51999	9096.7875
2318.37489	9122.6875
2321.22797	9097.5875
2324.07925	9090.1875
2326.92871	9069.6875
2329.77637	9050.8875
2332.62222	9044.3875
2335.46626	9032.5875
2338.3085	9021.5875
2341.14893	9038.5875
2343.98756	9037.2875
2346.8244	9032.9875
2349.65943	9040.3875
2352.49267	9016.7875
2355.32411	9046.3875
2358.15376	9049.5875
2360.98161	9023.5875
2363.80768	9027.4875
2366.63195	9016.9875
2369.45444	9008.3875
2372.27514	9026.9875
2375.09405	8997.1875
2377.91118	9006.2875
2380.72652	8980.1875
2383.54009	8935.4875
2386.35187	8922.5875
2389.16188	8891.0875
2391.97011	8859.0875
2394.77657	8853.0875
2397.58125	8839.6875
2400.38416	8831.5875
2403.18529	8823.1875
2405.98466	8805.9875
2408.78226	8772.3875
2411.57809	8752.9875
2414.37216	8758.9875
2417.16446	8755.8875
2419.955	8716.3875
2422.74378	8723.8875
2425.5308	8734.1875
2428.31606	8721.2875
2431.09956	8726.0875
2433.88131	8692.7875
2436.6613	8689.4875
2439.43954	8694.7875
2442.21603	8712.6875
2444.99077	8714.2875
2447.76377	8699.7875
2450.53501	8694.5875
2453.30451	8709.6875
2456.07226	8725.7875
2458.83827	8727.4875
2461.60254	8722.6875
2464.36507	8704.9875
2467.12586	8709.1875
2469.88492	8704.0875
2472.64224	8677.9875
2475.39782	8704.2875
2478.15167	8706.3875
2480.90379	8707.7875
2483.65417	8695.7875
2486.40283	8704.5875
2489.14976	8716.7875
2491.89497	8695.3875
2494.63845	8735.4875
2497.3802	8706.4875
2500.12024	8723.9875
2502.85855	8721.6875
2505.59514	8710.3875
2508.33002	8671.4875
2511.06318	8667.7875
2513.79462	8660.4875
2516.52435	8646.8875
2519.25237	8638.9875
2521.97867	8607.6875
2524.70327	8613.5875
2527.42616	8608.0875
2530.14734	8614.1875
2532.86681	8580.7875
2535.58458	8585.5875
2538.30065	8573.6875
2541.01501	8583.9875
2543.72768	8585.5875
2546.43864	8538.8875
2549.14791	8553.6875
2551.85548	8547.5875
2554.56136	8530.1875
2557.26554	8521.0875
2559.96803	8515.5875
2562.66883	8505.9875
2565.36794	8543.6875
2568.06536	8522.3875
2570.7611	8515.3875
2573.45514	8492.0875
2576.14751	8502.6875
2578.83819	8492.2875
2581.52719	8488.6875
2584.21451	8473.1875
2586.90015	8439.4875
2589.58411	8428.2875
2592.2664	8434.0875
2594.94701	8415.0875
2597.62594	8409.7875
2600.30321	8391.2875
2602.9788	8392.2875
2605.65273	8372.7875
2608.32498	8395.8875
2610.99557	8394.1875
2613.66449	8406.6875
2616.33175	8395.5875
2618.99734	8413.1875
2621.66128	8395.4875
2624.32355	8384.2875
2626.98416	8370.1875
2629.64311	8360.7875
2632.30041	8350.5875
2634.95605	8324.5875
2637.61004	8326.2875
2640.26238	8331.3875
2642.91306	8336.6875
2645.56209	8336.0875
2648.20948	8349.4875
2650.85521	8343.6875
2653.4993	8344.8875
2656.14175	8375.4875
2658.78255	8388.9875
2661.42171	8359.8875
2664.05923	8386.5875
2666.6951	8402.6875
2669.32934	8409.4875
2671.96194	8399.4875
2674.59291	8408.2875
2677.22224	8378.4875
2679.84993	8401.4875
2682.476	8379.3875
2685.10043	8389.9875
2687.72324	8383.9875
2690.34441	8383.2875
2692.96396	8390.6875
2695.58188	8387.2875
2698.19818	8365.5875
2700.81285	8377.6875
2703.4259	8372.2875
2706.03733	8367.9875
2708.64714	8367.0875
2711.25533	8382.9875
2713.86191	8379.5875
2716.46687	8387.1875
2719.07021	8384.1875
2721.67194	8422.8875
2724.27206	8418.2875
2726.87057	8420.8875
2729.46747	8417.7875
2732.06276	8413.4875
2734.65644	8408.2875
2737.24852	8399.3875
2739.83899	8400.1875
2742.42786	8404.4875
2745.01513	8382.2875
2747.60079	8384.0875
2750.18486	8381.6875
2752.76733	8379.5875
2755.3482	8365.4875
2757.92747	8368.1875
2760.50515	8354.7875
2763.08123	8370.6875
2765.65573	8356.9875
2768.22863	8373.0875
2770.79994	8350.0875
2773.36967	8334.9875
2775.9378	8335.2875
2778.50435	8349.8875
2781.06932	8322.0875
2783.6327	8350.2875
2786.1945	8327.8875
2788.75471	8319.8875
2791.31335	8296.5875
2793.87041	8293.3875
2796.42589	8275.2875
2798.97979	8282.8875
2801.53212	8265.1875
2804.08288	8257.4875
2806.63206	8263.6875
2809.17967	8238.4875
2811.72571	8252.6875
2814.27018	8225.7875
2816.81308	8216.5875
2819.35442	8189.9875
2821.89419	8189.3875
2824.43239	8198.3875
2826.96904	8193.6875
2829.50412	8209.5875
2832.03763	8159.9875
2834.56959	8174.9875
2837.1	8151.7875
2839.62884	8158.3875
2842.15613	8130.8875
2844.68186	8145.2875
2847.20604	8173.1875
2849.72867	8152.4875
2852.24974	8147.8875
2854.76927	8133.3875
2857.28724	8122.6875
2859.80367	8145.2875
2862.31855	8151.5875
2864.83189	8121.8875
2867.34368	8126.4875
2869.85393	8118.3875
2872.36264	8121.1875
2874.8698	8146.9875
2877.37543	8124.3875
2879.87952	8125.0875
2882.38207	8134.2875
2884.88308	8126.9875
2887.38256	8113.0875
2889.88051	8117.7875
2892.37692	8118.1875
2894.8718	8117.3875
2897.36515	8117.9875
2899.85698	8140.2875
2902.34727	8126.8875
2904.83604	8136.8875
2907.32328	8146.1875
2909.809	8133.3875
2912.29319	8142.8875
2914.77587	8130.6875
2917.25702	8126.1875
2919.73665	8120.5875
2922.21476	8133.6875
2924.69136	8125.5875
2927.16644	8109.1875
2929.64	8127.0875
2932.11205	8086.9875
2934.58258	8060.8875
2937.05161	8051.3875
2939.51912	8054.1875
2941.98513	8060.7875
2944.44962	8044.5875
2946.91261	7986.0875
2949.37409	8024.8875
2951.83407	8002.4875
2954.29254	8012.0875
2956.74951	7984.8875
2959.20498	7960.4875
2961.65895	7931.7875
2964.11142	7922.5875
2966.56239	7921.9875
2969.01186	7903.5875
2971.45984	7860.3875
2973.90632	7848.2875
2976.35131	7849.3875
2978.7948	7807.6875
2981.23681	7784.3875
2983.67732	7771.7875
2986.11635	7736.1875
2988.55388	7713.4875
2990.98993	7681.7875
2993.4245	7661.0875
2995.85758	7668.9875
2998.28917	7637.6875
3000.71928	7623.6875
3003.14791	7629.5875
3005.57506	7601.2875
3008.00073	7576.0875
3010.42493	7607.3875
3012.84764	7572.5875
3015.26888	7541.7875
3017.68865	7528.0875
3020.10694	7517.1875
3022.52376	7482.2875
3024.9391	7504.4875
3027.35298	7461.8875
3029.76539	7454.6875
3032.17632	7430.1875
3034.5858	7412.8875
3036.9938	7415.5875
3039.40034	7418.2875
3041.80542	7411.4875
3044.20903	7381.9875
3046.61118	7373.4875
3049.01187	7333.5875
3051.4111	7325.3875
3053.80888	7339.8875
3056.20519	7326.6875
3058.60005	7299.0875
3060.99345	7282.9875
3063.3854	7271.5875
3065.7759	7258.1875
3068.16494	7251.7875
3070.55254	7216.3875
3072.93868	7195.9875
3075.32338	7167.6875
3077.70662	7158.8875
3080.08842	7124.6875
3082.46878	7157.4875
3084.84769	7112.7875
3087.22515	7114.7875
3089.60118	7112.1875
3091.97576	7091.6875
3094.3489	7071.5875
3096.72061	7073.0875
3099.09087	7074.1875
3101.4597	7060.0875
3103.82709	7030.0875
3106.19305	7028.0875
3108.55757	7011.4875
3110.92066	7000.7875
3113.28232	6971.4875
3115.64255	6969.6875
3118.00134	6943.9875
3120.35871	6931.7875
3122.71466	6920.2875
3125.06917	6920.9875
3127.42226	6899.4875
3129.77393	6894.2875
3132.12417	6879.2875
3134.47299	6898.9875
3136.82039	6899.1875
3139.16636	6906.8875
3141.51092	6896.9875
3143.85406	6888.0875
3146.19579	6879.0875
3148.53609	6862.0875
3150.87499	6878.8875
3153.21246	6865.8875
3155.54853	6854.5875
3157.88318	6860.1875
3160.21642	6840.1875
3162.54826	6831.4875
3164.87868	6818.5875
3167.2077	6821.3875
3169.5353	6833.0875
3171.86151	6822.4875
3174.18631	6815.2875
3176.5097	6811.6875
3178.83169	6817.6875
3181.15228	6801.1875
3183.47147	6792.2875
3185.78926	6790.1875
3188.10565	6772.8875
3190.42065	6788.5875
3192.73424	6773.4875
3195.04645	6783.1875
3197.35725	6771.5875
3199.66667	6774.5875
3201.97469	6762.0875
3204.28132	6766.6875
3206.58656	6764.6875
3208.8904	6764.2875
3211.19287	6746.0875
3213.49394	6742.7875
3215.79363	6722.1875
3218.09193	6728.4875
3220.38884	6732.2875
3222.68438	6736.6875
3224.97853	6731.8875
3227.2713	6716.6875
3229.56269	6714.0875
3231.8527	6713.7875
3234.14133	6700.2875
3236.42858	6683.7875
3238.71446	6672.2875
3240.99896	6667.1875
3243.28209	6685.0875
3245.56384	6657.7875
3247.84423	6653.4875
3250.12324	6657.5875
3252.40088	6617.7875
3254.67715	6618.1875
3256.95205	6595.2875
3259.22558	6584.4875
3261.49775	6576.6875
3263.76855	6558.8875
3266.03799	6538.5875
3268.30606	6526.7875
3270.57277	6519.5875
3272.83812	6494.0875
3275.10211	6508.1875
3277.36474	6488.3875
3279.62601	6515.6875
3281.88593	6494.9875
3284.14448	6515.3875
3286.40168	6508.6875
3288.65753	6496.2875
3290.91202	6501.5875
3293.16516	6491.8875
3295.41695	6465.2875
3297.66738	6415.9875
3299.91647	6395.9875
3302.16421	6377.5875
3304.4106	6348.7875
3306.65564	6323.2875
3308.89933	6279.3875
3311.14169	6225.3875
3313.38269	6162.0875
3315.62236	6143.7875
3317.86068	6095.7875
3320.09766	6019.1875
3322.3333	5948.2875
3324.5676	5946.8875
3326.80056	5851.5875
3329.03219	5817.6875
3331.26248	2.5875
3333.49143	-0.1125
3335.71905	0.3875
