#Wave		#Intensity
2001.221680	45127.285156
2000.251953	45250.105469
1999.282227	45179.554688
1998.312500	45169.160156
1997.342773	45577.140625
1996.372070	45203.488281
1995.402344	45328.324219
1994.431641	46003.972656
1993.460938	45279.949219
1992.490234	45437.242188
1991.518555	45446.828125
1990.547852	45413.867188
1989.576172	45435.957031
1988.604492	45833.226563
1987.632813	46135.324219
1986.661133	45702.199219
1985.689453	45401.722656
1984.716797	45903.691406
1983.745117	45770.718750
1982.772461	45670.273438
1981.799805	45814.683594
1980.827148	45866.625000
1979.853516	45506.488281
1978.880859	45918.015625
1977.907227	46119.691406
1976.933594	45732.238281
1975.959961	45836.546875
1974.986328	45623.933594
1974.011719	46012.617188
1973.038086	45767.617188
1972.063477	46388.066406
1971.088867	45744.140625
1970.114258	45581.578125
1969.138672	45982.386719
1968.164063	45867.183594
1967.188477	46113.316406
1966.212891	46025.535156
1965.237305	45596.539063
1964.261719	45807.718750
1963.286133	45879.386719
1962.309570	45600.007813
1961.333984	45873.296875
1960.357422	45795.589844
1959.380859	46086.164063
1958.404297	45326.800781
1957.426758	45363.644531
1956.450195	45422.851563
1955.472656	45700.847656
1954.495117	45919.078125
1953.517578	45500.925781
1952.540039	45838.398438
1951.561523	45723.535156
1950.583008	46361.441406
1949.605469	46251.492188
1948.626953	45682.148438
1947.647461	45656.773438
1946.668945	46053.433594
1945.690430	45931.195313
1944.710938	45290.332031
1943.731445	46083.839844
1942.751953	45480.382813
1941.772461	45541.871094
1940.791992	45712.453125
1939.812500	45694.531250
1938.832031	45676.613281
1937.851563	45294.343750
1936.871094	45648.226563
1935.890625	45612.976563
1934.909180	45780.878906
1933.928711	46077.519531
1932.947266	46141.265625
1931.965820	45506.750000
1930.984375	45617.605469
1930.002930	45735.847656
1929.020508	45614.000000
1928.038086	45460.023438
1927.056641	45466.902344
1926.074219	45209.121094
1925.090820	45844.175781
1924.108398	45672.953125
1923.125000	45341.105469
1922.142578	45459.214844
1921.159180	45023.718750
1920.175781	45262.910156
1919.191406	45788.582031
1918.208008	45207.527344
1917.223633	45449.023438
1916.240234	45050.941406
1915.255859	45484.929688
1914.271484	44901.863281
1913.286133	45602.246094
1912.301758	45382.054688
1911.316406	45137.273438
1910.331055	45294.613281
1909.345703	45190.496094
1908.360352	45283.660156
1907.375000	45347.210938
1906.388672	45477.281250
1905.402344	45671.378906
1904.416016	45485.968750
1903.429688	45216.863281
1902.443359	44864.105469
1901.457031	45284.730469
1900.469727	45131.515625
1899.482422	45303.304688
1898.495117	45423.343750
1897.507813	45356.312500
1896.520508	45323.750000
1895.532227	45091.933594
1894.543945	45128.292969
1893.556641	45336.777344
1892.568359	45631.242188
1891.579102	45315.949219
1890.590820	45116.281250
1889.601563	45093.617188
1888.613281	45785.941406
1887.624023	45293.964844
1886.634766	45401.449219
1885.644531	45467.148438
1884.655273	45061.414063
1883.665039	45205.699219
1882.674805	45320.480469
1881.684570	45442.582031
1880.694336	45572.000000
1879.704102	45497.761719
1878.712891	45305.820313
1877.722656	45425.382813
1876.731445	45348.750000
1875.740234	45181.445313
1874.748047	45031.351563
1873.756836	45116.562500
1872.764648	45272.792969
1871.773438	45473.058594
1870.781250	45487.109375
1869.788086	45410.550781
1868.795898	45270.359375
1867.803711	45490.062500
1866.810547	45721.925781
1865.817383	45965.937500
1864.824219	45571.289063
1863.831055	45100.941406
1862.837891	45278.894531
1861.843750	45268.488281
1860.849609	45060.046875
1859.855469	45687.695313
1858.861328	45601.453125
1857.867188	45634.976563
1856.872070	45455.929688
1855.877930	45325.796875
1854.882813	45525.425781
1853.887695	45414.859375
1852.892578	46048.984375
1851.896484	45765.046875
1850.901367	45500.730469
1849.905273	45912.441406
1848.909180	45335.898438
1847.913086	45474.281250
1846.916992	45407.750000
1845.919922	45743.585938
1844.923828	45935.460938
1843.926758	45966.378906
1842.929688	45975.351563
1841.932617	45964.824219
1840.935547	45452.414063
1839.937500	46121.597656
1838.939453	45826.093750
1837.942383	46068.839844
1836.943359	46072.902344
1835.945313	45991.769531
1834.947266	46621.320313
1833.948242	46192.144531
1832.949219	45994.246094
1831.951172	46621.027344
1830.951172	46449.871094
1829.952148	46349.289063
1828.953125	46394.613281
1827.953125	46233.304688
1826.953125	46091.496094
1825.953125	46703.007813
1824.953125	46123.851563
1823.952148	46254.183594
1822.952148	46513.187500
1821.951172	46823.089844
1820.950195	46127.781250
1819.949219	46626.968750
1818.948242	46198.898438
1817.946289	46896.867188
1816.945313	46495.582031
1815.943359	46695.996094
1814.941406	46801.750000
1813.939453	45893.910156
1812.936523	46608.281250
1811.934570	46726.109375
1810.931641	47091.093750
1809.928711	46789.601563
1808.925781	46706.253906
1807.921875	46966.886719
1806.918945	47057.898438
1805.915039	46976.960938
1804.912109	46963.839844
1803.908203	47364.625000
1802.903320	47111.843750
1801.899414	47258.398438
1800.894531	47090.394531
1799.890625	46985.335938
1798.885742	47281.765625
1797.880859	47524.894531
1796.875000	47475.414063
1795.870117	47812.687500
1794.864258	47813.917969
1793.858398	47786.156250
1792.852539	48289.878906
1791.846680	48102.621094
1790.840820	48205.222656
1789.833984	48300.542969
1788.828125	48045.781250
1787.821289	47996.269531
1786.814453	48002.281250
1785.806641	48372.625000
1784.799805	48245.878906
1783.791992	47764.613281
1782.784180	48450.714844
1781.776367	48229.980469
1780.768555	48356.468750
1779.760742	48555.214844
1778.751953	48720.152344
1777.743164	48550.121094
1776.735352	48782.449219
1775.725586	48513.710938
1774.716797	48868.773438
1773.708008	48535.101563
1772.698242	48723.929688
1771.688477	49122.089844
1770.678711	49305.929688
1769.668945	48893.007813
1768.659180	49086.441406
1767.648438	49032.074219
1766.637695	49653.457031
1765.626953	49483.597656
1764.616211	49520.527344
1763.605469	49754.531250
1762.593750	48734.050781
1761.583008	49631.234375
1760.571289	49927.546875
1759.559570	49620.902344
1758.547852	49568.906250
1757.535156	50407.679688
1756.523438	50297.945313
1755.510742	49883.441406
1754.498047	50023.402344
1753.485352	49980.972656
1752.472656	50142.453125
1751.458984	50143.179688
1750.445313	50633.093750
1749.432617	50516.250000
1748.417969	50919.625000
1747.404297	50618.222656
1746.390625	50738.671875
1745.375977	51072.304688
1744.361328	50962.664063
1743.346680	51159.621094
1742.332031	51057.183594
1741.317383	51232.503906
1740.302734	51673.460938
1739.287109	52260.253906
1738.271484	52042.828125
1737.255859	52425.984375
1736.240234	52883.156250
1735.223633	52885.757813
1734.208008	53476.589844
1733.191406	53577.101563
1732.174805	54036.128906
1731.158203	54208.199219
1730.140625	54021.781250
1729.124023	54456.589844
1728.106445	54974.843750
1727.088867	55070.191406
1726.071289	54869.421875
1725.053711	55948.355469
1724.035156	55778.523438
1723.017578	56007.300781
1721.999023	56577.210938
1720.980469	57058.644531
1719.961914	56864.875000
1718.942383	56861.960938
1717.923828	56966.343750
1716.904297	57013.472656
1715.884766	56714.960938
1714.865234	57260.191406
1713.844727	56654.363281
1712.825195	57339.964844
1711.804688	56941.558594
1710.784180	57010.058594
1709.763672	57078.531250
1708.743164	56885.109375
1707.722656	57258.246094
1706.701172	56367.578125
1705.679688	56486.074219
1704.658203	56319.054688
1703.636719	55990.351563
1702.615234	56056.527344
1701.592773	55982.394531
1700.571289	55718.105469
1699.548828	55603.648438
1698.526367	55650.824219
1697.502930	55918.953125
1696.480469	56006.437500
1695.457031	55535.726563
1694.433594	55449.890625
1693.410156	55810.449219
1692.386719	55468.207031
1691.363281	55149.820313
1690.338867	55529.218750
1689.314453	55161.105469
1688.290039	55108.621094
1687.265625	55352.628906
1686.241211	54745.226563
1685.215820	55060.332031
1684.191406	55242.578125
1683.166016	55377.351563
1682.140625	55263.261719
1681.115234	54765.390625
1680.088867	55629.773438
1679.062500	55925.425781
1678.037109	55472.687500
1677.010742	55287.640625
1675.983398	55495.609375
1674.957031	55580.425781
1673.930664	55288.968750
1672.903320	55544.136719
1671.875977	55612.335938
1670.848633	55838.968750
1669.820313	55803.046875
1668.792969	56126.492188
1667.764648	55941.605469
1666.736328	55778.054688
1665.708008	56068.246094
1664.679688	56294.542969
1663.651367	56674.292969
1662.622070	57143.652344
1661.592773	56351.921875
1660.563477	56459.953125
1659.534180	56794.550781
1658.504883	56756.140625
1657.474609	56547.851563
1656.444336	57014.359375
1655.415039	57044.328125
1654.383789	57847.824219
1653.353516	57443.769531
1652.323242	57839.054688
1651.291992	57890.058594
1650.260742	57917.480469
1649.229492	58178.156250
1648.198242	58615.421875
1647.166016	58350.621094
1646.134766	58253.113281
1645.102539	58645.390625
1644.070313	58764.441406
1643.038086	59507.191406
1642.004883	59795.484375
1640.972656	59596.621094
1639.939453	59642.480469
1638.906250	60417.464844
1637.873047	60608.964844
1636.839844	60567.621094
1635.805664	61017.605469
1634.772461	60832.824219
1633.738281	61729.093750
1632.704102	61292.843750
1631.668945	62336.703125
1630.634766	62501.769531
1629.599609	63143.476563
1628.565430	63336.507813
1627.530273	63651.539063
1626.494141	64386.574219
1625.458984	64820.976563
1624.422852	65060.484375
1623.387695	65747.953125
1622.351563	66292.109375
1621.315430	67037.734375
1620.278320	67808.875000
1619.242188	68783.679688
1618.205078	70187.039063
1617.167969	71690.656250
1616.130859	73830.992188
1615.093750	75216.296875
1614.055664	76849.359375
1613.018555	78610.625000
1611.980469	80219.078125
1610.942383	80497.390625
1609.904297	80267.742188
1608.865234	80321.304688
1607.827148	79279.945313
1606.788086	77024.945313
1605.749023	75949.453125
1604.709961	73744.945313
1603.669922	71393.937500
1602.630859	71046.960938
1601.590820	69970.953125
1600.550781	68470.054688
1599.510742	68042.007813
1598.470703	66918.046875
1597.429688	66516.117188
1596.389648	66126.000000
1595.348633	65962.468750
1594.307617	65738.304688
1593.265625	65292.519531
1592.224609	65035.886719
1591.182617	65241.250000
1590.140625	64896.078125
1589.098633	65064.078125
1588.056641	64714.390625
1587.014648	65089.832031
1585.971680	65078.226563
1584.928711	65166.828125
1583.886719	64915.222656
1582.842773	65406.828125
1581.799805	65870.304688
1580.755859	65739.796875
1579.712891	64913.160156
1578.668945	65483.554688
1577.625000	65890.820313
1576.580078	65315.914063
1575.536133	65527.621094
1574.491211	66067.250000
1573.446289	65655.421875
1572.401367	66059.953125
1571.356445	66824.703125
1570.311523	67112.648438
1569.265625	66180.304688
1568.219727	66526.351563
1567.173828	66293.765625
1566.127930	66895.179688
1565.082031	66346.742188
1564.035156	66513.695313
1562.988281	65668.343750
1561.941406	65050.773438
1560.894531	65763.265625
1559.847656	65533.398438
1558.799805	65113.375000
1557.751953	65131.902344
1556.704102	64911.546875
1555.656250	64382.871094
1554.608398	64800.265625
1553.560547	65150.289063
1552.511719	65087.667969
1551.462891	65307.753906
1550.414063	64309.171875
1549.365234	64913.816406
1548.315430	65330.652344
1547.265625	65467.171875
1546.216797	65504.089844
1545.166992	65450.722656
1544.116211	66017.578125
1543.066406	65929.421875
1542.015625	66035.625000
1540.965820	66421.656250
1539.915039	66284.906250
1538.863281	66108.890625
1537.812500	65602.367188
1536.760742	65727.007813
1535.709961	65521.140625
1534.658203	65306.101563
1533.605469	65469.992188
1532.553711	64490.535156
1531.501953	64723.785156
1530.449219	64268.914063
1529.396484	64566.750000
1528.343750	64241.312500
1527.290039	64691.339844
1526.237305	64130.660156
1525.183594	63547.109375
1524.129883	63983.175781
1523.076172	62862.566406
1522.022461	63141.816406
1520.968750	62966.855469
1519.914063	62778.128906
1518.859375	61868.214844
1517.804688	62340.960938
1516.750000	61947.429688
1515.694336	61973.191406
1514.639648	61577.558594
1513.583984	61278.757813
1512.528320	61201.035156
1511.472656	60969.144531
1510.416016	61027.261719
1509.360352	60468.792969
1508.303711	60805.296875
1507.247070	60594.328125
1506.190430	60296.058594
1505.132813	59774.898438
1504.076172	60049.210938
1503.018555	59739.703125
1501.960938	59715.218750
1500.903320	59683.847656
1499.844727	59461.843750
1498.787109	59028.640625
1497.728516	59497.945313
1496.669922	59416.121094
1495.611328	59394.000000
1494.552734	59202.066406
1493.493164	59434.667969
1492.434570	58859.691406
1491.375000	59163.367188
1490.315430	58886.757813
1489.254883	58690.488281
1488.195313	58352.164063
1487.134766	58928.445313
1486.074219	58558.109375
1485.013672	58451.386719
1483.953125	58438.617188
1482.892578	58627.398438
1481.831055	59390.875000
1480.769531	59128.382813
1479.708008	58186.125000
1478.646484	58706.664063
1477.583984	58073.730469
1476.522461	57708.699219
1475.459961	57766.972656
1474.397461	57637.687500
1473.334961	58512.269531
1472.271484	57843.347656
1471.208984	57528.960938
1470.145508	57459.222656
1469.082031	57919.617188
1468.018555	57605.378906
1466.954102	57939.953125
1465.890625	57500.210938
1464.826172	57320.925781
1463.761719	57646.230469
1462.697266	57457.851563
1461.631836	57255.839844
1460.567383	57441.792969
1459.501953	57486.230469
1458.436523	57512.406250
1457.371094	57695.925781
1456.305664	57781.328125
1455.239258	57602.261719
1454.172852	57534.937500
1453.107422	57636.269531
1452.040039	57357.066406
1450.973633	57014.179688
1449.907227	57179.316406
1448.839844	57207.757813
1447.772461	57472.976563
1446.705078	57096.156250
1445.637695	57793.730469
1444.569336	57528.484375
1443.500977	57786.617188
1442.432617	57207.550781
1441.364258	57429.253906
1440.295898	57800.957031
1439.227539	57965.632813
1438.158203	58146.160156
1437.088867	57817.531250
1436.019531	57586.730469
1434.950195	57860.363281
1433.879883	58290.632813
1432.810547	58409.605469
1431.740234	58530.804688
1430.669922	58345.476563
1429.598633	58770.796875
1428.528320	58767.039063
1427.457031	57966.851563
1426.386719	58065.324219
1425.314453	58501.722656
1424.243164	57568.203125
1423.171875	57972.785156
1422.099609	57669.917969
1421.027344	57553.019531
1419.955078	57658.242188
1418.882813	57289.878906
1417.810547	57338.472656
1416.737305	57011.066406
1415.664063	57392.574219
1414.590820	56886.406250
1413.517578	57254.210938
1412.444336	57323.128906
1411.370117	57143.093750
1410.295898	56960.859375
1409.221680	58025.105469
1408.147461	57270.566406
1407.073242	57567.796875
1405.998047	57686.304688
1404.922852	57777.640625
1403.847656	58314.175781
1402.772461	57982.808594
1401.697266	58302.218750
1400.621094	57952.894531
1399.544922	58617.734375
1398.468750	58406.214844
1397.392578	58946.558594
1396.316406	58805.023438
1395.239258	59665.562500
1394.162109	59007.230469
1393.084961	60384.039063
1392.007813	59926.558594
1390.930664	60199.914063
1389.852539	59986.140625
1388.774414	60121.867188
1387.696289	60845.832031
1386.618164	60954.304688
1385.540039	60524.238281
1384.460938	61729.816406
1383.382813	61700.671875
1382.303711	62286.316406
1381.223633	62725.398438
1380.144531	63065.265625
1379.064453	62916.605469
1377.985352	62873.761719
1376.905273	62898.425781
1375.825195	63159.277344
1374.744141	62401.191406
1373.664063	62778.964844
1372.583008	61870.578125
1371.501953	62041.500000
1370.420898	61663.972656
1369.338867	61738.242188
1368.257813	60632.984375
1367.175781	60428.871094
1366.093750	60278.726563
1365.011719	60056.781250
1363.929688	59989.824219
1362.846680	59514.359375
1361.763672	59281.445313
1360.680664	59434.546875
1359.597656	58762.015625
1358.514648	58576.457031
1357.430664	58213.796875
1356.346680	58387.152344
1355.262695	58203.996094
1354.178711	57886.417969
1353.094727	57813.222656
1352.009766	57233.679688
1350.925781	57752.031250
1349.840820	57510.910156
1348.755859	57554.273438
1347.669922	57476.710938
1346.584961	57589.457031
1345.499023	57511.914063
1344.413086	57577.609375
1343.327148	56907.191406
1342.240234	57368.914063
1341.154297	57092.402344
1340.067383	57131.285156
1338.980469	57212.632813
1337.893555	57314.066406
1336.805664	57055.636719
1335.718750	56558.199219
1334.630859	56400.531250
1333.542969	56586.906250
1332.455078	56737.480469
1331.367188	57021.976563
1330.278320	57136.691406
1329.189453	57099.582031
1328.100586	56941.968750
1327.011719	56951.757813
1325.922852	56887.925781
1324.833008	57198.832031
1323.743164	57567.609375
1322.653320	57354.300781
1321.563477	57379.601563
1320.473633	57772.652344
1319.382813	57410.109375
1318.291992	58117.167969
1317.201172	57518.554688
1316.110352	58053.832031
1315.019531	57709.304688
1313.927734	58257.710938
1312.835938	58293.921875
1311.744141	58383.531250
1310.652344	57803.304688
1309.560547	57957.484375
1308.467773	58672.171875
1307.375000	58668.230469
1306.282227	58415.238281
1305.189453	58215.691406
1304.095703	58789.765625
1303.002930	58385.753906
1301.909180	58670.718750
1300.815430	58529.023438
1299.721680	58449.574219
1298.626953	58909.808594
1297.533203	58384.007813
1296.438477	59194.847656
1295.343750	58888.921875
1294.248047	59446.382813
1293.153320	59231.488281
1292.057617	59677.757813
1290.961914	59513.906250
1289.866211	59378.945313
1288.770508	59813.851563
1287.674805	60233.078125
1286.578125	60818.386719
1285.481445	60286.605469
1284.384766	60273.472656
1283.288086	60007.804688
1282.190430	59540.683594
1281.092773	59587.468750
1279.996094	60034.972656
1278.897461	59663.277344
1277.799805	59335.980469
1276.702148	59457.996094
1275.603516	59323.324219
1274.504883	59067.042969
1273.406250	58512.281250
1272.307617	58647.617188
1271.208008	58636.984375
1270.108398	58650.671875
1269.008789	58067.648438
1267.909180	58278.082031
1266.809570	57967.062500
1265.708984	58126.632813
1264.609375	58465.015625
1263.508789	58059.183594
1262.407227	57894.125000
1261.306641	57804.164063
1260.206055	57738.511719
1259.104492	58030.316406
1258.002930	57653.593750
1256.901367	57069.683594
1255.798828	57187.230469
1254.697266	57489.937500
1253.594727	57516.980469
1252.492188	57019.460938
1251.389648	56868.085938
1250.286133	57353.484375
1249.183594	56975.210938
1248.080078	56973.679688
1246.976563	56969.945313
1245.872070	56657.988281
1244.768555	57376.296875
1243.664063	56639.621094
1242.560547	56770.164063
1241.455078	56865.457031
1240.350586	56270.039063
1239.246094	57366.019531
1238.140625	56427.710938
1237.035156	56492.207031
1235.929688	56703.945313
1234.824219	56814.515625
1233.717773	56758.058594
1232.612305	56506.101563
1231.505859	56831.886719
1230.399414	56773.250000
1229.291992	56910.042969
1228.185547	55995.277344
1227.078125	55919.261719
1225.970703	55990.292969
1224.863281	56019.613281
1223.755859	55349.156250
1222.647461	55663.691406
1221.539063	55980.304688
1220.430664	55101.933594
1219.322266	55598.277344
1218.213867	55682.410156
1217.104492	55102.570313
1215.995117	55583.296875
1214.885742	55229.296875
1213.776367	55210.492188
1212.666992	55421.609375
1211.556641	55306.449219
1210.446289	55386.132813
1209.335938	54923.054688
1208.225586	55514.777344
1207.115234	55299.039063
1206.003906	55120.566406
1204.892578	55176.144531
1203.781250	55666.804688
1202.669922	54939.652344
1201.557617	55655.292969
1200.446289	55492.199219
1199.333984	55964.953125
1198.221680	56125.160156
1197.108398	56197.941406
1195.996094	56106.917969
1194.882813	55655.687500
1193.769531	56064.667969
1192.656250	56360.007813
1191.542969	55913.335938
1190.428711	56442.031250
1189.314453	56889.824219
1188.200195	56639.570313
1187.085938	56914.902344
1185.971680	57057.144531
1184.856445	56804.808594
1183.741211	56986.242188
1182.625977	56757.976563
1181.510742	57096.199219
1180.395508	56800.468750
1179.279297	57020.957031
1178.163086	56934.367188
1177.046875	57011.070313
1175.930664	56648.089844
1174.813477	57003.359375
1173.697266	56385.945313
1172.580078	57036.972656
1171.462891	56493.722656
1170.344727	57048.804688
1169.227539	56518.789063
1168.109375	56780.207031
1166.991211	56378.656250
1165.873047	56716.050781
1164.754883	56499.320313
1163.635742	56701.890625
1162.516602	56639.433594
1161.397461	56661.679688
1160.278320	56416.882813
1159.159180	57127.226563
1158.039063	56457.074219
1156.918945	56819.980469
1155.798828	56436.484375
1154.678711	56732.019531
1153.558594	55802.191406
1152.437500	56060.867188
1151.316406	56447.351563
1150.195313	56211.644531
1149.074219	56270.734375
1147.952148	55922.472656
1146.831055	55933.933594
1145.708984	56610.292969
1144.586914	56333.617188
1143.463867	56407.773438
1142.341797	56745.984375
1141.218750	56742.121094
1140.095703	57132.078125
1138.972656	57017.804688
1137.849609	57446.496094
1136.725586	57260.832031
1135.601563	57068.750000
1134.477539	57590.152344
1133.353516	56911.738281
1132.229492	56763.039063
1131.104492	56733.226563
1129.979492	56526.281250
1128.854492	56708.187500
1127.729492	56367.425781
1126.603516	56506.109375
1125.478516	56143.917969
1124.352539	56267.476563
1123.226563	56278.777344
1122.099609	56277.125000
1120.973633	55900.128906
1119.846680	55611.695313
1118.719727	55705.039063
1117.592773	55371.468750
1116.465820	55680.371094
1115.337891	55629.246094
1114.209961	55203.210938
1113.082031	55128.488281
1111.954102	55497.511719
1110.826172	54886.515625
1109.697266	54902.320313
1108.568359	54373.457031
1107.439453	54199.929688
1106.310547	54648.402344
1105.180664	54126.320313
1104.051758	54970.464844
1102.921875	54747.476563
1101.791992	55137.449219
1100.661133	54994.062500
1099.531250	54809.878906
1098.400391	55047.019531
1097.269531	54635.109375
1096.138672	54680.976563
1095.006836	54615.121094
1093.875977	55032.519531
1092.744141	54468.445313
1091.612305	54535.769531
1090.480469	54371.242188
1089.347656	53992.156250
1088.215820	54271.949219
1087.083008	53667.757813
1085.950195	53810.226563
1084.816406	54070.589844
1083.683594	53850.562500
1082.549805	53757.097656
1081.416016	53629.371094
1080.282227	53810.277344
1079.148438	53496.175781
1078.013672	53655.613281
1076.878906	53602.953125
1075.744141	53464.648438
1074.609375	53300.703125
1073.474609	53879.617188
1072.338867	53948.933594
1071.203125	53397.671875
1070.067383	54061.816406
1068.931641	53448.699219
1067.794922	53710.515625
1066.659180	53681.429688
1065.522461	53081.539063
1064.385742	53552.746094
1063.248047	53844.265625
1062.111328	54003.195313
1060.973633	53435.718750
1059.835938	53133.304688
1058.698242	53674.531250
1057.559570	53525.910156
1056.421875	53921.699219
1055.283203	53538.300781
1054.144531	53368.437500
1053.005859	53653.085938
1051.866211	54020.820313
1050.726563	53667.535156
1049.587891	54022.335938
1048.447266	54283.191406
1047.307617	54183.707031
1046.167969	53928.679688
1045.027344	54176.617188
1043.886719	54307.289063
1042.746094	54039.589844
1041.604492	54508.847656
1040.463867	54664.933594
1039.322266	54105.648438
1038.180664	54004.195313
1037.038086	54170.917969
1035.896484	54001.398438
1034.753906	54282.929688
1033.611328	54039.003906
1032.468750	53550.613281
1031.326172	54355.097656
1030.182617	53994.371094
1029.040039	53988.707031
1027.896484	54167.917969
1026.751953	54189.843750
1025.608398	54009.957031
1024.463867	54118.972656
1023.319336	54429.667969
1022.174805	54184.015625
1021.030273	54116.753906
1019.885742	54323.285156
1018.740234	54446.984375
1017.594727	54547.296875
1016.449219	54359.105469
1015.303711	54198.550781
1014.157227	54322.171875
1013.010742	54498.742188
1011.864258	54208.949219
1010.717773	54243.488281
1009.571289	54595.828125
1008.423828	54598.503906
1007.276367	54194.527344
1006.128906	54629.257813
1004.981445	54407.496094
1003.833008	54990.195313
1002.684570	54872.152344
1001.536133	54938.238281
1000.387695	55215.863281
999.239258	55740.867188
998.089844	55874.425781
996.941406	55107.171875
995.791992	55467.003906
994.641602	55410.300781
993.492188	55812.199219
992.341797	55603.320313
991.191406	55508.593750
990.041016	55451.914063
988.890625	55492.394531
987.739258	55534.968750
986.588867	55503.640625
985.437500	55269.703125
984.285156	55107.601563
983.133789	55325.316406
981.981445	55308.808594
980.829102	55037.109375
979.676758	55448.703125
978.524414	55077.988281
977.372070	55466.234375
976.218750	54787.953125
975.065430	55881.980469
973.912109	55374.507813
972.757813	55130.511719
971.604492	55556.285156
970.450195	55118.632813
969.295898	55131.636719
968.141602	55237.246094
966.986328	55393.316406
965.832031	55311.578125
964.676758	55139.414063
963.521484	55995.777344
962.365234	55613.261719
961.209961	55363.335938
960.053711	55723.093750
958.897461	55189.515625
957.741211	55748.789063
956.584961	55364.558594
955.427734	55898.382813
954.270508	55843.976563
953.113281	55753.894531
951.956055	55693.234375
950.797852	56216.097656
949.639648	55752.445313
948.481445	55924.707031
947.323242	55985.722656
946.165039	55537.042969
945.005859	55178.695313
943.847656	55774.445313
942.687500	55940.242188
941.528320	55764.355469
940.369141	55575.953125
939.208984	55672.550781
938.048828	55440.242188
936.888672	55490.750000
935.728516	55583.113281
934.567383	55673.347656
933.406250	56004.261719
932.245117	55901.843750
931.083984	55770.171875
929.922852	55856.109375
928.760742	55622.000000
927.598633	56483.769531
926.436523	55925.546875
925.274414	56134.718750
924.111328	56093.007813
922.948242	55875.773438
921.785156	55819.492188
920.622070	56304.253906
919.458984	56598.781250
918.294922	56366.988281
917.130859	56815.882813
915.966797	56669.710938
914.802734	56719.765625
913.637695	56300.320313
912.472656	57178.640625
911.307617	57057.531250
910.142578	57468.246094
908.977539	57605.667969
907.811523	57559.585938
906.645508	57799.062500
905.479492	57815.472656
904.313477	57402.671875
903.146484	57262.910156
901.980469	57144.023438
900.813477	57002.273438
899.646484	56929.277344
898.478516	56862.550781
897.311523	56800.011719
896.143555	57047.531250
894.975586	56581.367188
893.806641	56789.312500
892.638672	56830.800781
891.469727	56475.132813
890.300781	56895.019531
889.131836	56830.457031
887.962891	57127.503906
886.792969	57220.824219
885.623047	56607.808594
884.453125	56796.726563
883.283203	56792.449219
882.112305	57238.703125
880.942383	56756.902344
879.771484	57377.332031
878.600586	57308.613281
877.428711	57582.234375
876.257813	57917.984375
875.085938	57417.824219
873.914063	58031.324219
872.741211	57921.070313
871.569336	57978.750000
870.396484	57926.570313
869.223633	58118.898438
868.050781	58420.949219
866.877930	58138.800781
865.704102	58378.605469
864.530273	59262.226563
863.356445	59187.078125
862.182617	59250.625000
861.007813	59684.546875
859.833984	60163.824219
858.659180	60187.843750
857.484375	59636.906250
856.308594	59811.957031
855.133789	59825.683594
853.958008	59275.113281
852.782227	59512.125000
851.605469	58994.871094
850.429688	59039.714844
849.252930	59121.718750
848.076172	58891.863281
846.899414	59566.425781
845.722656	59489.324219
844.544922	59560.851563
843.367188	59888.230469
842.189453	60095.824219
841.011719	60016.609375
839.833008	60877.875000
838.655273	60885.144531
837.476563	61475.851563
836.296875	62262.152344
835.118164	61617.917969
833.938477	61748.664063
832.758789	61374.628906
831.579102	61534.199219
830.399414	60336.605469
829.219727	60000.093750
828.039063	59165.531250
826.858398	59218.359375
825.677734	58456.265625
824.496094	57881.683594
823.315430	57661.121094
822.133789	57128.027344
820.952148	56806.925781
819.769531	56718.253906
818.587891	57046.886719
817.405273	56826.671875
816.222656	56345.582031
815.040039	56511.796875
813.856445	56308.226563
812.673828	56006.160156
811.490234	55866.406250
810.305664	56143.429688
809.122070	55851.812500
807.938477	55703.949219
806.753906	55344.812500
805.569336	55281.195313
804.383789	55875.953125
803.199219	55229.898438
802.013672	55853.144531
800.828125	55693.128906
799.642578	55453.246094
798.457031	54625.375000
797.270508	54731.996094
796.083984	54863.152344
794.897461	54472.046875
793.710938	54560.203125
792.523438	54492.742188
791.336914	54249.281250
790.149414	54288.308594
788.961914	53811.726563
787.773438	54351.992188
786.585938	53812.167969
785.397461	54053.679688
784.208984	53873.933594
783.019531	53226.160156
781.831055	53494.203125
780.641602	53351.437500
779.452148	52573.363281
778.262695	53123.246094
777.072266	52809.078125
775.882813	53168.820313
774.692383	52983.363281
773.501953	53163.320313
772.310547	53037.109375
771.120117	52700.792969
769.928711	53029.609375
768.737305	53254.285156
767.544922	53075.125000
766.353516	52402.640625
765.161133	53037.019531
763.968750	53489.777344
762.776367	53143.605469
761.583984	53406.703125
760.390625	53903.941406
759.197266	53798.187500
758.003906	54069.152344
756.810547	54099.800781
755.616211	54244.410156
754.421875	54500.890625
753.227539	54859.000000
752.033203	54641.289063
750.838867	54411.453125
749.643555	54812.078125
748.448242	53907.304688
747.252930	53911.488281
746.057617	53631.144531
744.861328	53314.324219
743.665039	52743.675781
742.468750	52845.558594
741.272461	52675.273438
740.075195	52592.359375
738.878906	52507.441406
737.681641	52069.390625
736.484375	52169.265625
735.286133	52263.015625
734.087891	52557.550781
732.890625	51898.738281
731.691406	51996.531250
730.493164	51790.175781
729.294922	51620.378906
728.095703	51882.324219
726.896484	51736.882813
725.696289	51561.109375
724.497070	51340.835938
723.296875	51428.464844
722.096680	51428.992188
720.896484	51405.226563
719.696289	51381.464844
718.495117	51556.027344
717.293945	51601.031250
716.092773	51322.359375
714.891602	51490.757813
713.689453	51074.699219
712.487305	51641.363281
711.285156	51662.042969
710.083008	51654.417969
708.880859	51462.917969
707.677734	51768.464844
706.474609	51296.250000
705.271484	51763.269531
704.068359	51014.609375
702.864258	51225.121094
701.660156	51021.792969
700.456055	51391.640625
699.251953	51087.472656
698.046875	51485.406250
696.841797	50733.589844
695.636719	51066.910156
694.431641	51119.863281
693.226563	51116.359375
692.020508	51088.667969
690.814453	51474.050781
689.608398	51341.542969
688.402344	51211.093750
687.195313	51320.335938
685.988281	51858.398438
684.781250	51119.972656
683.574219	51200.988281
682.366211	51368.496094
681.158203	51358.890625
679.950195	51150.144531
678.742188	51259.238281
677.534180	51619.640625
676.325195	51565.757813
675.116211	51998.324219
673.907227	51727.339844
672.697266	51410.238281
671.488281	52007.316406
670.278320	51684.253906
669.068359	51638.433594
667.858398	51771.328125
666.647461	51360.152344
665.436523	51252.195313
664.225586	50997.789063
663.014648	50717.390625
661.802734	50886.425781
660.591797	51081.464844
659.379883	50905.472656
658.167969	50274.453125
656.955078	50411.367188
655.743164	50271.664063
654.530273	50224.179688
653.317383	50274.875000
652.103516	50039.128906
650.890625	50027.753906
649.676758	49976.335938
648.462891	50317.292969
647.249023	50083.707031
646.034180	50132.355469
644.819336	50082.949219
643.604492	49639.500000
642.389648	50084.183594
641.174805	49904.835938
639.958984	49695.566406
638.743164	50175.960938
637.527344	49892.769531
636.311523	50384.929688
635.094727	50153.742188
633.877930	50555.789063
632.661133	50304.679688
631.444336	50193.425781
630.226563	49724.894531
629.008789	50024.917969
627.791016	49570.558594
626.573242	49720.867188
625.355469	50192.261719
624.136719	49776.007813
622.917969	49690.902344
621.699219	50042.414063
620.480469	49833.710938
619.260742	49579.246094
618.041016	49705.429688
616.821289	49255.855469
615.601563	49314.332031
614.380859	49565.941406
613.160156	49703.968750
611.939453	49453.781250
610.718750	49476.343750
609.497070	49530.730469
608.276367	49688.546875
607.054688	49635.460938
605.832031	49769.328125
604.610352	49734.136719
603.387695	49271.542969
602.165039	49562.417969
600.942383	49618.687500
599.719727	49156.371094
598.496094	49526.554688
597.272461	49987.957031
596.048828	49355.050781
594.825195	49790.500000
593.600586	49741.445313
592.375977	49607.070313
591.151367	49508.460938
589.926758	49532.882813
588.701172	49497.792969
587.476563	49831.566406
586.250977	49645.738281
585.024414	49563.062500
583.798828	49533.925781
582.572266	49306.636719
581.345703	49370.675781
580.119141	49650.601563
578.892578	50025.484375
577.665039	50128.945313
576.437500	49808.699219
575.209961	50026.964844
573.982422	50047.242188
572.753906	49869.644531
571.525391	49915.656250
570.296875	50046.699219
569.068359	49859.308594
567.838867	49986.351563
566.610352	50536.378906
565.380859	50068.343750
564.150391	50120.179688
562.920898	50209.531250
561.690430	50221.812500
560.459961	49983.273438
559.229492	50256.226563
557.999023	50671.214844
556.767578	49960.976563
555.536133	50411.382813
554.304688	50180.910156
553.073242	49982.085938
551.840820	50465.753906
550.608398	50050.031250
549.375977	50559.132813
548.143555	49818.292969
546.910156	50244.468750
545.676758	50173.921875
544.443359	49995.042969
543.209961	50334.265625
541.975586	49867.894531
540.742188	50120.375000
539.507813	50185.742188
538.272461	50058.191406
537.038086	49918.878906
535.802734	50426.925781
534.567383	50439.062500
533.332031	50065.707031
532.096680	50479.042969
530.860352	50616.980469
529.624023	50650.683594
528.387695	50195.019531
527.151367	50767.167969
525.914063	50602.398438
524.676758	50734.277344
523.439453	50163.066406
522.202148	50917.378906
520.963867	50636.875000
519.725586	50454.613281
518.487305	50802.234375
517.249023	50598.421875
516.009766	50765.417969
514.771484	50691.125000
513.532227	50691.363281
512.291992	50362.246094
511.052734	50691.839844
509.812500	50897.843750
508.572266	50594.335938
507.332031	51005.968750
506.090820	50510.609375
504.850586	50685.148438
503.609375	50654.046875
502.368164	51010.539063
501.125977	50908.921875
499.884766	50541.226563
498.642578	50842.750000
497.400391	51324.113281
496.157227	50704.257813
494.915039	51347.746094
493.671875	51469.031250
492.428711	51201.308594
491.184570	51793.527344
489.941406	51402.750000
488.697266	51641.125000
487.453125	51313.019531
486.208984	51467.355469
484.963867	51543.531250
483.718750	51410.820313
482.473633	51426.476563
481.228516	51467.488281
479.982422	51881.097656
478.737305	51619.679688
477.491211	51939.496094
476.244141	51584.570313
474.998047	51761.960938
473.750977	51874.964844
472.503906	52056.121094
471.256836	52317.089844
470.009766	52429.917969
468.761719	52416.109375
467.513672	52608.703125
466.265625	52799.273438
465.017578	52927.484375
463.768555	53034.238281
462.519531	53183.753906
461.270508	54014.074219
460.021484	54091.378906
458.771484	54277.550781
457.521484	54446.148438
456.271484	54713.820313
455.021484	54349.750000
453.770508	54467.710938
452.519531	54577.851563
451.268555	54994.847656
450.017578	55838.929688
448.765625	55830.300781
447.514648	56161.398438
446.262695	56618.527344
445.009766	56716.476563
443.757813	57254.808594
442.504883	57527.179688
441.251953	57240.886719
439.999023	57111.761719
438.745117	56360.355469
437.492188	56231.441406
436.238281	55371.953125
434.983398	55121.203125
433.729492	54289.367188
432.474609	53773.554688
431.219727	54262.988281
429.964844	53977.773438
428.709961	53690.726563
427.454102	53558.621094
426.198242	53598.785156
424.942383	53546.062500
423.685547	53580.402344
422.429688	53328.503906
421.172852	53699.308594
419.916016	53174.894531
418.658203	53017.914063
417.401367	53514.171875
416.143555	53482.769531
414.885742	53486.152344
413.626953	53491.457031
412.369141	53852.066406
411.110352	53837.992188
409.851563	53663.707031
408.591797	53601.417969
407.333008	53888.398438
406.073242	53598.445313
404.813477	53536.199219
403.553711	53713.097656
402.292969	54065.386719
401.032227	53636.812500
