#Wave		#Intensity
2001.182617	37910.765625
2000.212891	37760.375000
1999.243164	38084.585938
1998.273438	37466.562500
1997.303711	37617.851563
1996.333008	37846.730469
1995.363281	37632.261719
1994.392578	37700.808594
1993.421875	37481.433594
1992.451172	37672.625000
1991.479492	37688.570313
1990.508789	37666.976563
1989.537109	37650.390625
1988.566406	37821.402344
1987.594727	37769.781250
1986.622070	37815.691406
1985.650391	37581.593750
1984.677734	37705.000000
1983.706055	37678.421875
1982.733398	38159.070313
1981.760742	37870.109375
1980.788086	37938.425781
1979.814453	37612.140625
1978.841797	38197.328125
1977.868164	38123.250000
1976.894531	37787.113281
1975.920898	37750.562500
1974.947266	37399.636719
1973.972656	37916.984375
1972.999023	37987.679688
1972.024414	38128.175781
1971.049805	37767.449219
1970.075195	37783.285156
1969.099609	38158.035156
1968.125000	38094.042969
1967.149414	37746.027344
1966.173828	38085.707031
1965.198242	38123.878906
1964.222656	38104.761719
1963.247070	38195.203125
1962.270508	38293.082031
1961.294922	37987.699219
1960.318359	38185.121094
1959.341797	38332.710938
1958.364258	38335.957031
1957.387695	38500.871094
1956.410156	38295.187500
1955.433594	38847.933594
1954.456055	38485.640625
1953.478516	38831.855469
1952.500000	38375.253906
1951.522461	38465.441406
1950.543945	38791.601563
1949.565430	38737.621094
1948.586914	38770.574219
1947.608398	38845.726563
1946.629883	38729.695313
1945.650391	39072.890625
1944.671875	38733.511719
1943.692383	39061.695313
1942.712891	38791.894531
1941.733398	38795.023438
1940.752930	38884.945313
1939.773438	38974.839844
1938.792969	38311.070313
1937.812500	39020.675781
1936.832031	39269.093750
1935.851563	38714.636719
1934.870117	38811.906250
1933.888672	38602.003906
1932.908203	38642.296875
1931.926758	38776.660156
1930.945313	38465.371094
1929.962891	39050.191406
1928.981445	38776.082031
1927.999023	38615.882813
1927.016602	38440.898438
1926.034180	38777.964844
1925.051758	38573.332031
1924.069336	39305.859375
1923.085938	38965.238281
1922.102539	39195.691406
1921.119141	39001.007813
1920.135742	38621.082031
1919.152344	38765.003906
1918.168945	38407.480469
1917.184570	38669.921875
1916.200195	38818.695313
1915.215820	38634.148438
1914.231445	38985.265625
1913.247070	38637.875000
1912.261719	38522.539063
1911.276367	39065.906250
1910.291992	38807.472656
1909.306641	38849.988281
1908.320313	38485.664063
1907.334961	38779.664063
1906.348633	39159.828125
1905.363281	38502.382813
1904.376953	38665.636719
1903.390625	38826.367188
1902.403320	38908.226563
1901.416992	38911.250000
1900.429688	38446.464844
1899.443359	38924.675781
1898.456055	39326.421875
1897.467773	39243.234375
1896.480469	39521.753906
1895.493164	39369.679688
1894.504883	39148.789063
1893.516602	39205.855469
1892.528320	38808.042969
1891.540039	39413.339844
1890.550781	38909.937500
1889.562500	39274.175781
1888.573242	38974.902344
1887.583984	39307.062500
1886.594727	39432.792969
1885.605469	38942.101563
1884.615234	39458.230469
1883.625000	39156.722656
1882.635742	39027.128906
1881.645508	39464.441406
1880.654297	39209.703125
1879.664063	39440.765625
1878.673828	39139.519531
1877.682617	39650.066406
1876.691406	39321.914063
1875.700195	39572.402344
1874.708984	39719.859375
1873.716797	39477.632813
1872.725586	39796.554688
1871.733398	39439.265625
1870.741211	39660.113281
1869.749023	40138.003906
1868.755859	40086.878906
1867.763672	39803.218750
1866.770508	39583.292969
1865.777344	39679.113281
1864.784180	39948.605469
1863.791016	40044.324219
1862.797852	40056.851563
1861.803711	39873.746094
1860.809570	40468.187500
1859.815430	40011.285156
1858.821289	40270.652344
1857.827148	39855.488281
1856.832031	39784.957031
1855.837891	40188.343750
1854.842773	40232.566406
1853.847656	40105.839844
1852.852539	40413.734375
1851.856445	40465.214844
1850.861328	40196.949219
1849.865234	40277.726563
1848.869141	40490.218750
1847.873047	40668.484375
1846.876953	40866.199219
1845.879883	40649.300781
1844.883789	40900.582031
1843.886719	40481.429688
1842.889648	40613.222656
1841.892578	40703.546875
1840.895508	41417.539063
1839.897461	41108.199219
1838.899414	40908.562500
1837.901367	41178.957031
1836.903320	41032.933594
1835.905273	40981.894531
1834.907227	40964.949219
1833.908203	41276.500000
1832.909180	41364.117188
1831.910156	41325.214844
1830.911133	40972.585938
1829.912109	41264.460938
1828.912109	41262.058594
1827.913086	41407.929688
1826.913086	41449.246094
1825.913086	41424.933594
1824.913086	41492.953125
1823.912109	41386.054688
1822.912109	41475.910156
1821.911133	41711.421875
1820.910156	41378.753906
1819.909180	41410.300781
1818.908203	41810.726563
1817.906250	41934.390625
1816.904297	41980.375000
1815.903320	41747.394531
1814.900391	41880.699219
1813.898438	41984.859375
1812.896484	41652.597656
1811.893555	41754.332031
1810.891602	41999.015625
1809.888672	42250.882813
1808.885742	42110.191406
1807.881836	42710.738281
1806.878906	42415.019531
1805.875000	42547.980469
1804.871094	42351.648438
1803.867188	42666.105469
1802.863281	42791.687500
1801.859375	42854.312500
1800.854492	42815.304688
1799.849609	42556.199219
1798.844727	42227.050781
1797.839844	42961.910156
1796.834961	42688.410156
1795.830078	43403.585938
1794.824219	43363.097656
1793.818359	43322.605469
1792.812500	43282.117188
1791.806641	43241.625000
1790.799805	43201.097656
1789.793945	43741.574219
1788.787109	43424.851563
1787.780273	43467.875000
1786.773438	43641.199219
1785.766602	43867.542969
1784.758789	43476.226563
1783.751953	43871.355469
1782.744141	43844.320313
1781.736328	43740.132813
1780.728516	43850.414063
1779.719727	43960.804688
1778.711914	44071.085938
1777.703125	44181.476563
1776.694336	44291.863281
1775.685547	44402.253906
1774.676758	44512.640625
1773.666992	44623.136719
1772.657227	44733.632813
1771.648438	44844.023438
1770.638672	44954.519531
1769.627930	45065.121094
1768.618164	45175.617188
1767.607422	45286.218750
1766.597656	45396.714844
1765.586914	45528.144531
1764.576172	45092.210938
1763.564453	45149.136719
1762.553711	44929.691406
1761.541992	45248.507813
1760.530273	45206.882813
1759.518555	46118.769531
1758.506836	45474.265625
1757.495117	45953.613281
1756.482422	45971.898438
1755.469727	45289.351563
1754.457031	46301.195313
1753.444336	45976.316406
1752.431641	46253.644531
1751.417969	46521.281250
1750.405273	46714.484375
1749.391602	46442.496094
1748.377930	46769.878906
1747.364258	46740.039063
1746.349609	46844.398438
1745.335938	46939.132813
1744.321289	47096.117188
1743.306641	46505.804688
1742.291992	47129.742188
1741.276367	47691.210938
1740.261719	47852.730469
1739.246094	47930.421875
1738.230469	47574.976563
1737.214844	48241.230469
1736.199219	48282.925781
1735.182617	48379.613281
1734.166992	48323.230469
1733.150391	48840.644531
1732.133789	48953.910156
1731.117188	49542.722656
1730.099609	49794.406250
1729.083008	50124.839844
1728.065430	49786.335938
1727.047852	50045.003906
1726.030273	50754.867188
1725.012695	50836.605469
1723.994141	51281.121094
1722.976563	51107.375000
1721.958008	51985.953125
1720.939453	52169.988281
1719.920898	52723.671875
1718.901367	52475.851563
1717.882813	52158.968750
1716.863281	52822.015625
1715.843750	53043.867188
1714.824219	53449.136719
1713.803711	53608.843750
1712.784180	53396.851563
1711.763672	53649.398438
1710.743164	53630.371094
1709.722656	53158.945313
1708.702148	53494.718750
1707.681641	53937.476563
1706.660156	53908.878906
1705.638672	53996.878906
1704.617188	53551.968750
1703.595703	53682.808594
1702.574219	53518.718750
1701.551758	53673.289063
1700.529297	53556.800781
1699.507813	53544.929688
1698.484375	53390.480469
1697.461914	53590.101563
1696.439453	53563.968750
1695.416016	53366.835938
1694.392578	53352.625000
1693.369141	53820.398438
1692.345703	53670.796875
1691.322266	53281.527344
1690.297852	54067.039063
1689.273438	53775.113281
1688.249023	54083.445313
1687.224609	54213.789063
1686.200195	54040.546875
1685.174805	53907.671875
1684.150391	54173.089844
1683.125000	55011.964844
1682.099609	54777.089844
1681.073242	54836.078125
1680.047852	54653.421875
1679.021484	54975.300781
1677.995117	54868.457031
1676.968750	54939.218750
1675.942383	55488.113281
1674.916016	55094.855469
1673.888672	55113.472656
1672.862305	55226.714844
1671.834961	55368.300781
1670.806641	55521.660156
1669.779297	55339.183594
1668.751953	55274.984375
1667.723633	55555.914063
1666.695313	56195.972656
1665.666992	56079.660156
1664.638672	56166.566406
1663.609375	56352.644531
1662.581055	56543.378906
1661.551758	56174.425781
1660.522461	57156.000000
1659.493164	56300.816406
1658.462891	57135.699219
1657.433594	56184.074219
1656.403320	56770.960938
1655.373047	56914.191406
1654.342773	56595.140625
1653.312500	57143.906250
1652.281250	57152.613281
1651.250977	56701.683594
1650.219727	57587.136719
1649.188477	56650.902344
1648.156250	56930.597656
1647.125000	57127.753906
1646.092773	57105.824219
1645.060547	56963.816406
1644.028320	57142.023438
1642.996094	57070.667969
1641.963867	57531.179688
1640.930664	57751.535156
1639.898438	58279.980469
1638.865234	58046.171875
1637.832031	58461.496094
1636.797852	58319.429688
1635.764648	58466.562500
1634.730469	59236.488281
1633.696289	59350.500000
1632.662109	59297.648438
1631.627930	59585.441406
1630.592773	60025.792969
1629.558594	59702.789063
1628.523438	60286.179688
1627.488281	61127.578125
1626.453125	61407.730469
1625.416992	61530.562500
1624.381836	62174.199219
1623.345703	62468.085938
1622.309570	62947.148438
1621.273438	63864.542969
1620.237305	64896.492188
1619.200195	65674.906250
1618.163086	67041.304688
1617.125977	69037.554688
1616.088867	70039.726563
1615.051758	71636.507813
1614.014648	72935.289063
1612.976563	74811.976563
1611.938477	75985.640625
1610.900391	76365.359375
1609.862305	76485.156250
1608.823242	76551.093750
1607.785156	76167.812500
1606.746094	74895.812500
1605.707031	73853.445313
1604.667969	72028.132813
1603.628906	70909.492188
1602.588867	69410.250000
1601.548828	68565.898438
1600.508789	68320.023438
1599.468750	67057.992188
1598.428711	66679.320313
1597.387695	66078.929688
1596.347656	65868.687500
1595.306641	65254.640625
1594.265625	65432.070313
1593.224609	64902.328125
1592.182617	65313.082031
1591.140625	64960.843750
1590.099609	65317.789063
1589.057617	65154.562500
1588.014648	65128.957031
1586.972656	65895.960938
1585.929688	65567.226563
1584.887695	65257.250000
1583.844727	65979.546875
1582.800781	65301.531250
1581.757813	65641.585938
1580.714844	65967.539063
1579.670898	65806.757813
1578.626953	65774.070313
1577.583008	66549.015625
1576.538086	66171.804688
1575.494141	66781.203125
1574.449219	67541.593750
1573.404297	67231.843750
1572.359375	66945.445313
1571.314453	67226.445313
1570.269531	67570.109375
1569.223633	67211.750000
1568.177734	66941.820313
1567.131836	66932.203125
1566.085938	65858.687500
1565.040039	65547.335938
1563.993164	64439.617188
1562.946289	64539.554688
1561.899414	63636.675781
1560.852539	63546.406250
1559.805664	63175.398438
1558.757813	62843.957031
1557.709961	62753.871094
1556.662109	62594.238281
1555.614258	63012.027344
1554.566406	62381.777344
1553.517578	62836.539063
1552.469727	62055.902344
1551.420898	62450.308594
1550.372070	62184.316406
1549.322266	62075.925781
1548.273438	62180.628906
1547.223633	61567.503906
1546.173828	61581.968750
1545.124023	61464.492188
1544.074219	61127.207031
1543.024414	61167.187500
1541.973633	60924.917969
1540.922852	61300.292969
1539.872070	61148.273438
1538.821289	60846.011719
1537.770508	61198.074219
1536.718750	60738.742188
1535.666992	60822.632813
1534.615234	60855.656250
1533.563477	60837.843750
1532.511719	60709.175781
1531.458984	60663.679688
1530.407227	60800.597656
1529.354492	60478.089844
1528.300781	60760.386719
1527.248047	60128.781250
1526.195313	60627.910156
1525.141602	60363.324219
1524.087891	60204.917969
1523.034180	60071.933594
1521.980469	60545.347656
1520.925781	59838.371094
1519.871094	60350.832031
1518.817383	60390.726563
1517.762695	60144.925781
1516.707031	60357.597656
1515.652344	60362.917969
1514.596680	60188.625000
1513.541016	60481.746094
1512.485352	60404.167969
1511.429688	60478.507813
1510.374023	59696.851563
1509.317383	59999.042969
1508.260742	60209.117188
1507.204102	60209.835938
1506.147461	59980.617188
1505.090820	59666.417969
1504.033203	59724.691406
1502.975586	59955.296875
1501.917969	59684.917969
1500.860352	59543.285156
1499.802734	59358.058594
1498.744141	59864.128906
1497.686523	59979.687500
1496.627930	59679.691406
1495.569336	59620.800781
1494.509766	59823.539063
1493.451172	60271.699219
1492.391602	59446.531250
1491.332031	59562.027344
1490.272461	59138.582031
1489.212891	59448.972656
1488.152344	59699.644531
1487.092773	59507.882813
1486.032227	59089.324219
1484.971680	59491.132813
1483.910156	58733.699219
1482.849609	59064.425781
1481.788086	59326.332031
1480.726563	59578.984375
1479.665039	59446.980469
1478.603516	59262.386719
1477.541992	59448.546875
1476.479492	59291.464844
1475.416992	58910.269531
1474.354492	59432.578125
1473.291992	59154.386719
1472.229492	59258.085938
1471.166016	59277.171875
1470.102539	59570.492188
1469.039063	59996.234375
1467.975586	59334.371094
1466.912109	59440.218750
1465.847656	60219.722656
1464.783203	59526.203125
1463.718750	59958.406250
1462.654297	59810.699219
1461.589844	60219.867188
1460.524414	60336.835938
1459.458984	59881.156250
1458.393555	60903.640625
1457.328125	60306.628906
1456.262695	60998.058594
1455.196289	61062.335938
1454.130859	60786.980469
1453.064453	61044.968750
1451.998047	61612.722656
1450.930664	61269.070313
1449.864258	61358.285156
1448.796875	61194.691406
1447.729492	61049.371094
1446.662109	61805.542969
1445.594727	61894.582031
1444.526367	61860.710938
1443.458008	62350.128906
1442.390625	62595.972656
1441.321289	62621.113281
1440.252930	63101.027344
1439.184570	63701.261719
1438.115234	64319.464844
1437.045898	63971.546875
1435.976563	64732.625000
1434.907227	65275.328125
1433.836914	65025.093750
1432.767578	65161.023438
1431.697266	65828.234375
1430.626953	65539.429688
1429.555664	65559.429688
1428.485352	66298.820313
1427.414063	66711.203125
1426.342773	67137.054688
1425.271484	66696.289063
1424.200195	67126.515625
1423.128906	67234.617188
1422.056641	67281.468750
1420.984375	67110.703125
1419.912109	67336.578125
1418.839844	67424.164063
1417.767578	67604.585938
1416.694336	67463.328125
1415.621094	67489.687500
1414.547852	66845.859375
1413.474609	66668.578125
1412.400391	66776.539063
1411.327148	65992.875000
1410.252930	66442.546875
1409.178711	65903.523438
1408.104492	66095.210938
1407.029297	65619.757813
1405.955078	66562.031250
1404.879883	66577.179688
1403.804688	66345.968750
1402.729492	67307.929688
1401.653320	67345.515625
1400.578125	67238.515625
1399.501953	67043.476563
1398.425781	67309.140625
1397.349609	67432.476563
1396.272461	67795.031250
1395.196289	67374.343750
1394.119141	67698.414063
1393.041992	67873.460938
1391.964844	68100.328125
1390.886719	68374.468750
1389.809570	69408.359375
1388.731445	69386.843750
1387.653320	69599.734375
1386.575195	69578.179688
1385.497070	69509.312500
1384.417969	69228.718750
1383.338867	69894.187500
1382.259766	69681.171875
1381.180664	69950.054688
1380.101563	70158.054688
1379.021484	70172.421875
1377.941406	69855.976563
1376.861328	70309.117188
1375.781250	69758.812500
1374.701172	69759.734375
1373.620117	69434.585938
1372.539063	68738.593750
1371.458008	68759.921875
1370.376953	68704.820313
1369.295898	68800.289063
1368.213867	68246.437500
1367.132813	67697.273438
1366.050781	67851.257813
1364.967773	67623.460938
1363.885742	68136.593750
1362.802734	67985.140625
1361.720703	67853.929688
1360.637695	67969.585938
1359.554688	67863.093750
1358.470703	67915.898438
1357.387695	68015.773438
1356.303711	67945.203125
1355.219727	67074.335938
1354.135742	66739.468750
1353.050781	66720.703125
1351.966797	66076.820313
1350.881836	65262.910156
1349.796875	65394.472656
1348.711914	65302.050781
1347.626953	64958.894531
1346.541016	65354.582031
1345.455078	64615.382813
1344.369141	64892.386719
1343.283203	64768.800781
1342.197266	64927.109375
1341.110352	64635.816406
1340.023438	65156.343750
1338.936523	65468.753906
1337.849609	65050.101563
1336.762695	65664.125000
1335.674805	65545.007813
1334.586914	65673.914063
1333.499023	66052.945313
1332.411133	65594.351563
1331.323242	65841.515625
1330.234375	66023.843750
1329.145508	66266.375000
1328.056641	66763.218750
1326.967773	66699.835938
1325.878906	67343.664063
1324.789063	67891.335938
1323.699219	67201.125000
1322.609375	68335.023438
1321.519531	68237.960938
1320.429688	68778.382813
1319.338867	69414.429688
1318.248047	70121.539063
1317.157227	70708.101563
1316.066406	71044.992188
1314.975586	71642.304688
1313.883789	72259.429688
1312.791992	72704.929688
1311.700195	72464.757813
1310.608398	72700.882813
1309.516602	72069.226563
1308.423828	72180.750000
1307.331055	71822.968750
1306.238281	70720.390625
1305.145508	70765.398438
1304.051758	70288.023438
1302.958984	70301.976563
1301.865234	71126.953125
1300.771484	70871.929688
1299.677734	71667.625000
1298.583008	71761.250000
1297.489258	72310.023438
1296.394531	73040.640625
1295.299805	73282.671875
1294.204102	74407.859375
1293.109375	74072.656250
1292.013672	74143.546875
1290.917969	73768.585938
1289.822266	73473.593750
1288.726563	73074.492188
1287.630859	72830.710938
1286.534180	72611.398438
1285.437500	71749.515625
1284.340820	71483.945313
1283.244141	71575.109375
1282.146484	71526.703125
1281.048828	70933.578125
1279.951172	70635.117188
1278.853516	70921.156250
1277.755859	70346.156250
1276.658203	69948.382813
1275.559570	69670.218750
1274.460938	68856.851563
1273.362305	68999.187500
1272.262695	68398.507813
1271.164063	68711.093750
1270.064453	67759.226563
1268.964844	67744.726563
1267.865234	67633.015625
1266.765625	67499.250000
1265.665039	67135.812500
1264.564453	66761.468750
1263.463867	66504.273438
1262.363281	66675.445313
1261.262695	66429.390625
1260.161133	66397.484375
1259.059570	66539.882813
1257.958008	66263.101563
1256.856445	66092.281250
1255.754883	65787.000000
1254.652344	65779.476563
1253.549805	65809.421875
1252.447266	66084.000000
1251.344727	65930.976563
1250.242188	65346.187500
1249.138672	65479.714844
1248.035156	65538.304688
1246.931641	65634.304688
1245.828125	65340.593750
1244.724609	65619.289063
1243.620117	65213.437500
1242.515625	64941.953125
1241.411133	65682.554688
1240.306641	65664.031250
1239.201172	65495.968750
1238.096680	65598.414063
1236.991211	65764.570313
1235.885742	65526.234375
1234.779297	65558.289063
1233.673828	65647.445313
1232.567383	65446.601563
1231.460938	65775.156250
1230.354492	65809.320313
1229.248047	65830.296875
1228.140625	65427.597656
1227.033203	65738.343750
1225.926758	65147.078125
1224.818359	65685.937500
1223.710938	65274.765625
1222.602539	65732.242188
1221.495117	65367.257813
1220.386719	65508.847656
1219.278320	65227.324219
1218.168945	65826.921875
1217.060547	65501.617188
1215.951172	65697.835938
1214.841797	64943.343750
1213.731445	64519.816406
1212.622070	64864.988281
1211.511719	64805.031250
1210.402344	64961.785156
1209.291992	65424.859375
1208.180664	65038.808594
1207.070313	65208.554688
1205.958984	65529.152344
1204.847656	65353.218750
1203.736328	65927.296875
1202.625000	65637.671875
1201.512695	65857.406250
1200.401367	66048.656250
1199.289063	65929.578125
1198.176758	66441.851563
1197.063477	66796.679688
1195.951172	67042.187500
1194.837891	66853.148438
1193.724609	66961.039063
1192.611328	67199.828125
1191.498047	67085.039063
1190.383789	66688.859375
1189.269531	66864.304688
1188.155273	66080.109375
1187.041016	66279.578125
1185.926758	66045.148438
1184.811523	65797.718750
1183.696289	65319.371094
1182.581055	65377.199219
1181.465820	65225.871094
1180.350586	65599.507813
1179.234375	65143.312500
1178.118164	65619.164063
1177.001953	65515.777344
1175.885742	64646.304688
1174.768555	65278.652344
1173.652344	64781.574219
1172.535156	64563.117188
1171.417969	64127.246094
1170.299805	64387.375000
1169.182617	63888.636719
1168.064453	63844.386719
1166.946289	63571.953125
1165.828125	63990.605469
1164.709961	63529.226563
1163.590820	63782.648438
1162.471680	63797.082031
1161.352539	63915.730469
1160.233398	63680.468750
1159.114258	63473.507813
1157.994141	63791.796875
1156.874023	63858.277344
1155.753906	64245.792969
1154.633789	64333.851563
1153.513672	64205.011719
1152.392578	64030.687500
1151.271484	64097.050781
1150.150391	64031.171875
1149.029297	63733.449219
1147.907227	63910.312500
1146.786133	64331.894531
1145.664063	64118.734375
1144.541992	64104.871094
1143.418945	64995.984375
1142.296875	64899.703125
1141.173828	64777.480469
1140.050781	64322.074219
1138.927734	64730.039063
1137.803711	64666.312500
1136.680664	65694.742188
1135.556641	65209.210938
1134.432617	64942.207031
1133.308594	65520.429688
1132.183594	65100.023438
1131.059570	65392.792969
1129.934570	64899.109375
1128.809570	65006.050781
1127.684570	64946.667969
1126.558594	64297.875000
1125.432617	64845.230469
1124.307617	64600.289063
1123.180664	64590.648438
1122.054688	64887.371094
1120.928711	64275.835938
1119.801758	64494.863281
1118.674805	64222.160156
1117.547852	64016.390625
1116.419922	64403.468750
1115.292969	64107.218750
1114.165039	63660.238281
1113.037109	63351.300781
1111.909180	63402.187500
1110.780273	63310.914063
1109.652344	63219.671875
1108.523438	63249.019531
1107.394531	63237.453125
1106.264648	63393.746094
1105.135742	63782.355469
1104.005859	63308.179688
1102.875977	63786.992188
1101.746094	63684.253906
1100.616211	63581.511719
1099.485352	63478.683594
1098.355469	63375.945313
1097.224609	63273.117188
1096.092773	63575.218750
1094.961914	63475.515625
1093.830078	63100.945313
1092.699219	63231.121094
1091.567383	62921.132813
1090.434570	62866.687500
1089.302734	62762.902344
1088.169922	62384.496094
1087.037109	62403.113281
1085.904297	62237.257813
1084.771484	62223.718750
1083.637695	62521.085938
1082.504883	61928.683594
1081.371094	62333.156250
1080.236328	62611.042969
1079.102539	62710.992188
1077.968750	62600.968750
1076.833984	62291.796875
1075.699219	62685.113281
1074.564453	62647.941406
1073.428711	62505.890625
1072.292969	62556.507813
1071.158203	62823.226563
1070.022461	62955.058594
1068.885742	62851.546875
1067.750000	62957.656250
1066.613281	62903.355469
1065.476563	62819.144531
1064.339844	63068.402344
1063.203125	62939.304688
1062.065430	62991.871094
1060.927734	62523.160156
1059.790039	62731.695313
1058.652344	62865.414063
1057.514648	62435.406250
1056.375977	62026.898438
1055.237305	62711.324219
1054.098633	62614.464844
1052.959961	62157.070313
1051.820313	62422.984375
1050.681641	62597.089844
1049.541992	62828.703125
1048.402344	62484.589844
1047.261719	62726.789063
1046.122070	62708.890625
1044.981445	62571.667969
1043.840820	63088.539063
1042.700195	62644.566406
1041.558594	62794.925781
1040.417969	62889.867188
1039.276367	62352.496094
1038.134766	62832.734375
1036.992188	63002.089844
1035.850586	62694.777344
1034.708008	62868.347656
1033.565430	62678.148438
1032.422852	62237.085938
1031.280273	62765.699219
1030.136719	62705.285156
1028.994141	62789.414063
1027.850586	62656.761719
1026.706055	62675.003906
1025.562500	63347.480469
1024.417969	62352.531250
1023.273438	62627.742188
1022.128906	62499.472656
1020.984375	62477.382813
1019.839844	62743.917969
1018.694336	62891.531250
1017.548828	62848.156250
1016.403320	63046.597656
1015.256836	63308.582031
1014.111328	62902.574219
1012.964844	62850.738281
1011.818359	63053.261719
1010.671875	62973.863281
1009.524414	63176.281250
1008.377930	62770.660156
1007.230469	63536.410156
1006.083008	63283.328125
1004.934570	63447.421875
1003.787109	63531.011719
1002.638672	64196.578125
1001.490234	64337.128906
1000.341797	64615.136719
999.193359	64436.156250
998.043945	65037.609375
996.894531	64630.246094
995.745117	64698.695313
994.595703	64929.867188
993.446289	64554.441406
992.295898	65032.757813
991.145508	65198.242188
989.995117	64888.441406
988.844727	64880.726563
987.693359	64997.582031
986.541992	65312.820313
985.390625	65507.636719
984.239258	64944.824219
983.087891	65129.082031
981.935547	65730.929688
980.783203	65491.062500
979.630859	65303.992188
978.478516	65610.312500
977.325195	65787.937500
976.172852	65436.527344
975.019531	65390.769531
973.865234	65210.195313
972.711914	65276.121094
971.557617	65287.265625
970.404297	65228.917969
969.250000	64728.515625
968.094727	65337.492188
966.940430	65296.000000
965.785156	65818.375000
964.629883	65475.992188
963.474609	65365.078125
962.319336	65588.554688
961.163086	65023.531250
960.007813	65722.039063
958.851563	65616.320313
957.694336	65510.511719
956.538086	65404.792969
955.380859	65298.988281
954.223633	65193.179688
953.066406	65428.925781
951.909180	65452.554688
950.751953	65507.652344
949.593750	65579.515625
948.435547	64994.632813
947.277344	64907.128906
946.118164	65346.097656
944.959961	65032.078125
943.800781	65003.312500
942.641602	64976.652344
941.482422	64899.695313
940.322266	65172.707031
939.162109	65131.355469
938.001953	65079.539063
936.841797	65419.375000
935.681641	65549.695313
934.520508	65395.238281
933.360352	65033.617188
932.198242	65327.160156
931.037109	65319.289063
929.875977	65943.195313
928.713867	65707.226563
927.551758	65860.304688
926.389648	66000.773438
925.227539	66132.828125
924.064453	66404.867188
922.901367	65930.796875
921.738281	65655.375000
920.575195	66002.539063
919.412109	66205.468750
918.248047	66285.117188
917.083984	66341.773438
915.919922	67064.265625
914.755859	66381.960938
913.590820	67060.359375
912.426758	67408.882813
911.261719	67621.695313
910.095703	67824.000000
908.930664	67982.445313
907.764648	68455.601563
906.598633	68507.570313
905.432617	68582.429688
904.266602	68375.992188
903.099609	68290.445313
901.933594	67671.750000
900.766602	67436.437500
899.599609	67244.921875
898.431641	67057.640625
897.264648	66616.523438
896.096680	66932.968750
894.928711	66939.320313
893.759766	66924.859375
892.591797	66244.921875
891.422852	66500.898438
890.253906	65646.656250
889.084961	67083.218750
887.916016	66624.015625
886.746094	66412.234375
885.576172	66414.492188
884.406250	66512.281250
883.236328	66936.054688
882.065430	66915.367188
880.895508	67237.187500
879.724609	67504.929688
878.552734	66915.578125
877.381836	67699.859375
876.209961	67795.195313
875.039063	67811.679688
873.866211	68713.539063
872.694336	68029.132813
871.522461	68536.789063
870.349609	68014.304688
869.176758	67993.429688
868.003906	67953.906250
866.830078	68411.484375
865.657227	68552.054688
864.483398	69230.882813
863.309570	69269.812500
862.135742	69319.078125
860.960938	70022.203125
859.786133	70110.609375
858.611328	70409.968750
857.436523	69830.257813
856.261719	69972.398438
855.085938	69667.937500
853.910156	69088.679688
852.734375	69476.796875
851.558594	69596.156250
850.382813	69263.054688
849.206055	69297.726563
848.029297	69889.945313
846.852539	69843.953125
845.674805	70074.593750
844.498047	70492.960938
843.320313	71101.015625
842.142578	71457.132813
840.963867	72450.515625
839.786133	72732.000000
838.607422	73819.625000
837.428711	74801.695313
836.250000	75020.742188
835.070313	75470.515625
833.891602	75330.828125
832.711914	75049.046875
831.532227	73904.343750
830.352539	73165.750000
829.171875	72845.390625
827.991211	71697.609375
826.810547	71523.765625
825.629883	70327.265625
824.449219	70415.023438
823.267578	70087.234375
822.085938	69315.320313
820.904297	69072.148438
819.722656	68851.687500
818.540039	68742.296875
817.357422	68096.554688
816.174805	68842.109375
814.992188	68771.804688
813.809570	68136.679688
812.625977	67857.062500
811.442383	68181.187500
810.258789	67938.609375
809.074219	68108.656250
807.890625	68266.328125
806.706055	68060.789063
805.521484	67945.578125
804.336914	68148.304688
803.151367	68506.789063
801.966797	68186.539063
800.781250	68405.492188
799.594727	67411.117188
798.409180	66826.914063
797.222656	67039.843750
796.037109	66920.875000
794.849609	66390.320313
793.663086	66541.781250
792.476563	66674.757813
791.289063	65829.335938
790.101563	65749.570313
788.914063	65567.531250
787.725586	65751.718750
786.538086	65602.460938
785.349609	65980.820313
784.161133	65281.613281
782.971680	66052.351563
781.783203	65480.097656
780.593750	64987.738281
779.404297	64871.457031
778.214844	65104.496094
777.024414	64722.750000
775.834961	64996.558594
774.644531	65011.003906
773.454102	64919.308594
772.262695	65133.738281
771.072266	64878.824219
769.880859	65282.890625
768.689453	65362.515625
767.497070	65174.984375
766.305664	65215.859375
765.113281	65601.203125
763.920898	65815.210938
762.728516	66049.507813
761.536133	66530.218750
760.342773	66780.585938
759.149414	67118.429688
757.956055	67048.914063
756.762695	67376.398438
755.568359	67815.695313
754.374023	68144.937500
753.179688	68014.234375
751.985352	67692.367188
750.791016	68066.179688
749.595703	67502.437500
748.400391	67225.554688
747.205078	67280.109375
746.009766	66560.328125
744.813477	66539.796875
743.617188	66218.593750
742.420898	66068.343750
741.224609	65918.101563
740.027344	65767.726563
738.830078	65617.359375
737.632813	65466.992188
736.435547	65316.621094
735.238281	65040.683594
734.040039	64539.679688
732.841797	65123.921875
731.643555	64635.250000
730.445313	65069.222656
729.246094	64868.570313
728.046875	64588.957031
726.847656	64556.644531
725.648438	64676.285156
724.449219	64214.558594
723.249023	64382.812500
722.048828	64838.515625
720.848633	64366.886719
719.647461	64395.355469
718.447266	64840.671875
717.246094	64201.367188
716.044922	64381.558594
714.842773	64049.988281
713.641602	64747.789063
712.439453	65012.679688
711.237305	64901.496094
710.035156	64883.316406
708.832031	64758.046875
707.629883	64796.460938
706.426758	65121.675781
705.223633	64903.527344
704.019531	65327.531250
702.815430	64873.230469
701.612305	65474.687500
700.408203	65151.691406
699.203125	64986.183594
697.999023	65506.585938
696.793945	65669.812500
695.588867	65435.730469
694.383789	65796.476563
693.177734	65790.226563
691.971680	66047.984375
690.766602	66394.296875
689.559570	66500.750000
688.353516	66788.437500
687.146484	66945.109375
685.939453	66362.789063
684.732422	66177.265625
683.525391	66277.601563
682.318359	65989.523438
681.110352	65864.515625
679.902344	65608.796875
678.693359	65699.101563
677.485352	65795.398438
676.276367	65921.812500
675.067383	66325.562500
673.858398	65903.179688
672.649414	66144.023438
671.439453	66047.273438
670.229492	65683.421875
669.019531	65472.320313
667.809570	65634.750000
666.598633	65971.757813
665.387695	65650.328125
664.176758	65246.738281
662.965820	65027.878906
661.754883	65136.062500
660.542969	64951.394531
659.331055	64652.496094
658.119141	64365.734375
656.906250	64491.988281
655.694336	64884.730469
654.481445	65163.109375
653.268555	64844.406250
652.054688	64744.132813
650.841797	65056.417969
649.627930	64755.921875
648.414063	64621.683594
647.200195	65350.101563
645.985352	65525.957031
644.770508	65473.667969
643.555664	66225.507813
642.340820	65921.109375
641.125977	66180.695313
639.910156	66162.296875
638.694336	65612.226563
637.478516	65967.632813
636.262695	66177.054688
635.045898	65471.460938
633.829102	65497.136719
632.612305	64817.886719
631.395508	65091.242188
630.177734	64534.082031
628.959961	64591.835938
627.742188	64495.914063
626.524414	64503.769531
625.306641	64766.937500
624.087891	63805.507813
622.869141	64415.640625
621.650391	64222.148438
620.430664	63823.421875
619.211914	64777.957031
617.992188	64289.617188
616.772461	64411.019531
615.551758	64173.875000
614.332031	64201.660156
613.111328	63984.546875
611.890625	64302.968750
610.669922	64517.781250
609.448242	64207.199219
608.226563	64597.015625
607.004883	64378.027344
605.783203	64453.441406
604.561523	64493.039063
603.338867	64689.664063
602.116211	64458.882813
600.893555	64102.992188
599.669922	64677.070313
598.447266	64619.234375
597.223633	65276.406250
596.000000	65075.503906
594.775391	65426.593750
593.551758	65007.386719
592.327148	64489.105469
591.102539	64723.031250
589.877930	64746.578125
588.652344	64664.992188
587.426758	64652.839844
586.201172	65382.226563
584.975586	65251.000000
583.750000	65756.031250
582.523438	65513.804688
581.296875	65957.171875
580.070313	66006.179688
578.842773	65938.320313
577.616211	65937.804688
576.388672	66505.468750
575.161133	66954.156250
573.932617	66074.765625
572.705078	67037.796875
571.476563	66500.953125
570.248047	66522.070313
569.018555	66092.304688
567.790039	66038.351563
566.560547	65561.390625
565.331055	65877.132813
564.101563	65327.261719
562.871094	65095.671875
561.641602	64958.980469
560.411133	64421.433594
559.179688	64201.984375
557.949219	64041.835938
556.717773	64006.097656
555.486328	64402.546875
554.254883	63713.667969
553.023438	63745.074219
551.791016	63861.273438
550.558594	64105.597656
549.326172	63699.214844
548.093750	63194.421875
546.860352	63330.335938
545.627930	63903.628906
544.393555	63440.445313
543.160156	63660.921875
541.926758	63713.917969
540.692383	63380.976563
539.458008	63443.843750
538.223633	63437.792969
536.988281	63758.406250
535.752930	63240.750000
534.517578	63494.394531
533.282227	63421.460938
532.046875	64085.937500
530.810547	63871.359375
529.574219	63759.074219
528.337891	64468.304688
527.101563	64029.773438
525.864258	64188.613281
524.626953	63891.710938
523.389648	64256.707031
522.152344	63936.335938
520.914063	64397.371094
519.675781	64400.929688
518.437500	63921.757813
517.199219	64225.570313
515.959961	64350.765625
514.721680	64917.175781
513.482422	64873.554688
512.242188	64508.437500
511.002930	64498.226563
509.762695	64756.492188
508.522461	64654.144531
507.282227	64782.988281
506.041016	63905.062500
504.800781	64664.542969
503.559570	64243.148438
502.318359	64129.230469
501.076172	64379.378906
499.833984	64349.613281
498.592773	64278.773438
497.349609	64577.640625
496.107422	64111.742188
494.864258	64825.039063
493.622070	64453.093750
492.377930	65164.097656
491.134766	64907.519531
489.891602	64283.722656
488.647461	64888.863281
487.403320	64636.378906
486.158203	64891.687500
484.914063	64399.156250
483.668945	64935.484375
482.423828	64931.019531
481.178711	64875.824219
479.932617	65499.539063
478.686523	65227.746094
477.440430	65427.980469
476.194336	65721.718750
474.948242	65863.296875
473.701172	65743.648438
472.454102	65935.828125
471.207031	66351.976563
469.958984	66524.484375
468.711914	66517.742188
467.463867	65872.343750
466.215820	66712.578125
464.966797	66886.812500
463.718750	67086.281250
462.469727	66879.023438
461.220703	67500.546875
459.970703	67880.656250
458.721680	67601.406250
457.471680	68020.234375
456.221680	68256.171875
454.970703	68655.273438
453.720703	68964.835938
452.469727	69048.921875
451.218750	69301.960938
449.966797	69653.937500
448.715820	69817.437500
447.463867	70652.562500
446.211914	71904.656250
444.959961	72469.320313
443.707031	72461.414063
442.454102	72884.148438
441.201172	72637.617188
439.948242	71939.367188
438.695313	71084.351563
437.441406	70179.250000
436.187500	69617.515625
434.933594	68453.398438
433.678711	68498.546875
432.424805	66893.460938
431.169922	67636.023438
429.914063	67234.046875
428.659180	67064.507813
427.403320	66866.000000
426.147461	66073.507813
424.891602	66387.945313
423.635742	65984.632813
422.378906	65979.859375
421.122070	65874.546875
419.865234	65989.648438
418.608398	65975.203125
417.350586	65761.718750
416.092773	65295.203125
414.834961	66258.343750
413.577148	65898.132813
412.318359	65677.085938
411.059570	65884.718750
409.800781	65737.109375
408.541992	65846.218750
407.282227	65733.390625
406.022461	65902.265625
404.762695	65878.187500
403.502930	65861.828125
402.242188	65978.515625
400.981445	65752.015625
