#Wave		#Intensity
2001.248047	45934.601563
2000.278320	45706.507813
1999.308594	45668.457031
1998.338867	45507.640625
1997.369141	45529.757813
1996.398438	45624.503906
1995.428711	46122.414063
1994.458008	45906.539063
1993.487305	45795.878906
1992.516602	45852.960938
1991.545898	45887.500000
1990.574219	45969.562500
1989.603516	45786.414063
1988.631836	45968.515625
1987.660156	45882.960938
1986.688477	45814.933594
1985.715820	46346.925781
1984.744141	45928.906250
1983.771484	46393.210938
1982.798828	46587.496094
1981.826172	46374.503906
1980.853516	46086.648438
1979.880859	46243.421875
1978.907227	46175.414063
1977.933594	46469.417969
1976.959961	46286.574219
1975.986328	46153.707031
1975.012695	46003.414063
1974.039063	46539.226563
1973.064453	46915.214844
1972.089844	46580.316406
1971.115234	46482.410156
1970.140625	46459.328125
1969.166016	46294.171875
1968.190430	46096.679688
1967.215820	46866.023438
1966.240234	46501.582031
1965.264648	46774.910156
1964.289063	46637.230469
1963.312500	46733.652344
1962.336914	46996.835938
1961.360352	46677.484375
1960.383789	47231.750000
1959.407227	46745.753906
1958.430664	46531.093750
1957.454102	47328.847656
1956.476563	46997.273438
1955.499023	47289.910156
1954.521484	47753.980469
1953.543945	47196.312500
1952.566406	47155.746094
1951.587891	47092.832031
1950.610352	47206.320313
1949.631836	47856.277344
1948.653320	47629.363281
1947.674805	46977.933594
1946.696289	47309.820313
1945.716797	47596.910156
1944.737305	47516.609375
1943.758789	47977.246094
1942.779297	47428.031250
1941.798828	47518.945313
1940.819336	47527.984375
1939.838867	47864.312500
1938.859375	47317.976563
1937.878906	47634.390625
1936.898438	47474.878906
1935.916992	47496.296875
1934.936523	47871.964844
1933.955078	47806.613281
1932.974609	47738.804688
1931.993164	47638.828125
1931.010742	47580.972656
1930.029297	47976.089844
1929.047852	47645.968750
1928.065430	48172.070313
1927.083008	48433.281250
1926.100586	48422.324219
1925.118164	48371.796875
1924.135742	48435.023438
1923.152344	48500.703125
1922.168945	48311.769531
1921.185547	48533.128906
1920.202148	48507.328125
1919.218750	48609.992188
1918.235352	48211.218750
1917.250977	48810.269531
1916.266602	48725.171875
1915.282227	48588.261719
1914.297852	48727.835938
1913.313477	48470.046875
1912.328125	49078.386719
1911.343750	48578.863281
1910.358398	48836.726563
1909.373047	48879.949219
1908.387695	48718.507813
1907.401367	48939.226563
1906.416016	48716.210938
1905.429688	49343.464844
1904.443359	49066.242188
1903.457031	48983.734375
1902.470703	49083.515625
1901.483398	49318.703125
1900.497070	49302.664063
1899.509766	48946.906250
1898.522461	49381.355469
1897.535156	49394.835938
1896.546875	49258.226563
1895.559570	49151.183594
1894.571289	49031.875000
1893.583008	49355.253906
1892.594727	49427.730469
1891.606445	49632.925781
1890.618164	49690.578125
1889.628906	49310.781250
1888.639648	49540.457031
1887.650391	49396.648438
1886.661133	50311.480469
1885.671875	49489.808594
1884.682617	49986.906250
1883.692383	50137.695313
1882.702148	50003.714844
1881.711914	49874.687500
1880.721680	49770.242188
1879.731445	50502.343750
1878.740234	50466.492188
1877.749023	49989.246094
1876.757813	50164.355469
1875.766602	50435.000000
1874.775391	50698.199219
1873.784180	50431.984375
1872.791992	50445.175781
1871.799805	50718.023438
1870.807617	50263.351563
1869.815430	50609.597656
1868.823242	50385.246094
1867.830078	50846.398438
1866.837891	50683.269531
1865.844727	50855.445313
1864.851563	50560.250000
1863.858398	50832.679688
1862.864258	51290.890625
1861.871094	51374.796875
1860.876953	51348.652344
1859.882813	51491.183594
1858.888672	51252.386719
1857.894531	51184.730469
1856.899414	51117.093750
1855.905273	51574.675781
1854.910156	51621.781250
1853.915039	51187.808594
1852.919922	51642.691406
1851.923828	51484.703125
1850.928711	51661.136719
1849.932617	51725.253906
1848.936523	51823.507813
1847.940430	51789.996094
1846.944336	51917.464844
1845.947266	52035.132813
1844.951172	52372.187500
1843.954102	52107.019531
1842.957031	52217.273438
1841.959961	52749.050781
1840.962891	52620.386719
1839.964844	52844.976563
1838.966797	52655.449219
1837.969727	52940.824219
1836.970703	52994.804688
1835.972656	53107.187500
1834.974609	53307.144531
1833.975586	53137.160156
1832.976563	53351.632813
1831.978516	53369.000000
1830.978516	53636.859375
1829.979492	53513.128906
1828.980469	53396.730469
1827.980469	54002.316406
1826.980469	53907.746094
1825.980469	54330.777344
1824.980469	53794.007813
1823.979492	53830.683594
1822.979492	54161.214844
1821.978516	54064.257813
1820.977539	54074.156250
1819.976563	54494.273438
1818.975586	54356.046875
1817.973633	54251.835938
1816.972656	54543.109375
1815.970703	54860.960938
1814.968750	54914.351563
1813.966797	54776.160156
1812.963867	54698.625000
1811.961914	55399.199219
1810.958984	54778.710938
1809.956055	55086.480469
1808.953125	55137.335938
1807.950195	55224.507813
1806.946289	55364.921875
1805.943359	55396.324219
1804.939453	55577.816406
1803.935547	56165.886719
1802.930664	55867.992188
1801.926758	55550.839844
1800.922852	56090.214844
1799.917969	56310.109375
1798.913086	56438.027344
1797.908203	56007.347656
1796.903320	56870.203125
1795.897461	56836.000000
1794.891602	56241.136719
1793.886719	56141.812500
1792.880859	56912.226563
1791.874023	56687.210938
1790.868164	57034.628906
1789.862305	56766.207031
1788.855469	57038.644531
1787.848633	56982.718750
1786.841797	57691.820313
1785.833984	57408.988281
1784.827148	57268.585938
1783.819336	57844.593750
1782.812500	58099.656250
1781.804688	57843.464844
1780.795898	57862.183594
1779.788086	57917.046875
1778.779297	58362.289063
1777.771484	57792.992188
1776.762695	58736.761719
1775.753906	58220.585938
1774.744141	58251.242188
1773.735352	58414.316406
1772.725586	58673.621094
1771.715820	58521.250000
1770.706055	58626.425781
1769.696289	58940.886719
1768.686523	58394.023438
1767.675781	59259.199219
1766.666016	58659.562500
1765.655273	58836.738281
1764.644531	59102.796875
1763.632813	59361.542969
1762.622070	59346.250000
1761.610352	59395.832031
1760.598633	59618.351563
1759.586914	59353.222656
1758.575195	59693.335938
1757.563477	60002.113281
1756.550781	59842.675781
1755.538086	60247.316406
1754.525391	59619.949219
1753.512695	60461.144531
1752.500000	60400.082031
1751.486328	60257.492188
1750.473633	60692.863281
1749.459961	60252.968750
1748.446289	60482.027344
1747.432617	60936.292969
1746.417969	61014.179688
1745.404297	60529.011719
1744.389648	60923.136719
1743.375000	61137.492188
1742.360352	61337.402344
1741.344727	61271.488281
1740.330078	62086.488281
1739.314453	62173.632813
1738.298828	62081.277344
1737.283203	62828.707031
1736.267578	62451.605469
1735.251953	63091.078125
1734.235352	63529.460938
1733.218750	63795.550781
1732.202148	64341.214844
1731.185547	63890.078125
1730.168945	64363.843750
1729.151367	65090.679688
1728.133789	65064.824219
1727.117188	65958.453125
1726.098633	65860.812500
1725.081055	66460.328125
1724.063477	66837.640625
1723.044922	67291.179688
1722.026367	67780.359375
1721.007813	67956.828125
1719.989258	68192.859375
1718.970703	68331.031250
1717.951172	68783.898438
1716.931641	69074.484375
1715.912109	69241.023438
1714.892578	69600.531250
1713.873047	70026.625000
1712.853516	69580.640625
1711.833008	69827.937500
1710.812500	70460.953125
1709.791992	70146.078125
1708.771484	70005.093750
1707.750000	70466.351563
1706.729492	70408.648438
1705.708008	70379.515625
1704.686523	70122.015625
1703.665039	70207.101563
1702.642578	69909.289063
1701.621094	70427.125000
1700.598633	70281.507813
1699.576172	69976.703125
1698.553711	69814.578125
1697.531250	70386.703125
1696.507813	70262.570313
1695.485352	70449.625000
1694.461914	70242.406250
1693.438477	70016.265625
1692.415039	70699.398438
1691.390625	70532.585938
1690.367188	70282.773438
1689.342773	70747.203125
1688.318359	70523.531250
1687.293945	70529.992188
1686.269531	70681.109375
1685.244141	71171.210938
1684.218750	70665.515625
1683.194336	71309.500000
1682.168945	70976.937500
1681.142578	71006.992188
1680.117188	71003.867188
1679.090820	71126.273438
1678.064453	71961.398438
1677.038086	71932.054688
1676.011719	71535.804688
1674.985352	71374.000000
1673.958008	71694.984375
1672.931641	71767.429688
1671.904297	71085.257813
1670.876953	71228.734375
1669.848633	71469.109375
1668.821289	72021.468750
1667.792969	71174.257813
1666.764648	72655.281250
1665.736328	71869.687500
1664.708008	71897.085938
1663.679688	72146.515625
1662.650391	72232.890625
1661.621094	72290.906250
1660.591797	72556.648438
1659.562500	72423.375000
1658.533203	72613.476563
1657.502930	72652.484375
1656.472656	73153.882813
1655.442383	73051.250000
1654.412109	72849.601563
1653.381836	73129.046875
1652.351563	72635.117188
1651.320313	73581.546875
1650.289063	73526.046875
1649.257813	73788.664063
1648.226563	73584.726563
1647.194336	73896.695313
1646.163086	73954.210938
1645.130859	74103.531250
1644.098633	74396.398438
1643.066406	74216.054688
1642.033203	74433.492188
1641.000977	74288.492188
1639.967773	74258.812500
1638.934570	74003.343750
1637.901367	74225.351563
1636.868164	74884.609375
1635.833984	75000.585938
1634.800781	74552.421875
1633.766602	75251.203125
1632.732422	75143.835938
1631.697266	75189.195313
1630.663086	75680.796875
1629.627930	75751.875000
1628.593750	76104.671875
1627.558594	76316.484375
1626.522461	76516.492188
1625.487305	76223.625000
1624.451172	77125.085938
1623.416016	77587.562500
1622.379883	77977.156250
1621.343750	79093.554688
1620.306641	79808.632813
1619.270508	80952.429688
1618.233398	81099.742188
1617.196289	82156.195313
1616.159180	84371.992188
1615.122070	85720.289063
1614.083984	87330.406250
1613.046875	88773.695313
1612.008789	90097.062500
1610.970703	90848.804688
1609.932617	91656.437500
1608.893555	91057.468750
1607.855469	90510.171875
1606.816406	89366.585938
1605.777344	87802.437500
1604.738281	86776.648438
1603.698242	84958.687500
1602.659180	84483.070313
1601.619141	83556.562500
1600.579102	82338.312500
1599.539063	81576.054688
1598.499023	80089.960938
1597.458008	79559.570313
1596.417969	79561.734375
1595.376953	79064.304688
1594.335938	78359.304688
1593.294922	78539.039063
1592.252930	78443.375000
1591.210938	78077.125000
1590.169922	77265.500000
1589.127930	77750.781250
1588.084961	77431.476563
1587.042969	77876.921875
1586.000000	77904.992188
1584.958008	77940.039063
1583.915039	77902.835938
1582.872070	78364.179688
1581.828125	78543.523438
1580.785156	79046.492188
1579.741211	79148.804688
1578.697266	80009.976563
1577.653320	80389.054688
1576.609375	80928.554688
1575.564453	81009.507813
1574.520508	81471.937500
1573.475586	81645.789063
1572.430664	81368.453125
1571.384766	81600.382813
1570.339844	81978.671875
1569.293945	81564.289063
1568.249023	81289.468750
1567.202148	81156.468750
1566.156250	80138.484375
1565.110352	79076.726563
1564.063477	78212.726563
1563.017578	77599.765625
1561.970703	77402.531250
1560.922852	76209.726563
1559.875977	76277.335938
1558.829102	75918.031250
1557.781250	75746.742188
1556.733398	75679.867188
1555.685547	75402.015625
1554.636719	75089.476563
1553.588867	74503.531250
1552.540039	74617.687500
1551.491211	74076.054688
1550.442383	73719.953125
1549.393555	73678.984375
1548.344727	73235.070313
1547.294922	73226.617188
1546.245117	72877.851563
1545.195313	72876.398438
1544.145508	72701.382813
1543.094727	72276.531250
1542.044922	72006.828125
1540.994141	72558.328125
1539.943359	71823.835938
1538.892578	72056.085938
1537.840820	71615.531250
1536.790039	71029.523438
1535.738281	71053.796875
1534.686523	70666.789063
1533.634766	70677.257813
1532.583008	70482.156250
1531.530273	70862.125000
1530.477539	70609.335938
1529.424805	70624.406250
1528.372070	69933.218750
1527.319336	70229.929688
1526.265625	70088.164063
1525.212891	70779.203125
1524.159180	70097.687500
1523.105469	70200.445313
1522.051758	69634.554688
1520.997070	69200.257813
1519.942383	69153.304688
1518.888672	69134.015625
1517.833984	69354.343750
1516.778320	69480.140625
1515.723633	68822.843750
1514.667969	68647.039063
1513.612305	68252.578125
1512.556641	68228.851563
1511.500977	68543.445313
1510.445313	68434.531250
1509.388672	68107.093750
1508.332031	68122.507813
1507.275391	68193.101563
1506.218750	68010.734375
1505.162109	67777.859375
1504.104492	68184.054688
1503.047852	68330.421875
1501.990234	68410.093750
1500.931641	68138.242188
1499.874023	68491.242188
1498.816406	68359.562500
1497.757813	67947.796875
1496.699219	68392.460938
1495.640625	67535.554688
1494.582031	67729.992188
1493.522461	67995.484375
1492.462891	67696.546875
1491.403320	67677.539063
1490.343750	67433.796875
1489.284180	67637.234375
1488.224609	67010.757813
1487.164063	67019.375000
1486.103516	67261.718750
1485.042969	67061.789063
1483.982422	67345.273438
1482.920898	67295.062500
1481.860352	67244.906250
1480.798828	67194.695313
1479.737305	67144.492188
1478.675781	67094.281250
1477.613281	67044.031250
1476.550781	67331.718750
1475.489258	67056.585938
1474.426758	66486.523438
1473.363281	66588.929688
1472.300781	66787.320313
1471.237305	67312.507813
1470.174805	66779.359375
1469.111328	67455.164063
1468.046875	67536.726563
1466.983398	67590.851563
1465.919922	67334.359375
1464.855469	66945.523438
1463.791016	67344.445313
1462.726563	67647.343750
1461.661133	68043.703125
1460.596680	67700.648438
1459.531250	68108.250000
1458.465820	67635.289063
1457.400391	67908.203125
1456.334961	67487.882813
1455.268555	68307.843750
1454.202148	67538.867188
1453.135742	67971.117188
1452.069336	68191.312500
1451.002930	68400.039063
1449.935547	68182.765625
1448.869141	68161.414063
1447.801758	68636.406250
1446.734375	68831.234375
1445.666016	68973.632813
1444.598633	69746.320313
1443.530273	69706.484375
1442.461914	70105.695313
1441.393555	70120.390625
1440.325195	71008.273438
1439.256836	71100.101563
1438.187500	71030.492188
1437.118164	71251.820313
1436.048828	71588.953125
1434.979492	71846.437500
1433.909180	72446.828125
1432.839844	72324.796875
1431.769531	72779.554688
1430.699219	72702.906250
1429.627930	73329.937500
1428.557617	73811.492188
1427.486328	73816.375000
1426.416016	74181.960938
1425.343750	73853.343750
1424.272461	73518.031250
1423.201172	74064.859375
1422.128906	73963.125000
1421.056641	73439.843750
1419.984375	74043.039063
1418.912109	73510.851563
1417.839844	73837.437500
1416.766602	73978.171875
1415.693359	73688.585938
1414.620117	73476.085938
1413.546875	73304.406250
1412.473633	73114.671875
1411.399414	72904.648438
1410.325195	72778.398438
1409.250977	72371.695313
1408.176758	72808.750000
1407.102539	73247.906250
1406.027344	72726.023438
1404.952148	73583.218750
1403.876953	73863.781250
1402.801758	73669.710938
1401.726563	74474.296875
1400.650391	73909.734375
1399.574219	73505.710938
1398.498047	73837.960938
1397.421875	73589.867188
1396.345703	73371.210938
1395.268555	73294.804688
1394.191406	73313.195313
1393.114258	73214.257813
1392.037109	72842.429688
1390.959961	73336.726563
1389.881836	72703.453125
1388.804688	73123.195313
1387.726563	73687.039063
1386.647461	73808.976563
1385.569336	73791.171875
1384.491211	74253.210938
1383.412109	74478.578125
1382.333008	74663.328125
1381.253906	75462.679688
1380.173828	75226.210938
1379.094727	75611.031250
1378.014648	75005.570313
1376.934570	75552.281250
1375.854492	74985.281250
1374.773438	74596.156250
1373.693359	74339.851563
1372.612305	74205.039063
1371.531250	73499.304688
1370.450195	72587.062500
1369.369141	72627.898438
1368.287109	72781.054688
1367.205078	71932.320313
1366.123047	72361.781250
1365.041016	71901.882813
1363.958984	71446.632813
1362.875977	71045.421875
1361.793945	70924.882813
1360.710938	71057.937500
1359.626953	70751.226563
1358.543945	71034.539063
1357.460938	70496.945313
1356.376953	70067.171875
1355.292969	70240.593750
1354.208984	69539.804688
1353.124023	69984.421875
1352.040039	69411.640625
1350.955078	69085.476563
1349.870117	69236.515625
1348.785156	68845.554688
1347.700195	69433.179688
1346.614258	69622.109375
1345.528320	68949.281250
1344.442383	68569.835938
1343.356445	68564.164063
1342.270508	69222.875000
1341.183594	68825.679688
1340.096680	68491.242188
1339.009766	68937.203125
1337.922852	68864.398438
1336.835938	68583.765625
1335.748047	69313.242188
1334.661133	68992.406250
1333.573242	68982.179688
1332.484375	68918.343750
1331.396484	69236.367188
1330.307617	69382.367188
1329.219727	69403.304688
1328.130859	68859.617188
1327.041992	69346.984375
1325.952148	69144.820313
1324.863281	68893.664063
1323.773438	68613.593750
1322.683594	69350.367188
1321.593750	68452.804688
1320.502930	68986.507813
1319.413086	68379.023438
1318.322266	68881.351563
1317.231445	68267.421875
1316.140625	68437.710938
1315.048828	68313.992188
1313.958008	68103.476563
1312.866211	68411.718750
1311.774414	69245.093750
1310.682617	68698.507813
1309.589844	68463.593750
1308.498047	68798.218750
1307.405273	69232.812500
1306.312500	68895.632813
1305.218750	69614.617188
1304.125977	69290.820313
1303.032227	69418.296875
1301.939453	70321.218750
1300.845703	70088.546875
1299.750977	70671.156250
1298.657227	70696.117188
1297.562500	71820.187500
1296.467773	72646.359375
1295.373047	72850.734375
1294.278320	72833.109375
1293.183594	73041.804688
1292.087891	72604.859375
1290.992188	73090.765625
1289.896484	72359.023438
1288.800781	72066.546875
1287.704102	71643.382813
1286.608398	71160.523438
1285.511719	70442.937500
1284.415039	70168.734375
1283.317383	70242.414063
1282.220703	70021.500000
1281.123047	69541.570313
1280.025391	68860.335938
1278.927734	68307.742188
1277.830078	69072.203125
1276.731445	68530.820313
1275.633789	67836.976563
1274.535156	67528.273438
1273.436523	67286.031250
1272.336914	66729.875000
1271.238281	66432.585938
1270.138672	66749.890625
1269.039063	66302.421875
1267.939453	66113.632813
1266.839844	66346.867188
1265.739258	65563.968750
1264.638672	65353.320313
1263.538086	64860.125000
1262.437500	65066.914063
1261.336914	64434.890625
1260.235352	64661.539063
1259.134766	64201.910156
1258.033203	64119.671875
1256.930664	63794.847656
1255.829102	63604.652344
1254.726563	63496.101563
1253.625000	63107.628906
1252.522461	63525.957031
1251.418945	62893.015625
1250.316406	62531.292969
1249.212891	62581.625000
1248.110352	62739.851563
1247.006836	62235.214844
1245.902344	62281.164063
1244.798828	62456.960938
1243.694336	62053.878906
1242.589844	61754.359375
1241.485352	61822.351563
1240.380859	61815.523438
1239.276367	61810.898438
1238.170898	61542.414063
1237.065430	61522.445313
1235.959961	61016.722656
1234.854492	61262.761719
1233.748047	61379.070313
1232.642578	61348.152344
1231.536133	61453.417969
1230.429688	61330.257813
1229.322266	60741.671875
1228.215820	61000.648438
1227.108398	61099.304688
1226.000977	61044.316406
1224.893555	61331.609375
1223.786133	61364.335938
1222.677734	61717.261719
1221.569336	61436.328125
1220.460938	61021.753906
1219.352539	61324.125000
1218.244141	61339.277344
1217.134766	61087.089844
1216.025391	61016.832031
1214.916016	60944.406250
1213.806641	60955.226563
1212.697266	60950.714844
1211.586914	60063.937500
1210.476563	60569.578125
1209.366211	60567.320313
1208.255859	60357.191406
1207.145508	60814.371094
1206.034180	60602.082031
1204.922852	61398.007813
1203.811523	60805.242188
1202.700195	61198.601563
1201.587891	61390.734375
1200.476563	61045.218750
1199.364258	61197.976563
1198.251953	61073.250000
1197.138672	61365.718750
1196.026367	61673.367188
1194.913086	62157.746094
1193.799805	61960.890625
1192.686523	62196.234375
1191.573242	62265.648438
1190.458984	62570.656250
1189.344727	61931.058594
1188.230469	62377.769531
1187.116211	62342.425781
1186.001953	62176.289063
1184.886719	62424.351563
1183.772461	61883.414063
1182.657227	62593.359375
1181.541016	61985.050781
1180.425781	62143.652344
1179.309570	61777.367188
1178.193359	61661.605469
1177.077148	61835.410156
1175.960938	61066.714844
1174.844727	60803.160156
1173.727539	60356.933594
1172.610352	60271.976563
1171.493164	60454.562500
1170.375977	60341.343750
1169.257813	60345.566406
1168.139648	60188.925781
1167.022461	60395.292969
1165.903320	59801.929688
1164.785156	59858.378906
1163.666992	59482.542969
1162.547852	59497.761719
1161.428711	59237.207031
1160.309570	59556.394531
1159.189453	59562.902344
1158.070313	59788.589844
1156.950195	59803.722656
1155.830078	59439.207031
1154.709961	59742.871094
1153.588867	59094.406250
1152.468750	59244.074219
1151.347656	59525.921875
1150.226563	59421.863281
1149.104492	59202.992188
1147.983398	59330.855469
1146.861328	59603.804688
1145.739258	59458.648438
1144.617188	59792.101563
1143.495117	59867.792969
1142.372070	60582.023438
1141.250000	59995.277344
1140.126953	60163.925781
1139.003906	61189.246094
1137.879883	60555.113281
1136.756836	60652.191406
1135.632813	60360.023438
1134.508789	60852.722656
1133.384766	60471.996094
1132.259766	60268.617188
1131.135742	60246.808594
1130.010742	60289.812500
1128.885742	60658.949219
1127.759766	59915.792969
1126.634766	60308.605469
1125.508789	60193.968750
1124.382813	60122.542969
1123.256836	59686.445313
1122.130859	60055.269531
1121.003906	59888.980469
1119.877930	59582.562500
1118.750977	59297.816406
1117.624023	59539.230469
1116.496094	59399.015625
1115.369141	59252.382813
1114.241211	59051.933594
1113.113281	58985.125000
1111.985352	59174.667969
1110.856445	58472.542969
1109.728516	59351.128906
1108.599609	58819.296875
1107.470703	58681.550781
1106.340820	58761.207031
1105.211914	59202.304688
1104.082031	59083.917969
1102.952148	59092.468750
1101.822266	58617.164063
1100.692383	59333.164063
1099.561523	58905.277344
1098.431641	59102.980469
1097.300781	58703.222656
1096.169922	59064.171875
1095.038086	58819.222656
1093.907227	58774.097656
1092.775391	58930.832031
1091.643555	58460.609375
1090.511719	58529.332031
1089.378906	58132.316406
1088.246094	58776.128906
1087.114258	57975.882813
1085.980469	57909.503906
1084.847656	58347.117188
1083.714844	58156.324219
1082.581055	58068.503906
1081.447266	57871.398438
1080.313477	58413.691406
1079.179688	57595.238281
1078.044922	57970.289063
1076.910156	57668.386719
1075.775391	57659.964844
1074.640625	58244.613281
1073.505859	57968.503906
1072.370117	58206.156250
1071.234375	57887.355469
1070.098633	58257.574219
1068.962891	57936.734375
1067.826172	58161.375000
1066.690430	58482.152344
1065.553711	58229.855469
1064.416992	58901.050781
1063.279297	58518.398438
1062.142578	58870.914063
1061.004883	58785.355469
1059.867188	59109.921875
1058.729492	58447.746094
1057.590820	58721.007813
1056.453125	58626.984375
1055.314453	58539.402344
1054.175781	58195.765625
1053.037109	58541.406250
1051.897461	58690.660156
1050.757813	58253.335938
1049.618164	58748.035156
1048.478516	58669.039063
1047.338867	59022.785156
1046.199219	59050.324219
1045.058594	58751.824219
1043.917969	58926.398438
1042.777344	58939.019531
1041.635742	58657.734375
1040.495117	58783.250000
1039.353516	59017.285156
1038.211914	58510.515625
1037.069336	58578.515625
1035.927734	58676.281250
1034.785156	59082.468750
1033.642578	58882.328125
1032.500000	58890.656250
1031.357422	58981.902344
1030.213867	58703.226563
1029.071289	58605.308594
1027.927734	59072.675781
1026.783203	58919.480469
1025.639648	59010.621094
1024.495117	59318.359375
1023.351563	58908.261719
1022.207031	59043.933594
1021.061523	59151.957031
1019.916992	58850.343750
1018.771484	59414.558594
1017.625977	58661.125000
1016.480469	59416.062500
1015.334961	59133.699219
1014.188477	58459.175781
1013.041992	59020.812500
1011.895508	59260.074219
1010.749023	58965.218750
1009.602539	58986.164063
1008.455078	58814.324219
1007.307617	58780.218750
1006.160156	58837.175781
1005.012695	59374.714844
1003.864258	59842.199219
1002.716797	59958.183594
1001.568359	60118.558594
1000.419922	60591.988281
999.270508	60845.253906
998.122070	61106.878906
996.972656	61241.542969
995.823242	61037.898438
994.673828	60650.433594
993.523438	60643.503906
992.373047	60786.593750
991.222656	60737.386719
990.072266	60648.062500
988.921875	60725.597656
987.771484	60513.843750
986.620117	60528.042969
985.468750	60531.679688
984.317383	60729.449219
983.165039	60446.109375
982.013672	59928.722656
980.861328	60438.625000
979.708984	60421.171875
978.555664	60473.296875
977.403320	60495.890625
976.250000	61102.246094
975.096680	60132.269531
973.943359	60527.792969
972.790039	59907.921875
971.635742	60037.988281
970.481445	59740.578125
969.327148	60171.656250
968.172852	60150.050781
967.018555	60067.421875
965.863281	59301.027344
964.708008	59458.390625
963.552734	59556.804688
962.397461	59318.726563
961.241211	59301.488281
960.084961	59534.402344
958.929688	59416.246094
957.772461	59487.246094
956.616211	59497.292969
955.458984	59452.718750
954.301758	59322.054688
953.144531	58983.562500
951.987305	59254.000000
950.830078	58871.562500
949.671875	59165.003906
948.513672	58784.812500
947.355469	58685.867188
946.196289	58354.140625
945.038086	58538.406250
943.878906	58665.988281
942.719727	58330.250000
941.560547	58640.160156
940.400391	58616.769531
939.241211	58830.132813
938.081055	58699.882813
936.919922	58492.187500
935.759766	58715.914063
934.599609	58569.000000
933.438477	58593.777344
932.277344	58474.140625
931.116211	58283.406250
929.954102	58776.820313
928.791992	59096.449219
927.630859	58851.324219
926.467773	58445.292969
925.305664	58279.808594
924.143555	58687.066406
922.980469	58692.949219
921.817383	58774.039063
920.654297	58683.808594
919.490234	58806.640625
918.327148	58881.394531
917.163086	59233.789063
915.999023	59442.023438
914.833984	59387.218750
913.669922	59651.679688
912.504883	59590.593750
911.339844	59852.828125
910.174805	60461.148438
909.008789	60652.226563
907.843750	60505.515625
906.677734	61107.117188
905.511719	60368.542969
904.345703	60772.007813
903.178711	60125.421875
902.011719	60474.625000
900.844727	59899.125000
899.677734	59721.496094
898.510742	59629.273438
897.342773	59376.832031
896.174805	59172.335938
895.006836	59294.542969
893.838867	58888.371094
892.670898	59006.421875
891.501953	59037.093750
890.333008	58949.257813
889.164063	59256.367188
887.994141	58707.171875
886.825195	58746.179688
885.655273	58450.714844
884.485352	58830.371094
883.315430	58861.019531
882.144531	59215.542969
880.973633	58733.375000
879.803711	58631.187500
878.631836	58838.218750
877.460938	58953.886719
876.289063	59708.386719
875.118164	59207.894531
873.945313	59371.109375
872.773438	59496.949219
871.601563	59560.554688
870.428711	59443.835938
869.255859	59289.863281
868.083008	59541.980469
866.910156	59640.730469
865.736328	59372.902344
864.562500	59840.179688
863.388672	60427.347656
862.214844	60056.031250
861.040039	60688.460938
859.866211	60780.664063
858.691406	60496.359375
857.516602	60594.761719
856.340820	60726.214844
855.166016	60578.515625
853.990234	60242.769531
852.814453	60326.671875
851.637695	59664.628906
850.461914	59775.457031
849.285156	60001.906250
848.108398	60023.828125
846.931641	60051.929688
845.754883	60750.925781
844.577148	60364.027344
843.399414	60625.226563
842.221680	61072.007813
841.043945	61570.195313
839.865234	62559.046875
838.687500	62926.859375
837.508789	63230.621094
836.329102	63678.554688
835.150391	63967.632813
833.970703	63813.593750
832.791992	63369.132813
831.611328	63184.359375
830.431641	62441.566406
829.251953	62475.277344
828.071289	61175.011719
826.890625	60521.500000
825.709961	60794.250000
824.528320	59599.937500
823.347656	59625.906250
822.166016	59248.750000
820.984375	58988.941406
819.801758	58544.191406
818.620117	58613.492188
817.437500	58203.910156
816.254883	58139.679688
815.072266	57826.890625
813.888672	58251.601563
812.706055	57908.097656
811.522461	57636.582031
810.338867	57434.960938
809.154297	57838.894531
807.970703	57635.253906
806.786133	57189.585938
805.601563	57045.625000
804.416992	57426.761719
803.231445	57102.351563
802.045898	57052.789063
800.861328	57177.476563
799.674805	56681.136719
798.489258	56861.164063
797.302734	56801.429688
796.117188	55895.769531
794.930664	56350.253906
793.743164	55535.101563
792.556641	55596.429688
791.369141	55741.648438
790.181641	55285.171875
788.994141	55371.054688
787.805664	55100.964844
786.618164	55334.105469
785.429688	55528.300781
784.241211	54824.894531
783.052734	54595.976563
781.863281	54342.621094
780.673828	54520.500000
779.484375	54348.964844
778.294922	54099.871094
777.105469	54144.945313
775.915039	54210.417969
774.724609	54145.214844
773.534180	54167.792969
772.343750	53998.542969
771.152344	53680.406250
769.960938	53721.414063
768.769531	53688.980469
767.578125	53886.980469
766.385742	53870.832031
765.194336	53795.578125
764.001953	54407.160156
762.808594	54128.058594
761.616211	54278.925781
760.422852	54258.632813
759.230469	54993.890625
758.037109	54753.566406
756.842773	54771.871094
755.649414	54731.140625
754.455078	54590.707031
753.260742	55268.234375
752.066406	54899.914063
750.871094	54883.585938
749.676758	54230.781250
748.481445	53866.917969
747.286133	54440.269531
746.089844	53995.203125
744.894531	53580.781250
743.698242	53938.511719
742.501953	53570.968750
741.304688	53453.347656
740.108398	53508.359375
738.911133	52838.609375
737.713867	52577.078125
736.516602	52538.867188
735.319336	52504.722656
734.121094	52720.101563
732.922852	52385.761719
731.724609	52442.910156
730.526367	52696.695313
729.327148	52202.402344
728.127930	52044.718750
726.928711	52288.296875
725.729492	51567.449219
724.530273	51642.902344
723.330078	51878.308594
722.129883	51716.769531
720.929688	51636.265625
719.728516	51786.527344
718.528320	51845.667969
717.327148	51550.710938
716.125977	51749.449219
714.923828	51757.992188
713.722656	51394.457031
712.520508	51229.187500
711.318359	51720.925781
710.116211	51159.535156
708.913086	51503.593750
707.710938	51976.812500
706.507813	51853.996094
705.304688	51521.191406
704.100586	51673.101563
702.897461	51080.035156
701.693359	51617.468750
700.489258	51882.273438
699.284180	51737.398438
698.080078	51503.824219
696.875000	51845.132813
695.669922	51855.609375
694.464844	51573.746094
693.258789	51773.742188
692.053711	52715.308594
690.847656	52632.917969
689.641602	52552.570313
688.434570	53092.628906
687.228516	52937.707031
686.021484	52951.972656
684.814453	52424.710938
683.607422	52386.730469
682.399414	52254.183594
681.191406	52415.429688
679.983398	52642.996094
678.775391	52281.187500
677.567383	52237.226563
676.358398	52460.667969
675.149414	52559.402344
673.940430	52642.015625
672.730469	52443.292969
671.521484	52158.253906
670.311523	52399.566406
669.101563	52056.402344
667.890625	51769.582031
666.680664	51637.441406
665.469727	51316.683594
664.258789	51268.949219
663.047852	51110.886719
661.835938	50854.589844
660.625000	51093.761719
659.413086	50558.835938
658.201172	50820.019531
656.988281	50267.304688
655.776367	50656.699219
654.563477	50494.933594
653.350586	50553.589844
652.136719	50207.628906
650.923828	49941.898438
649.709961	50465.125000
648.496094	50335.566406
647.282227	50520.277344
646.067383	50600.859375
644.852539	49971.167969
643.637695	50283.855469
642.422852	50066.437500
641.208008	50241.015625
639.992188	50177.625000
638.776367	50246.175781
637.560547	50120.847656
636.344727	50205.363281
635.127930	50479.625000
633.911133	50288.406250
632.694336	50652.406250
631.477539	50477.195313
630.259766	50192.257813
629.042969	50116.984375
627.825195	50055.703125
626.606445	49996.441406
625.388672	49757.671875
624.169922	49566.859375
622.951172	49792.847656
621.732422	50008.781250
620.513672	49634.644531
619.293945	49669.175781
618.074219	49859.101563
616.854492	49618.667969
615.634766	49398.234375
614.414063	49639.875000
613.193359	49755.988281
611.972656	49818.312500
610.751953	49962.207031
609.530273	49111.128906
608.309570	49410.277344
607.087891	49345.308594
605.866211	49449.402344
604.643555	49629.007813
603.420898	49649.511719
602.198242	49439.441406
600.975586	49956.769531
599.752930	48991.714844
598.529297	49707.578125
597.305664	49684.339844
596.082031	49800.109375
594.858398	49866.195313
593.633789	49362.570313
592.410156	49803.800781
591.185547	49181.316406
589.959961	49846.589844
588.735352	49710.277344
587.509766	50272.074219
586.284180	49762.976563
585.058594	50251.199219
583.832031	50330.945313
582.606445	50489.921875
581.379883	50549.777344
580.153320	50264.929688
578.925781	50358.468750
577.699219	50568.792969
576.471680	50551.367188
575.244141	50508.210938
574.015625	50417.574219
572.788086	50590.128906
571.559570	50465.875000
570.331055	50656.152344
569.101563	50314.398438
567.873047	50554.054688
566.643555	50113.605469
565.414063	50050.812500
564.184570	49932.714844
562.954102	49306.906250
561.724609	49030.964844
560.494141	49533.242188
559.263672	49113.214844
558.032227	48876.937500
556.800781	49130.257813
555.570313	48783.550781
554.337891	48728.984375
553.106445	48826.339844
551.874023	48765.863281
550.642578	48291.300781
549.409180	48422.191406
548.176758	48468.265625
546.944336	48124.097656
545.710938	47860.839844
544.477539	48326.621094
543.243164	48341.156250
542.009766	48074.062500
540.775391	47986.250000
539.541016	47845.312500
538.306641	47767.406250
537.071289	48427.484375
535.836914	47847.785156
534.601563	47701.066406
533.366211	47804.183594
532.129883	47854.167969
530.894531	47794.031250
529.658203	47840.062500
528.421875	47785.839844
527.184570	47871.148438
525.948242	47960.351563
524.710938	47896.312500
523.473633	47851.933594
522.235352	47901.812500
520.998047	47810.332031
519.759766	48229.179688
518.521484	48131.781250
517.283203	48260.039063
516.043945	48058.699219
514.804688	48953.753906
513.565430	48150.378906
512.326172	48409.878906
511.085938	48555.593750
509.846680	48230.914063
508.606445	48294.308594
507.366211	47944.332031
506.125000	48252.578125
504.883789	48253.261719
503.643555	47901.527344
502.401367	48285.945313
501.160156	48296.402344
499.917969	48449.695313
498.675781	48518.804688
497.433594	48128.214844
496.191406	48332.296875
494.948242	48063.117188
493.705078	48118.550781
492.461914	48263.875000
491.218750	48479.488281
489.975586	48272.996094
488.731445	48338.109375
487.487305	48254.761719
486.242188	48624.468750
484.998047	48545.000000
483.752930	48469.460938
482.507813	48614.476563
481.262695	48663.828125
480.016602	48564.890625
478.771484	49111.605469
477.525391	48895.609375
476.278320	48822.023438
475.032227	48990.191406
473.785156	48819.160156
472.538086	49263.968750
471.291016	49313.101563
470.043945	49346.632813
468.795898	49259.398438
467.547852	50060.109375
466.299805	49737.207031
465.051758	50019.765625
463.802734	50368.382813
462.553711	50378.312500
461.304688	50215.101563
460.055664	50621.824219
458.805664	50773.652344
457.555664	50966.246094
456.305664	51428.960938
455.055664	51640.789063
453.804688	51393.953125
452.553711	51483.308594
451.302734	52351.527344
450.051758	52304.718750
448.799805	52962.750000
447.548828	53383.691406
446.296875	54062.613281
445.043945	53951.468750
443.791992	54240.042969
442.539063	54480.011719
441.286133	54221.445313
440.033203	53802.027344
438.779297	53617.351563
437.526367	52467.441406
436.272461	51909.054688
435.017578	51777.148438
433.763672	50841.332031
432.508789	50996.335938
431.253906	50293.398438
429.999023	50187.062500
428.744141	49534.871094
427.488281	49782.894531
426.232422	49529.640625
424.976563	49421.585938
423.720703	49607.585938
422.463867	49164.976563
421.207031	49128.585938
419.950195	49244.929688
418.693359	49065.503906
417.435547	49351.871094
416.177734	49209.195313
414.919922	49112.933594
413.662109	48939.453125
412.403320	49366.582031
411.144531	49206.625000
409.885742	48940.566406
408.626953	49251.648438
407.367188	48825.519531
406.107422	49086.343750
404.847656	48947.800781
403.587891	48984.792969
402.327148	48906.085938
401.067383	49039.457031
