#Wave		#Intensity
2001.248047	35863.378906
2000.278320	35700.453125
1999.308594	35791.960938
1998.338867	35966.121094
1997.369141	35917.250000
1996.398438	35933.523438
1995.428711	36007.390625
1994.458008	35855.875000
1993.487305	36155.039063
1992.516602	36238.832031
1991.545898	36525.308594
1990.574219	35675.703125
1989.603516	36072.250000
1988.631836	35663.242188
1987.660156	35862.082031
1986.688477	36568.433594
1985.715820	36087.054688
1984.744141	36193.226563
1983.771484	36361.839844
1982.798828	35993.183594
1981.826172	35946.921875
1980.853516	36255.363281
1979.880859	36283.992188
1978.907227	36162.792969
1977.933594	36226.375000
1976.959961	36185.101563
1975.986328	36221.199219
1975.012695	36154.988281
1974.039063	36113.742188
1973.064453	36182.257813
1972.089844	36278.179688
1971.115234	36536.140625
1970.140625	36435.019531
1969.166016	36528.355469
1968.190430	35988.652344
1967.215820	36405.949219
1966.240234	36083.195313
1965.264648	36557.609375
1964.289063	36486.468750
1963.312500	36490.046875
1962.336914	36954.179688
1961.360352	36701.300781
1960.383789	36565.472656
1959.407227	36840.242188
1958.430664	36303.906250
1957.454102	36566.187500
1956.476563	36942.769531
1955.499023	36851.765625
1954.521484	36745.878906
1953.543945	37127.203125
1952.566406	36616.218750
1951.587891	36627.207031
1950.610352	37023.250000
1949.631836	36691.386719
1948.653320	36747.050781
1947.674805	36594.125000
1946.696289	36903.000000
1945.716797	36474.582031
1944.737305	36550.093750
1943.758789	36779.414063
1942.779297	36961.515625
1941.798828	36850.871094
1940.819336	36747.699219
1939.838867	36847.882813
1938.859375	36710.042969
1937.878906	36629.253906
1936.898438	36848.355469
1935.916992	36710.582031
1934.936523	37162.460938
1933.955078	36861.199219
1932.974609	36929.039063
1931.993164	37088.464844
1931.010742	37163.660156
1930.029297	37072.996094
1929.047852	36722.511719
1928.065430	37082.277344
1927.083008	37389.960938
1926.100586	36826.886719
1925.118164	36949.031250
1924.135742	37397.507813
1923.152344	37099.242188
1922.168945	37001.289063
1921.185547	37138.136719
1920.202148	37146.453125
1919.218750	37013.953125
1918.235352	37042.042969
1917.250977	37218.296875
1916.266602	37184.609375
1915.282227	37501.488281
1914.297852	37388.777344
1913.313477	37377.289063
1912.328125	37328.789063
1911.343750	37729.289063
1910.358398	37471.089844
1909.373047	37521.238281
1908.387695	37391.375000
1907.401367	37301.000000
1906.416016	37521.218750
1905.429688	37603.351563
1904.443359	37249.347656
1903.457031	37595.089844
1902.470703	37445.636719
1901.483398	37313.476563
1900.497070	37282.308594
1899.509766	37529.324219
1898.522461	37658.113281
1897.535156	37673.652344
1896.546875	37396.394531
1895.559570	37156.128906
1894.571289	37872.726563
1893.583008	37925.101563
1892.594727	37490.625000
1891.606445	37796.250000
1890.618164	37900.218750
1889.628906	37704.343750
1888.639648	38235.804688
1887.650391	37823.761719
1886.661133	37939.925781
1885.671875	37672.960938
1884.682617	37740.003906
1883.692383	37750.562500
1882.702148	38065.460938
1881.711914	37999.878906
1880.721680	38130.605469
1879.731445	37930.113281
1878.740234	37974.957031
1877.749023	37960.929688
1876.757813	37726.242188
1875.766602	38386.394531
1874.775391	38313.476563
1873.784180	38189.117188
1872.791992	37920.250000
1871.799805	37573.082031
1870.807617	38146.949219
1869.815430	37667.625000
1868.823242	37780.976563
1867.830078	38344.710938
1866.837891	38301.257813
1865.844727	38524.554688
1864.851563	38390.558594
1863.858398	38740.957031
1862.864258	37973.503906
1861.871094	38918.078125
1860.876953	38559.164063
1859.882813	38173.488281
1858.888672	38281.648438
1857.894531	38465.523438
1856.899414	38644.445313
1855.905273	38322.527344
1854.910156	38215.652344
1853.915039	38521.500000
1852.919922	38866.300781
1851.923828	38761.820313
1850.928711	38615.886719
1849.932617	38491.964844
1848.936523	38880.441406
1847.940430	38863.843750
1846.944336	38847.250000
1845.947266	38918.449219
1844.951172	38767.753906
1843.954102	38734.117188
1842.957031	39017.332031
1841.959961	39117.683594
1840.962891	39132.726563
1839.964844	39150.199219
1838.966797	38946.035156
1837.969727	39146.160156
1836.970703	39083.273438
1835.972656	39285.738281
1834.974609	39604.949219
1833.975586	39726.945313
1832.976563	39496.121094
1831.978516	39357.812500
1830.978516	39501.671875
1829.979492	39623.593750
1828.980469	39930.242188
1827.980469	39629.085938
1826.980469	39848.128906
1825.980469	39843.542969
1824.980469	39469.671875
1823.979492	39829.507813
1822.979492	40084.789063
1821.978516	39808.195313
1820.977539	39716.210938
1819.976563	39434.921875
1818.975586	39957.042969
1817.973633	39971.843750
1816.972656	40088.531250
1815.970703	39824.347656
1814.968750	40122.910156
1813.966797	40045.519531
1812.963867	40101.496094
1811.961914	39885.968750
1810.958984	40019.503906
1809.956055	40293.527344
1808.953125	40284.003906
1807.950195	40301.125000
1806.946289	40436.906250
1805.943359	39957.609375
1804.939453	40616.328125
1803.935547	40108.117188
1802.930664	40488.261719
1801.926758	40381.914063
1800.922852	40725.585938
1799.917969	40815.156250
1798.913086	40575.792969
1797.908203	40737.894531
1796.903320	41226.304688
1795.897461	40590.582031
1794.891602	40950.757813
1793.886719	41397.792969
1792.880859	40987.042969
1791.874023	40987.058594
1790.868164	40895.304688
1789.862305	41228.542969
1788.855469	41071.589844
1787.848633	41047.449219
1786.841797	41443.222656
1785.833984	41069.152344
1784.827148	41042.605469
1783.819336	41623.890625
1782.812500	41549.019531
1781.804688	41510.339844
1780.795898	41408.996094
1779.788086	41420.968750
1778.779297	41637.773438
1777.771484	41974.972656
1776.762695	41695.343750
1775.753906	41977.011719
1774.744141	41434.988281
1773.735352	41926.074219
1772.725586	42027.000000
1771.715820	41733.156250
1770.706055	42096.382813
1769.696289	42382.484375
1768.686523	42187.359375
1767.675781	42528.660156
1766.666016	42593.292969
1765.655273	42434.292969
1764.644531	42402.757813
1763.632813	42306.335938
1762.622070	42572.812500
1761.610352	42454.769531
1760.598633	43002.179688
1759.586914	43069.035156
1758.575195	42794.871094
1757.563477	43183.464844
1756.550781	42866.164063
1755.538086	43002.593750
1754.525391	43539.718750
1753.512695	43289.699219
1752.500000	43452.363281
1751.486328	44034.687500
1750.473633	43753.535156
1749.459961	43975.964844
1748.446289	44370.906250
1747.432617	44724.964844
1746.417969	44144.343750
1745.404297	44663.625000
1744.389648	44555.117188
1743.375000	44990.316406
1742.360352	44043.679688
1741.344727	44837.933594
1740.330078	45253.695313
1739.314453	45075.765625
1738.298828	44785.429688
1737.283203	45222.503906
1736.267578	45764.675781
1735.251953	45854.632813
1734.235352	45715.003906
1733.218750	46223.324219
1732.202148	46093.234375
1731.185547	46938.285156
1730.168945	46616.949219
1729.151367	46950.339844
1728.133789	47173.730469
1727.117188	47659.746094
1726.098633	47825.621094
1725.081055	48103.640625
1724.063477	48589.226563
1723.044922	48528.121094
1722.026367	48471.808594
1721.007813	48875.953125
1719.989258	49623.429688
1718.970703	49433.394531
1717.951172	49646.394531
1716.931641	49761.570313
1715.912109	50236.625000
1714.892578	50716.277344
1713.873047	50228.363281
1712.853516	50457.695313
1711.833008	50653.601563
1710.812500	50901.828125
1709.791992	50521.363281
1708.771484	51017.109375
1707.750000	51298.457031
1706.729492	51227.492188
1705.708008	51282.656250
1704.686523	51480.539063
1703.665039	51725.917969
1702.642578	51609.734375
1701.621094	51933.464844
1700.598633	51869.582031
1699.576172	51701.136719
1698.553711	52079.328125
1697.531250	51813.488281
1696.507813	51970.593750
1695.485352	52529.042969
1694.461914	52241.882813
1693.438477	52296.726563
1692.415039	52384.785156
1691.390625	52945.128906
1690.367188	52738.773438
1689.342773	53161.242188
1688.318359	53142.324219
1687.293945	53405.652344
1686.269531	53472.062500
1685.244141	53675.964844
1684.218750	53884.531250
1683.194336	53640.328125
1682.168945	54249.300781
1681.142578	54374.726563
1680.117188	54644.601563
1679.090820	54630.167969
1678.064453	54902.265625
1677.038086	54518.441406
1676.011719	55095.824219
1674.985352	55015.042969
1673.958008	55028.941406
1672.931641	55137.468750
1671.904297	55350.039063
1670.876953	55399.339844
1669.848633	56013.769531
1668.821289	55795.773438
1667.792969	55348.562500
1666.764648	55757.054688
1665.736328	55754.242188
1664.708008	55935.707031
1663.679688	56379.300781
1662.650391	55977.246094
1661.621094	55981.472656
1660.591797	56682.148438
1659.562500	56650.835938
1658.533203	56737.535156
1657.502930	56732.175781
1656.472656	56497.972656
1655.442383	56898.363281
1654.412109	56883.535156
1653.381836	57106.863281
1652.351563	57219.308594
1651.320313	56711.792969
1650.289063	56913.816406
1649.257813	56734.046875
1648.226563	56858.250000
1647.194336	57455.839844
1646.163086	57014.664063
1645.130859	57350.652344
1644.098633	56829.601563
1643.066406	57101.949219
1642.033203	57190.636719
1641.000977	58140.457031
1639.967773	57709.023438
1638.934570	58035.105469
1637.901367	57886.039063
1636.868164	58056.789063
1635.833984	57947.730469
1634.800781	58029.089844
1633.766602	58608.613281
1632.732422	58548.847656
1631.697266	58315.265625
1630.663086	58753.496094
1629.627930	59306.640625
1628.593750	59441.660156
1627.558594	59395.871094
1626.522461	60096.460938
1625.487305	60128.007813
1624.451172	60220.539063
1623.416016	60526.507813
1622.379883	60987.160156
1621.343750	61508.613281
1620.306641	61539.867188
1619.270508	62576.742188
1618.233398	63064.816406
1617.196289	64883.707031
1616.159180	65469.593750
1615.122070	66755.664063
1614.083984	67596.281250
1613.046875	69047.773438
1612.008789	69719.109375
1610.970703	70500.226563
1609.932617	70499.375000
1608.893555	70463.414063
1607.855469	70864.968750
1606.816406	70155.281250
1605.777344	68776.976563
1604.738281	68023.484375
1603.698242	67321.687500
1602.659180	65965.656250
1601.619141	65736.554688
1600.579102	64638.308594
1599.539063	63869.855469
1598.499023	63673.945313
1597.458008	63337.980469
1596.417969	62943.757813
1595.376953	62187.820313
1594.335938	61805.609375
1593.294922	61474.871094
1592.252930	61032.253906
1591.210938	60774.085938
1590.169922	61318.382813
1589.127930	60750.085938
1588.084961	60806.875000
1587.042969	60994.187500
1586.000000	61535.710938
1584.958008	61326.656250
1583.915039	61492.796875
1582.872070	61870.871094
1581.828125	62008.898438
1580.785156	62852.484375
1579.741211	62776.082031
1578.697266	63044.230469
1577.653320	63519.429688
1576.609375	63529.042969
1575.564453	63964.425781
1574.520508	63983.253906
1573.475586	64116.039063
1572.430664	64230.171875
1571.384766	64293.109375
1570.339844	64225.847656
1569.293945	63826.250000
1568.249023	63333.843750
1567.202148	62950.804688
1566.156250	62347.222656
1565.110352	62045.781250
1564.063477	61333.433594
1563.017578	61034.593750
1561.970703	60773.003906
1560.922852	60344.398438
1559.875977	60349.867188
1558.829102	59817.085938
1557.781250	59922.386719
1556.733398	59983.578125
1555.685547	59801.277344
1554.636719	59600.492188
1553.588867	58994.132813
1552.540039	58677.679688
1551.491211	58467.925781
1550.442383	58441.265625
1549.393555	58727.312500
1548.344727	58689.027344
1547.294922	58692.437500
1546.245117	59158.847656
1545.195313	58889.039063
1544.145508	58897.031250
1543.094727	59029.960938
1542.044922	59771.265625
1540.994141	59353.496094
1539.943359	59419.203125
1538.892578	59179.679688
1537.840820	59587.527344
1536.790039	59278.710938
1535.738281	60028.406250
1534.686523	60572.195313
1533.634766	60367.320313
1532.583008	60393.480469
1531.530273	60726.761719
1530.477539	60270.292969
1529.424805	60056.371094
1528.372070	60313.363281
1527.319336	60593.335938
1526.265625	60372.542969
1525.212891	60744.667969
1524.159180	60318.656250
1523.105469	60245.605469
1522.051758	60098.796875
1520.997070	59919.769531
1519.942383	59906.746094
1518.888672	59658.679688
1517.833984	59802.367188
1516.778320	59540.585938
1515.723633	59193.679688
1514.667969	59595.265625
1513.612305	58884.710938
1512.556641	58706.136719
1511.500977	58723.246094
1510.445313	58655.210938
1509.388672	58384.742188
1508.332031	58710.117188
1507.275391	58370.738281
1506.218750	57744.054688
1505.162109	58027.980469
1504.104492	58201.472656
1503.047852	57981.921875
1501.990234	57877.332031
1500.931641	57758.992188
1499.874023	57665.957031
1498.816406	57990.914063
1497.757813	57652.187500
1496.699219	57481.164063
1495.640625	57707.277344
1494.582031	57673.992188
1493.522461	57640.714844
1492.462891	57570.742188
1491.403320	57707.214844
1490.343750	57300.152344
1489.284180	57372.421875
1488.224609	57556.992188
1487.164063	57654.398438
1486.103516	57456.160156
1485.042969	57890.339844
1483.982422	57831.859375
1482.920898	57578.718750
1481.860352	57282.156250
1480.798828	57862.578125
1479.737305	57742.328125
1478.675781	57752.570313
1477.613281	58074.015625
1476.550781	58164.265625
1475.489258	57998.289063
1474.426758	58248.609375
1473.363281	58046.085938
1472.300781	57989.949219
1471.237305	58585.285156
1470.174805	58817.027344
1469.111328	58692.226563
1468.046875	58640.574219
1466.983398	58678.023438
1465.919922	58562.441406
1464.855469	58508.550781
1463.791016	59267.402344
1462.726563	59156.332031
1461.661133	59326.003906
1460.596680	59422.597656
1459.531250	59984.539063
1458.465820	59494.785156
1457.400391	60031.421875
1456.334961	60453.859375
1455.268555	60034.945313
1454.202148	60076.589844
1453.135742	60491.945313
1452.069336	60264.632813
1451.002930	60563.625000
1449.935547	60577.800781
1448.869141	61275.136719
1447.801758	61275.515625
1446.734375	61280.445313
1445.666016	61897.609375
1444.598633	61442.753906
1443.530273	62580.671875
1442.461914	62571.707031
1441.393555	62751.507813
1440.325195	63504.277344
1439.256836	63931.660156
1438.187500	63920.171875
1437.118164	64674.589844
1436.048828	64167.605469
1434.979492	65071.648438
1433.909180	65268.929688
1432.839844	64925.621094
1431.769531	65388.519531
1430.699219	65551.578125
1429.627930	64849.757813
1428.557617	65605.171875
1427.486328	65729.515625
1426.416016	65890.117188
1425.343750	66377.281250
1424.272461	66299.578125
1423.201172	66902.117188
1422.128906	67044.242188
1421.056641	66896.195313
1419.984375	67389.515625
1418.912109	67415.914063
1417.839844	67063.984375
1416.766602	67017.945313
1415.693359	66829.257813
1414.620117	66559.117188
1413.546875	65917.820313
1412.473633	65618.523438
1411.399414	65448.308594
1410.325195	65513.457031
1409.250977	65650.968750
1408.176758	65360.960938
1407.102539	66260.500000
1406.027344	67227.539063
1404.952148	67052.679688
1403.876953	68141.273438
1402.801758	68452.132813
1401.726563	68390.109375
1400.650391	69261.007813
1399.574219	68765.226563
1398.498047	68368.984375
1397.421875	68196.375000
1396.345703	67872.601563
1395.268555	67059.203125
1394.191406	66875.640625
1393.114258	66561.289063
1392.037109	66445.539063
1390.959961	66573.398438
1389.881836	66094.664063
1388.804688	66720.742188
1387.726563	66769.585938
1386.647461	67165.445313
1385.569336	67446.257813
1384.491211	67929.710938
1383.412109	68090.906250
1382.333008	68706.921875
1381.253906	67985.304688
1380.173828	68459.296875
1379.094727	68305.164063
1378.014648	68580.890625
1376.934570	68051.046875
1375.854492	67584.382813
1374.773438	67614.929688
1373.693359	67557.765625
1372.612305	66560.828125
1371.531250	66103.742188
1370.450195	65905.281250
1369.369141	65257.476563
1368.287109	65169.320313
1367.205078	65797.750000
1366.123047	65242.386719
1365.041016	64896.042969
1363.958984	64812.496094
1362.875977	64401.257813
1361.793945	64138.281250
1360.710938	63624.089844
1359.626953	63439.867188
1358.543945	64291.988281
1357.460938	63748.882813
1356.376953	63640.964844
1355.292969	63423.230469
1354.208984	63521.613281
1353.124023	63438.437500
1352.040039	63467.316406
1350.955078	62987.660156
1349.870117	63245.066406
1348.785156	63018.664063
1347.700195	62841.601563
1346.614258	63280.210938
1345.528320	63069.589844
1344.442383	63040.296875
1343.356445	62377.839844
1342.270508	63156.222656
1341.183594	63339.398438
1340.096680	62853.894531
1339.009766	63104.125000
1337.922852	63244.730469
1336.835938	63517.140625
1335.748047	63726.886719
1334.661133	63967.832031
1333.573242	64251.128906
1332.484375	63741.484375
1331.396484	64011.316406
1330.307617	64055.562500
1329.219727	64715.855469
1328.130859	64266.742188
1327.041992	64212.734375
1325.952148	64397.449219
1324.863281	64330.042969
1323.773438	64933.925781
1322.683594	64676.917969
1321.593750	64125.738281
1320.502930	63915.769531
1319.413086	64430.136719
1318.322266	63934.992188
1317.231445	64678.617188
1316.140625	64098.964844
1315.048828	64501.570313
1313.958008	64278.390625
1312.866211	63670.175781
1311.774414	63985.835938
1310.682617	64615.136719
1309.589844	64754.738281
1308.498047	64273.664063
1307.405273	65580.906250
1306.312500	65709.125000
1305.218750	66250.828125
1304.125977	66812.335938
1303.032227	67469.203125
1301.939453	68325.820313
1300.845703	69837.500000
1299.750977	71373.070313
1298.657227	73085.750000
1297.562500	73942.929688
1296.467773	75430.289063
1295.373047	77050.289063
1294.278320	76818.851563
1293.183594	76565.312500
1292.087891	75881.484375
1290.992188	74871.843750
1289.896484	74530.078125
1288.800781	73108.640625
1287.704102	72024.671875
1286.608398	72118.015625
1285.511719	70728.804688
1284.415039	70057.953125
1283.317383	69460.445313
1282.220703	68759.054688
1281.123047	68135.414063
1280.025391	67239.679688
1278.927734	67594.953125
1277.830078	66805.867188
1276.731445	66846.875000
1275.633789	65985.187500
1274.535156	66256.367188
1273.436523	65762.226563
1272.336914	65695.031250
1271.238281	65249.804688
1270.138672	65019.144531
1269.039063	64410.656250
1267.939453	64885.093750
1266.839844	64731.937500
1265.739258	64492.695313
1264.638672	63964.234375
1263.538086	64032.125000
1262.437500	63901.300781
1261.336914	64046.421875
1260.235352	64025.980469
1259.134766	63736.359375
1258.033203	63907.898438
1256.930664	63997.761719
1255.829102	64039.078125
1254.726563	63449.800781
1253.625000	63222.257813
1252.522461	63146.871094
1251.418945	63091.339844
1250.316406	62811.101563
1249.212891	62687.359375
1248.110352	62592.292969
1247.006836	62556.710938
1245.902344	62461.695313
1244.798828	61988.101563
1243.694336	62304.769531
1242.589844	62018.410156
1241.485352	62130.351563
1240.380859	61817.722656
1239.276367	61582.179688
1238.170898	62147.085938
1237.065430	61926.953125
1235.959961	62100.339844
1234.854492	62526.386719
1233.748047	61666.906250
1232.642578	62624.500000
1231.536133	62156.269531
1230.429688	62535.871094
1229.322266	62834.089844
1228.215820	62598.765625
1227.108398	63177.796875
1226.000977	63341.871094
1224.893555	63556.343750
1223.786133	63685.187500
1222.677734	64138.578125
1221.569336	63940.531250
1220.460938	63854.367188
1219.352539	63570.949219
1218.244141	64133.601563
1217.134766	63929.113281
1216.025391	63667.738281
1214.916016	63257.503906
1213.806641	63110.222656
1212.697266	62842.558594
1211.586914	63023.785156
1210.476563	63583.613281
1209.366211	63342.261719
1208.255859	63273.855469
1207.145508	63273.285156
1206.034180	63707.976563
1204.922852	63744.496094
1203.811523	63302.171875
1202.700195	63386.839844
1201.587891	63971.992188
1200.476563	63774.609375
1199.364258	64241.488281
1198.251953	64017.906250
1197.138672	64547.906250
1196.026367	64547.078125
1194.913086	64577.496094
1193.799805	64607.914063
1192.686523	64638.335938
1191.573242	64668.753906
1190.458984	64699.199219
1189.344727	64729.644531
1188.230469	64320.941406
1187.116211	64235.093750
1186.001953	64077.332031
1184.886719	63398.675781
1183.772461	63822.992188
1182.657227	63449.671875
1181.541016	63141.835938
1180.425781	63102.023438
1179.309570	63138.437500
1178.193359	62991.945313
1177.077148	62871.625000
1175.960938	62918.937500
1174.844727	62626.753906
1173.727539	62878.605469
1172.610352	62588.707031
1171.493164	62198.863281
1170.375977	62396.285156
1169.257813	62780.609375
1168.139648	61993.136719
1167.022461	62136.148438
1165.903320	61966.195313
1164.785156	61920.140625
1163.666992	61763.316406
1162.547852	61893.222656
1161.428711	61773.371094
1160.309570	61740.398438
1159.189453	61911.468750
1158.070313	62078.132813
1156.950195	61665.402344
1155.830078	61706.222656
1154.709961	61835.953125
1153.588867	62030.695313
1152.468750	61290.863281
1151.347656	61656.878906
1150.226563	61851.539063
1149.104492	61617.050781
1147.983398	61120.484375
1146.861328	61785.199219
1145.739258	61669.964844
1144.617188	62037.664063
1143.495117	61723.234375
1142.372070	62069.140625
1141.250000	62274.234375
1140.126953	62892.554688
1139.003906	62580.351563
1137.879883	62659.777344
1136.756836	62520.742188
1135.632813	63190.445313
1134.508789	62973.531250
1133.384766	62562.156250
1132.259766	62993.757813
1131.135742	62746.738281
1130.010742	62903.785156
1128.885742	62488.390625
1127.759766	62261.027344
1126.634766	62664.207031
1125.508789	62974.410156
1124.382813	62384.476563
1123.256836	62638.503906
1122.130859	61979.796875
1121.003906	61666.472656
1119.877930	61724.222656
1118.750977	62047.179688
1117.624023	61798.687500
1116.496094	61806.792969
1115.369141	61827.824219
1114.241211	61790.667969
1113.113281	61408.816406
1111.985352	61671.152344
1110.856445	61896.773438
1109.728516	61829.476563
1108.599609	61792.339844
1107.470703	61882.203125
1106.340820	61677.207031
1105.211914	61870.335938
1104.082031	61957.976563
1102.952148	62123.019531
1101.822266	61524.582031
1100.692383	61764.886719
1099.561523	61579.464844
1098.431641	61849.757813
1097.300781	62003.906250
1096.169922	61472.628906
1095.038086	61719.156250
1093.907227	61746.519531
1092.775391	61307.906250
1091.643555	61371.832031
1090.511719	61487.246094
1089.378906	61403.023438
1088.246094	61263.042969
1087.114258	61086.636719
1085.980469	61058.296875
1084.847656	60982.785156
1083.714844	60752.914063
1082.581055	60638.890625
1081.447266	61024.316406
1080.313477	61051.718750
1079.179688	60826.277344
1078.044922	60977.949219
1076.910156	60861.832031
1075.775391	61441.718750
1074.640625	61017.246094
1073.505859	61840.921875
1072.370117	61480.734375
1071.234375	61837.527344
1070.098633	61394.027344
1068.962891	61951.773438
1067.826172	62487.921875
1066.690430	62074.476563
1065.553711	62165.722656
1064.416992	62863.980469
1063.279297	62779.796875
1062.142578	62394.367188
1061.004883	62355.160156
1059.867188	62873.441406
1058.729492	62810.664063
1057.590820	62107.359375
1056.453125	62343.609375
1055.314453	62400.476563
1054.175781	62841.441406
1053.037109	62622.960938
1051.897461	61905.390625
1050.757813	61755.406250
1049.618164	61437.011719
1048.478516	62161.292969
1047.338867	61738.488281
1046.199219	61441.574219
1045.058594	61984.328125
1043.917969	61849.390625
1042.777344	61642.078125
1041.635742	61611.601563
1040.495117	61438.468750
1039.353516	61450.613281
1038.211914	61484.039063
1037.069336	61311.015625
1035.927734	61021.035156
1034.785156	61031.109375
1033.642578	60400.964844
1032.500000	60972.554688
1031.357422	61165.472656
1030.213867	61098.976563
1029.071289	60690.312500
1027.927734	61380.417969
1026.783203	61027.085938
1025.639648	60988.265625
1024.495117	61274.398438
1023.351563	61297.121094
1022.207031	61205.191406
1021.061523	61395.601563
1019.916992	61598.671875
1018.771484	60870.164063
1017.625977	61291.765625
1016.480469	61560.488281
1015.334961	61199.261719
1014.188477	61122.289063
1013.041992	61416.328125
1011.895508	61057.437500
1010.749023	61783.679688
1009.602539	61371.882813
1008.455078	61146.648438
1007.307617	61450.988281
1006.160156	61204.640625
1005.012695	61790.437500
1003.864258	61671.121094
1002.716797	61600.527344
1001.568359	62293.839844
1000.419922	63037.667969
999.270508	62600.910156
998.122070	63080.050781
996.972656	63326.414063
995.823242	63086.445313
994.673828	62449.191406
993.523438	62845.570313
992.373047	62962.898438
991.222656	62849.917969
990.072266	62741.195313
988.921875	63145.667969
987.771484	63070.710938
986.620117	62854.339844
985.468750	63442.179688
984.317383	63358.757813
983.165039	64037.007813
982.013672	63525.289063
980.861328	63486.179688
979.708984	63879.355469
978.555664	64181.726563
977.403320	64424.964844
976.250000	63709.203125
975.096680	63918.718750
973.943359	63643.613281
972.790039	63528.683594
971.635742	63714.941406
970.481445	63425.277344
969.327148	63316.757813
968.172852	62972.542969
967.018555	62295.960938
965.863281	62602.191406
964.708008	62636.937500
963.552734	62980.839844
962.397461	62540.261719
961.241211	62307.980469
960.084961	62889.281250
958.929688	62438.445313
957.772461	62788.359375
956.616211	62820.906250
955.458984	62664.394531
954.301758	62963.660156
953.144531	63178.824219
951.987305	63022.324219
950.830078	62706.359375
949.671875	62820.710938
948.513672	62563.640625
947.355469	63040.894531
946.196289	62764.996094
945.038086	63533.515625
943.878906	63163.273438
942.719727	62625.464844
941.560547	62926.199219
940.400391	63090.613281
939.241211	63366.003906
938.081055	63056.863281
936.919922	63367.757813
935.759766	63546.613281
934.599609	64020.589844
933.438477	63606.890625
932.277344	64436.449219
931.116211	64481.054688
929.954102	63937.785156
928.791992	63894.609375
927.630859	64192.320313
926.467773	64149.109375
925.305664	64555.359375
924.143555	64179.769531
922.980469	63904.621094
921.817383	63838.500000
920.654297	63853.867188
919.490234	64144.914063
918.327148	64339.792969
917.163086	64499.109375
915.999023	65069.574219
914.833984	65024.164063
913.669922	65045.539063
912.504883	65018.917969
911.339844	64988.136719
910.174805	65537.117188
909.008789	65779.382813
907.843750	66544.812500
906.677734	66590.875000
905.511719	66505.632813
904.345703	66428.757813
903.178711	65970.687500
902.011719	65779.382813
900.844727	65615.210938
899.677734	65086.750000
898.510742	65218.347656
897.342773	65197.964844
896.174805	65050.660156
895.006836	65007.425781
893.838867	64739.558594
892.670898	65328.613281
891.501953	64852.851563
890.333008	65327.320313
889.164063	64444.339844
887.994141	64877.140625
886.825195	64705.152344
885.655273	64635.019531
884.485352	64423.671875
883.315430	64625.640625
882.144531	64950.031250
880.973633	64736.660156
879.803711	64876.187500
878.631836	65192.039063
877.460938	65321.054688
876.289063	65418.902344
875.118164	65765.578125
873.945313	65792.804688
872.773438	65998.304688
871.601563	66263.835938
870.428711	66083.703125
869.255859	65909.859375
868.083008	66376.195313
866.910156	66136.070313
865.736328	66542.132813
864.562500	66873.500000
863.388672	66981.179688
862.214844	67649.703125
861.040039	67351.609375
859.866211	67692.921875
858.691406	68050.648438
857.516602	67746.429688
856.340820	67518.828125
855.166016	67127.992188
853.990234	66871.648438
852.814453	67214.710938
851.637695	66797.273438
850.461914	66675.406250
849.285156	66960.476563
848.108398	67092.617188
846.931641	67476.609375
845.754883	67509.515625
844.577148	67379.351563
843.399414	67895.132813
842.221680	67913.492188
841.043945	69202.523438
839.865234	70115.710938
838.687500	70733.687500
837.508789	71547.289063
836.329102	71672.125000
835.150391	72050.398438
833.970703	72222.484375
832.791992	71930.968750
831.611328	70663.250000
830.431641	70213.554688
829.251953	69341.937500
828.071289	69195.265625
826.890625	68303.570313
825.709961	67508.921875
824.528320	67152.804688
823.347656	66358.656250
822.166016	66111.882813
820.984375	65961.835938
819.801758	65994.820313
818.620117	65713.296875
817.437500	65281.847656
816.254883	65298.496094
815.072266	65286.371094
813.888672	64828.527344
812.706055	64132.632813
811.522461	64595.023438
810.338867	64681.562500
809.154297	64462.250000
807.970703	64698.582031
806.786133	64805.562500
805.601563	64268.382813
804.416992	64562.035156
803.231445	64671.023438
802.045898	64591.351563
800.861328	64296.476563
799.674805	64358.308594
798.489258	63707.042969
797.302734	64334.390625
796.117188	63904.582031
794.930664	63612.140625
793.743164	63620.792969
792.556641	63459.523438
791.369141	63525.503906
790.181641	63358.167969
788.994141	63012.886719
787.805664	63230.281250
786.618164	62746.070313
785.429688	62891.859375
784.241211	62835.183594
783.052734	62629.308594
781.863281	62889.472656
780.673828	62530.406250
779.484375	62647.480469
778.294922	62447.910156
777.105469	62236.156250
775.915039	61953.015625
774.724609	62100.718750
773.534180	62023.851563
772.343750	62169.441406
771.152344	62104.824219
769.960938	62058.585938
768.769531	62230.593750
767.578125	62192.500000
766.385742	62095.296875
765.194336	62915.406250
764.001953	62386.035156
762.808594	63193.550781
761.616211	63122.707031
760.422852	63475.554688
759.230469	63726.445313
758.037109	64032.210938
756.842773	63940.890625
755.649414	64393.046875
754.455078	64965.097656
753.260742	64794.296875
752.066406	64554.390625
750.871094	64345.078125
749.676758	64383.929688
748.481445	64638.269531
747.286133	63646.453125
746.089844	63238.285156
744.894531	63084.265625
743.698242	63507.265625
742.501953	62563.105469
741.304688	62910.902344
740.108398	61961.109375
738.911133	62002.339844
737.713867	61678.207031
736.516602	62547.429688
735.319336	61807.378906
734.121094	62266.480469
732.922852	61634.246094
731.724609	61906.644531
730.526367	61609.230469
729.327148	61356.523438
728.127930	61734.199219
726.928711	61161.402344
725.729492	61672.675781
724.530273	61543.687500
723.330078	61718.519531
722.129883	61447.835938
720.929688	61499.125000
719.728516	61352.039063
718.528320	61403.324219
717.327148	61248.210938
716.125977	61348.039063
714.923828	61435.691406
713.722656	61436.355469
712.520508	62015.238281
711.318359	61668.113281
710.116211	62277.042969
708.913086	61824.921875
707.710938	61211.343750
706.507813	61539.250000
705.304688	61479.292969
704.100586	62067.484375
702.897461	61849.980469
701.693359	61668.886719
700.489258	62198.187500
699.284180	62620.351563
698.080078	62550.152344
696.875000	62574.769531
695.669922	62468.304688
694.464844	62636.066406
693.258789	63249.234375
692.053711	64089.902344
690.847656	64152.476563
689.641602	64821.417969
688.434570	64170.796875
687.228516	64358.171875
686.021484	64696.484375
684.814453	64479.054688
683.607422	63514.988281
682.399414	63000.027344
681.191406	62362.531250
679.983398	62403.171875
678.775391	62417.644531
677.567383	62174.726563
676.358398	62412.394531
675.149414	62328.359375
673.940430	62159.941406
672.730469	62297.003906
671.521484	62705.218750
670.311523	62356.046875
669.101563	62151.593750
667.890625	61927.132813
666.680664	62178.519531
665.469727	61532.652344
664.258789	61613.445313
663.047852	61660.093750
661.835938	61425.894531
660.625000	61073.449219
659.413086	61224.437500
658.201172	61172.878906
656.988281	61015.101563
655.776367	61139.953125
654.563477	61018.300781
653.350586	60754.457031
652.136719	61017.484375
650.923828	60879.894531
649.709961	61030.667969
648.496094	61241.437500
647.282227	60753.625000
646.067383	60908.332031
644.852539	60850.902344
643.637695	61119.546875
642.422852	61320.085938
641.208008	60958.675781
639.992188	61311.101563
638.776367	61411.546875
637.560547	61585.890625
636.344727	61454.464844
635.127930	61564.804688
633.911133	61377.500000
632.694336	61060.460938
631.477539	61218.722656
630.259766	61015.609375
629.042969	60886.417969
627.825195	61046.605469
626.606445	60428.656250
625.388672	60802.300781
624.169922	60603.433594
622.951172	60673.816406
621.732422	60393.304688
620.513672	60246.437500
619.293945	60336.769531
618.074219	60387.214844
616.854492	60286.242188
615.634766	60832.605469
614.414063	60639.980469
613.193359	60367.785156
611.972656	60298.730469
610.751953	60414.785156
609.530273	60162.675781
608.309570	59793.281250
607.087891	60062.515625
605.866211	60220.281250
604.643555	60642.433594
603.420898	60354.718750
602.198242	60609.726563
600.975586	60471.160156
599.752930	60312.777344
598.529297	60476.261719
597.305664	61173.941406
596.082031	60963.878906
594.858398	60990.148438
593.633789	61256.589844
592.410156	61387.972656
591.185547	61894.324219
589.959961	61870.792969
588.735352	62315.371094
587.509766	62164.843750
586.284180	62979.964844
585.058594	62684.648438
583.832031	63253.593750
582.606445	63820.339844
581.379883	64244.218750
580.153320	64953.183594
578.925781	65150.906250
577.699219	65936.656250
576.471680	65975.734375
575.244141	66285.968750
574.015625	66006.335938
572.788086	66276.867188
571.559570	66121.968750
570.331055	66155.023438
569.101563	65454.398438
567.873047	65260.183594
566.643555	64342.539063
565.414063	63733.554688
564.184570	63126.773438
562.954102	62530.097656
561.724609	62010.675781
560.494141	61329.507813
559.263672	61400.894531
558.032227	61051.753906
556.800781	60690.898438
555.570313	60491.996094
554.337891	60583.207031
553.106445	59924.757813
551.874023	59747.800781
550.642578	59497.945313
549.409180	59376.332031
548.176758	59712.085938
546.944336	59350.031250
545.710938	59395.996094
544.477539	58807.570313
543.243164	58810.281250
542.009766	58663.316406
540.775391	59282.343750
539.541016	58560.503906
538.306641	58988.390625
537.071289	59122.898438
535.836914	58806.792969
534.601563	59102.585938
533.366211	58902.636719
532.129883	58866.386719
530.894531	58830.167969
529.658203	58793.917969
528.421875	58757.667969
527.184570	58721.390625
525.948242	59052.152344
524.710938	58536.226563
523.473633	58809.941406
522.235352	58920.582031
520.998047	59504.281250
519.759766	59000.421875
518.521484	59505.386719
517.283203	59974.839844
516.043945	59779.140625
514.804688	59850.234375
513.565430	60323.269531
512.326172	60560.867188
511.085938	60578.843750
509.846680	60316.566406
508.606445	60426.667969
507.366211	59355.449219
506.125000	59500.937500
504.883789	59417.253906
503.643555	59274.859375
502.401367	59040.515625
501.160156	58855.183594
499.917969	59029.964844
498.675781	58934.695313
497.433594	59040.929688
496.191406	58319.875000
494.948242	58514.167969
493.705078	58970.347656
492.461914	58978.753906
491.218750	58615.863281
489.975586	58815.800781
488.731445	58578.093750
487.487305	58842.410156
486.242188	58698.507813
484.998047	58644.468750
483.752930	59248.257813
482.507813	59291.707031
481.262695	58591.718750
480.016602	59415.617188
478.771484	59501.910156
477.525391	59122.089844
476.278320	59354.636719
475.032227	59146.527344
473.785156	59125.601563
472.538086	59979.625000
471.291016	59705.265625
470.043945	59407.632813
468.795898	59489.882813
467.547852	59537.046875
466.299805	60057.269531
465.051758	59748.101563
463.802734	60478.257813
462.553711	60982.429688
461.304688	60933.933594
460.055664	60920.460938
458.805664	61362.027344
457.555664	61023.785156
456.305664	61640.109375
455.055664	62129.867188
453.804688	62242.468750
452.553711	62438.566406
451.302734	62617.105469
450.051758	63079.105469
448.799805	63014.742188
447.548828	64029.757813
446.296875	64281.601563
445.043945	65150.445313
443.791992	65297.207031
442.539063	65601.031250
441.286133	65400.484375
440.033203	64697.781250
438.779297	64691.343750
437.526367	63271.843750
436.272461	62403.265625
435.017578	61932.230469
433.763672	61011.925781
432.508789	60578.125000
431.253906	60340.074219
429.999023	60129.214844
428.744141	60429.484375
427.488281	59227.746094
426.232422	59543.546875
424.976563	59280.750000
423.720703	58892.324219
422.463867	59014.601563
421.207031	59117.496094
419.950195	58791.171875
418.693359	59093.148438
417.435547	58884.832031
416.177734	58769.332031
414.919922	58744.664063
413.662109	58760.562500
412.403320	58442.386719
411.144531	58850.253906
409.885742	58810.136719
408.626953	58775.820313
407.367188	58938.332031
406.107422	58747.734375
404.847656	58738.515625
403.587891	58515.242188
402.327148	58546.554688
401.067383	58760.988281
