#Wave		#Intensity
2001.248047	34925.937500
2000.278320	35550.062500
1999.308594	35583.957031
1998.338867	35294.605469
1997.369141	35210.781250
1996.398438	35412.531250
1995.428711	35351.253906
1994.458008	35565.421875
1993.487305	35454.066406
1992.516602	35560.511719
1991.545898	35922.183594
1990.574219	35638.171875
1989.603516	35634.449219
1988.631836	35663.242188
1987.660156	35339.406250
1986.688477	35230.718750
1985.715820	35234.562500
1984.744141	35595.839844
1983.771484	35579.625000
1982.798828	35540.925781
1981.826172	35344.851563
1980.853516	35778.285156
1979.880859	35577.242188
1978.907227	35456.167969
1977.933594	35637.207031
1976.959961	35655.937500
1975.986328	35959.164063
1975.012695	35965.355469
1974.039063	35732.046875
1973.064453	35880.449219
1972.089844	35814.324219
1971.115234	35523.812500
1970.140625	35849.167969
1969.166016	35449.078125
1968.190430	35898.937500
1967.215820	35902.628906
1966.240234	36003.472656
1965.264648	35845.238281
1964.289063	35843.953125
1963.312500	35733.105469
1962.336914	36179.945313
1961.360352	36066.589844
1960.383789	35910.960938
1959.407227	35854.917969
1958.430664	35856.109375
1957.454102	35979.175781
1956.476563	36045.003906
1955.499023	36073.507813
1954.521484	36231.273438
1953.543945	35867.007813
1952.566406	35987.476563
1951.587891	36286.800781
1950.610352	35950.039063
1949.631836	35889.105469
1948.653320	36138.613281
1947.674805	36231.609375
1946.696289	36081.281250
1945.716797	36328.140625
1944.737305	36023.980469
1943.758789	36439.484375
1942.779297	36098.195313
1941.798828	36558.187500
1940.819336	36269.074219
1939.838867	36064.363281
1938.859375	35996.070313
1937.878906	36222.757813
1936.898438	36501.410156
1935.916992	36172.906250
1934.936523	36109.593750
1933.955078	36323.710938
1932.974609	36391.644531
1931.993164	35939.585938
1931.010742	37010.175781
1930.029297	36478.957031
1929.047852	36358.726563
1928.065430	36495.867188
1927.083008	36170.343750
1926.100586	36136.800781
1925.118164	36365.402344
1924.135742	36242.820313
1923.152344	36441.656250
1922.168945	36296.855469
1921.185547	36181.757813
1920.202148	36382.964844
1919.218750	36791.617188
1918.235352	36451.722656
1917.250977	36553.992188
1916.266602	36273.511719
1915.282227	36291.839844
1914.297852	36623.625000
1913.313477	36501.218750
1912.328125	36275.222656
1911.343750	36429.214844
1910.358398	36398.160156
1909.373047	36357.253906
1908.387695	36920.437500
1907.401367	36862.195313
1906.416016	36727.562500
1905.429688	36723.582031
1904.443359	36547.132813
1903.457031	36784.605469
1902.470703	36901.304688
1901.483398	36343.207031
1900.497070	36592.898438
1899.509766	36352.609375
1898.522461	37092.011719
1897.535156	36652.386719
1896.546875	36842.792969
1895.559570	36804.347656
1894.571289	36810.183594
1893.583008	36899.632813
1892.594727	36843.980469
1891.606445	36869.472656
1890.618164	36681.117188
1889.628906	37392.250000
1888.639648	36339.003906
1887.650391	36654.433594
1886.661133	36729.050781
1885.671875	36862.578125
1884.682617	36632.675781
1883.692383	36393.035156
1882.702148	36936.429688
1881.711914	36679.640625
1880.721680	36859.667969
1879.731445	37027.363281
1878.740234	36672.578125
1877.749023	36521.457031
1876.757813	36735.703125
1875.766602	36773.375000
1874.775391	36423.781250
1873.784180	36917.292969
1872.791992	36611.894531
1871.799805	36531.968750
1870.807617	36804.765625
1869.815430	37146.027344
1868.823242	37085.636719
1867.830078	36875.941406
1866.837891	36683.449219
1865.844727	36963.308594
1864.851563	36832.035156
1863.858398	37070.183594
1862.864258	36858.218750
1861.871094	36854.187500
1860.876953	36789.027344
1859.882813	37176.125000
1858.888672	36663.664063
1857.894531	37360.992188
1856.899414	37100.328125
1855.905273	37059.605469
1854.910156	36940.738281
1853.915039	37241.925781
1852.919922	37193.871094
1851.923828	37199.535156
1850.928711	37241.804688
1849.932617	37528.078125
1848.936523	37572.714844
1847.940430	37207.519531
1846.944336	37230.242188
1845.947266	37657.742188
1844.951172	37478.015625
1843.954102	37422.667969
1842.957031	37720.734375
1841.959961	37711.660156
1840.962891	37839.023438
1839.964844	37734.925781
1838.966797	38013.238281
1837.969727	37996.808594
1836.970703	37985.250000
1835.972656	37990.734375
1834.974609	38210.390625
1833.975586	38227.996094
1832.976563	38072.859375
1831.978516	38418.867188
1830.978516	38492.363281
1829.979492	38621.757813
1828.980469	38148.164063
1827.980469	38241.109375
1826.980469	38392.347656
1825.980469	38847.273438
1824.980469	38551.320313
1823.979492	38887.027344
1822.979492	38277.875000
1821.978516	39019.023438
1820.977539	38932.031250
1819.976563	39201.894531
1818.975586	38869.777344
1817.973633	39105.582031
1816.972656	38814.839844
1815.970703	39467.777344
1814.968750	39371.089844
1813.966797	38910.714844
1812.963867	38983.863281
1811.961914	39662.964844
1810.958984	39331.226563
1809.956055	39169.214844
1808.953125	39016.953125
1807.950195	39504.210938
1806.946289	39397.953125
1805.943359	39499.968750
1804.939453	39703.628906
1803.935547	39892.691406
1802.930664	40163.968750
1801.926758	39798.773438
1800.922852	40173.996094
1799.917969	39905.679688
1798.913086	39920.406250
1797.908203	39937.546875
1796.903320	39688.750000
1795.897461	40128.914063
1794.891602	40566.503906
1793.886719	40315.308594
1792.880859	40426.570313
1791.874023	40231.039063
1790.868164	40093.531250
1789.862305	40204.769531
1788.855469	40364.250000
1787.848633	40680.562500
1786.841797	40610.640625
1785.833984	40531.089844
1784.827148	40634.906250
1783.819336	40798.988281
1782.812500	40608.507813
1781.804688	41254.757813
1780.795898	40977.476563
1779.788086	40975.062500
1778.779297	40917.222656
1777.771484	40950.957031
1776.762695	41468.894531
1775.753906	41695.207031
1774.744141	41389.230469
1773.735352	41521.574219
1772.725586	41182.031250
1771.715820	41733.156250
1770.706055	41831.671875
1769.696289	41294.953125
1768.686523	41525.816406
1767.675781	42033.191406
1766.666016	42196.503906
1765.655273	41734.628906
1764.644531	42530.164063
1763.632813	42202.988281
1762.622070	42039.332031
1761.610352	43096.273438
1760.598633	42882.066406
1759.586914	42876.890625
1758.575195	42809.281250
1757.563477	42760.898438
1756.550781	43139.824219
1755.538086	43161.000000
1754.525391	43491.726563
1753.512695	43666.382813
1752.500000	43574.703125
1751.486328	43876.394531
1750.473633	43731.953125
1749.459961	44115.023438
1748.446289	43786.007813
1747.432617	44353.472656
1746.417969	44271.347656
1745.404297	44198.828125
1744.389648	44131.125000
1743.375000	44374.796875
1742.360352	44575.277344
1741.344727	44445.289063
1740.330078	44540.359375
1739.314453	44860.367188
1738.298828	44895.500000
1737.283203	45308.632813
1736.267578	45530.253906
1735.251953	45388.265625
1734.235352	45719.785156
1733.218750	45776.246094
1732.202148	46344.222656
1731.185547	46840.296875
1730.168945	46605.003906
1729.151367	46357.847656
1728.133789	46817.820313
1727.117188	46776.097656
1726.098633	47493.714844
1725.081055	47867.289063
1724.063477	47682.179688
1723.044922	48131.953125
1722.026367	48300.003906
1721.007813	48346.324219
1719.989258	48669.316406
1718.970703	48703.625000
1717.951172	49167.121094
1716.931641	49201.324219
1715.912109	49805.195313
1714.892578	49279.226563
1713.873047	49356.273438
1712.853516	49771.585938
1711.833008	49429.300781
1710.812500	49408.636719
1709.791992	49804.664063
1708.771484	49607.769531
1707.750000	49894.128906
1706.729492	49290.335938
1705.708008	49974.000000
1704.686523	49658.261719
1703.665039	49570.968750
1702.642578	49517.000000
1701.621094	49833.964844
1700.598633	50243.531250
1699.576172	50020.707031
1698.553711	49683.894531
1697.531250	49917.437500
1696.507813	49808.816406
1695.485352	49650.347656
1694.461914	50263.726563
1693.438477	49632.742188
1692.415039	50542.640625
1691.390625	50244.113281
1690.367188	50586.414063
1689.342773	50475.417969
1688.318359	50333.621094
1687.293945	50891.554688
1686.269531	50365.566406
1685.244141	51056.062500
1684.218750	50269.472656
1683.194336	50374.320313
1682.168945	51220.839844
1681.142578	50569.679688
1680.117188	50859.179688
1679.090820	51212.523438
1678.064453	51582.320313
1677.038086	50957.589844
1676.011719	50820.718750
1674.985352	51673.195313
1673.958008	51240.453125
1672.931641	51318.894531
1671.904297	51569.988281
1670.876953	51565.562500
1669.848633	51781.050781
1668.821289	51641.824219
1667.792969	52027.410156
1666.764648	52226.152344
1665.736328	52167.253906
1664.708008	52446.222656
1663.679688	52332.976563
1662.650391	52522.062500
1661.621094	52574.128906
1660.591797	52807.960938
1659.562500	52911.882813
1658.533203	52841.121094
1657.502930	53577.371094
1656.472656	53329.574219
1655.442383	53964.046875
1654.412109	53926.160156
1653.381836	54093.421875
1652.351563	54189.898438
1651.320313	54491.406250
1650.289063	54797.515625
1649.257813	54472.039063
1648.226563	54785.105469
1647.194336	55069.796875
1646.163086	54864.542969
1645.130859	55801.335938
1644.098633	55318.226563
1643.066406	55183.644531
1642.033203	55185.597656
1641.000977	55947.542969
1639.967773	56198.722656
1638.934570	56049.957031
1637.901367	56505.617188
1636.868164	56624.886719
1635.833984	57012.105469
1634.800781	56698.761719
1633.766602	56721.578125
1632.732422	57357.617188
1631.697266	57828.992188
1630.663086	57976.066406
1629.627930	57653.429688
1628.593750	58225.449219
1627.558594	58067.199219
1626.522461	58420.660156
1625.487305	58691.863281
1624.451172	58392.832031
1623.416016	59111.984375
1622.379883	58944.324219
1621.343750	59789.750000
1620.306641	60444.960938
1619.270508	61341.382813
1618.233398	62574.976563
1617.196289	64304.910156
1616.159180	64970.558594
1615.122070	67102.351563
1614.083984	68071.718750
1613.046875	69841.585938
1612.008789	70262.273438
1610.970703	71382.710938
1609.932617	71096.171875
1608.893555	71163.070313
1607.855469	69706.890625
1606.816406	68959.984375
1605.777344	67507.054688
1604.738281	66082.695313
1603.698242	65156.812500
1602.659180	63515.988281
1601.619141	63074.656250
1600.579102	62107.734375
1599.539063	61108.445313
1598.499023	60735.507813
1597.458008	60341.683594
1596.417969	59588.410156
1595.376953	59547.441406
1594.335938	58841.253906
1593.294922	58602.062500
1592.252930	59104.941406
1591.210938	58560.175781
1590.169922	58078.574219
1589.127930	58744.519531
1588.084961	58349.324219
1587.042969	58735.230469
1586.000000	58093.105469
1584.958008	58371.714844
1583.915039	58233.160156
1582.872070	58362.546875
1581.828125	57949.195313
1580.785156	57955.160156
1579.741211	58459.382813
1578.697266	58192.886719
1577.653320	58187.160156
1576.609375	58116.273438
1575.564453	58743.410156
1574.520508	57967.597656
1573.475586	58431.722656
1572.430664	58358.511719
1571.384766	58757.296875
1570.339844	58711.941406
1569.293945	58761.890625
1568.249023	58804.851563
1567.202148	57906.839844
1566.156250	58381.996094
1565.110352	58234.546875
1564.063477	58082.503906
1563.017578	57329.199219
1561.970703	57822.675781
1560.922852	57420.128906
1559.875977	57252.085938
1558.829102	57019.140625
1557.781250	57528.550781
1556.733398	57207.507813
1555.685547	57514.964844
1554.636719	57488.460938
1553.588867	57220.902344
1552.540039	57335.828125
1551.491211	57668.519531
1550.442383	57275.960938
1549.393555	57203.191406
1548.344727	57570.457031
1547.294922	57229.062500
1546.245117	57397.093750
1545.195313	56514.218750
1544.145508	57314.101563
1543.094727	56827.210938
1542.044922	57048.394531
1540.994141	57553.996094
1539.943359	56891.562500
1538.892578	56809.718750
1537.840820	57074.660156
1536.790039	57177.710938
1535.738281	56760.769531
1534.686523	56709.031250
1533.634766	56400.890625
1532.583008	56681.824219
1531.530273	56750.207031
1530.477539	56278.285156
1529.424805	55949.656250
1528.372070	56410.488281
1527.319336	55802.726563
1526.265625	56120.367188
1525.212891	55711.257813
1524.159180	55687.453125
1523.105469	55815.847656
1522.051758	55234.085938
1520.997070	55498.515625
1519.942383	56020.976563
1518.888672	55137.617188
1517.833984	55855.785156
1516.778320	55804.328125
1515.723633	56100.648438
1514.667969	55786.656250
1513.612305	55742.136719
1512.556641	55895.589844
1511.500977	55701.472656
1510.445313	55935.410156
1509.388672	56323.398438
1508.332031	55871.679688
1507.275391	55560.406250
1506.218750	56380.527344
1505.162109	56669.296875
1504.104492	55813.285156
1503.047852	56403.101563
1501.990234	56075.917969
1500.931641	56780.335938
1499.874023	56078.800781
1498.816406	55770.210938
1497.757813	56306.687500
1496.699219	56177.226563
1495.640625	55912.390625
1494.582031	56565.582031
1493.522461	55956.601563
1492.462891	56779.304688
1491.403320	56388.390625
1490.343750	56807.113281
1489.284180	56732.734375
1488.224609	56452.066406
1487.164063	56721.570313
1486.103516	56500.582031
1485.042969	56710.402344
1483.982422	56645.257813
1482.920898	56220.554688
1481.860352	56574.574219
1480.798828	56543.824219
1479.737305	56529.109375
1478.675781	56569.324219
1477.613281	56742.242188
1476.550781	57091.257813
1475.489258	56779.078125
1474.426758	56659.117188
1473.363281	57101.707031
1472.300781	56878.847656
1471.237305	57417.238281
1470.174805	57057.273438
1469.111328	57289.246094
1468.046875	57619.367188
1466.983398	57672.988281
1465.919922	57740.289063
1464.855469	57832.679688
1463.791016	58107.667969
1462.726563	57777.683594
1461.661133	58529.542969
1460.596680	58211.007813
1459.531250	58107.027344
1458.465820	58940.527344
1457.400391	58409.996094
1456.334961	58698.203125
1455.268555	59098.003906
1454.202148	58770.578125
1453.135742	59015.253906
1452.069336	58820.105469
1451.002930	59246.925781
1449.935547	59498.210938
1448.869141	59022.976563
1447.801758	59242.332031
1446.734375	59472.988281
1445.666016	59332.574219
1444.598633	59895.363281
1443.530273	59966.507813
1442.461914	60258.277344
1441.393555	60308.859375
1440.325195	60757.359375
1439.256836	60985.164063
1438.187500	60858.277344
1437.118164	61585.972656
1436.048828	62170.250000
1434.979492	62020.492188
1433.909180	62804.363281
1432.839844	63104.214844
1431.769531	63063.351563
1430.699219	63919.257813
1429.627930	63553.667969
1428.557617	63832.734375
1427.486328	64529.195313
1426.416016	64460.878906
1425.343750	64297.316406
1424.272461	64768.800781
1423.201172	64693.664063
1422.128906	64069.941406
1421.056641	64527.601563
1419.984375	64552.257813
1418.912109	64062.566406
1417.839844	64259.457031
1416.766602	64338.496094
1415.693359	63923.832031
1414.620117	64849.687500
1413.546875	64774.636719
1412.473633	64903.308594
1411.399414	64475.250000
1410.325195	65174.078125
1409.250977	65194.019531
1408.176758	65960.312500
1407.102539	65717.789063
1406.027344	65767.007813
1404.952148	66119.101563
1403.876953	66098.164063
1402.801758	66784.500000
1401.726563	66440.367188
1400.650391	67110.578125
1399.574219	66897.492188
1398.498047	67059.320313
1397.421875	67092.390625
1396.345703	67186.398438
1395.268555	67257.804688
1394.191406	67746.617188
1393.114258	67842.703125
1392.037109	68337.992188
1390.959961	68934.585938
1389.881836	69028.140625
1388.804688	69933.242188
1387.726563	70157.312500
1386.647461	70279.882813
1385.569336	71105.398438
1384.491211	71540.882813
1383.412109	72088.828125
1382.333008	72201.945313
1381.253906	72339.789063
1380.173828	73296.992188
1379.094727	73072.210938
1378.014648	73353.835938
1376.934570	74080.835938
1375.854492	73437.617188
1374.773438	73210.710938
1373.693359	73669.734375
1372.612305	73249.515625
1371.531250	73054.226563
1370.450195	72420.742188
1369.369141	72902.046875
1368.287109	72603.570313
1367.205078	72046.875000
1366.123047	71919.343750
1365.041016	71780.625000
1363.958984	71922.585938
1362.875977	71707.593750
1361.793945	71815.843750
1360.710938	71239.687500
1359.626953	70751.226563
1358.543945	71436.039063
1357.460938	70745.875000
1356.376953	70892.304688
1355.292969	70884.000000
1354.208984	70761.375000
1353.124023	70788.945313
1352.040039	70975.578125
1350.955078	70752.187500
1349.870117	70932.039063
1348.785156	70903.554688
1347.700195	70335.484375
1346.614258	70821.992188
1345.528320	70578.671875
1344.442383	70424.945313
1343.356445	70548.710938
1342.270508	70931.914063
1341.183594	71053.296875
1340.096680	70620.062500
1339.009766	71094.703125
1337.922852	71110.921875
1336.835938	71288.046875
1335.748047	71442.757813
1334.661133	71695.710938
1333.573242	71271.757813
1332.484375	71415.210938
1331.396484	71980.632813
1330.307617	72023.437500
1329.219727	72197.921875
1328.130859	72483.921875
1327.041992	72595.773438
1325.952148	72100.781250
1324.863281	72814.890625
1323.773438	72890.937500
1322.683594	72949.109375
1321.593750	72906.937500
1320.502930	72889.296875
1319.413086	72856.062500
1318.322266	72305.921875
1317.231445	73386.640625
1316.140625	73333.281250
1315.048828	73326.695313
1313.958008	73217.695313
1312.866211	73413.703125
1311.774414	73649.703125
1310.682617	74301.734375
1309.589844	74392.859375
1308.498047	74557.359375
1307.405273	74368.171875
1306.312500	74783.882813
1305.218750	74828.156250
1304.125977	75201.390625
1303.032227	75390.023438
1301.939453	75323.054688
1300.845703	75627.117188
1299.750977	75793.351563
1298.657227	76099.429688
1297.562500	76853.929688
1296.467773	76142.921875
1295.373047	77036.968750
1294.278320	77089.601563
1293.183594	77350.781250
1292.087891	77935.750000
1290.992188	77970.437500
1289.896484	78014.273438
1288.800781	78058.117188
1287.704102	78101.992188
1286.608398	78145.835938
1285.511719	78189.710938
1284.415039	78233.593750
1283.317383	78897.281250
1282.220703	78632.718750
1281.123047	77588.765625
1280.025391	77977.656250
1278.927734	77086.937500
1277.830078	77548.812500
1276.731445	77034.664063
1275.633789	77443.273438
1274.535156	76500.195313
1273.436523	76534.984375
1272.336914	76010.320313
1271.238281	76073.921875
1270.138672	75803.726563
1269.039063	75798.820313
1267.939453	74715.632813
1266.839844	75451.007813
1265.739258	74874.078125
1264.638672	74836.210938
1263.538086	74880.046875
1262.437500	74168.867188
1261.336914	74473.250000
1260.235352	74042.656250
1259.134766	74201.328125
1258.033203	73693.726563
1256.930664	73254.671875
1255.829102	73627.296875
1254.726563	73373.617188
1253.625000	73155.296875
1252.522461	73073.695313
1251.418945	73152.992188
1250.316406	72914.984375
1249.212891	73507.523438
1248.110352	72685.906250
1247.006836	72527.382813
1245.902344	72150.953125
1244.798828	72624.320313
1243.694336	72329.437500
1242.589844	72886.210938
1241.485352	71676.171875
1240.380859	72364.835938
1239.276367	72131.773438
1238.170898	72057.109375
1237.065430	72602.421875
1235.959961	72178.210938
1234.854492	71888.203125
1233.748047	72046.531250
1232.642578	72354.179688
1231.536133	72268.554688
1230.429688	72374.007813
1229.322266	72139.101563
1228.215820	71752.812500
1227.108398	72503.570313
1226.000977	71924.242188
1224.893555	71748.812500
1223.786133	72145.984375
1222.677734	71773.179688
1221.569336	71924.601563
1220.460938	72043.070313
1219.352539	71968.601563
1218.244141	71736.359375
1217.134766	71583.078125
1216.025391	71673.031250
1214.916016	71364.296875
1213.806641	71590.039063
1212.697266	71940.500000
1211.586914	71550.867188
1210.476563	71758.929688
1209.366211	71730.562500
1208.255859	72544.593750
1207.145508	71910.109375
1206.034180	72347.601563
1204.922852	72327.882813
1203.811523	72878.835938
1202.700195	71975.851563
1201.587891	72141.976563
1200.476563	72710.132813
1199.364258	72753.710938
1198.251953	73221.054688
1197.138672	73306.015625
1196.026367	73397.492188
1194.913086	73543.507813
1193.799805	73984.164063
1192.686523	74188.945313
1191.573242	74784.242188
1190.458984	74521.914063
1189.344727	73941.210938
1188.230469	74359.570313
1187.116211	74254.453125
1186.001953	74598.468750
1184.886719	74151.125000
1183.772461	73377.046875
1182.657227	74132.835938
1181.541016	73598.671875
1180.425781	73796.539063
1179.309570	73796.164063
1178.193359	73667.328125
1177.077148	73497.171875
1175.960938	73407.601563
1174.844727	72641.289063
1173.727539	73252.484375
1172.610352	72495.179688
1171.493164	72257.945313
1170.375977	72427.445313
1169.257813	72527.296875
1168.139648	71818.484375
1167.022461	71353.335938
1165.903320	71796.648438
1164.785156	71525.031250
1163.666992	71809.578125
1162.547852	71053.742188
1161.428711	71540.203125
1160.309570	70361.343750
1159.189453	70713.171875
1158.070313	71173.382813
1156.950195	70808.890625
1155.830078	70474.914063
1154.709961	70635.578125
1153.588867	70850.398438
1152.468750	70338.789063
1151.347656	70562.250000
1150.226563	70087.718750
1149.104492	70458.492188
1147.983398	70218.140625
1146.861328	70103.515625
1145.739258	69923.960938
1144.617188	70712.414063
1143.495117	70677.859375
1142.372070	71385.789063
1141.250000	71413.882813
1140.126953	71149.835938
1139.003906	71861.609375
1137.879883	71595.414063
1136.756836	71891.609375
1135.632813	71867.671875
1134.508789	71543.242188
1133.384766	71809.007813
1132.259766	71929.882813
1131.135742	71352.804688
1130.010742	71741.593750
1128.885742	71344.031250
1127.759766	71475.687500
1126.634766	70817.054688
1125.508789	71702.148438
1124.382813	70877.515625
1123.256836	70959.523438
1122.130859	71009.125000
1121.003906	70931.437500
1119.877930	70666.132813
1118.750977	70055.914063
1117.624023	69702.468750
1116.496094	70442.023438
1115.369141	70330.015625
1114.241211	69787.078125
1113.113281	69987.609375
1111.985352	69647.414063
1110.856445	70153.695313
1109.728516	69841.578125
1108.599609	69615.679688
1107.470703	70048.500000
1106.340820	69295.398438
1105.211914	69074.015625
1104.082031	68835.507813
1102.952148	69485.382813
1101.822266	69414.609375
1100.692383	69094.453125
1099.561523	69255.937500
1098.431641	69593.601563
1097.300781	69552.937500
1096.169922	69499.390625
1095.038086	68958.242188
1093.907227	69216.242188
1092.775391	68849.265625
1091.643555	68727.179688
1090.511719	68499.945313
1089.378906	68382.250000
1088.246094	67966.335938
1087.114258	68039.710938
1085.980469	67692.648438
1084.847656	67622.351563
1083.714844	68006.640625
1082.581055	67498.976563
1081.447266	67345.156250
1080.313477	67450.695313
1079.179688	67309.789063
1078.044922	67003.976563
1076.910156	67008.843750
1075.775391	66645.375000
1074.640625	67669.429688
1073.505859	67398.023438
1072.370117	66623.750000
1071.234375	66395.414063
1070.098633	66832.539063
1068.962891	66768.960938
1067.826172	67047.585938
1066.690430	66150.054688
1065.553711	66683.093750
1064.416992	66677.289063
1063.279297	66030.343750
1062.142578	66189.179688
1061.004883	66194.140625
1059.867188	66126.476563
1058.729492	66742.203125
1057.590820	65965.585938
1056.453125	65831.812500
1055.314453	65851.757813
1054.175781	65982.656250
1053.037109	65716.664063
1051.897461	65674.750000
1050.757813	65423.832031
1049.618164	65863.906250
1048.478516	65998.937500
1047.338867	65886.640625
1046.199219	65929.968750
1045.058594	66009.507813
1043.917969	65528.695313
1042.777344	65757.367188
1041.635742	65919.937500
1040.495117	66167.617188
1039.353516	65555.125000
1038.211914	65783.617188
1037.069336	65403.382813
1035.927734	65778.625000
1034.785156	65128.355469
1033.642578	65665.148438
1032.500000	65206.523438
1031.357422	65334.878906
1030.213867	65582.226563
1029.071289	65534.058594
1027.927734	65995.898438
1026.783203	65199.804688
1025.639648	65206.949219
1024.495117	65458.332031
1023.351563	65783.937500
1022.207031	65861.023438
1021.061523	65730.054688
1019.916992	65622.484375
1018.771484	65837.468750
1017.625977	65695.960938
1016.480469	65683.898438
1015.334961	66051.429688
1014.188477	65994.773438
1013.041992	66088.640625
1011.895508	65767.046875
1010.749023	65771.914063
1009.602539	65776.773438
1008.455078	65449.050781
1007.307617	65413.722656
1006.160156	65878.156250
1005.012695	65618.335938
1003.864258	66025.398438
1002.716797	66538.132813
1001.568359	66176.757813
1000.419922	66841.593750
999.270508	66342.796875
998.122070	66967.171875
996.972656	67206.476563
995.823242	66809.351563
994.673828	66906.976563
993.523438	67038.375000
992.373047	66559.085938
991.222656	66819.359375
990.072266	66982.375000
988.921875	66997.507813
987.771484	67090.750000
986.620117	66905.304688
985.468750	66730.476563
984.317383	66967.203125
983.165039	67602.593750
982.013672	67180.921875
980.861328	67145.359375
979.708984	66934.781250
978.555664	66374.312500
977.403320	67074.554688
976.250000	66819.851563
975.096680	67094.109375
973.943359	67056.476563
972.790039	67029.382813
971.635742	67431.914063
970.481445	67086.820313
969.327148	66695.531250
968.172852	67131.562500
967.018555	67512.718750
965.863281	67313.031250
964.708008	67041.882813
963.552734	67012.710938
962.397461	67034.007813
961.241211	67244.515625
960.084961	66973.570313
958.929688	66841.437500
957.772461	66900.562500
956.616211	66993.281250
955.458984	67071.257813
954.301758	67016.890625
953.144531	66511.101563
951.987305	66830.539063
950.830078	66553.750000
949.671875	66751.335938
948.513672	66063.414063
947.355469	66116.265625
946.196289	65697.171875
945.038086	65766.843750
943.878906	65930.835938
942.719727	65975.203125
941.560547	66019.570313
940.400391	66063.968750
939.241211	66108.335938
938.081055	66152.742188
936.919922	66197.179688
935.759766	65627.984375
934.599609	65934.093750
933.438477	66191.945313
932.277344	65813.492188
931.116211	66194.718750
929.954102	66347.765625
928.791992	66312.515625
927.630859	66423.656250
926.467773	66469.945313
925.305664	67268.765625
924.143555	67599.125000
922.980469	67262.742188
921.817383	67657.734375
920.654297	67409.195313
919.490234	68113.117188
918.327148	67674.554688
917.163086	68232.015625
915.999023	68979.218750
914.833984	68597.078125
913.669922	68805.585938
912.504883	69051.570313
911.339844	69804.312500
910.174805	69466.085938
909.008789	70291.445313
907.843750	71047.703125
906.677734	70867.828125
905.511719	70904.750000
904.345703	70320.765625
903.178711	70182.781250
902.011719	70353.093750
900.844727	70023.570313
899.677734	69887.789063
898.510742	69554.304688
897.342773	69591.390625
896.174805	69761.640625
895.006836	69530.296875
893.838867	69382.234375
892.670898	69005.468750
891.501953	69084.195313
890.333008	69119.234375
889.164063	69852.632813
887.994141	69164.320313
886.825195	68825.320313
885.655273	68814.671875
884.485352	69497.726563
883.315430	68868.125000
882.144531	68950.882813
880.973633	69973.960938
879.803711	69471.210938
878.631836	69568.335938
877.460938	69831.390625
876.289063	70225.031250
875.118164	70236.914063
873.945313	70854.265625
872.773438	70677.375000
871.601563	70989.710938
870.428711	70512.359375
869.255859	71069.101563
868.083008	71246.531250
866.910156	70993.078125
865.736328	70779.062500
864.562500	71685.234375
863.388672	71253.804688
862.214844	72000.179688
861.040039	72642.812500
859.866211	73154.859375
858.691406	73184.750000
857.516602	73032.625000
856.340820	72231.273438
855.166016	72430.835938
853.990234	72117.695313
852.814453	72071.265625
851.637695	71739.710938
850.461914	72288.328125
849.285156	72047.726563
848.108398	71922.859375
846.931641	72124.257813
845.754883	72079.921875
844.577148	72580.484375
843.399414	73419.273438
842.221680	73614.039063
841.043945	74243.984375
839.865234	74803.570313
838.687500	75474.289063
837.508789	76332.367188
836.329102	77010.796875
835.150391	78016.648438
833.970703	77398.445313
832.791992	77629.242188
831.611328	77027.820313
830.431641	76447.210938
829.251953	75724.742188
828.071289	75076.648438
826.890625	73949.226563
825.709961	73602.140625
824.528320	73234.601563
823.347656	72817.820313
822.166016	72358.007813
820.984375	71990.898438
819.801758	71352.531250
818.620117	71557.171875
817.437500	70851.304688
816.254883	70774.453125
815.072266	70568.203125
813.888672	69984.085938
812.706055	69999.835938
811.522461	70052.539063
810.338867	69509.890625
809.154297	69774.070313
807.970703	69590.789063
806.786133	69151.101563
805.601563	69189.539063
804.416992	69033.117188
803.231445	69133.078125
802.045898	68818.851563
800.861328	68685.125000
799.674805	68785.078125
798.489258	68571.492188
797.302734	67864.250000
796.117188	68230.570313
794.930664	67398.726563
793.743164	67292.007813
792.556641	67013.367188
791.369141	67467.578125
790.181641	67148.078125
788.994141	66765.265625
787.805664	66683.296875
786.618164	66149.359375
785.429688	66378.351563
784.241211	66392.585938
783.052734	66398.632813
781.863281	65985.718750
780.673828	65820.187500
779.484375	65705.796875
778.294922	65370.847656
777.105469	65289.250000
775.915039	65123.964844
774.724609	64958.742188
773.534180	65344.660156
772.343750	65238.628906
771.152344	65306.058594
769.960938	65506.058594
768.769531	65400.046875
767.578125	65489.832031
766.385742	65683.554688
765.194336	66201.312500
764.001953	66164.531250
762.808594	66470.085938
761.616211	66995.554688
760.422852	66763.093750
759.230469	67451.218750
758.037109	67742.039063
756.842773	67686.671875
755.649414	68085.210938
754.455078	68170.210938
753.260742	69089.367188
752.066406	68574.039063
750.871094	67519.929688
749.676758	67519.546875
748.481445	67352.453125
747.286133	67120.367188
746.089844	66317.281250
744.894531	65829.445313
743.698242	66089.406250
742.501953	65183.359375
741.304688	65197.609375
740.108398	65169.214844
738.911133	64956.085938
737.713867	64564.425781
736.516602	64300.753906
735.319336	64444.992188
734.121094	64011.035156
732.922852	64169.464844
731.724609	63715.441406
730.526367	64009.695313
729.327148	63742.351563
728.127930	62725.238281
726.928711	63323.449219
725.729492	63572.976563
724.530273	63129.679688
723.330078	62984.242188
722.129883	63472.609375
720.929688	62406.054688
719.728516	62795.164063
718.528320	62372.644531
717.327148	62569.402344
716.125977	62909.707031
714.923828	62800.882813
713.722656	62402.933594
712.520508	62358.937500
711.318359	62511.023438
710.116211	62473.082031
708.913086	62259.355469
707.710938	62267.933594
706.507813	62411.832031
705.304688	62379.984375
704.100586	62541.976563
702.897461	62477.808594
701.693359	62353.109375
700.489258	61725.980469
699.284180	62239.023438
698.080078	62108.382813
696.875000	61943.496094
695.669922	62262.625000
694.464844	62031.234375
693.258789	62094.226563
692.053711	62197.496094
690.847656	62089.152344
689.641602	61996.964844
688.434570	62331.820313
687.228516	62300.031250
686.021484	62501.812500
684.814453	62755.855469
683.607422	61995.394531
682.399414	62462.738281
681.191406	62487.273438
679.983398	62672.722656
678.775391	62888.265625
677.567383	62739.769531
676.358398	63128.113281
675.149414	62965.550781
673.940430	63283.363281
672.730469	63042.460938
671.521484	63243.617188
670.311523	63185.585938
669.101563	63256.101563
667.890625	62914.980469
666.680664	62477.628906
665.469727	62764.992188
664.258789	61862.273438
663.047852	62560.929688
661.835938	62135.996094
660.625000	62010.046875
659.413086	62058.593750
658.201172	62127.167969
656.988281	61512.203125
655.776367	61644.976563
654.563477	61605.382813
653.350586	62036.578125
652.136719	61716.507813
650.923828	61040.097656
649.709961	61637.332031
648.496094	61942.070313
647.282227	61300.015625
646.067383	61408.597656
644.852539	61235.035156
643.637695	61577.617188
642.422852	61380.085938
641.208008	61124.636719
639.992188	61429.054688
638.776367	61583.445313
637.560547	61637.851563
636.344727	61296.617188
635.127930	61269.144531
633.911133	61848.867188
632.694336	61755.398438
631.477539	60813.417969
630.259766	60935.761719
629.042969	61105.957031
627.825195	61206.242188
626.606445	61240.652344
625.388672	60850.175781
624.169922	60707.136719
622.951172	60506.324219
621.732422	60849.832031
620.513672	60236.472656
619.293945	60512.136719
618.074219	60219.847656
616.854492	60427.679688
615.634766	60081.734375
614.414063	59923.101563
613.193359	60742.085938
611.972656	60177.304688
610.751953	60446.628906
609.530273	59927.875000
608.309570	59982.277344
607.087891	59710.449219
605.866211	60295.851563
604.643555	60061.839844
603.420898	60438.214844
602.198242	60184.378906
600.975586	60357.890625
599.752930	60098.199219
598.529297	59735.304688
597.305664	59785.656250
596.082031	59635.425781
594.858398	59763.199219
593.633789	60002.078125
592.410156	59794.332031
591.185547	59818.812500
589.959961	59353.269531
588.735352	59637.656250
587.509766	59184.214844
586.284180	59299.988281
585.058594	59144.128906
583.832031	59434.277344
582.606445	59365.640625
581.379883	59320.796875
580.153320	59729.593750
578.925781	59546.058594
577.699219	59192.300781
576.471680	58822.832031
575.244141	59862.832031
574.015625	59121.316406
572.788086	59228.914063
571.559570	59795.433594
570.331055	59707.046875
569.101563	59351.726563
567.873047	59342.539063
566.643555	59246.375000
565.414063	59225.343750
564.184570	59110.792969
562.954102	58996.148438
561.724609	58881.593750
560.494141	58766.953125
559.263672	58652.308594
558.032227	58876.199219
556.800781	58920.382813
555.570313	58455.402344
554.337891	58529.238281
553.106445	58666.175781
551.874023	58033.843750
550.642578	58084.050781
549.409180	57966.648438
548.176758	58277.039063
546.944336	57936.933594
545.710938	58071.835938
544.477539	57572.316406
543.243164	57208.890625
542.009766	57133.125000
540.775391	57529.941406
539.541016	57542.726563
538.306641	57470.871094
537.071289	57371.488281
535.836914	57435.441406
534.601563	57395.113281
533.366211	57158.117188
532.129883	57074.589844
530.894531	57344.972656
529.658203	57275.195313
528.421875	56763.250000
527.184570	57006.023438
525.948242	57254.597656
524.710938	56988.460938
523.473633	56846.140625
522.235352	56519.308594
520.998047	57287.984375
519.759766	56782.582031
518.521484	56730.664063
517.283203	56506.113281
516.043945	56768.113281
514.804688	56945.679688
513.565430	56327.078125
512.326172	56163.535156
511.085938	56435.191406
509.846680	56840.007813
508.606445	56406.058594
507.366211	56109.402344
506.125000	56457.242188
504.883789	56103.890625
503.643555	56271.468750
502.401367	56184.503906
501.160156	55903.812500
499.917969	56220.039063
498.675781	55986.394531
497.433594	55921.054688
496.191406	55507.628906
494.948242	55763.070313
493.705078	55496.441406
492.461914	55753.734375
491.218750	55502.839844
489.975586	55308.699219
488.731445	55370.527344
487.487305	55164.761719
486.242188	55082.085938
484.998047	55110.726563
483.752930	55463.382813
482.507813	55115.273438
481.262695	55083.394531
480.016602	55084.691406
478.771484	54658.824219
477.525391	55091.171875
476.278320	55174.347656
475.032227	55454.378906
473.785156	55426.351563
472.538086	55579.562500
471.291016	55325.515625
470.043945	55453.359375
468.795898	55205.269531
467.547852	55736.148438
466.299805	55939.757813
465.051758	55923.335938
463.802734	55778.480469
462.553711	56600.691406
461.304688	56640.562500
460.055664	56322.542969
458.805664	56778.593750
457.555664	57222.800781
456.305664	57561.871094
455.055664	57626.773438
453.804688	57497.335938
452.553711	57288.292969
451.302734	58520.585938
450.051758	58478.437500
448.799805	59030.449219
447.548828	59568.660156
446.296875	59419.578125
445.043945	60203.957031
443.791992	60308.968750
442.539063	60196.679688
441.286133	60334.617188
440.033203	59735.644531
438.779297	59092.308594
437.526367	58330.972656
436.272461	57473.023438
435.017578	57002.917969
433.763672	56257.898438
432.508789	56334.402344
431.253906	56037.121094
429.999023	55499.871094
428.744141	55326.746094
427.488281	55598.832031
426.232422	55102.597656
424.976563	55202.429688
423.720703	55201.640625
422.463867	54725.093750
421.207031	54933.214844
419.950195	54907.332031
418.693359	54767.421875
417.435547	54503.882813
416.177734	54236.574219
414.919922	54516.050781
413.662109	54575.242188
412.403320	54580.339844
411.144531	54888.546875
409.885742	54600.175781
408.626953	54557.007813
407.367188	54473.335938
406.107422	54659.777344
404.847656	54633.976563
403.587891	54766.316406
402.327148	54335.597656
401.067383	54259.746094
