#Wave		#Intensity
2001.221680	42571.832031
2000.251953	42571.832031
1999.282227	42571.832031
1998.312500	42571.832031
1997.342773	42571.832031
1996.372070	42571.832031
1995.402344	42571.832031
1994.431641	42571.832031
1993.460938	42571.832031
1992.490234	42571.832031
1991.518555	42571.832031
1990.547852	42571.832031
1989.576172	42571.832031
1988.604492	42571.832031
1987.632813	42571.832031
1986.661133	42571.832031
1985.689453	42571.832031
1984.716797	42571.832031
1983.745117	42744.328125
1982.772461	42666.898438
1981.799805	42611.976563
1980.827148	42152.433594
1979.853516	42359.839844
1978.880859	42649.570313
1977.907227	42345.039063
1976.933594	42574.761719
1975.959961	42397.621094
1974.986328	42924.171875
1974.011719	42063.476563
1973.038086	42512.578125
1972.063477	42255.761719
1971.088867	42248.375000
1970.114258	42131.296875
1969.138672	42261.023438
1968.164063	42024.359375
1967.188477	42358.371094
1966.212891	41954.859375
1965.237305	42542.824219
1964.261719	42433.277344
1963.286133	41987.628906
1962.309570	42438.355469
1961.333984	42025.214844
1960.357422	42513.101563
1959.380859	41706.957031
1958.404297	42747.003906
1957.426758	42371.402344
1956.450195	42254.566406
1955.472656	42637.546875
1954.495117	42592.796875
1953.517578	42242.335938
1952.540039	42610.199219
1951.561523	42605.230469
1950.583008	42418.906250
1949.605469	42610.191406
1948.626953	42654.882813
1947.647461	42088.750000
1946.668945	43066.949219
1945.690430	42756.593750
1944.710938	42801.226563
1943.731445	42682.078125
1942.751953	42610.105469
1941.772461	42714.261719
1940.791992	43081.253906
1939.812500	42815.843750
1938.832031	42676.957031
1937.851563	42352.218750
1936.871094	42592.621094
1935.890625	42818.070313
1934.909180	42939.394531
1933.928711	43350.464844
1932.947266	42926.828125
1931.965820	42991.113281
1930.984375	43013.292969
1930.002930	42750.816406
1929.020508	43107.109375
1928.038086	42743.261719
1927.056641	42458.699219
1926.074219	42587.300781
1925.090820	42782.621094
1924.108398	42508.089844
1923.125000	42856.625000
1922.142578	42918.324219
1921.159180	42975.054688
1920.175781	42900.808594
1919.191406	42720.363281
1918.208008	43411.871094
1917.223633	42631.300781
1916.240234	42710.246094
1915.255859	43070.589844
1914.271484	42717.488281
1913.286133	43013.535156
1912.301758	43260.132813
1911.316406	42941.714844
1910.331055	42650.539063
1909.345703	43155.996094
1908.360352	43086.789063
1907.375000	43002.812500
1906.388672	42817.808594
1905.402344	43465.808594
1904.416016	43317.742188
1903.429688	43253.484375
1902.443359	43088.261719
1901.457031	43430.390625
1900.469727	43481.863281
1899.482422	43080.359375
1898.495117	43451.839844
1897.507813	43370.390625
1896.520508	43146.261719
1895.532227	42759.847656
1894.543945	43219.664063
1893.556641	43101.417969
1892.568359	43022.546875
1891.579102	43162.496094
1890.590820	43265.519531
1889.601563	43805.929688
1888.613281	43577.113281
1887.624023	43689.832031
1886.634766	43490.585938
1885.644531	43581.175781
1884.655273	43426.207031
1883.665039	43639.519531
1882.674805	43425.687500
1881.684570	43717.445313
1880.694336	43636.160156
1879.704102	43787.949219
1878.712891	43454.050781
1877.722656	43630.335938
1876.731445	43470.660156
1875.740234	43781.707031
1874.748047	43563.230469
1873.756836	43256.613281
1872.764648	43881.140625
1871.773438	43422.691406
1870.781250	43973.488281
1869.788086	44195.945313
1868.795898	43647.089844
1867.803711	43796.089844
1866.810547	43859.371094
1865.817383	44093.921875
1864.824219	44174.250000
1863.831055	44009.929688
1862.837891	43909.253906
1861.843750	43987.121094
1860.849609	44204.324219
1859.855469	44411.667969
1858.861328	44081.242188
1857.867188	43821.796875
1856.872070	44207.449219
1855.877930	44575.863281
1854.882813	43967.207031
1853.887695	44679.839844
1852.892578	44295.992188
1851.896484	44317.496094
1850.901367	44575.730469
1849.905273	44231.140625
1848.909180	44652.761719
1847.913086	44781.507813
1846.916992	44580.957031
1845.919922	44414.613281
1844.923828	44423.863281
1843.926758	44542.804688
1842.929688	44773.812500
1841.932617	44741.566406
1840.935547	44818.964844
1839.937500	45225.183594
1838.939453	45304.898438
1837.942383	44902.445313
1836.943359	44643.777344
1835.945313	44945.062500
1834.947266	45046.671875
1833.948242	45109.308594
1832.949219	44899.433594
1831.951172	45178.562500
1830.951172	45185.199219
1829.952148	45257.488281
1828.953125	45305.437500
1827.953125	45465.183594
1826.953125	45396.417969
1825.953125	44902.437500
1824.953125	45176.351563
1823.952148	45185.398438
1822.952148	45400.875000
1821.951172	45176.765625
1820.950195	45457.714844
1819.949219	45578.355469
1818.948242	45458.687500
1817.946289	45686.046875
1816.945313	45517.878906
1815.943359	45298.828125
1814.941406	45145.332031
1813.939453	45166.472656
1812.936523	45340.339844
1811.934570	45725.027344
1810.931641	45770.285156
1809.928711	45430.257813
1808.925781	45737.191406
1807.921875	45709.753906
1806.918945	45527.324219
1805.915039	45737.222656
1804.912109	46198.820313
1803.908203	45922.000000
1802.903320	46037.328125
1801.899414	45613.027344
1800.894531	46098.507813
1799.890625	45867.847656
1798.885742	45929.890625
1797.880859	46110.390625
1796.875000	46334.343750
1795.870117	46094.128906
1794.864258	46272.082031
1793.858398	46193.847656
1792.852539	46316.152344
1791.846680	46735.507813
1790.840820	46282.906250
1789.833984	46586.214844
1788.828125	46322.101563
1787.821289	46700.117188
1786.814453	46884.937500
1785.806641	46324.121094
1784.799805	46837.027344
1783.791992	47002.425781
1782.784180	46793.968750
1781.776367	46990.656250
1780.768555	46627.988281
1779.760742	46930.683594
1778.751953	46548.871094
1777.743164	46812.917969
1776.735352	46770.925781
1775.725586	47080.601563
1774.716797	47038.574219
1773.708008	47516.628906
1772.698242	46872.710938
1771.688477	47040.132813
1770.678711	47356.699219
1769.668945	47574.500000
1768.659180	47366.433594
1767.648438	47778.972656
1766.637695	47472.343750
1765.626953	47495.210938
1764.616211	47318.546875
1763.605469	48069.687500
1762.593750	47703.140625
1761.583008	47776.398438
1760.571289	47770.359375
1759.559570	47877.203125
1758.547852	47950.390625
1757.535156	48371.683594
1756.523438	48401.542969
1755.510742	47970.570313
1754.498047	48319.640625
1753.485352	48596.609375
1752.472656	48261.781250
1751.458984	48373.167969
1750.445313	49177.527344
1749.432617	49012.992188
1748.417969	49064.253906
1747.404297	49410.289063
1746.390625	48893.542969
1745.375977	49385.628906
1744.361328	49400.847656
1743.346680	49581.316406
1742.332031	49373.796875
1741.317383	49582.929688
1740.302734	50352.121094
1739.287109	50525.105469
1738.271484	50434.812500
1737.255859	50760.832031
1736.240234	50629.859375
1735.223633	51242.718750
1734.208008	51350.820313
1733.191406	51353.687500
1732.174805	52135.804688
1731.158203	52750.347656
1730.140625	52664.546875
1729.124023	53262.050781
1728.106445	53357.722656
1727.088867	53446.195313
1726.071289	53919.074219
1725.053711	54384.617188
1724.035156	54592.203125
1723.017578	54444.117188
1721.999023	54675.476563
1720.980469	55047.503906
1719.961914	55001.980469
1718.942383	55419.128906
1717.923828	55349.703125
1716.904297	55549.691406
1715.884766	56114.296875
1714.865234	56068.609375
1713.844727	55827.554688
1712.825195	55546.078125
1711.804688	55981.652344
1710.784180	55402.566406
1709.763672	55302.269531
1708.743164	55456.734375
1707.722656	55680.167969
1706.701172	55299.054688
1705.679688	55141.734375
1704.658203	55153.375000
1703.636719	54972.347656
1702.615234	55064.863281
1701.592773	54444.039063
1700.571289	54588.910156
1699.548828	54712.335938
1698.526367	54657.484375
1697.502930	54281.894531
1696.480469	54400.550781
1695.457031	54257.898438
1694.433594	54502.371094
1693.410156	54013.097656
1692.386719	54174.441406
1691.363281	54307.242188
1690.338867	54596.613281
1689.314453	54155.113281
1688.290039	54238.023438
1687.265625	54792.886719
1686.241211	54470.148438
1685.215820	53651.996094
1684.191406	54894.109375
1683.166016	54592.851563
1682.140625	54749.042969
1681.115234	54883.851563
1680.088867	55421.316406
1679.062500	54613.324219
1678.037109	55370.863281
1677.010742	55394.183594
1675.983398	55531.113281
1674.957031	55298.785156
1673.930664	55537.433594
1672.903320	55818.582031
1671.875977	55423.097656
1670.848633	55344.675781
1669.820313	55571.312500
1668.792969	56081.574219
1667.764648	55875.421875
1666.736328	55993.121094
1665.708008	56252.554688
1664.679688	56731.613281
1663.651367	56492.410156
1662.622070	56692.570313
1661.592773	56739.171875
1660.563477	56717.289063
1659.534180	57134.453125
1658.504883	57289.503906
1657.474609	57680.460938
1656.444336	57285.667969
1655.415039	57457.113281
1654.383789	57916.214844
1653.353516	57839.902344
1652.323242	57959.289063
1651.291992	57651.996094
1650.260742	58308.687500
1649.229492	58486.824219
1648.198242	57911.027344
1647.166016	58385.949219
1646.134766	59447.093750
1645.102539	59241.097656
1644.070313	59729.648438
1643.038086	59556.621094
1642.004883	59402.480469
1640.972656	59822.500000
1639.939453	59781.277344
1638.906250	60196.371094
1637.873047	60347.929688
1636.839844	60682.828125
1635.805664	60907.117188
1634.772461	61321.707031
1633.738281	61331.949219
1632.704102	62162.179688
1631.668945	62679.679688
1630.634766	62642.691406
1629.599609	63505.117188
1628.565430	63580.687500
1627.530273	63980.183594
1626.494141	64022.781250
1625.458984	65161.238281
1624.422852	66156.164063
1623.387695	66768.375000
1622.351563	68018.304688
1621.315430	69314.687500
1620.278320	70533.234375
1619.242188	72152.195313
1618.205078	74600.242188
1617.167969	75840.625000
1616.130859	78219.195313
1615.093750	80735.125000
1614.055664	82760.664063
1613.018555	84038.507813
1611.980469	85964.398438
1610.942383	86876.046875
1609.904297	87003.335938
1608.865234	86763.203125
1607.827148	85959.328125
1606.788086	83724.187500
1605.749023	81719.039063
1604.709961	79494.796875
1603.669922	77276.023438
1602.630859	75782.648438
1601.590820	74967.539063
1600.550781	73414.351563
1599.510742	72623.312500
1598.470703	71073.421875
1597.429688	70434.875000
1596.389648	70370.953125
1595.348633	69564.671875
1594.307617	69190.476563
1593.265625	69161.812500
1592.224609	68878.820313
1591.182617	68523.609375
1590.140625	68289.812500
1589.098633	68191.351563
1588.056641	68074.265625
1587.014648	68318.562500
1585.971680	68038.343750
1584.928711	67574.117188
1583.886719	68181.835938
1582.842773	67834.218750
1581.799805	68029.414063
1580.755859	68431.796875
1579.712891	67716.437500
1578.668945	68211.843750
1577.625000	68399.835938
1576.580078	68932.164063
1575.536133	68703.492188
1574.491211	69519.367188
1573.446289	69262.757813
1572.401367	69768.960938
1571.356445	70733.007813
1570.311523	70102.046875
1569.265625	71230.695313
1568.219727	70574.304688
1567.173828	70615.148438
1566.127930	70040.398438
1565.082031	70236.921875
1564.035156	69687.984375
1562.988281	69424.804688
1561.941406	68349.273438
1560.894531	68084.101563
1559.847656	68174.039063
1558.799805	68324.265625
1557.751953	68036.039063
1556.704102	67638.906250
1555.656250	67761.312500
1554.608398	67974.093750
1553.560547	67632.804688
1552.511719	67266.140625
1551.462891	67543.765625
1550.414063	67659.117188
1549.365234	67204.617188
1548.315430	67968.429688
1547.265625	67145.875000
1546.216797	67791.351563
1545.166992	67457.500000
1544.116211	66880.781250
1543.066406	67229.781250
1542.015625	67425.968750
1540.965820	67302.898438
1539.915039	67519.812500
1538.863281	67163.234375
1537.812500	67148.914063
1536.760742	66829.507813
1535.709961	66898.437500
1534.658203	66886.476563
1533.605469	66248.492188
1532.553711	66171.976563
1531.501953	65966.164063
1530.449219	65490.289063
1529.396484	65097.687500
1528.343750	64566.742188
1527.290039	64827.492188
1526.237305	64382.144531
1525.183594	64098.425781
1524.129883	64485.960938
1523.076172	64103.167969
1522.022461	63685.925781
1520.968750	63626.121094
1519.914063	63564.035156
1518.859375	63278.449219
1517.804688	62663.507813
1516.750000	63089.953125
1515.694336	62364.714844
1514.639648	62420.328125
1513.583984	62604.847656
1512.528320	62473.945313
1511.472656	62419.035156
1510.416016	62253.695313
1509.360352	62371.382813
1508.303711	62360.218750
1507.247070	62491.636719
1506.190430	62625.308594
1505.132813	61797.968750
1504.076172	61704.156250
1503.018555	61955.093750
1501.960938	61914.125000
1500.903320	61932.902344
1499.844727	61765.621094
1498.787109	61867.085938
1497.728516	61890.445313
1496.669922	62088.261719
1495.611328	61721.375000
1494.552734	60953.023438
1493.493164	61591.425781
1492.434570	61032.121094
1491.375000	60970.722656
1490.315430	60631.871094
1489.254883	60829.648438
1488.195313	60426.753906
1487.134766	60789.511719
1486.074219	60095.734375
1485.013672	60096.417969
1483.953125	60472.777344
1482.892578	60239.777344
1481.831055	60087.003906
1480.769531	60030.441406
1479.708008	59907.515625
1478.646484	60297.289063
1477.583984	59874.589844
1476.522461	59918.761719
1475.459961	59965.203125
1474.397461	60105.390625
1473.334961	60394.156250
1472.271484	59708.894531
1471.208984	60027.339844
1470.145508	59991.429688
1469.082031	59880.128906
1468.018555	60011.031250
1466.954102	59950.011719
1465.890625	59562.437500
1464.826172	60825.851563
1463.761719	60356.066406
1462.697266	60559.792969
1461.631836	59973.832031
1460.567383	60711.468750
1459.501953	60479.285156
1458.436523	60657.742188
1457.371094	60471.257813
1456.305664	60982.535156
1455.239258	60725.386719
1454.172852	60383.992188
1453.107422	60496.207031
1452.040039	60508.128906
1450.973633	60681.785156
1449.907227	60354.300781
1448.839844	60675.933594
1447.772461	60603.562500
1446.705078	60852.183594
1445.637695	60747.937500
1444.569336	60798.468750
1443.500977	60919.503906
1442.432617	61252.046875
1441.364258	61691.359375
1440.295898	61737.125000
1439.227539	61657.828125
1438.158203	62228.664063
1437.088867	62006.121094
1436.019531	62656.214844
1434.950195	62154.226563
1433.879883	62676.855469
1432.810547	63053.941406
1431.740234	63544.421875
1430.669922	63535.269531
1429.598633	63542.007813
1428.528320	63839.226563
1427.457031	64903.269531
1426.386719	64158.835938
1425.314453	64929.832031
1424.243164	64437.382813
1423.171875	64387.250000
1422.099609	65096.574219
1421.027344	64982.871094
1419.955078	65404.019531
1418.882813	65265.375000
1417.810547	65067.875000
1416.737305	65459.332031
1415.664063	64822.542969
1414.590820	65179.933594
1413.517578	65073.128906
1412.444336	64491.062500
1411.370117	64026.878906
1410.295898	64295.906250
1409.221680	64030.980469
1408.147461	63465.343750
1407.073242	63851.906250
1405.998047	63218.671875
1404.922852	63435.601563
1403.847656	63666.007813
1402.772461	63654.546875
1401.697266	63310.976563
1400.621094	63340.238281
1399.544922	63678.890625
1398.468750	64378.707031
1397.392578	63838.828125
1396.316406	64274.261719
1395.239258	64479.339844
1394.162109	65304.855469
1393.084961	65834.531250
1392.007813	66064.023438
1390.930664	67303.750000
1389.852539	67749.343750
1388.774414	68012.171875
1387.696289	68809.093750
1386.618164	68409.085938
1385.540039	69054.679688
1384.460938	69067.015625
1383.382813	68795.554688
1382.303711	68634.523438
1381.223633	69092.726563
1380.144531	69005.984375
1379.064453	68628.929688
1377.985352	68974.359375
1376.905273	69038.421875
1375.825195	68522.093750
1374.744141	68192.617188
1373.664063	67719.335938
1372.583008	68392.851563
1371.501953	68023.109375
1370.420898	67869.250000
1369.338867	67710.953125
1368.257813	67137.078125
1367.175781	67062.070313
1366.093750	67602.460938
1365.011719	67296.109375
1363.929688	67304.179688
1362.846680	68560.257813
1361.763672	68370.593750
1360.680664	68813.757813
1359.597656	68790.125000
1358.514648	68717.148438
1357.430664	68343.687500
1356.346680	68461.406250
1355.262695	67731.671875
1354.178711	67215.132813
1353.094727	66817.546875
1352.009766	66128.828125
1350.925781	65653.171875
1349.840820	65327.750000
1348.755859	64859.125000
1347.669922	64477.984375
1346.584961	63998.480469
1345.499023	63895.160156
1344.413086	63639.707031
1343.327148	63963.820313
1342.240234	63583.171875
1341.154297	63663.386719
1340.067383	63332.117188
1338.980469	63179.828125
1337.893555	63248.886719
1336.805664	63277.691406
1335.718750	63377.988281
1334.630859	63753.039063
1333.542969	63422.101563
1332.455078	63305.675781
1331.367188	63682.761719
1330.278320	63700.277344
1329.189453	63737.871094
1328.100586	63922.742188
1327.011719	64357.453125
1325.922852	64689.378906
1324.833008	65299.992188
1323.743164	65602.632813
1322.653320	65896.242188
1321.563477	66934.320313
1320.473633	68428.945313
1319.382813	68786.500000
1318.291992	69736.593750
1317.201172	70574.953125
1316.110352	71528.828125
1315.019531	71731.898438
1313.927734	73355.375000
1312.835938	73502.382813
1311.744141	73987.640625
1310.652344	73328.929688
1309.560547	72872.914063
1308.467773	72414.843750
1307.375000	71276.375000
1306.282227	70921.031250
1305.189453	70038.914063
1304.095703	69506.093750
1303.002930	69111.257813
1301.909180	68483.242188
1300.815430	68279.789063
1299.721680	67807.632813
1298.626953	67615.476563
1297.533203	67763.109375
1296.438477	67475.554688
1295.343750	67643.132813
1294.248047	67704.117188
1293.153320	67658.578125
1292.057617	68189.843750
1290.961914	68372.679688
1289.866211	68628.625000
1288.770508	68897.789063
1287.674805	69075.953125
1286.578125	68515.992188
1285.481445	68581.140625
1284.384766	68526.617188
1283.288086	68773.390625
1282.190430	68242.664063
1281.092773	68135.078125
1279.996094	68437.125000
1278.897461	67871.320313
1277.799805	67925.421875
1276.702148	66833.265625
1275.603516	67024.695313
1274.504883	66559.085938
1273.406250	66785.875000
1272.307617	65999.851563
1271.208008	66783.773438
1270.108398	66389.273438
1269.008789	65796.007813
1267.909180	65419.492188
1266.809570	65710.289063
1265.708984	65247.785156
1264.609375	65196.203125
1263.508789	64683.164063
1262.407227	65037.894531
1261.306641	64571.417969
1260.206055	65168.781250
1259.104492	64814.968750
1258.002930	64584.820313
1256.901367	64317.257813
1255.798828	63822.652344
1254.697266	63848.554688
1253.594727	63773.042969
1252.492188	63360.343750
1251.389648	63562.597656
1250.286133	63509.203125
1249.183594	63669.496094
1248.080078	63475.140625
1246.976563	63366.734375
1245.872070	63830.773438
1244.768555	63577.058594
1243.664063	63380.648438
1242.560547	63879.636719
1241.455078	63582.039063
1240.350586	64210.578125
1239.246094	64522.199219
1238.140625	64323.585938
1237.035156	63263.269531
1235.929688	63818.867188
1234.824219	63776.507813
1233.717773	63742.953125
1232.612305	63386.480469
1231.505859	62977.417969
1230.399414	62792.492188
1229.291992	63209.226563
1228.185547	63184.574219
1227.078125	62982.144531
1225.970703	62854.398438
1224.863281	62535.816406
1223.755859	62116.441406
1222.647461	62265.257813
1221.539063	62626.718750
1220.430664	62380.750000
1219.322266	62189.664063
1218.213867	62397.523438
1217.104492	61737.578125
1215.995117	61853.425781
1214.885742	61528.949219
1213.776367	61944.816406
1212.666992	61598.539063
1211.556641	61672.718750
1210.446289	61615.539063
1209.335938	62015.761719
1208.225586	61776.925781
1207.115234	61369.726563
1206.003906	61946.933594
1204.892578	61902.863281
1203.781250	62348.566406
1202.669922	62584.250000
1201.557617	62623.132813
1200.446289	62703.519531
1199.333984	62279.175781
1198.221680	62870.750000
1197.108398	63370.378906
1195.996094	63247.480469
1194.882813	63679.171875
1193.769531	64139.082031
1192.656250	63793.488281
1191.542969	64124.460938
1190.428711	64165.148438
1189.314453	63920.070313
1188.200195	63326.140625
1187.085938	62902.500000
1185.971680	62840.906250
1184.856445	63361.304688
1183.741211	62916.089844
1182.625977	62959.105469
1181.510742	62888.820313
1180.395508	63042.898438
1179.279297	63281.851563
1178.163086	63109.207031
1177.046875	63313.222656
1175.930664	63031.800781
1174.813477	63355.441406
1173.697266	62858.710938
1172.580078	62888.589844
1171.462891	63547.007813
1170.344727	62502.527344
1169.227539	62836.824219
1168.109375	62736.246094
1166.991211	62600.933594
1165.873047	62789.433594
1164.754883	62645.464844
1163.635742	62881.667969
1162.516602	62807.222656
1161.397461	62200.820313
1160.278320	62764.785156
1159.159180	62636.132813
1158.039063	62926.363281
1156.918945	62756.496094
1155.798828	62489.062500
1154.678711	62551.414063
1153.558594	62290.617188
1152.437500	62597.980469
1151.316406	62638.585938
1150.195313	62336.730469
1149.074219	62559.394531
1147.952148	62697.476563
1146.831055	62384.933594
1145.708984	62579.304688
1144.586914	62318.859375
1143.463867	62907.203125
1142.341797	63246.394531
1141.218750	63544.335938
1140.095703	63870.300781
1138.972656	63624.988281
1137.849609	63771.277344
1136.725586	63340.078125
1135.601563	64016.117188
1134.477539	64166.570313
1133.353516	64392.617188
1132.229492	63384.601563
1131.104492	64038.519531
1129.979492	63542.917969
1128.854492	63092.851563
1127.729492	63333.992188
1126.603516	62964.011719
1125.478516	63185.652344
1124.352539	62785.613281
1123.226563	62500.085938
1122.099609	62057.160156
1120.973633	62265.851563
1119.846680	62245.847656
1118.719727	61982.179688
1117.592773	61705.671875
1116.465820	61468.062500
1115.337891	61038.726563
1114.209961	61184.867188
1113.082031	61195.226563
1111.954102	60725.242188
1110.826172	60970.421875
1109.697266	60862.378906
1108.568359	60722.085938
1107.439453	60758.335938
1106.310547	60605.195313
1105.180664	61071.773438
1104.051758	60765.886719
1102.921875	60950.500000
1101.791992	60778.070313
1100.661133	60668.050781
1099.531250	60988.003906
1098.400391	60931.710938
1097.269531	60789.484375
1096.138672	61003.953125
1095.006836	60545.992188
1093.875977	61061.097656
1092.744141	60903.910156
1091.612305	60854.121094
1090.480469	60458.757813
1089.347656	59941.210938
1088.215820	59692.062500
1087.083008	60028.683594
1085.950195	59880.417969
1084.816406	60094.636719
1083.683594	59502.566406
1082.549805	59611.726563
1081.416016	59945.894531
1080.282227	59675.617188
1079.148438	59641.121094
1078.013672	59750.164063
1076.878906	59679.253906
1075.744141	59792.523438
1074.609375	59160.679688
1073.474609	59565.125000
1072.338867	59802.480469
1071.203125	59346.437500
1070.067383	59025.347656
1068.931641	59271.218750
1067.794922	59442.148438
1066.659180	59234.535156
1065.522461	59460.988281
1064.385742	58971.292969
1063.248047	59242.582031
1062.111328	59218.906250
1060.973633	59577.632813
1059.835938	59043.414063
1058.698242	59252.550781
1057.559570	59124.253906
1056.421875	59017.351563
1055.283203	59185.820313
1054.144531	59196.308594
1053.005859	59170.519531
1051.866211	59129.804688
1050.726563	58916.343750
1049.587891	59300.035156
1048.447266	59444.796875
1047.307617	59762.164063
1046.167969	59602.015625
1045.027344	59616.652344
1043.886719	59616.367188
1042.746094	59486.148438
1041.604492	59568.941406
1040.463867	59577.175781
1039.322266	59438.507813
1038.180664	59444.628906
1037.038086	59529.488281
1035.896484	58965.355469
1034.753906	58841.785156
1033.611328	59218.085938
1032.468750	58949.906250
1031.326172	59060.277344
1030.182617	58739.074219
1029.040039	59015.214844
1027.896484	58968.253906
1026.751953	59416.339844
1025.608398	58963.593750
1024.463867	59035.597656
1023.319336	59060.851563
1022.174805	58992.683594
1021.030273	58854.492188
1019.885742	59041.050781
1018.740234	59435.480469
1017.594727	59010.875000
1016.449219	58768.835938
1015.303711	58802.574219
1014.157227	59001.679688
1013.010742	59075.636719
1011.864258	59431.457031
1010.717773	59386.628906
1009.571289	58201.929688
1008.423828	59051.285156
1007.276367	58663.437500
1006.128906	58521.363281
1004.981445	58580.472656
1003.833008	59048.101563
1002.684570	59579.046875
1001.536133	59180.859375
1000.387695	59832.171875
999.239258	59584.261719
998.089844	59856.695313
996.941406	59706.132813
995.791992	59879.078125
994.641602	59861.722656
993.492188	59375.222656
992.341797	59465.718750
991.191406	59247.753906
990.041016	59467.078125
988.890625	59591.289063
987.739258	59312.179688
986.588867	59408.925781
985.437500	59009.648438
984.285156	59509.457031
983.133789	59606.105469
981.981445	59474.898438
980.829102	59309.992188
979.676758	58934.281250
978.524414	59501.093750
977.372070	59283.570313
976.218750	59211.539063
975.065430	59419.773438
973.912109	58837.917969
972.757813	59536.910156
971.604492	59176.363281
970.450195	59394.968750
969.295898	59358.769531
968.141602	59589.882813
966.986328	59360.054688
965.832031	60058.160156
964.676758	59986.093750
963.521484	59714.246094
962.365234	60018.667969
961.209961	59805.773438
960.053711	60114.265625
958.897461	60019.121094
957.741211	60039.582031
956.584961	60209.191406
955.427734	60429.152344
954.270508	59941.289063
953.113281	59663.574219
951.956055	60122.828125
950.797852	59509.347656
949.639648	59534.050781
948.481445	59128.617188
947.323242	59317.007813
946.165039	59677.308594
945.005859	59395.789063
943.847656	59345.000000
942.687500	59503.851563
941.528320	58774.000000
940.369141	59368.746094
939.208984	59079.152344
938.048828	58785.468750
936.888672	58900.281250
935.728516	59123.933594
934.567383	59023.003906
933.406250	58754.656250
932.245117	59354.902344
931.083984	59291.636719
929.922852	59556.839844
928.760742	59409.890625
927.598633	59442.843750
926.436523	59446.507813
925.274414	59640.394531
924.111328	59221.824219
922.948242	60027.953125
921.785156	60067.015625
920.622070	59727.964844
919.458984	60257.863281
918.294922	60194.531250
917.130859	60187.589844
915.966797	60543.851563
914.802734	60586.929688
913.637695	60650.855469
912.472656	60871.218750
911.307617	60910.035156
910.142578	61234.539063
908.977539	61450.496094
907.811523	61851.902344
906.645508	61825.882813
905.479492	61776.949219
904.313477	61361.332031
903.146484	61177.093750
901.980469	61755.203125
900.813477	61350.222656
899.646484	60980.785156
898.478516	60846.699219
897.311523	60675.199219
896.143555	60487.113281
894.975586	61239.445313
893.806641	60845.394531
892.638672	61075.382813
891.469727	60459.019531
890.300781	60553.863281
889.131836	60594.625000
887.962891	60629.136719
886.792969	60258.472656
885.623047	60137.226563
884.453125	60664.039063
883.283203	60615.437500
882.112305	60460.964844
880.942383	60763.222656
879.771484	61175.367188
878.600586	61271.949219
877.428711	61225.343750
876.257813	61796.882813
875.085938	61410.070313
873.914063	61827.921875
872.741211	62042.445313
871.569336	62219.582031
870.396484	62004.972656
869.223633	62084.660156
868.050781	62118.738281
866.877930	62092.738281
865.704102	62315.242188
864.530273	62703.296875
863.356445	63534.199219
862.182617	63981.898438
861.007813	64081.789063
859.833984	64303.707031
858.659180	64306.273438
857.484375	64499.105469
856.308594	63827.542969
855.133789	63743.359375
853.958008	63599.261719
852.782227	63616.406250
851.605469	63212.035156
850.429688	62919.367188
849.252930	63415.808594
848.076172	63399.925781
846.899414	64137.656250
845.722656	63221.597656
844.544922	63696.964844
843.367188	64042.148438
842.189453	63885.855469
841.011719	64274.187500
839.833008	64893.363281
838.655273	65411.269531
837.476563	65487.789063
836.296875	66137.304688
835.118164	67202.875000
833.938477	66539.296875
832.758789	65779.132813
831.579102	65297.312500
830.399414	65027.781250
829.219727	64523.625000
828.039063	63900.257813
826.858398	62657.601563
825.677734	62765.324219
824.496094	62296.929688
823.315430	61787.562500
822.133789	61570.425781
820.952148	61092.222656
819.769531	61553.738281
818.587891	60995.542969
817.405273	60922.566406
816.222656	60578.382813
815.040039	60339.101563
813.856445	60138.929688
812.673828	60000.437500
811.490234	60896.824219
810.305664	60286.082031
809.122070	60660.750000
807.938477	60585.867188
806.753906	61091.644531
805.569336	60700.800781
804.383789	60691.574219
803.199219	60629.035156
802.013672	60705.925781
800.828125	60428.171875
799.642578	60324.718750
798.457031	59952.878906
797.270508	59894.617188
796.083984	59234.179688
794.897461	58817.687500
793.710938	58892.750000
792.523438	59172.496094
791.336914	58502.441406
790.149414	58329.898438
788.961914	58838.738281
787.773438	58279.574219
786.585938	58332.136719
785.397461	58167.925781
784.208984	57654.167969
783.019531	57645.488281
781.831055	57912.710938
780.641602	57671.042969
779.452148	57472.363281
778.262695	57527.035156
777.072266	57404.011719
775.882813	57403.539063
774.692383	57392.859375
773.501953	57286.250000
772.310547	57387.828125
771.120117	57220.042969
769.928711	56934.007813
768.737305	57508.753906
767.544922	57404.250000
766.353516	57607.636719
765.161133	57393.070313
763.968750	57700.316406
762.776367	58633.000000
761.583984	58163.699219
760.390625	58566.355469
759.197266	58775.390625
758.003906	58579.160156
756.810547	59058.863281
755.616211	58858.574219
754.421875	59618.867188
753.227539	59410.406250
752.033203	59425.785156
750.838867	59042.519531
749.643555	58901.375000
748.448242	58506.148438
747.252930	58505.410156
746.057617	58478.250000
744.861328	57922.789063
743.665039	57424.414063
742.468750	57196.375000
741.272461	57683.265625
740.075195	56878.609375
738.878906	56920.789063
737.681641	56329.687500
736.484375	56613.433594
735.286133	56844.320313
734.087891	56839.808594
732.890625	56559.460938
731.691406	56305.578125
730.493164	56848.562500
729.294922	56456.875000
728.095703	56217.332031
726.896484	56202.792969
725.696289	56368.562500
724.497070	55845.589844
723.296875	56448.789063
722.096680	56318.796875
720.896484	56243.507813
719.696289	56107.523438
718.495117	56376.312500
717.293945	56116.929688
716.092773	56602.062500
714.891602	56073.738281
713.689453	56140.109375
712.487305	56388.414063
711.285156	56840.777344
710.083008	56387.570313
708.880859	57132.750000
707.677734	56861.472656
706.474609	57066.976563
705.271484	57036.125000
704.068359	56300.617188
702.864258	56895.718750
701.660156	56971.878906
700.456055	56803.835938
699.251953	56627.781250
698.046875	56613.167969
696.841797	56527.968750
695.636719	56860.203125
694.431641	57147.960938
693.226563	57490.031250
692.020508	56713.460938
690.814453	56870.101563
689.608398	56619.738281
688.402344	56433.917969
687.195313	56580.449219
685.988281	56541.683594
684.781250	56953.859375
683.574219	56256.878906
682.366211	56920.488281
681.158203	57000.382813
679.950195	57190.878906
678.742188	56693.476563
677.534180	57149.382813
676.325195	56626.031250
675.116211	56484.785156
673.907227	56950.515625
672.697266	56917.757813
671.488281	57170.281250
670.278320	57145.527344
669.068359	57114.750000
667.858398	57009.699219
666.647461	56844.457031
665.436523	56928.148438
664.225586	56540.238281
663.014648	56517.621094
661.802734	56250.281250
660.591797	56129.445313
659.379883	56337.503906
658.167969	56130.484375
656.955078	56007.726563
655.743164	56834.937500
654.530273	56449.605469
653.317383	56875.753906
652.103516	56230.175781
650.890625	56163.574219
649.676758	56913.878906
648.462891	56508.863281
647.249023	57056.675781
646.034180	57224.082031
644.819336	57625.500000
643.604492	58364.816406
642.389648	58253.886719
641.174805	58430.929688
639.958984	58475.957031
638.743164	58175.171875
637.527344	58062.347656
636.311523	57274.222656
635.094727	57455.261719
633.877930	57202.820313
632.661133	56774.738281
631.444336	56570.425781
630.226563	56424.078125
629.008789	56004.359375
627.791016	55846.195313
626.573242	55676.117188
625.355469	55520.066406
624.136719	55148.679688
622.917969	55507.214844
621.699219	55606.449219
620.480469	55388.726563
619.260742	55527.796875
618.041016	55676.773438
616.821289	55869.519531
615.601563	55717.625000
614.380859	55701.195313
613.160156	55507.578125
611.939453	55445.406250
610.718750	55671.832031
609.497070	55717.097656
608.276367	55555.441406
607.054688	55566.890625
605.832031	55598.222656
604.610352	55259.710938
603.387695	55481.925781
602.165039	55223.058594
600.942383	55252.433594
599.719727	55196.359375
598.496094	55191.953125
597.272461	55197.476563
596.048828	55310.222656
594.825195	54841.218750
593.600586	55027.429688
592.375977	54949.617188
591.151367	54975.007813
589.926758	55238.449219
588.701172	55011.871094
587.476563	54922.210938
586.250977	55332.226563
585.024414	54739.015625
583.798828	54726.742188
582.572266	55098.910156
581.345703	55254.976563
580.119141	55040.558594
578.892578	55198.554688
577.665039	55301.042969
576.437500	54979.824219
575.209961	55309.941406
573.982422	55463.796875
572.753906	55611.656250
571.525391	55274.785156
570.296875	55369.214844
569.068359	55629.722656
567.838867	55486.789063
566.610352	55345.882813
565.380859	55438.242188
564.150391	55202.546875
562.920898	55265.257813
561.690430	55272.636719
560.459961	55627.593750
559.229492	55474.960938
557.999023	55316.453125
556.767578	55355.386719
555.536133	55339.046875
554.304688	55251.683594
553.073242	55525.347656
551.840820	55035.621094
550.608398	54861.585938
549.375977	55166.707031
548.143555	54931.601563
546.910156	54962.644531
545.676758	54843.917969
544.443359	55182.296875
543.209961	55236.902344
541.975586	55332.843750
540.742188	55131.429688
539.507813	54845.437500
538.272461	54854.785156
537.038086	55098.304688
535.802734	55408.625000
534.567383	55677.515625
533.332031	55427.078125
532.096680	55334.046875
530.860352	55309.855469
529.624023	56009.027344
528.387695	56004.363281
527.151367	55993.808594
525.914063	55967.535156
524.676758	55829.312500
523.439453	55828.605469
522.202148	55745.429688
520.963867	55691.730469
519.725586	55451.593750
518.487305	55325.359375
517.249023	55181.511719
516.009766	55357.453125
514.771484	55292.097656
513.532227	54922.835938
512.291992	54659.574219
511.052734	54945.234375
509.812500	54713.417969
508.572266	55055.777344
507.332031	55327.480469
506.090820	55172.101563
504.850586	55055.945313
503.609375	55501.738281
502.368164	55293.550781
501.125977	55404.457031
499.884766	55000.687500
498.642578	54855.312500
497.400391	54864.515625
496.157227	55081.011719
494.915039	55238.765625
493.671875	55511.796875
492.428711	55256.992188
491.184570	55502.554688
489.941406	55150.156250
488.697266	55479.636719
487.453125	55935.937500
486.208984	55493.824219
484.963867	55721.523438
483.718750	54897.027344
482.473633	55905.386719
481.228516	55781.652344
479.982422	55938.882813
478.737305	56189.675781
477.491211	56104.949219
476.244141	56726.066406
474.998047	56522.351563
473.750977	56396.675781
472.503906	56709.488281
471.256836	56505.886719
470.009766	57079.574219
468.761719	56692.906250
467.513672	57207.921875
466.265625	56655.890625
465.017578	56978.015625
463.768555	57128.761719
462.519531	57067.367188
461.270508	57519.562500
460.021484	57889.894531
458.771484	57528.914063
457.521484	57982.699219
456.271484	58261.363281
455.021484	58306.699219
453.770508	58081.921875
452.519531	58690.667969
451.268555	58904.875000
450.017578	59334.566406
448.765625	59618.464844
447.514648	59781.894531
446.262695	60595.468750
445.009766	60849.851563
443.757813	61457.246094
442.504883	61787.015625
441.251953	61825.742188
439.999023	61387.433594
438.745117	60654.605469
437.492188	59986.019531
436.238281	59610.316406
434.983398	58676.718750
433.729492	58634.609375
432.474609	57854.558594
431.219727	57438.867188
429.964844	57544.152344
428.709961	57008.652344
427.454102	56976.558594
426.198242	56462.648438
424.942383	56927.878906
423.685547	56897.742188
422.429688	56625.875000
421.172852	56311.570313
419.916016	56403.355469
418.658203	56568.550781
417.401367	56374.238281
416.143555	56632.113281
414.885742	56308.429688
413.626953	56411.703125
412.369141	56343.074219
411.110352	56861.382813
409.851563	56937.460938
408.591797	56411.371094
407.333008	56713.257813
406.073242	56175.832031
404.813477	56712.957031
403.553711	56472.710938
402.292969	56492.843750
401.032227	56204.531250
