#Wave		#Intensity
2001.110352	37915.289063
2000.140625	37998.003906
1999.170898	37851.031250
1998.201172	37964.691406
1997.231445	37835.312500
1996.261719	38019.066406
1995.291016	37907.246094
1994.320313	38156.019531
1993.349609	37946.582031
1992.378906	38147.703125
1991.408203	38181.082031
1990.436523	38319.535156
1989.464844	38207.773438
1988.494141	38188.593750
1987.522461	37836.816406
1986.549805	38195.257813
1985.578125	37963.593750
1984.606445	37889.476563
1983.633789	38187.738281
1982.661133	37973.683594
1981.688477	37692.250000
1980.715820	38085.300781
1979.742188	38218.492188
1978.769531	38136.910156
1977.795898	37878.109375
1976.822266	37918.910156
1975.848633	37957.203125
1974.875000	37987.996094
1973.900391	37991.335938
1972.925781	37697.859375
1971.952148	37820.945313
1970.977539	38023.777344
1970.002930	38049.539063
1969.027344	37973.097656
1968.052734	38068.632813
1967.077148	37750.523438
1966.101563	37905.847656
1965.125977	37874.312500
1964.150391	38308.476563
1963.174805	38092.625000
1962.198242	38051.113281
1961.221680	38186.328125
1960.245117	38017.894531
1959.268555	37804.730469
1958.291992	38116.542969
1957.315430	38191.953125
1956.337891	37971.406250
1955.360352	38156.214844
1954.382813	37500.703125
1953.405273	38207.488281
1952.427734	38248.019531
1951.449219	38074.851563
1950.471680	38197.371094
1949.493164	37922.437500
1948.514648	38084.667969
1947.536133	38222.011719
1946.556641	38518.183594
1945.578125	37967.875000
1944.598633	37941.375000
1943.619141	38274.652344
1942.639648	38059.570313
1941.660156	37799.917969
1940.680664	38138.000000
1939.700195	38307.363281
1938.719727	38352.714844
1937.739258	38122.929688
1936.758789	38294.679688
1935.778320	38483.710938
1934.797852	37966.652344
1933.816406	38281.992188
1932.834961	38223.281250
1931.853516	37773.390625
1930.872070	37937.585938
1929.890625	37854.210938
1928.908203	38186.609375
1927.925781	38071.050781
1926.944336	38017.378906
1925.960938	38485.605469
1924.978516	38310.703125
1923.996094	37925.695313
1923.012695	38042.652344
1922.030273	37867.914063
1921.046875	38199.832031
1920.062500	38173.371094
1919.079102	38109.863281
1918.095703	37915.472656
1917.111328	37973.031250
1916.126953	37941.683594
1915.142578	38176.957031
1914.158203	38078.941406
1913.173828	37837.828125
1912.188477	38114.933594
1911.204102	37893.632813
1910.218750	37990.578125
1909.233398	38546.167969
1908.247070	38043.828125
1907.261719	38362.554688
1906.275391	38562.859375
1905.290039	38112.527344
1904.303711	38559.187500
1903.317383	38035.109375
1902.330078	38336.308594
1901.343750	38248.320313
1900.356445	38704.488281
1899.369141	38392.445313
1898.381836	38380.789063
1897.394531	38135.355469
1896.407227	38426.371094
1895.418945	38419.625000
1894.431641	38958.898438
1893.443359	37919.242188
1892.455078	38797.703125
1891.466797	38269.750000
1890.477539	38412.957031
1889.489258	38197.339844
1888.500000	38283.996094
1887.510742	38616.273438
1886.521484	38174.769531
1885.531250	38374.339844
1884.541992	38441.257813
1883.551758	38397.687500
1882.561523	38243.683594
1881.571289	38354.753906
1880.581055	38598.277344
1879.590820	38782.835938
1878.599609	38425.296875
1877.608398	38575.488281
1876.618164	38813.890625
1875.625977	38385.441406
1874.634766	38481.636719
1873.643555	38621.906250
1872.651367	38803.773438
1871.659180	38676.921875
1870.666992	38530.523438
1869.674805	38577.625000
1868.682617	38778.953125
1867.689453	38576.308594
1866.697266	38650.296875
1865.704102	38748.722656
1864.710938	38793.292969
1863.717773	38943.027344
1862.723633	38723.402344
1861.730469	38596.777344
1860.736328	38702.457031
1859.742188	39001.207031
1858.748047	38605.750000
1857.752930	38867.757813
1856.758789	39009.957031
1855.763672	38595.160156
1854.768555	39008.449219
1853.773438	38940.542969
1852.778320	38980.082031
1851.783203	38897.554688
1850.787109	39183.585938
1849.791016	38744.785156
1848.795898	38789.203125
1847.798828	39209.257813
1846.802734	38919.449219
1845.806641	39012.578125
1844.809570	39212.945313
1843.812500	39193.859375
1842.815430	38952.996094
1841.818359	39328.707031
1840.821289	39248.695313
1839.823242	39541.402344
1838.826172	39417.542969
1837.828125	39551.832031
1836.830078	39788.332031
1835.831055	39608.500000
1834.833008	39399.531250
1833.833984	39760.023438
1832.834961	39500.003906
1831.835938	39420.078125
1830.836914	39777.937500
1829.837891	39308.933594
1828.837891	39637.511719
1827.838867	39961.109375
1826.838867	39781.519531
1825.838867	39971.335938
1824.838867	39782.085938
1823.837891	39551.609375
1822.837891	39872.503906
1821.836914	39778.066406
1820.835938	39564.703125
1819.834961	39739.777344
1818.833008	39939.062500
1817.832031	39701.511719
1816.830078	39621.738281
1815.828125	40019.828125
1814.826172	40056.429688
1813.824219	39540.175781
1812.822266	39853.218750
1811.819336	39918.910156
1810.816406	40428.070313
1809.813477	40193.179688
1808.810547	39953.527344
1807.807617	40338.875000
1806.803711	40355.980469
1805.800781	40174.531250
1804.796875	40273.968750
1803.792969	39785.195313
1802.789063	40383.191406
1801.784180	39875.210938
1800.780273	40458.460938
1799.775391	40535.980469
1798.770508	40642.492188
1797.765625	40528.937500
1796.760742	40587.062500
1795.754883	40681.417969
1794.749023	41080.238281
1793.744141	40696.062500
1792.738281	41222.769531
1791.731445	40529.539063
1790.725586	40858.062500
1789.718750	40725.296875
1788.712891	40735.011719
1787.706055	40667.480469
1786.699219	40933.000000
1785.691406	41130.863281
1784.684570	40725.562500
1783.676758	41150.113281
1782.668945	41323.714844
1781.661133	40928.234375
1780.653320	41309.125000
1779.645508	41400.652344
1778.636719	41058.378906
1777.627930	41190.875000
1776.619141	41205.285156
1775.610352	41605.050781
1774.601563	41089.593750
1773.591797	41166.605469
1772.583008	41633.566406
1771.573242	41838.015625
1770.563477	41734.371094
1769.553711	41657.226563
1768.542969	41832.691406
1767.533203	41724.285156
1766.522461	42092.050781
1765.511719	42065.378906
1764.500977	41807.945313
1763.489258	42305.281250
1762.478516	42405.941406
1761.466797	42653.121094
1760.455078	42439.000000
1759.443359	42409.886719
1758.431641	42467.226563
1757.419922	42546.152344
1756.407227	42817.085938
1755.394531	42790.316406
1754.381836	42955.527344
1753.369141	43041.500000
1752.356445	42863.582031
1751.342773	43184.574219
1750.330078	43174.542969
1749.316406	43291.578125
1748.302734	43600.339844
1747.288086	43374.535156
1746.274414	43127.242188
1745.259766	43419.089844
1744.246094	43488.062500
1743.231445	43624.066406
1742.215820	43336.191406
1741.201172	43532.027344
1740.186523	43706.246094
1739.170898	44368.625000
1738.155273	44071.242188
1737.139648	44223.738281
1736.124023	44459.898438
1735.107422	44786.851563
1734.090820	44680.886719
1733.075195	44907.273438
1732.058594	44894.542969
1731.041016	45266.589844
1730.024414	45191.671875
1729.007813	45303.125000
1727.990234	46021.242188
1726.972656	46228.031250
1725.955078	46699.789063
1724.936523	46834.761719
1723.918945	46785.894531
1722.900391	46522.253906
1721.881836	47389.707031
1720.863281	47696.218750
1719.844727	47363.382813
1718.826172	47791.414063
1717.806641	47518.285156
1716.787109	47638.601563
1715.767578	47556.277344
1714.748047	48205.589844
1713.728516	47954.019531
1712.708008	48133.722656
1711.688477	47891.773438
1710.667969	48271.460938
1709.647461	48272.433594
1708.626953	47997.257813
1707.605469	48486.207031
1706.583984	48434.777344
1705.563477	48411.917969
1704.541992	48807.753906
1703.519531	48347.191406
1702.498047	48283.929688
1701.476563	48529.777344
1700.454102	48485.515625
1699.431641	48355.707031
1698.409180	48717.847656
1697.385742	48281.539063
1696.363281	48123.324219
1695.339844	48178.917969
1694.316406	48289.109375
1693.292969	48354.148438
1692.269531	48096.320313
1691.246094	48379.722656
1690.221680	48667.765625
1689.197266	48042.265625
1688.172852	48932.789063
1687.148438	48172.273438
1686.124023	48479.113281
1685.098633	48517.929688
1684.074219	48872.003906
1683.048828	48740.089844
1682.023438	49207.738281
1680.997070	48770.179688
1679.971680	49223.441406
1678.945313	49572.332031
1677.918945	49215.445313
1676.892578	49651.804688
1675.866211	49612.222656
1674.839844	49759.617188
1673.812500	49869.097656
1672.785156	49467.515625
1671.758789	49792.257813
1670.730469	49802.339844
1669.703125	49878.625000
1668.675781	49744.468750
1667.647461	50007.464844
1666.619141	49745.710938
1665.590820	49944.812500
1664.562500	49909.957031
1663.533203	50538.851563
1662.504883	50950.250000
1661.475586	50468.953125
1660.446289	50733.843750
1659.416992	50882.976563
1658.386719	50588.382813
1657.357422	50737.484375
1656.327148	51235.683594
1655.296875	51101.570313
1654.266602	51292.945313
1653.235352	51007.960938
1652.205078	51166.277344
1651.173828	51482.453125
1650.142578	51338.976563
1649.111328	51336.921875
1648.080078	52022.753906
1647.048828	51509.460938
1646.016602	52044.296875
1644.984375	51825.492188
1643.952148	52018.730469
1642.919922	52296.632813
1641.886719	52374.406250
1640.854492	52854.488281
1639.821289	52906.253906
1638.788086	53315.503906
1637.754883	53014.425781
1636.721680	53825.558594
1635.687500	53442.214844
1634.653320	53087.210938
1633.620117	53926.089844
1632.584961	53904.750000
1631.550781	54313.300781
1630.516602	54035.886719
1629.481445	54178.910156
1628.446289	54662.316406
1627.411133	54568.085938
1626.375977	54851.750000
1625.340820	55468.527344
1624.304688	55416.425781
1623.268555	55847.566406
1622.232422	56456.792969
1621.196289	57037.664063
1620.160156	57189.281250
1619.123047	58386.300781
1618.086914	59123.535156
1617.049805	60038.589844
1616.012695	61531.996094
1614.974609	62926.488281
1613.937500	64081.597656
1612.899414	65189.457031
1611.861328	66690.242188
1610.823242	67024.789063
1609.785156	67139.234375
1608.747070	66876.906250
1607.708008	66308.195313
1606.668945	65842.601563
1605.629883	64018.417969
1604.590820	63399.070313
1603.551758	62066.906250
1602.511719	61198.019531
1601.471680	60310.742188
1600.431641	59629.402344
1599.391602	59247.328125
1598.351563	58643.492188
1597.310547	58222.023438
1596.270508	57824.050781
1595.229492	57904.792969
1594.188477	57628.386719
1593.146484	57142.046875
1592.105469	57605.511719
1591.063477	56900.058594
1590.021484	56985.542969
1588.979492	57054.671875
1587.937500	56983.878906
1586.895508	56826.855469
1585.852539	56807.398438
1584.809570	57016.320313
1583.766602	56968.875000
1582.723633	56800.308594
1581.680664	56897.316406
1580.636719	57222.496094
1579.593750	57235.574219
1578.549805	57150.871094
1577.504883	57524.703125
1576.460938	57076.964844
1575.416992	57371.566406
1574.372070	57610.230469
1573.327148	57534.828125
1572.282227	58189.613281
1571.237305	57974.636719
1570.191406	57752.757813
1569.146484	57844.710938
1568.100586	57269.730469
1567.054688	57189.812500
1566.007813	57135.468750
1564.961914	57164.750000
1563.915039	56957.175781
1562.869141	56712.523438
1561.822266	56667.578125
1560.774414	56399.855469
1559.727539	56860.820313
1558.679688	56228.917969
1557.632813	56358.050781
1556.584961	56531.195313
1555.537109	56275.316406
1554.488281	56346.406250
1553.440430	56447.601563
1552.391602	55943.894531
1551.342773	56100.730469
1550.293945	56405.773438
1549.245117	56108.484375
1548.195313	56320.777344
1547.146484	56169.476563
1546.096680	55800.613281
1545.046875	56667.871094
1543.996094	56419.382813
1542.946289	56305.183594
1541.895508	56320.566406
1540.844727	56606.554688
1539.793945	56261.125000
1538.743164	55550.500000
1537.692383	56162.414063
1536.640625	56147.753906
1535.588867	56098.429688
1534.537109	55372.160156
1533.485352	55683.355469
1532.433594	55576.394531
1531.380859	55199.292969
1530.329102	55796.636719
1529.276367	55276.503906
1528.222656	55208.917969
1527.169922	55312.117188
1526.117188	54910.007813
1525.063477	54939.402344
1524.009766	55107.160156
1522.956055	54668.402344
1521.902344	55216.550781
1520.847656	55098.332031
1519.792969	54938.671875
1518.738281	54931.144531
1517.683594	55156.308594
1516.628906	55047.390625
1515.574219	54984.570313
1514.518555	55048.414063
1513.462891	55294.101563
1512.407227	55339.449219
1511.351563	55028.062500
1510.294922	55195.386719
1509.239258	55224.613281
1508.182617	54938.710938
1507.125977	55356.625000
1506.069336	55268.535156
1505.011719	55460.941406
1503.955078	54635.046875
1502.897461	55032.023438
1501.839844	54829.164063
1500.782227	55046.773438
1499.724609	54660.230469
1498.666016	54723.925781
1497.607422	54792.187500
1496.548828	55135.894531
1495.490234	54733.539063
1494.431641	54900.429688
1493.372070	54440.898438
1492.313477	54772.945313
1491.253906	54976.429688
1490.194336	54517.121094
1489.133789	55091.996094
1488.074219	54910.199219
1487.013672	54785.761719
1485.953125	55179.246094
1484.892578	54275.832031
1483.832031	55207.570313
1482.770508	54799.167969
1481.709961	54681.718750
1480.648438	55182.460938
1479.586914	54927.640625
1478.524414	55192.429688
1477.462891	54866.757813
1476.400391	55268.722656
1475.337891	55345.730469
1474.275391	55040.785156
1473.212891	55335.027344
1472.150391	55162.785156
1471.086914	55232.890625
1470.023438	55145.281250
1468.959961	55409.578125
1467.896484	55728.609375
1466.833008	55444.519531
1465.768555	55473.390625
1464.704102	55787.664063
1463.639648	56172.593750
1462.575195	56141.968750
1461.510742	55871.738281
1460.445313	55765.882813
1459.379883	56353.558594
1458.314453	56259.054688
1457.249023	56426.828125
1456.183594	56291.296875
1455.117188	56645.929688
1454.051758	56681.343750
1452.985352	56349.855469
1451.917969	57203.242188
1450.851563	57397.988281
1449.785156	56649.750000
1448.717773	57586.871094
1447.650391	57594.746094
1446.583008	57158.726563
1445.514648	57266.808594
1444.447266	57652.460938
1443.378906	57730.832031
1442.310547	57431.574219
1441.242188	57889.761719
1440.173828	58081.734375
1439.104492	58141.777344
1438.036133	58092.687500
1436.966797	58748.136719
1435.897461	59441.976563
1434.827148	59108.691406
1433.757813	58841.394531
1432.687500	59759.667969
1431.617188	60109.953125
1430.546875	59840.343750
1429.476563	60213.183594
1428.406250	59671.320313
1427.334961	60066.742188
1426.263672	60434.792969
1425.192383	60020.191406
1424.121094	60415.328125
1423.048828	60114.242188
1421.977539	59616.039063
1420.905273	60147.019531
1419.833008	60050.089844
1418.759766	60358.753906
1417.687500	60189.324219
1416.614258	60660.921875
1415.541992	60233.343750
1414.468750	59629.312500
1413.394531	59976.246094
1412.321289	59517.328125
1411.247070	59511.144531
1410.172852	59869.214844
1409.098633	59096.128906
1408.024414	59691.617188
1406.950195	59531.628906
1405.875000	59683.695313
1404.799805	60177.027344
1403.724609	60487.117188
1402.649414	60424.257813
1401.574219	60440.488281
1400.498047	60752.617188
1399.421875	61071.402344
1398.345703	61101.050781
1397.269531	61035.863281
1396.193359	61297.992188
1395.116211	61806.007813
1394.039063	62020.511719
1392.961914	61896.542969
1391.884766	61944.039063
1390.807617	62494.410156
1389.729492	62595.890625
1388.651367	63001.664063
1387.573242	63096.246094
1386.495117	63362.062500
1385.416992	63877.871094
1384.337891	63940.699219
1383.258789	64131.886719
1382.179688	64160.863281
1381.100586	64426.230469
1380.021484	65008.902344
1378.941406	64898.156250
1377.861328	64409.402344
1376.781250	64312.296875
1375.701172	64626.875000
1374.621094	64005.730469
1373.540039	64448.417969
1372.458984	63915.203125
1371.377930	63741.835938
1370.296875	63121.289063
1369.215820	63563.804688
1368.133789	62979.453125
1367.051758	62990.554688
1365.969727	62898.347656
1364.887695	62536.718750
1363.805664	62565.847656
1362.722656	62478.242188
1361.639648	62523.078125
1360.556641	62188.691406
1359.473633	62475.839844
1358.390625	62085.503906
1357.306641	62276.132813
1356.223633	62258.167969
1355.139648	61657.351563
1354.054688	61482.605469
1352.970703	61482.710938
1351.885742	61229.636719
1350.801758	61149.136719
1349.716797	61373.273438
1348.630859	60968.070313
1347.545898	60800.335938
1346.459961	61143.046875
1345.375000	60626.191406
1344.289063	61022.507813
1343.202148	60534.941406
1342.116211	60723.093750
1341.029297	60508.605469
1339.943359	60660.914063
1338.856445	60728.203125
1337.768555	60529.472656
1336.681641	60657.101563
1335.593750	60882.996094
1334.506836	60896.574219
1333.418945	61015.125000
1332.330078	60961.667969
1331.242188	61499.937500
1330.153320	61805.835938
1329.065430	61625.027344
1327.976563	61560.332031
1326.886719	61419.792969
1325.797852	62408.113281
1324.708008	61656.324219
1323.619141	62671.000000
1322.529297	62916.078125
1321.438477	62396.437500
1320.348633	62639.242188
1319.257813	63242.964844
1318.167969	63427.597656
1317.076172	63574.289063
1315.985352	63789.968750
1314.894531	64270.562500
1313.802734	64085.277344
1312.710938	63931.218750
1311.619141	64540.601563
1310.527344	64479.972656
1309.435547	64365.968750
1308.342773	64180.820313
1307.250000	64536.167969
1306.157227	64099.785156
1305.064453	64290.496094
1303.970703	64221.070313
1302.877930	64533.917969
1301.784180	64022.292969
1300.690430	64346.164063
1299.596680	64623.273438
1298.501953	65135.679688
1297.407227	65132.773438
1296.313477	64958.921875
1295.217773	65209.074219
1294.123047	65428.062500
1293.028320	65480.562500
1291.932617	65788.148438
1290.836914	66093.406250
1289.741211	65680.062500
1288.645508	65379.933594
1287.548828	65922.281250
1286.453125	65624.429688
1285.356445	65448.562500
1284.259766	64539.406250
1283.162109	65799.218750
1282.065430	64892.535156
1280.967773	64885.207031
1279.870117	64198.191406
1278.772461	64542.941406
1277.674805	64119.601563
1276.576172	64141.171875
1275.477539	63131.777344
1274.378906	63058.398438
1273.280273	63288.031250
1272.181641	62814.425781
1271.082031	62467.007813
1269.983398	62689.980469
1268.883789	62758.175781
1267.783203	62251.855469
1266.683594	62105.812500
1265.583984	62070.253906
1264.483398	61948.582031
1263.382813	61913.062500
1262.282227	61241.777344
1261.180664	61864.121094
1260.080078	61444.652344
1258.978516	61303.332031
1257.876953	60978.968750
1256.775391	61289.917969
1255.672852	61020.796875
1254.571289	61274.296875
1253.468750	60438.753906
1252.366211	60798.050781
1251.262695	60709.894531
1250.160156	60289.093750
1249.056641	60163.609375
1247.953125	60212.152344
1246.849609	60091.128906
1245.746094	60102.234375
1244.642578	60014.285156
1243.538086	59983.585938
1242.433594	59598.636719
1241.329102	59988.207031
1240.224609	60052.101563
1239.119141	60071.984375
1238.014648	59920.355469
1236.909180	59821.542969
1235.803711	59911.785156
1234.697266	59736.085938
1233.591797	60320.667969
1232.485352	59874.753906
1231.378906	59694.757813
1230.272461	59295.230469
1229.166016	59802.609375
1228.058594	59565.644531
1226.951172	59328.761719
1225.843750	59177.542969
1224.736328	59377.410156
1223.628906	59305.199219
1222.520508	59248.363281
1221.412109	59132.343750
1220.303711	59209.292969
1219.195313	59036.324219
1218.086914	58766.988281
1216.977539	59301.906250
1215.868164	59118.054688
1214.758789	58776.562500
1213.649414	58636.664063
1212.540039	59225.949219
1211.429688	58718.234375
1210.319336	59213.167969
1209.208984	58703.445313
1208.098633	58848.117188
1206.987305	59014.609375
1205.876953	59089.175781
1204.765625	59010.636719
1203.654297	59336.609375
1202.542969	59030.703125
1201.430664	59393.703125
1200.318359	59271.449219
1199.206055	59059.664063
1198.093750	59614.679688
1196.981445	59758.894531
1195.868164	59675.960938
1194.755859	59942.367188
1193.642578	60300.355469
1192.528320	60029.671875
1191.415039	60219.492188
1190.301758	60359.062500
1189.187500	59874.746094
1188.073242	59610.871094
1186.958984	60097.156250
1185.843750	59419.121094
1184.729492	59408.300781
1183.614258	59299.417969
1182.499023	59199.285156
1181.382813	59362.781250
1180.267578	59084.066406
1179.151367	59267.117188
1178.035156	58894.898438
1176.918945	59476.273438
1175.802734	58873.441406
1174.686523	58555.890625
1173.569336	58540.867188
1172.452148	58282.222656
1171.334961	57575.636719
1170.217773	58408.847656
1169.099609	57624.226563
1167.981445	57661.546875
1166.863281	58131.335938
1165.745117	58025.132813
1164.626953	57981.968750
1163.507813	57762.875000
1162.388672	58284.414063
1161.269531	57720.101563
1160.150391	57889.765625
1159.031250	57646.964844
1157.911133	57718.917969
1156.791016	57523.964844
1155.670898	57916.972656
1154.550781	57581.066406
1153.430664	57824.285156
1152.309570	58136.792969
1151.188477	57419.500000
1150.067383	57807.820313
1148.946289	58156.988281
1147.824219	57602.570313
1146.702148	57631.050781
1145.580078	57358.476563
1144.458008	58079.910156
1143.335938	58290.140625
1142.212891	58582.542969
1141.090820	58123.863281
1139.967773	59121.585938
1138.844727	59063.199219
1137.720703	59186.527344
1136.597656	59162.746094
1135.473633	59257.894531
1134.349609	59017.921875
1133.224609	58689.414063
1132.100586	58514.460938
1130.975586	58425.992188
1129.850586	58398.039063
1128.725586	58601.199219
1127.600586	58247.144531
1126.475586	58286.164063
1125.349609	58236.660156
1124.223633	58394.367188
1123.097656	58029.808594
1121.971680	58269.476563
1120.844727	57773.484375
1119.717773	58013.105469
1118.590820	58114.632813
1117.463867	57817.277344
1116.336914	57507.093750
1115.208984	57757.351563
1114.081055	57996.746094
1112.953125	57658.687500
1111.825195	57447.828125
1110.697266	57527.777344
1109.568359	57898.371094
1108.439453	57450.773438
1107.310547	57321.890625
1106.181641	57210.265625
1105.051758	56922.250000
1103.921875	56808.585938
1102.791992	57516.562500
1101.662109	57002.847656
1100.532227	57385.875000
1099.401367	57364.628906
1098.271484	57197.242188
1097.140625	57315.710938
1096.008789	57560.886719
1094.877930	57165.859375
1093.746094	57481.839844
1092.615234	56925.921875
1091.483398	57095.839844
1090.350586	56632.488281
1089.218750	56190.761719
1088.085938	57143.890625
1086.953125	56826.652344
1085.820313	56552.429688
1084.687500	56619.281250
1083.553711	56321.605469
1082.419922	56412.046875
1081.287109	56804.664063
1080.152344	56560.683594
1079.018555	56445.343750
1077.883789	56749.902344
1076.750000	56540.328125
1075.615234	56990.367188
1074.479492	56797.945313
1073.344727	56937.382813
1072.208984	56971.898438
1071.073242	56627.656250
1069.937500	57068.695313
1068.801758	56919.203125
1067.665039	56791.152344
1066.529297	56812.820313
1065.392578	56866.542969
1064.255859	56935.210938
1063.118164	56599.945313
1061.981445	56636.578125
1060.843750	56788.554688
1059.706055	56573.101563
1058.568359	56270.167969
1057.429688	56795.761719
1056.291992	56838.718750
1055.153320	56973.429688
1054.014648	56380.425781
1052.875000	57146.691406
1051.736328	57187.410156
1050.596680	56970.046875
1049.457031	57309.304688
1048.317383	56925.699219
1047.177734	57104.968750
1046.037109	56983.671875
1044.896484	57079.757813
1043.755859	57425.066406
1042.615234	57080.117188
1041.474609	57533.906250
1040.333008	56590.746094
1039.191406	56669.773438
1038.049805	57270.238281
1036.908203	56921.367188
1035.765625	56887.515625
1034.624023	56538.839844
1033.481445	56471.035156
1032.337891	56418.140625
1031.195313	56752.210938
1030.051758	56924.605469
1028.909180	56861.023438
1027.765625	56914.332031
1026.621094	56568.203125
1025.477539	56657.648438
1024.333008	57210.042969
1023.188477	56424.503906
1022.043945	56741.082031
1020.899414	56879.242188
1019.754883	56692.652344
1018.609375	56637.679688
1017.463867	57083.382813
1016.318359	57176.828125
1015.171875	56865.191406
1014.026367	57181.261719
1012.879883	56653.507813
1011.733398	57126.339844
1010.586914	56948.433594
1009.439453	56781.183594
1008.292969	57147.804688
1007.145508	56347.316406
1005.998047	56798.582031
1004.849609	57078.191406
1003.702148	56741.718750
1002.553711	57556.667969
1001.405273	57258.312500
1000.256836	57675.132813
999.107422	57609.535156
997.958984	57975.375000
996.809570	57985.859375
995.660156	57926.570313
994.510742	57918.031250
993.360352	57474.160156
992.209961	58272.816406
991.060547	58046.625000
989.909180	58035.945313
988.758789	57776.089844
987.608398	58200.386719
986.457031	57889.929688
985.305664	58024.902344
984.154297	57632.289063
983.001953	58195.535156
981.849609	57687.015625
980.698242	58043.359375
979.544922	58355.289063
978.392578	58445.742188
977.240234	58276.898438
976.086914	57718.238281
974.933594	57893.031250
973.780273	58400.605469
972.625977	58033.894531
971.472656	58145.347656
970.318359	58282.023438
969.164063	58115.515625
968.009766	57997.468750
966.854492	57980.472656
965.699219	58516.816406
964.544922	57835.007813
963.388672	58171.375000
962.233398	57876.781250
961.078125	58496.835938
959.921875	58172.859375
958.765625	58389.113281
957.609375	58506.527344
956.452148	58817.171875
955.294922	58409.347656
954.138672	58734.593750
952.980469	58371.019531
951.823242	58165.027344
950.666016	58269.742188
949.507813	58288.378906
948.349609	58317.500000
947.191406	58428.414063
946.032227	57647.910156
944.874023	57526.140625
943.714844	58062.742188
942.555664	57838.218750
941.395508	58401.804688
940.236328	57561.246094
939.076172	57693.089844
937.916016	58023.875000
936.755859	58046.679688
935.595703	58366.800781
934.434570	58403.789063
933.273438	58440.773438
932.112305	58477.761719
930.951172	58514.746094
929.790039	58551.734375
928.627930	58588.750000
927.465820	58322.816406
926.303711	58470.949219
925.140625	59020.382813
923.978516	59331.351563
922.815430	59130.238281
921.652344	59505.832031
920.489258	59296.402344
919.325195	59371.082031
918.162109	59307.917969
916.998047	59463.980469
915.833984	59574.062500
914.668945	59442.015625
913.504883	59831.652344
912.339844	59904.046875
911.174805	60341.421875
910.009766	60870.390625
908.843750	60815.359375
907.678711	61139.746094
906.512695	60859.582031
905.346680	61310.953125
904.179688	60914.179688
903.013672	60957.082031
901.846680	60310.593750
900.679688	60259.882813
899.512695	59551.300781
898.344727	60100.226563
897.177734	60041.250000
896.009766	59743.003906
894.841797	59987.843750
893.673828	59889.390625
892.504883	59716.109375
891.335938	59524.171875
890.166992	59511.085938
888.998047	59225.722656
887.829102	59443.355469
886.659180	59879.062500
885.489258	59616.632813
884.319336	59177.757813
883.149414	59586.273438
881.978516	60009.164063
880.808594	60323.957031
879.637695	59478.488281
878.465820	60262.207031
877.294922	60572.621094
876.123047	60422.437500
874.952148	61045.851563
873.779297	60752.562500
872.607422	61108.250000
871.435547	61200.574219
870.262695	60857.671875
869.089844	60858.835938
867.916992	60808.210938
866.743164	61153.191406
865.570313	61947.398438
864.396484	61687.480469
863.222656	61531.156250
862.047852	62589.757813
860.874023	62402.277344
859.699219	62494.164063
858.524414	62997.636719
857.349609	62497.894531
856.174805	62339.507813
854.999023	62621.519531
853.823242	61779.003906
852.647461	61901.882813
851.471680	61774.703125
850.294922	61659.964844
849.118164	61981.070313
847.941406	62446.605469
846.764648	62131.527344
845.587891	61965.187500
844.410156	62434.585938
843.232422	62307.457031
842.054688	63273.820313
840.876953	64068.621094
839.698242	64644.511719
838.520508	64888.207031
837.341797	65960.570313
836.162109	66284.312500
834.983398	66605.875000
833.803711	66739.812500
832.624023	66465.804688
831.444336	65755.242188
830.264648	65172.617188
829.083984	64639.621094
827.904297	63186.652344
826.723633	62964.996094
825.541992	62492.375000
824.361328	61773.035156
823.179688	61699.859375
821.998047	61198.933594
820.816406	61226.640625
819.634766	60596.460938
818.452148	60581.101563
817.269531	60047.859375
816.086914	59958.632813
814.904297	59744.121094
813.721680	59591.304688
812.538086	59711.667969
811.354492	59521.953125
810.170898	59506.792969
808.986328	59649.671875
807.802734	59476.480469
806.618164	59354.644531
805.433594	59643.105469
804.249023	59291.574219
803.063477	58981.183594
801.877930	58865.667969
800.693359	58864.976563
799.506836	58917.570313
798.321289	58685.328125
797.134766	58371.226563
795.948242	58624.601563
794.761719	58419.156250
793.575195	58275.214844
792.388672	58170.214844
791.201172	58007.941406
790.013672	57608.355469
788.826172	57837.019531
787.637695	57456.019531
786.449219	57739.839844
785.261719	57909.046875
784.072266	57432.148438
782.883789	57002.433594
781.694336	57333.125000
780.505859	57097.699219
779.316406	57211.695313
778.125977	57025.394531
776.936523	57120.976563
775.746094	56655.035156
774.555664	56505.679688
773.365234	57011.539063
772.174805	56500.976563
770.983398	56645.519531
769.791992	56683.933594
768.600586	56522.460938
767.409180	57172.613281
766.216797	57333.222656
765.025391	56810.921875
763.833008	57358.750000
762.639648	57325.660156
761.447266	57514.632813
760.253906	57581.320313
759.060547	57825.156250
757.867188	58323.406250
756.673828	58206.687500
755.479492	58869.535156
754.286133	58364.082031
753.091797	58662.460938
751.896484	58458.285156
750.702148	58795.175781
749.506836	58501.574219
748.311523	58419.519531
747.116211	57577.273438
745.920898	57357.218750
744.724609	57547.687500
743.528320	57274.894531
742.332031	57020.480469
741.135742	57099.207031
739.938477	56493.656250
738.742188	56887.097656
737.544922	56224.980469
736.346680	56600.058594
735.149414	56191.843750
733.951172	56558.667969
732.752930	56024.863281
731.554688	56253.687500
730.356445	56091.144531
729.157227	55916.496094
727.958008	56191.820313
726.758789	55944.269531
725.559570	55733.273438
724.359375	55254.988281
723.160156	55277.082031
721.959961	55799.269531
720.759766	55584.398438
719.558594	55505.210938
718.358398	55820.652344
717.157227	55794.046875
715.955078	55516.621094
714.753906	55718.613281
713.552734	56442.226563
712.350586	55410.734375
711.148438	55830.929688
709.945313	56018.558594
708.743164	56214.195313
707.540039	55763.300781
706.336914	56439.621094
705.133789	56083.757813
703.930664	55895.605469
702.726563	56087.035156
701.522461	56219.859375
700.318359	56201.285156
699.114258	55664.207031
697.909180	55738.527344
696.704102	55941.894531
695.499023	56201.640625
694.293945	56324.199219
693.088867	55979.074219
691.882813	56170.140625
690.676758	56133.449219
689.470703	56326.425781
688.263672	56134.621094
687.057617	56387.933594
685.850586	56010.953125
684.643555	56189.707031
683.435547	56231.531250
682.228516	56172.722656
681.020508	55890.609375
679.812500	55590.500000
678.604492	56147.246094
677.395508	56416.242188
676.186523	56202.640625
674.977539	56429.312500
673.768555	56559.429688
672.559570	55901.867188
671.349609	56775.320313
670.139648	56559.828125
668.929688	56376.546875
667.719727	56584.843750
666.508789	56506.003906
665.297852	56377.015625
664.086914	55975.167969
662.875977	56265.632813
661.665039	56074.570313
660.453125	56184.402344
659.241211	55782.882813
658.029297	56381.886719
656.816406	55804.089844
655.604492	56042.140625
654.391602	55811.246094
653.178711	55554.394531
651.964844	55525.964844
650.751953	55966.128906
649.538086	56005.699219
648.324219	55809.046875
647.109375	56216.878906
645.895508	55730.109375
644.680664	56069.777344
643.465820	56021.269531
642.250977	56346.750000
641.035156	56564.136719
639.820313	56427.593750
638.604492	56055.242188
637.388672	56176.628906
636.171875	56717.550781
634.956055	56497.167969
633.739258	56378.726563
632.522461	56076.609375
631.304688	56211.843750
630.087891	56205.292969
628.870117	55937.300781
627.652344	55823.054688
626.434570	55617.074219
625.215820	55600.660156
623.997070	55741.792969
622.778320	55364.464844
621.559570	55643.136719
620.340820	55467.269531
619.121094	55337.296875
617.901367	55382.703125
616.681641	55436.054688
615.461914	55682.578125
614.241211	55455.078125
613.020508	55414.808594
611.799805	55328.769531
610.579102	55344.257813
609.357422	55258.257813
608.136719	55311.546875
606.915039	55621.398438
605.692383	55018.332031
604.470703	55546.828125
603.248047	55427.066406
602.025391	55688.949219
600.802734	55477.789063
599.579102	55344.191406
598.356445	55804.578125
597.132813	55184.378906
595.909180	55676.390625
594.684570	55348.285156
593.460938	55629.671875
592.236328	55202.460938
591.011719	55350.824219
589.787109	55610.222656
588.561523	55568.039063
587.335938	55448.527344
586.110352	55846.542969
584.884766	55612.046875
583.658203	55300.335938
582.432617	55836.855469
581.206055	55578.710938
579.979492	55786.152344
578.751953	55785.570313
577.524414	55965.167969
576.297852	55944.746094
575.069336	56112.367188
573.841797	56655.925781
572.613281	55711.375000
571.385742	56331.949219
570.156250	55834.804688
568.927734	56209.910156
567.699219	55544.914063
566.469727	55830.972656
565.240234	56109.019531
564.009766	55695.359375
562.780273	55509.050781
561.549805	55848.222656
560.319336	55565.179688
559.088867	55481.667969
557.858398	55895.664063
556.626953	55579.210938
555.395508	55406.929688
554.164063	55514.882813
552.931641	55078.339844
551.700195	55235.613281
550.467773	54929.425781
549.235352	55120.179688
548.001953	55356.195313
546.769531	55091.539063
545.536133	55094.957031
544.302734	54747.703125
543.068359	54924.507813
541.834961	54752.679688
540.600586	55142.058594
539.366211	55375.773438
538.131836	55310.230469
536.896484	55498.558594
535.662109	55289.390625
534.426758	54922.929688
533.190430	54786.707031
531.955078	55157.851563
530.718750	55332.257813
529.482422	55604.875000
528.246094	55437.175781
527.009766	55666.437500
525.772461	55237.507813
524.535156	55036.574219
523.297852	55110.636719
522.060547	55471.324219
520.822266	55431.417969
519.583984	55420.964844
518.345703	55084.773438
517.107422	55664.914063
515.868164	55552.417969
514.628906	55794.925781
513.389648	55188.320313
512.150391	55540.585938
510.911133	55347.824219
509.670898	55966.437500
508.430664	55236.808594
507.190430	55318.457031
505.949219	55135.660156
504.708008	56029.941406
503.466797	55621.929688
502.225586	55723.003906
500.984375	55503.078125
499.742188	55197.132813
498.500000	55452.777344
497.257813	55788.515625
496.015625	55619.574219
494.772461	55454.609375
493.529297	55946.539063
492.286133	56070.832031
491.042969	55595.160156
489.798828	55354.113281
488.554688	55757.777344
487.310547	55450.382813
486.066406	56101.859375
484.821289	55896.031250
483.576172	55692.230469
482.331055	55732.445313
481.085938	56028.250000
479.840820	56117.152344
478.594727	55843.238281
477.348633	55776.128906
476.102539	55995.652344
474.855469	56347.644531
473.608398	57065.906250
472.361328	56336.082031
471.114258	56479.343750
469.867188	56478.402344
468.619141	56531.992188
467.371094	56875.675781
466.123047	57067.382813
464.874023	57081.894531
463.625977	57798.910156
462.376953	57204.281250
461.127930	57967.683594
459.877930	58155.097656
458.628906	58239.378906
457.378906	57886.183594
456.128906	58361.183594
454.877930	58422.046875
453.627930	58968.656250
452.376953	58714.656250
451.125977	59350.347656
449.874023	59601.277344
448.623047	60021.035156
447.371094	60432.863281
446.119141	61238.531250
444.867188	61566.523438
443.614258	62307.644531
442.361328	61925.347656
441.108398	62264.652344
439.855469	61865.054688
438.602539	61101.132813
437.348633	60056.441406
436.094727	59671.042969
434.840820	58402.257813
433.585938	58311.765625
432.331055	58490.531250
431.076172	57722.289063
429.821289	57107.285156
428.566406	57168.085938
427.310547	57213.378906
426.054688	56891.000000
424.798828	56019.304688
423.541992	56486.449219
422.286133	56191.460938
421.029297	56173.074219
419.772461	55918.843750
418.514648	56138.246094
417.256836	56139.195313
416.000000	56134.347656
414.741211	56224.148438
413.483398	55603.183594
412.224609	55789.597656
410.966797	56169.000000
409.707031	56210.460938
408.448242	56242.253906
407.188477	56056.000000
405.929688	56265.285156
404.668945	55888.144531
403.409180	56463.773438
402.148438	56235.191406
400.888672	55919.945313
