#Wave		#Intensity
2001.182617	36321.648438
2000.212891	35840.398438
1999.243164	35884.265625
1998.273438	36356.574219
1997.303711	36102.214844
1996.333008	36551.773438
1995.363281	36309.988281
1994.392578	36103.335938
1993.421875	36830.539063
1992.451172	36543.773438
1991.479492	36344.695313
1990.508789	36578.550781
1989.537109	36812.324219
1988.566406	36583.285156
1987.594727	36654.417969
1986.622070	36482.992188
1985.650391	36449.121094
1984.677734	36772.687500
1983.706055	36771.261719
1982.733398	36669.890625
1981.760742	36368.695313
1980.788086	36562.160156
1979.814453	36311.035156
1978.841797	36659.246094
1977.868164	36535.507813
1976.894531	36484.195313
1975.920898	36767.304688
1974.947266	36710.976563
1973.972656	37013.902344
1972.999023	36807.894531
1972.024414	36774.027344
1971.049805	36590.566406
1970.075195	36467.000000
1969.099609	36565.312500
1968.125000	36750.808594
1967.149414	36981.089844
1966.173828	36740.449219
1965.198242	36803.765625
1964.222656	36627.988281
1963.247070	36661.421875
1962.270508	37150.414063
1961.294922	37124.003906
1960.318359	36704.402344
1959.341797	36767.652344
1958.364258	37057.261719
1957.387695	36610.527344
1956.410156	36837.886719
1955.433594	37159.652344
1954.456055	36914.492188
1953.478516	37141.675781
1952.500000	36869.269531
1951.522461	37136.132813
1950.543945	37310.988281
1949.565430	37644.738281
1948.586914	36878.238281
1947.608398	37422.996094
1946.629883	36813.195313
1945.650391	37375.148438
1944.671875	36926.875000
1943.692383	36989.882813
1942.712891	37479.562500
1941.733398	37351.464844
1940.752930	37260.609375
1939.773438	37546.660156
1938.792969	37021.968750
1937.812500	37575.648438
1936.832031	37430.292969
1935.851563	37614.523438
1934.870117	37508.843750
1933.888672	37566.671875
1932.908203	37277.781250
1931.926758	38068.523438
1930.945313	37653.386719
1929.962891	37213.640625
1928.981445	37437.269531
1927.999023	37621.226563
1927.016602	37666.585938
1926.034180	37279.085938
1925.051758	37618.769531
1924.069336	37352.558594
1923.085938	38213.722656
1922.102539	37717.632813
1921.119141	37145.113281
1920.135742	37600.640625
1919.152344	37885.554688
1918.168945	37478.785156
1917.184570	37847.578125
1916.200195	37744.648438
1915.215820	37965.148438
1914.231445	37593.199219
1913.247070	37993.789063
1912.261719	37918.042969
1911.276367	37743.644531
1910.291992	38077.398438
1909.306641	37962.214844
1908.320313	37827.347656
1907.334961	38190.488281
1906.348633	37505.984375
1905.363281	37876.445313
1904.376953	38236.921875
1903.390625	37794.183594
1902.403320	37501.843750
1901.416992	38231.578125
1900.429688	37774.296875
1899.443359	37888.292969
1898.456055	37955.484375
1897.467773	37943.902344
1896.480469	38011.058594
1895.493164	38085.566406
1894.504883	37946.066406
1893.516602	37801.695313
1892.528320	38043.390625
1891.540039	38139.957031
1890.550781	37634.324219
1889.562500	38151.144531
1888.573242	38422.085938
1887.583984	38201.621094
1886.594727	38384.035156
1885.605469	38013.855469
1884.615234	38301.808594
1883.625000	38147.792969
1882.635742	38352.171875
1881.645508	38109.859375
1880.654297	37936.328125
1879.664063	38511.046875
1878.673828	38413.535156
1877.682617	38190.992188
1876.691406	38113.179688
1875.700195	38368.781250
1874.708984	38820.367188
1873.716797	38421.464844
1872.725586	38556.820313
1871.733398	38430.011719
1870.741211	38178.339844
1869.749023	38343.042969
1868.755859	38211.441406
1867.763672	38429.933594
1866.770508	38814.781250
1865.777344	38426.214844
1864.784180	38654.339844
1863.791016	38574.160156
1862.797852	38623.628906
1861.803711	38418.769531
1860.809570	38927.890625
1859.815430	38600.820313
1858.821289	38726.011719
1857.827148	38809.617188
1856.832031	38744.156250
1855.837891	38803.296875
1854.842773	38877.070313
1853.847656	38648.023438
1852.852539	38546.007813
1851.856445	39107.992188
1850.861328	38783.832031
1849.865234	38640.359375
1848.869141	39087.359375
1847.873047	39134.148438
1846.876953	38951.664063
1845.879883	39095.996094
1844.883789	38903.824219
1843.886719	39138.304688
1842.889648	39007.121094
1841.892578	39297.539063
1840.895508	39110.335938
1839.897461	39291.019531
1838.899414	39181.812500
1837.901367	39493.906250
1836.903320	39635.468750
1835.905273	39645.531250
1834.907227	39380.574219
1833.908203	39439.339844
1832.909180	39524.847656
1831.910156	39571.402344
1830.911133	39613.078125
1829.912109	39584.218750
1828.912109	39740.136719
1827.913086	39947.046875
1826.913086	39915.707031
1825.913086	39665.687500
1824.913086	39928.375000
1823.912109	39539.980469
1822.912109	40179.027344
1821.911133	40196.230469
1820.910156	39837.125000
1819.909180	39509.699219
1818.908203	39900.753906
1817.906250	39930.121094
1816.904297	39976.457031
1815.903320	40122.226563
1814.900391	39974.496094
1813.898438	40163.859375
1812.896484	40425.882813
1811.893555	40416.332031
1810.891602	39999.640625
1809.888672	40198.550781
1808.885742	40256.875000
1807.881836	40358.777344
1806.878906	40315.335938
1805.875000	40133.894531
1804.871094	40134.082031
1803.867188	40560.273438
1802.863281	40710.425781
1801.859375	41085.550781
1800.854492	40604.140625
1799.849609	40838.859375
1798.844727	40323.800781
1797.839844	40667.289063
1796.834961	41056.589844
1795.830078	40544.175781
1794.824219	41027.605469
1793.818359	41068.691406
1792.812500	41191.902344
1791.806641	41498.632813
1790.799805	41566.175781
1789.793945	41462.261719
1788.787109	41404.250000
1787.780273	41252.121094
1786.773438	41474.101563
1785.766602	41819.054688
1784.758789	41490.824219
1783.751953	41707.816406
1782.744141	41869.261719
1781.736328	41676.214844
1780.728516	41702.609375
1779.719727	41801.296875
1778.711914	41813.199219
1777.703125	42123.859375
1776.694336	42073.058594
1775.685547	42284.812500
1774.676758	41749.960938
1773.666992	41607.757813
1772.657227	42503.144531
1771.648438	42315.121094
1770.638672	42257.113281
1769.627930	42341.078125
1768.618164	42833.960938
1767.607422	42884.121094
1766.597656	42573.546875
1765.586914	42782.414063
1764.576172	42844.570313
1763.564453	42498.109375
1762.553711	42778.968750
1761.541992	42557.574219
1760.530273	43251.496094
1759.518555	43332.718750
1758.506836	43517.167969
1757.495117	43711.156250
1756.482422	43537.792969
1755.469727	43515.699219
1754.457031	43774.367188
1753.444336	43694.652344
1752.431641	44106.718750
1751.417969	43703.191406
1750.405273	43697.859375
1749.391602	44318.285156
1748.377930	44418.320313
1747.364258	44189.972656
1746.349609	44347.500000
1745.335938	44047.363281
1744.321289	44463.562500
1743.306641	44779.019531
1742.291992	44598.691406
1741.276367	45052.871094
1740.261719	44760.050781
1739.246094	45352.847656
1738.230469	44964.359375
1737.214844	45317.664063
1736.199219	45663.664063
1735.182617	45734.507813
1734.166992	46269.210938
1733.150391	45907.195313
1732.133789	46080.734375
1731.117188	46586.410156
1730.099609	46745.429688
1729.083008	47035.785156
1728.065430	47161.226563
1727.047852	47255.570313
1726.030273	47815.500000
1725.012695	48172.300781
1723.994141	48142.289063
1722.976563	48432.082031
1721.958008	48588.148438
1720.939453	48865.824219
1719.920898	49198.265625
1718.901367	49404.187500
1717.882813	49335.828125
1716.863281	49358.082031
1715.843750	49766.464844
1714.824219	50212.828125
1713.803711	49791.726563
1712.784180	50276.039063
1711.763672	50517.230469
1710.743164	50298.714844
1709.722656	50151.703125
1708.702148	50133.292969
1707.681641	50464.777344
1706.660156	50888.953125
1705.638672	50380.273438
1704.617188	50751.972656
1703.595703	50574.105469
1702.574219	50684.046875
1701.551758	50484.847656
1700.529297	50485.410156
1699.507813	50581.039063
1698.484375	50883.382813
1697.461914	50860.105469
1696.439453	50846.335938
1695.416016	50758.941406
1694.392578	50942.292969
1693.369141	50710.078125
1692.345703	51126.007813
1691.322266	51223.746094
1690.297852	50856.335938
1689.273438	51063.222656
1688.249023	51879.687500
1687.224609	51702.089844
1686.200195	51621.777344
1685.174805	51769.101563
1684.150391	51738.582031
1683.125000	51971.152344
1682.099609	51824.492188
1681.073242	52163.574219
1680.047852	52353.300781
1679.021484	51853.750000
1677.995117	52682.812500
1676.968750	52439.074219
1675.942383	52512.617188
1674.916016	52910.375000
1673.888672	52666.718750
1672.862305	52905.785156
1671.834961	52617.269531
1670.806641	53151.890625
1669.779297	53336.351563
1668.751953	53206.308594
1667.723633	53400.144531
1666.695313	53452.113281
1665.666992	53934.113281
1664.638672	53546.531250
1663.609375	53855.906250
1662.581055	53848.703125
1661.551758	54172.074219
1660.522461	54304.105469
1659.493164	54247.250000
1658.462891	54643.535156
1657.433594	54669.218750
1656.403320	54131.054688
1655.373047	54468.171875
1654.342773	54767.437500
1653.312500	54861.453125
1652.281250	54858.777344
1651.250977	55127.164063
1650.219727	55155.070313
1649.188477	54973.265625
1648.156250	55100.132813
1647.125000	55625.011719
1646.092773	55582.156250
1645.060547	55605.238281
1644.028320	55837.828125
1642.996094	56284.523438
1641.963867	55841.511719
1640.930664	56088.046875
1639.898438	56656.777344
1638.865234	56183.351563
1637.832031	57010.539063
1636.797852	56864.031250
1635.764648	57103.101563
1634.730469	57320.933594
1633.696289	56899.496094
1632.662109	57667.070313
1631.627930	57626.273438
1630.592773	57627.765625
1629.558594	58033.160156
1628.523438	58102.664063
1627.488281	58463.222656
1626.453125	59070.089844
1625.416992	59566.445313
1624.381836	59642.656250
1623.345703	60305.277344
1622.309570	60561.917969
1621.273438	61507.875000
1620.237305	62073.679688
1619.200195	62590.058594
1618.163086	64156.218750
1617.125977	65253.167969
1616.088867	66534.804688
1615.051758	68017.437500
1614.014648	69907.054688
1612.976563	70618.164063
1611.938477	71518.648438
1610.900391	72437.539063
1609.862305	72813.140625
1608.823242	72205.828125
1607.785156	71252.476563
1606.746094	70912.312500
1605.707031	69349.132813
1604.667969	68443.554688
1603.628906	67211.007813
1602.588867	65679.695313
1601.548828	65319.777344
1600.508789	64371.160156
1599.468750	63397.179688
1598.428711	62916.394531
1597.387695	62961.230469
1596.347656	62326.578125
1595.306641	61559.085938
1594.265625	61718.503906
1593.224609	61259.433594
1592.182617	60975.523438
1591.140625	61218.933594
1590.099609	60802.175781
1589.057617	60924.261719
1588.014648	60612.621094
1586.972656	60625.125000
1585.929688	60989.570313
1584.887695	61223.382813
1583.844727	60741.816406
1582.800781	61460.128906
1581.757813	61397.925781
1580.714844	61338.074219
1579.670898	61308.507813
1578.626953	61849.277344
1577.583008	62340.972656
1576.538086	62276.332031
1575.494141	62779.406250
1574.449219	63149.703125
1573.404297	62940.742188
1572.359375	63001.597656
1571.314453	63536.722656
1570.269531	63478.894531
1569.223633	63474.539063
1568.177734	63800.148438
1567.131836	63056.921875
1566.085938	63122.320313
1565.040039	62523.464844
1563.993164	62284.742188
1562.946289	61902.160156
1561.899414	61645.058594
1560.852539	61211.660156
1559.805664	61240.179688
1558.757813	60716.527344
1557.709961	61090.734375
1556.662109	60657.734375
1555.614258	60612.121094
1554.566406	60677.800781
1553.517578	60574.246094
1552.469727	60802.128906
1551.420898	60439.070313
1550.372070	60583.492188
1549.322266	60535.609375
1548.273438	60114.886719
1547.223633	60564.917969
1546.173828	60769.394531
1545.124023	60536.332031
1544.074219	60507.003906
1543.024414	60891.847656
1541.973633	60651.941406
1540.922852	60606.406250
1539.872070	60567.824219
1538.821289	60688.789063
1537.770508	60365.859375
1536.718750	60119.312500
1535.666992	59669.496094
1534.615234	59603.378906
1533.563477	59839.898438
1532.511719	59794.554688
1531.458984	59472.113281
1530.407227	59403.757813
1529.354492	59291.566406
1528.300781	58720.117188
1527.248047	58843.453125
1526.195313	59068.261719
1525.141602	58843.167969
1524.087891	58832.640625
1523.034180	58762.160156
1521.980469	58184.492188
1520.925781	58065.738281
1519.871094	58110.664063
1518.817383	57982.746094
1517.762695	58198.152344
1516.707031	57558.890625
1515.652344	57645.320313
1514.596680	58090.925781
1513.541016	58214.054688
1512.485352	58097.753906
1511.429688	57804.281250
1510.374023	58355.375000
1509.317383	58340.328125
1508.260742	58553.000000
1507.204102	58296.441406
1506.147461	58228.519531
1505.090820	58236.484375
1504.033203	57987.011719
1502.975586	57992.710938
1501.917969	58382.125000
1500.860352	58164.914063
1499.802734	57729.574219
1498.744141	58477.066406
1497.686523	57598.683594
1496.627930	57992.398438
1495.569336	57782.324219
1494.509766	57980.800781
1493.451172	58142.492188
1492.391602	57739.800781
1491.332031	58172.117188
1490.272461	57519.605469
1489.212891	57789.015625
1488.152344	57744.273438
1487.092773	57488.683594
1486.032227	57554.000000
1484.971680	57960.667969
1483.910156	57679.976563
1482.849609	57791.019531
1481.788086	58060.027344
1480.726563	57628.351563
1479.665039	57595.128906
1478.603516	58273.687500
1477.541992	57304.464844
1476.479492	57417.730469
1475.416992	57894.652344
1474.354492	57703.597656
1473.291992	57958.492188
1472.229492	57948.097656
1471.166016	58264.570313
1470.102539	57755.906250
1469.039063	58319.070313
1467.975586	57929.371094
1466.912109	57964.660156
1465.847656	57931.425781
1464.783203	58003.230469
1463.718750	58312.429688
1462.654297	58792.703125
1461.589844	58807.253906
1460.524414	58878.839844
1459.458984	58738.238281
1458.393555	58848.582031
1457.328125	58717.152344
1456.262695	59406.585938
1455.196289	59350.328125
1454.130859	58772.144531
1453.064453	59420.171875
1451.998047	59370.769531
1450.930664	59701.808594
1449.864258	59335.781250
1448.796875	59744.128906
1447.729492	59940.585938
1446.662109	59472.269531
1445.594727	60278.656250
1444.526367	60242.796875
1443.458008	60468.589844
1442.390625	60719.320313
1441.321289	60949.488281
1440.252930	61620.710938
1439.184570	61334.546875
1438.115234	62178.207031
1437.045898	62128.398438
1435.976563	62805.734375
1434.907227	62837.613281
1433.836914	62615.074219
1432.767578	63737.074219
1431.697266	63269.218750
1430.626953	63605.191406
1429.555664	63736.757813
1428.485352	64290.382813
1427.414063	64385.468750
1426.342773	64010.914063
1425.271484	64158.179688
1424.200195	64768.015625
1423.128906	64930.957031
1422.056641	64907.945313
1420.984375	65252.121094
1419.912109	65290.242188
1418.839844	65337.406250
1417.767578	65171.613281
1416.694336	65275.398438
1415.621094	64806.222656
1414.547852	64921.355469
1413.474609	64135.484375
1412.400391	64397.804688
1411.327148	64422.421875
1410.252930	63890.457031
1409.178711	63740.972656
1408.104492	63392.511719
1407.029297	63702.203125
1405.955078	64093.171875
1404.879883	64343.847656
1403.804688	64723.253906
1402.729492	64618.957031
1401.653320	64910.058594
1400.578125	64453.382813
1399.501953	65162.214844
1398.425781	64624.363281
1397.349609	64671.425781
1396.272461	64923.871094
1395.196289	64932.492188
1394.119141	64568.800781
1393.041992	64839.167969
1391.964844	64899.667969
1390.886719	66173.421875
1389.809570	66454.625000
1388.731445	66172.125000
1387.653320	66257.125000
1386.575195	66729.703125
1385.497070	67157.039063
1384.417969	67521.140625
1383.338867	67400.867188
1382.259766	68174.640625
1381.180664	67385.578125
1380.101563	67022.265625
1379.021484	67777.671875
1377.941406	66815.828125
1376.861328	67411.257813
1375.781250	67187.648438
1374.701172	66889.906250
1373.620117	66783.398438
1372.539063	66544.281250
1371.458008	66201.851563
1370.376953	65585.343750
1369.295898	65422.964844
1368.213867	65606.625000
1367.132813	65307.273438
1366.050781	65295.492188
1364.967773	64845.855469
1363.885742	64912.734375
1362.802734	65325.257813
1361.720703	65360.601563
1360.637695	65382.468750
1359.554688	65402.078125
1358.470703	65190.652344
1357.387695	65385.207031
1356.303711	64839.765625
1355.219727	64702.523438
1354.135742	64247.050781
1353.050781	64753.121094
1351.966797	64089.425781
1350.881836	63605.183594
1349.796875	63244.296875
1348.711914	63208.246094
1347.626953	63514.765625
1346.541016	63183.187500
1345.455078	63297.113281
1344.369141	62659.117188
1343.283203	62871.535156
1342.197266	62853.468750
1341.110352	62625.175781
1340.023438	62470.750000
1338.936523	62678.570313
1337.849609	62863.957031
1336.762695	62988.929688
1335.674805	62988.722656
1334.586914	62917.023438
1333.499023	62791.734375
1332.411133	63439.214844
1331.323242	63472.410156
1330.234375	63244.386719
1329.145508	63244.121094
1328.056641	63480.406250
1326.967773	63212.335938
1325.878906	64046.414063
1324.789063	64616.992188
1323.699219	63809.175781
1322.609375	64326.074219
1321.519531	64347.882813
1320.429688	65024.968750
1319.338867	64723.511719
1318.248047	65774.593750
1317.157227	66177.046875
1316.066406	66398.937500
1314.975586	67589.429688
1313.883789	67806.531250
1312.791992	67480.398438
1311.700195	67621.757813
1310.608398	67760.843750
1309.516602	67194.601563
1308.423828	67235.828125
1307.331055	67065.757813
1306.238281	66213.093750
1305.145508	66741.359375
1304.051758	66284.710938
1302.958984	65886.015625
1301.865234	65842.984375
1300.771484	66295.390625
1299.677734	66505.507813
1298.583008	67095.312500
1297.489258	67807.023438
1296.394531	68045.609375
1295.299805	68162.031250
1294.204102	68759.968750
1293.109375	68787.460938
1292.013672	68557.601563
1290.917969	69088.601563
1289.822266	68124.734375
1288.726563	67970.500000
1287.630859	67627.882813
1286.534180	66917.468750
1285.437500	66608.406250
1284.340820	66148.789063
1283.244141	66404.843750
1282.146484	66124.828125
1281.048828	65557.031250
1279.951172	65985.742188
1278.853516	65433.667969
1277.755859	65167.296875
1276.658203	64878.890625
1275.559570	64884.832031
1274.460938	64105.511719
1273.362305	64374.765625
1272.262695	64073.433594
1271.164063	63827.476563
1270.064453	63532.976563
1268.964844	63784.445313
1267.865234	63129.894531
1266.765625	63255.417969
1265.665039	62291.964844
1264.564453	63073.476563
1263.463867	62560.828125
1262.363281	62476.632813
1261.262695	62346.117188
1260.161133	62021.445313
1259.059570	62122.722656
1257.958008	61582.019531
1256.856445	62060.484375
1255.754883	61645.679688
1254.652344	61391.972656
1253.549805	60664.410156
1252.447266	61519.566406
1251.344727	60847.328125
1250.242188	61334.207031
1249.138672	61041.121094
1248.035156	61278.910156
1246.931641	60629.214844
1245.828125	60466.300781
1244.724609	60285.835938
1243.620117	60853.695313
1242.515625	61280.523438
1241.411133	60492.808594
1240.306641	60884.347656
1239.201172	61262.546875
1238.096680	60723.714844
1236.991211	60769.847656
1235.885742	60651.109375
1234.779297	60813.703125
1233.673828	60552.179688
1232.567383	60940.996094
1231.460938	60424.757813
1230.354492	60047.054688
1229.248047	60815.578125
1228.140625	60516.960938
1227.033203	60554.250000
1225.926758	60920.683594
1224.818359	60968.851563
1223.710938	60808.609375
1222.602539	61065.125000
1221.495117	60527.757813
1220.386719	60501.410156
1219.278320	60915.660156
1218.168945	60523.250000
1217.060547	60652.484375
1215.951172	60352.273438
1214.841797	59813.414063
1213.731445	60161.699219
1212.622070	59780.718750
1211.511719	59666.953125
1210.402344	59719.578125
1209.291992	60113.574219
1208.180664	60437.410156
1207.070313	60513.921875
1205.958984	60056.722656
1204.847656	60362.886719
1203.736328	60738.906250
1202.625000	60708.179688
1201.512695	60362.734375
1200.401367	61026.988281
1199.289063	60932.863281
1198.176758	61103.082031
1197.063477	61502.562500
1195.951172	61818.917969
1194.837891	61803.300781
1193.724609	61981.960938
1192.611328	61865.921875
1191.498047	61370.242188
1190.383789	61895.757813
1189.269531	61912.847656
1188.155273	61500.296875
1187.041016	61192.558594
1185.926758	60967.769531
1184.811523	61307.593750
1183.696289	60845.320313
1182.581055	61126.210938
1181.465820	60829.695313
1180.350586	60820.796875
1179.234375	60522.261719
1178.118164	61273.289063
1177.001953	60389.195313
1175.885742	60574.078125
1174.768555	60674.023438
1173.652344	60219.125000
1172.535156	60421.332031
1171.417969	60166.734375
1170.299805	59940.492188
1169.182617	60394.832031
1168.064453	59640.410156
1166.946289	60081.593750
1165.828125	60181.460938
1164.709961	59692.531250
1163.590820	60090.011719
1162.471680	59303.746094
1161.352539	60065.933594
1160.233398	59421.066406
1159.114258	59679.378906
1157.994141	59210.593750
1156.874023	59316.964844
1155.753906	59635.890625
1154.633789	59375.582031
1153.513672	59336.562500
1152.392578	59570.742188
1151.271484	58890.031250
1150.150391	59503.496094
1149.029297	59284.609375
1147.907227	59538.117188
1146.786133	59444.941406
1145.664063	59288.984375
1144.541992	59648.453125
1143.418945	59899.535156
1142.296875	60154.851563
1141.173828	60509.625000
1140.050781	60489.925781
1138.927734	61223.109375
1137.803711	60943.714844
1136.680664	61194.269531
1135.556641	61031.742188
1134.432617	60592.550781
1133.308594	60629.039063
1132.183594	60550.976563
1131.059570	60669.558594
1129.934570	60250.187500
1128.809570	60647.402344
1127.684570	59917.214844
1126.558594	60202.066406
1125.432617	60204.023438
1124.307617	59448.410156
1123.180664	59713.761719
1122.054688	59726.585938
1120.928711	59579.777344
1119.801758	59366.156250
1118.674805	59094.394531
1117.547852	59148.273438
1116.419922	58885.265625
1115.292969	59033.984375
1114.165039	58454.339844
1113.037109	59331.253906
1111.909180	58652.675781
1110.780273	58374.910156
1109.652344	58508.503906
1108.523438	58403.085938
1107.394531	58181.472656
1106.264648	58308.562500
1105.135742	58276.382813
1104.005859	57781.703125
1102.875977	58216.355469
1101.746094	58145.496094
1100.616211	58182.164063
1099.485352	58356.390625
1098.355469	58339.269531
1097.224609	58408.105469
1096.092773	58057.960938
1094.961914	58418.957031
1093.830078	58195.648438
1092.699219	58369.667969
1091.567383	57364.972656
1090.434570	57758.019531
1089.302734	57569.320313
1088.169922	57833.437500
1087.037109	57490.328125
1085.904297	57868.035156
1084.771484	57452.125000
1083.637695	57842.562500
1082.504883	57797.675781
1081.371094	57527.746094
1080.236328	57658.648438
1079.102539	57678.089844
1077.968750	57476.871094
1076.833984	57616.273438
1075.699219	57819.859375
1074.564453	57488.121094
1073.428711	58094.085938
1072.292969	57899.386719
1071.158203	57711.175781
1070.022461	57980.867188
1068.885742	58030.140625
1067.750000	58124.300781
1066.613281	57901.964844
1065.476563	57713.910156
1064.339844	57925.632813
1063.203125	58216.347656
1062.065430	58152.261719
1060.927734	57680.160156
1059.790039	57866.093750
1058.652344	57970.804688
1057.514648	58224.933594
1056.375977	57797.984375
1055.237305	57891.972656
1054.098633	57938.972656
1052.959961	58288.921875
1051.820313	58163.042969
1050.681641	58124.652344
1049.541992	58041.492188
1048.402344	58173.691406
1047.261719	58320.757813
1046.122070	58457.117188
1044.981445	58052.191406
1043.840820	58254.585938
1042.700195	58623.042969
1041.558594	58942.386719
1040.417969	57639.109375
1039.276367	58433.246094
1038.134766	58177.750000
1036.992188	58169.199219
1035.850586	58641.511719
1034.708008	57833.007813
1033.565430	57971.277344
1032.422852	57707.582031
1031.280273	58439.007813
1030.136719	58630.226563
1028.994141	57612.042969
1027.850586	58083.835938
1026.706055	58485.335938
1025.562500	58461.851563
1024.417969	58300.328125
1023.273438	58270.511719
1022.128906	58376.574219
1020.984375	57917.980469
1019.839844	57892.484375
1018.694336	58458.992188
1017.548828	58656.156250
1016.403320	58479.937500
1015.256836	58409.816406
1014.111328	58348.199219
1012.964844	58150.925781
1011.818359	58595.933594
1010.671875	58805.554688
1009.524414	58339.222656
1008.377930	58750.046875
1007.230469	58790.082031
1006.083008	58495.523438
1004.934570	58982.304688
1003.787109	59121.753906
1002.638672	59527.812500
1001.490234	59631.132813
1000.341797	59992.519531
999.193359	60343.191406
998.043945	60898.871094
996.894531	60354.832031
995.745117	60857.445313
994.595703	60558.792969
993.446289	60182.058594
992.295898	60318.890625
991.145508	60208.507813
989.995117	60514.250000
988.844727	60188.468750
987.693359	61045.152344
986.541992	60793.273438
985.390625	59840.777344
984.239258	60481.808594
983.087891	60445.359375
981.935547	60257.046875
980.783203	60756.335938
979.630859	60762.019531
978.478516	60483.089844
977.325195	60113.621094
976.172852	59986.644531
975.019531	60287.449219
973.865234	60651.335938
972.711914	60541.171875
971.557617	60367.871094
970.404297	60224.105469
969.250000	60008.816406
968.094727	59835.699219
966.940430	60314.992188
965.785156	60518.488281
964.629883	60084.519531
963.474609	59976.703125
962.319336	60480.839844
961.163086	60421.343750
960.007813	60473.269531
958.851563	60205.726563
957.694336	60209.339844
956.538086	60265.472656
955.380859	60411.902344
954.223633	60293.660156
953.066406	60419.027344
951.909180	60498.164063
950.751953	60442.933594
949.593750	59848.394531
948.435547	60578.007813
947.277344	60044.496094
946.118164	60176.046875
944.959961	60462.722656
943.800781	60155.949219
942.641602	60740.183594
941.482422	60062.503906
940.322266	60265.160156
939.162109	60432.125000
938.001953	60031.367188
936.841797	60451.718750
935.681641	60430.093750
934.520508	60247.277344
933.360352	60753.164063
932.198242	60614.296875
931.037109	61163.863281
929.875977	60673.511719
928.713867	60852.648438
927.551758	61506.417969
926.389648	61032.996094
925.227539	61385.464844
924.064453	61466.093750
922.901367	61122.492188
921.738281	61926.023438
920.575195	61697.343750
919.412109	61589.878906
918.248047	61641.148438
917.083984	62648.578125
915.919922	62169.445313
914.755859	62715.179688
913.590820	63214.804688
912.426758	62497.996094
911.261719	63151.820313
910.095703	63826.257813
908.930664	64039.648438
907.764648	64440.578125
906.598633	64159.800781
905.432617	63968.730469
904.266602	64104.835938
903.099609	63651.371094
901.933594	63031.453125
900.766602	63407.117188
899.599609	62989.414063
898.431641	62844.550781
897.264648	62545.730469
896.096680	62781.781250
894.928711	62449.792969
893.759766	62288.480469
892.591797	62649.218750
891.422852	62808.132813
890.253906	62871.359375
889.084961	62685.136719
887.916016	62918.757813
886.746094	63104.503906
885.576172	63096.984375
884.406250	62279.457031
883.236328	63173.316406
882.065430	63186.542969
880.895508	62865.558594
879.724609	63177.691406
878.552734	63319.550781
877.381836	64241.425781
876.209961	64221.238281
875.039063	64043.441406
873.866211	64597.652344
872.694336	64297.531250
871.522461	63993.375000
870.349609	64201.195313
869.176758	64226.605469
868.003906	64548.238281
866.830078	64119.976563
865.657227	64826.671875
864.483398	64802.246094
863.309570	65059.347656
862.135742	65556.437500
860.960938	66198.179688
859.786133	65583.875000
858.611328	66051.617188
857.436523	65925.632813
856.261719	66395.203125
855.085938	65663.460938
853.910156	65733.976563
852.734375	65376.671875
851.558594	65372.824219
850.382813	65631.328125
849.206055	65470.457031
848.029297	65557.445313
846.852539	65683.625000
845.674805	66488.914063
844.498047	65909.007813
843.320313	67419.671875
842.142578	67108.015625
840.963867	68197.093750
839.786133	68817.601563
838.607422	69013.101563
837.428711	69994.000000
836.250000	70395.328125
835.070313	70874.812500
833.891602	71234.617188
832.711914	70572.468750
831.532227	70446.093750
830.352539	69347.765625
829.171875	68340.429688
827.991211	67868.687500
826.810547	67370.367188
825.629883	66026.468750
824.449219	66289.906250
823.267578	65271.714844
822.085938	65319.246094
820.904297	64959.609375
819.722656	64955.777344
818.540039	64820.386719
817.357422	64023.296875
816.174805	64405.921875
814.992188	63902.968750
813.809570	64314.222656
812.625977	63602.003906
811.442383	63754.449219
810.258789	63818.566406
809.074219	63427.007813
807.890625	63948.765625
806.706055	63744.027344
805.521484	63561.925781
804.336914	64187.957031
803.151367	63511.656250
801.966797	63963.191406
800.781250	63645.890625
799.594727	63316.406250
798.409180	62935.812500
797.222656	63284.679688
796.037109	63012.789063
794.849609	62140.964844
793.663086	62182.648438
792.476563	62136.289063
791.289063	62378.531250
790.101563	62297.359375
788.914063	61694.488281
787.725586	61378.222656
786.538086	61671.546875
785.349609	61549.656250
784.161133	61519.808594
782.971680	61522.675781
781.783203	61268.035156
780.593750	61234.160156
779.404297	60861.171875
778.214844	61003.039063
777.024414	61298.015625
775.834961	61078.347656
774.644531	60940.417969
773.454102	61106.648438
772.262695	60766.730469
771.072266	61261.410156
769.880859	61213.289063
768.689453	60924.523438
767.497070	61357.714844
766.305664	61839.671875
765.113281	61752.742188
763.920898	61584.316406
762.728516	62173.949219
761.536133	62274.421875
760.342773	62574.464844
759.149414	62454.878906
757.956055	63166.066406
756.762695	63101.371094
755.568359	63081.476563
754.374023	63132.812500
753.179688	63863.675781
751.985352	63819.230469
750.791016	63343.628906
749.595703	63041.042969
748.400391	63082.156250
747.205078	62751.269531
746.009766	62225.402344
744.813477	62341.816406
743.617188	62149.390625
742.420898	61963.125000
741.224609	62038.898438
740.027344	61659.828125
738.830078	61705.175781
737.632813	60855.417969
736.435547	61430.535156
735.238281	61051.851563
734.040039	61322.433594
732.841797	61242.039063
731.643555	60914.285156
730.445313	61063.089844
729.246094	61183.457031
728.046875	61178.125000
726.847656	60903.296875
725.648438	61193.792969
724.449219	60912.984375
723.249023	61324.871094
722.048828	61054.261719
720.848633	60777.675781
719.647461	60962.664063
718.447266	60601.199219
717.246094	60644.515625
716.044922	60991.246094
714.842773	60811.992188
713.641602	61405.250000
712.439453	61379.636719
711.237305	61214.554688
710.035156	61275.882813
708.832031	61545.300781
707.629883	61370.171875
706.426758	61154.707031
705.223633	61450.246094
704.019531	61341.855469
702.815430	61118.433594
701.612305	61718.570313
700.408203	61834.171875
699.203125	61992.097656
697.999023	61952.277344
696.793945	62392.468750
695.588867	62094.476563
694.383789	62641.324219
693.177734	62776.765625
691.971680	62763.019531
690.766602	63188.531250
689.559570	62979.292969
688.353516	63315.976563
687.146484	63116.855469
685.939453	63217.808594
684.732422	63646.847656
683.525391	63061.335938
682.318359	63144.121094
681.110352	62816.441406
679.902344	63160.742188
678.693359	62889.488281
677.485352	62954.136719
676.276367	62922.257813
675.067383	62934.609375
673.858398	63274.527344
672.649414	63797.164063
671.439453	63080.097656
670.229492	63616.628906
669.019531	62913.914063
667.809570	62859.980469
666.598633	62783.976563
665.387695	62531.382813
664.176758	62525.699219
662.965820	62505.972656
661.754883	62333.800781
660.542969	62211.828125
659.331055	62390.671875
658.119141	62096.316406
656.906250	62208.960938
655.694336	62209.339844
654.481445	62105.523438
653.268555	62095.894531
652.054688	61986.125000
650.841797	61788.277344
649.627930	62034.984375
648.414063	62321.628906
647.200195	62327.968750
645.985352	62776.531250
644.770508	63250.929688
643.555664	63087.058594
642.340820	63173.234375
641.125977	63651.281250
639.910156	63717.320313
638.694336	62783.941406
637.478516	63507.589844
636.262695	63435.746094
635.045898	63226.085938
633.829102	63010.507813
632.612305	62763.062500
631.395508	63112.667969
630.177734	62120.718750
628.959961	62077.136719
627.742188	62119.371094
626.524414	61888.269531
625.306641	62199.796875
624.087891	61737.421875
622.869141	61853.453125
621.650391	62095.031250
620.430664	61993.691406
619.211914	62045.828125
617.992188	61976.410156
616.772461	62275.539063
615.551758	61787.843750
614.332031	62449.312500
613.111328	62218.589844
611.890625	61798.847656
610.669922	62030.050781
609.448242	62607.394531
608.226563	62018.703125
607.004883	62337.246094
605.783203	62611.914063
604.561523	62798.992188
603.338867	62316.058594
602.116211	62356.035156
600.893555	62272.785156
599.669922	62273.011719
598.447266	62678.472656
597.223633	62243.664063
596.000000	62261.757813
594.775391	62484.332031
593.551758	62692.925781
592.327148	62542.226563
591.102539	63008.671875
589.877930	62820.269531
588.652344	62816.398438
587.426758	62877.968750
586.201172	63312.265625
584.975586	63232.968750
583.750000	63191.351563
582.523438	63702.617188
581.296875	64122.554688
580.070313	63662.824219
578.842773	63486.476563
577.616211	64082.433594
576.388672	64119.878906
575.161133	64667.984375
573.932617	64252.105469
572.705078	64046.117188
571.476563	64396.093750
570.248047	64124.878906
569.018555	64225.535156
567.790039	63835.820313
566.560547	63446.250000
565.331055	63582.542969
564.101563	63238.609375
562.871094	63341.296875
561.641602	62604.449219
560.411133	62501.421875
559.179688	62398.316406
557.949219	62295.289063
556.717773	62192.183594
555.486328	62531.746094
554.254883	61989.226563
553.023438	62001.226563
551.791016	62222.285156
550.558594	61648.570313
549.326172	61644.847656
548.093750	61946.660156
546.860352	61883.753906
545.627930	60993.277344
544.393555	61791.492188
543.160156	61508.035156
541.926758	61533.863281
540.692383	61988.917969
539.458008	61695.730469
538.223633	61601.441406
536.988281	61446.183594
535.752930	61715.953125
534.517578	61598.101563
533.282227	61545.191406
532.046875	61641.742188
530.810547	61541.652344
529.574219	61828.828125
528.337891	61883.992188
527.101563	62257.445313
525.864258	62118.011719
524.626953	62418.601563
523.389648	62124.046875
522.152344	62349.906250
520.914063	62122.214844
519.675781	62049.656250
518.437500	62124.292969
517.199219	62142.003906
515.959961	62183.246094
514.721680	62293.109375
513.482422	62246.062500
512.242188	62426.445313
511.002930	61881.523438
509.762695	61981.550781
508.522461	62210.855469
507.282227	61819.074219
506.041016	62150.164063
504.800781	61594.046875
503.559570	61770.375000
502.318359	61917.269531
501.076172	61860.570313
499.833984	61504.503906
498.592773	62001.550781
497.349609	62140.457031
496.107422	61641.765625
494.864258	61821.742188
493.622070	62101.347656
492.377930	61759.304688
491.134766	61991.910156
489.891602	62527.261719
488.647461	61980.214844
487.403320	62068.109375
486.158203	62155.972656
484.914063	62292.605469
483.668945	62029.031250
482.423828	62093.421875
481.178711	62436.808594
479.932617	62044.597656
478.686523	62926.187500
477.440430	62426.765625
476.194336	62830.261719
474.948242	62972.382813
473.701172	63161.226563
472.454102	62927.140625
471.207031	62745.746094
469.958984	62953.992188
468.711914	63177.738281
467.463867	62805.566406
466.215820	63299.855469
464.966797	63361.847656
463.718750	63466.625000
462.469727	63417.652344
461.220703	64578.679688
459.970703	64321.402344
458.721680	64740.929688
457.471680	64617.859375
456.221680	64809.734375
454.970703	65209.488281
453.720703	65453.636719
452.469727	65404.339844
451.218750	66182.507813
449.966797	66432.148438
448.715820	66868.093750
447.463867	67938.664063
446.211914	67817.109375
444.959961	68759.015625
443.707031	68600.484375
442.454102	68645.687500
441.201172	69105.906250
439.948242	68850.437500
438.695313	67521.023438
437.441406	67008.140625
436.187500	65923.757813
434.933594	65337.738281
433.678711	64577.589844
432.424805	64166.359375
431.169922	64086.425781
429.914063	63627.035156
428.659180	63295.578125
427.403320	62817.152344
426.147461	63356.730469
424.891602	63104.824219
423.635742	62816.257813
422.378906	62634.164063
421.122070	62452.136719
419.865234	62395.835938
418.608398	62304.757813
417.350586	62323.863281
416.092773	62393.195313
414.834961	62501.128906
413.577148	62330.906250
412.318359	62222.531250
411.059570	62187.562500
409.800781	62075.394531
408.541992	62358.894531
407.282227	62335.484375
406.022461	62431.691406
404.762695	62441.062500
403.502930	62421.503906
402.242188	62004.761719
400.981445	62002.632813
