#Wave		#Intensity
2001.182617	37527.273438
2000.212891	37479.648438
1999.243164	37510.695313
1998.273438	37238.550781
1997.303711	37665.449219
1996.333008	37418.417969
1995.363281	37406.875000
1994.392578	37630.699219
1993.421875	37661.679688
1992.451172	37554.984375
1991.479492	37751.132813
1990.508789	37804.593750
1989.537109	37587.847656
1988.566406	38024.003906
1987.594727	37297.128906
1986.622070	37448.136719
1985.650391	37426.597656
1984.677734	37777.488281
1983.706055	37468.500000
1982.733398	37337.023438
1981.760742	37540.347656
1980.788086	37328.972656
1979.814453	37647.101563
1978.841797	37518.175781
1977.868164	37848.640625
1976.894531	37602.410156
1975.920898	37967.675781
1974.947266	37761.429688
1973.972656	37587.683594
1972.999023	37927.816406
1972.024414	38098.250000
1971.049805	37829.785156
1970.075195	38094.902344
1969.099609	37791.632813
1968.125000	38243.570313
1967.149414	38147.183594
1966.173828	38005.988281
1965.198242	37862.347656
1964.222656	37932.929688
1963.247070	37771.921875
1962.270508	38153.671875
1961.294922	37883.160156
1960.318359	37893.957031
1959.341797	38108.773438
1958.364258	38107.082031
1957.387695	38050.671875
1956.410156	38118.621094
1955.433594	37982.656250
1954.456055	38058.050781
1953.478516	37780.464844
1952.500000	38171.472656
1951.522461	38000.804688
1950.543945	37872.425781
1949.565430	38397.335938
1948.586914	38159.664063
1947.608398	38175.328125
1946.629883	38086.726563
1945.650391	38082.539063
1944.671875	38371.191406
1943.692383	38466.203125
1942.712891	38280.851563
1941.733398	38224.542969
1940.752930	38252.570313
1939.773438	38151.652344
1938.792969	38204.468750
1937.812500	38472.906250
1936.832031	38349.695313
1935.851563	38385.097656
1934.870117	38204.964844
1933.888672	38582.187500
1932.908203	38411.988281
1931.926758	38566.199219
1930.945313	37947.976563
1929.962891	38036.328125
1928.981445	38124.589844
1927.999023	38212.941406
1927.016602	38301.289063
1926.034180	38389.640625
1925.051758	38642.574219
1924.069336	38141.296875
1923.085938	38631.507813
1922.102539	38436.890625
1921.119141	38252.222656
1920.135742	38477.773438
1919.152344	38513.027344
1918.168945	38513.687500
1917.184570	38437.789063
1916.200195	38428.582031
1915.215820	38663.773438
1914.231445	38632.312500
1913.247070	38289.921875
1912.261719	38638.503906
1911.276367	38567.589844
1910.291992	39014.656250
1909.306641	38393.773438
1908.320313	38653.324219
1907.334961	38631.753906
1906.348633	38753.144531
1905.363281	38645.312500
1904.376953	38961.300781
1903.390625	38939.687500
1902.403320	38689.015625
1901.416992	38721.632813
1900.429688	39320.527344
1899.443359	39148.691406
1898.456055	39358.417969
1897.467773	39024.218750
1896.480469	38901.730469
1895.493164	38931.800781
1894.504883	39089.761719
1893.516602	39496.035156
1892.528320	39280.113281
1891.540039	39228.968750
1890.550781	38863.238281
1889.562500	39124.273438
1888.573242	39107.578125
1887.583984	39294.781250
1886.594727	39378.757813
1885.605469	39379.210938
1884.615234	39674.289063
1883.625000	39495.488281
1882.635742	39346.199219
1881.645508	38772.425781
1880.654297	39668.511719
1879.664063	39480.015625
1878.673828	39877.769531
1877.682617	39637.804688
1876.691406	39800.015625
1875.700195	39717.031250
1874.708984	39464.960938
1873.716797	39732.484375
1872.725586	39421.695313
1871.733398	40215.800781
1870.741211	39341.714844
1869.749023	39626.207031
1868.755859	40123.605469
1867.763672	39722.437500
1866.770508	39700.773438
1865.777344	39869.984375
1864.784180	40176.144531
1863.791016	40093.250000
1862.797852	40328.332031
1861.803711	39832.175781
1860.809570	40370.390625
1859.815430	40409.738281
1858.821289	39867.386719
1857.827148	40080.300781
1856.832031	40481.265625
1855.837891	40808.808594
1854.842773	40589.148438
1853.847656	40083.863281
1852.852539	41058.285156
1851.856445	41109.648438
1850.861328	40829.070313
1849.865234	40607.152344
1848.869141	40643.925781
1847.873047	40597.746094
1846.876953	40907.660156
1845.879883	40646.863281
1844.883789	41049.300781
1843.886719	40778.816406
1842.889648	40752.144531
1841.892578	40788.835938
1840.895508	40562.386719
1839.897461	41178.839844
1838.899414	41303.105469
1837.901367	41739.015625
1836.903320	41157.097656
1835.905273	41395.707031
1834.907227	40969.816406
1833.908203	41624.468750
1832.909180	41244.906250
1831.910156	41731.437500
1830.911133	41417.652344
1829.912109	41969.628906
1828.912109	41266.921875
1827.913086	41748.234375
1826.913086	41636.378906
1825.913086	41405.496094
1824.913086	41320.460938
1823.912109	41609.527344
1822.912109	41478.335938
1821.911133	41932.386719
1820.910156	41254.937500
1819.909180	41917.613281
1818.908203	41888.386719
1817.906250	41798.507813
1816.904297	41844.515625
1815.903320	42322.265625
1814.900391	41589.675781
1813.898438	41844.222656
1812.896484	42164.132813
1811.893555	42045.203125
1810.891602	41720.316406
1809.888672	42287.226563
1808.885742	42044.777344
1807.881836	42163.320313
1806.878906	41877.382813
1805.875000	41816.730469
1804.871094	42237.863281
1803.867188	42167.484375
1802.863281	42527.898438
1801.859375	42367.960938
1800.854492	42324.203125
1799.849609	42309.484375
1798.844727	42519.675781
1797.839844	42427.546875
1796.834961	42649.726563
1795.830078	43041.023438
1794.824219	42262.519531
1793.818359	42617.496094
1792.812500	42851.558594
1791.806641	43037.230469
1790.799805	42986.167969
1789.793945	42855.441406
1788.787109	43108.605469
1787.780273	42869.285156
1786.773438	42970.316406
1785.766602	43025.464844
1784.758789	42663.250000
1783.751953	42740.140625
1782.744141	43272.781250
1781.736328	43175.933594
1780.728516	43151.437500
1779.719727	43604.179688
1778.711914	43006.070313
1777.703125	43461.085938
1776.694336	43894.257813
1775.685547	43638.425781
1774.676758	43050.359375
1773.666992	43411.136719
1772.657227	43754.933594
1771.648438	43980.671875
1770.638672	43272.632813
1769.627930	43724.539063
1768.618164	43748.085938
1767.607422	43867.832031
1766.597656	43833.632813
1765.586914	44030.253906
1764.576172	44332.578125
1763.564453	44005.085938
1762.553711	44244.824219
1761.541992	44112.070313
1760.530273	44188.351563
1759.518555	44403.906250
1758.506836	44703.433594
1757.495117	44284.972656
1756.482422	44853.265625
1755.469727	44468.527344
1754.457031	44503.859375
1753.444336	44498.394531
1752.431641	45138.203125
1751.417969	44772.863281
1750.405273	44937.601563
1749.391602	45085.496094
1748.377930	45223.746094
1747.364258	45685.500000
1746.349609	45200.566406
1745.335938	45324.343750
1744.321289	45407.351563
1743.306641	45540.625000
1742.291992	45693.007813
1741.276367	45728.019531
1740.261719	45741.472656
1739.246094	46269.480469
1738.230469	45768.363281
1737.214844	45949.269531
1736.199219	46462.601563
1735.182617	46896.824219
1734.166992	46623.105469
1733.150391	47021.285156
1732.133789	46864.761719
1731.117188	47334.449219
1730.099609	47717.945313
1729.083008	47785.949219
1728.065430	47369.035156
1727.047852	48184.585938
1726.030273	48591.531250
1725.012695	48461.171875
1723.994141	48972.949219
1722.976563	49300.777344
1721.958008	49463.847656
1720.939453	49762.839844
1719.920898	49391.468750
1718.901367	49952.699219
1717.882813	50153.679688
1716.863281	50042.285156
1715.843750	50588.792969
1714.824219	50470.210938
1713.803711	50375.492188
1712.784180	50340.363281
1711.763672	50776.855469
1710.743164	50386.828125
1709.722656	50687.433594
1708.702148	50540.378906
1707.681641	50424.316406
1706.660156	50808.042969
1705.638672	50415.964844
1704.617188	50464.125000
1703.595703	50785.792969
1702.574219	50610.324219
1701.551758	50261.347656
1700.529297	50590.007813
1699.507813	50875.765625
1698.484375	50329.679688
1697.461914	50299.375000
1696.439453	50599.281250
1695.416016	50495.304688
1694.392578	50688.199219
1693.369141	50154.496094
1692.345703	50857.761719
1691.322266	50461.871094
1690.297852	50778.027344
1689.273438	50500.914063
1688.249023	50681.734375
1687.224609	51073.570313
1686.200195	51341.960938
1685.174805	50908.457031
1684.150391	51238.406250
1683.125000	51532.687500
1682.099609	51490.367188
1681.073242	51512.031250
1680.047852	51753.988281
1679.021484	51299.542969
1677.995117	52055.296875
1676.968750	51896.902344
1675.942383	51752.765625
1674.916016	52337.628906
1673.888672	52375.664063
1672.862305	52046.972656
1671.834961	52435.128906
1670.806641	52191.683594
1669.779297	52385.773438
1668.751953	52567.972656
1667.723633	52629.554688
1666.695313	52639.117188
1665.666992	52967.667969
1664.638672	52599.160156
1663.609375	53678.746094
1662.581055	53331.492188
1661.551758	53480.226563
1660.522461	53503.777344
1659.493164	53775.164063
1658.462891	53520.171875
1657.433594	53501.226563
1656.403320	53623.835938
1655.373047	53446.835938
1654.342773	53885.421875
1653.312500	54080.984375
1652.281250	53908.707031
1651.250977	54196.121094
1650.219727	54075.726563
1649.188477	54466.675781
1648.156250	54645.457031
1647.125000	54124.625000
1646.092773	54065.550781
1645.060547	54545.687500
1644.028320	55202.210938
1642.996094	54389.777344
1641.963867	55067.273438
1640.930664	54890.429688
1639.898438	54638.363281
1638.865234	55444.808594
1637.832031	55597.210938
1636.797852	55274.613281
1635.764648	55732.589844
1634.730469	55379.523438
1633.696289	56027.660156
1632.662109	56064.683594
1631.627930	56364.796875
1630.592773	56610.777344
1629.558594	56941.207031
1628.523438	57339.605469
1627.488281	57824.714844
1626.453125	58276.792969
1625.416992	58482.308594
1624.381836	58338.167969
1623.345703	59327.089844
1622.309570	60695.601563
1621.273438	60612.105469
1620.237305	61297.644531
1619.200195	62761.175781
1618.163086	63478.894531
1617.125977	64995.406250
1616.088867	66066.234375
1615.051758	67827.703125
1614.014648	69241.914063
1612.976563	69913.335938
1611.938477	70806.929688
1610.900391	71503.570313
1609.862305	71834.875000
1608.823242	71595.101563
1607.785156	70382.179688
1606.746094	69286.632813
1605.707031	68081.562500
1604.667969	66509.804688
1603.628906	65834.007813
1602.588867	64380.078125
1601.548828	63571.683594
1600.508789	62920.128906
1599.468750	61712.789063
1598.428711	61519.601563
1597.387695	60756.652344
1596.347656	59937.933594
1595.306641	60361.476563
1594.265625	59827.875000
1593.224609	59677.191406
1592.182617	59650.218750
1591.140625	59002.714844
1590.099609	59246.433594
1589.057617	58352.031250
1588.014648	58628.417969
1586.972656	58408.156250
1585.929688	58661.121094
1584.887695	58221.871094
1583.844727	59073.570313
1582.800781	59149.230469
1581.757813	58602.984375
1580.714844	59079.230469
1579.670898	58915.023438
1578.626953	59237.402344
1577.583008	59047.621094
1576.538086	59358.218750
1575.494141	60022.351563
1574.449219	60076.777344
1573.404297	60107.921875
1572.359375	59876.285156
1571.314453	60032.996094
1570.269531	60226.843750
1569.223633	59909.312500
1568.177734	59466.406250
1567.131836	59153.761719
1566.085938	59308.128906
1565.040039	59497.277344
1563.993164	58727.339844
1562.946289	58540.410156
1561.899414	57719.847656
1560.852539	57403.195313
1559.805664	57662.113281
1558.757813	58006.773438
1557.709961	57312.140625
1556.662109	57642.824219
1555.614258	57572.242188
1554.566406	58317.734375
1553.517578	58008.308594
1552.469727	58030.390625
1551.420898	57797.585938
1550.372070	57530.109375
1549.322266	58652.484375
1548.273438	59031.070313
1547.223633	58890.859375
1546.173828	59280.835938
1545.124023	58957.769531
1544.074219	59366.101563
1543.024414	59297.648438
1541.973633	58812.812500
1540.922852	58957.269531
1539.872070	58343.156250
1538.821289	58214.808594
1537.770508	58031.023438
1536.718750	57958.246094
1535.666992	57386.335938
1534.615234	57567.847656
1533.563477	57495.183594
1532.511719	56845.128906
1531.458984	56839.582031
1530.407227	56921.769531
1529.354492	56639.199219
1528.300781	56652.148438
1527.248047	56750.472656
1526.195313	56225.824219
1525.141602	56266.515625
1524.087891	56330.253906
1523.034180	56156.453125
1521.980469	55941.214844
1520.925781	56530.535156
1519.871094	56200.070313
1518.817383	56369.746094
1517.762695	55663.890625
1516.707031	56080.070313
1515.652344	56136.820313
1514.596680	55307.035156
1513.541016	55957.875000
1512.485352	55360.898438
1511.429688	55109.339844
1510.374023	55667.820313
1509.317383	55483.011719
1508.260742	55277.562500
1507.204102	55283.765625
1506.147461	55538.289063
1505.090820	55496.160156
1504.033203	55382.789063
1502.975586	55451.007813
1501.917969	55562.855469
1500.860352	54960.203125
1499.802734	55637.125000
1498.744141	55356.175781
1497.686523	55054.664063
1496.627930	55655.441406
1495.569336	55197.898438
1494.509766	55291.277344
1493.451172	55113.878906
1492.391602	55331.109375
1491.332031	55268.441406
1490.272461	55045.273438
1489.212891	55074.386719
1488.152344	54551.031250
1487.092773	54841.496094
1486.032227	55322.054688
1484.971680	54892.863281
1483.910156	55041.082031
1482.849609	55285.437500
1481.788086	55197.667969
1480.726563	55151.140625
1479.665039	54871.144531
1478.603516	55197.738281
1477.541992	55162.667969
1476.479492	55768.203125
1475.416992	55266.406250
1474.354492	55526.363281
1473.291992	55459.238281
1472.229492	55760.210938
1471.166016	55567.347656
1470.102539	55157.437500
1469.039063	55604.535156
1467.975586	54986.871094
1466.912109	55415.558594
1465.847656	55643.125000
1464.783203	55964.222656
1463.718750	55545.539063
1462.654297	55715.886719
1461.589844	55883.890625
1460.524414	56311.945313
1459.458984	56233.398438
1458.393555	56268.921875
1457.328125	56464.062500
1456.262695	56041.238281
1455.196289	56564.613281
1454.130859	56146.476563
1453.064453	55849.265625
1451.998047	56206.058594
1450.930664	56672.070313
1449.864258	56812.214844
1448.796875	56592.507813
1447.729492	56687.078125
1446.662109	57011.519531
1445.594727	57008.109375
1444.526367	57496.214844
1443.458008	58050.117188
1442.390625	57395.941406
1441.321289	58345.394531
1440.252930	58039.300781
1439.184570	58479.027344
1438.115234	58784.480469
1437.045898	59385.269531
1435.976563	59497.300781
1434.907227	60054.574219
1433.836914	60021.066406
1432.767578	60280.535156
1431.697266	60192.496094
1430.626953	60699.289063
1429.555664	60978.914063
1428.485352	60877.175781
1427.414063	61270.117188
1426.342773	61647.031250
1425.271484	62001.125000
1424.200195	62497.960938
1423.128906	62557.011719
1422.056641	62625.105469
1420.984375	62752.101563
1419.912109	62994.625000
1418.839844	62450.843750
1417.767578	62713.714844
1416.694336	62761.324219
1415.621094	62718.328125
1414.547852	61987.054688
1413.474609	61991.750000
1412.400391	61032.269531
1411.327148	61055.230469
1410.252930	60872.296875
1409.178711	60596.675781
1408.104492	60389.007813
1407.029297	60785.164063
1405.955078	60591.093750
1404.879883	60910.214844
1403.804688	61226.957031
1402.729492	61184.300781
1401.653320	61464.726563
1400.578125	61623.074219
1399.501953	61383.878906
1398.425781	61657.335938
1397.349609	61883.281250
1396.272461	61933.082031
1395.196289	61921.925781
1394.119141	61992.003906
1393.041992	62357.589844
1391.964844	63034.308594
1390.886719	63322.890625
1389.809570	63739.886719
1388.731445	63865.921875
1387.653320	63831.875000
1386.575195	64518.972656
1385.497070	64052.214844
1384.417969	64033.914063
1383.338867	64216.074219
1382.259766	63986.066406
1381.180664	63990.296875
1380.101563	63753.652344
1379.021484	63694.894531
1377.941406	63746.421875
1376.861328	63496.445313
1375.781250	63570.476563
1374.701172	63219.406250
1373.620117	63001.128906
1372.539063	62490.652344
1371.458008	62402.957031
1370.376953	62483.851563
1369.295898	61879.363281
1368.213867	62432.109375
1367.132813	61839.074219
1366.050781	62611.718750
1364.967773	61819.011719
1363.885742	63211.003906
1362.802734	62979.628906
1361.720703	63125.363281
1360.637695	62956.906250
1359.554688	63351.605469
1358.470703	63918.867188
1357.387695	63342.199219
1356.303711	62922.687500
1355.219727	62700.605469
1354.135742	62532.390625
1353.050781	61868.980469
1351.966797	61447.789063
1350.881836	61087.230469
1349.796875	61291.218750
1348.711914	60668.808594
1347.626953	60369.031250
1346.541016	60147.707031
1345.455078	59951.078125
1344.369141	59841.792969
1343.283203	59613.964844
1342.197266	59462.273438
1341.110352	59684.132813
1340.023438	60198.843750
1338.936523	59195.308594
1337.849609	59768.035156
1336.762695	59830.992188
1335.674805	59773.257813
1334.586914	60169.066406
1333.499023	60044.277344
1332.411133	59765.429688
1331.323242	59654.152344
1330.234375	60447.070313
1329.145508	60163.832031
1328.056641	60262.312500
1326.967773	60525.867188
1325.878906	60497.082031
1324.789063	61103.988281
1323.699219	61487.667969
1322.609375	61692.828125
1321.519531	62120.843750
1320.429688	62441.710938
1319.338867	63535.742188
1318.248047	64290.707031
1317.157227	65141.183594
1316.066406	65817.625000
1314.975586	66614.070313
1313.883789	67296.671875
1312.791992	67527.140625
1311.700195	68325.062500
1310.608398	67573.921875
1309.516602	67312.515625
1308.423828	67273.648438
1307.331055	66692.125000
1306.238281	65474.847656
1305.145508	65365.175781
1304.051758	64275.277344
1302.958984	64241.421875
1301.865234	64107.585938
1300.771484	64402.566406
1299.677734	64033.292969
1298.583008	64121.640625
1297.489258	64565.218750
1296.394531	65423.773438
1295.299805	65287.632813
1294.204102	65766.257813
1293.109375	65492.531250
1292.013672	65724.695313
1290.917969	65617.421875
1289.822266	65037.832031
1288.726563	64549.355469
1287.630859	64253.917969
1286.534180	64938.226563
1285.437500	63756.417969
1284.340820	63649.601563
1283.244141	63440.917969
1282.146484	63044.050781
1281.048828	62665.039063
1279.951172	62906.082031
1278.853516	62412.121094
1277.755859	62099.820313
1276.658203	61508.816406
1275.559570	61780.855469
1274.460938	62200.996094
1273.362305	61367.011719
1272.262695	61428.859375
1271.164063	60951.250000
1270.064453	60895.992188
1268.964844	60781.082031
1267.865234	60257.441406
1266.765625	60339.300781
1265.665039	60237.800781
1264.564453	59813.910156
1263.463867	59677.210938
1262.363281	59664.179688
1261.262695	59397.328125
1260.161133	59351.246094
1259.059570	59232.367188
1257.958008	58948.082031
1256.856445	58895.484375
1255.754883	58545.203125
1254.652344	58488.281250
1253.549805	57972.867188
1252.447266	58420.777344
1251.344727	58355.085938
1250.242188	58214.507813
1249.138672	58177.511719
1248.035156	58138.324219
1246.931641	58455.863281
1245.828125	58566.339844
1244.724609	58973.933594
1243.620117	58945.625000
1242.515625	59209.968750
1241.411133	59311.417969
1240.306641	59452.421875
1239.201172	59168.929688
1238.096680	59151.589844
1236.991211	59033.125000
1235.885742	58835.578125
1234.779297	58820.496094
1233.673828	58359.390625
1232.567383	58491.582031
1231.460938	58074.625000
1230.354492	58635.035156
1229.248047	58413.605469
1228.140625	57862.976563
1227.033203	57744.917969
1225.926758	57923.144531
1224.818359	57888.484375
1223.710938	57935.000000
1222.602539	57727.085938
1221.495117	57828.425781
1220.386719	57567.980469
1219.278320	57237.488281
1218.168945	57450.625000
1217.060547	57129.031250
1215.951172	57269.812500
1214.841797	57022.835938
1213.731445	57286.218750
1212.622070	56822.554688
1211.511719	57103.386719
1210.402344	57773.722656
1209.291992	57610.027344
1208.180664	57669.566406
1207.070313	57396.566406
1205.958984	58232.582031
1204.847656	58276.660156
1203.736328	58018.992188
1202.625000	58264.203125
1201.512695	57973.839844
1200.401367	58559.863281
1199.289063	58752.398438
1198.176758	58254.578125
1197.063477	58650.207031
1195.951172	58991.101563
1194.837891	59443.210938
1193.724609	59087.503906
1192.611328	59829.695313
1191.498047	59738.066406
1190.383789	59419.582031
1189.269531	59609.437500
1188.155273	59134.062500
1187.041016	58216.222656
1185.926758	58406.191406
1184.811523	58260.414063
1183.696289	58260.703125
1182.581055	58086.675781
1181.465820	57762.398438
1180.350586	57987.109375
1179.234375	58608.078125
1178.118164	57883.250000
1177.001953	57894.476563
1175.885742	57960.105469
1174.768555	57836.390625
1173.652344	57651.792969
1172.535156	57432.460938
1171.417969	57271.925781
1170.299805	57594.191406
1169.182617	57716.316406
1168.064453	57594.937500
1166.946289	57327.988281
1165.828125	57126.320313
1164.709961	57124.597656
1163.590820	57561.644531
1162.471680	56838.820313
1161.352539	57607.972656
1160.233398	57460.699219
1159.114258	57168.050781
1157.994141	57398.511719
1156.874023	57236.160156
1155.753906	57470.863281
1154.633789	57284.695313
1153.513672	57083.410156
1152.392578	57289.816406
1151.271484	57249.019531
1150.150391	57446.644531
1149.029297	57232.468750
1147.907227	57774.507813
1146.786133	57460.699219
1145.664063	57779.417969
1144.541992	57942.105469
1143.418945	58070.093750
1142.296875	58156.902344
1141.173828	58451.445313
1140.050781	58343.406250
1138.927734	58473.378906
1137.803711	58884.500000
1136.680664	58904.027344
1135.556641	58778.671875
1134.432617	58705.250000
1133.308594	59055.496094
1132.183594	58493.640625
1131.059570	58366.281250
1129.934570	58230.328125
1128.809570	57984.265625
1127.684570	58217.695313
1126.558594	58125.019531
1125.432617	58518.078125
1124.307617	58198.750000
1123.180664	57881.695313
1122.054688	57698.519531
1120.928711	57886.433594
1119.801758	57703.320313
1118.674805	57567.707031
1117.547852	57863.332031
1116.419922	57725.578125
1115.292969	56973.656250
1114.165039	57685.089844
1113.037109	56786.945313
1111.909180	57261.210938
1110.780273	57730.992188
1109.652344	57589.093750
1108.523438	57042.519531
1107.394531	57382.929688
1106.264648	56877.476563
1105.135742	56944.535156
1104.005859	57594.546875
1102.875977	57543.148438
1101.746094	57197.156250
1100.616211	57335.050781
1099.485352	57395.500000
1098.355469	57440.882813
1097.224609	57292.847656
1096.092773	57353.265625
1094.961914	57222.480469
1093.830078	57038.050781
1092.699219	57437.746094
1091.567383	57055.820313
1090.434570	57285.789063
1089.302734	56998.457031
1088.169922	56915.070313
1087.037109	56336.144531
1085.904297	56763.398438
1084.771484	56967.460938
1083.637695	56684.726563
1082.504883	56923.023438
1081.371094	56916.890625
1080.236328	56550.734375
1079.102539	56938.898438
1077.968750	56772.093750
1076.833984	57166.496094
1075.699219	56766.292969
1074.564453	57122.007813
1073.428711	56826.843750
1072.292969	57101.085938
1071.158203	56970.792969
1070.022461	56594.515625
1068.885742	56930.671875
1067.750000	57655.937500
1066.613281	57057.351563
1065.476563	56790.351563
1064.339844	57145.453125
1063.203125	57013.167969
1062.065430	57182.203125
1060.927734	57000.816406
1059.790039	57240.269531
1058.652344	57242.589844
1057.514648	56773.046875
1056.375977	57236.550781
1055.237305	57277.281250
1054.098633	56852.792969
1052.959961	56707.953125
1051.820313	56748.750000
1050.681641	56932.425781
1049.541992	56617.054688
1048.402344	56828.398438
1047.261719	57363.667969
1046.122070	57655.777344
1044.981445	57540.792969
1043.840820	57866.843750
1042.700195	57971.250000
1041.558594	57849.875000
1040.417969	57724.281250
1039.276367	57394.355469
1038.134766	57400.851563
1036.992188	57432.882813
1035.850586	57301.062500
1034.708008	56873.593750
1033.565430	56837.632813
1032.422852	56742.136719
1031.280273	56646.675781
1030.136719	56967.894531
1028.994141	56953.183594
1027.850586	56957.601563
1026.706055	57042.750000
1025.562500	56919.695313
1024.417969	57178.964844
1023.273438	56614.253906
1022.128906	56915.941406
1020.984375	56920.343750
1019.839844	57238.835938
1018.694336	57171.031250
1017.548828	57219.933594
1016.403320	57236.992188
1015.256836	57801.183594
1014.111328	57133.273438
1012.964844	57358.082031
1011.818359	57211.894531
1010.671875	57491.699219
1009.524414	57178.156250
1008.377930	57087.152344
1007.230469	57237.625000
1006.083008	57612.500000
1004.934570	57548.980469
1003.787109	57557.449219
1002.638672	57309.832031
1001.490234	58082.218750
1000.341797	58225.980469
999.193359	58352.761719
998.043945	58145.351563
996.894531	58456.054688
995.745117	58589.062500
994.595703	58385.941406
993.446289	57903.941406
992.295898	58066.546875
991.145508	57846.726563
989.995117	58763.304688
988.844727	58192.882813
987.693359	58302.523438
986.541992	58190.472656
985.390625	58660.972656
984.239258	58774.675781
983.087891	58919.984375
981.935547	58153.976563
980.783203	58204.433594
979.630859	58733.527344
978.478516	58471.835938
977.325195	58810.976563
976.172852	58629.445313
975.019531	58787.214844
973.865234	58251.828125
972.711914	58489.644531
971.557617	58382.000000
970.404297	58440.730469
969.250000	58354.183594
968.094727	58164.535156
966.940430	58381.089844
965.785156	58443.976563
964.629883	58161.847656
963.474609	59099.671875
962.319336	58569.390625
961.163086	58588.035156
960.007813	58451.117188
958.851563	58705.152344
957.694336	59219.648438
956.538086	59019.656250
955.380859	58773.527344
954.223633	59243.617188
953.066406	58665.773438
951.909180	58843.898438
950.751953	58726.007813
949.593750	58442.367188
948.435547	58775.691406
947.277344	58475.363281
946.118164	58680.609375
944.959961	58120.375000
943.800781	57975.476563
942.641602	58360.968750
941.482422	58459.187500
940.322266	58391.828125
939.162109	58452.289063
938.001953	57953.449219
936.841797	57879.925781
935.681641	58470.199219
934.520508	58520.125000
933.360352	58216.289063
932.198242	58511.085938
931.037109	58876.914063
929.875977	58859.769531
928.713867	58564.453125
927.551758	58618.468750
926.389648	58791.640625
925.227539	58366.882813
924.064453	58646.625000
922.901367	58901.183594
921.738281	59189.074219
920.575195	58958.812500
919.412109	59150.511719
918.248047	59885.046875
917.083984	59673.566406
915.919922	59933.898438
914.755859	59966.656250
913.590820	60295.691406
912.426758	60155.207031
911.261719	60786.523438
910.095703	61081.847656
908.930664	61414.593750
907.764648	61261.492188
906.598633	61364.804688
905.432617	61311.789063
904.266602	60787.917969
903.099609	60505.882813
901.933594	60063.574219
900.766602	60720.902344
899.599609	60064.273438
898.431641	59880.402344
897.264648	59861.007813
896.096680	59931.089844
894.928711	59141.937500
893.759766	59384.765625
892.591797	59714.843750
891.422852	59587.363281
890.253906	59728.101563
889.084961	59567.402344
887.916016	59092.968750
886.746094	59692.886719
885.576172	59532.277344
884.406250	59436.109375
883.236328	59987.863281
882.065430	59592.671875
880.895508	59880.558594
879.724609	59435.718750
878.552734	60059.679688
877.381836	59990.472656
876.209961	60570.535156
875.039063	60530.292969
873.866211	60465.175781
872.694336	60874.824219
871.522461	61232.503906
870.349609	60721.730469
869.176758	60534.371094
868.003906	60867.046875
866.830078	60890.984375
865.657227	61262.808594
864.483398	61727.664063
863.309570	62090.910156
862.135742	62350.535156
860.960938	62359.679688
859.786133	62410.195313
858.611328	62634.441406
857.436523	62132.695313
856.261719	62557.476563
855.085938	61971.160156
853.910156	61775.714844
852.734375	61634.074219
851.558594	61643.312500
850.382813	61700.062500
849.206055	61831.140625
848.029297	61887.828125
846.852539	62113.796875
845.674805	62810.335938
844.498047	62352.886719
843.320313	63185.308594
842.142578	63256.121094
840.963867	63714.703125
839.786133	64267.980469
838.607422	65196.335938
837.428711	65353.296875
836.250000	65852.367188
835.070313	66827.296875
833.891602	66174.093750
832.711914	66044.398438
831.532227	65531.636719
830.352539	64714.281250
829.171875	63882.816406
827.991211	63527.183594
826.810547	62768.277344
825.629883	62340.953125
824.449219	61144.312500
823.267578	61632.824219
822.085938	61084.601563
820.904297	60894.367188
819.722656	60550.007813
818.540039	60762.820313
817.357422	60404.222656
816.174805	60395.062500
814.992188	60096.238281
813.809570	59787.250000
812.625977	59950.707031
811.442383	60112.042969
810.258789	59873.015625
809.074219	59839.316406
807.890625	60107.285156
806.706055	59925.828125
805.521484	60195.726563
804.336914	59954.839844
803.151367	60210.269531
801.966797	60605.019531
800.781250	59864.031250
799.594727	59568.039063
798.409180	59716.796875
797.222656	59205.828125
796.037109	59020.722656
794.849609	58639.085938
793.663086	58405.007813
792.476563	58039.996094
791.289063	58072.187500
790.101563	58026.605469
788.914063	58292.023438
787.725586	58056.167969
786.538086	58006.515625
785.349609	57300.480469
784.161133	57984.941406
782.971680	57469.269531
781.783203	57356.394531
780.593750	56902.328125
779.404297	56930.558594
778.214844	57207.968750
777.024414	56743.960938
775.834961	56676.230469
774.644531	56704.472656
773.454102	56518.394531
772.262695	56775.203125
771.072266	56566.730469
769.880859	56833.625000
768.689453	57069.832031
767.497070	57102.031250
766.305664	57166.835938
765.113281	56787.246094
763.920898	57125.171875
762.728516	57835.851563
761.536133	58010.472656
760.342773	57781.726563
759.149414	58669.054688
757.956055	58426.015625
756.762695	58867.062500
755.568359	58821.500000
754.374023	58501.226563
753.179688	58974.562500
751.985352	58758.121094
750.791016	58584.468750
749.595703	58321.402344
748.400391	58052.335938
747.205078	57732.550781
746.009766	57628.304688
744.813477	57609.437500
743.617188	57279.746094
742.420898	56887.210938
741.224609	57065.468750
740.027344	56896.460938
738.830078	56605.707031
737.632813	56741.289063
736.435547	56099.601563
735.238281	56371.160156
734.040039	56188.226563
732.841797	55938.425781
731.643555	56538.351563
730.445313	55678.332031
729.246094	56034.835938
728.046875	55803.480469
726.847656	56107.140625
725.648438	55543.609375
724.449219	55909.988281
723.249023	55484.406250
722.048828	55283.730469
720.848633	55988.015625
719.647461	55767.074219
718.447266	55315.515625
717.246094	55827.187500
716.044922	55780.359375
714.842773	55935.789063
713.641602	55856.597656
712.439453	55844.148438
711.237305	55597.222656
710.035156	55801.066406
708.832031	56027.058594
707.629883	56097.406250
706.426758	55949.578125
705.223633	56064.339844
704.019531	56564.695313
702.815430	56075.695313
701.612305	55972.378906
700.408203	56662.156250
699.203125	55739.625000
697.999023	56465.488281
696.793945	56586.035156
695.588867	56077.398438
694.383789	56530.617188
693.177734	56300.339844
691.971680	56880.308594
690.766602	56376.015625
689.559570	56274.824219
688.353516	56884.675781
687.146484	56181.292969
685.939453	56219.109375
684.732422	56568.937500
683.525391	56186.015625
682.318359	56036.660156
681.110352	55947.718750
679.902344	55444.425781
678.693359	55781.988281
677.485352	55946.496094
676.276367	55986.292969
675.067383	56040.144531
673.858398	56415.515625
672.649414	56394.917969
671.439453	56699.765625
670.229492	56413.988281
669.019531	56429.539063
667.809570	56493.269531
666.598633	56163.515625
665.387695	55874.027344
664.176758	55701.031250
662.965820	56099.886719
661.754883	55609.972656
660.542969	55569.480469
659.331055	55561.082031
658.119141	55871.449219
656.906250	55283.714844
655.694336	55802.429688
654.481445	55737.882813
653.268555	55905.738281
652.054688	55821.160156
650.841797	56247.257813
649.627930	55437.859375
648.414063	56164.132813
647.200195	57064.253906
645.985352	56909.492188
644.770508	57260.949219
643.555664	57460.250000
642.340820	57843.468750
641.125977	57968.597656
639.910156	57715.835938
638.694336	57778.972656
637.478516	57256.550781
636.262695	57223.839844
635.045898	56881.503906
633.829102	57028.625000
632.612305	56478.765625
631.395508	56568.003906
630.177734	56190.105469
628.959961	56155.621094
627.742188	55949.539063
626.524414	56342.046875
625.306641	55848.769531
624.087891	55802.398438
622.869141	55732.113281
621.650391	55791.433594
620.430664	55432.160156
619.211914	55603.105469
617.992188	55999.128906
616.772461	55624.078125
615.551758	55677.375000
614.332031	55633.074219
613.111328	55381.730469
611.890625	55612.195313
610.669922	55333.082031
609.448242	55525.656250
608.226563	55678.367188
607.004883	55781.292969
605.783203	55689.285156
604.561523	55837.894531
603.338867	55400.003906
602.116211	55810.964844
600.893555	55516.316406
599.669922	55664.835938
598.447266	55078.312500
597.223633	55635.984375
596.000000	55556.035156
594.775391	55460.230469
593.551758	55723.734375
592.327148	55536.640625
591.102539	56198.851563
589.877930	55751.847656
588.652344	55874.265625
587.426758	55881.613281
586.201172	56065.417969
584.975586	56443.421875
583.750000	56418.941406
582.523438	56945.351563
581.296875	57073.332031
580.070313	57011.101563
578.842773	57133.074219
577.616211	57045.109375
576.388672	57000.726563
575.161133	57106.792969
573.932617	57321.660156
572.705078	57116.972656
571.476563	57228.882813
570.248047	56957.039063
569.018555	57563.308594
567.790039	56969.222656
566.560547	56745.015625
565.331055	56837.113281
564.101563	56020.203125
562.871094	56402.816406
561.641602	56267.761719
560.411133	56247.296875
559.179688	55928.683594
557.949219	55965.539063
556.717773	55503.007813
555.486328	55857.640625
554.254883	55610.359375
553.023438	55485.476563
551.791016	55553.921875
550.558594	55109.636719
549.326172	55708.472656
548.093750	55025.804688
546.860352	55045.007813
545.627930	55194.246094
544.393555	55225.222656
543.160156	55297.546875
541.926758	55042.933594
540.692383	54908.519531
539.458008	54939.515625
538.223633	55303.128906
536.988281	55119.539063
535.752930	55164.242188
534.517578	55214.824219
533.282227	54927.109375
532.046875	55487.003906
530.810547	55226.867188
529.574219	55715.726563
528.337891	55198.187500
527.101563	55971.769531
525.864258	55635.109375
524.626953	55695.328125
523.389648	56195.410156
522.152344	55715.558594
520.914063	55557.824219
519.675781	55810.343750
518.437500	55825.328125
517.199219	55738.285156
515.959961	55608.113281
514.721680	55458.382813
513.482422	55930.277344
512.242188	55823.664063
511.002930	55315.273438
509.762695	55590.953125
508.522461	55694.105469
507.282227	55221.277344
506.041016	55097.257813
504.800781	55723.285156
503.559570	55268.332031
502.318359	55044.535156
501.076172	55359.023438
499.833984	55309.437500
498.592773	55314.648438
497.349609	55302.246094
496.107422	54926.101563
494.864258	55963.753906
493.622070	55323.707031
492.377930	55377.757813
491.134766	55320.398438
489.891602	55259.148438
488.647461	55362.011719
487.403320	55523.421875
486.158203	55434.824219
484.914063	55680.105469
483.668945	55642.257813
482.423828	56035.718750
481.178711	55884.644531
479.932617	55805.800781
478.686523	56115.132813
477.440430	56186.429688
476.194336	56357.136719
474.948242	56336.734375
473.701172	56678.855469
472.454102	56837.667969
471.207031	56669.113281
469.958984	56790.855469
468.711914	56573.679688
467.463867	56607.765625
466.215820	56746.960938
464.966797	56794.621094
463.718750	57204.226563
462.469727	57216.753906
461.220703	57225.382813
459.970703	57722.187500
458.721680	57489.585938
457.471680	57888.937500
456.221680	57946.019531
454.970703	58115.796875
453.720703	58369.062500
452.469727	58394.925781
451.218750	58966.585938
449.966797	59198.175781
448.715820	59575.296875
447.463867	60356.058594
446.211914	60831.796875
444.959961	61291.832031
443.707031	61668.257813
442.454102	62228.824219
441.201172	62296.554688
439.948242	61782.539063
438.695313	60809.242188
437.441406	59977.812500
436.187500	59623.429688
434.933594	58486.390625
433.678711	57667.484375
432.424805	57776.644531
431.169922	57713.414063
429.914063	56837.027344
428.659180	57387.628906
427.403320	57171.601563
426.147461	56264.847656
424.891602	56472.800781
423.635742	56489.175781
422.378906	56666.058594
421.122070	56177.726563
419.865234	56024.019531
418.608398	56392.234375
417.350586	56590.246094
416.092773	56310.953125
414.834961	56089.718750
413.577148	55930.363281
412.318359	56253.820313
411.059570	56162.062500
409.800781	55782.730469
408.541992	56219.882813
407.282227	56288.328125
406.022461	55822.367188
404.762695	55964.152344
403.502930	56277.507813
402.242188	55917.847656
400.981445	55889.886719
