#Wave		#Intensity
2001.221680	40274.671875
2000.251953	40718.328125
1999.282227	40879.125000
1998.312500	40811.855469
1997.342773	40323.730469
1996.372070	40935.367188
1995.402344	40970.792969
1994.431641	41076.316406
1993.460938	40658.578125
1992.490234	40761.609375
1991.518555	41049.796875
1990.547852	40832.449219
1989.576172	40982.921875
1988.604492	40818.187500
1987.632813	41048.636719
1986.661133	41264.000000
1985.689453	41084.296875
1984.716797	40809.667969
1983.745117	41407.320313
1982.772461	41040.277344
1981.799805	41178.003906
1980.827148	41003.460938
1979.853516	40966.328125
1978.880859	40562.160156
1977.907227	40802.222656
1976.933594	40974.804688
1975.959961	41005.078125
1974.986328	40850.699219
1974.011719	41130.449219
1973.038086	41302.851563
1972.063477	41475.187500
1971.088867	41226.074219
1970.114258	41041.867188
1969.138672	41231.601563
1968.164063	40972.691406
1967.188477	41558.546875
1966.212891	41573.699219
1965.237305	41773.167969
1964.261719	41606.476563
1963.286133	41320.332031
1962.309570	41308.125000
1961.333984	41295.921875
1960.357422	41462.902344
1959.380859	41264.058594
1958.404297	41401.132813
1957.426758	41272.011719
1956.450195	41814.390625
1955.472656	41667.835938
1954.495117	41722.695313
1953.517578	42075.804688
1952.540039	41576.382813
1951.561523	41740.550781
1950.583008	41494.757813
1949.605469	41795.492188
1948.626953	41768.308594
1947.647461	41343.863281
1946.668945	41130.574219
1945.690430	41282.230469
1944.710938	41677.031250
1943.731445	41099.054688
1942.751953	41555.769531
1941.772461	41771.726563
1940.791992	41883.449219
1939.812500	41903.390625
1938.832031	41452.300781
1937.851563	41492.136719
1936.871094	41826.859375
1935.890625	41561.847656
1934.909180	41784.960938
1933.928711	41752.875000
1932.947266	41557.351563
1931.965820	41864.527344
1930.984375	41735.890625
1930.002930	41921.640625
1929.020508	41364.910156
1928.038086	41647.152344
1927.056641	41864.976563
1926.074219	41704.289063
1925.090820	41872.562500
1924.108398	42241.054688
1923.125000	41768.894531
1922.142578	41719.554688
1921.159180	41843.218750
1920.175781	41845.769531
1919.191406	41969.367188
1918.208008	41848.390625
1917.223633	41927.488281
1916.240234	42181.863281
1915.255859	42189.281250
1914.271484	42130.050781
1913.286133	42455.816406
1912.301758	42174.496094
1911.316406	41876.003906
1910.331055	41989.519531
1909.345703	42016.679688
1908.360352	42009.312500
1907.375000	42098.085938
1906.388672	42475.207031
1905.402344	41713.671875
1904.416016	42342.039063
1903.429688	42339.539063
1902.443359	42011.917969
1901.457031	42231.105469
1900.469727	42139.984375
1899.482422	42405.843750
1898.495117	42078.433594
1897.507813	42585.371094
1896.520508	42196.531250
1895.532227	42267.847656
1894.543945	42565.414063
1893.556641	42587.457031
1892.568359	42275.101563
1891.579102	42248.015625
1890.590820	42813.277344
1889.601563	42397.832031
1888.613281	42520.609375
1887.624023	42763.710938
1886.634766	42201.121094
1885.644531	42576.796875
1884.655273	42832.035156
1883.665039	42397.375000
1882.674805	42441.472656
1881.684570	42561.625000
1880.694336	42421.660156
1879.704102	42581.019531
1878.712891	42470.527344
1877.722656	42713.199219
1876.731445	42948.425781
1875.740234	42475.117188
1874.748047	42519.125000
1873.756836	42617.027344
1872.764648	42558.089844
1871.773438	42866.617188
1870.781250	42660.699219
1869.788086	42910.328125
1868.795898	43140.277344
1867.803711	42738.578125
1866.810547	42650.300781
1865.817383	42571.839844
1864.824219	42821.253906
1863.831055	42728.109375
1862.837891	42634.996094
1861.843750	42605.492188
1860.849609	42654.238281
1859.855469	42854.519531
1858.861328	42844.542969
1857.867188	42971.410156
1856.872070	43349.882813
1855.877930	42584.996094
1854.882813	42943.859375
1853.887695	42618.859375
1852.892578	42901.902344
1851.896484	43089.640625
1850.901367	43069.859375
1849.905273	43359.988281
1848.909180	43032.750000
1847.913086	43310.582031
1846.916992	43141.996094
1845.919922	42907.625000
1844.923828	43431.574219
1843.926758	43399.554688
1842.929688	43357.796875
1841.932617	43567.042969
1840.935547	43347.414063
1839.937500	43361.707031
1838.939453	43076.429688
1837.942383	43845.632813
1836.943359	43694.273438
1835.945313	43993.289063
1834.947266	43871.160156
1833.948242	43586.035156
1832.949219	43661.082031
1831.951172	44149.621094
1830.951172	43815.953125
1829.952148	43796.078125
1828.953125	44252.726563
1827.953125	43702.871094
1826.953125	44118.054688
1825.953125	43655.890625
1824.953125	44177.832031
1823.952148	44021.878906
1822.952148	44094.269531
1821.951172	43892.246094
1820.950195	44209.835938
1819.949219	43901.054688
1818.948242	44201.539063
1817.946289	43815.218750
1816.945313	44096.203125
1815.943359	44224.269531
1814.941406	43656.250000
1813.939453	43980.753906
1812.936523	43951.183594
1811.934570	44227.039063
1810.931641	44357.382813
1809.928711	44087.871094
1808.925781	44189.121094
1807.921875	43791.351563
1806.918945	44328.535156
1805.915039	43993.835938
1804.912109	44368.589844
1803.908203	44694.796875
1802.903320	44592.535156
1801.899414	44422.554688
1800.894531	44245.375000
1799.890625	44244.828125
1798.885742	44258.789063
1797.880859	44091.398438
1796.875000	44620.316406
1795.870117	44996.761719
1794.864258	44981.578125
1793.858398	44792.421875
1792.852539	44477.710938
1791.846680	44525.417969
1790.840820	44829.093750
1789.833984	44772.894531
1788.828125	44948.468750
1787.821289	45099.839844
1786.814453	44869.859375
1785.806641	45074.273438
1784.799805	45635.644531
1783.791992	45405.687500
1782.784180	45043.175781
1781.776367	45469.230469
1780.768555	45215.308594
1779.760742	45629.128906
1778.751953	45249.953125
1777.743164	45516.640625
1776.735352	45761.550781
1775.725586	45527.062500
1774.716797	45923.597656
1773.708008	45929.933594
1772.698242	45998.855469
1771.688477	45795.773438
1770.678711	45799.718750
1769.668945	45933.585938
1768.659180	45745.050781
1767.648438	46129.015625
1766.637695	46594.605469
1765.626953	46249.765625
1764.616211	46282.464844
1763.605469	46194.972656
1762.593750	46636.179688
1761.583008	46666.382813
1760.571289	46953.609375
1759.559570	46709.937500
1758.547852	47585.382813
1757.535156	47048.765625
1756.523438	47167.679688
1755.510742	47564.957031
1754.498047	47693.328125
1753.485352	47416.183594
1752.472656	47822.796875
1751.458984	47862.308594
1750.445313	47580.480469
1749.432617	48164.261719
1748.417969	48460.179688
1747.404297	48569.046875
1746.390625	48483.777344
1745.375977	48233.222656
1744.361328	48318.117188
1743.346680	48805.335938
1742.332031	48767.968750
1741.317383	48809.621094
1740.302734	49679.484375
1739.287109	49548.636719
1738.271484	49716.945313
1737.255859	49717.718750
1736.240234	50627.464844
1735.223633	50551.542969
1734.208008	50714.761719
1733.191406	50901.832031
1732.174805	50885.652344
1731.158203	51545.824219
1730.140625	52014.601563
1729.124023	51988.671875
1728.106445	52851.328125
1727.088867	53006.761719
1726.071289	53300.628906
1725.053711	53181.375000
1724.035156	53775.863281
1723.017578	53744.863281
1721.999023	54451.179688
1720.980469	54124.242188
1719.961914	54942.347656
1718.942383	54839.609375
1717.923828	54908.582031
1716.904297	55041.898438
1715.884766	55115.574219
1714.865234	55282.167969
1713.844727	55391.511719
1712.825195	55322.140625
1711.804688	55143.226563
1710.784180	54669.070313
1709.763672	54828.441406
1708.743164	55075.832031
1707.722656	55392.164063
1706.701172	55127.710938
1705.679688	54694.414063
1704.658203	54993.984375
1703.636719	54451.449219
1702.615234	54781.867188
1701.592773	54156.339844
1700.571289	54363.070313
1699.548828	54652.914063
1698.526367	54355.679688
1697.502930	54633.539063
1696.480469	54666.613281
1695.457031	54642.671875
1694.433594	54224.531250
1693.410156	54438.097656
1692.386719	53998.773438
1691.363281	54160.085938
1690.338867	54418.636719
1689.314453	54347.296875
1688.290039	54275.980469
1687.265625	54520.132813
1686.241211	54610.058594
1685.215820	54325.343750
1684.191406	54474.527344
1683.166016	54298.957031
1682.140625	54831.980469
1681.115234	55149.207031
1680.088867	55120.472656
1679.062500	54975.691406
1678.037109	54890.160156
1677.010742	54989.328125
1675.983398	54882.515625
1674.957031	55336.652344
1673.930664	55409.652344
1672.903320	55425.843750
1671.875977	55434.925781
1670.848633	55843.699219
1669.820313	55928.371094
1668.792969	55918.441406
1667.764648	55995.972656
1666.736328	56101.835938
1665.708008	56110.777344
1664.679688	56181.140625
1663.651367	56090.851563
1662.622070	56262.738281
1661.592773	56817.093750
1660.563477	56221.507813
1659.534180	56761.503906
1658.504883	56744.339844
1657.474609	56670.550781
1656.444336	56766.644531
1655.415039	57612.792969
1654.383789	57340.777344
1653.353516	57542.804688
1652.323242	57596.230469
1651.291992	57654.351563
1650.260742	58155.503906
1649.229492	57923.679688
1648.198242	58403.398438
1647.166016	58609.714844
1646.134766	58483.902344
1645.102539	58537.078125
1644.070313	58787.984375
1643.038086	59260.050781
1642.004883	59343.644531
1640.972656	59184.863281
1639.939453	59602.488281
1638.906250	60779.683594
1637.873047	60021.050781
1636.839844	60299.578125
1635.805664	60683.792969
1634.772461	61056.113281
1633.738281	61390.699219
1632.704102	61191.812500
1631.668945	61537.996094
1630.634766	61987.398438
1629.599609	62056.214844
1628.565430	62127.347656
1627.530273	62444.941406
1626.494141	62870.378906
1625.458984	63830.699219
1624.422852	63591.757813
1623.387695	63937.000000
1622.351563	64927.097656
1621.315430	65712.828125
1620.278320	66538.132813
1619.242188	67721.796875
1618.205078	69512.054688
1617.167969	70868.156250
1616.130859	73669.335938
1615.093750	74600.226563
1614.055664	76455.890625
1613.018555	78402.218750
1611.980469	79900.679688
1610.942383	81499.250000
1609.904297	80770.921875
1608.865234	80754.203125
1607.827148	80229.796875
1606.788086	78245.968750
1605.749023	76089.773438
1604.709961	74689.617188
1603.669922	73685.054688
1602.630859	71313.429688
1601.590820	70861.359375
1600.550781	69942.125000
1599.510742	69088.632813
1598.470703	68113.976563
1597.429688	67875.304688
1596.389648	67734.789063
1595.348633	68133.593750
1594.307617	67096.765625
1593.265625	67299.507813
1592.224609	66897.851563
1591.182617	66524.335938
1590.140625	66071.640625
1589.098633	66600.898438
1588.056641	66707.937500
1587.014648	66015.328125
1585.971680	65977.914063
1584.928711	66821.398438
1583.886719	66578.820313
1582.842773	66646.148438
1581.799805	66336.132813
1580.755859	66841.281250
1579.712891	66519.695313
1578.668945	66926.843750
1577.625000	67354.796875
1576.580078	67324.171875
1575.536133	67649.523438
1574.491211	67753.765625
1573.446289	68960.398438
1572.401367	69013.203125
1571.356445	69135.742188
1570.311523	69792.882813
1569.265625	68736.875000
1568.219727	69379.906250
1567.173828	69462.781250
1566.127930	69606.015625
1565.082031	69568.046875
1564.035156	69256.078125
1562.988281	69148.523438
1561.941406	69122.250000
1560.894531	68692.156250
1559.847656	68454.812500
1558.799805	67895.070313
1557.751953	68469.804688
1556.704102	68123.609375
1555.656250	67861.015625
1554.608398	68338.070313
1553.560547	68029.171875
1552.511719	67734.281250
1551.462891	67226.320313
1550.414063	67186.507813
1549.365234	67447.828125
1548.315430	67273.664063
1547.265625	66842.554688
1546.216797	67515.859375
1545.166992	67510.742188
1544.116211	66880.781250
1543.066406	66813.296875
1542.015625	67062.765625
1540.965820	66858.804688
1539.915039	66733.539063
1538.863281	66802.539063
1537.812500	66966.289063
1536.760742	66917.335938
1535.709961	66168.195313
1534.658203	65627.257813
1533.605469	65710.242188
1532.553711	65961.796875
1531.501953	65104.812500
1530.449219	65046.992188
1529.396484	64622.152344
1528.343750	64908.328125
1527.290039	64439.812500
1526.237305	64252.941406
1525.183594	64202.230469
1524.129883	64204.585938
1523.076172	64481.343750
1522.022461	64047.894531
1520.968750	64764.855469
1519.914063	64667.992188
1518.859375	64545.816406
1517.804688	64460.542969
1516.750000	64845.203125
1515.694336	64414.441406
1514.639648	64287.781250
1513.583984	63967.773438
1512.528320	64073.718750
1511.472656	64071.453125
1510.416016	64152.023438
1509.360352	63420.453125
1508.303711	63889.839844
1507.247070	63335.652344
1506.190430	63347.308594
1505.132813	63623.332031
1504.076172	63175.218750
1503.018555	62821.484375
1501.960938	62513.828125
1500.903320	62461.281250
1499.844727	62406.453125
1498.787109	62370.015625
1497.728516	62267.000000
1496.669922	61858.695313
1495.611328	62120.750000
1494.552734	61912.261719
1493.493164	61953.941406
1492.434570	61679.031250
1491.375000	61085.406250
1490.315430	61822.035156
1489.254883	61006.195313
1488.195313	61286.390625
1487.134766	60869.730469
1486.074219	61007.769531
1485.013672	60802.089844
1483.953125	60908.015625
1482.892578	60865.031250
1481.831055	61243.406250
1480.769531	60554.734375
1479.708008	60857.480469
1478.646484	60876.324219
1477.583984	60940.917969
1476.522461	60028.578125
1475.459961	60459.289063
1474.397461	61367.832031
1473.334961	61107.582031
1472.271484	60952.589844
1471.208984	61023.945313
1470.145508	60631.339844
1469.082031	60613.605469
1468.018555	60913.433594
1466.954102	61039.554688
1465.890625	60902.996094
1464.826172	61862.488281
1463.761719	61798.878906
1462.697266	61710.183594
1461.631836	61881.675781
1460.567383	61806.683594
1459.501953	61843.496094
1458.436523	62489.289063
1457.371094	61923.917969
1456.305664	61892.281250
1455.239258	61762.628906
1454.172852	61667.207031
1453.107422	61339.375000
1452.040039	61433.171875
1450.973633	61763.839844
1449.907227	61873.464844
1448.839844	61400.082031
1447.772461	61716.910156
1446.705078	61767.289063
1445.637695	62061.175781
1444.569336	61927.144531
1443.500977	62241.367188
1442.432617	62698.785156
1441.364258	63012.750000
1440.295898	62890.007813
1439.227539	63119.699219
1438.158203	63537.976563
1437.088867	63333.378906
1436.019531	63646.933594
1434.950195	63849.054688
1433.879883	64434.976563
1432.810547	64264.421875
1431.740234	64155.230469
1430.669922	64136.886719
1429.598633	64075.421875
1428.528320	64043.476563
1427.457031	64925.960938
1426.386719	64757.753906
1425.314453	63902.332031
1424.243164	64099.480469
1423.171875	63416.804688
1422.099609	62831.851563
1421.027344	63153.738281
1419.955078	63153.710938
1418.882813	62605.367188
1417.810547	62981.480469
1416.737305	62759.511719
1415.664063	62791.246094
1414.590820	62721.082031
1413.517578	63040.300781
1412.444336	62528.765625
1411.370117	62847.898438
1410.295898	62748.351563
1409.221680	63160.074219
1408.147461	63307.023438
1407.073242	63924.265625
1405.998047	63781.632813
1404.922852	63908.039063
1403.847656	63896.535156
1402.772461	63941.523438
1401.697266	63774.125000
1400.621094	63593.230469
1399.544922	64308.996094
1398.468750	64699.347656
1397.392578	64468.707031
1396.316406	64732.476563
1395.239258	64732.101563
1394.162109	65146.906250
1393.084961	65198.339844
1392.007813	65847.484375
1390.930664	65774.734375
1389.852539	66056.007813
1388.774414	66141.046875
1387.696289	66494.273438
1386.618164	66928.492188
1385.540039	67594.632813
1384.460938	67478.828125
1383.382813	68590.585938
1382.303711	68758.382813
1381.223633	69750.171875
1380.144531	69298.632813
1379.064453	69538.226563
1377.985352	69480.679688
1376.905273	69423.156250
1375.825195	69885.289063
1374.744141	69033.773438
1373.664063	69306.914063
1372.583008	69148.281250
1371.501953	68809.867188
1370.420898	67817.562500
1369.338867	68196.320313
1368.257813	68105.390625
1367.175781	67333.867188
1366.093750	67523.851563
1365.011719	67105.250000
1363.929688	66614.945313
1362.846680	67027.164063
1361.763672	65711.171875
1360.680664	66264.765625
1359.597656	65873.671875
1358.514648	65686.828125
1357.430664	65612.179688
1356.346680	65219.167969
1355.262695	65357.597656
1354.178711	65554.250000
1353.094727	64908.218750
1352.009766	65066.789063
1350.925781	65216.335938
1349.840820	64550.546875
1348.755859	64818.816406
1347.669922	64469.027344
1346.584961	64271.585938
1345.499023	64165.980469
1344.413086	64120.828125
1343.327148	64089.113281
1342.240234	64231.886719
1341.154297	64417.101563
1340.067383	64074.519531
1338.980469	64333.472656
1337.893555	63789.839844
1336.805664	63767.140625
1335.718750	64164.542969
1334.630859	63960.816406
1333.542969	64078.816406
1332.455078	64583.132813
1331.367188	64066.824219
1330.278320	63867.714844
1329.189453	64083.851563
1328.100586	64536.464844
1327.011719	64163.328125
1325.922852	63948.718750
1324.833008	64644.226563
1323.743164	64442.984375
1322.653320	64585.183594
1321.563477	65052.804688
1320.473633	64989.777344
1319.382813	64327.312500
1318.291992	64665.488281
1317.201172	65106.011719
1316.110352	64352.558594
1315.019531	65073.558594
1313.927734	64961.597656
1312.835938	65388.382813
1311.744141	64935.875000
1310.652344	65088.796875
1309.560547	65030.300781
1308.467773	65623.585938
1307.375000	66003.148438
1306.282227	65737.710938
1305.189453	65816.968750
1304.095703	65980.664063
1303.002930	65424.226563
1301.909180	65863.460938
1300.815430	66578.015625
1299.721680	65684.132813
1298.626953	65727.765625
1297.533203	66246.554688
1296.438477	66012.554688
1295.343750	66619.882813
1294.248047	66421.406250
1293.153320	66751.078125
1292.057617	66752.304688
1290.961914	66771.265625
1289.866211	66834.578125
1288.770508	67560.804688
1287.674805	67149.539063
1286.578125	67859.929688
1285.481445	67433.242188
1284.384766	67135.218750
1283.288086	67001.218750
1282.190430	67558.289063
1281.092773	67335.679688
1279.996094	67715.359375
1278.897461	67458.351563
1277.799805	67201.578125
1276.702148	66944.796875
1275.603516	66687.796875
1274.504883	66430.789063
1273.406250	66244.031250
1272.307617	65685.859375
1271.208008	65693.851563
1270.108398	65195.656250
1269.008789	65128.585938
1267.909180	65198.535156
1266.809570	64004.792969
1265.708984	64187.562500
1264.609375	64458.597656
1263.508789	64011.933594
1262.407227	63940.722656
1261.306641	64052.726563
1260.206055	63827.050781
1259.104492	63530.851563
1258.002930	63131.070313
1256.901367	63461.488281
1255.798828	63220.632813
1254.697266	62624.894531
1253.594727	62668.644531
1252.492188	63109.089844
1251.389648	62302.140625
1250.286133	62460.484375
1249.183594	62063.660156
1248.080078	62373.945313
1246.976563	61519.261719
1245.872070	61816.316406
1244.768555	62335.585938
1243.664063	61716.851563
1242.560547	61659.437500
1241.455078	61124.644531
1240.350586	61755.828125
1239.246094	61071.664063
1238.140625	61146.328125
1237.035156	60961.550781
1235.929688	61113.128906
1234.824219	60748.218750
1233.717773	61033.808594
1232.612305	60989.769531
1231.505859	60554.785156
1230.399414	60594.292969
1229.291992	60657.937500
1228.185547	60668.867188
1227.078125	60451.535156
1225.970703	60245.250000
1224.863281	59718.710938
1223.755859	60065.417969
1222.647461	59894.394531
1221.539063	59530.468750
1220.430664	59738.890625
1219.322266	59993.265625
1218.213867	59504.589844
1217.104492	59712.894531
1215.995117	59765.574219
1214.885742	59561.949219
1213.776367	59126.257813
1212.666992	59419.863281
1211.556641	59085.054688
1210.446289	59120.273438
1209.335938	59396.207031
1208.225586	59483.867188
1207.115234	58934.890625
1206.003906	59171.328125
1204.892578	59064.343750
1203.781250	58961.769531
1202.669922	59084.394531
1201.557617	59637.539063
1200.446289	59012.636719
1199.333984	59978.527344
1198.221680	59270.773438
1197.108398	60085.558594
1195.996094	59943.605469
1194.882813	59788.601563
1193.769531	60319.070313
1192.656250	60506.695313
1191.542969	60497.863281
1190.428711	60541.390625
1189.314453	60423.488281
1188.200195	60654.566406
1187.085938	60719.839844
1185.971680	60484.234375
1184.856445	61092.253906
1183.741211	60621.296875
1182.625977	60544.890625
1181.510742	61307.230469
1180.395508	61315.667969
1179.279297	60733.941406
1178.163086	60683.687500
1177.046875	61057.945313
1175.930664	60663.757813
1174.813477	60561.308594
1173.697266	60552.449219
1172.580078	60367.390625
1171.462891	60130.199219
1170.344727	60506.308594
1169.227539	60421.359375
1168.109375	60264.707031
1166.991211	59810.363281
1165.873047	59640.835938
1164.754883	59590.859375
1163.635742	59855.859375
1162.516602	59490.949219
1161.397461	59688.554688
1160.278320	59632.082031
1159.159180	59447.562500
1158.039063	58913.710938
1156.918945	59119.945313
1155.798828	59590.769531
1154.678711	59710.039063
1153.558594	59634.089844
1152.437500	59265.460938
1151.316406	59794.433594
1150.195313	59625.304688
1149.074219	59727.113281
1147.952148	59952.375000
1146.831055	60608.632813
1145.708984	60348.503906
1144.586914	60506.394531
1143.463867	60921.867188
1142.341797	61192.152344
1141.218750	61193.968750
1140.095703	61658.847656
1138.972656	61963.457031
1137.849609	61954.308594
1136.725586	62388.507813
1135.601563	61793.304688
1134.477539	62199.265625
1133.353516	61714.542969
1132.229492	61956.125000
1131.104492	61620.707031
1129.979492	60818.785156
1128.854492	61453.488281
1127.729492	61317.015625
1126.603516	60986.265625
1125.478516	60957.855469
1124.352539	61015.789063
1123.226563	60784.531250
1122.099609	60128.324219
1120.973633	60548.769531
1119.846680	60089.101563
1118.719727	59817.203125
1117.592773	59571.273438
1116.465820	59687.566406
1115.337891	59015.019531
1114.209961	59527.843750
1113.082031	58909.429688
1111.954102	58676.800781
1110.826172	59284.156250
1109.697266	59068.765625
1108.568359	58689.835938
1107.439453	58773.812500
1106.310547	58435.957031
1105.180664	58532.851563
1104.051758	58728.667969
1102.921875	58369.492188
1101.791992	58429.781250
1100.661133	58361.042969
1099.531250	58838.343750
1098.400391	58468.652344
1097.269531	58316.128906
1096.138672	57993.933594
1095.006836	58314.128906
1093.875977	57867.476563
1092.744141	57850.445313
1091.612305	57889.238281
1090.480469	57803.519531
1089.347656	58022.574219
1088.215820	57527.023438
1087.083008	57550.816406
1085.950195	57173.500000
1084.816406	57002.191406
1083.683594	56976.746094
1082.549805	57092.800781
1081.416016	56968.746094
1080.282227	57419.058594
1079.148438	56778.625000
1078.013672	56950.312500
1076.878906	56678.582031
1075.744141	57030.101563
1074.609375	57096.734375
1073.474609	57094.839844
1072.338867	56947.406250
1071.203125	56795.746094
1070.067383	56911.566406
1068.931641	56588.839844
1067.794922	56847.941406
1066.659180	57354.988281
1065.522461	56495.742188
1064.385742	56342.175781
1063.248047	56915.281250
1062.111328	56659.128906
1060.973633	56922.191406
1059.835938	56322.242188
1058.698242	56282.019531
1057.559570	56295.191406
1056.421875	56611.488281
1055.283203	56193.445313
1054.144531	56727.304688
1053.005859	56554.750000
1051.866211	56416.390625
1050.726563	56629.988281
1049.587891	56828.578125
1048.447266	56538.863281
1047.307617	56829.050781
1046.167969	57136.179688
1045.027344	56985.066406
1043.886719	56782.871094
1042.746094	56981.199219
1041.604492	57185.843750
1040.463867	57145.539063
1039.322266	56947.710938
1038.180664	56703.128906
1037.038086	56916.171875
1035.896484	57305.738281
1034.753906	57127.164063
1033.611328	56835.921875
1032.468750	56763.820313
1031.326172	57123.351563
1030.182617	57127.746094
1029.040039	56845.207031
1027.896484	56919.769531
1026.751953	56828.585938
1025.608398	56871.257813
1024.463867	56712.144531
1023.319336	56778.175781
1022.174805	56810.207031
1021.030273	57228.546875
1019.885742	56912.429688
1018.740234	56904.097656
1017.594727	57076.093750
1016.449219	57171.660156
1015.303711	57212.054688
1014.157227	57689.210938
1013.010742	57419.984375
1011.864258	57523.886719
1010.717773	57290.804688
1009.571289	57729.453125
1008.423828	57593.859375
1007.276367	57055.898438
1006.128906	57591.746094
1004.981445	57280.519531
1003.833008	58161.160156
1002.684570	57913.429688
1001.536133	58093.226563
1000.387695	58366.039063
999.239258	58985.648438
998.089844	59080.542969
996.941406	59200.777344
995.791992	58970.027344
994.641602	58809.109375
993.492188	58483.410156
992.341797	58181.070313
991.191406	58390.070313
990.041016	58180.789063
988.890625	59004.222656
987.739258	58421.187500
986.588867	58410.441406
985.437500	58239.289063
984.285156	58574.640625
983.133789	58886.660156
981.981445	58550.972656
980.829102	58401.003906
979.676758	58019.132813
978.524414	58219.277344
977.372070	58699.691406
976.218750	58505.535156
975.065430	58652.792969
973.912109	58353.378906
972.757813	58730.195313
971.604492	58651.988281
970.450195	58599.078125
969.295898	58887.214844
968.141602	58726.933594
966.986328	58392.042969
965.832031	58398.121094
964.676758	58820.703125
963.521484	58576.410156
962.365234	58473.093750
961.209961	58817.632813
960.053711	58405.304688
958.897461	58703.484375
957.741211	59064.593750
956.584961	58984.378906
955.427734	58612.222656
954.270508	58903.835938
953.113281	58792.191406
951.956055	58338.394531
950.797852	58772.617188
949.639648	58283.308594
948.481445	58249.484375
947.323242	58377.199219
946.165039	58370.628906
945.005859	58229.851563
943.847656	57772.531250
942.687500	58101.464844
941.528320	57698.824219
940.369141	58033.933594
939.208984	58127.984375
938.048828	57834.476563
936.888672	58060.464844
935.728516	58416.187500
934.567383	58246.304688
933.406250	58917.921875
932.245117	58434.085938
931.083984	58429.578125
929.922852	58680.296875
928.760742	58778.226563
927.598633	59193.988281
926.436523	59199.789063
925.274414	59036.257813
924.111328	59380.667969
922.948242	59829.433594
921.785156	59486.191406
920.622070	59316.453125
919.458984	59476.757813
918.294922	59801.964844
917.130859	59763.777344
915.966797	60134.726563
914.802734	60192.492188
913.637695	60233.539063
912.472656	60643.824219
911.307617	60453.242188
910.142578	60734.035156
908.977539	61206.542969
907.811523	61562.136719
906.645508	61506.992188
905.479492	61360.171875
904.313477	61246.742188
903.146484	60933.371094
901.980469	61449.039063
900.813477	60758.835938
899.646484	60553.980469
898.478516	60419.972656
897.311523	60111.195313
896.143555	60341.453125
894.975586	60045.281250
893.806641	60354.503906
892.638672	60330.867188
891.469727	60332.183594
890.300781	60073.640625
889.131836	60230.886719
887.962891	60543.933594
886.792969	60067.324219
885.623047	60353.273438
884.453125	59860.250000
883.283203	60432.695313
882.112305	60294.867188
880.942383	60563.945313
879.771484	60195.765625
878.600586	59964.671875
877.428711	60436.972656
876.257813	60915.316406
875.085938	60910.261719
873.914063	60984.003906
872.741211	61503.433594
871.569336	61353.175781
870.396484	60832.015625
869.223633	61063.175781
868.050781	61184.449219
866.877930	61761.343750
865.704102	61379.230469
864.530273	61726.050781
863.356445	62337.707031
862.182617	62636.609375
861.007813	62985.066406
859.833984	63035.464844
858.659180	63474.726563
857.484375	63402.992188
856.308594	62766.781250
855.133789	62947.417969
853.958008	62859.277344
852.782227	62407.441406
851.605469	62313.226563
850.429688	61867.851563
849.252930	62302.527344
848.076172	62544.984375
846.899414	62504.484375
845.722656	62261.695313
844.544922	62681.511719
843.367188	62989.742188
842.189453	63033.769531
841.011719	63459.390625
839.833008	63897.226563
838.655273	64528.726563
837.476563	64634.273438
836.296875	65053.085938
835.118164	65479.984375
833.938477	65243.246094
832.758789	65266.167969
831.579102	64450.765625
830.399414	64364.675781
829.219727	63426.203125
828.039063	62875.085938
826.858398	62404.441406
825.677734	61682.917969
824.496094	61412.234375
823.315430	60376.425781
822.133789	60250.046875
820.952148	60255.312500
819.769531	60196.843750
818.587891	59640.957031
817.405273	59833.343750
816.222656	59573.609375
815.040039	59207.140625
813.856445	58824.371094
812.673828	59123.542969
811.490234	59085.871094
810.305664	58725.914063
809.122070	58286.042969
807.938477	58053.589844
806.753906	58293.113281
805.569336	58321.261719
804.383789	58513.468750
803.199219	57981.753906
802.013672	58075.542969
800.828125	58015.554688
799.642578	57701.460938
798.457031	57586.238281
797.270508	57118.683594
796.083984	57439.890625
794.897461	56952.050781
793.710938	56998.796875
792.523438	56679.082031
791.336914	56582.582031
790.149414	56864.695313
788.961914	56532.902344
787.773438	56248.277344
786.585938	56004.660156
785.397461	55936.988281
784.208984	56288.460938
783.019531	55885.523438
781.831055	55734.113281
780.641602	55746.222656
779.452148	55558.117188
778.262695	55341.480469
777.072266	55116.753906
775.882813	55604.703125
774.692383	55055.417969
773.501953	54708.398438
772.310547	54867.593750
771.120117	54910.429688
769.928711	55100.125000
768.737305	55283.625000
767.544922	54975.617188
766.353516	55309.937500
765.161133	55542.207031
763.968750	55627.656250
762.776367	55556.167969
761.583984	55360.433594
760.390625	55769.722656
759.197266	55962.988281
758.003906	56058.441406
756.810547	56780.867188
755.616211	56322.515625
754.421875	56914.378906
753.227539	56511.097656
752.033203	56543.289063
750.838867	56363.945313
749.643555	55960.984375
748.448242	55948.523438
747.252930	55360.808594
746.057617	55269.199219
744.861328	55362.531250
743.665039	55059.667969
742.468750	54427.859375
741.272461	54779.199219
740.075195	54261.378906
738.878906	54438.027344
737.681641	54340.601563
736.484375	53697.328125
735.286133	53802.964844
734.087891	53902.476563
732.890625	53726.113281
731.691406	53695.816406
730.493164	53811.500000
729.294922	53608.898438
728.095703	53888.710938
726.896484	53378.167969
725.696289	53388.468750
724.497070	53658.031250
723.296875	52912.890625
722.096680	52617.527344
720.896484	52994.367188
719.696289	53217.238281
718.495117	53247.781250
717.293945	53043.609375
716.092773	52843.558594
714.891602	53068.304688
713.689453	52635.777344
712.487305	52826.105469
711.285156	53107.316406
710.083008	53220.683594
708.880859	52915.738281
707.677734	53253.335938
706.474609	52914.156250
705.271484	53386.929688
704.068359	52635.949219
702.864258	53086.386719
701.660156	52773.718750
700.456055	53119.023438
699.251953	52653.125000
698.046875	52986.214844
696.841797	52927.910156
695.636719	52532.875000
694.431641	52841.601563
693.226563	53273.167969
692.020508	53301.503906
690.814453	53120.269531
689.608398	52288.394531
688.402344	52991.648438
687.195313	52985.769531
685.988281	53523.523438
684.781250	53449.097656
683.574219	53630.312500
682.366211	53521.679688
681.158203	53471.433594
679.950195	53266.312500
678.742188	53580.152344
677.534180	53035.253906
676.325195	52977.085938
675.116211	53302.855469
673.907227	53361.214844
672.697266	53417.539063
671.488281	53728.976563
670.278320	53811.316406
669.068359	53435.757813
667.858398	53624.531250
666.647461	53311.375000
665.436523	53562.316406
664.225586	52839.921875
663.014648	53331.605469
661.802734	52669.695313
660.591797	52465.300781
659.379883	52645.968750
658.167969	52726.328125
656.955078	52700.421875
655.743164	52261.687500
654.530273	52612.562500
653.317383	51923.589844
652.103516	52170.242188
650.890625	52074.363281
649.676758	51902.433594
648.462891	51540.394531
647.249023	52031.093750
646.034180	51683.167969
644.819336	52057.617188
643.604492	52113.875000
642.389648	52152.105469
641.174805	51756.421875
639.958984	51606.781250
638.743164	51804.984375
637.527344	51679.367188
636.311523	51919.437500
635.094727	52411.121094
633.877930	52313.414063
632.661133	52383.484375
631.444336	52098.140625
630.226563	51946.644531
629.008789	51410.011719
627.791016	51264.679688
626.573242	51354.820313
625.355469	51480.828125
624.136719	51493.109375
622.917969	51407.679688
621.699219	51613.343750
620.480469	51509.980469
619.260742	50868.597656
618.041016	51540.468750
616.821289	51180.191406
615.601563	51359.800781
614.380859	50941.941406
613.160156	50789.035156
611.939453	51308.996094
610.718750	51247.621094
609.497070	50965.394531
608.276367	50927.976563
607.054688	50783.160156
605.832031	50803.457031
604.610352	50585.144531
603.387695	50768.476563
602.165039	50657.578125
600.942383	50566.589844
599.719727	50662.394531
598.496094	50408.546875
597.272461	50774.449219
596.048828	50747.039063
594.825195	51017.441406
593.600586	50549.328125
592.375977	50714.476563
591.151367	50556.132813
589.926758	50687.488281
588.701172	50675.980469
587.476563	50783.460938
586.250977	50920.640625
585.024414	50530.457031
583.798828	50542.761719
582.572266	50465.886719
581.345703	50854.628906
580.119141	50187.417969
578.892578	50302.753906
577.665039	50602.199219
576.437500	50638.218750
575.209961	50715.789063
573.982422	50506.371094
572.753906	50566.125000
571.525391	50738.617188
570.296875	50568.863281
569.068359	50911.351563
567.838867	50555.773438
566.610352	50660.914063
565.380859	50841.117188
564.150391	50697.183594
562.920898	50375.488281
561.690430	50648.476563
560.459961	50755.464844
559.229492	51000.628906
557.999023	50179.644531
556.767578	50470.218750
555.536133	50206.144531
554.304688	50042.796875
553.073242	50104.390625
551.840820	50735.960938
550.608398	50237.367188
549.375977	50519.699219
548.143555	50153.398438
546.910156	49970.519531
545.676758	50020.222656
544.443359	50182.203125
543.209961	50231.839844
541.975586	49718.226563
540.742188	49813.214844
539.507813	49955.414063
538.272461	49947.968750
537.038086	50381.328125
535.802734	50497.753906
534.567383	50039.734375
533.332031	50258.449219
532.096680	49975.648438
530.860352	50160.867188
529.624023	50391.218750
528.387695	50212.707031
527.151367	50435.097656
525.914063	50260.570313
524.676758	50152.886719
523.439453	49758.527344
522.202148	50155.574219
520.963867	49867.359375
519.725586	50013.007813
518.487305	49695.492188
517.249023	50390.457031
516.009766	50076.910156
514.771484	50336.144531
513.532227	49652.125000
512.291992	49662.363281
511.052734	49935.246094
509.812500	49941.500000
508.572266	49751.816406
507.332031	49760.058594
506.090820	49830.972656
504.850586	49909.687500
503.609375	50170.453125
502.368164	50386.093750
501.125977	49769.871094
499.884766	50050.078125
498.642578	50322.347656
497.400391	50072.257813
496.157227	50031.511719
494.915039	50217.593750
493.671875	50495.480469
492.428711	50382.355469
491.184570	49972.230469
489.941406	50654.441406
488.697266	50422.179688
487.453125	50816.941406
486.208984	50748.757813
484.963867	50356.515625
483.718750	50587.089844
482.473633	50493.613281
481.228516	51046.023438
479.982422	50494.039063
478.737305	51377.820313
477.491211	50829.875000
476.244141	50919.707031
474.998047	50529.949219
473.750977	50859.527344
472.503906	51005.800781
471.256836	50766.261719
470.009766	50861.851563
468.761719	50947.660156
467.513672	51232.050781
466.265625	51510.488281
465.017578	51640.890625
463.768555	51494.898438
462.519531	51839.273438
461.270508	51800.289063
460.021484	52280.617188
458.771484	52484.632813
457.521484	52618.574219
456.271484	52604.730469
455.021484	53276.941406
453.770508	52687.808594
452.519531	53270.378906
451.268555	53365.183594
450.017578	53324.011719
448.765625	53983.789063
447.514648	54379.296875
446.262695	54881.402344
445.009766	55443.476563
443.757813	55663.859375
442.504883	55684.355469
441.251953	55536.109375
439.999023	55046.640625
438.745117	54840.402344
437.492188	53982.957031
436.238281	53556.066406
434.983398	53078.957031
433.729492	52218.453125
432.474609	52092.347656
431.219727	51935.300781
429.964844	51838.332031
428.709961	51691.070313
427.454102	51313.546875
426.198242	51272.859375
424.942383	51216.710938
423.685547	51313.390625
422.429688	51264.984375
421.172852	50835.679688
419.916016	50427.800781
418.658203	51173.980469
417.401367	50663.765625
416.143555	50816.457031
414.885742	50770.117188
413.626953	50930.449219
412.369141	50698.726563
411.110352	50791.433594
409.851563	50617.726563
408.591797	50797.253906
407.333008	50563.789063
406.073242	50617.859375
404.813477	50627.542969
403.553711	50606.367188
402.292969	50442.515625
401.032227	50693.187500
