#Wave		#Intensity
2001.242188	41876.492188
2000.272461	41881.503906
1999.302734	41518.328125
1998.333008	42044.785156
1997.363281	42297.984375
1996.392578	42077.695313
1995.422852	41774.835938
1994.452148	42280.843750
1993.481445	42473.738281
1992.510742	42043.308594
1991.540039	42431.375000
1990.568359	42008.609375
1989.596680	42434.070313
1988.625977	42096.488281
1987.654297	42841.890625
1986.681641	42266.812500
1985.709961	42346.929688
1984.738281	42074.582031
1983.765625	42552.054688
1982.792969	42654.562500
1981.820313	42914.421875
1980.847656	42694.609375
1979.874023	42762.070313
1978.901367	42916.898438
1977.927734	42597.339844
1976.954102	42752.136719
1975.980469	43099.039063
1975.006836	43041.605469
1974.032227	43236.156250
1973.058594	43176.218750
1972.083984	42999.085938
1971.109375	43313.222656
1970.134766	43210.917969
1969.160156	43108.644531
1968.184570	42906.722656
1967.209961	43190.746094
1966.234375	43105.968750
1965.258789	43434.687500
1964.283203	43320.007813
1963.306641	43412.027344
1962.331055	43364.605469
1961.354492	43202.699219
1960.377930	43396.722656
1959.401367	43730.011719
1958.424805	43734.800781
1957.447266	43162.527344
1956.470703	43582.722656
1955.493164	43594.988281
1954.515625	43398.425781
1953.538086	43559.851563
1952.560547	43693.882813
1951.582031	43984.402344
1950.604492	43971.738281
1949.625977	43678.402344
1948.647461	43554.035156
1947.668945	43797.195313
1946.689453	43923.585938
1945.710938	43714.847656
1944.731445	44168.785156
1943.751953	44146.167969
1942.772461	44217.824219
1941.792969	44229.925781
1940.813477	43760.914063
1939.833008	44264.027344
1938.852539	43904.250000
1937.873047	44293.144531
1936.891602	44151.566406
1935.911133	44111.621094
1934.930664	43806.617188
1933.949219	43967.375000
1932.967773	43952.242188
1931.986328	44281.285156
1931.004883	44139.847656
1930.023438	44443.984375
1929.041016	44295.136719
1928.059570	44341.812500
1927.077148	44413.207031
1926.094727	44304.015625
1925.112305	44855.148438
1924.128906	44899.210938
1923.146484	44527.941406
1922.163086	44033.214844
1921.179688	44603.773438
1920.196289	44783.738281
1919.212891	44810.472656
1918.228516	44523.515625
1917.245117	44836.750000
1916.260742	44527.660156
1915.276367	44974.085938
1914.291992	44494.769531
1913.307617	44975.593750
1912.322266	44915.894531
1911.336914	44875.945313
1910.352539	44942.074219
1909.367188	44571.679688
1908.380859	44904.121094
1907.395508	44854.335938
1906.409180	45088.019531
1905.423828	45474.402344
1904.437500	45160.902344
1903.451172	44933.730469
1902.463867	45519.441406
1901.477539	45112.515625
1900.490234	45626.582031
1899.503906	45323.167969
1898.516602	45334.906250
1897.528320	45351.558594
1896.541016	45070.492188
1895.553711	44966.640625
1894.565430	45005.480469
1893.577148	45388.589844
1892.588867	45324.070313
1891.600586	45606.195313
1890.611328	45762.867188
1889.623047	45555.781250
1888.633789	45235.746094
1887.644531	45399.765625
1886.655273	45455.652344
1885.666016	45307.695313
1884.675781	45741.691406
1883.686523	46096.976563
1882.696289	45796.804688
1881.706055	45815.757813
1880.715820	45817.523438
1879.724609	45868.351563
1878.734375	45791.621094
1877.743164	45732.082031
1876.751953	45559.777344
1875.760742	45860.648438
1874.769531	45651.613281
1873.778320	45891.097656
1872.786133	46015.339844
1871.793945	45767.187500
1870.801758	46018.765625
1869.809570	45809.875000
1868.817383	46100.527344
1867.824219	46060.605469
1866.832031	45927.687500
1865.838867	45714.058594
1864.845703	45953.136719
1863.851563	45859.441406
1862.858398	45870.945313
1861.865234	46041.394531
1860.871094	45891.496094
1859.876953	45690.308594
1858.882813	45826.476563
1857.887695	46150.757813
1856.893555	46140.199219
1855.898438	45748.566406
1854.904297	45950.566406
1853.909180	45976.671875
1852.913086	46417.824219
1851.917969	46509.742188
1850.922852	46950.640625
1849.926758	46647.117188
1848.930664	46494.964844
1847.934570	46999.050781
1846.938477	46800.542969
1845.941406	46884.972656
1844.945313	47122.968750
1843.948242	46944.042969
1842.951172	46830.984375
1841.954102	46910.914063
1840.956055	46990.917969
1839.958984	47070.847656
1838.960938	47150.855469
1837.962891	47230.863281
1836.964844	47310.867188
1835.966797	47390.875000
1834.968750	47470.882813
1833.969727	47499.027344
1832.970703	47833.707031
1831.971680	47523.656250
1830.972656	48135.464844
1829.973633	47519.082031
1828.973633	47530.164063
1827.974609	47806.195313
1826.974609	47596.054688
1825.974609	47791.789063
1824.974609	47992.308594
1823.973633	48462.382813
1822.973633	48116.265625
1821.972656	47694.992188
1820.971680	47907.519531
1819.970703	47913.644531
1818.968750	48196.433594
1817.967773	47998.675781
1816.965820	48798.101563
1815.964844	48612.429688
1814.961914	48662.070313
1813.959961	48752.914063
1812.958008	48579.464844
1811.955078	48406.074219
1810.953125	48537.156250
1809.950195	48668.367188
1808.947266	48799.574219
1807.943359	48930.910156
1806.940430	49062.121094
1805.936523	49193.457031
1804.932617	49324.796875
1803.928711	49456.132813
1802.924805	49694.265625
1801.920898	49334.648438
1800.916016	49879.957031
1799.911133	49946.144531
1798.907227	49867.203125
1797.901367	49914.019531
1796.896484	50021.257813
1795.891602	50097.035156
1794.885742	50349.199219
1793.879883	50519.121094
1792.874023	50425.656250
1791.868164	50793.562500
1790.862305	50417.523438
1789.855469	50517.281250
1788.848633	50853.589844
1787.842773	50702.207031
1786.834961	50973.199219
1785.828125	50862.867188
1784.821289	51259.175781
1783.813477	51254.953125
1782.805664	51190.441406
1781.797852	51051.203125
1780.790039	51770.230469
1779.782227	51495.957031
1778.773438	51732.671875
1777.764648	51374.171875
1776.755859	52567.199219
1775.747070	51635.425781
1774.738281	51782.839844
1773.729492	51862.785156
1772.719727	51923.437500
1771.709961	51767.445313
1770.700195	52172.214844
1769.690430	52398.792969
1768.680664	52353.453125
1767.669922	52356.234375
1766.659180	52527.339844
1765.648438	52498.828125
1764.637695	52674.652344
1763.626953	52670.156250
1762.615234	52723.328125
1761.604492	53146.488281
1760.592773	53290.839844
1759.581055	52527.257813
1758.569336	52981.441406
1757.556641	52957.671875
1756.544922	53025.128906
1755.532227	53334.968750
1754.519531	53491.117188
1753.506836	53440.875000
1752.494141	53992.753906
1751.480469	53700.199219
1750.466797	53949.683594
1749.454102	53295.203125
1748.440430	54251.824219
1747.425781	54136.777344
1746.412109	54021.765625
1745.397461	54036.171875
1744.383789	54189.503906
1743.369141	54258.957031
1742.353516	54907.871094
1741.338867	54804.785156
1740.324219	55158.941406
1739.308594	55077.382813
1738.292969	55503.144531
1737.277344	55443.085938
1736.261719	55715.535156
1735.245117	56016.589844
1734.229492	55796.253906
1733.212891	56869.402344
1732.196289	56986.027344
1731.179688	57226.882813
1730.162109	57271.714844
1729.145508	57557.824219
1728.127930	57898.769531
1727.110352	58007.933594
1726.092773	58191.078125
1725.075195	58825.371094
1724.056641	58757.671875
1723.039063	58885.687500
1722.020508	59746.199219
1721.001953	59883.531250
1719.983398	60066.136719
1718.963867	59788.394531
1717.945313	60397.761719
1716.925781	60947.308594
1715.906250	60957.964844
1714.886719	60861.375000
1713.867188	60819.617188
1712.846680	60868.402344
1711.826172	60736.140625
1710.806641	61092.128906
1709.786133	60781.292969
1708.764648	60699.105469
1707.744141	60578.859375
1706.722656	60679.976563
1705.701172	60704.914063
1704.679688	60546.660156
1703.658203	60697.671875
1702.636719	60877.160156
1701.614258	60290.972656
1700.592773	60689.175781
1699.570313	60792.503906
1698.547852	60185.246094
1697.524414	59675.617188
1696.501953	59885.964844
1695.478516	60248.246094
1694.456055	59833.859375
1693.432617	59889.730469
1692.408203	59010.265625
1691.384766	59567.062500
1690.360352	59509.035156
1689.336914	59636.093750
1688.312500	59755.988281
1687.288086	59619.683594
1686.262695	59542.710938
1685.238281	59038.992188
1684.212891	59561.886719
1683.187500	59207.652344
1682.162109	59358.289063
1681.136719	59473.328125
1680.110352	59330.117188
1679.084961	59499.589844
1678.058594	59470.089844
1677.032227	59270.128906
1676.005859	59550.769531
1674.978516	60333.058594
1673.952148	59437.343750
1672.924805	59959.125000
1671.897461	59957.941406
1670.870117	59434.078125
1669.842773	59790.046875
1668.814453	59978.027344
1667.787109	60272.308594
1666.758789	59715.664063
1665.730469	60038.238281
1664.701172	60216.582031
1663.672852	60255.492188
1662.643555	60462.066406
1661.615234	60559.949219
1660.585938	60051.046875
1659.555664	60436.937500
1658.526367	60697.605469
1657.497070	60214.898438
1656.466797	60871.851563
1655.436523	60563.832031
1654.406250	60383.269531
1653.375977	61176.597656
1652.344727	61436.839844
1651.313477	61324.566406
1650.282227	61518.699219
1649.250977	61536.042969
1648.219727	62012.761719
1647.188477	61787.398438
1646.156250	61757.574219
1645.124023	62344.660156
1644.091797	62109.933594
1643.059570	62684.972656
1642.027344	62622.054688
1640.994141	62759.152344
1639.961914	62715.058594
1638.928711	63061.421875
1637.895508	63487.617188
1636.861328	63478.675781
1635.828125	63382.757813
1634.793945	63691.140625
1633.759766	64163.906250
1632.725586	64622.406250
1631.691406	64286.730469
1630.656250	64860.125000
1629.622070	65381.656250
1628.586914	65262.019531
1627.551758	65053.218750
1626.516602	65954.648438
1625.480469	66269.093750
1624.445313	66717.164063
1623.409180	67040.742188
1622.373047	67195.328125
1621.336914	67441.320313
1620.300781	68252.250000
1619.263672	69470.773438
1618.227539	70585.734375
1617.190430	71620.625000
1616.153320	72781.656250
1615.115234	74178.867188
1614.078125	75282.812500
1613.040039	75997.656250
1612.001953	77454.406250
1610.963867	77840.890625
1609.925781	77784.898438
1608.887695	77518.335938
1607.848633	76706.742188
1606.809570	75469.710938
1605.770508	74373.445313
1604.731445	73614.281250
1603.692383	71536.820313
1602.652344	71187.476563
1601.613281	70609.226563
1600.573242	69601.242188
1599.533203	68927.695313
1598.492188	68308.101563
1597.452148	68011.015625
1596.411133	67760.726563
1595.370117	67323.765625
1594.329102	66793.585938
1593.288086	67199.414063
1592.247070	66921.437500
1591.205078	66811.531250
1590.163086	66757.632813
1589.121094	66769.054688
1588.079102	66556.632813
1587.036133	66460.835938
1585.994141	66742.671875
1584.951172	66898.554688
1583.908203	66895.945313
1582.865234	66520.601563
1581.822266	67139.937500
1580.778320	67104.679688
1579.734375	66601.437500
1578.691406	67339.140625
1577.646484	67671.593750
1576.602539	67801.468750
1575.558594	68459.453125
1574.513672	68761.281250
1573.468750	68795.523438
1572.423828	69318.093750
1571.378906	69156.929688
1570.333008	69828.007813
1569.288086	69924.789063
1568.242188	69993.640625
1567.196289	69437.484375
1566.150391	68846.679688
1565.103516	69106.125000
1564.057617	68829.070313
1563.010742	68470.859375
1561.963867	68057.054688
1560.916992	67752.476563
1559.869141	68076.843750
1558.822266	67540.359375
1557.774414	67368.250000
1556.726563	67615.968750
1555.678711	67156.367188
1554.630859	66868.492188
1553.582031	66840.320313
1552.534180	66849.242188
1551.485352	66712.171875
1550.436523	66253.132813
1549.386719	66276.039063
1548.337891	66447.156250
1547.288086	66115.750000
1546.238281	66550.742188
1545.188477	66504.125000
1544.138672	66327.937500
1543.088867	66147.171875
1542.038086	66505.492188
1540.987305	65693.312500
1539.936523	65857.328125
1538.885742	65353.070313
1537.834961	64999.250000
1536.783203	65387.488281
1535.731445	65135.464844
1534.679688	65105.335938
1533.627930	64749.492188
1532.576172	64985.050781
1531.523438	64049.722656
1530.471680	64744.777344
1529.418945	63904.472656
1528.366211	64405.421875
1527.312500	64003.917969
1526.259766	63950.941406
1525.206055	63932.582031
1524.152344	64250.957031
1523.098633	63510.777344
1522.044922	63321.890625
1520.990234	64082.781250
1519.936523	63790.136719
1518.881836	63983.808594
1517.827148	63421.726563
1516.772461	63113.226563
1515.716797	63465.820313
1514.662109	62846.558594
1513.606445	63417.777344
1512.550781	63592.875000
1511.495117	62891.066406
1510.438477	62578.375000
1509.382813	63188.335938
1508.326172	62783.687500
1507.269531	63007.027344
1506.212891	62809.496094
1505.155273	63016.648438
1504.098633	63361.640625
1503.041016	63083.710938
1501.983398	63212.574219
1500.925781	63185.171875
1499.867188	63302.480469
1498.809570	63334.773438
1497.750977	62894.062500
1496.692383	62825.406250
1495.633789	63309.925781
1494.575195	63429.386719
1493.515625	63044.031250
1492.457031	62789.570313
1491.397461	62762.261719
1490.337891	63081.234375
1489.277344	63010.320313
1488.217773	63047.167969
1487.157227	62804.378906
1486.096680	62884.785156
1485.036133	62935.371094
1483.975586	63004.265625
1482.915039	63006.714844
1481.853516	62940.460938
1480.791992	62665.882813
1479.730469	62805.726563
1478.668945	62732.671875
1477.606445	62314.109375
1476.544922	62284.632813
1475.482422	62518.218750
1474.419922	62008.433594
1473.357422	62779.339844
1472.293945	62505.164063
1471.231445	62487.093750
1470.167969	62110.222656
1469.104492	62693.175781
1468.041016	62837.277344
1466.976563	62545.050781
1465.913086	62481.304688
1464.848633	62789.761719
1463.784180	63098.105469
1462.719727	63237.429688
1461.655273	63429.187500
1460.589844	63744.085938
1459.524414	63860.398438
1458.458984	63096.242188
1457.393555	63281.039063
1456.328125	63488.566406
1455.261719	63835.074219
1454.196289	63552.382813
1453.129883	63205.980469
1452.063477	63846.265625
1450.996094	63953.257813
1449.929688	64160.425781
1448.862305	64306.027344
1447.794922	64185.195313
1446.727539	64458.214844
1445.660156	64671.957031
1444.591797	64612.554688
1443.524414	65083.281250
1442.456055	64878.234375
1441.387695	64811.996094
1440.318359	65382.480469
1439.250000	65541.250000
1438.180664	65438.542969
1437.111328	65867.687500
1436.041992	66042.179688
1434.972656	66489.234375
1433.903320	66665.820313
1432.833008	66799.187500
1431.762695	66830.320313
1430.692383	66897.765625
1429.622070	67099.109375
1428.550781	67545.476563
1427.480469	67267.851563
1426.409180	67639.156250
1425.337891	67127.984375
1424.266602	67594.421875
1423.194336	66972.335938
1422.122070	67601.851563
1421.050781	66694.390625
1419.978516	67235.343750
1418.905273	66305.609375
1417.833008	66687.859375
1416.759766	66968.039063
1415.687500	66847.296875
1414.614258	66955.273438
1413.540039	66956.804688
1412.466797	66883.648438
1411.392578	66810.515625
1410.319336	66974.968750
1409.245117	66587.406250
1408.169922	66842.304688
1407.095703	67296.101563
1406.020508	67231.984375
1404.946289	67414.289063
1403.871094	67680.140625
1402.794922	67229.578125
1401.719727	67452.437500
1400.643555	67580.343750
1399.568359	67721.750000
1398.492188	67833.750000
1397.415039	68036.007813
1396.338867	68409.742188
1395.261719	68257.500000
1394.185547	68371.570313
1393.108398	68607.414063
1392.031250	68563.476563
1390.953125	68997.656250
1389.875977	68843.171875
1388.797852	69978.250000
1387.719727	69981.421875
1386.641602	70345.164063
1385.562500	70884.507813
1384.484375	71015.914063
1383.405273	71014.382813
1382.326172	71548.804688
1381.247070	71713.781250
1380.166992	72310.914063
1379.087891	72678.250000
1378.007813	72089.070313
1376.927734	72042.328125
1375.847656	72357.765625
1374.767578	72203.031250
1373.686523	71623.335938
1372.605469	71693.609375
1371.524414	71570.539063
1370.443359	70876.648438
1369.362305	70949.250000
1368.280273	70927.468750
1367.199219	70860.765625
1366.117188	70425.765625
1365.034180	69463.234375
1363.952148	69219.460938
1362.870117	69150.859375
1361.787109	68566.101563
1360.704102	69125.914063
1359.621094	68859.929688
1358.537109	68751.054688
1357.454102	68299.093750
1356.370117	68109.632813
1355.286133	68332.734375
1354.202148	67943.843750
1353.118164	67785.914063
1352.033203	67247.140625
1350.948242	67732.328125
1349.863281	67195.984375
1348.778320	67062.929688
1347.693359	67147.101563
1346.607422	67052.148438
1345.521484	67149.710938
1344.435547	67444.164063
1343.349609	67047.156250
1342.263672	67028.335938
1341.176758	66709.820313
1340.090820	66787.218750
1339.003906	66873.531250
1337.916016	66582.031250
1336.829102	66891.835938
1335.741211	67375.820313
1334.654297	66869.906250
1333.566406	66679.125000
1332.478516	67124.906250
1331.389648	66630.468750
1330.301758	67091.718750
1329.212891	67338.523438
1328.124023	66819.750000
1327.035156	66914.781250
1325.945313	66844.679688
1324.856445	67066.804688
1323.766602	66610.890625
1322.676758	66788.375000
1321.586914	67177.570313
1320.496094	67085.187500
1319.406250	66861.351563
1318.315430	67259.226563
1317.224609	67345.085938
1316.133789	66689.218750
1315.041992	66659.343750
1313.951172	66992.390625
1312.859375	67262.984375
1311.767578	67395.492188
1310.675781	66953.820313
1309.583008	67188.671875
1308.491211	67405.632813
1307.398438	67695.914063
1306.305664	67656.976563
1305.212891	67346.820313
1304.119141	67445.773438
1303.026367	67584.695313
1301.932617	67859.109375
1300.838867	67175.890625
1299.744141	67905.632813
1298.650391	67509.132813
1297.555664	68183.031250
1296.461914	68561.414063
1295.366211	68677.742188
1294.271484	68754.078125
1293.176758	68743.843750
1292.081055	69148.460938
1290.985352	69564.023438
1289.889648	69005.890625
1288.793945	69439.054688
1287.697266	69273.515625
1286.601563	70127.593750
1285.504883	70048.406250
1284.408203	69710.023438
1283.311523	69949.929688
1282.213867	69450.000000
1281.116211	69260.265625
1280.018555	69134.796875
1278.920898	68761.453125
1277.823242	68580.789063
1276.725586	68805.132813
1275.626953	68613.460938
1274.528320	68070.140625
1273.429688	67909.625000
1272.330078	68974.179688
1271.231445	67946.914063
1270.131836	68051.750000
1269.032227	67977.531250
1267.932617	68179.539063
1266.833008	67734.171875
1265.732422	67399.406250
1264.632813	67566.070313
1263.532227	67677.460938
1262.430664	67638.695313
1261.330078	67354.945313
1260.228516	67177.218750
1259.127930	66589.164063
1258.026367	66932.250000
1256.924805	66426.054688
1255.822266	66621.296875
1254.720703	66364.476563
1253.618164	66063.656250
1252.515625	66073.710938
1251.413086	66290.898438
1250.309570	65628.921875
1249.207031	66037.750000
1248.103516	65924.453125
1247.000000	65467.683594
1245.895508	65797.046875
1244.791992	65912.773438
1243.687500	65192.152344
1242.583008	65116.507813
1241.478516	65507.285156
1240.374023	65207.246094
1239.269531	66024.507813
1238.164063	65150.585938
1237.058594	65101.382813
1235.953125	65109.339844
1234.847656	64816.222656
1233.741211	65349.359375
1232.635742	65152.957031
1231.529297	64875.355469
1230.422852	65059.015625
1229.315430	64840.808594
1228.208984	64870.738281
1227.101563	64942.355469
1225.994141	64809.863281
1224.886719	64177.179688
1223.779297	64891.605469
1222.670898	64840.335938
1221.562500	64085.187500
1220.454102	64472.558594
1219.345703	64480.570313
1218.237305	64317.625000
1217.127930	63569.683594
1216.018555	64243.855469
1214.909180	63458.953125
1213.799805	63493.406250
1212.690430	63803.738281
1211.580078	63260.152344
1210.469727	63605.429688
1209.359375	63865.230469
1208.249023	63063.730469
1207.138672	63494.167969
1206.027344	63399.503906
1204.916016	63823.152344
1203.804688	63378.625000
1202.693359	63456.722656
1201.581055	63869.195313
1200.469727	63785.464844
1199.357422	64068.812500
1198.245117	64319.289063
1197.131836	64106.652344
1196.019531	63856.968750
1194.906250	64151.003906
1193.792969	64222.277344
1192.679688	64271.695313
1191.566406	64314.550781
1190.452148	64553.734375
1189.337891	64803.738281
1188.223633	64964.230469
1187.109375	64823.753906
1185.995117	65165.125000
1184.879883	65299.296875
1183.764648	65389.835938
1182.649414	65789.742188
1181.534180	64991.316406
1180.418945	65467.375000
1179.302734	65231.148438
1178.186523	65049.437500
1177.070313	64800.300781
1175.954102	64409.781250
1174.837891	64495.972656
1173.720703	64586.480469
1172.603516	64555.136719
1171.486328	64154.058594
1170.369141	64364.171875
1169.250977	64035.019531
1168.132813	63723.371094
1167.015625	63735.664063
1165.896484	63356.816406
1164.778320	64001.378906
1163.660156	63246.835938
1162.541016	63380.812500
1161.421875	63558.167969
1160.302734	63025.546875
1159.182617	62870.796875
1158.063477	62837.628906
1156.943359	62689.472656
1155.823242	62940.539063
1154.703125	62707.820313
1153.582031	62876.378906
1152.461914	62580.875000
1151.340820	62461.070313
1150.219727	62443.171875
1149.097656	62520.628906
1147.976563	62561.222656
1146.854492	62892.070313
1145.732422	62352.132813
1144.610352	62665.570313
1143.488281	62816.511719
1142.365234	62973.890625
1141.243164	63477.488281
1140.120117	62898.972656
1138.996094	63350.472656
1137.873047	63685.000000
1136.750000	63238.679688
1135.625977	63519.039063
1134.501953	63064.257813
1133.377930	62789.042969
1132.252930	62740.839844
1131.127930	63183.128906
1130.003906	63128.382813
1128.878906	63287.488281
1127.752930	62785.718750
1126.627930	62500.042969
1125.501953	63019.675781
1124.375977	62697.363281
1123.250000	62334.167969
1122.124023	62135.074219
1120.997070	62490.433594
1119.871094	62103.742188
1118.744141	61874.601563
1117.617188	61794.304688
1116.489258	61875.703125
1115.362305	61879.480469
1114.234375	61868.171875
1113.106445	62231.726563
1111.978516	61541.843750
1110.849609	61248.468750
1109.721680	61794.957031
1108.592773	61316.496094
1107.463867	61690.570313
1106.333984	61281.164063
1105.205078	61461.453125
1104.075195	62069.773438
1102.945313	61989.593750
1101.815430	62333.082031
1100.685547	61921.773438
1099.554688	61762.117188
1098.424805	61843.238281
1097.293945	62001.687500
1096.162109	61749.714844
1095.031250	61435.535156
1093.899414	61875.312500
1092.768555	61376.554688
1091.636719	60783.507813
1090.503906	61160.906250
1089.372070	60892.175781
1088.239258	61153.542969
1087.106445	60844.144531
1085.973633	60968.140625
1084.840820	60450.863281
1083.708008	60917.949219
1082.574219	60360.132813
1081.440430	60218.335938
1080.306641	60282.316406
1079.171875	60594.808594
1078.038086	60453.039063
1076.903320	60619.738281
1075.768555	60621.484375
1074.633789	60015.175781
1073.498047	60284.609375
1072.363281	59723.523438
1071.227539	60316.023438
1070.091797	59770.109375
1068.956055	60148.468750
1067.819336	60267.906250
1066.682617	59715.878906
1065.546875	60371.960938
1064.409180	60363.035156
1063.272461	60384.027344
1062.135742	59924.250000
1060.998047	60109.812500
1059.860352	60160.734375
1058.722656	60166.792969
1057.583984	59566.460938
1056.446289	60475.621094
1055.307617	59745.253906
1054.168945	60372.359375
1053.029297	60284.480469
1051.890625	59880.917969
1050.750977	60243.175781
1049.611328	60814.277344
1048.471680	60327.683594
1047.332031	60911.343750
1046.191406	60254.406250
1045.051758	60081.410156
1043.911133	60598.742188
1042.769531	60346.925781
1041.628906	60742.625000
1040.487305	60923.113281
1039.346680	60452.093750
1038.205078	60364.375000
1037.062500	60570.363281
1035.920898	60408.179688
1034.778320	60537.496094
1033.635742	60775.238281
1032.493164	60798.109375
1031.350586	60933.652344
1030.207031	60977.738281
1029.063477	60751.878906
1027.919922	61274.097656
1026.776367	61192.734375
1025.632813	61385.421875
1024.488281	61138.406250
1023.343750	61243.968750
1022.199219	61540.562500
1021.054688	61319.117188
1019.910156	61237.820313
1018.764648	61935.273438
1017.619141	61996.027344
1016.473633	61558.300781
1015.327148	62115.335938
1014.181641	62330.796875
1013.035156	61751.207031
1011.888672	61814.042969
1010.742188	61760.300781
1009.594727	61556.144531
1008.448242	61572.371094
1007.300781	61279.363281
1006.153320	61524.328125
1005.005859	61724.738281
1003.857422	62638.433594
1002.708984	62434.324219
1001.560547	62708.511719
1000.412109	62726.597656
999.263672	63385.597656
998.114258	63528.328125
996.965820	63567.394531
995.816406	63849.558594
994.666016	63324.187500
993.516602	63855.660156
992.366211	62933.250000
991.215820	63251.226563
990.065430	62876.300781
988.915039	63016.781250
987.763672	63237.437500
986.613281	62898.597656
985.461914	62827.929688
984.309570	62917.656250
983.158203	62747.843750
982.005859	62654.027344
980.854492	63064.300781
979.701172	63461.769531
978.548828	62889.292969
977.396484	63335.121094
976.243164	62830.312500
975.089844	63311.804688
973.936523	63445.511719
972.783203	63545.460938
971.628906	63070.457031
970.474609	62637.734375
969.320313	63154.589844
968.166016	63431.312500
967.010742	63411.210938
965.856445	63056.582031
964.701172	63194.320313
963.545898	63041.761719
962.390625	63063.792969
961.234375	62917.621094
960.078125	63048.964844
958.921875	62957.484375
957.765625	63095.074219
956.609375	63180.085938
955.452148	62918.484375
954.294922	62904.785156
953.137695	63071.667969
951.980469	63196.500000
950.822266	63407.339844
949.665039	63127.031250
948.506836	63090.214844
947.347656	62650.632813
946.189453	62343.347656
945.030273	62325.558594
943.872070	62420.992188
942.712891	62157.929688
941.552734	62144.371094
940.393555	61912.882813
939.233398	61392.359375
938.073242	61900.519531
936.913086	61480.707031
935.752930	61239.031250
934.591797	61527.109375
933.430664	61582.738281
932.269531	61776.464844
931.108398	61557.921875
929.947266	61557.019531
928.785156	61537.292969
927.623047	61260.347656
926.460938	61792.660156
925.298828	61354.800781
924.135742	61690.425781
922.972656	61898.453125
921.810547	62254.742188
920.646484	62287.113281
919.483398	62434.339844
918.319336	61961.332031
917.155273	62505.230469
915.991211	62518.734375
914.827148	62208.750000
913.662109	62712.648438
912.498047	62555.031250
911.333008	62412.066406
910.167969	63197.175781
909.001953	63060.398438
907.836914	63319.753906
906.670898	63370.582031
905.504883	63335.949219
904.337891	62990.882813
903.171875	63066.730469
902.004883	62848.882813
900.837891	62345.832031
899.670898	62625.781250
898.503906	62318.621094
897.335938	62444.460938
896.167969	62358.003906
895.000000	62111.386719
893.832031	62561.671875
892.663086	62340.058594
891.495117	62012.480469
890.326172	61988.539063
889.156250	61684.003906
887.987305	61822.218750
886.817383	62091.281250
885.648438	61894.910156
884.478516	61733.917969
883.307617	61872.011719
882.137695	61499.304688
880.966797	61930.074219
879.795898	61379.000000
878.625000	61404.992188
877.454102	62264.992188
876.282227	61465.238281
875.110352	62409.933594
873.938477	62350.687500
872.766602	62681.214844
871.593750	62431.246094
870.421875	62815.507813
869.249023	62814.238281
868.076172	62353.070313
866.902344	62490.652344
865.729492	63007.144531
864.555664	62833.980469
863.381836	63350.210938
862.207031	63473.007813
861.033203	63850.281250
859.858398	63919.140625
858.683594	63801.804688
857.508789	64050.570313
856.333984	64011.824219
855.158203	63383.882813
853.982422	63709.058594
852.806641	63705.523438
851.630859	63321.792969
850.454102	63541.433594
849.278320	63217.773438
848.101563	63420.824219
846.924805	63652.703125
845.747070	63436.535156
844.570313	64072.851563
843.392578	64424.160156
842.214844	64657.730469
841.036133	65279.019531
839.858398	65312.289063
838.679688	66205.406250
837.500977	66102.414063
836.322266	66277.726563
835.143555	67244.351563
833.963867	67159.765625
832.784180	66949.531250
831.604492	66360.390625
830.424805	66142.140625
829.244141	65584.250000
828.063477	65178.886719
826.882813	64880.703125
825.702148	64350.093750
824.521484	63916.375000
823.339844	63912.742188
822.158203	63631.457031
820.976563	63259.792969
819.794922	63367.292969
818.612305	63127.367188
817.430664	62784.769531
816.248047	63095.710938
815.064453	62971.003906
813.881836	63626.863281
812.698242	62896.281250
811.514648	63377.378906
810.331055	63121.316406
809.147461	63039.808594
807.962891	62904.976563
806.778320	62597.843750
805.593750	62495.957031
804.409180	62102.867188
803.224609	62122.089844
802.039063	62651.796875
800.853516	62494.621094
799.667969	61866.128906
798.482422	61787.011719
797.295898	61787.820313
796.109375	61335.957031
794.922852	61490.437500
793.736328	61610.046875
792.548828	61316.089844
791.362305	61036.566406
790.174805	60695.750000
788.986328	60557.613281
787.798828	60427.707031
786.610352	60600.542969
785.421875	60724.234375
784.233398	60289.730469
783.044922	60311.222656
781.856445	60132.421875
780.666992	59880.121094
779.477539	59542.109375
778.288086	59557.585938
777.097656	59309.609375
775.907227	59578.304688
774.717773	59001.742188
773.526367	59690.847656
772.335938	59304.253906
771.144531	59070.824219
769.954102	59918.636719
768.762695	59203.839844
767.570313	59245.839844
766.378906	59334.710938
765.186523	59282.898438
763.994141	59712.074219
762.801758	60006.605469
761.609375	59838.562500
760.416016	60634.027344
759.222656	60321.332031
758.029297	60591.082031
756.835938	60634.765625
755.641602	61099.746094
754.447266	61702.933594
753.252930	61522.566406
752.058594	61153.082031
750.864258	60881.355469
749.668945	61087.593750
748.473633	60124.722656
747.278320	60015.949219
746.083008	59935.664063
744.886719	59826.960938
743.690430	59381.054688
742.494141	59609.667969
741.297852	59044.140625
740.100586	59124.507813
738.904297	58547.097656
737.707031	58603.160156
736.509766	58304.074219
735.311523	58372.328125
734.113281	57896.906250
732.916016	58105.152344
731.716797	57806.371094
730.518555	58103.757813
729.320313	57888.187500
728.121094	57924.003906
726.921875	57799.726563
725.721680	57379.710938
724.522461	57984.769531
723.322266	57848.390625
722.122070	57691.812500
720.921875	57733.683594
719.721680	57967.816406
718.520508	57934.738281
717.319336	57863.226563
716.118164	57548.992188
714.916992	58157.140625
713.714844	57968.335938
712.513672	57868.558594
711.311523	57194.742188
710.108398	57996.503906
708.906250	58365.550781
707.703125	58065.757813
706.500000	58535.644531
705.296875	58312.667969
704.093750	57978.718750
702.889648	58399.898438
701.685547	58439.449219
700.481445	58759.480469
699.277344	58756.574219
698.072266	59157.109375
696.868164	59777.332031
695.663086	59560.484375
694.457031	59464.675781
693.251953	59657.152344
692.045898	60722.195313
690.839844	60497.261719
689.633789	60816.347656
688.427734	61143.367188
687.220703	61053.398438
686.013672	61476.890625
684.806641	61568.066406
683.599609	62083.882813
682.391602	61991.781250
681.184570	62690.406250
679.976563	62899.957031
678.767578	63149.652344
677.559570	63147.894531
676.350586	63097.886719
675.141602	63269.000000
673.932617	63267.214844
672.723633	63482.429688
671.513672	63876.359375
670.303711	63444.621094
669.093750	62970.863281
667.883789	62435.042969
666.672852	62045.957031
665.462891	61257.613281
664.251953	60997.320313
663.040039	60191.402344
661.829102	59780.953125
660.617188	59446.867188
659.405273	59177.070313
658.193359	59308.332031
656.981445	58978.523438
655.768555	58436.406250
654.555664	58419.453125
653.342773	58085.980469
652.129883	58111.152344
650.916016	58054.210938
649.702148	57835.109375
648.488281	58162.582031
647.274414	58483.925781
646.059570	57746.585938
644.845703	58003.859375
643.630859	58026.996094
642.416016	58002.125000
641.200195	58435.160156
639.984375	57768.476563
638.769531	58171.402344
637.552734	57822.765625
636.336914	58637.125000
635.120117	58158.675781
633.904297	58285.589844
632.687500	58043.015625
631.469727	58042.117188
630.252930	58007.281250
629.035156	57900.605469
627.817383	58213.011719
626.599609	57801.085938
625.380859	57756.335938
624.163086	57665.730469
622.944336	58023.792969
621.724609	57448.730469
620.505859	57515.687500
619.286133	57983.175781
618.066406	57687.378906
616.846680	57128.734375
615.626953	57657.765625
614.406250	57652.917969
613.186523	57502.734375
611.965820	57073.917969
610.744141	57509.015625
609.523438	57532.046875
608.301758	57590.878906
607.080078	57194.183594
605.858398	57368.398438
604.635742	57586.285156
603.414063	57247.460938
602.191406	57049.878906
600.968750	57285.578125
599.745117	57340.386719
598.522461	57025.687500
597.298828	56591.937500
596.075195	57349.785156
594.850586	57732.113281
593.626953	57080.117188
592.402344	56914.593750
591.177734	56770.957031
589.953125	56881.308594
588.727539	57043.183594
587.501953	56641.789063
586.276367	56660.886719
585.050781	57054.640625
583.825195	56970.585938
582.598633	57080.753906
581.372070	56606.410156
580.145508	57162.300781
578.917969	57515.968750
577.691406	56986.359375
576.463867	57440.890625
575.236328	57386.542969
574.007813	57132.332031
572.780273	57746.839844
571.551758	57639.042969
570.323242	57533.261719
569.094727	57668.777344
567.865234	57628.273438
566.635742	57269.519531
565.406250	57721.226563
564.176758	57445.574219
562.947266	58327.769531
561.716797	57639.265625
560.486328	57831.835938
559.255859	57694.582031
558.024414	57815.992188
556.793945	57586.019531
555.562500	57954.078125
554.331055	57605.773438
553.098633	58005.253906
551.867188	57761.597656
550.634766	57267.593750
549.402344	57629.437500
548.168945	57910.328125
546.936523	57440.214844
545.703125	57516.097656
544.469727	57970.207031
543.236328	57711.105469
542.001953	57895.199219
540.767578	57837.039063
539.533203	57900.949219
538.298828	57903.816406
537.064453	58079.855469
535.829102	57807.234375
534.593750	57943.875000
533.358398	58003.757813
532.122070	58097.046875
530.886719	57875.734375
529.650391	57872.687500
528.414063	58107.437500
527.176758	58332.273438
525.940430	58335.027344
524.703125	58086.363281
523.465820	57666.941406
522.227539	58561.207031
520.990234	58322.449219
519.751953	58321.265625
518.513672	58488.835938
517.275391	58601.406250
516.036133	59057.210938
514.796875	58685.207031
513.557617	58613.351563
512.318359	58829.707031
511.079102	58863.687500
509.838867	58707.562500
508.598633	58251.710938
507.358398	58750.054688
506.117188	58729.171875
504.876953	58680.882813
503.635742	58842.101563
502.394531	59089.382813
501.152344	58902.085938
499.911133	58752.035156
498.668945	58836.808594
497.425781	59224.730469
496.183594	59237.015625
494.941406	59204.320313
493.698242	58937.042969
492.455078	59486.871094
491.210938	59559.664063
489.967773	59530.832031
488.723633	59472.703125
487.479492	59645.058594
486.235352	59182.714844
484.990234	59544.429688
483.745117	59228.671875
482.500000	59627.316406
481.254883	59643.363281
480.008789	60039.824219
478.763672	59638.378906
477.517578	60028.832031
476.271484	60140.320313
475.024414	60446.703125
473.777344	59842.773438
472.530273	60248.468750
471.283203	60285.785156
470.036133	60009.468750
468.788086	61125.753906
467.540039	60987.628906
466.291992	60857.339844
465.043945	61583.531250
463.794922	61441.496094
462.545898	62122.542969
461.296875	62713.847656
460.047852	62517.210938
458.797852	62931.250000
457.547852	62999.058594
456.297852	62936.597656
455.047852	63074.335938
453.796875	63328.609375
452.545898	64196.695313
451.294922	64011.671875
450.043945	64455.933594
448.792969	64707.796875
447.541016	65534.187500
446.289063	65259.753906
445.036133	66169.164063
443.784180	66531.093750
442.531250	66580.570313
441.278320	66160.671875
440.025391	65139.816406
438.771484	64900.652344
437.518555	64770.117188
436.264648	64098.933594
435.010742	63646.953125
433.755859	63005.285156
432.500977	62758.988281
431.246094	62894.269531
429.991211	62373.144531
428.736328	61983.847656
427.480469	61906.296875
426.224609	62418.964844
424.968750	62024.066406
423.712891	61888.511719
422.456055	61774.281250
421.199219	61888.253906
419.942383	62249.632813
418.685547	61779.746094
417.427734	62270.476563
416.169922	61729.269531
414.912109	61972.554688
413.654297	61512.718750
412.395508	61804.222656
411.136719	62591.792969
409.877930	61815.523438
408.619141	61938.894531
407.359375	62141.324219
406.099609	62063.941406
404.839844	61982.726563
403.580078	62132.957031
402.319336	61594.796875
401.059570	62198.054688
