#Wave		#Intensity
2001.221680	37472.390625
2000.251953	37504.976563
1999.282227	37064.878906
1998.312500	37469.332031
1997.342773	37390.140625
1996.372070	37523.878906
1995.402344	37700.144531
1994.431641	37345.519531
1993.460938	37173.769531
1992.490234	37257.386719
1991.518555	37185.816406
1990.547852	37246.878906
1989.576172	37200.347656
1988.604492	37611.562500
1987.632813	37424.929688
1986.661133	37295.875000
1985.689453	36916.867188
1984.716797	37552.792969
1983.745117	37591.218750
1982.772461	36880.031250
1981.799805	37518.125000
1980.827148	37471.605469
1979.853516	37799.703125
1978.880859	37578.363281
1977.907227	37334.632813
1976.933594	37869.746094
1975.959961	37361.515625
1974.986328	37499.703125
1974.011719	37183.804688
1973.038086	37394.308594
1972.063477	37370.312500
1971.088867	37588.187500
1970.114258	37434.531250
1969.138672	37864.179688
1968.164063	37461.316406
1967.188477	38077.683594
1966.212891	38056.078125
1965.237305	37847.667969
1964.261719	38134.914063
1963.286133	37358.855469
1962.309570	37718.277344
1961.333984	37798.796875
1960.357422	37827.027344
1959.380859	38099.089844
1958.404297	37970.523438
1957.426758	38070.835938
1956.450195	37962.214844
1955.472656	37813.843750
1954.495117	38244.765625
1953.517578	37805.585938
1952.540039	37997.781250
1951.561523	37946.410156
1950.583008	38215.523438
1949.605469	37781.613281
1948.626953	37787.417969
1947.647461	38418.929688
1946.668945	37952.933594
1945.690430	38164.718750
1944.710938	37947.093750
1943.731445	38260.531250
1942.751953	37921.406250
1941.772461	38217.371094
1940.791992	38438.832031
1939.812500	38375.074219
1938.832031	37949.394531
1937.851563	38515.312500
1936.871094	37960.886719
1935.890625	37922.027344
1934.909180	38125.960938
1933.928711	38000.390625
1932.947266	38224.046875
1931.965820	38239.632813
1930.984375	38272.546875
1930.002930	38033.175781
1929.020508	38494.234375
1928.038086	38188.101563
1927.056641	38404.058594
1926.074219	38258.820313
1925.090820	38239.750000
1924.108398	38680.582031
1923.125000	38463.671875
1922.142578	38785.667969
1921.159180	38245.078125
1920.175781	38616.410156
1919.191406	38557.765625
1918.208008	38649.804688
1917.223633	38405.957031
1916.240234	38737.488281
1915.255859	39303.425781
1914.271484	38410.441406
1913.286133	38939.218750
1912.301758	38636.308594
1911.316406	38863.890625
1910.331055	38736.218750
1909.345703	39175.781250
1908.360352	39215.757813
1907.375000	38555.605469
1906.388672	38795.320313
1905.402344	38864.910156
1904.416016	38939.398438
1903.429688	38959.070313
1902.443359	38978.742188
1901.457031	38998.414063
1900.469727	39018.105469
1899.482422	39037.792969
1898.495117	39057.484375
1897.507813	39077.175781
1896.520508	39096.867188
1895.532227	39116.578125
1894.543945	38930.164063
1893.556641	39110.226563
1892.568359	38946.003906
1891.579102	39519.320313
1890.590820	39332.960938
1889.601563	39394.867188
1888.613281	39800.722656
1887.624023	39381.035156
1886.634766	39595.171875
1885.644531	39598.042969
1884.655273	39050.933594
1883.665039	39652.875000
1882.674805	39339.109375
1881.684570	39840.175781
1880.694336	39646.707031
1879.704102	39534.261719
1878.712891	39500.339844
1877.722656	39490.949219
1876.731445	39768.421875
1875.740234	39842.332031
1874.748047	40144.152344
1873.756836	39818.531250
1872.764648	39767.433594
1871.773438	39831.488281
1870.781250	39829.386719
1869.788086	39702.398438
1868.795898	39707.664063
1867.803711	39837.769531
1866.810547	40006.988281
1865.817383	40107.628906
1864.824219	39914.636719
1863.831055	40448.234375
1862.837891	39861.472656
1861.843750	40231.050781
1860.849609	40693.402344
1859.855469	40234.015625
1858.861328	40366.253906
1857.867188	40395.812500
1856.872070	39902.511719
1855.877930	40511.074219
1854.882813	40508.835938
1853.887695	40704.390625
1852.892578	40504.355469
1851.896484	40773.070313
1850.901367	40487.667969
1849.905273	40753.847656
1848.909180	40446.589844
1847.913086	40727.316406
1846.916992	40907.949219
1845.919922	40730.058594
1844.923828	40925.250000
1843.926758	40598.718750
1842.929688	40701.250000
1841.932617	40940.203125
1840.935547	40769.761719
1839.937500	40857.589844
1838.939453	40996.527344
1837.942383	41047.753906
1836.943359	41332.683594
1835.945313	41437.378906
1834.947266	40923.863281
1833.948242	41021.292969
1832.949219	41615.000000
1831.951172	40853.601563
1830.951172	41405.781250
1829.952148	41298.796875
1828.953125	41512.761719
1827.953125	41602.683594
1826.953125	41281.843750
1825.953125	41578.312500
1824.953125	41464.089844
1823.952148	41464.074219
1822.952148	41592.777344
1821.951172	41604.875000
1820.950195	41796.625000
1819.949219	41449.433594
1818.948242	41692.101563
1817.946289	41454.238281
1816.945313	42167.476563
1815.943359	41456.613281
1814.941406	41589.968750
1813.939453	41517.171875
1812.936523	41868.660156
1811.934570	42292.742188
1810.931641	41912.066406
1809.928711	41785.949219
1808.925781	41621.113281
1807.921875	41991.640625
1806.918945	42010.878906
1805.915039	42071.269531
1804.912109	42221.214844
1803.908203	42308.171875
1802.903320	42266.828125
1801.899414	42227.921875
1800.894531	42155.156250
1799.890625	42520.218750
1798.885742	42198.328125
1797.880859	42468.953125
1796.875000	42761.234375
1795.870117	42860.046875
1794.864258	43333.402344
1793.858398	42876.335938
1792.852539	42808.378906
1791.846680	43148.644531
1790.840820	43054.089844
1789.833984	43191.367188
1788.828125	43285.140625
1787.821289	43074.750000
1786.814453	43409.832031
1785.806641	43498.687500
1784.799805	43606.804688
1783.791992	43548.457031
1782.784180	43195.917969
1781.776367	43460.750000
1780.768555	44024.417969
1779.760742	44079.316406
1778.751953	43570.281250
1777.743164	43760.164063
1776.735352	44190.875000
1775.725586	43496.628906
1774.716797	44062.089844
1773.708008	43864.097656
1772.698242	44034.492188
1771.688477	44094.109375
1770.678711	43780.699219
1769.668945	44451.468750
1768.659180	44191.027344
1767.648438	44700.335938
1766.637695	44680.417969
1765.626953	45069.238281
1764.616211	44943.484375
1763.605469	44707.214844
1762.593750	44922.800781
1761.583008	44655.378906
1760.571289	45111.113281
1759.559570	45525.855469
1758.547852	45491.394531
1757.535156	45507.363281
1756.523438	45561.734375
1755.510742	45692.886719
1754.498047	45749.601563
1753.485352	46139.789063
1752.472656	45807.792969
1751.458984	45945.996094
1750.445313	46177.667969
1749.432617	46284.585938
1748.417969	46206.886719
1747.404297	45944.667969
1746.390625	46653.027344
1745.375977	46807.695313
1744.361328	46938.351563
1743.346680	46757.609375
1742.332031	47209.097656
1741.317383	47272.574219
1740.302734	47144.523438
1739.287109	47909.222656
1738.271484	47654.281250
1737.255859	48397.082031
1736.240234	48134.964844
1735.223633	48875.019531
1734.208008	49007.453125
1733.191406	49278.500000
1732.174805	49487.300781
1731.158203	49739.046875
1730.140625	50769.675781
1729.124023	50409.496094
1728.106445	50775.589844
1727.088867	51511.730469
1726.071289	51495.449219
1725.053711	51887.414063
1724.035156	51983.253906
1723.017578	51971.664063
1721.999023	52587.625000
1720.980469	52683.281250
1719.961914	53315.593750
1718.942383	53093.898438
1717.923828	53318.171875
1716.904297	53530.441406
1715.884766	54078.718750
1714.865234	53747.414063
1713.844727	53592.546875
1712.825195	53776.019531
1711.804688	53599.761719
1710.784180	53828.410156
1709.763672	53571.246094
1708.743164	53473.671875
1707.722656	53411.832031
1706.701172	53718.878906
1705.679688	53388.144531
1704.658203	53533.316406
1703.636719	53573.777344
1702.615234	53033.964844
1701.592773	52941.347656
1700.571289	52946.226563
1699.548828	53217.308594
1698.526367	53020.136719
1697.502930	53008.363281
1696.480469	52896.816406
1695.457031	52172.515625
1694.433594	53243.765625
1693.410156	52738.097656
1692.386719	53096.695313
1691.363281	52721.765625
1690.338867	52546.304688
1689.314453	52691.203125
1688.290039	52790.980469
1687.265625	53011.679688
1686.241211	53087.644531
1685.215820	52985.761719
1684.191406	52717.972656
1683.166016	53068.875000
1682.140625	53362.781250
1681.115234	52988.445313
1680.088867	53360.425781
1679.062500	53350.957031
1678.037109	53485.937500
1677.010742	53594.824219
1675.983398	53734.445313
1674.957031	53540.300781
1673.930664	53670.410156
1672.903320	53928.230469
1671.875977	53880.808594
1670.848633	54152.687500
1669.820313	54580.531250
1668.792969	54277.675781
1667.764648	54497.328125
1666.736328	54445.109375
1665.708008	54678.828125
1664.679688	54593.515625
1663.651367	54923.964844
1662.622070	54992.144531
1661.592773	55178.367188
1660.563477	55347.988281
1659.534180	55149.324219
1658.504883	55493.531250
1657.474609	55415.242188
1656.444336	55452.582031
1655.415039	55836.644531
1654.383789	56222.925781
1653.353516	55772.003906
1652.323242	56443.410156
1651.291992	56904.796875
1650.260742	56286.664063
1649.229492	56813.886719
1648.198242	57058.218750
1647.166016	57083.406250
1646.134766	57136.847656
1645.102539	57717.687500
1644.070313	57909.882813
1643.038086	58360.921875
1642.004883	57752.800781
1640.972656	58827.222656
1639.939453	58416.839844
1638.906250	59088.550781
1637.873047	59498.988281
1636.839844	59798.769531
1635.805664	59898.621094
1634.772461	60917.437500
1633.738281	60718.605469
1632.704102	61126.027344
1631.668945	61319.527344
1630.634766	62236.363281
1629.599609	62060.910156
1628.565430	63247.289063
1627.530273	63386.273438
1626.494141	64271.566406
1625.458984	65165.929688
1624.422852	66583.179688
1623.387695	67469.765625
1622.351563	69024.476563
1621.315430	69983.000000
1620.278320	71979.820313
1619.242188	73387.546875
1618.205078	75577.570313
1617.167969	78197.976563
1616.130859	81478.132813
1615.093750	83166.593750
1614.055664	86130.859375
1613.018555	87607.140625
1611.980469	89906.992188
1610.942383	90232.734375
1609.904297	90340.703125
1608.865234	89281.000000
1607.827148	88394.789063
1606.788086	86351.023438
1605.749023	84146.617188
1604.709961	81734.882813
1603.669922	79604.546875
1602.630859	77559.117188
1601.590820	76608.140625
1600.550781	74921.468750
1599.510742	74018.023438
1598.470703	72967.750000
1597.429688	72001.914063
1596.389648	71732.234375
1595.348633	70801.976563
1594.307617	70992.421875
1593.265625	69411.515625
1592.224609	69280.148438
1591.182617	69510.414063
1590.140625	69115.500000
1589.098633	68683.414063
1588.056641	68109.242188
1587.014648	68080.781250
1585.971680	67355.414063
1584.928711	66958.890625
1583.886719	67224.218750
1582.842773	66180.242188
1581.799805	66387.375000
1580.755859	66217.179688
1579.712891	66573.242188
1578.668945	66519.468750
1577.625000	66831.117188
1576.580078	65951.203125
1575.536133	66376.843750
1574.491211	67416.460938
1573.446289	66904.382813
1572.401367	67392.406250
1571.356445	67959.296875
1570.311523	68814.234375
1569.265625	68462.625000
1568.219727	68501.531250
1567.173828	68919.117188
1566.127930	68214.593750
1565.082031	67677.531250
1564.035156	67563.281250
1562.988281	66968.476563
1561.941406	66575.835938
1560.894531	66359.718750
1559.847656	65992.843750
1558.799805	65679.460938
1557.751953	66105.359375
1556.704102	66041.812500
1555.656250	65978.265625
1554.608398	65914.718750
1553.560547	65851.171875
1552.511719	65787.562500
1551.462891	65694.710938
1550.414063	65949.390625
1549.365234	65448.875000
1548.315430	65696.562500
1547.265625	65812.171875
1546.216797	65636.046875
1545.166992	65344.250000
1544.116211	65334.886719
1543.066406	65496.746094
1542.015625	65845.929688
1540.965820	64973.734375
1539.915039	65133.250000
1538.863281	65290.394531
1537.812500	65456.726563
1536.760742	64793.234375
1535.709961	65045.093750
1534.658203	64682.269531
1533.605469	64167.105469
1532.553711	64206.445313
1531.501953	63673.074219
1530.449219	63384.625000
1529.396484	63186.308594
1528.343750	63091.917969
1527.290039	62692.957031
1526.237305	62464.867188
1525.183594	62548.273438
1524.129883	62121.937500
1523.076172	62043.953125
1522.022461	62104.324219
1520.968750	62037.890625
1519.914063	62211.167969
1518.859375	62013.386719
1517.804688	62073.710938
1516.750000	61747.027344
1515.694336	62166.648438
1514.639648	62581.515625
1513.583984	61990.148438
1512.528320	62112.558594
1511.472656	62083.031250
1510.416016	62532.117188
1509.360352	62224.144531
1508.303711	62307.312500
1507.247070	62641.125000
1506.190430	62747.175781
1505.132813	62177.296875
1504.076172	62600.585938
1503.018555	62577.882813
1501.960938	62543.699219
1500.903320	62121.281250
1499.844727	62592.500000
1498.787109	62551.433594
1497.728516	62308.328125
1496.669922	62414.246094
1495.611328	62816.207031
1494.552734	62910.515625
1493.493164	62561.964844
1492.434570	62195.183594
1491.375000	62628.996094
1490.315430	61863.312500
1489.254883	61758.222656
1488.195313	62168.953125
1487.134766	61839.226563
1486.074219	62203.957031
1485.013672	62025.554688
1483.953125	61996.109375
1482.892578	62115.542969
1481.831055	62351.714844
1480.769531	62081.824219
1479.708008	62572.003906
1478.646484	62212.906250
1477.583984	62407.691406
1476.522461	62645.878906
1475.459961	62609.480469
1474.397461	62104.253906
1473.334961	62374.367188
1472.271484	62424.910156
1471.208984	62301.707031
1470.145508	62644.765625
1469.082031	62960.281250
1468.018555	62645.136719
1466.954102	62442.027344
1465.890625	63266.675781
1464.826172	62972.191406
1463.761719	63166.351563
1462.697266	63570.437500
1461.631836	63070.656250
1460.567383	63588.691406
1459.501953	63406.179688
1458.436523	64129.242188
1457.371094	63376.578125
1456.305664	63750.531250
1455.239258	63675.257813
1454.172852	63296.867188
1453.107422	63237.644531
1452.040039	63233.125000
1450.973633	63353.898438
1449.907227	63891.421875
1448.839844	63440.449219
1447.772461	63485.976563
1446.705078	63645.300781
1445.637695	64023.062500
1444.569336	63806.761719
1443.500977	64407.316406
1442.432617	64429.863281
1441.364258	64698.031250
1440.295898	64465.839844
1439.227539	64993.078125
1438.158203	65454.207031
1437.088867	65731.078125
1436.019531	65539.757813
1434.950195	65875.578125
1433.879883	66040.914063
1432.810547	66122.156250
1431.740234	66232.882813
1430.669922	66702.273438
1429.598633	67709.445313
1428.528320	68448.453125
1427.457031	68706.164063
1426.386719	69068.132813
1425.314453	69393.671875
1424.243164	69628.382813
1423.171875	70184.984375
1422.099609	70811.648438
1421.027344	71039.171875
1419.955078	70761.257813
1418.882813	71523.421875
1417.810547	71073.335938
1416.737305	70979.015625
1415.664063	71262.898438
1414.590820	70851.593750
1413.517578	70238.960938
1412.444336	69554.109375
1411.370117	69328.882813
1410.295898	68599.195313
1409.221680	67994.179688
1408.147461	67554.484375
1407.073242	67824.984375
1405.998047	67925.820313
1404.922852	67529.312500
1403.847656	67896.851563
1402.772461	67688.039063
1401.697266	67691.664063
1400.621094	67239.000000
1399.544922	67590.507813
1398.468750	67637.046875
1397.392578	67900.296875
1396.316406	68504.289063
1395.239258	68911.718750
1394.162109	69707.101563
1393.084961	70646.578125
1392.007813	72212.765625
1390.930664	72991.328125
1389.852539	73986.062500
1388.774414	74860.960938
1387.696289	75636.359375
1386.618164	75960.765625
1385.540039	75687.968750
1384.460938	75597.734375
1383.382813	74665.156250
1382.303711	74626.929688
1381.223633	74131.648438
1380.144531	74174.570313
1379.064453	74014.906250
1377.985352	73920.546875
1376.905273	73313.250000
1375.825195	73401.257813
1374.744141	72881.984375
1373.664063	72866.593750
1372.583008	72709.562500
1371.501953	73026.890625
1370.420898	73045.187500
1369.338867	72699.445313
1368.257813	72574.007813
1367.175781	72994.445313
1366.093750	73100.312500
1365.011719	73670.937500
1363.929688	74241.554688
1362.846680	74812.695313
1361.763672	75383.828125
1360.680664	76855.640625
1359.597656	76339.242188
1358.514648	77018.562500
1357.430664	76921.687500
1356.346680	76154.421875
1355.262695	75481.593750
1354.178711	74820.203125
1353.094727	73522.609375
1352.009766	73332.328125
1350.925781	72104.914063
1349.840820	71265.414063
1348.755859	70397.109375
1347.669922	70601.578125
1346.584961	69780.710938
1345.499023	69445.812500
1344.413086	68332.296875
1343.327148	68458.671875
1342.240234	68701.320313
1341.154297	68530.117188
1340.067383	68345.554688
1338.980469	68699.875000
1337.893555	68504.164063
1336.805664	68777.867188
1335.718750	67552.085938
1334.630859	68460.343750
1333.542969	67534.382813
1332.455078	68565.140625
1331.367188	68525.960938
1330.278320	68551.531250
1329.189453	68907.437500
1328.100586	69332.398438
1327.011719	69543.000000
1325.922852	70478.562500
1324.833008	70798.164063
1323.743164	71365.187500
1322.653320	72790.437500
1321.563477	73809.437500
1320.473633	75367.460938
1319.382813	77192.328125
1318.291992	78722.429688
1317.201172	81085.117188
1316.110352	83351.179688
1315.019531	84868.195313
1313.927734	86019.515625
1312.835938	87076.921875
1311.744141	87484.046875
1310.652344	86651.546875
1309.560547	86442.312500
1308.467773	84429.117188
1307.375000	83114.992188
1306.282227	80934.125000
1305.189453	79383.218750
1304.095703	78241.867188
1303.002930	76327.523438
1301.909180	74858.273438
1300.815430	73896.085938
1299.721680	73460.679688
1298.626953	73405.187500
1297.533203	72419.351563
1296.438477	72688.179688
1295.343750	72890.328125
1294.248047	72495.421875
1293.153320	73356.515625
1292.057617	73323.265625
1290.961914	73323.296875
1289.866211	73527.343750
1288.770508	73795.617188
1287.674805	73310.070313
1286.578125	73691.312500
1285.481445	73582.679688
1284.384766	73604.796875
1283.288086	73272.476563
1282.190430	73374.375000
1281.092773	73026.703125
1279.996094	72544.101563
1278.897461	72322.882813
1277.799805	72050.828125
1276.702148	71203.546875
1275.603516	71281.351563
1274.504883	71031.750000
1273.406250	70538.960938
1272.307617	70198.914063
1271.208008	69525.164063
1270.108398	69313.625000
1269.008789	69172.882813
1267.909180	68811.218750
1266.809570	68798.750000
1265.708984	68879.039063
1264.609375	68477.875000
1263.508789	68229.203125
1262.407227	67821.671875
1261.306641	67880.000000
1260.206055	67360.125000
1259.104492	67502.359375
1258.002930	67238.625000
1256.901367	67244.078125
1255.798828	66998.125000
1254.697266	66432.570313
1253.594727	66255.187500
1252.492188	66512.054688
1251.389648	67004.609375
1250.286133	66833.820313
1249.183594	66220.328125
1248.080078	66402.117188
1246.976563	66222.718750
1245.872070	66314.171875
1244.768555	66339.554688
1243.664063	66637.828125
1242.560547	66465.101563
1241.455078	66794.031250
1240.350586	67345.000000
1239.246094	67297.585938
1238.140625	67445.875000
1237.035156	67822.750000
1235.929688	67249.937500
1234.824219	67690.429688
1233.717773	67715.492188
1232.612305	67509.875000
1231.505859	66887.007813
1230.399414	67193.281250
1229.291992	66820.992188
1228.185547	66558.601563
1227.078125	66353.367188
1225.970703	66042.875000
1224.863281	65787.335938
1223.755859	65819.257813
1222.647461	65644.992188
1221.539063	65565.085938
1220.430664	65290.082031
1219.322266	65510.570313
1218.213867	65286.074219
1217.104492	65109.863281
1215.995117	64975.343750
1214.885742	65086.195313
1213.776367	64991.140625
1212.666992	65055.960938
1211.556641	65547.656250
1210.446289	65157.066406
1209.335938	65677.007813
1208.225586	65566.601563
1207.115234	65482.484375
1206.003906	65612.742188
1204.892578	66694.226563
1203.781250	66288.539063
1202.669922	66864.523438
1201.557617	66826.132813
1200.446289	67351.546875
1199.333984	67426.679688
1198.221680	67704.945313
1197.108398	67987.476563
1195.996094	68448.953125
1194.882813	68569.679688
1193.769531	68915.187500
1192.656250	68529.437500
1191.542969	68835.546875
1190.428711	68334.320313
1189.314453	67975.062500
1188.200195	67458.906250
1187.085938	67115.187500
1185.971680	66965.625000
1184.856445	67029.718750
1183.741211	66518.453125
1182.625977	66645.789063
1181.510742	65768.789063
1180.395508	66763.093750
1179.279297	66232.640625
1178.163086	66536.281250
1177.046875	66067.015625
1175.930664	65502.144531
1174.813477	66251.851563
1173.697266	65882.960938
1172.580078	66195.078125
1171.462891	65852.429688
1170.344727	65659.945313
1169.227539	65295.769531
1168.109375	65492.546875
1166.991211	64880.769531
1165.873047	65142.734375
1164.754883	65191.691406
1163.635742	65142.878906
1162.516602	64727.058594
1161.397461	64426.464844
1160.278320	64762.074219
1159.159180	65106.238281
1158.039063	64866.500000
1156.918945	64921.933594
1155.798828	65057.613281
1154.678711	64915.609375
1153.558594	65380.859375
1152.437500	64839.894531
1151.316406	65153.234375
1150.195313	65191.199219
1149.074219	65439.347656
1147.952148	65381.910156
1146.831055	65519.453125
1145.708984	65199.949219
1144.586914	65376.445313
1143.463867	66386.406250
1142.341797	66696.828125
1141.218750	67011.453125
1140.095703	67438.484375
1138.972656	67497.570313
1137.849609	67615.031250
1136.725586	67747.585938
1135.601563	67614.132813
1134.477539	67489.367188
1133.353516	67312.773438
1132.229492	66885.554688
1131.104492	66661.593750
1129.979492	66487.398438
1128.854492	66563.812500
1127.729492	66478.234375
1126.603516	66777.000000
1125.478516	66296.367188
1124.352539	66597.210938
1123.226563	65786.609375
1122.099609	65951.507813
1120.973633	65883.375000
1119.846680	65243.726563
1118.719727	65354.714844
1117.592773	65476.441406
1116.465820	65419.210938
1115.337891	64752.082031
1114.209961	64994.511719
1113.082031	64696.097656
1111.954102	64236.242188
1110.826172	64157.742188
1109.697266	64604.644531
1108.568359	64263.453125
1107.439453	64525.058594
1106.310547	64153.875000
1105.180664	63735.488281
1104.051758	63659.296875
1102.921875	63834.777344
1101.791992	64014.492188
1100.661133	63966.234375
1099.531250	64214.640625
1098.400391	64404.925781
1097.269531	64363.062500
1096.138672	64441.523438
1095.006836	64154.777344
1093.875977	64280.492188
1092.744141	64298.792969
1091.612305	63730.976563
1090.480469	63998.363281
1089.347656	63319.207031
1088.215820	63747.492188
1087.083008	63203.781250
1085.950195	63237.257813
1084.816406	63504.472656
1083.683594	63889.515625
1082.549805	63106.066406
1081.416016	63401.015625
1080.282227	64197.308594
1079.148438	63733.468750
1078.013672	63638.253906
1076.878906	64037.824219
1075.744141	63835.511719
1074.609375	63958.703125
1073.474609	63882.773438
1072.338867	64031.589844
1071.203125	63662.503906
1070.067383	64286.257813
1068.931641	63519.394531
1067.794922	63638.214844
1066.659180	63618.000000
1065.522461	63441.726563
1064.385742	63748.589844
1063.248047	63835.214844
1062.111328	63364.121094
1060.973633	63529.824219
1059.835938	63488.273438
1058.698242	63073.023438
1057.559570	63279.246094
1056.421875	63367.976563
1055.283203	63473.750000
1054.144531	63652.035156
1053.005859	63450.476563
1051.866211	64046.800781
1050.726563	63267.250000
1049.587891	63618.156250
1048.447266	64028.625000
1047.307617	64368.601563
1046.167969	64160.718750
1045.027344	64523.976563
1043.886719	64235.183594
1042.746094	64349.074219
1041.604492	64601.343750
1040.463867	64008.199219
1039.322266	64549.964844
1038.180664	64410.410156
1037.038086	64532.660156
1035.896484	64546.351563
1034.753906	64268.589844
1033.611328	64150.445313
1032.468750	64536.335938
1031.326172	64262.972656
1030.182617	64414.859375
1029.040039	64147.988281
1027.896484	64325.332031
1026.751953	63935.347656
1025.608398	64274.097656
1024.463867	64241.058594
1023.319336	64350.296875
1022.174805	64049.746094
1021.030273	64110.152344
1019.885742	63922.230469
1018.740234	63539.160156
1017.594727	63550.824219
1016.449219	64247.593750
1015.303711	63955.859375
1014.157227	64158.257813
1013.010742	64241.863281
1011.864258	64020.226563
1010.717773	64182.230469
1009.571289	64119.585938
1008.423828	64726.363281
1007.276367	64100.253906
1006.128906	64088.472656
1004.981445	64796.535156
1003.833008	64786.742188
1002.684570	64992.820313
1001.536133	65454.859375
1000.387695	65821.523438
999.239258	66526.484375
998.089844	66520.601563
996.941406	66007.234375
995.791992	66113.484375
994.641602	65820.203125
993.492188	66266.687500
992.341797	65922.773438
991.191406	66233.859375
990.041016	65499.324219
988.890625	65673.109375
987.739258	66381.000000
986.588867	65790.375000
985.437500	65370.929688
984.285156	65905.437500
983.133789	65821.578125
981.981445	64881.324219
980.829102	65685.570313
979.676758	65108.367188
978.524414	65256.609375
977.372070	65168.714844
976.218750	65026.054688
975.065430	65005.652344
973.912109	65452.945313
972.757813	65710.500000
971.604492	65572.046875
970.450195	66265.320313
969.295898	66053.132813
968.141602	65476.890625
966.986328	65839.406250
965.832031	66275.429688
964.676758	66814.359375
963.521484	66583.320313
962.365234	66415.445313
961.209961	66916.203125
960.053711	66662.132813
958.897461	66855.812500
957.741211	67457.062500
956.584961	67045.460938
955.427734	67150.734375
954.270508	67587.781250
953.113281	66743.835938
951.956055	66425.031250
950.797852	66595.390625
949.639648	66480.281250
948.481445	66455.437500
947.323242	66141.101563
946.165039	66101.640625
945.005859	66064.289063
943.847656	65926.312500
942.687500	65547.304688
941.528320	66054.992188
940.369141	65862.593750
939.208984	65846.257813
938.048828	66326.367188
936.888672	65635.570313
935.728516	65985.710938
934.567383	66038.437500
933.406250	66444.882813
932.245117	66202.414063
931.083984	65872.156250
929.922852	66439.484375
928.760742	66577.812500
927.598633	66550.890625
926.436523	66873.140625
925.274414	67101.195313
924.111328	66840.093750
922.948242	67036.718750
921.785156	67279.234375
920.622070	66859.476563
919.458984	67427.734375
918.294922	68227.570313
917.130859	68179.476563
915.966797	68114.703125
914.802734	68049.945313
913.637695	68884.531250
912.472656	68901.015625
911.307617	68644.242188
910.142578	69246.765625
908.977539	69196.445313
907.811523	69742.343750
906.645508	69641.921875
905.479492	69608.210938
904.313477	69243.234375
903.146484	69782.468750
901.980469	69271.796875
900.813477	69077.828125
899.646484	68977.617188
898.478516	68658.875000
897.311523	68602.476563
896.143555	68604.359375
894.975586	68229.679688
893.806641	68079.781250
892.638672	67917.453125
891.469727	68499.570313
890.300781	68632.421875
889.131836	69072.843750
887.962891	68536.382813
886.792969	68741.867188
885.623047	68066.476563
884.453125	68728.898438
883.283203	68691.265625
882.112305	68547.757813
880.942383	68728.125000
879.771484	68997.664063
878.600586	69240.125000
877.428711	69681.664063
876.257813	70315.945313
875.085938	70601.570313
873.914063	70845.617188
872.741211	70847.015625
871.569336	70493.968750
870.396484	70787.625000
869.223633	70685.429688
868.050781	70989.289063
866.877930	71104.562500
865.704102	71416.515625
864.530273	72067.898438
863.356445	72218.085938
862.182617	73303.710938
861.007813	74030.937500
859.833984	73578.617188
858.659180	73571.195313
857.484375	73840.898438
856.308594	73647.320313
855.133789	73199.531250
853.958008	72741.562500
852.782227	72856.210938
851.605469	72317.890625
850.429688	72164.015625
849.252930	72402.625000
848.076172	72715.484375
846.899414	72623.546875
845.722656	72764.914063
844.544922	73477.921875
843.367188	72859.679688
842.189453	73046.296875
841.011719	73581.453125
839.833008	73998.851563
838.655273	74921.289063
837.476563	75066.140625
836.296875	75346.976563
835.118164	75943.015625
833.938477	75885.664063
832.758789	74946.593750
831.579102	75083.054688
830.399414	74029.156250
829.219727	73966.007813
828.039063	72818.007813
826.858398	72368.156250
825.677734	71955.515625
824.496094	70878.468750
823.315430	70735.718750
822.133789	70599.195313
820.952148	70579.921875
819.769531	69707.453125
818.587891	69836.343750
817.405273	70160.421875
816.222656	69551.515625
815.040039	69980.289063
813.856445	69519.523438
812.673828	69535.367188
811.490234	69315.078125
810.305664	69675.820313
809.122070	69287.281250
807.938477	69861.304688
806.753906	70186.867188
805.569336	70489.726563
804.383789	71231.382813
803.199219	71162.781250
802.013672	71198.765625
800.828125	70781.726563
799.642578	69778.703125
798.457031	69163.312500
797.270508	68765.312500
796.083984	68099.132813
794.897461	68012.750000
793.710938	67394.046875
792.523438	67350.812500
791.336914	67307.585938
790.149414	66869.429688
788.961914	66852.898438
787.773438	66398.617188
786.585938	66952.804688
785.397461	66339.164063
784.208984	66439.273438
783.019531	66377.859375
781.831055	66005.820313
780.641602	65834.164063
779.452148	65519.558594
778.262695	65862.773438
777.072266	65572.781250
775.882813	65570.796875
774.692383	65991.375000
773.501953	65548.437500
772.310547	65621.945313
771.120117	65479.152344
769.928711	65626.078125
768.737305	65666.890625
767.544922	65856.546875
766.353516	65717.882813
765.161133	66306.976563
763.968750	66484.164063
762.776367	66663.328125
761.583984	66860.750000
760.390625	67251.601563
759.197266	67316.468750
758.003906	67755.953125
756.810547	67448.148438
755.616211	67803.984375
754.421875	67524.773438
753.227539	67902.835938
752.033203	67564.710938
750.838867	67133.156250
749.643555	67732.718750
748.448242	67596.078125
747.252930	66313.039063
746.057617	66016.156250
744.861328	66495.585938
743.665039	65934.671875
742.468750	65595.359375
741.272461	65296.789063
740.075195	65272.433594
738.878906	64803.503906
737.681641	65112.109375
736.484375	65000.535156
735.286133	64830.160156
734.087891	64485.390625
732.890625	64666.039063
731.691406	64457.285156
730.493164	64526.359375
729.294922	64433.246094
728.095703	64461.757813
726.896484	64372.734375
725.696289	64233.097656
724.497070	64520.890625
723.296875	64419.746094
722.096680	63895.460938
720.896484	63948.316406
719.696289	63802.800781
718.495117	64264.421875
717.293945	64220.058594
716.092773	64974.742188
714.891602	64096.984375
713.689453	64584.484375
712.487305	64659.359375
711.285156	64994.964844
710.083008	64954.535156
708.880859	65063.644531
707.677734	65075.738281
706.474609	65045.406250
705.271484	65986.453125
704.068359	65927.687500
702.864258	66004.203125
701.660156	65105.816406
700.456055	65553.750000
699.251953	65222.726563
698.046875	65440.503906
696.841797	65742.906250
695.636719	65599.554688
694.431641	65619.554688
693.226563	66103.156250
692.020508	65697.812500
690.814453	65272.464844
689.608398	65449.636719
688.402344	64893.570313
687.195313	64734.429688
685.988281	64420.308594
684.781250	64915.562500
683.574219	64209.042969
682.366211	64329.851563
681.158203	64259.476563
679.950195	64881.105469
678.742188	65144.503906
677.534180	64947.324219
676.325195	64500.921875
675.116211	65009.464844
673.907227	64738.054688
672.697266	64906.781250
671.488281	64567.183594
670.278320	64667.582031
669.068359	65095.273438
667.858398	64424.531250
666.647461	64888.238281
665.436523	64683.417969
664.225586	64671.312500
663.014648	64261.957031
661.802734	64370.285156
660.591797	64618.957031
659.379883	64328.140625
658.167969	64454.429688
656.955078	64352.164063
655.743164	64837.117188
654.530273	64368.140625
653.317383	64414.179688
652.103516	64608.417969
650.890625	65231.128906
649.676758	65160.847656
648.462891	65905.320313
647.249023	66509.414063
646.034180	67365.414063
644.819336	68125.054688
643.604492	68920.414063
642.389648	70069.453125
641.174805	69860.367188
639.958984	69907.257813
638.743164	69580.343750
637.527344	68330.273438
636.311523	67626.140625
635.094727	67451.648438
633.877930	67217.304688
632.661133	66216.226563
631.444336	65321.332031
630.226563	65253.191406
629.008789	64771.941406
627.791016	64931.402344
626.573242	64546.152344
625.355469	64514.101563
624.136719	64484.050781
622.917969	64200.781250
621.699219	64523.656250
620.480469	64334.160156
619.260742	64232.414063
618.041016	64421.597656
616.821289	63674.437500
615.601563	64586.636719
614.380859	64339.542969
613.160156	63899.414063
611.939453	64102.406250
610.718750	64144.109375
609.497070	63668.441406
608.276367	63744.023438
607.054688	63767.863281
605.832031	64173.519531
604.610352	63533.156250
603.387695	63584.843750
602.165039	63612.656250
600.942383	63634.492188
599.719727	63821.226563
598.496094	63521.203125
597.272461	63543.035156
596.048828	63628.402344
594.825195	63546.960938
593.600586	63122.152344
592.375977	63808.871094
591.151367	63465.515625
589.926758	63695.621094
588.701172	63179.851563
587.476563	63554.683594
586.250977	63310.761719
585.024414	63905.464844
583.798828	63772.550781
582.572266	63948.820313
581.345703	63895.191406
580.119141	63685.093750
578.892578	64293.015625
577.665039	64138.359375
576.437500	63651.160156
575.209961	64260.714844
573.982422	63995.320313
572.753906	63844.777344
571.525391	64331.296875
570.296875	64461.605469
569.068359	64534.511719
567.838867	64243.593750
566.610352	64223.601563
565.380859	63802.402344
564.150391	64280.457031
562.920898	64758.324219
561.690430	63851.332031
560.459961	64414.019531
559.229492	64692.156250
557.999023	64632.597656
556.767578	64259.226563
555.536133	64401.058594
554.304688	64572.429688
553.073242	64601.703125
551.840820	64498.812500
550.608398	64443.285156
549.375977	64038.808594
548.143555	63971.554688
546.910156	63849.140625
545.676758	64274.558594
544.443359	64191.531250
543.209961	64348.835938
541.975586	64322.929688
540.742188	64588.437500
539.507813	64418.781250
538.272461	64398.773438
537.038086	64390.574219
535.802734	64189.562500
534.567383	64435.160156
533.332031	64725.894531
532.096680	64908.371094
530.860352	65055.382813
529.624023	65699.648438
528.387695	66127.484375
527.151367	66376.351563
525.914063	66281.320313
524.676758	66094.015625
523.439453	65472.781250
522.202148	65591.984375
520.963867	65320.492188
519.725586	65003.957031
518.487305	65225.210938
517.249023	65001.019531
516.009766	65259.457031
514.771484	64805.875000
513.532227	64436.781250
512.291992	64689.285156
511.052734	64243.898438
509.812500	64016.207031
508.572266	64081.542969
507.332031	64146.875000
506.090820	64212.261719
504.850586	64277.597656
503.609375	64342.984375
502.368164	64408.371094
501.125977	64473.808594
499.884766	64735.582031
498.642578	64564.894531
497.400391	64574.218750
496.157227	65005.957031
494.915039	65374.964844
493.671875	65255.097656
492.428711	65035.593750
491.184570	65152.285156
489.941406	65292.375000
488.697266	65477.339844
487.453125	65285.285156
486.208984	64978.093750
484.963867	65863.890625
483.718750	65367.359375
482.473633	65442.828125
481.228516	65643.148438
479.982422	66106.750000
478.737305	66361.476563
477.491211	66376.234375
476.244141	67122.140625
474.998047	67060.718750
473.750977	67658.078125
472.503906	67797.281250
471.256836	67295.445313
470.009766	67224.289063
468.761719	67599.132813
467.513672	67442.257813
466.265625	67349.687500
465.017578	67547.164063
463.768555	67834.078125
462.519531	67397.085938
461.270508	67676.140625
460.021484	67972.585938
458.771484	68006.390625
457.521484	67779.664063
456.271484	67928.179688
455.021484	68098.007813
453.770508	68524.273438
452.519531	68895.968750
451.268555	69018.890625
450.017578	69518.523438
448.765625	69889.812500
447.514648	70286.195313
446.262695	70789.171875
445.009766	71185.226563
443.757813	71800.367188
442.504883	71895.398438
441.251953	72153.304688
439.999023	70861.789063
438.745117	70708.781250
437.492188	70166.218750
436.238281	69645.171875
434.983398	68618.609375
433.729492	67935.320313
432.474609	67753.945313
431.219727	67876.664063
429.964844	67437.851563
428.709961	67494.757813
427.454102	66941.992188
426.198242	66921.562500
424.942383	66579.984375
423.685547	66745.320313
422.429688	66564.414063
421.172852	66255.960938
419.916016	66442.515625
418.658203	66101.335938
417.401367	66355.484375
416.143555	66066.609375
414.885742	66405.656250
413.626953	66445.210938
412.369141	66366.960938
411.110352	66201.851563
409.851563	66781.890625
408.591797	66487.453125
407.333008	66031.039063
406.073242	66331.039063
404.813477	66279.882813
403.553711	66008.890625
402.292969	66497.664063
401.032227	66033.960938
