#Wave		#Intensity
2001.248047	44215.125000
2000.278320	44032.148438
1999.308594	44335.218750
1998.338867	43793.773438
1997.369141	44214.519531
1996.398438	44312.000000
1995.428711	44316.785156
1994.458008	44101.226563
1993.487305	44358.890625
1992.516602	44203.468750
1991.545898	44263.316406
1990.574219	44228.062500
1989.603516	44315.406250
1988.631836	43862.437500
1987.660156	44044.839844
1986.688477	44657.246094
1985.715820	44304.449219
1984.744141	44161.738281
1983.771484	44613.855469
1982.798828	44176.292969
1981.826172	44670.714844
1980.853516	44745.339844
1979.880859	44248.039063
1978.907227	44083.000000
1977.933594	44339.925781
1976.959961	44736.535156
1975.986328	44823.550781
1975.012695	44668.500000
1974.039063	44910.167969
1973.064453	44755.152344
1972.089844	44782.242188
1971.115234	44460.242188
1970.140625	44582.105469
1969.166016	44863.449219
1968.190430	44970.242188
1967.215820	45166.695313
1966.240234	45034.238281
1965.264648	44906.804688
1964.289063	45287.449219
1963.312500	45239.691406
1962.336914	44823.500000
1961.360352	45029.718750
1960.383789	44745.605469
1959.407227	45160.773438
1958.430664	45202.628906
1957.454102	45353.910156
1956.476563	45171.894531
1955.499023	45034.695313
1954.521484	45496.671875
1953.543945	45284.894531
1952.566406	45463.359375
1951.587891	45711.328125
1950.610352	45325.718750
1949.631836	45727.621094
1948.653320	45520.945313
1947.674805	45863.078125
1946.696289	45683.753906
1945.716797	45437.476563
1944.737305	45523.828125
1943.758789	45205.703125
1942.779297	45495.484375
1941.798828	45643.785156
1940.819336	45573.792969
1939.838867	45831.121094
1938.859375	45637.167969
1937.878906	46236.441406
1936.898438	46201.082031
1935.916992	46433.335938
1934.936523	46165.085938
1933.955078	45899.402344
1932.974609	46020.136719
1931.993164	46220.062500
1931.010742	46499.136719
1930.029297	46216.250000
1929.047852	46081.941406
1928.065430	46685.019531
1927.083008	46538.304688
1926.100586	46292.699219
1925.118164	46423.078125
1924.135742	46365.492188
1923.152344	46705.937500
1922.168945	46660.675781
1921.185547	46867.496094
1920.202148	46940.820313
1919.218750	47090.699219
1918.235352	46845.328125
1917.250977	47170.503906
1916.266602	47167.171875
1915.282227	46852.789063
1914.297852	47093.867188
1913.313477	47431.101563
1912.328125	47092.160156
1911.343750	47434.207031
1910.358398	47633.074219
1909.373047	47373.183594
1908.387695	47488.156250
1907.401367	47605.554688
1906.416016	47436.992188
1905.429688	47285.742188
1904.443359	47580.507813
1903.457031	48156.003906
1902.470703	47906.179688
1901.483398	47360.925781
1900.497070	47428.945313
1899.509766	48279.773438
1898.522461	48094.085938
1897.535156	48048.734375
1896.546875	47735.207031
1895.559570	47886.730469
1894.571289	47745.511719
1893.583008	48137.972656
1892.594727	48412.277344
1891.606445	48674.191406
1890.618164	48107.714844
1889.628906	47944.453125
1888.639648	48373.382813
1887.650391	48099.578125
1886.661133	48636.398438
1885.671875	48534.542969
1884.682617	48444.996094
1883.692383	48600.964844
1882.702148	48373.988281
1881.711914	48900.460938
1880.721680	48648.968750
1879.731445	48721.378906
1878.740234	49178.832031
1877.749023	49062.296875
1876.757813	48913.921875
1875.766602	48858.753906
1874.775391	48953.113281
1873.784180	48993.523438
1872.791992	48933.460938
1871.799805	49123.289063
1870.807617	49648.593750
1869.815430	49049.703125
1868.823242	49232.058594
1867.830078	48985.957031
1866.837891	49537.828125
1865.844727	49330.910156
1864.851563	49713.703125
1863.858398	49533.730469
1862.864258	49867.433594
1861.871094	49442.957031
1860.876953	49869.464844
1859.882813	50119.812500
1858.888672	49961.914063
1857.894531	50082.640625
1856.899414	50073.835938
1855.905273	49879.378906
1854.910156	50073.324219
1853.915039	49886.257813
1852.919922	50058.156250
1851.923828	49858.945313
1850.928711	50350.507813
1849.932617	50539.312500
1848.936523	50906.148438
1847.940430	50575.199219
1846.944336	50768.730469
1845.947266	50562.281250
1844.951172	50699.667969
1843.954102	50783.378906
1842.957031	50940.175781
1841.959961	50865.417969
1840.962891	51195.121094
1839.964844	51171.496094
1838.966797	51259.906250
1837.969727	51031.730469
1836.970703	51499.937500
1835.972656	51634.492188
1834.974609	51416.097656
1833.975586	51321.878906
1832.976563	52025.691406
1831.978516	51678.414063
1830.978516	52299.218750
1829.979492	52012.804688
1828.980469	52227.316406
1827.980469	52154.921875
1826.980469	52315.859375
1825.980469	52209.449219
1824.980469	52746.894531
1823.979492	52735.171875
1822.979492	52512.164063
1821.978516	52383.929688
1820.977539	52707.312500
1819.976563	52455.289063
1818.975586	52550.406250
1817.973633	52097.097656
1816.972656	52577.984375
1815.970703	52435.312500
1814.968750	52945.070313
1813.966797	52266.496094
1812.963867	52766.402344
1811.961914	52160.812500
1810.958984	52304.300781
1809.956055	52561.621094
1808.953125	53194.363281
1807.950195	53051.761719
1806.946289	52468.441406
1805.943359	52708.593750
1804.939453	54016.300781
1803.935547	52898.175781
1802.930664	52857.386719
1801.926758	53140.847656
1800.922852	53131.476563
1799.917969	52846.363281
1798.913086	53352.160156
1797.908203	53509.589844
1796.903320	53328.507813
1795.897461	53357.773438
1794.891602	53691.531250
1793.886719	54138.734375
1792.880859	53817.539063
1791.874023	54105.140625
1790.868164	53506.339844
1789.862305	53801.132813
1788.855469	54397.585938
1787.848633	54810.386719
1786.841797	54414.589844
1785.833984	54327.777344
1784.827148	54318.187500
1783.819336	53987.804688
1782.812500	54429.242188
1781.804688	54626.992188
1780.795898	54974.136719
1779.788086	55130.742188
1778.779297	54460.703125
1777.771484	54937.796875
1776.762695	54916.054688
1775.753906	55106.269531
1774.744141	55007.437500
1773.735352	55067.550781
1772.725586	55373.183594
1771.715820	54882.023438
1770.706055	55161.109375
1769.696289	55052.718750
1768.686523	55723.785156
1767.675781	55237.714844
1766.666016	55687.265625
1765.655273	55812.070313
1764.644531	56246.937500
1763.632813	55972.617188
1762.622070	56308.769531
1761.610352	55875.953125
1760.598633	56850.992188
1759.586914	56533.515625
1758.575195	56405.855469
1757.563477	56720.015625
1756.550781	56621.171875
1755.538086	57230.390625
1754.525391	57057.093750
1753.512695	57274.937500
1752.500000	57101.691406
1751.486328	57398.593750
1750.473633	57654.621094
1749.459961	57608.464844
1748.446289	57909.906250
1747.432617	58172.890625
1746.417969	58208.132813
1745.404297	58801.597656
1744.389648	58386.367188
1743.375000	58917.316406
1742.360352	58638.699219
1741.344727	59047.308594
1740.330078	59518.003906
1739.314453	59622.355469
1738.298828	60169.351563
1737.283203	60012.765625
1736.267578	60317.898438
1735.251953	60759.242188
1734.235352	60946.960938
1733.218750	61160.910156
1732.202148	61907.832031
1731.185547	62123.917969
1730.168945	62332.757813
1729.151367	62758.929688
1728.133789	63213.609375
1727.117188	63861.574219
1726.098633	64308.730469
1725.081055	65008.792969
1724.063477	65288.492188
1723.044922	65317.503906
1722.026367	65489.671875
1721.007813	66387.031250
1719.989258	65986.476563
1718.970703	66568.617188
1717.951172	67396.156250
1716.931641	67775.195313
1715.912109	67803.710938
1714.892578	67889.414063
1713.873047	68439.718750
1712.853516	68229.859375
1711.833008	68394.031250
1710.812500	68867.742188
1709.791992	68150.742188
1708.771484	68002.976563
1707.750000	67990.921875
1706.729492	68116.906250
1705.708008	68580.710938
1704.686523	67881.039063
1703.665039	68123.507813
1702.642578	67852.226563
1701.621094	67578.648438
1700.598633	67958.921875
1699.576172	67973.023438
1698.553711	67583.117188
1697.531250	67217.117188
1696.507813	67433.250000
1695.485352	67566.179688
1694.461914	67221.742188
1693.438477	67145.710938
1692.415039	67383.062500
1691.390625	67447.070313
1690.367188	66853.703125
1689.342773	66706.609375
1688.318359	67667.382813
1687.293945	67228.460938
1686.269531	67048.164063
1685.244141	67259.140625
1684.218750	66820.515625
1683.194336	67254.242188
1682.168945	67192.546875
1681.142578	67481.523438
1680.117188	67580.882813
1679.090820	67360.468750
1678.064453	67080.929688
1677.038086	67689.335938
1676.011719	67071.328125
1674.985352	67111.492188
1673.958008	67215.531250
1672.931641	67423.625000
1671.904297	67371.445313
1670.876953	66936.140625
1669.848633	67650.203125
1668.821289	68014.101563
1667.792969	67489.078125
1666.764648	67746.523438
1665.736328	67391.859375
1664.708008	67798.062500
1663.679688	67682.093750
1662.650391	67901.515625
1661.621094	67835.148438
1660.591797	67962.390625
1659.562500	67957.398438
1658.533203	68285.171875
1657.502930	68129.109375
1656.472656	67989.609375
1655.442383	68522.406250
1654.412109	68510.226563
1653.381836	68288.203125
1652.351563	68806.507813
1651.320313	68313.429688
1650.289063	69187.398438
1649.257813	68630.812500
1648.226563	68517.312500
1647.194336	68987.992188
1646.163086	68549.476563
1645.130859	69314.304688
1644.098633	68941.796875
1643.066406	68870.695313
1642.033203	69771.539063
1641.000977	69705.015625
1639.967773	69694.976563
1638.934570	69974.242188
1637.901367	69834.804688
1636.868164	69972.867188
1635.833984	70134.382813
1634.800781	70084.304688
1633.766602	70946.031250
1632.732422	70519.890625
1631.697266	70660.039063
1630.663086	71366.179688
1629.627930	71428.632813
1628.593750	71725.843750
1627.558594	71194.289063
1626.522461	72681.390625
1625.487305	73015.765625
1624.451172	72948.804688
1623.416016	73407.335938
1622.379883	73732.007813
1621.343750	74638.109375
1620.306641	75379.773438
1619.270508	76414.187500
1618.233398	77947.437500
1617.196289	78674.046875
1616.159180	80630.406250
1615.122070	83211.507813
1614.083984	84400.500000
1613.046875	86827.796875
1612.008789	87484.265625
1610.970703	88287.968750
1609.932617	88995.421875
1608.893555	88998.296875
1607.855469	88533.250000
1606.816406	87357.273438
1605.777344	85473.078125
1604.738281	83980.046875
1603.698242	82389.351563
1602.659180	81243.335938
1601.619141	79137.203125
1600.579102	78695.500000
1599.539063	77219.007813
1598.499023	76763.781250
1597.458008	76047.148438
1596.417969	75412.492188
1595.376953	75226.296875
1594.335938	74456.632813
1593.294922	74578.710938
1592.252930	73408.101563
1591.210938	73005.421875
1590.169922	73624.507813
1589.127930	73228.921875
1588.084961	72821.820313
1587.042969	73372.992188
1586.000000	72814.500000
1584.958008	72442.640625
1583.915039	72511.265625
1582.872070	72496.007813
1581.828125	73007.132813
1580.785156	73348.078125
1579.741211	72873.992188
1578.697266	73459.265625
1577.653320	73374.007813
1576.609375	74180.046875
1575.564453	74606.554688
1574.520508	75023.593750
1573.475586	75205.578125
1572.430664	75431.679688
1571.384766	75197.343750
1570.339844	75616.296875
1569.293945	75832.890625
1568.249023	75563.742188
1567.202148	74827.703125
1566.156250	74665.679688
1565.110352	74090.304688
1564.063477	74262.843750
1563.017578	73502.007813
1561.970703	73066.414063
1560.922852	72988.382813
1559.875977	72949.828125
1558.829102	72384.640625
1557.781250	73506.000000
1556.733398	72954.820313
1555.685547	72944.109375
1554.636719	72402.492188
1553.588867	72016.375000
1552.540039	71767.125000
1551.491211	71884.062500
1550.442383	71799.398438
1549.393555	71758.781250
1548.344727	71817.750000
1547.294922	71260.789063
1546.245117	71280.460938
1545.195313	71378.828125
1544.145508	71636.835938
1543.094727	70976.171875
1542.044922	70648.859375
1540.994141	71020.195313
1539.943359	71113.875000
1538.892578	70900.007813
1537.840820	70411.117188
1536.790039	70525.648438
1535.738281	70256.531250
1534.686523	70036.023438
1533.634766	70182.898438
1532.583008	70068.726563
1531.530273	69675.164063
1530.477539	69346.390625
1529.424805	69484.039063
1528.372070	69430.070313
1527.319336	69380.726563
1526.265625	69467.531250
1525.212891	69471.250000
1524.159180	68490.148438
1523.105469	68966.757813
1522.051758	68924.445313
1520.997070	69108.054688
1519.942383	69185.570313
1518.888672	68555.640625
1517.833984	69142.382813
1516.778320	68588.687500
1515.723633	68627.085938
1514.667969	68531.906250
1513.612305	68020.054688
1512.556641	68958.539063
1511.500977	68950.796875
1510.445313	68616.312500
1509.388672	68742.062500
1508.332031	68364.023438
1507.275391	68763.445313
1506.218750	68997.164063
1505.162109	69194.015625
1504.104492	69547.093750
1503.047852	69242.781250
1501.990234	69207.398438
1500.931641	69087.031250
1499.874023	69113.703125
1498.816406	69891.320313
1497.757813	69855.835938
1496.699219	69622.937500
1495.640625	69234.046875
1494.582031	69251.476563
1493.522461	69009.625000
1492.462891	69570.765625
1491.403320	69232.601563
1490.343750	69626.093750
1489.284180	69297.210938
1488.224609	69601.140625
1487.164063	69173.820313
1486.103516	69947.421875
1485.042969	69827.203125
1483.982422	69626.843750
1482.920898	69877.750000
1481.860352	69773.625000
1480.798828	69660.382813
1479.737305	69968.359375
1478.675781	70246.476563
1477.613281	70325.414063
1476.550781	69900.984375
1475.489258	70480.898438
1474.426758	70196.101563
1473.363281	70853.492188
1472.300781	70619.023438
1471.237305	70942.367188
1470.174805	70602.828125
1469.111328	71241.390625
1468.046875	70707.718750
1466.983398	71384.859375
1465.919922	71155.093750
1464.855469	71797.640625
1463.791016	71773.343750
1462.726563	72299.140625
1461.661133	72160.648438
1460.596680	71862.484375
1459.531250	72730.171875
1458.465820	72557.453125
1457.400391	72309.539063
1456.334961	72469.843750
1455.268555	73003.953125
1454.202148	72949.820313
1453.135742	73253.476563
1452.069336	73438.554688
1451.002930	73097.328125
1449.935547	73762.929688
1448.869141	73660.875000
1447.801758	73588.445313
1446.734375	73782.382813
1445.666016	73992.179688
1444.598633	74841.328125
1443.530273	74468.406250
1442.461914	75014.617188
1441.393555	74530.351563
1440.325195	75110.460938
1439.256836	75594.867188
1438.187500	76240.492188
1437.118164	76976.781250
1436.048828	77033.390625
1434.979492	77351.242188
1433.909180	76878.500000
1432.839844	77602.789063
1431.769531	77779.570313
1430.699219	77706.562500
1429.627930	78652.742188
1428.557617	78277.765625
1427.486328	78551.859375
1426.416016	78558.148438
1425.343750	78199.257813
1424.272461	78087.679688
1423.201172	78012.414063
1422.128906	77955.312500
1421.056641	78242.750000
1419.984375	77949.937500
1418.912109	78309.773438
1417.839844	77708.953125
1416.766602	77661.000000
1415.693359	77751.195313
1414.620117	78131.171875
1413.546875	77616.828125
1412.473633	77390.109375
1411.399414	77548.164063
1410.325195	77513.851563
1409.250977	77407.156250
1408.176758	77764.140625
1407.102539	78283.812500
1406.027344	78267.460938
1404.952148	78337.007813
1403.876953	78639.320313
1402.801758	78783.343750
1401.726563	78780.453125
1400.650391	78425.179688
1399.574219	78986.968750
1398.498047	78979.148438
1397.421875	78971.320313
1396.345703	78963.500000
1395.268555	78955.671875
1394.191406	78947.835938
1393.114258	78940.007813
1392.037109	78587.453125
1390.959961	79418.992188
1389.881836	79722.617188
1388.804688	79591.023438
1387.726563	79966.625000
1386.647461	80378.140625
1385.569336	80649.812500
1384.491211	81416.984375
1383.412109	81996.937500
1382.333008	81702.914063
1381.253906	83273.273438
1380.173828	82853.062500
1379.094727	82219.179688
1378.014648	83104.492188
1376.934570	82513.531250
1375.854492	83279.234375
1374.773438	82634.468750
1373.693359	82351.976563
1372.612305	82366.359375
1371.531250	81708.609375
1370.450195	81428.671875
1369.369141	81517.351563
1368.287109	80201.828125
1367.205078	80331.125000
1366.123047	80390.750000
1365.041016	79493.781250
1363.958984	79679.250000
1362.875977	78681.718750
1361.793945	78831.359375
1360.710938	78202.320313
1359.626953	78385.632813
1358.543945	78046.250000
1357.460938	77944.703125
1356.376953	77428.382813
1355.292969	77212.648438
1354.208984	77304.054688
1353.124023	77243.039063
1352.040039	77056.570313
1350.955078	77403.335938
1349.870117	77109.390625
1348.785156	76947.671875
1347.700195	76732.265625
1346.614258	76568.429688
1345.528320	76514.320313
1344.442383	76498.265625
1343.356445	76403.906250
1342.270508	76723.414063
1341.183594	76660.351563
1340.096680	76275.304688
1339.009766	76453.804688
1337.922852	76549.523438
1336.835938	76055.187500
1335.748047	76559.859375
1334.661133	76671.140625
1333.573242	76706.429688
1332.484375	76694.804688
1331.396484	75948.546875
1330.307617	76772.015625
1329.219727	76521.539063
1328.130859	76393.890625
1327.041992	76375.625000
1325.952148	75864.328125
1324.863281	76834.265625
1323.773438	76635.281250
1322.683594	76543.382813
1321.593750	76975.406250
1320.502930	76509.023438
1319.413086	76165.375000
1318.322266	76247.406250
1317.231445	76596.734375
1316.140625	76255.468750
1315.048828	76604.664063
1313.958008	76642.562500
1312.866211	76680.500000
1311.774414	76718.437500
1310.682617	76756.367188
1309.589844	76794.335938
1308.498047	76832.273438
1307.405273	76870.242188
1306.312500	77407.796875
1305.218750	77284.851563
1304.125977	77653.195313
1303.032227	77985.851563
1301.939453	77765.085938
1300.845703	77997.617188
1299.750977	78665.421875
1298.657227	79179.742188
1297.562500	78834.562500
1296.467773	80147.875000
1295.373047	80126.710938
1294.278320	80538.296875
1293.183594	80714.531250
1292.087891	80859.648438
1290.992188	81725.562500
1289.896484	81158.570313
1288.800781	81019.710938
1287.704102	80138.257813
1286.608398	80380.851563
1285.511719	80321.968750
1284.415039	79485.421875
1283.317383	80009.320313
1282.220703	79133.265625
1281.123047	78939.562500
1280.025391	78584.296875
1278.927734	78485.945313
1277.830078	77975.960938
1276.731445	77999.445313
1275.633789	77832.656250
1274.535156	77170.429688
1273.436523	76486.328125
1272.336914	76224.812500
1271.238281	76180.039063
1270.138672	75368.273438
1269.039063	75657.382813
1267.939453	75471.320313
1266.839844	74657.898438
1265.739258	74178.304688
1264.638672	74617.578125
1263.538086	74206.609375
1262.437500	74332.226563
1261.336914	73998.703125
1260.235352	73226.140625
1259.134766	73001.046875
1258.033203	72767.203125
1256.930664	72637.109375
1255.829102	71953.546875
1254.726563	71920.648438
1253.625000	71735.656250
1252.522461	71797.578125
1251.418945	71348.242188
1250.316406	71084.125000
1249.212891	71247.453125
1248.110352	70990.054688
1247.006836	70935.328125
1245.902344	70283.992188
1244.798828	70559.593750
1243.694336	70183.648438
1242.589844	70318.335938
1241.485352	70598.171875
1240.380859	70290.609375
1239.276367	70346.015625
1238.170898	69823.125000
1237.065430	69241.054688
1235.959961	69171.335938
1234.854492	69598.289063
1233.748047	69023.164063
1232.642578	69318.179688
1231.536133	69404.429688
1230.429688	69310.570313
1229.322266	69080.617188
1228.215820	68978.062500
1227.108398	69130.140625
1226.000977	68779.640625
1224.893555	69039.195313
1223.786133	69120.976563
1222.677734	68619.328125
1221.569336	68448.976563
1220.460938	68085.750000
1219.352539	68546.851563
1218.244141	68378.781250
1217.134766	67844.843750
1216.025391	67541.125000
1214.916016	68012.937500
1213.806641	68326.882813
1212.697266	67780.187500
1211.586914	67829.164063
1210.476563	67648.289063
1209.366211	67253.007813
1208.255859	67214.523438
1207.145508	67860.781250
1206.034180	67402.234375
1204.922852	67409.656250
1203.811523	67358.039063
1202.700195	67984.117188
1201.587891	67678.867188
1200.476563	68020.570313
1199.364258	68333.734375
1198.251953	68275.429688
1197.138672	68112.304688
1196.026367	68752.828125
1194.913086	68646.429688
1193.799805	68721.250000
1192.686523	68588.710938
1191.573242	68914.445313
1190.458984	68967.351563
1189.344727	68983.156250
1188.230469	69155.968750
1187.116211	68811.945313
1186.001953	68932.398438
1184.886719	68795.609375
1183.772461	68674.117188
1182.657227	68790.164063
1181.541016	68474.820313
1180.425781	68155.234375
1179.309570	68269.132813
1178.193359	67701.476563
1177.077148	67821.937500
1175.960938	67750.820313
1174.844727	66983.359375
1173.727539	66923.289063
1172.610352	66774.046875
1171.493164	66503.062500
1170.375977	67302.046875
1169.257813	66489.695313
1168.139648	66234.125000
1167.022461	65943.859375
1165.903320	66257.781250
1164.785156	65765.570313
1163.666992	65760.101563
1162.547852	65665.585938
1161.428711	65716.578125
1160.309570	65593.882813
1159.189453	65605.796875
1158.070313	65268.304688
1156.950195	65748.945313
1155.830078	64940.789063
1154.709961	65414.800781
1153.588867	64706.750000
1152.468750	65048.363281
1151.347656	64702.656250
1150.226563	64658.339844
1149.104492	64822.074219
1147.983398	65022.578125
1146.861328	65145.019531
1145.739258	65243.589844
1144.617188	64926.359375
1143.495117	64966.472656
1142.372070	65240.347656
1141.250000	65310.683594
1140.126953	66049.625000
1139.003906	66024.585938
1137.879883	66032.000000
1136.756836	65959.390625
1135.632813	66539.812500
1134.508789	66484.429688
1133.384766	66167.523438
1132.259766	66032.257813
1131.135742	65994.273438
1130.010742	65573.921875
1128.885742	66013.367188
1127.759766	65606.117188
1126.634766	65652.429688
1125.508789	65653.390625
1124.382813	64434.890625
1123.256836	65120.136719
1122.130859	64849.332031
1121.003906	64882.785156
1119.877930	64920.535156
1118.750977	64492.496094
1117.624023	64663.968750
1116.496094	64531.437500
1115.369141	64442.058594
1114.241211	63844.179688
1113.113281	63627.843750
1111.985352	63491.281250
1110.856445	63460.292969
1109.728516	63194.613281
1108.599609	63719.109375
1107.470703	63081.105469
1106.340820	62972.730469
1105.211914	63264.597656
1104.082031	62775.449219
1102.952148	63144.671875
1101.822266	63240.644531
1100.692383	62762.515625
1099.561523	63114.332031
1098.431641	62885.707031
1097.300781	62801.144531
1096.169922	62430.855469
1095.038086	62602.023438
1093.907227	62597.011719
1092.775391	62433.101563
1091.643555	62586.988281
1090.511719	61459.339844
1089.378906	61868.734375
1088.246094	62037.656250
1087.114258	61048.023438
1085.980469	61015.398438
1084.847656	61478.179688
1083.714844	61012.359375
1082.581055	60793.242188
1081.447266	61024.316406
1080.313477	60794.558594
1079.179688	60946.265625
1078.044922	60999.371094
1076.910156	60930.371094
1075.775391	60964.183594
1074.640625	60282.875000
1073.505859	60526.570313
1072.370117	60900.726563
1071.234375	60887.429688
1070.098633	60294.343750
1068.962891	60734.640625
1067.826172	60317.164063
1066.690430	60421.582031
1065.553711	60652.089844
1064.416992	60940.226563
1063.279297	60362.726563
1062.142578	60798.238281
1061.004883	60182.511719
1059.867188	60229.152344
1058.729492	60017.371094
1057.590820	60113.128906
1056.453125	60095.703125
1055.314453	59922.472656
1054.175781	59508.164063
1053.037109	60425.363281
1051.897461	60388.687500
1050.757813	59865.738281
1049.618164	59703.359375
1048.478516	59466.414063
1047.338867	59523.718750
1046.199219	59655.593750
1045.058594	59576.464844
1043.917969	59942.628906
1042.777344	59588.691406
1041.635742	59079.414063
1040.495117	59364.542969
1039.353516	59070.507813
1038.211914	58450.914063
1037.069336	59229.718750
1035.927734	58984.800781
1034.785156	59067.578125
1033.642578	58597.316406
1032.500000	58280.335938
1031.357422	58490.757813
1030.213867	58539.542969
1029.071289	58394.898438
1027.927734	58739.050781
1026.783203	58634.781250
1025.639648	58466.824219
1024.495117	58521.925781
1023.351563	58371.031250
1022.207031	58568.371094
1021.061523	58434.500000
1019.916992	58385.566406
1018.771484	58659.171875
1017.625977	58262.289063
1016.480469	58264.308594
1015.334961	58597.160156
1014.188477	58219.578125
1013.041992	58240.679688
1011.895508	58168.511719
1010.749023	58403.644531
1009.602539	57956.449219
1008.455078	57691.589844
1007.307617	57979.621094
1006.160156	58134.136719
1005.012695	58354.226563
1003.864258	58203.789063
1002.716797	58533.832031
1001.568359	58620.410156
1000.419922	59320.484375
999.270508	59417.457031
998.122070	59810.468750
996.972656	59598.593750
995.823242	59382.566406
994.673828	59092.636719
993.523438	59358.613281
992.373047	59034.980469
991.222656	59218.476563
990.072266	59190.683594
988.921875	59247.371094
987.771484	58947.210938
986.620117	59394.449219
985.468750	59318.089844
984.317383	59161.570313
983.165039	58880.628906
982.013672	59196.750000
980.861328	59453.703125
979.708984	59314.132813
978.555664	59320.082031
977.403320	59222.738281
976.250000	59036.914063
975.096680	59761.421875
973.943359	59093.125000
972.790039	59343.425781
971.635742	58928.160156
970.481445	59098.386719
969.327148	58872.777344
968.172852	59055.570313
967.018555	58901.597656
965.863281	59124.289063
964.708008	58945.109375
963.552734	58273.839844
962.397461	58521.753906
961.241211	58962.996094
960.084961	58575.863281
958.929688	58766.832031
957.772461	59205.675781
956.616211	58459.453125
955.458984	59009.511719
954.301758	58815.925781
953.144531	58752.589844
951.987305	58271.507813
950.830078	58514.738281
949.671875	58411.613281
948.513672	58044.156250
947.355469	58027.160156
946.196289	57886.421875
945.038086	58301.441406
943.878906	58359.878906
942.719727	58057.738281
941.560547	57946.425781
940.400391	57732.476563
939.241211	57568.886719
938.081055	58182.488281
936.919922	58023.058594
935.759766	58064.703125
934.599609	58340.804688
933.438477	58208.636719
932.277344	58710.625000
931.116211	58203.894531
929.954102	58322.859375
928.791992	58142.671875
927.630859	58221.863281
926.467773	59011.910156
925.305664	58605.921875
924.143555	58885.621094
922.980469	59298.957031
921.817383	59359.042969
920.654297	59327.195313
919.490234	59324.593750
918.327148	59818.968750
917.163086	59968.679688
915.999023	60304.109375
914.833984	60311.753906
913.669922	61051.789063
912.504883	60491.835938
911.339844	60714.273438
910.174805	61055.496094
909.008789	62088.832031
907.843750	61802.183594
906.677734	61582.335938
905.511719	61923.132813
904.345703	61745.007813
903.178711	61688.316406
902.011719	61631.625000
900.844727	61574.933594
899.677734	61518.242188
898.510742	61123.855469
897.342773	61141.695313
896.174805	61003.460938
895.006836	60717.562500
893.838867	60423.449219
892.670898	59755.101563
891.501953	60255.554688
890.333008	60516.746094
889.164063	60033.734375
887.994141	59823.128906
886.825195	60294.101563
885.655273	60006.656250
884.485352	59667.394531
883.315430	60092.441406
882.144531	59852.937500
880.973633	59796.195313
879.803711	60237.578125
878.631836	60577.117188
877.460938	60715.281250
876.289063	60724.789063
875.118164	60464.679688
873.945313	60917.957031
872.773438	60873.511719
871.601563	60882.968750
870.428711	60861.335938
869.255859	60603.503906
868.083008	60729.007813
866.910156	60962.167969
865.736328	61141.394531
864.562500	61355.750000
863.388672	61696.300781
862.214844	61962.210938
861.040039	62439.089844
859.866211	62439.937500
858.691406	62430.437500
857.516602	62336.148438
856.340820	61720.808594
855.166016	61626.679688
853.990234	61635.929688
852.814453	61827.039063
851.637695	61191.578125
850.461914	61527.300781
849.285156	61265.972656
848.108398	61896.859375
846.931641	61782.152344
845.754883	62053.511719
844.577148	62240.148438
843.399414	62496.871094
842.221680	62949.496094
841.043945	63566.976563
839.865234	64217.222656
838.687500	64374.402344
837.508789	65238.660156
836.329102	66283.992188
835.150391	66191.320313
833.970703	65857.601563
832.791992	65730.023438
831.611328	64685.902344
830.431641	63916.062500
829.251953	63488.292969
828.071289	62968.039063
826.890625	62340.953125
825.709961	61749.078125
824.528320	61747.906250
823.347656	60909.507813
822.166016	61107.984375
820.984375	60191.875000
819.801758	60264.992188
818.620117	60134.585938
817.437500	59767.878906
816.254883	59187.613281
815.072266	59287.558594
813.888672	59216.984375
812.706055	59043.753906
811.522461	58620.085938
810.338867	58915.074219
809.154297	58776.878906
807.970703	58378.117188
806.786133	58484.218750
805.601563	58450.789063
804.416992	58113.832031
803.231445	58408.570313
802.045898	58323.910156
800.861328	58007.652344
799.674805	57832.917969
798.489258	57281.218750
797.302734	57096.437500
796.117188	57210.773438
794.930664	56958.484375
793.743164	56939.707031
792.556641	56853.378906
791.369141	56292.230469
790.181641	55989.128906
788.994141	56199.687500
787.805664	55804.660156
786.618164	55240.023438
785.429688	56082.460938
784.241211	55556.820313
783.052734	54747.242188
781.863281	54857.636719
780.673828	54657.402344
779.484375	55251.953125
778.294922	54814.773438
777.105469	54259.308594
775.915039	53942.941406
774.724609	53751.214844
773.534180	53998.386719
772.343750	54076.085938
771.152344	53751.816406
769.960938	53639.816406
768.769531	54188.667969
767.578125	53999.136719
766.385742	54213.351563
765.194336	54082.992188
764.001953	54321.562500
762.808594	54362.390625
761.616211	55201.808594
760.422852	54731.191406
759.230469	55264.750000
758.037109	54985.687500
756.842773	55445.703125
755.649414	55899.441406
754.455078	55461.683594
753.260742	55848.101563
752.066406	55296.589844
750.871094	55304.593750
749.676758	55418.332031
748.481445	55068.476563
747.286133	54643.542969
746.089844	54537.839844
744.894531	53950.597656
743.698242	54285.914063
742.501953	53601.433594
741.304688	54123.519531
740.108398	53207.851563
738.911133	53630.335938
737.713867	53359.960938
736.516602	53089.582031
735.319336	52819.207031
734.121094	52584.187500
732.922852	52085.593750
731.724609	52004.906250
730.526367	52633.843750
729.327148	52366.593750
728.127930	52283.867188
726.928711	52276.140625
725.729492	52031.382813
724.530273	51821.148438
723.330078	51604.914063
722.129883	51560.863281
720.929688	52128.195313
719.728516	51756.167969
718.528320	51940.781250
717.327148	52012.015625
716.125977	51338.800781
714.923828	51681.136719
713.722656	51681.597656
712.520508	51698.234375
711.318359	51925.082031
710.116211	51773.917969
708.913086	51473.285156
707.710938	51772.769531
706.507813	51876.214844
705.304688	51240.484375
704.100586	51269.277344
702.897461	51566.550781
701.693359	51671.964844
700.489258	51230.464844
699.284180	51261.246094
698.080078	51501.804688
696.875000	51478.066406
695.669922	51422.066406
694.464844	51333.832031
693.258789	51302.066406
692.053711	51778.175781
690.847656	51482.375000
689.641602	51658.093750
688.434570	51874.031250
687.228516	51681.074219
686.021484	51441.878906
684.814453	51768.445313
683.607422	52229.742188
682.399414	51712.867188
681.191406	51542.242188
679.983398	51997.277344
678.775391	51547.101563
677.567383	51750.609375
676.358398	52386.281250
675.149414	51958.390625
673.940430	51976.804688
672.730469	52264.460938
671.521484	52049.769531
670.311523	51949.648438
669.101563	51570.417969
667.890625	51795.683594
666.680664	51468.816406
665.469727	51535.453125
664.258789	51355.238281
663.047852	51185.121094
661.835938	51019.078125
660.625000	50762.843750
659.413086	50869.640625
658.201172	51134.777344
656.988281	50535.898438
655.776367	50496.375000
654.563477	50474.898438
653.350586	50321.207031
652.136719	50790.484375
650.923828	50448.546875
649.709961	50290.937500
648.496094	50353.582031
647.282227	50368.167969
646.067383	50268.683594
644.852539	50021.183594
643.637695	50287.855469
642.422852	50594.421875
641.208008	50137.039063
639.992188	50267.585938
638.776367	50659.929688
637.560547	50632.449219
636.344727	50393.179688
635.127930	50415.699219
633.911133	50759.773438
632.694336	50498.640625
631.477539	50545.078125
630.259766	50731.226563
629.042969	50354.484375
627.825195	50440.824219
626.606445	50361.539063
625.388672	50497.707031
624.169922	50464.304688
622.951172	50000.218750
621.732422	49948.972656
620.513672	50545.535156
619.293945	50382.605469
618.074219	50175.902344
616.854492	50750.167969
615.634766	50396.078125
614.414063	50008.269531
613.193359	50289.566406
611.972656	50226.382813
610.751953	49854.734375
609.530273	50263.246094
608.309570	49977.273438
607.087891	50433.339844
605.866211	50040.050781
604.643555	49929.250000
603.420898	49834.390625
602.198242	49322.171875
600.975586	49654.714844
599.752930	49446.703125
598.529297	49391.726563
597.305664	49700.226563
596.082031	49645.222656
594.858398	49169.335938
593.633789	49652.375000
592.410156	49258.035156
591.185547	49143.613281
589.959961	49580.750000
588.735352	48990.269531
587.509766	49107.984375
586.284180	49027.378906
585.058594	49053.843750
583.832031	49486.613281
582.606445	48878.859375
581.379883	49289.695313
580.153320	49335.894531
578.925781	49364.250000
577.699219	49683.671875
576.471680	49470.414063
575.244141	49524.453125
574.015625	49388.484375
572.788086	49272.347656
571.559570	49148.339844
570.331055	49435.781250
569.101563	49311.785156
567.873047	49043.503906
566.643555	49188.464844
565.414063	48497.347656
564.184570	49081.039063
562.954102	49322.714844
561.724609	48766.273438
560.494141	48668.222656
559.263672	48951.300781
558.032227	48813.765625
556.800781	48557.851563
555.570313	48418.460938
554.337891	48521.812500
553.106445	48901.300781
551.874023	48460.152344
550.642578	48382.011719
549.409180	48284.179688
548.176758	48282.972656
546.944336	48644.398438
545.710938	48475.628906
544.477539	48310.859375
543.243164	48071.304688
542.009766	48282.816406
540.775391	48297.347656
539.541016	48577.636719
538.306641	48540.929688
537.071289	48826.964844
535.836914	48565.925781
534.601563	48838.074219
533.366211	49271.390625
532.129883	48711.515625
530.894531	48828.160156
529.658203	49023.382813
528.421875	49261.769531
527.184570	48894.867188
525.948242	49239.265625
524.710938	48729.121094
523.473633	49151.968750
522.235352	49005.261719
520.998047	49245.328125
519.759766	49206.601563
518.521484	49387.664063
517.283203	49331.261719
516.043945	49512.230469
514.804688	49604.875000
513.565430	49209.230469
512.326172	49870.425781
511.085938	49917.859375
509.846680	50151.449219
508.606445	49618.835938
507.366211	49766.191406
506.125000	49809.683594
504.883789	49504.585938
503.643555	50072.816406
502.401367	50045.746094
501.160156	49770.128906
499.917969	50091.425781
498.675781	50261.960938
497.433594	49925.812500
496.191406	50659.539063
494.948242	50047.742188
493.705078	50042.199219
492.461914	50245.792969
491.218750	50404.363281
489.975586	50246.355469
488.731445	50426.347656
487.487305	50561.347656
486.242188	50145.632813
484.998047	50630.101563
483.752930	50524.886719
482.507813	50679.277344
481.262695	50829.699219
480.016602	50878.621094
478.771484	50911.914063
477.525391	51266.968750
476.278320	51216.332031
475.032227	51167.664063
473.785156	51181.378906
472.538086	51748.503906
471.291016	51251.648438
470.043945	51668.550781
468.795898	51571.140625
467.547852	51931.351563
466.299805	52073.382813
465.051758	52176.429688
463.802734	52707.570313
462.553711	52907.734375
461.304688	53216.761719
460.055664	52839.093750
458.805664	53072.175781
457.555664	53754.281250
456.305664	53543.890625
455.055664	53918.574219
453.804688	54304.769531
452.553711	54185.695313
451.302734	54725.136719
450.051758	55398.375000
448.799805	55098.582031
447.548828	55994.734375
446.296875	56055.949219
445.043945	56889.480469
443.791992	56907.808594
442.539063	57277.242188
441.286133	56826.136719
440.033203	56443.070313
438.779297	55782.906250
437.526367	55086.164063
436.272461	54102.859375
435.017578	53550.074219
433.763672	53392.699219
432.508789	53035.878906
431.253906	52437.128906
429.999023	52566.593750
428.744141	52490.816406
427.488281	52144.105469
426.232422	51946.523438
424.976563	51954.089844
423.720703	51425.843750
422.463867	51160.816406
421.207031	51673.183594
419.950195	51572.527344
418.693359	51326.941406
417.435547	51782.937500
416.177734	51442.726563
414.919922	51583.648438
413.662109	51550.687500
412.403320	51594.980469
411.144531	51324.554688
409.885742	51567.687500
408.626953	51638.964844
407.367188	51380.253906
406.107422	51555.707031
404.847656	51376.191406
403.587891	51387.656250
402.327148	51094.472656
401.067383	51208.152344
