#Wave		#Intensity
2001.221680	38735.675781
2000.251953	38502.566406
1999.282227	38205.140625
1998.312500	38629.441406
1997.342773	38635.226563
1996.372070	38771.250000
1995.402344	38967.332031
1994.431641	39000.589844
1993.460938	38718.402344
1992.490234	38636.550781
1991.518555	38972.656250
1990.547852	38593.031250
1989.576172	38636.324219
1988.604492	38997.261719
1987.632813	38572.812500
1986.661133	38858.621094
1985.689453	38466.839844
1984.716797	39070.003906
1983.745117	39050.683594
1982.772461	39226.261719
1981.799805	38697.281250
1980.827148	39032.714844
1979.853516	38843.589844
1978.880859	39051.535156
1977.907227	39177.023438
1976.933594	39284.996094
1975.959961	38928.746094
1974.986328	39273.757813
1974.011719	39004.949219
1973.038086	38925.796875
1972.063477	39086.082031
1971.088867	39318.617188
1970.114258	38778.246094
1969.138672	39489.316406
1968.164063	39325.410156
1967.188477	39520.359375
1966.212891	39251.871094
1965.237305	39708.296875
1964.261719	39462.277344
1963.286133	39614.730469
1962.309570	39560.503906
1961.333984	39205.117188
1960.357422	39676.074219
1959.380859	40097.101563
1958.404297	39928.382813
1957.426758	39764.699219
1956.450195	40163.101563
1955.472656	40041.699219
1954.495117	40365.332031
1953.517578	39940.695313
1952.540039	40323.871094
1951.561523	39797.511719
1950.583008	39750.800781
1949.605469	39823.328125
1948.626953	40047.312500
1947.647461	40117.277344
1946.668945	39876.898438
1945.690430	39922.042969
1944.710938	40391.531250
1943.731445	40406.792969
1942.751953	40310.410156
1941.772461	40819.269531
1940.791992	40598.847656
1939.812500	40847.125000
1938.832031	40720.980469
1937.851563	40480.859375
1936.871094	40634.851563
1935.890625	40721.890625
1934.909180	40890.648438
1933.928711	40873.578125
1932.947266	40747.550781
1931.965820	40767.648438
1930.984375	40490.667969
1930.002930	40646.937500
1929.020508	41045.667969
1928.038086	41075.593750
1927.056641	41043.656250
1926.074219	40719.871094
1925.090820	40927.882813
1924.108398	41093.789063
1923.125000	41123.671875
1922.142578	41089.277344
1921.159180	41032.648438
1920.175781	41270.070313
1919.191406	41164.019531
1918.208008	41201.265625
1917.223633	41154.531250
1916.240234	41660.886719
1915.255859	41744.921875
1914.271484	40888.535156
1913.286133	41184.906250
1912.301758	41560.125000
1911.316406	41464.027344
1910.331055	41424.691406
1909.345703	41390.300781
1908.360352	41784.937500
1907.375000	41360.992188
1906.388672	41287.191406
1905.402344	41341.558594
1904.416016	41435.324219
1903.429688	41671.941406
1902.443359	42181.867188
1901.457031	41216.515625
1900.469727	41674.632813
1899.482422	41263.597656
1898.495117	41337.582031
1897.507813	41180.214844
1896.520508	41810.242188
1895.532227	41854.566406
1894.543945	42088.257813
1893.556641	41761.183594
1892.568359	41667.796875
1891.579102	41935.812500
1890.590820	41675.292969
1889.601563	41896.515625
1888.613281	42058.695313
1887.624023	41896.546875
1886.634766	41899.015625
1885.644531	42218.265625
1884.655273	42493.210938
1883.665039	41685.472656
1882.674805	41955.500000
1881.684570	42286.781250
1880.694336	41773.925781
1879.704102	41663.558594
1878.712891	41977.542969
1877.722656	42019.214844
1876.731445	42203.074219
1875.740234	42340.292969
1874.748047	42460.304688
1873.756836	42619.480469
1872.764648	42482.136719
1871.773438	42246.855469
1870.781250	42425.574219
1869.788086	42413.218750
1868.795898	42141.343750
1867.803711	42163.312500
1866.810547	42226.878906
1865.817383	42280.636719
1864.824219	42092.152344
1863.831055	42825.957031
1862.837891	42431.996094
1861.843750	42515.015625
1860.849609	42204.371094
1859.855469	42852.078125
1858.861328	42996.074219
1857.867188	42543.773438
1856.872070	42871.011719
1855.877930	42807.289063
1854.882813	42560.410156
1853.887695	43041.312500
1852.892578	42794.476563
1851.896484	42782.066406
1850.901367	42803.828125
1849.905273	42979.316406
1848.909180	42891.242188
1847.913086	43388.640625
1846.916992	42985.906250
1845.919922	42971.027344
1844.923828	43173.140625
1843.926758	43202.109375
1842.929688	43338.300781
1841.932617	43610.902344
1840.935547	43267.015625
1839.937500	43498.117188
1838.939453	43307.800781
1837.942383	43743.359375
1836.943359	43453.242188
1835.945313	43696.316406
1834.947266	43686.191406
1833.948242	43371.902344
1832.949219	43369.128906
1831.951172	43723.937500
1830.951172	43803.792969
1829.952148	43817.964844
1828.953125	43635.203125
1827.953125	43909.488281
1826.953125	43422.976563
1825.953125	44156.453125
1824.953125	43803.691406
1823.952148	43572.500000
1822.952148	44174.414063
1821.951172	44183.628906
1820.950195	44479.320313
1819.949219	43677.738281
1818.948242	44063.207031
1817.946289	44649.933594
1816.945313	44025.847656
1815.943359	44367.378906
1814.941406	44427.468750
1813.939453	44259.605469
1812.936523	44501.511719
1811.934570	44403.984375
1810.931641	44611.851563
1809.928711	44519.179688
1808.925781	44412.003906
1807.921875	44949.175781
1806.918945	44904.925781
1805.915039	44676.664063
1804.912109	44978.667969
1803.908203	44677.855469
1802.903320	44943.445313
1801.899414	45158.128906
1800.894531	45292.902344
1799.890625	44926.933594
1798.885742	45035.089844
1797.880859	45075.507813
1796.875000	45406.011719
1795.870117	45059.609375
1794.864258	45493.910156
1793.858398	45551.125000
1792.852539	45441.625000
1791.846680	45532.640625
1790.840820	45440.082031
1789.833984	45992.238281
1788.828125	45798.238281
1787.821289	45671.882813
1786.814453	46069.253906
1785.806641	46302.406250
1784.799805	45910.660156
1783.791992	45936.328125
1782.784180	46400.886719
1781.776367	46602.464844
1780.768555	46370.042969
1779.760742	46532.984375
1778.751953	46536.820313
1777.743164	46258.746094
1776.735352	46224.082031
1775.725586	46223.144531
1774.716797	46636.410156
1773.708008	46767.824219
1772.698242	46501.984375
1771.688477	46840.363281
1770.678711	46290.636719
1769.668945	46924.871094
1768.659180	46452.300781
1767.648438	47235.402344
1766.637695	46902.414063
1765.626953	46925.386719
1764.616211	47109.406250
1763.605469	47305.378906
1762.593750	47546.941406
1761.583008	47519.316406
1760.571289	47501.312500
1759.559570	47728.292969
1758.547852	47575.777344
1757.535156	47901.097656
1756.523438	47962.250000
1755.510742	47593.757813
1754.498047	47834.910156
1753.485352	48157.550781
1752.472656	47861.179688
1751.458984	48150.117188
1750.445313	48441.351563
1749.432617	48555.062500
1748.417969	48740.640625
1747.404297	48214.335938
1746.390625	48979.808594
1745.375977	48664.476563
1744.361328	48785.222656
1743.346680	48802.941406
1742.332031	49131.945313
1741.317383	49180.714844
1740.302734	49720.179688
1739.287109	49708.988281
1738.271484	49922.734375
1737.255859	49916.292969
1736.240234	50538.960938
1735.223633	51039.433594
1734.208008	51001.707031
1733.191406	51430.191406
1732.174805	51394.796875
1731.158203	51708.339844
1730.140625	52043.277344
1729.124023	52970.582031
1728.106445	53075.863281
1727.088867	52990.042969
1726.071289	53785.355469
1725.053711	53823.582031
1724.035156	53763.925781
1723.017578	54031.246094
1721.999023	54458.339844
1720.980469	54851.878906
1719.961914	55044.914063
1718.942383	55116.250000
1717.923828	55020.652344
1716.904297	55077.660156
1715.884766	55020.234375
1714.865234	55370.343750
1713.844727	55003.125000
1712.825195	55481.757813
1711.804688	55033.660156
1710.784180	54883.402344
1709.763672	55326.078125
1708.743164	55554.339844
1707.722656	55499.273438
1706.701172	55132.472656
1705.679688	55063.218750
1704.658203	55291.351563
1703.636719	54915.261719
1702.615234	54641.558594
1701.592773	54769.781250
1700.571289	54572.269531
1699.548828	53970.765625
1698.526367	53999.218750
1697.502930	54448.210938
1696.480469	53975.324219
1695.457031	54117.761719
1694.433594	53927.687500
1693.410156	53680.695313
1692.386719	54077.109375
1691.363281	53628.429688
1690.338867	54247.777344
1689.314453	54105.289063
1688.290039	54207.183594
1687.265625	53872.636719
1686.241211	53974.535156
1685.215820	54510.273438
1684.191406	53981.460938
1683.166016	53827.308594
1682.140625	54308.281250
1681.115234	54428.953125
1680.088867	54670.394531
1679.062500	54227.273438
1678.037109	53897.968750
1677.010742	54390.332031
1675.983398	55045.847656
1674.957031	54482.261719
1673.930664	54635.867188
1672.903320	55253.132813
1671.875977	55498.792969
1670.848633	55543.339844
1669.820313	55235.535156
1668.792969	55684.382813
1667.764648	55624.859375
1666.736328	55494.449219
1665.708008	55711.437500
1664.679688	55996.863281
1663.651367	55679.843750
1662.622070	56130.484375
1661.592773	56266.914063
1660.563477	56299.417969
1659.534180	56331.902344
1658.504883	56258.175781
1657.474609	56559.648438
1656.444336	56655.765625
1655.415039	56688.156250
1654.383789	57060.136719
1653.353516	56781.195313
1652.323242	57685.816406
1651.291992	57010.867188
1650.260742	57915.121094
1649.229492	57754.031250
1648.198242	57795.593750
1647.166016	58322.355469
1646.134766	57902.218750
1645.102539	58181.539063
1644.070313	57898.113281
1643.038086	58765.765625
1642.004883	58350.546875
1640.972656	58982.511719
1639.939453	59014.371094
1638.906250	59107.367188
1637.873047	59734.152344
1636.839844	59537.781250
1635.805664	60505.128906
1634.772461	60198.218750
1633.738281	60706.855469
1632.704102	60935.710938
1631.668945	61495.714844
1630.634766	61837.082031
1629.599609	61626.472656
1628.565430	61864.386719
1627.530273	62172.632813
1626.494141	62170.960938
1625.458984	63298.011719
1624.422852	63687.949219
1623.387695	63876.007813
1622.351563	64758.230469
1621.315430	65218.042969
1620.278320	66404.492188
1619.242188	67686.632813
1618.205078	68579.257813
1617.167969	70950.171875
1616.130859	72715.781250
1615.093750	74625.992188
1614.055664	76376.265625
1613.018555	77994.773438
1611.980469	78999.312500
1610.942383	80141.593750
1609.904297	80557.953125
1608.865234	80908.632813
1607.827148	79167.648438
1606.788086	78741.859375
1605.749023	77149.210938
1604.709961	74883.695313
1603.669922	73287.617188
1602.630859	72271.789063
1601.590820	70396.289063
1600.550781	70694.523438
1599.510742	68770.906250
1598.470703	68130.328125
1597.429688	68092.492188
1596.389648	67330.835938
1595.348633	66889.281250
1594.307617	66856.351563
1593.265625	66067.312500
1592.224609	66564.195313
1591.182617	65868.796875
1590.140625	66435.500000
1589.098633	65735.703125
1588.056641	65796.265625
1587.014648	65775.210938
1585.971680	66099.117188
1584.928711	66015.085938
1583.886719	65875.171875
1582.842773	65718.984375
1581.799805	66375.726563
1580.755859	66214.851563
1579.712891	66065.671875
1578.668945	66314.609375
1577.625000	66628.625000
1576.580078	66535.296875
1575.536133	66956.179688
1574.491211	67181.507813
1573.446289	67523.046875
1572.401367	68394.648438
1571.356445	68494.046875
1570.311523	68105.242188
1569.265625	68348.742188
1568.219727	67990.312500
1567.173828	67685.437500
1566.127930	68065.921875
1565.082031	67589.273438
1564.035156	67793.164063
1562.988281	67741.593750
1561.941406	67710.929688
1560.894531	67568.875000
1559.847656	67737.804688
1558.799805	68036.585938
1557.751953	67811.039063
1556.704102	67926.484375
1555.656250	68069.710938
1554.608398	68291.703125
1553.560547	68652.695313
1552.511719	68691.414063
1551.462891	68790.367188
1550.414063	69155.703125
1549.365234	69634.398438
1548.315430	70233.351563
1547.265625	70246.265625
1546.216797	70050.828125
1545.166992	70380.875000
1544.116211	70305.820313
1543.066406	70526.945313
1542.015625	70694.789063
1540.965820	70714.531250
1539.915039	70470.640625
1538.863281	70770.179688
1537.812500	70466.250000
1536.760742	70398.187500
1535.709961	69904.929688
1534.658203	70072.648438
1533.605469	69672.031250
1532.553711	69070.609375
1531.501953	68474.015625
1530.449219	67337.359375
1529.396484	67537.695313
1528.343750	66939.382813
1527.290039	66382.812500
1526.237305	66345.562500
1525.183594	66181.445313
1524.129883	65819.039063
1523.076172	65486.738281
1522.022461	65117.664063
1520.968750	65583.179688
1519.914063	64856.980469
1518.859375	65048.152344
1517.804688	65329.109375
1516.750000	65358.878906
1515.694336	64895.781250
1514.639648	65429.898438
1513.583984	64361.457031
1512.528320	65130.257813
1511.472656	64089.867188
1510.416016	64349.910156
1509.360352	64034.714844
1508.303711	63908.238281
1507.247070	63912.894531
1506.190430	63791.082031
1505.132813	63798.050781
1504.076172	63416.562500
1503.018555	63630.421875
1501.960938	63191.652344
1500.903320	63012.632813
1499.844727	63419.382813
1498.787109	63164.593750
1497.728516	62978.777344
1496.669922	63121.304688
1495.611328	62745.054688
1494.552734	62745.289063
1493.493164	63163.101563
1492.434570	62491.109375
1491.375000	62934.042969
1490.315430	62753.070313
1489.254883	62611.136719
1488.195313	62680.148438
1487.134766	62529.105469
1486.074219	62588.937500
1485.013672	62350.894531
1483.953125	62449.671875
1482.892578	61984.996094
1481.831055	62408.964844
1480.769531	61916.980469
1479.708008	62237.796875
1478.646484	61320.324219
1477.583984	61593.074219
1476.522461	61586.601563
1475.459961	61177.542969
1474.397461	61150.562500
1473.334961	61439.140625
1472.271484	60954.875000
1471.208984	61058.234375
1470.145508	60683.902344
1469.082031	61463.617188
1468.018555	61160.167969
1466.954102	60911.640625
1465.890625	61243.273438
1464.826172	61825.953125
1463.761719	60995.289063
1462.697266	61411.171875
1461.631836	61126.296875
1460.567383	60985.269531
1459.501953	61455.675781
1458.436523	60956.539063
1457.371094	61107.507813
1456.305664	61559.390625
1455.239258	61026.300781
1454.172852	61003.945313
1453.107422	61266.453125
1452.040039	61560.761719
1450.973633	61713.726563
1449.907227	61852.964844
1448.839844	61712.058594
1447.772461	61575.750000
1446.705078	61746.800781
1445.637695	61958.753906
1444.569336	61861.156250
1443.500977	62255.019531
1442.432617	62521.355469
1441.364258	62767.121094
1440.295898	62894.554688
1439.227539	62981.015625
1438.158203	63051.531250
1437.088867	63326.558594
1436.019531	63808.269531
1434.950195	63617.320313
1433.879883	63912.539063
1432.810547	64150.867188
1431.740234	64116.628906
1430.669922	63735.054688
1429.598633	64361.421875
1428.528320	64093.406250
1427.457031	64395.007813
1426.386719	64276.804688
1425.314453	64215.347656
1424.243164	63940.734375
1423.171875	64217.195313
1422.099609	63715.976563
1421.027344	63359.996094
1419.955078	62641.554688
1418.882813	63418.773438
1417.810547	63756.234375
1416.737305	63264.593750
1415.664063	63008.640625
1414.590820	63334.664063
1413.517578	63391.179688
1412.444336	63404.671875
1411.370117	63456.621094
1410.295898	63309.453125
1409.221680	63341.039063
1408.147461	63250.480469
1407.073242	63383.820313
1405.998047	63731.890625
1404.922852	63519.238281
1403.847656	63690.871094
1402.772461	63961.859375
1401.697266	64119.789063
1400.621094	63631.628906
1399.544922	64302.218750
1398.468750	64024.195313
1397.392578	64102.972656
1396.316406	64953.683594
1395.239258	64878.796875
1394.162109	64357.164063
1393.084961	64623.058594
1392.007813	65615.156250
1390.930664	65959.656250
1389.852539	66146.195313
1388.774414	66276.304688
1387.696289	66415.382813
1386.618164	67038.921875
1385.540039	67137.242188
1384.460938	67611.742188
1383.382813	68072.546875
1382.303711	68488.148438
1381.223633	69187.289063
1380.144531	68891.179688
1379.064453	69522.468750
1377.985352	69874.484375
1376.905273	69229.664063
1375.825195	69878.539063
1374.744141	69888.429688
1373.664063	69201.226563
1372.583008	69631.664063
1371.501953	69149.296875
1370.420898	68622.156250
1369.338867	68418.781250
1368.257813	67995.304688
1367.175781	68027.960938
1366.093750	67685.554688
1365.011719	67563.320313
1363.929688	67566.843750
1362.846680	67121.445313
1361.763672	66377.710938
1360.680664	66762.898438
1359.597656	66156.343750
1358.514648	66110.757813
1357.430664	65627.882813
1356.346680	66033.085938
1355.262695	65424.851563
1354.178711	65404.078125
1353.094727	65204.031250
1352.009766	65057.824219
1350.925781	64602.523438
1349.840820	64586.382813
1348.755859	64451.558594
1347.669922	64950.406250
1346.584961	64235.769531
1345.499023	64953.812500
1344.413086	64469.917969
1343.327148	64648.449219
1342.240234	64507.031250
1341.154297	64513.273438
1340.067383	64926.492188
1338.980469	64212.742188
1337.893555	64648.210938
1336.805664	64473.382813
1335.718750	64761.160156
1334.630859	64975.109375
1333.542969	65184.507813
1332.455078	64641.199219
1331.367188	65196.679688
1330.278320	64783.046875
1329.189453	65369.542969
1328.100586	65451.460938
1327.011719	65350.382813
1325.922852	65813.750000
1324.833008	66145.351563
1323.743164	65854.632813
1322.653320	65646.515625
1321.563477	65819.679688
1320.473633	66393.976563
1319.382813	66308.429688
1318.291992	66414.531250
1317.201172	66986.171875
1316.110352	66871.601563
1315.019531	66044.476563
1313.927734	67103.460938
1312.835938	67195.945313
1311.744141	67898.226563
1310.652344	67801.390625
1309.560547	67397.546875
1308.467773	67654.515625
1307.375000	67842.437500
1306.282227	67968.031250
1305.189453	68053.554688
1304.095703	68381.335938
1303.002930	67855.578125
1301.909180	68138.828125
1300.815430	68584.156250
1299.721680	68844.953125
1298.626953	69429.898438
1297.533203	68751.195313
1296.438477	69389.218750
1295.343750	70140.210938
1294.248047	70229.593750
1293.153320	70006.093750
1292.057617	70443.757813
1290.961914	71382.531250
1289.866211	71212.156250
1288.770508	71423.195313
1287.674805	71372.578125
1286.578125	71805.148438
1285.481445	71754.468750
1284.384766	72129.203125
1283.288086	71704.109375
1282.190430	71928.101563
1281.092773	71622.773438
1279.996094	71552.226563
1278.897461	71255.921875
1277.799805	71389.085938
1276.702148	71515.554688
1275.603516	71029.140625
1274.504883	71027.328125
1273.406250	70680.500000
1272.307617	70462.046875
1271.208008	70575.289063
1270.108398	70314.937500
1269.008789	69833.671875
1267.909180	69387.929688
1266.809570	69742.070313
1265.708984	69539.468750
1264.609375	69237.562500
1263.508789	69494.382813
1262.407227	69254.398438
1261.306641	69162.375000
1260.206055	68629.031250
1259.104492	68947.539063
1258.002930	68782.820313
1256.901367	68419.656250
1255.798828	68385.195313
1254.697266	68083.960938
1253.594727	68073.812500
1252.492188	67708.820313
1251.389648	67436.507813
1250.286133	67933.210938
1249.183594	67621.304688
1248.080078	67247.835938
1246.976563	67594.554688
1245.872070	67373.140625
1244.768555	67345.500000
1243.664063	66967.945313
1242.560547	66361.679688
1241.455078	66992.031250
1240.350586	66102.226563
1239.246094	66211.179688
1238.140625	67173.226563
1237.035156	66237.703125
1235.929688	66014.664063
1234.824219	65870.820313
1233.717773	65364.488281
1232.612305	65627.218750
1231.505859	65523.046875
1230.399414	65359.621094
1229.291992	64939.363281
1228.185547	65649.789063
1227.078125	65108.914063
1225.970703	64936.890625
1224.863281	64692.527344
1223.755859	64378.050781
1222.647461	64519.878906
1221.539063	64725.242188
1220.430664	65244.042969
1219.322266	64482.511719
1218.213867	65051.570313
1217.104492	65041.937500
1215.995117	64859.230469
1214.885742	64499.160156
1213.776367	64842.218750
1212.666992	64915.824219
1211.556641	64893.074219
1210.446289	64677.710938
1209.335938	65112.390625
1208.225586	65314.976563
1207.115234	65025.265625
1206.003906	65733.039063
1204.892578	65128.449219
1203.781250	65322.128906
1202.669922	65504.804688
1201.557617	65460.101563
1200.446289	65620.828125
1199.333984	65573.929688
1198.221680	65863.453125
1197.108398	66015.273438
1195.996094	66171.398438
1194.882813	66039.273438
1193.769531	66088.375000
1192.656250	66515.023438
1191.542969	67231.726563
1190.428711	66460.265625
1189.314453	67327.226563
1188.200195	67450.179688
1187.085938	67357.218750
1185.971680	67397.281250
1184.856445	67171.398438
1183.741211	67675.656250
1182.625977	67791.890625
1181.510742	67825.289063
1180.395508	68013.320313
1179.279297	67983.515625
1178.163086	67775.171875
1177.046875	68071.945313
1175.930664	68074.781250
1174.813477	68092.843750
1173.697266	67836.757813
1172.580078	67237.062500
1171.462891	67885.984375
1170.344727	68043.226563
1169.227539	68067.789063
1168.109375	68111.898438
1166.991211	67895.195313
1165.873047	68093.593750
1164.754883	68641.703125
1163.635742	68073.117188
1162.516602	68597.132813
1161.397461	69151.351563
1160.278320	68847.828125
1159.159180	69375.750000
1158.039063	69217.695313
1156.918945	69706.296875
1155.798828	69982.109375
1154.678711	69801.421875
1153.558594	69620.726563
1152.437500	69439.882813
1151.316406	69259.031250
1150.195313	69078.179688
1149.074219	68897.335938
1147.952148	68716.328125
1146.831055	67936.953125
1145.708984	67889.906250
1144.586914	67777.906250
1143.463867	67823.992188
1142.341797	68181.765625
1141.218750	68576.203125
1140.095703	68773.578125
1138.972656	69072.562500
1137.849609	69027.507813
1136.725586	69419.328125
1135.601563	69631.531250
1134.477539	69569.093750
1133.353516	68871.203125
1132.229492	69001.257813
1131.104492	68604.054688
1129.979492	68299.890625
1128.854492	67492.570313
1127.729492	67190.867188
1126.603516	67375.078125
1125.478516	66857.632813
1124.352539	66538.937500
1123.226563	66023.984375
1122.099609	66603.085938
1120.973633	65454.105469
1119.846680	65754.875000
1118.719727	65559.570313
1117.592773	64663.644531
1116.465820	64524.652344
1115.337891	64560.273438
1114.209961	65164.738281
1113.082031	64254.449219
1111.954102	64455.949219
1110.826172	63692.562500
1109.697266	64234.292969
1108.568359	63413.093750
1107.439453	63280.964844
1106.310547	63181.160156
1105.180664	63800.035156
1104.051758	63510.859375
1102.921875	63202.429688
1101.791992	63375.808594
1100.661133	62841.753906
1099.531250	63593.390625
1098.400391	63093.875000
1097.269531	63449.789063
1096.138672	63130.949219
1095.006836	62827.261719
1093.875977	63032.683594
1092.744141	62411.316406
1091.612305	62582.382813
1090.480469	62193.144531
1089.347656	62252.582031
1088.215820	61593.179688
1087.083008	61802.875000
1085.950195	61291.792969
1084.816406	61718.062500
1083.683594	61758.222656
1082.549805	61886.261719
1081.416016	61392.671875
1080.282227	60862.828125
1079.148438	61406.617188
1078.013672	61294.687500
1076.878906	60529.550781
1075.744141	60679.070313
1074.609375	60935.585938
1073.474609	60772.437500
1072.338867	60986.031250
1071.203125	60979.140625
1070.067383	60713.375000
1068.931641	60633.800781
1067.794922	60624.832031
1066.659180	60502.531250
1065.522461	60724.476563
1064.385742	60533.800781
1063.248047	60573.996094
1062.111328	60659.046875
1060.973633	60692.792969
1059.835938	60707.300781
1058.698242	60424.957031
1057.559570	60332.746094
1056.421875	60313.148438
1055.283203	59870.949219
1054.144531	60118.183594
1053.005859	60333.320313
1051.866211	60704.093750
1050.726563	60383.707031
1049.587891	60010.125000
1048.447266	60284.808594
1047.307617	60339.832031
1046.167969	59943.011719
1045.027344	60030.035156
1043.886719	60117.023438
1042.746094	59677.855469
1041.604492	60060.894531
1040.463867	60384.171875
1039.322266	60066.531250
1038.180664	60085.308594
1037.038086	60314.757813
1035.896484	59386.644531
1034.753906	60001.175781
1033.611328	59707.281250
1032.468750	59432.632813
1031.326172	59555.667969
1030.182617	59884.859375
1029.040039	59929.125000
1027.896484	60039.246094
1026.751953	59684.039063
1025.608398	60272.101563
1024.463867	59417.882813
1023.319336	59298.675781
1022.174805	59470.367188
1021.030273	59629.253906
1019.885742	59255.398438
1018.740234	59070.519531
1017.594727	58862.371094
1016.449219	59070.031250
1015.303711	58878.917969
1014.157227	58783.289063
1013.010742	58863.644531
1011.864258	58901.578125
1010.717773	58744.531250
1009.571289	58818.484375
1008.423828	58839.453125
1007.276367	58953.597656
1006.128906	58531.949219
1004.981445	58267.128906
1003.833008	58527.367188
1002.684570	59454.175781
1001.536133	59716.214844
1000.387695	59265.183594
999.239258	59988.273438
998.089844	60197.187500
996.941406	59477.773438
995.791992	59384.382813
994.641602	59379.804688
993.492188	59592.890625
992.341797	59357.960938
991.191406	59205.503906
990.041016	58210.359375
988.890625	58474.175781
987.739258	58913.136719
986.588867	58841.078125
985.437500	58522.105469
984.285156	58467.023438
983.133789	57911.933594
981.981445	58013.074219
980.829102	58263.914063
979.676758	57569.992188
978.524414	57795.519531
977.372070	58406.699219
976.218750	57774.242188
975.065430	57700.394531
973.912109	57700.300781
972.757813	57679.144531
971.604492	57470.570313
970.450195	57369.445313
969.295898	57179.945313
968.141602	57752.429688
966.986328	57432.449219
965.832031	57009.492188
964.676758	57623.757813
963.521484	57089.441406
962.365234	57110.468750
961.209961	57522.535156
960.053711	57272.300781
958.897461	57667.367188
957.741211	57650.437500
956.584961	57690.234375
955.427734	57599.785156
954.270508	57710.972656
953.113281	57620.546875
951.956055	57404.191406
950.797852	57578.316406
949.639648	57764.964844
948.481445	57603.246094
947.323242	56887.769531
946.165039	57741.410156
945.005859	57357.492188
943.847656	57518.839844
942.687500	57759.777344
941.528320	57426.363281
940.369141	56780.847656
939.208984	57017.593750
938.048828	57252.152344
936.888672	57055.199219
935.728516	57440.421875
934.567383	56908.535156
933.406250	57605.519531
932.245117	57117.738281
931.083984	57224.371094
929.922852	57228.453125
928.760742	57372.671875
927.598633	57033.761719
926.436523	57234.406250
925.274414	57213.390625
924.111328	57317.781250
922.948242	57002.105469
921.785156	57236.027344
920.622070	57041.636719
919.458984	57609.625000
918.294922	56945.402344
917.130859	57210.468750
915.966797	57310.531250
914.802734	57312.468750
913.637695	57230.937500
912.472656	57637.605469
911.307617	57443.406250
910.142578	57605.886719
908.977539	57626.519531
907.811523	57223.953125
906.645508	58055.429688
905.479492	57382.023438
904.313477	57110.980469
903.146484	57723.281250
901.980469	57183.597656
900.813477	56877.332031
899.646484	56506.640625
898.478516	56229.750000
897.311523	56335.902344
896.143555	56063.304688
894.975586	56312.992188
893.806641	56059.214844
892.638672	56184.027344
891.469727	56325.425781
890.300781	56073.859375
889.131836	56641.312500
887.962891	56520.695313
886.792969	56213.125000
885.623047	56092.625000
884.453125	55839.246094
883.283203	56385.437500
882.112305	56723.808594
880.942383	56412.320313
879.771484	56084.339844
878.600586	55980.582031
877.428711	57146.558594
876.257813	56524.070313
875.085938	56957.421875
873.914063	57145.933594
872.741211	57004.750000
871.569336	57176.597656
870.396484	57311.078125
869.223633	56954.449219
868.050781	57279.500000
866.877930	57287.535156
865.704102	57415.671875
864.530273	57705.253906
863.356445	57657.304688
862.182617	57994.332031
861.007813	58366.410156
859.833984	58245.945313
858.659180	58727.464844
857.484375	58586.292969
856.308594	58176.359375
855.133789	58339.242188
853.958008	57991.511719
852.782227	58156.429688
851.605469	57604.300781
850.429688	57781.617188
849.252930	57611.867188
848.076172	57283.167969
846.899414	57761.882813
845.722656	57577.773438
844.544922	57711.574219
843.367188	57705.000000
842.189453	57628.281250
841.011719	57724.859375
839.833008	58316.375000
838.655273	58959.222656
837.476563	59010.136719
836.296875	59178.519531
835.118164	59431.335938
833.938477	59306.984375
832.758789	58434.859375
831.579102	57892.613281
830.399414	57484.417969
829.219727	56967.250000
828.039063	56433.800781
826.858398	55635.042969
825.677734	55511.539063
824.496094	55104.152344
823.315430	54487.097656
822.133789	54063.593750
820.952148	54271.523438
819.769531	54051.750000
818.587891	53737.496094
817.405273	53577.496094
816.222656	53499.742188
815.040039	53672.648438
813.856445	53272.421875
812.673828	53221.457031
811.490234	52462.144531
810.305664	52947.140625
809.122070	52791.578125
807.938477	52476.011719
806.753906	52540.125000
805.569336	52909.863281
804.383789	52344.226563
803.199219	52432.929688
802.013672	52304.277344
800.828125	52005.535156
799.642578	52153.675781
798.457031	52123.496094
797.270508	52228.531250
796.083984	51817.363281
794.897461	50734.632813
793.710938	51267.792969
792.523438	50885.683594
791.336914	51164.816406
790.149414	50915.878906
788.961914	50750.917969
787.773438	50397.816406
786.585938	50155.289063
785.397461	50691.937500
784.208984	50146.859375
783.019531	50470.718750
781.831055	50083.246094
780.641602	49706.128906
779.452148	49735.699219
778.262695	49757.085938
777.072266	49504.808594
775.882813	49420.050781
774.692383	49519.050781
773.501953	49671.078125
772.310547	49441.441406
771.120117	49283.300781
769.928711	48913.062500
768.737305	49377.132813
767.544922	48919.328125
766.353516	49352.632813
765.161133	49732.781250
763.968750	49450.425781
762.776367	49779.468750
761.583984	49560.363281
760.390625	49659.089844
759.197266	49666.132813
758.003906	50088.539063
756.810547	50486.359375
755.616211	50784.296875
754.421875	50662.914063
753.227539	50268.933594
752.033203	50804.742188
750.838867	50307.156250
749.643555	50501.128906
748.448242	50178.625000
747.252930	49809.484375
746.057617	49613.226563
744.861328	49291.062500
743.665039	49330.632813
742.468750	49061.445313
741.272461	48668.476563
740.075195	48511.183594
738.878906	48936.570313
737.681641	48558.046875
736.484375	48390.707031
735.286133	48341.105469
734.087891	48190.093750
732.890625	48166.910156
731.691406	48273.511719
730.493164	48270.589844
729.294922	48184.562500
728.095703	47985.070313
726.896484	47803.882813
725.696289	47549.832031
724.497070	47852.890625
723.296875	47708.277344
722.096680	48067.882813
720.896484	47437.429688
719.696289	47586.449219
718.495117	47953.964844
717.293945	47799.339844
716.092773	47406.074219
714.891602	47374.976563
713.689453	47531.945313
712.487305	47316.855469
711.285156	47532.394531
710.083008	47495.226563
708.880859	47272.171875
707.677734	47558.300781
706.474609	47327.234375
705.271484	47475.914063
704.068359	47232.832031
702.864258	46943.410156
701.660156	47390.785156
700.456055	47490.906250
699.251953	47080.531250
698.046875	47081.824219
696.841797	47026.640625
695.636719	46902.914063
694.431641	46539.320313
693.226563	47074.863281
692.020508	47102.339844
690.814453	46859.804688
689.608398	47046.460938
688.402344	47305.554688
687.195313	47224.214844
685.988281	47128.808594
684.781250	47049.539063
683.574219	47179.617188
682.366211	47581.312500
681.158203	47200.203125
679.950195	47050.566406
678.742188	47301.210938
677.534180	47304.429688
676.325195	47542.867188
675.116211	47353.070313
673.907227	47398.472656
672.697266	47471.988281
671.488281	47627.839844
670.278320	47313.628906
669.068359	47035.675781
667.858398	47328.046875
666.647461	47096.367188
665.436523	46902.902344
664.225586	46653.324219
663.014648	46704.781250
661.802734	46637.867188
660.591797	46540.890625
659.379883	46590.328125
658.167969	46359.074219
656.955078	46151.957031
655.743164	45934.894531
654.530273	46310.996094
653.317383	45837.558594
652.103516	46353.742188
650.890625	45938.542969
649.676758	46342.386719
648.462891	46237.621094
647.249023	45880.710938
646.034180	46102.234375
644.819336	45737.476563
643.604492	45830.925781
642.389648	45930.332031
641.174805	46353.628906
639.958984	46380.929688
638.743164	46262.300781
637.527344	45933.882813
636.311523	46264.941406
635.094727	46170.371094
633.877930	46137.750000
632.661133	46232.937500
631.444336	46509.777344
630.226563	46648.777344
629.008789	45606.203125
627.791016	45847.078125
626.573242	45952.199219
625.355469	45919.644531
624.136719	45735.535156
622.917969	45722.968750
621.699219	45853.941406
620.480469	46046.652344
619.260742	45782.933594
618.041016	45736.484375
616.821289	46090.460938
615.601563	45693.433594
614.380859	45868.058594
613.160156	45528.957031
611.939453	45763.261719
610.718750	45251.152344
609.497070	45712.257813
608.276367	45827.023438
607.054688	45929.808594
605.832031	45774.019531
604.610352	45662.035156
603.387695	45907.917969
602.165039	45587.250000
600.942383	45413.750000
599.719727	45717.156250
598.496094	45641.027344
597.272461	45060.460938
596.048828	45361.769531
594.825195	45408.839844
593.600586	45227.617188
592.375977	45219.121094
591.151367	45792.003906
589.926758	45231.886719
588.701172	45074.625000
587.476563	45448.898438
586.250977	45398.718750
585.024414	45132.480469
583.798828	45395.527344
582.572266	45274.042969
581.345703	45293.761719
580.119141	45313.480469
578.892578	45333.199219
577.665039	45352.933594
576.437500	45372.667969
575.209961	45392.402344
573.982422	45412.136719
572.753906	45431.886719
571.525391	45451.636719
570.296875	45471.386719
569.068359	45491.136719
567.838867	45510.902344
566.610352	45530.652344
565.380859	45550.417969
564.150391	45570.199219
562.920898	45589.968750
561.690430	45609.750000
560.459961	45629.531250
559.229492	45649.312500
557.999023	45669.093750
556.767578	45688.890625
555.536133	45708.687500
554.304688	45267.984375
553.073242	45442.921875
551.840820	45471.839844
550.608398	45003.816406
549.375977	45109.691406
548.143555	45166.246094
546.910156	45287.816406
545.676758	45403.425781
544.443359	45103.300781
543.209961	45195.261719
541.975586	44897.253906
540.742188	45237.304688
539.507813	45205.160156
538.272461	45328.515625
537.038086	45197.968750
535.802734	45301.597656
534.567383	45517.312500
533.332031	45392.699219
532.096680	45205.203125
530.860352	45118.042969
529.624023	45192.093750
528.387695	45169.816406
527.151367	45228.109375
525.914063	45514.261719
524.676758	45034.281250
523.439453	45216.281250
522.202148	45303.960938
520.963867	45368.050781
519.725586	45683.335938
518.487305	45839.554688
517.249023	45285.488281
516.009766	45651.609375
514.771484	45409.613281
513.532227	45704.976563
512.291992	45143.503906
511.052734	45538.765625
509.812500	45232.292969
508.572266	45317.808594
507.332031	45109.441406
506.090820	45187.105469
504.850586	44951.421875
503.609375	45624.277344
502.368164	45331.824219
501.125977	45563.996094
499.884766	45439.945313
498.642578	45826.558594
497.400391	45796.386719
496.157227	45707.558594
494.915039	45481.890625
493.671875	46046.093750
492.428711	45824.351563
491.184570	45956.398438
489.941406	46137.234375
488.697266	45968.339844
487.453125	46131.523438
486.208984	45962.687500
484.963867	46127.761719
483.718750	46165.894531
482.473633	45991.285156
481.228516	45955.277344
479.982422	46040.230469
478.737305	45959.363281
477.491211	46399.203125
476.244141	46010.230469
474.998047	46071.710938
473.750977	46382.640625
472.503906	46672.015625
471.256836	46370.949219
470.009766	46212.191406
468.761719	46326.148438
467.513672	46613.359375
466.265625	46629.851563
465.017578	46562.636719
463.768555	46958.613281
462.519531	47152.082031
461.270508	47343.531250
460.021484	47340.410156
458.771484	47759.265625
457.521484	47967.984375
456.271484	47490.437500
455.021484	48035.343750
453.770508	48098.148438
452.519531	48634.960938
451.268555	48281.953125
450.017578	48643.742188
448.765625	49071.402344
447.514648	49547.437500
446.262695	49836.957031
445.009766	50337.886719
443.757813	50516.554688
442.504883	50636.953125
441.251953	50543.968750
439.999023	50575.117188
438.745117	49524.449219
437.492188	48873.476563
436.238281	48941.738281
434.983398	48384.121094
433.729492	47892.582031
432.474609	47653.019531
431.219727	47082.402344
429.964844	47294.203125
428.709961	47167.156250
427.454102	46900.808594
426.198242	46706.156250
424.942383	46689.566406
423.685547	46688.453125
422.429688	46753.093750
421.172852	46421.324219
419.916016	46774.031250
418.658203	46571.878906
417.401367	46626.820313
416.143555	46279.859375
414.885742	46597.546875
413.626953	46443.859375
412.369141	46340.429688
411.110352	46333.570313
409.851563	46423.226563
408.591797	46617.062500
407.333008	46691.187500
406.073242	46591.660156
404.813477	46366.792969
403.553711	46197.933594
402.292969	46264.359375
401.032227	46876.304688
