#Wave		#Intensity
2001.221680	38678.023438
2000.251953	38206.800781
1999.282227	38470.785156
1998.312500	38183.437500
1997.342773	38149.214844
1996.372070	38200.164063
1995.402344	38173.460938
1994.431641	38399.656250
1993.460938	38705.882813
1992.490234	38293.636719
1991.518555	38369.535156
1990.547852	38845.746094
1989.576172	38466.207031
1988.604492	38504.511719
1987.632813	38225.199219
1986.661133	38358.542969
1985.689453	38864.332031
1984.716797	38477.617188
1983.745117	38363.433594
1982.772461	38341.742188
1981.799805	38160.167969
1980.827148	38031.109375
1979.853516	38174.304688
1978.880859	38137.667969
1977.907227	37918.804688
1976.933594	38239.160156
1975.959961	38684.179688
1974.986328	38487.785156
1974.011719	38600.804688
1973.038086	38404.492188
1972.063477	38135.925781
1971.088867	38458.390625
1970.114258	38471.609375
1969.138672	38504.765625
1968.164063	38201.472656
1967.188477	38433.992188
1966.212891	38198.078125
1965.237305	38627.289063
1964.261719	38520.917969
1963.286133	38471.855469
1962.309570	38529.851563
1961.333984	38475.820313
1960.357422	38867.273438
1959.380859	38340.441406
1958.404297	38425.781250
1957.426758	38809.570313
1956.450195	38730.660156
1955.472656	38828.316406
1954.495117	38814.062500
1953.517578	38618.367188
1952.540039	38686.164063
1951.561523	38562.613281
1950.583008	38240.363281
1949.605469	38447.281250
1948.626953	38760.914063
1947.647461	38483.484375
1946.668945	38804.445313
1945.690430	38837.363281
1944.710938	38952.167969
1943.731445	38382.109375
1942.751953	38670.605469
1941.772461	38978.839844
1940.791992	38359.476563
1939.812500	38856.097656
1938.832031	38690.632813
1937.851563	38755.738281
1936.871094	38924.902344
1935.890625	39287.269531
1934.909180	38638.765625
1933.928711	38916.839844
1932.947266	39095.757813
1931.965820	38586.277344
1930.984375	38636.457031
1930.002930	39099.968750
1929.020508	39268.824219
1928.038086	38635.949219
1927.056641	38817.191406
1926.074219	38802.972656
1925.090820	39132.496094
1924.108398	39466.851563
1923.125000	38735.605469
1922.142578	38807.910156
1921.159180	38897.488281
1920.175781	39098.218750
1919.191406	39155.597656
1918.208008	39156.144531
1917.223633	38931.964844
1916.240234	38905.386719
1915.255859	38849.191406
1914.271484	39032.433594
1913.286133	39205.738281
1912.301758	39090.300781
1911.316406	39068.644531
1910.331055	39172.785156
1909.345703	39227.570313
1908.360352	39117.132813
1907.375000	38942.640625
1906.388672	39172.425781
1905.402344	38968.410156
1904.416016	38917.226563
1903.429688	39378.457031
1902.443359	38982.390625
1901.457031	39194.722656
1900.469727	39037.652344
1899.482422	38865.867188
1898.495117	38962.421875
1897.507813	39177.066406
1896.520508	38946.289063
1895.532227	39355.199219
1894.543945	39146.605469
1893.556641	39235.640625
1892.568359	39120.570313
1891.579102	38595.007813
1890.590820	38942.164063
1889.601563	38891.093750
1888.613281	38980.089844
1887.624023	38965.878906
1886.634766	39275.875000
1885.644531	39411.410156
1884.655273	38729.292969
1883.665039	39139.816406
1882.674805	39361.199219
1881.684570	39432.816406
1880.694336	39516.671875
1879.704102	39362.542969
1878.712891	39225.640625
1877.722656	39142.730469
1876.731445	39184.890625
1875.740234	39278.515625
1874.748047	39264.261719
1873.756836	39512.218750
1872.764648	39620.429688
1871.773438	38996.152344
1870.781250	39266.066406
1869.788086	39320.386719
1868.795898	38743.007813
1867.803711	38870.835938
1866.810547	39255.605469
1865.817383	39238.917969
1864.824219	38926.187500
1863.831055	39579.824219
1862.837891	39201.109375
1861.843750	39206.445313
1860.849609	39370.699219
1859.855469	39309.996094
1858.861328	39293.308594
1857.867188	39235.085938
1856.872070	39423.640625
1855.877930	39663.429688
1854.882813	39458.625000
1853.887695	39317.378906
1852.892578	39532.640625
1851.896484	39440.250000
1850.901367	39745.714844
1849.905273	39450.781250
1848.909180	39773.210938
1847.913086	39690.593750
1846.916992	39873.847656
1845.919922	39488.867188
1844.923828	39694.031250
1843.926758	39874.742188
1842.929688	39806.796875
1841.932617	40033.722656
1840.935547	40046.167969
1839.937500	39822.324219
1838.939453	39915.171875
1837.942383	40197.917969
1836.943359	40254.140625
1835.945313	40183.769531
1834.947266	40164.523438
1833.948242	39962.789063
1832.949219	40067.667969
1831.951172	40440.078125
1830.951172	40369.726563
1829.952148	40326.144531
1828.953125	40270.417969
1827.953125	40299.789063
1826.953125	40049.656250
1825.953125	40528.585938
1824.953125	40715.808594
1823.952148	40830.089844
1822.952148	40584.894531
1821.951172	40322.781250
1820.950195	40497.761719
1819.949219	40429.945313
1818.948242	40612.121094
1817.946289	40529.746094
1816.945313	40478.933594
1815.943359	40680.406250
1814.941406	40845.429688
1813.939453	40428.441406
1812.936523	40903.765625
1811.934570	40874.742188
1810.931641	40969.324219
1809.928711	40981.488281
1808.925781	40722.308594
1807.921875	40250.062500
1806.918945	40862.949219
1805.915039	41068.824219
1804.912109	40742.019531
1803.908203	41047.082031
1802.903320	41318.156250
1801.899414	41286.671875
1800.894531	41192.300781
1799.890625	41071.351563
1798.885742	41088.292969
1797.880859	41654.101563
1796.875000	41042.375000
1795.870117	41395.281250
1794.864258	41339.648438
1793.858398	41097.976563
1792.852539	41392.707031
1791.846680	41754.960938
1790.840820	41754.835938
1789.833984	41740.226563
1788.828125	41892.191406
1787.821289	41464.820313
1786.814453	41592.644531
1785.806641	41725.250000
1784.799805	41650.335938
1783.791992	41529.625000
1782.784180	41599.464844
1781.776367	41821.179688
1780.768555	42074.152344
1779.760742	42211.343750
1778.751953	41615.886719
1777.743164	41830.207031
1776.735352	41844.500000
1775.725586	42335.691406
1774.716797	42407.683594
1773.708008	42034.218750
1772.698242	41918.468750
1771.688477	42038.628906
1770.678711	42510.089844
1769.668945	41994.910156
1768.659180	42382.011719
1767.648438	42793.027344
1766.637695	42749.394531
1765.626953	42607.203125
1764.616211	42337.648438
1763.605469	42645.023438
1762.593750	42649.503906
1761.583008	43014.378906
1760.571289	42927.503906
1759.559570	42751.792969
1758.547852	42775.457031
1757.535156	42935.960938
1756.523438	43077.203125
1755.510742	43708.015625
1754.498047	43335.539063
1753.485352	43661.375000
1752.472656	43845.558594
1751.458984	44000.898438
1750.445313	43278.527344
1749.432617	43563.375000
1748.417969	43893.664063
1747.404297	43205.242188
1746.390625	43993.164063
1745.375977	44440.597656
1744.361328	44140.496094
1743.346680	44405.718750
1742.332031	44426.597656
1741.317383	44368.464844
1740.302734	45169.695313
1739.287109	45176.066406
1738.271484	45029.285156
1737.255859	45126.589844
1736.240234	45565.914063
1735.223633	45706.132813
1734.208008	46094.984375
1733.191406	46529.117188
1732.174805	46382.246094
1731.158203	46591.519531
1730.140625	46822.222656
1729.124023	47473.320313
1728.106445	47572.406250
1727.088867	47396.808594
1726.071289	48166.843750
1725.053711	48215.617188
1724.035156	48047.152344
1723.017578	48756.996094
1721.999023	48893.914063
1720.980469	48952.058594
1719.961914	49079.351563
1718.942383	49504.699219
1717.923828	49476.859375
1716.904297	49787.554688
1715.884766	49943.203125
1714.865234	49915.289063
1713.844727	49711.066406
1712.825195	49990.519531
1711.804688	49772.054688
1710.784180	49648.929688
1709.763672	49794.902344
1708.743164	49533.730469
1707.722656	49632.062500
1706.701172	49866.007813
1705.679688	49650.167969
1704.658203	49589.031250
1703.636719	49259.140625
1702.615234	49692.738281
1701.592773	49448.539063
1700.571289	49007.113281
1699.548828	49411.996094
1698.526367	49286.792969
1697.502930	49154.503906
1696.480469	48898.730469
1695.457031	49189.328125
1694.433594	49047.625000
1693.410156	48564.066406
1692.386719	48966.136719
1691.363281	49194.796875
1690.338867	49110.136719
1689.314453	48864.164063
1688.290039	49185.234375
1687.265625	49015.226563
1686.241211	49461.835938
1685.215820	49064.226563
1684.191406	49648.152344
1683.166016	49572.980469
1682.140625	49237.171875
1681.115234	49166.832031
1680.088867	49532.386719
1679.062500	49317.542969
1678.037109	49765.816406
1677.010742	49636.238281
1675.983398	50134.000000
1674.957031	49718.023438
1673.930664	50312.609375
1672.903320	49754.789063
1671.875977	50349.152344
1670.848633	50683.148438
1669.820313	50340.738281
1668.792969	50532.757813
1667.764648	50611.246094
1666.736328	50760.605469
1665.708008	50645.257813
1664.679688	51023.722656
1663.651367	51203.628906
1662.622070	50861.535156
1661.592773	51187.804688
1660.563477	51639.078125
1659.534180	51832.906250
1658.504883	51094.449219
1657.474609	51866.402344
1656.444336	51868.984375
1655.415039	52031.957031
1654.383789	52178.363281
1653.353516	52213.894531
1652.323242	52496.945313
1651.291992	52145.839844
1650.260742	52751.664063
1649.229492	53340.773438
1648.198242	53131.046875
1647.166016	53467.851563
1646.134766	53437.152344
1645.102539	53698.429688
1644.070313	53517.027344
1643.038086	53639.324219
1642.004883	54312.250000
1640.972656	54104.949219
1639.939453	54521.128906
1638.906250	55259.390625
1637.873047	54974.421875
1636.839844	55098.664063
1635.805664	55349.804688
1634.772461	55892.300781
1633.738281	55468.765625
1632.704102	55797.234375
1631.668945	56496.750000
1630.634766	56164.925781
1629.599609	57002.667969
1628.565430	57109.921875
1627.530273	56785.199219
1626.494141	57373.593750
1625.458984	57912.496094
1624.422852	58296.355469
1623.387695	58325.859375
1622.351563	58728.265625
1621.315430	59876.222656
1620.278320	60261.792969
1619.242188	61927.117188
1618.205078	62237.179688
1617.167969	63805.480469
1616.130859	65324.015625
1615.093750	66689.750000
1614.055664	68888.765625
1613.018555	70283.812500
1611.980469	71523.843750
1610.942383	71911.382813
1609.904297	72745.789063
1608.865234	72159.546875
1607.827148	71210.875000
1606.788086	70187.687500
1605.749023	69111.078125
1604.709961	67387.140625
1603.669922	66477.390625
1602.630859	64974.253906
1601.590820	64282.597656
1600.550781	63243.031250
1599.510742	63084.582031
1598.470703	62545.449219
1597.429688	61917.765625
1596.389648	61832.011719
1595.348633	61384.433594
1594.307617	61438.847656
1593.265625	61437.234375
1592.224609	60520.964844
1591.182617	60682.808594
1590.140625	60709.308594
1589.098633	60253.066406
1588.056641	60421.859375
1587.014648	60040.421875
1585.971680	59910.847656
1584.928711	60356.917969
1583.886719	59891.812500
1582.842773	60470.507813
1581.799805	59963.617188
1580.755859	60202.093750
1579.712891	60605.796875
1578.668945	60392.457031
1577.625000	60784.339844
1576.580078	61141.171875
1575.536133	61493.218750
1574.491211	61898.644531
1573.446289	61610.828125
1572.401367	62369.539063
1571.356445	62688.558594
1570.311523	62454.214844
1569.265625	62275.726563
1568.219727	62731.683594
1567.173828	62209.355469
1566.127930	61805.679688
1565.082031	61920.062500
1564.035156	61551.410156
1562.988281	61886.351563
1561.941406	61311.238281
1560.894531	61453.464844
1559.847656	61222.054688
1558.799805	61343.363281
1557.751953	61302.253906
1556.704102	61481.480469
1555.656250	61094.859375
1554.608398	61422.425781
1553.560547	61754.511719
1552.511719	61748.117188
1551.462891	61635.132813
1550.414063	61376.234375
1549.365234	61311.996094
1548.315430	61532.628906
1547.265625	61998.621094
1546.216797	61589.355469
1545.166992	61941.746094
1544.116211	62115.812500
1543.066406	61732.191406
1542.015625	61977.945313
1540.965820	62124.148438
1539.915039	62510.808594
1538.863281	62111.191406
1537.812500	61859.667969
1536.760742	61934.128906
1535.709961	61978.519531
1534.658203	62448.023438
1533.605469	62173.507813
1532.553711	61834.417969
1531.501953	61888.019531
1530.449219	60759.472656
1529.396484	61081.019531
1528.343750	61155.492188
1527.290039	61181.476563
1526.237305	60531.441406
1525.183594	60555.218750
1524.129883	60018.535156
1523.076172	59691.882813
1522.022461	59819.535156
1520.968750	59829.578125
1519.914063	59579.183594
1518.859375	59681.433594
1517.804688	59186.937500
1516.750000	59855.871094
1515.694336	59389.152344
1514.639648	58835.097656
1513.583984	58412.464844
1512.528320	58648.304688
1511.472656	58520.437500
1510.416016	58535.269531
1509.360352	58609.914063
1508.303711	58797.238281
1507.247070	58749.914063
1506.190430	58396.789063
1505.132813	58363.343750
1504.076172	58704.570313
1503.018555	58337.847656
1501.960938	58580.148438
1500.903320	58907.359375
1499.844727	58246.789063
1498.787109	58417.777344
1497.728516	58680.542969
1496.669922	58185.648438
1495.611328	57883.730469
1494.552734	57997.281250
1493.493164	58613.265625
1492.434570	57900.796875
1491.375000	57963.816406
1490.315430	57854.824219
1489.254883	57567.027344
1488.195313	57994.554688
1487.134766	57418.046875
1486.074219	57662.117188
1485.013672	57298.945313
1483.953125	57735.367188
1482.892578	57106.632813
1481.831055	58030.671875
1480.769531	57626.476563
1479.708008	57574.941406
1478.646484	57109.171875
1477.583984	57263.687500
1476.522461	56990.316406
1475.459961	57112.765625
1474.397461	57813.789063
1473.334961	57773.691406
1472.271484	57582.718750
1471.208984	57423.812500
1470.145508	58000.859375
1469.082031	57963.031250
1468.018555	57897.804688
1466.954102	57946.804688
1465.890625	58030.042969
1464.826172	58843.914063
1463.761719	58379.050781
1462.697266	58592.261719
1461.631836	58168.683594
1460.567383	59301.375000
1459.501953	58864.132813
1458.436523	58878.656250
1457.371094	58938.781250
1456.305664	58276.101563
1455.239258	58413.816406
1454.172852	58266.574219
1453.107422	58413.355469
1452.040039	58662.605469
1450.973633	58214.691406
1449.907227	58618.761719
1448.839844	58662.890625
1447.772461	58531.683594
1446.705078	59074.332031
1445.637695	58922.609375
1444.569336	58725.429688
1443.500977	58933.296875
1442.432617	59172.929688
1441.364258	58916.671875
1440.295898	59049.343750
1439.227539	59152.410156
1438.158203	59814.621094
1437.088867	60062.960938
1436.019531	59215.964844
1434.950195	59546.105469
1433.879883	59973.796875
1432.810547	59924.410156
1431.740234	60340.523438
1430.669922	60370.539063
1429.598633	60845.433594
1428.528320	60312.523438
1427.457031	59988.554688
1426.386719	60200.093750
1425.314453	60363.921875
1424.243164	60486.867188
1423.171875	60444.246094
1422.099609	60374.437500
1421.027344	59867.195313
1419.955078	60067.183594
1418.882813	59884.179688
1417.810547	60263.050781
1416.737305	59688.238281
1415.664063	59521.246094
1414.590820	59847.894531
1413.517578	59585.851563
1412.444336	59744.878906
1411.370117	59684.347656
1410.295898	60605.757813
1409.221680	59264.738281
1408.147461	60414.320313
1407.073242	60539.125000
1405.998047	60202.660156
1404.922852	60374.921875
1403.847656	60422.816406
1402.772461	61322.582031
1401.697266	60832.578125
1400.621094	60331.457031
1399.544922	61190.093750
1398.468750	60637.148438
1397.392578	60870.054688
1396.316406	60705.601563
1395.239258	61640.273438
1394.162109	61489.273438
1393.084961	61667.703125
1392.007813	61780.652344
1390.930664	62263.410156
1389.852539	62646.781250
1388.774414	63068.332031
1387.696289	63455.921875
1386.618164	63424.207031
1385.540039	64273.484375
1384.460938	64144.761719
1383.382813	64894.492188
1382.303711	65029.175781
1381.223633	65366.441406
1380.144531	65534.750000
1379.064453	66110.375000
1377.985352	65684.406250
1376.905273	65830.054688
1375.825195	66324.328125
1374.744141	65716.359375
1373.664063	66223.960938
1372.583008	65897.257813
1371.501953	65251.472656
1370.420898	64940.792969
1369.338867	64834.703125
1368.257813	64539.933594
1367.175781	64440.687500
1366.093750	64366.179688
1365.011719	63943.656250
1363.929688	63833.339844
1362.846680	63842.023438
1361.763672	63166.214844
1360.680664	62899.019531
1359.597656	62611.730469
1358.514648	62589.218750
1357.430664	62609.320313
1356.346680	61963.476563
1355.262695	62046.449219
1354.178711	61450.246094
1353.094727	61537.761719
1352.009766	60899.285156
1350.925781	61105.593750
1349.840820	60796.671875
1348.755859	61354.496094
1347.669922	61000.855469
1346.584961	60911.492188
1345.499023	60873.636719
1344.413086	60876.070313
1343.327148	60737.550781
1342.240234	60764.609375
1341.154297	60899.011719
1340.067383	60995.347656
1338.980469	60816.648438
1337.893555	60997.902344
1336.805664	61324.359375
1335.718750	60957.992188
1334.630859	60960.382813
1333.542969	60594.207031
1332.455078	60706.089844
1331.367188	60992.097656
1330.278320	61141.820313
1329.189453	60737.917969
1328.100586	61470.101563
1327.011719	60704.808594
1325.922852	61340.796875
1324.833008	61485.843750
1323.743164	60772.250000
1322.653320	61300.851563
1321.563477	61550.593750
1320.473633	61367.843750
1319.382813	61174.011719
1318.291992	61599.652344
1317.201172	61423.667969
1316.110352	61659.785156
1315.019531	61889.136719
1313.927734	61835.640625
1312.835938	62222.921875
1311.744141	61888.945313
1310.652344	62158.132813
1309.560547	61997.824219
1308.467773	62444.843750
1307.375000	62355.707031
1306.282227	62880.324219
1305.189453	62239.765625
1304.095703	62664.183594
1303.002930	62790.632813
1301.909180	63377.000000
1300.815430	63443.285156
1299.721680	62872.050781
1298.626953	62480.910156
1297.533203	63333.347656
1296.438477	63361.843750
1295.343750	63798.738281
1294.248047	63993.574219
1293.153320	64057.425781
1292.057617	64536.101563
1290.961914	64761.742188
1289.866211	64934.078125
1288.770508	65135.171875
1287.674805	65300.718750
1286.578125	65366.464844
1285.481445	65152.968750
1284.384766	65006.015625
1283.288086	65299.937500
1282.190430	64645.816406
1281.092773	64660.675781
1279.996094	64695.453125
1278.897461	64858.605469
1277.799805	64450.691406
1276.702148	64346.074219
1275.603516	64588.839844
1274.504883	63683.484375
1273.406250	64127.531250
1272.307617	63678.093750
1271.208008	63578.117188
1270.108398	63648.378906
1269.008789	63484.347656
1267.909180	63452.953125
1266.809570	62920.078125
1265.708984	62937.386719
1264.609375	62992.226563
1263.508789	62910.144531
1262.407227	63057.683594
1261.306641	62825.527344
1260.206055	62145.476563
1259.104492	62140.824219
1258.002930	62270.734375
1256.901367	62257.234375
1255.798828	62040.855469
1254.697266	62027.394531
1253.594727	61797.906250
1252.492188	61610.375000
1251.389648	61766.667969
1250.286133	61931.714844
1249.183594	61402.820313
1248.080078	61197.867188
1246.976563	61433.382813
1245.872070	61063.375000
1244.768555	60380.925781
1243.664063	60838.734375
1242.560547	60689.062500
1241.455078	60607.648438
1240.350586	60180.917969
1239.246094	60007.253906
1238.140625	59895.210938
1237.035156	59765.621094
1235.929688	59921.816406
1234.824219	60095.531250
1233.717773	59803.375000
1232.612305	59564.046875
1231.505859	59553.226563
1230.399414	59518.253906
1229.291992	59325.207031
1228.185547	59577.851563
1227.078125	59314.625000
1225.970703	59637.398438
1224.863281	59154.847656
1223.755859	59095.839844
1222.647461	59221.082031
1221.539063	59363.816406
1220.430664	58712.839844
1219.322266	59028.781250
1218.213867	59386.242188
1217.104492	59349.152344
1215.995117	58602.246094
1214.885742	58490.832031
1213.776367	58870.023438
1212.666992	58384.171875
1211.556641	58947.132813
1210.446289	58695.640625
1209.335938	58792.199219
1208.225586	58823.082031
1207.115234	58197.656250
1206.003906	58639.832031
1204.892578	58699.144531
1203.781250	58227.125000
1202.669922	59351.089844
1201.557617	58933.761719
1200.446289	58732.921875
1199.333984	59240.046875
1198.221680	59480.480469
1197.108398	59417.238281
1195.996094	59423.894531
1194.882813	59338.847656
1193.769531	59749.343750
1192.656250	60000.363281
1191.542969	59387.191406
1190.428711	59847.621094
1189.314453	59736.386719
1188.200195	60131.156250
1187.085938	59736.441406
1185.971680	60002.437500
1184.856445	60516.816406
1183.741211	60412.085938
1182.625977	60361.863281
1181.510742	60403.156250
1180.395508	60623.031250
1179.279297	60709.988281
1178.163086	60629.253906
1177.046875	60781.476563
1175.930664	60766.050781
1174.813477	60308.878906
1173.697266	59997.640625
1172.580078	59579.921875
1171.462891	60375.964844
1170.344727	59884.390625
1169.227539	59790.863281
1168.109375	59806.050781
1166.991211	59984.230469
1165.873047	59979.816406
1164.754883	60086.199219
1163.635742	59849.343750
1162.516602	59360.644531
1161.397461	59530.046875
1160.278320	59621.226563
1159.159180	59916.406250
1158.039063	59823.015625
1156.918945	59503.996094
1155.798828	59510.500000
1154.678711	59291.425781
1153.558594	59972.390625
1152.437500	59564.671875
1151.316406	59191.785156
1150.195313	59651.312500
1149.074219	59412.894531
1147.952148	59382.558594
1146.831055	59525.523438
1145.708984	59954.324219
1144.586914	59798.300781
1143.463867	59410.671875
1142.341797	59943.156250
1141.218750	60155.132813
1140.095703	60754.359375
1138.972656	60948.796875
1137.849609	60892.246094
1136.725586	60943.847656
1135.601563	61116.515625
1134.477539	60893.492188
1133.353516	60231.769531
1132.229492	60395.820313
1131.104492	60393.433594
1129.979492	60466.656250
1128.854492	59958.835938
1127.729492	60213.507813
1126.603516	59913.187500
1125.478516	60044.718750
1124.352539	59336.613281
1123.226563	59051.714844
1122.099609	58715.140625
1120.973633	59185.457031
1119.846680	58359.390625
1118.719727	58613.960938
1117.592773	58135.406250
1116.465820	58068.738281
1115.337891	58027.953125
1114.209961	57679.046875
1113.082031	57578.019531
1111.954102	57453.335938
1110.826172	56813.980469
1109.697266	56928.480469
1108.568359	56950.367188
1107.439453	57469.449219
1106.310547	57060.816406
1105.180664	57024.562500
1104.051758	57009.832031
1102.921875	57152.117188
1101.791992	57380.363281
1100.661133	57303.218750
1099.531250	57367.976563
1098.400391	56656.820313
1097.269531	57033.253906
1096.138672	57046.453125
1095.006836	56793.281250
1093.875977	56776.449219
1092.744141	56817.593750
1091.612305	56403.578125
1090.480469	56195.777344
1089.347656	56513.851563
1088.215820	55836.187500
1087.083008	55328.250000
1085.950195	55847.921875
1084.816406	55790.519531
1083.683594	55938.972656
1082.549805	54991.906250
1081.416016	55663.433594
1080.282227	55368.222656
1079.148438	55364.515625
1078.013672	54906.656250
1076.878906	55427.769531
1075.744141	55353.375000
1074.609375	54705.214844
1073.474609	55174.695313
1072.338867	54905.621094
1071.203125	55364.187500
1070.067383	55011.734375
1068.931641	55281.871094
1067.794922	55015.105469
1066.659180	54566.675781
1065.522461	54714.882813
1064.385742	54995.554688
1063.248047	54378.539063
1062.111328	54537.375000
1060.973633	54971.734375
1059.835938	54743.792969
1058.698242	55002.835938
1057.559570	54836.886719
1056.421875	54837.507813
1055.283203	55040.890625
1054.144531	54821.671875
1053.005859	54858.558594
1051.866211	55138.613281
1050.726563	55271.398438
1049.587891	55075.742188
1048.447266	55291.632813
1047.307617	54944.699219
1046.167969	54651.164063
1045.027344	55340.054688
1043.886719	55457.730469
1042.746094	55505.070313
1041.604492	54826.171875
1040.463867	55531.546875
1039.322266	55142.417969
1038.180664	55072.699219
1037.038086	55088.132813
1035.896484	55358.878906
1034.753906	54874.328125
1033.611328	54953.585938
1032.468750	55268.859375
1031.326172	54495.425781
1030.182617	54672.488281
1029.040039	54947.250000
1027.896484	55417.410156
1026.751953	55031.179688
1025.608398	55148.527344
1024.463867	54849.562500
1023.319336	55096.425781
1022.174805	54903.726563
1021.030273	54725.953125
1019.885742	54921.757813
1018.740234	54932.890625
1017.594727	54848.546875
1016.449219	55031.488281
1015.303711	55097.722656
1014.157227	55004.906250
1013.010742	54723.453125
1011.864258	54319.164063
1010.717773	54660.960938
1009.571289	54773.800781
1008.423828	54912.019531
1007.276367	54770.613281
1006.128906	54813.484375
1004.981445	54729.308594
1003.833008	55292.898438
1002.684570	54965.273438
1001.536133	55801.574219
1000.387695	56430.234375
999.239258	56500.238281
998.089844	56830.339844
996.941406	56938.300781
995.791992	56942.625000
994.641602	56663.714844
993.492188	56327.843750
992.341797	56344.953125
991.191406	56545.839844
990.041016	56303.101563
988.890625	55836.609375
987.739258	56658.207031
986.588867	56101.042969
985.437500	56021.070313
984.285156	56652.257813
983.133789	55781.035156
981.981445	56264.371094
980.829102	56148.562500
979.676758	56656.953125
978.524414	56033.023438
977.372070	56107.023438
976.218750	56621.453125
975.065430	56387.679688
973.912109	56400.468750
972.757813	56409.042969
971.604492	57365.273438
970.450195	56971.500000
969.295898	57011.531250
968.141602	57022.078125
966.986328	56557.035156
965.832031	56754.910156
964.676758	56813.875000
963.521484	56809.714844
962.365234	56248.312500
961.209961	56692.074219
960.053711	57236.566406
958.897461	57188.191406
957.741211	56688.054688
956.584961	56963.328125
955.427734	57003.242188
954.270508	57114.542969
953.113281	57313.988281
951.956055	57391.593750
950.797852	57169.019531
949.639648	56703.093750
948.481445	56940.222656
947.323242	56801.761719
946.165039	56445.214844
945.005859	56491.425781
943.847656	56529.230469
942.687500	56424.476563
941.528320	56632.035156
940.369141	56351.277344
939.208984	56841.605469
938.048828	57088.765625
936.888672	56408.058594
935.728516	56856.218750
934.567383	56527.511719
933.406250	56741.046875
932.245117	57073.789063
931.083984	57006.765625
929.922852	56707.550781
928.760742	56703.359375
927.598633	57163.417969
926.436523	56918.691406
925.274414	57064.968750
924.111328	57466.175781
922.948242	57091.960938
921.785156	57712.386719
920.622070	57538.796875
919.458984	57553.234375
918.294922	57530.078125
917.130859	57843.054688
915.966797	57776.011719
914.802734	58140.996094
913.637695	58230.414063
912.472656	58259.296875
911.307617	58215.160156
910.142578	58214.832031
908.977539	59234.089844
907.811523	58904.191406
906.645508	58834.949219
905.479492	59161.667969
904.313477	59081.976563
903.146484	58856.496094
901.980469	58066.675781
900.813477	58799.343750
899.646484	58138.902344
898.478516	57926.242188
897.311523	58454.562500
896.143555	58062.964844
894.975586	57840.027344
893.806641	57789.812500
892.638672	57853.992188
891.469727	58348.558594
890.300781	58260.847656
889.131836	57902.964844
887.962891	57798.738281
886.792969	57771.425781
885.623047	57987.171875
884.453125	57893.363281
883.283203	58038.398438
882.112305	58307.945313
880.942383	58336.597656
879.771484	58452.406250
878.600586	58454.039063
877.428711	58540.730469
876.257813	58471.816406
875.085938	58765.855469
873.914063	58918.785156
872.741211	59160.800781
871.569336	59017.195313
870.396484	59232.156250
869.223633	58912.464844
868.050781	59117.003906
866.877930	59313.175781
865.704102	59821.968750
864.530273	59448.566406
863.356445	60364.941406
862.182617	60229.582031
861.007813	60944.746094
859.833984	61012.074219
858.659180	60897.347656
857.484375	61043.242188
856.308594	60988.511719
855.133789	60636.093750
853.958008	60839.828125
852.782227	60431.765625
851.605469	60056.910156
850.429688	60165.597656
849.252930	60282.507813
848.076172	60213.511719
846.899414	60747.429688
845.722656	60880.667969
844.544922	60896.214844
843.367188	60802.382813
842.189453	61426.562500
841.011719	61312.035156
839.833008	62026.632813
838.655273	62549.191406
837.476563	62789.109375
836.296875	63503.027344
835.118164	63767.402344
833.938477	63749.394531
832.758789	63401.773438
831.579102	63085.171875
830.399414	62253.851563
829.219727	61748.152344
828.039063	60699.171875
826.858398	60778.468750
825.677734	59213.542969
824.496094	59375.378906
823.315430	58989.976563
822.133789	58942.007813
820.952148	58308.011719
819.769531	58445.214844
818.587891	58354.199219
817.405273	58074.140625
816.222656	58032.539063
815.040039	57734.152344
813.856445	57378.359375
812.673828	57577.171875
811.490234	57449.445313
810.305664	57434.671875
809.122070	57224.914063
807.938477	56914.679688
806.753906	57094.917969
805.569336	57379.703125
804.383789	57440.824219
803.199219	57270.210938
802.013672	57232.917969
800.828125	57076.746094
799.642578	57199.351563
798.457031	57076.027344
797.270508	57094.101563
796.083984	56548.886719
794.897461	56468.750000
793.710938	56212.550781
792.523438	55950.300781
791.336914	56195.746094
790.149414	56150.507813
788.961914	55917.054688
787.773438	55536.402344
786.585938	55945.347656
785.397461	55307.175781
784.208984	55462.492188
783.019531	55783.320313
781.831055	55327.414063
780.641602	55004.492188
779.452148	54565.242188
778.262695	55298.585938
777.072266	55120.839844
775.882813	54810.437500
774.692383	54620.593750
773.501953	54773.714844
772.310547	54696.179688
771.120117	54437.082031
769.928711	54910.410156
768.737305	54622.812500
767.544922	54596.332031
766.353516	54824.707031
765.161133	54645.312500
763.968750	55081.464844
762.776367	55264.785156
761.583984	55545.824219
760.390625	55702.503906
759.197266	55549.578125
758.003906	55588.097656
756.810547	55891.250000
755.616211	56458.882813
754.421875	56385.281250
753.227539	56578.238281
752.033203	56232.050781
750.838867	56152.425781
749.643555	55940.648438
748.448242	55733.019531
747.252930	55651.488281
746.057617	55529.339844
744.861328	55289.378906
743.665039	54346.585938
742.468750	54511.136719
741.272461	54515.191406
740.075195	54155.796875
738.878906	54050.289063
737.681641	53959.023438
736.484375	53863.734375
735.286133	54048.464844
734.087891	54050.558594
732.890625	53888.367188
731.691406	54008.097656
730.493164	53551.992188
729.294922	53665.652344
728.095703	53730.628906
726.896484	53230.250000
725.696289	53894.941406
724.497070	52979.480469
723.296875	53398.925781
722.096680	53755.445313
720.896484	53492.367188
719.696289	53528.937500
718.495117	53247.781250
717.293945	53917.656250
716.092773	53561.679688
714.891602	53491.007813
713.689453	53695.367188
712.487305	53382.082031
711.285156	53620.746094
710.083008	53717.847656
708.880859	53796.722656
707.677734	53606.875000
706.474609	53667.562500
705.271484	53467.707031
704.068359	53887.789063
702.864258	53540.597656
701.660156	53611.332031
700.456055	53686.074219
699.251953	53389.546875
698.046875	53635.757813
696.841797	53524.894531
695.636719	53309.214844
694.431641	53992.785156
693.226563	53855.707031
692.020508	53817.429688
690.814453	53946.402344
689.608398	53771.125000
688.402344	54339.148438
687.195313	54129.621094
685.988281	54115.476563
684.781250	54356.992188
683.574219	54338.781250
682.366211	54346.730469
681.158203	54175.613281
679.950195	54732.746094
678.742188	54959.828125
677.534180	54382.500000
676.325195	54844.781250
675.116211	55208.394531
673.907227	54888.578125
672.697266	54914.476563
671.488281	55530.992188
670.278320	54835.683594
669.068359	54486.039063
667.858398	54879.414063
666.647461	54590.109375
665.436523	54341.054688
664.225586	53985.734375
663.014648	54172.250000
661.802734	53686.703125
660.591797	53851.136719
659.379883	53975.402344
658.167969	53802.910156
656.955078	53482.148438
655.743164	53570.332031
654.530273	53245.726563
653.317383	53838.750000
652.103516	53147.671875
650.890625	53171.761719
649.676758	53670.355469
648.462891	53131.824219
647.249023	53534.167969
646.034180	53488.117188
644.819336	53612.144531
643.604492	53244.042969
642.389648	53268.066406
641.174805	53076.125000
639.958984	53372.054688
638.743164	53440.003906
637.527344	53525.914063
636.311523	53683.718750
635.094727	53557.789063
633.877930	53807.398438
632.661133	53537.710938
631.444336	53152.320313
630.226563	53533.609375
629.008789	53511.593750
627.791016	53371.859375
626.573242	53571.332031
625.355469	53104.500000
624.136719	53078.585938
622.917969	53180.292969
621.699219	52685.878906
620.480469	53333.750000
619.260742	53349.652344
618.041016	52877.394531
616.821289	53377.445313
615.601563	53174.234375
614.380859	52987.027344
613.160156	52781.972656
611.939453	53094.539063
610.718750	53000.984375
609.497070	53448.695313
608.276367	52863.710938
607.054688	52585.265625
605.832031	52881.652344
604.610352	52935.351563
603.387695	52961.195313
602.165039	52937.335938
600.942383	53082.398438
599.719727	53269.128906
598.496094	52839.980469
597.272461	52824.097656
596.048828	52814.175781
594.825195	52867.785156
593.600586	52859.839844
592.375977	52621.679688
591.151367	52853.867188
589.926758	52822.113281
588.701172	52453.179688
587.476563	53115.597656
586.250977	52457.261719
585.024414	53077.792969
583.798828	52992.500000
582.572266	52499.027344
581.345703	52475.289063
580.119141	53067.609375
578.892578	52851.660156
577.665039	52738.757813
576.437500	52582.339844
575.209961	53229.605469
573.982422	52993.988281
572.753906	53106.699219
571.525391	53053.191406
570.296875	53130.238281
569.068359	52799.886719
567.838867	53145.839844
566.610352	52740.488281
565.380859	53084.343750
564.150391	52817.468750
562.920898	53046.585938
561.690430	53127.468750
560.459961	53046.375000
559.229492	52866.578125
557.999023	52586.167969
556.767578	52791.414063
555.536133	52848.574219
554.304688	53262.835938
553.073242	53126.554688
551.840820	52944.960938
550.608398	52850.199219
549.375977	52676.605469
548.143555	52769.191406
546.910156	52881.445313
545.676758	52570.003906
544.443359	52759.082031
543.209961	52701.871094
541.975586	52599.386719
540.742188	52680.050781
539.507813	52735.089844
538.272461	52760.582031
537.038086	52453.492188
535.802734	52660.035156
534.567383	53017.964844
533.332031	53019.773438
532.096680	52640.101563
530.860352	52620.347656
529.624023	52806.996094
528.387695	52555.312500
527.151367	52997.332031
525.914063	52967.695313
524.676758	52460.777344
523.439453	52953.613281
522.202148	52733.542969
520.963867	53039.648438
519.725586	53057.125000
518.487305	52613.449219
517.249023	52487.769531
516.009766	52883.914063
514.771484	52815.101563
513.532227	52381.601563
512.291992	52579.527344
511.052734	53243.875000
509.812500	52785.054688
508.572266	53035.687500
507.332031	52371.378906
506.090820	52420.253906
504.850586	52457.359375
503.609375	52664.781250
502.368164	52950.421875
501.125977	52263.257813
499.884766	52771.933594
498.642578	52973.261719
497.400391	53035.632813
496.157227	52669.691406
494.915039	52902.199219
493.671875	52931.308594
492.428711	52981.902344
491.184570	53403.769531
489.941406	52905.230469
488.697266	53289.828125
487.453125	53658.660156
486.208984	53097.859375
484.963867	53171.777344
483.718750	53460.382813
482.473633	53276.585938
481.228516	53059.691406
479.982422	53510.066406
478.737305	53441.437500
477.491211	53400.132813
476.244141	53366.644531
474.998047	53407.238281
473.750977	53387.398438
472.503906	54299.015625
471.256836	53799.730469
470.009766	53959.027344
468.761719	53746.277344
467.513672	54071.027344
466.265625	54397.597656
465.017578	54254.953125
463.768555	54688.394531
462.519531	54302.531250
461.270508	55142.367188
460.021484	55316.707031
458.771484	55477.363281
457.521484	55964.589844
456.271484	55812.097656
455.021484	55844.292969
453.770508	56068.843750
452.519531	56433.183594
451.268555	56776.019531
450.017578	57192.515625
448.765625	57575.847656
447.514648	57510.589844
446.262695	58633.199219
445.009766	58971.398438
443.757813	59146.488281
442.504883	59449.539063
441.251953	59290.882813
439.999023	58783.250000
438.745117	58655.792969
437.492188	57437.093750
436.238281	56846.757813
434.983398	56715.855469
433.729492	55474.960938
432.474609	55369.542969
431.219727	55268.039063
429.964844	55025.226563
428.709961	54836.707031
427.454102	54450.847656
426.198242	54711.433594
424.942383	54753.300781
423.685547	54361.863281
422.429688	54264.531250
421.172852	54366.390625
419.916016	54182.093750
418.658203	54202.750000
417.401367	54014.683594
416.143555	54640.105469
414.885742	54455.886719
413.626953	54244.695313
412.369141	54431.371094
411.110352	54639.210938
409.851563	54569.007813
408.591797	54630.062500
407.333008	54366.929688
406.073242	54406.773438
404.813477	54315.437500
403.553711	54077.574219
402.292969	54427.867188
401.032227	53999.222656
