#Wave		#Intensity
2001.221680	41257.226563
2000.251953	41811.167969
1999.282227	41305.160156
1998.312500	41763.996094
1997.342773	41583.847656
1996.372070	41646.722656
1995.402344	41519.242188
1994.431641	41479.441406
1993.460938	41474.703125
1992.490234	41620.144531
1991.518555	41652.917969
1990.547852	41955.910156
1989.576172	41883.539063
1988.604492	41528.546875
1987.632813	41648.835938
1986.661133	41939.105469
1985.689453	41231.792969
1984.716797	42019.437500
1983.745117	42054.582031
1982.772461	41642.453125
1981.799805	41742.601563
1980.827148	42227.367188
1979.853516	41365.902344
1978.880859	41688.261719
1977.907227	41773.347656
1976.933594	42162.914063
1975.959961	41908.484375
1974.986328	41476.984375
1974.011719	42038.527344
1973.038086	41617.128906
1972.063477	42175.957031
1971.088867	41981.578125
1970.114258	42046.539063
1969.138672	42390.632813
1968.164063	42143.980469
1967.188477	42228.804688
1966.212891	42223.910156
1965.237305	42156.750000
1964.261719	42361.058594
1963.286133	42219.195313
1962.309570	42585.234375
1961.333984	42284.078125
1960.357422	42214.464844
1959.380859	42495.710938
1958.404297	42130.042969
1957.426758	42674.855469
1956.450195	42587.808594
1955.472656	42262.093750
1954.495117	42296.960938
1953.517578	42485.921875
1952.540039	42351.746094
1951.561523	42391.546875
1950.583008	42806.453125
1949.605469	43007.605469
1948.626953	42828.722656
1947.647461	42803.843750
1946.668945	42846.003906
1945.690430	43104.089844
1944.710938	42905.457031
1943.731445	43133.660156
1942.751953	42662.203125
1941.772461	42982.140625
1940.791992	42803.500000
1939.812500	43165.449219
1938.832031	42550.523438
1937.851563	43222.214844
1936.871094	43172.515625
1935.890625	42998.945313
1934.909180	43132.625000
1933.928711	43053.238281
1932.947266	43137.328125
1931.965820	43161.960938
1930.984375	43238.570313
1930.002930	42834.972656
1929.020508	42785.398438
1928.038086	42931.304688
1927.056641	42938.628906
1926.074219	42987.992188
1925.090820	43094.218750
1924.108398	43131.171875
1923.125000	43046.980469
1922.142578	43022.132813
1921.159180	43345.742188
1920.175781	43160.246094
1919.191406	43076.097656
1918.208008	43105.597656
1917.223633	43265.968750
1916.240234	43297.890625
1915.255859	43270.550781
1914.271484	43450.546875
1913.286133	43314.605469
1912.301758	43474.789063
1911.316406	43403.027344
1910.331055	43380.617188
1909.345703	43229.980469
1908.360352	43254.453125
1907.375000	43059.511719
1906.388672	43345.265625
1905.402344	43598.882813
1904.416016	43591.234375
1903.429688	43292.898438
1902.443359	43780.375000
1901.457031	43213.683594
1900.469727	43319.359375
1899.482422	43442.234375
1898.495117	43656.128906
1897.507813	43456.519531
1896.520508	43325.871094
1895.532227	43694.648438
1894.543945	43746.011719
1893.556641	43767.843750
1892.568359	43354.476563
1891.579102	43339.492188
1890.590820	43373.667969
1889.601563	43240.722656
1888.613281	43582.027344
1887.624023	43127.281250
1886.634766	43677.250000
1885.644531	43699.050781
1884.655273	44069.488281
1883.665039	43668.976563
1882.674805	44002.468750
1881.684570	43746.890625
1880.694336	43923.222656
1879.704102	43871.355469
1878.712891	43606.117188
1877.722656	43733.332031
1876.731445	43889.921875
1875.740234	44218.050781
1874.748047	43911.265625
1873.756836	43763.875000
1872.764648	43851.738281
1871.773438	44000.812500
1870.781250	44372.710938
1869.788086	44031.878906
1868.795898	44171.042969
1867.803711	44346.875000
1866.810547	44299.921875
1865.817383	44184.464844
1864.824219	44257.437500
1863.831055	44460.035156
1862.837891	44285.906250
1861.843750	44586.234375
1860.849609	44267.890625
1859.855469	44323.664063
1858.861328	44826.683594
1857.867188	44718.613281
1856.872070	44652.113281
1855.877930	44873.882813
1854.882813	44980.781250
1853.887695	44572.394531
1852.892578	44642.683594
1851.896484	44859.410156
1850.901367	44565.964844
1849.905273	44445.878906
1848.909180	44696.675781
1847.913086	44754.675781
1846.916992	44993.132813
1845.919922	45416.828125
1844.923828	45048.007813
1843.926758	45298.468750
1842.929688	44898.109375
1841.932617	45336.136719
1840.935547	45276.996094
1839.937500	45273.898438
1838.939453	45528.964844
1837.942383	45311.535156
1836.943359	45551.894531
1835.945313	45711.835938
1834.947266	45813.308594
1833.948242	45235.839844
1832.949219	45763.117188
1831.951172	45414.511719
1830.951172	45674.042969
1829.952148	45648.980469
1828.953125	45594.750000
1827.953125	45567.273438
1826.953125	45632.160156
1825.953125	45910.855469
1824.953125	45897.910156
1823.952148	45523.039063
1822.952148	45733.597656
1821.951172	45800.812500
1820.950195	46346.281250
1819.949219	45779.824219
1818.948242	45914.949219
1817.946289	46299.949219
1816.945313	45505.746094
1815.943359	45970.726563
1814.941406	45761.335938
1813.939453	45801.765625
1812.936523	46348.875000
1811.934570	46025.593750
1810.931641	45760.589844
1809.928711	46363.140625
1808.925781	46258.062500
1807.921875	45922.906250
1806.918945	46425.812500
1805.915039	46514.480469
1804.912109	46063.250000
1803.908203	45941.363281
1802.903320	46349.519531
1801.899414	46583.312500
1800.894531	46461.394531
1799.890625	46223.414063
1798.885742	46282.976563
1797.880859	47055.812500
1796.875000	46764.660156
1795.870117	46983.621094
1794.864258	46731.250000
1793.858398	46884.894531
1792.852539	47200.343750
1791.846680	47554.324219
1790.840820	47364.812500
1789.833984	47235.730469
1788.828125	47797.125000
1787.821289	47257.679688
1786.814453	47401.375000
1785.806641	47545.019531
1784.799805	47616.238281
1783.791992	47727.164063
1782.784180	47838.093750
1781.776367	47949.023438
1780.768555	48059.949219
1779.760742	48087.621094
1778.751953	47746.570313
1777.743164	47947.761719
1776.735352	48042.882813
1775.725586	48183.734375
1774.716797	47992.203125
1773.708008	48429.160156
1772.698242	48386.906250
1771.688477	48768.277344
1770.678711	48668.218750
1769.668945	48628.343750
1768.659180	48554.804688
1767.648438	48745.855469
1766.637695	48732.437500
1765.626953	49298.460938
1764.616211	49183.980469
1763.605469	49028.679688
1762.593750	48820.562500
1761.583008	48831.156250
1760.571289	49893.914063
1759.559570	48972.417969
1758.547852	49405.613281
1757.535156	49721.007813
1756.523438	49918.667969
1755.510742	49674.632813
1754.498047	50090.593750
1753.485352	50048.152344
1752.472656	50245.601563
1751.458984	50459.769531
1750.445313	50024.007813
1749.432617	50216.558594
1748.417969	50490.539063
1747.404297	50644.585938
1746.390625	50748.257813
1745.375977	50667.406250
1744.361328	51144.718750
1743.346680	51298.531250
1742.332031	51243.960938
1741.317383	51898.078125
1740.302734	52499.300781
1739.287109	51726.546875
1738.271484	51851.398438
1737.255859	52069.507813
1736.240234	52285.148438
1735.223633	52890.539063
1734.208008	52905.093750
1733.191406	53333.242188
1732.174805	53538.937500
1731.158203	54172.351563
1730.140625	54597.652344
1729.124023	54420.753906
1728.106445	55034.558594
1727.088867	55187.214844
1726.071289	55719.480469
1725.053711	55926.867188
1724.035156	55921.738281
1723.017578	56501.316406
1721.999023	56885.019531
1720.980469	56648.304688
1719.961914	57222.667969
1718.942383	57405.707031
1717.923828	57259.628906
1716.904297	56918.109375
1715.884766	57425.265625
1714.865234	57455.609375
1713.844727	57307.234375
1712.825195	58068.953125
1711.804688	57453.664063
1710.784180	57403.000000
1709.763672	57335.687500
1708.743164	57520.738281
1707.722656	57386.968750
1706.701172	57253.070313
1705.679688	57119.175781
1704.658203	56985.277344
1703.636719	56851.378906
1702.615234	57014.902344
1701.592773	56674.300781
1700.571289	56455.054688
1699.548828	57124.824219
1698.526367	56836.656250
1697.502930	56617.492188
1696.480469	56521.933594
1695.457031	56274.398438
1694.433594	56183.679688
1693.410156	56373.160156
1692.386719	55980.968750
1691.363281	56262.976563
1690.338867	56722.859375
1689.314453	56233.531250
1688.290039	55995.824219
1687.265625	55905.253906
1686.241211	56274.753906
1685.215820	56523.203125
1684.191406	56387.539063
1683.166016	56432.046875
1682.140625	56391.226563
1681.115234	56329.097656
1680.088867	56927.894531
1679.062500	57197.265625
1678.037109	56604.589844
1677.010742	57098.835938
1675.983398	57083.968750
1674.957031	56839.531250
1673.930664	56990.351563
1672.903320	57046.480469
1671.875977	57455.042969
1670.848633	57546.539063
1669.820313	57983.242188
1668.792969	58244.832031
1667.764648	58210.851563
1666.736328	57822.375000
1665.708008	57852.277344
1664.679688	58113.695313
1663.651367	58112.824219
1662.622070	58059.992188
1661.592773	58526.660156
1660.563477	58410.023438
1659.534180	58390.207031
1658.504883	58509.636719
1657.474609	58985.320313
1656.444336	59099.878906
1655.415039	59082.300781
1654.383789	59196.796875
1653.353516	59306.531250
1652.323242	59345.500000
1651.291992	59554.164063
1650.260742	59965.425781
1649.229492	59660.234375
1648.198242	59800.406250
1647.166016	60322.097656
1646.134766	60389.089844
1645.102539	60347.746094
1644.070313	60958.515625
1643.038086	60493.406250
1642.004883	60692.097656
1640.972656	61276.589844
1639.939453	60908.117188
1638.906250	60946.679688
1637.873047	61803.601563
1636.839844	61684.453125
1635.805664	61624.113281
1634.772461	61763.578125
1633.738281	62246.089844
1632.704102	62505.214844
1631.668945	62841.769531
1630.634766	63131.226563
1629.599609	63225.667969
1628.565430	63686.343750
1627.530273	63545.902344
1626.494141	63842.058594
1625.458984	64461.941406
1624.422852	64710.898438
1623.387695	65285.832031
1622.351563	66207.671875
1621.315430	66866.546875
1620.278320	68064.429688
1619.242188	69402.531250
1618.205078	70219.851563
1617.167969	72337.398438
1616.130859	73631.851563
1615.093750	76277.429688
1614.055664	78371.679688
1613.018555	80322.351563
1611.980469	82698.414063
1610.942383	82278.734375
1609.904297	82928.750000
1608.865234	82649.562500
1607.827148	81579.710938
1606.788086	80281.000000
1605.749023	77733.882813
1604.709961	76494.773438
1603.669922	74225.101563
1602.630859	72517.218750
1601.590820	71349.804688
1600.550781	70745.929688
1599.510742	69656.328125
1598.470703	68987.562500
1597.429688	68305.015625
1596.389648	68155.078125
1595.348633	67561.632813
1594.307617	67215.812500
1593.265625	66856.109375
1592.224609	66916.523438
1591.182617	67079.562500
1590.140625	66801.703125
1589.098633	66612.554688
1588.056641	66747.570313
1587.014648	66616.781250
1585.971680	66532.648438
1584.928711	67082.406250
1583.886719	67170.632813
1582.842773	66946.664063
1581.799805	66776.343750
1580.755859	67470.031250
1579.712891	67416.085938
1578.668945	66873.304688
1577.625000	67480.484375
1576.580078	67594.109375
1575.536133	67744.914063
1574.491211	67935.210938
1573.446289	68211.484375
1572.401367	68155.132813
1571.356445	68728.867188
1570.311523	68718.929688
1569.265625	68702.015625
1568.219727	68594.484375
1567.173828	68798.304688
1566.127930	68358.609375
1565.082031	68378.921875
1564.035156	67358.937500
1562.988281	67750.882813
1561.941406	67316.320313
1560.894531	68587.718750
1559.847656	67786.531250
1558.799805	67985.546875
1557.751953	68186.812500
1556.704102	68513.234375
1555.656250	67898.117188
1554.608398	67742.257813
1553.560547	68094.070313
1552.511719	67908.093750
1551.462891	68174.015625
1550.414063	67571.078125
1549.365234	68568.906250
1548.315430	68234.750000
1547.265625	68176.250000
1546.216797	68515.960938
1545.166992	68425.015625
1544.116211	68327.164063
1543.066406	68467.664063
1542.015625	68490.132813
1540.965820	68223.460938
1539.915039	68609.023438
1538.863281	68199.078125
1537.812500	68355.640625
1536.760742	67920.445313
1535.709961	67492.343750
1534.658203	67360.132813
1533.605469	67348.085938
1532.553711	66957.257813
1531.501953	66871.390625
1530.449219	66713.976563
1529.396484	66124.937500
1528.343750	66034.640625
1527.290039	65605.156250
1526.237305	65152.746094
1525.183594	65254.121094
1524.129883	64854.980469
1523.076172	64792.648438
1522.022461	64721.113281
1520.968750	64721.058594
1519.914063	64211.660156
1518.859375	64455.949219
1517.804688	63808.539063
1516.750000	64757.671875
1515.694336	64545.714844
1514.639648	64495.019531
1513.583984	64099.000000
1512.528320	64361.445313
1511.472656	64135.894531
1510.416016	64586.914063
1509.360352	64292.378906
1508.303711	64170.460938
1507.247070	64540.734375
1506.190430	64582.062500
1505.132813	63844.031250
1504.076172	63832.597656
1503.018555	64007.316406
1501.960938	63646.601563
1500.903320	63274.527344
1499.844727	63904.023438
1498.787109	63798.421875
1497.728516	63392.070313
1496.669922	63511.566406
1495.611328	63536.914063
1494.552734	63247.855469
1493.493164	63404.015625
1492.434570	63466.062500
1491.375000	63674.875000
1490.315430	62938.820313
1489.254883	63129.304688
1488.195313	62778.718750
1487.134766	63422.968750
1486.074219	62907.460938
1485.013672	62639.578125
1483.953125	63100.238281
1482.892578	62910.281250
1481.831055	62828.015625
1480.769531	62299.328125
1479.708008	62672.722656
1478.646484	62636.308594
1477.583984	62419.132813
1476.522461	62707.648438
1475.459961	62829.074219
1474.397461	62783.500000
1473.334961	63115.234375
1472.271484	63113.058594
1471.208984	63636.613281
1470.145508	63046.996094
1469.082031	63563.515625
1468.018555	63654.914063
1466.954102	63371.679688
1465.890625	62898.992188
1464.826172	63513.339844
1463.761719	63693.710938
1462.697266	64175.304688
1461.631836	64229.968750
1460.567383	63748.410156
1459.501953	63768.906250
1458.436523	64236.445313
1457.371094	64272.804688
1456.305664	64398.070313
1455.239258	64071.914063
1454.172852	63878.074219
1453.107422	64493.281250
1452.040039	64281.203125
1450.973633	64349.390625
1449.907227	63880.035156
1448.839844	64364.992188
1447.772461	64453.609375
1446.705078	65086.250000
1445.637695	64990.347656
1444.569336	65042.390625
1443.500977	64880.546875
1442.432617	65291.992188
1441.364258	65139.253906
1440.295898	65364.039063
1439.227539	65979.789063
1438.158203	66017.937500
1437.088867	66476.523438
1436.019531	66471.398438
1434.950195	67027.421875
1433.879883	66452.046875
1432.810547	66696.734375
1431.740234	67275.117188
1430.669922	67238.054688
1429.598633	67198.726563
1428.528320	67951.445313
1427.457031	67669.210938
1426.386719	67670.656250
1425.314453	67211.656250
1424.243164	67442.226563
1423.171875	66285.062500
1422.099609	66184.726563
1421.027344	66617.070313
1419.955078	66344.484375
1418.882813	65938.304688
1417.810547	66116.734375
1416.737305	65733.390625
1415.664063	66274.117188
1414.590820	66373.132813
1413.517578	66544.554688
1412.444336	66179.500000
1411.370117	66298.843750
1410.295898	66246.187500
1409.221680	66082.703125
1408.147461	65946.421875
1407.073242	66395.851563
1405.998047	66137.468750
1404.922852	66609.304688
1403.847656	66870.781250
1402.772461	66960.429688
1401.697266	66889.632813
1400.621094	67157.687500
1399.544922	66865.546875
1398.468750	67074.796875
1397.392578	67372.007813
1396.316406	67267.328125
1395.239258	67751.718750
1394.162109	68075.718750
1393.084961	67910.046875
1392.007813	68653.437500
1390.930664	69342.437500
1389.852539	69444.937500
1388.774414	69806.656250
1387.696289	69442.460938
1386.618164	70453.062500
1385.540039	71217.710938
1384.460938	71488.718750
1383.382813	72095.234375
1382.303711	72336.710938
1381.223633	72562.335938
1380.144531	72641.554688
1379.064453	72912.054688
1377.985352	73994.812500
1376.905273	73457.242188
1375.825195	73304.531250
1374.744141	73093.398438
1373.664063	72549.523438
1372.583008	72529.703125
1371.501953	72170.453125
1370.420898	71714.679688
1369.338867	71292.781250
1368.257813	70482.359375
1367.175781	70712.242188
1366.093750	70796.062500
1365.011719	70352.164063
1363.929688	69782.703125
1362.846680	69830.718750
1361.763672	69021.421875
1360.680664	69100.968750
1359.597656	68994.273438
1358.514648	69091.734375
1357.430664	68500.671875
1356.346680	68302.203125
1355.262695	68135.195313
1354.178711	68201.343750
1353.094727	67657.921875
1352.009766	67493.351563
1350.925781	67546.132813
1349.840820	67937.101563
1348.755859	67398.578125
1347.669922	67072.953125
1346.584961	67488.414063
1345.499023	67207.648438
1344.413086	66853.132813
1343.327148	67472.000000
1342.240234	67052.687500
1341.154297	66814.687500
1340.067383	67307.984375
1338.980469	67253.351563
1337.893555	66568.367188
1336.805664	67275.992188
1335.718750	67176.687500
1334.630859	67318.710938
1333.542969	66946.914063
1332.455078	67327.882813
1331.367188	67382.703125
1330.278320	67207.554688
1329.189453	67106.125000
1328.100586	67489.007813
1327.011719	67126.500000
1325.922852	67866.179688
1324.833008	67465.804688
1323.743164	66927.304688
1322.653320	68161.601563
1321.563477	67558.523438
1320.473633	67856.125000
1319.382813	67527.406250
1318.291992	67675.617188
1317.201172	67846.054688
1316.110352	67822.648438
1315.019531	67897.226563
1313.927734	68080.875000
1312.835938	68088.601563
1311.744141	68056.250000
1310.652344	68682.593750
1309.560547	68098.375000
1308.467773	68444.195313
1307.375000	68712.039063
1306.282227	68659.585938
1305.189453	68636.046875
1304.095703	68350.218750
1303.002930	69055.695313
1301.909180	69098.750000
1300.815430	69041.812500
1299.721680	69326.960938
1298.626953	69032.367188
1297.533203	69224.148438
1296.438477	69262.679688
1295.343750	69620.820313
1294.248047	69748.023438
1293.153320	69919.554688
1292.057617	69789.320313
1290.961914	70060.593750
1289.866211	70458.164063
1288.770508	70598.390625
1287.674805	70634.375000
1286.578125	70719.101563
1285.481445	70402.703125
1284.384766	70990.382813
1283.288086	70795.875000
1282.190430	70665.664063
1281.092773	69643.093750
1279.996094	69429.000000
1278.897461	69648.843750
1277.799805	69627.375000
1276.702148	69198.750000
1275.603516	69018.070313
1274.504883	69222.335938
1273.406250	68986.414063
1272.307617	68284.015625
1271.208008	68494.929688
1270.108398	67969.703125
1269.008789	68118.710938
1267.909180	67896.453125
1266.809570	67557.179688
1265.708984	67620.031250
1264.609375	67247.796875
1263.508789	67156.117188
1262.407227	67024.726563
1261.306641	66432.078125
1260.206055	66514.921875
1259.104492	66348.414063
1258.002930	65904.000000
1256.901367	65936.164063
1255.798828	65818.351563
1254.697266	65524.195313
1253.594727	65084.656250
1252.492188	65553.320313
1251.389648	65340.894531
1250.286133	65309.210938
1249.183594	65409.699219
1248.080078	65122.531250
1246.976563	64564.617188
1245.872070	65061.464844
1244.768555	64556.589844
1243.664063	64839.777344
1242.560547	64845.609375
1241.455078	64079.238281
1240.350586	64245.769531
1239.246094	64399.046875
1238.140625	64572.050781
1237.035156	64081.074219
1235.929688	64289.238281
1234.824219	63756.730469
1233.717773	63874.785156
1232.612305	63878.562500
1231.505859	63524.320313
1230.399414	63547.917969
1229.291992	63876.691406
1228.185547	63520.441406
1227.078125	63822.757813
1225.970703	63444.695313
1224.863281	63209.375000
1223.755859	63217.632813
1222.647461	62837.683594
1221.539063	63225.355469
1220.430664	63338.832031
1219.322266	62976.597656
1218.213867	62881.871094
1217.104492	62929.601563
1215.995117	62526.003906
1214.885742	62777.488281
1213.776367	62579.921875
1212.666992	62645.183594
1211.556641	62734.496094
1210.446289	62755.921875
1209.335938	63068.394531
1208.225586	62689.335938
1207.115234	63395.480469
1206.003906	62749.648438
1204.892578	62659.507813
1203.781250	63159.738281
1202.669922	63194.156250
1201.557617	63162.988281
1200.446289	63479.281250
1199.333984	63314.792969
1198.221680	63530.457031
1197.108398	63839.953125
1195.996094	63642.722656
1194.882813	63775.234375
1193.769531	64014.656250
1192.656250	64256.171875
1191.542969	64390.675781
1190.428711	64272.050781
1189.314453	64249.445313
1188.200195	64072.000000
1187.085938	64254.398438
1185.971680	64297.199219
1184.856445	63934.562500
1183.741211	64134.312500
1182.625977	64255.546875
1181.510742	64494.371094
1180.395508	63888.003906
1179.279297	64015.738281
1178.163086	64639.851563
1177.046875	64049.019531
1175.930664	64668.539063
1174.813477	64339.046875
1173.697266	64649.328125
1172.580078	64150.277344
1171.462891	63299.066406
1170.344727	63413.656250
1169.227539	63591.246094
1168.109375	63240.554688
1166.991211	63126.882813
1165.873047	63573.867188
1164.754883	63240.742188
1163.635742	63502.906250
1162.516602	63150.363281
1161.397461	62704.578125
1160.278320	63442.128906
1159.159180	63185.285156
1158.039063	63351.718750
1156.918945	62858.476563
1155.798828	63137.707031
1154.678711	63019.914063
1153.558594	62947.699219
1152.437500	63367.687500
1151.316406	63126.343750
1150.195313	62993.453125
1149.074219	62581.062500
1147.952148	63139.464844
1146.831055	63483.207031
1145.708984	63090.437500
1144.586914	64103.171875
1143.463867	63714.757813
1142.341797	64127.402344
1141.218750	64749.820313
1140.095703	64889.472656
1138.972656	64853.828125
1137.849609	65077.765625
1136.725586	65578.437500
1135.601563	65306.992188
1134.477539	65669.070313
1133.353516	65423.644531
1132.229492	65061.601563
1131.104492	64859.578125
1129.979492	64998.957031
1128.854492	65172.835938
1127.729492	65368.246094
1126.603516	64922.328125
1125.478516	65072.371094
1124.352539	64609.394531
1123.226563	64202.691406
1122.099609	64879.214844
1120.973633	64485.546875
1119.846680	64227.898438
1118.719727	63623.164063
1117.592773	63499.429688
1116.465820	63586.980469
1115.337891	63810.273438
1114.209961	63124.167969
1113.082031	63489.644531
1111.954102	63928.222656
1110.826172	63167.085938
1109.697266	63278.273438
1108.568359	63240.871094
1107.439453	62906.445313
1106.310547	62569.988281
1105.180664	62694.097656
1104.051758	63170.964844
1102.921875	63105.640625
1101.791992	62913.464844
1100.661133	63200.812500
1099.531250	63141.960938
1098.400391	63139.007813
1097.269531	63800.054688
1096.138672	63296.382813
1095.006836	62921.777344
1093.875977	63118.589844
1092.744141	62911.636719
1091.612305	62599.558594
1090.480469	62579.515625
1089.347656	62147.421875
1088.215820	62140.339844
1087.083008	62231.945313
1085.950195	61828.027344
1084.816406	61921.792969
1083.683594	61914.746094
1082.549805	62462.933594
1081.416016	61990.671875
1080.282227	61975.039063
1079.148438	62010.828125
1078.013672	61641.726563
1076.878906	62131.617188
1075.744141	62338.664063
1074.609375	61873.351563
1073.474609	61671.503906
1072.338867	62118.214844
1071.203125	61616.812500
1070.067383	62007.742188
1068.931641	62223.125000
1067.794922	61732.660156
1066.659180	62157.558594
1065.522461	61620.250000
1064.385742	61566.207031
1063.248047	61982.347656
1062.111328	62011.585938
1060.973633	61799.406250
1059.835938	61929.050781
1058.698242	61601.636719
1057.559570	61823.078125
1056.421875	61971.847656
1055.283203	61975.429688
1054.144531	62527.433594
1053.005859	61555.859375
1051.866211	62041.605469
1050.726563	62337.347656
1049.587891	62577.542969
1048.447266	62090.625000
1047.307617	62607.878906
1046.167969	62415.242188
1045.027344	62478.371094
1043.886719	62347.605469
1042.746094	62772.828125
1041.604492	62531.308594
1040.463867	62683.789063
1039.322266	62476.429688
1038.180664	62190.390625
1037.038086	61985.320313
1035.896484	62288.847656
1034.753906	62641.187500
1033.611328	62562.777344
1032.468750	62484.371094
1031.326172	62405.960938
1030.182617	62327.484375
1029.040039	62249.078125
1027.896484	62170.601563
1026.751953	62188.929688
1025.608398	62256.109375
1024.463867	62410.332031
1023.319336	62271.464844
1022.174805	62474.457031
1021.030273	62552.132813
1019.885742	62188.347656
1018.740234	62567.347656
1017.594727	62848.617188
1016.449219	62652.539063
1015.303711	62554.078125
1014.157227	62379.324219
1013.010742	62238.546875
1011.864258	62229.230469
1010.717773	62429.707031
1009.571289	62382.214844
1008.423828	61925.894531
1007.276367	61908.160156
1006.128906	62235.593750
1004.981445	61976.441406
1003.833008	62777.898438
1002.684570	62785.406250
1001.536133	63029.902344
1000.387695	63344.121094
999.239258	62930.574219
998.089844	63100.882813
996.941406	62953.953125
995.791992	63052.304688
994.641602	63209.804688
993.492188	63316.523438
992.341797	62894.972656
991.191406	62853.824219
990.041016	62607.816406
988.890625	63147.464844
987.739258	62971.160156
986.588867	63949.617188
985.437500	63682.468750
984.285156	63529.367188
983.133789	63524.003906
981.981445	63261.292969
980.829102	63568.113281
979.676758	62729.828125
978.524414	62967.054688
977.372070	63086.148438
976.218750	63302.140625
975.065430	63176.703125
973.912109	63375.742188
972.757813	63379.859375
971.604492	63383.972656
970.450195	63388.089844
969.295898	63392.203125
968.141602	63396.320313
966.986328	63400.441406
965.832031	63334.062500
964.676758	63137.277344
963.521484	63180.328125
962.365234	62685.042969
961.209961	62694.515625
960.053711	62628.312500
958.897461	62843.750000
957.741211	63269.234375
956.584961	63299.589844
955.427734	63353.039063
954.270508	63568.175781
953.113281	63237.300781
951.956055	63404.085938
950.797852	62869.761719
949.639648	62971.492188
948.481445	62764.753906
947.323242	62662.976563
946.165039	62666.101563
945.005859	62472.105469
943.847656	62370.429688
942.687500	62430.199219
941.528320	61825.558594
940.369141	62101.234375
939.208984	62577.933594
938.048828	62388.339844
936.888672	62372.644531
935.728516	62111.957031
934.567383	61746.691406
933.406250	62287.890625
932.245117	62747.265625
931.083984	62949.109375
929.922852	62707.375000
928.760742	62555.664063
927.598633	63665.007813
926.436523	62662.203125
925.274414	63148.164063
924.111328	63105.156250
922.948242	63277.394531
921.785156	63426.589844
920.622070	63945.457031
919.458984	63453.292969
918.294922	64040.867188
917.130859	64139.691406
915.966797	64461.824219
914.802734	64606.441406
913.637695	64542.343750
912.472656	65469.210938
911.307617	64964.863281
910.142578	65359.523438
908.977539	65533.015625
907.811523	65994.125000
906.645508	66021.531250
905.479492	65907.218750
904.313477	65859.625000
903.146484	65941.195313
901.980469	65093.828125
900.813477	65408.726563
899.646484	64559.683594
898.478516	64543.585938
897.311523	64404.703125
896.143555	65027.441406
894.975586	65109.039063
893.806641	64541.628906
892.638672	64313.410156
891.469727	64480.335938
890.300781	64131.628906
889.131836	64211.222656
887.962891	64459.113281
886.792969	64310.058594
885.623047	64638.847656
884.453125	64639.351563
883.283203	64560.941406
882.112305	64418.195313
880.942383	64219.453125
879.771484	64882.085938
878.600586	64986.281250
877.428711	65308.277344
876.257813	65879.062500
875.085938	65854.421875
873.914063	65566.460938
872.741211	65977.242188
871.569336	66139.140625
870.396484	66085.445313
869.223633	66180.953125
868.050781	65868.320313
866.877930	66305.578125
865.704102	67117.484375
864.530273	66858.671875
863.356445	67223.039063
862.182617	67906.000000
861.007813	67835.484375
859.833984	68907.023438
858.659180	68281.976563
857.484375	68575.414063
856.308594	68159.492188
855.133789	68328.796875
853.958008	67284.703125
852.782227	67325.968750
851.605469	67148.195313
850.429688	67278.296875
849.252930	67123.312500
848.076172	67887.335938
846.899414	67439.101563
845.722656	67882.812500
844.544922	68095.195313
843.367188	69060.695313
842.189453	68587.804688
841.011719	69559.031250
839.833008	70173.101563
838.655273	71083.875000
837.476563	71658.257813
836.296875	72525.125000
835.118164	72458.085938
833.938477	72007.828125
832.758789	71380.554688
831.579102	71348.773438
830.399414	70686.851563
829.219727	69878.976563
828.039063	69437.828125
826.858398	68486.406250
825.677734	67716.421875
824.496094	67728.546875
823.315430	66870.531250
822.133789	66502.312500
820.952148	66144.515625
819.769531	66210.359375
818.587891	65474.523438
817.405273	65392.496094
816.222656	65088.578125
815.040039	64809.425781
813.856445	64974.035156
812.673828	64754.554688
811.490234	64457.128906
810.305664	63936.050781
809.122070	63907.757813
807.938477	63717.355469
806.753906	64238.964844
805.569336	63617.785156
804.383789	63513.675781
803.199219	63241.453125
802.013672	64021.074219
800.828125	63457.781250
799.642578	63353.765625
798.457031	63081.765625
797.270508	63135.597656
796.083984	62861.683594
794.897461	62616.539063
793.710938	62780.988281
792.523438	62251.390625
791.336914	62155.902344
790.149414	62764.398438
788.961914	62128.699219
787.773438	61941.222656
786.585938	61618.828125
785.397461	61652.359375
784.208984	61487.554688
783.019531	61588.546875
781.831055	62024.664063
780.641602	61410.343750
779.452148	61294.730469
778.262695	61260.859375
777.072266	60981.933594
775.882813	61211.523438
774.692383	60983.742188
773.501953	60970.351563
772.310547	61061.039063
771.120117	60880.332031
769.928711	61011.792969
768.737305	61281.894531
767.544922	61188.921875
766.353516	61151.027344
765.161133	61789.890625
763.968750	61099.726563
762.776367	61585.535156
761.583984	62368.597656
760.390625	61776.476563
759.197266	62198.746094
758.003906	62938.492188
756.810547	62580.691406
755.616211	63104.335938
754.421875	62994.902344
753.227539	63302.601563
752.033203	62831.074219
750.838867	62892.585938
749.643555	62712.093750
748.448242	62606.886719
747.252930	62269.984375
746.057617	61823.464844
744.861328	61580.300781
743.665039	61176.730469
742.468750	60781.433594
741.272461	61168.140625
740.075195	61268.414063
738.878906	60390.156250
737.681641	60305.832031
736.484375	60592.894531
735.286133	60135.234375
734.087891	59943.480469
732.890625	60094.554688
731.691406	60040.765625
730.493164	60086.335938
729.294922	60010.261719
728.095703	59885.574219
726.896484	60052.718750
725.696289	59636.335938
724.497070	59667.746094
723.296875	59565.480469
722.096680	59592.839844
720.896484	59478.476563
719.696289	59570.601563
718.495117	59407.710938
717.293945	58953.531250
716.092773	59614.121094
714.891602	59360.296875
713.689453	59320.906250
712.487305	59297.699219
711.285156	59830.378906
710.083008	59554.457031
708.880859	59377.648438
707.677734	59732.222656
706.474609	59807.921875
705.271484	59318.136719
704.068359	59157.644531
702.864258	59635.125000
701.660156	59462.519531
700.456055	59322.261719
699.251953	59091.261719
698.046875	59043.914063
696.841797	58946.156250
695.636719	58965.390625
694.431641	59545.085938
693.226563	58989.718750
692.020508	59405.945313
690.814453	59491.558594
689.608398	59734.277344
688.402344	59157.121094
687.195313	59502.511719
685.988281	59344.406250
684.781250	59073.625000
683.574219	59469.144531
682.366211	59403.691406
681.158203	59724.554688
679.950195	59783.792969
678.742188	60168.816406
677.534180	59831.812500
676.325195	59919.132813
675.116211	59879.781250
673.907227	59545.023438
672.697266	60207.003906
671.488281	60422.750000
670.278320	60037.851563
669.068359	60088.871094
667.858398	59955.152344
666.647461	59640.808594
665.436523	59107.812500
664.225586	59233.207031
663.014648	59214.093750
661.802734	59311.332031
660.591797	59111.707031
659.379883	59098.632813
658.167969	58995.351563
656.955078	59102.566406
655.743164	59103.523438
654.530273	58613.578125
653.317383	58975.214844
652.103516	58910.089844
650.890625	58826.968750
649.676758	58942.085938
648.462891	58772.902344
647.249023	58649.812500
646.034180	58626.820313
644.819336	58311.734375
643.604492	58674.863281
642.389648	58577.875000
641.174805	58454.921875
639.958984	58865.792969
638.743164	58582.925781
637.527344	58424.062500
636.311523	58654.875000
635.094727	58997.472656
633.877930	58962.445313
632.661133	58939.410156
631.444336	58830.527344
630.226563	58585.945313
629.008789	58840.402344
627.791016	58424.296875
626.573242	58836.292969
625.355469	58286.691406
624.136719	58259.804688
622.917969	58936.789063
621.699219	58921.746094
620.480469	58418.375000
619.260742	58218.097656
618.041016	58864.679688
616.821289	58190.277344
615.601563	58362.593750
614.380859	58281.949219
613.160156	58328.746094
611.939453	58576.574219
610.718750	58684.992188
609.497070	58431.218750
608.276367	58446.113281
607.054688	58206.398438
605.832031	58479.855469
604.610352	58437.062500
603.387695	58897.238281
602.165039	58695.371094
600.942383	58253.125000
599.719727	58615.710938
598.496094	58604.703125
597.272461	58583.765625
596.048828	58773.316406
594.825195	58573.671875
593.600586	58481.281250
592.375977	58021.777344
591.151367	58393.832031
589.926758	58700.277344
588.701172	58054.531250
587.476563	58440.246094
586.250977	58082.285156
585.024414	58798.894531
583.798828	58726.402344
582.572266	58451.808594
581.345703	58526.015625
580.119141	58469.453125
578.892578	58080.183594
577.665039	58590.039063
576.437500	58093.980469
575.209961	58758.027344
573.982422	58839.992188
572.753906	58316.457031
571.525391	58309.449219
570.296875	57962.238281
569.068359	58651.378906
567.838867	58377.386719
566.610352	58656.988281
565.380859	58665.718750
564.150391	58206.121094
562.920898	58689.085938
561.690430	58595.078125
560.459961	58341.136719
559.229492	59104.179688
557.999023	58670.582031
556.767578	58815.468750
555.536133	58652.445313
554.304688	58856.468750
553.073242	58843.414063
551.840820	59254.414063
550.608398	58417.011719
549.375977	58782.582031
548.143555	58611.843750
546.910156	58435.257813
545.676758	58499.128906
544.443359	58285.191406
543.209961	58526.339844
541.975586	58704.371094
540.742188	58155.781250
539.507813	58684.222656
538.272461	58627.898438
537.038086	58929.742188
535.802734	58696.312500
534.567383	58783.609375
533.332031	58713.527344
532.096680	58761.453125
530.860352	58646.179688
529.624023	58591.882813
528.387695	58641.757813
527.151367	58817.371094
525.914063	58912.367188
524.676758	59021.074219
523.439453	58835.167969
522.202148	58822.109375
520.963867	58899.355469
519.725586	58409.351563
518.487305	59004.691406
517.249023	58322.578125
516.009766	58537.156250
514.771484	58355.492188
513.532227	58211.144531
512.291992	58588.335938
511.052734	58575.320313
509.812500	58703.410156
508.572266	58913.738281
507.332031	58900.660156
506.090820	58654.511719
504.850586	58541.613281
503.609375	59104.218750
502.368164	58703.519531
501.125977	59166.066406
499.884766	59284.042969
498.642578	58811.140625
497.400391	59097.351563
496.157227	59015.789063
494.915039	58932.300781
493.671875	59269.144531
492.428711	59525.722656
491.184570	59076.746094
489.941406	59376.242188
488.697266	59126.707031
487.453125	59142.878906
486.208984	59574.968750
484.963867	59399.718750
483.718750	59812.070313
482.473633	59880.785156
481.228516	59305.566406
479.982422	59559.671875
478.737305	59179.773438
477.491211	59507.910156
476.244141	60089.386719
474.998047	60087.773438
473.750977	59809.398438
472.503906	60273.562500
471.256836	60342.046875
470.009766	60330.636719
468.761719	60401.023438
467.513672	60455.804688
466.265625	60551.445313
465.017578	60995.460938
463.768555	61030.628906
462.519531	61680.621094
461.270508	62198.085938
460.021484	62040.445313
458.771484	62170.664063
457.521484	62250.277344
456.271484	62660.316406
455.021484	62986.628906
453.770508	63235.085938
452.519531	63316.371094
451.268555	64421.261719
450.017578	63977.937500
448.765625	64812.386719
447.514648	65145.667969
446.262695	65667.085938
445.009766	66512.375000
443.757813	66590.968750
442.504883	66611.335938
441.251953	66530.843750
439.999023	65893.859375
438.745117	65177.625000
437.492188	64851.269531
436.238281	63488.214844
434.983398	63042.160156
433.729492	62487.789063
432.474609	61949.121094
431.219727	61522.968750
429.964844	61522.929688
428.709961	60758.253906
427.454102	60572.550781
426.198242	60982.910156
424.942383	60205.222656
423.685547	60478.152344
422.429688	59987.070313
421.172852	60375.949219
419.916016	60078.386719
418.658203	60420.707031
417.401367	60057.539063
416.143555	60150.488281
414.885742	59787.503906
413.626953	60110.292969
412.369141	59722.343750
411.110352	59821.062500
409.851563	60290.355469
408.591797	60008.730469
407.333008	59790.886719
406.073242	59627.136719
404.813477	59617.753906
403.553711	59959.347656
402.292969	59681.894531
401.032227	59919.242188
