#Wave		#Intensity
2001.248047	37888.652344
2000.278320	38151.835938
1999.308594	38112.597656
1998.338867	38276.328125
1997.369141	38056.703125
1996.398438	38380.691406
1995.428711	38649.468750
1994.458008	37966.664063
1993.487305	38480.757813
1992.516602	38133.625000
1991.545898	37854.183594
1990.574219	38728.332031
1989.603516	38221.222656
1988.631836	38379.632813
1987.660156	38562.992188
1986.688477	38211.203125
1985.715820	38564.523438
1984.744141	38545.289063
1983.771484	38403.601563
1982.798828	38629.269531
1981.826172	38010.457031
1980.853516	38248.597656
1979.880859	38399.246094
1978.907227	38397.531250
1977.933594	38553.089844
1976.959961	38731.062500
1975.986328	38374.906250
1975.012695	38183.558594
1974.039063	38339.042969
1973.064453	38472.019531
1972.089844	38487.742188
1971.115234	38810.144531
1970.140625	38342.156250
1969.166016	37996.468750
1968.190430	38677.648438
1967.215820	38536.335938
1966.240234	38360.191406
1965.264648	38495.460938
1964.289063	38471.296875
1963.312500	38549.226563
1962.336914	38769.027344
1961.360352	38645.261719
1960.383789	38665.878906
1959.407227	38790.988281
1958.430664	38602.597656
1957.454102	39053.511719
1956.476563	38977.046875
1955.499023	38913.039063
1954.521484	39112.570313
1953.543945	38630.980469
1952.566406	38745.992188
1951.587891	38918.113281
1950.610352	39010.675781
1949.631836	38628.785156
1948.653320	38855.468750
1947.674805	39119.312500
1946.696289	38886.554688
1945.716797	38753.160156
1944.737305	39540.511719
1943.758789	39161.402344
1942.779297	39343.089844
1941.798828	38820.285156
1940.819336	39140.839844
1939.838867	38831.488281
1938.859375	39538.660156
1937.878906	39060.792969
1936.898438	39269.558594
1935.916992	39389.046875
1934.936523	38775.203125
1933.955078	39362.867188
1932.974609	39138.042969
1931.993164	38920.726563
1931.010742	39240.687500
1930.029297	39503.605469
1929.047852	39442.242188
1928.065430	39422.960938
1927.083008	39658.492188
1926.100586	39468.507813
1925.118164	39056.023438
1924.135742	39457.152344
1923.152344	39329.101563
1922.168945	39332.097656
1921.185547	39194.226563
1920.202148	39572.808594
1919.218750	39810.441406
1918.235352	39339.109375
1917.250977	39532.246094
1916.266602	39520.375000
1915.282227	39799.812500
1914.297852	39407.792969
1913.313477	39980.816406
1912.328125	39687.589844
1911.343750	39646.093750
1910.358398	39836.464844
1909.373047	39666.718750
1908.387695	39689.347656
1907.401367	40352.921875
1906.416016	40454.296875
1905.429688	39744.863281
1904.443359	39715.718750
1903.457031	39923.074219
1902.470703	39669.765625
1901.483398	39869.664063
1900.497070	39943.921875
1899.509766	40128.929688
1898.522461	40112.042969
1897.535156	40146.839844
1896.546875	39947.878906
1895.559570	40083.550781
1894.571289	40285.582031
1893.583008	40143.257813
1892.594727	40170.632813
1891.606445	40163.582031
1890.618164	40360.535156
1889.628906	39790.699219
1888.639648	40039.242188
1887.650391	40137.847656
1886.661133	39801.675781
1885.671875	40163.046875
1884.682617	40295.945313
1883.692383	40249.589844
1882.702148	40622.957031
1881.711914	39872.265625
1880.721680	40662.667969
1879.731445	40586.839844
1878.740234	40822.527344
1877.749023	40776.121094
1876.757813	40528.679688
1875.766602	40538.718750
1874.775391	40828.164063
1873.784180	40931.265625
1872.791992	40605.562500
1871.799805	40380.406250
1870.807617	40703.957031
1869.815430	40591.507813
1868.823242	40376.261719
1867.830078	40978.707031
1866.837891	41135.488281
1865.844727	40778.324219
1864.851563	40734.457031
1863.858398	40925.441406
1862.864258	40866.886719
1861.871094	40937.957031
1860.876953	41006.550781
1859.882813	41099.566406
1858.888672	40992.132813
1857.894531	41177.976563
1856.899414	40941.070313
1855.905273	41004.714844
1854.910156	41161.140625
1853.915039	41302.859375
1852.919922	41244.324219
1851.923828	41556.851563
1850.928711	41310.359375
1849.932617	41405.582031
1848.936523	41532.488281
1847.940430	41320.277344
1846.944336	41413.003906
1845.947266	41591.042969
1844.951172	41737.324219
1843.954102	41676.351563
1842.957031	41537.410156
1841.959961	41910.238281
1840.962891	41330.320313
1839.964844	41761.511719
1838.966797	41271.933594
1837.969727	41832.042969
1836.970703	41846.589844
1835.972656	41814.882813
1834.974609	41917.042969
1833.975586	42208.964844
1832.976563	41902.285156
1831.978516	41936.261719
1830.978516	41965.359375
1829.979492	41700.214844
1828.980469	41666.128906
1827.980469	41700.113281
1826.980469	42390.285156
1825.980469	42105.804688
1824.980469	42489.539063
1823.979492	42022.960938
1822.979492	42042.273438
1821.978516	42365.105469
1820.977539	41957.058594
1819.976563	42330.761719
1818.975586	42269.914063
1817.973633	42121.730469
1816.972656	42587.390625
1815.970703	42570.187500
1814.968750	42228.003906
1813.966797	42361.199219
1812.963867	42394.949219
1811.961914	42486.859375
1810.958984	43073.132813
1809.956055	42946.808594
1808.953125	43045.835938
1807.950195	42587.714844
1806.946289	42933.789063
1805.943359	43199.835938
1804.939453	42790.343750
1803.935547	42826.367188
1802.930664	43244.753906
1801.926758	42917.730469
1800.922852	43270.632813
1799.917969	42670.390625
1798.913086	43489.953125
1797.908203	43489.539063
1796.903320	43489.121094
1795.897461	43278.414063
1794.891602	42937.277344
1793.886719	43052.929688
1792.880859	43584.066406
1791.874023	43308.265625
1790.868164	43580.765625
1789.862305	43606.878906
1788.855469	43582.285156
1787.848633	43371.843750
1786.841797	43798.582031
1785.833984	43520.613281
1784.827148	43862.734375
1783.819336	44269.855469
1782.812500	43786.960938
1781.804688	44266.285156
1780.795898	43747.398438
1779.788086	44306.093750
1778.779297	44363.339844
1777.771484	44126.609375
1776.762695	44451.265625
1775.753906	44734.855469
1774.744141	44618.589844
1773.735352	44471.062500
1772.725586	44362.101563
1771.715820	44527.562500
1770.706055	44945.644531
1769.696289	44389.125000
1768.686523	44612.226563
1767.675781	44856.890625
1766.666016	44632.539063
1765.655273	45098.308594
1764.644531	45179.285156
1763.632813	45476.546875
1762.622070	44990.300781
1761.610352	45556.585938
1760.598633	45313.117188
1759.586914	45485.246094
1758.575195	45722.144531
1757.563477	45584.414063
1756.550781	45924.433594
1755.538086	45901.917969
1754.525391	46188.960938
1753.512695	46190.394531
1752.500000	46434.105469
1751.486328	46706.511719
1750.473633	45760.644531
1749.459961	46292.003906
1748.446289	45912.261719
1747.432617	46275.632813
1746.417969	46583.757813
1745.404297	46719.273438
1744.389648	45800.746094
1743.375000	46389.003906
1742.360352	46428.691406
1741.344727	46537.792969
1740.330078	46977.187500
1739.314453	47057.433594
1738.298828	47211.824219
1737.283203	46796.750000
1736.267578	47463.031250
1735.251953	47466.589844
1734.235352	47551.449219
1733.218750	48085.738281
1732.202148	47854.925781
1731.185547	48451.113281
1730.168945	48643.253906
1729.151367	48758.878906
1728.133789	49055.996094
1727.117188	49016.265625
1726.098633	49289.351563
1725.081055	49667.386719
1724.063477	49971.285156
1723.044922	50351.445313
1722.026367	50371.164063
1721.007813	50837.000000
1719.989258	50973.500000
1718.970703	50940.625000
1717.951172	51303.578125
1716.931641	51096.617188
1715.912109	50749.097656
1714.892578	51636.183594
1713.873047	51667.542969
1712.853516	52370.707031
1711.833008	51758.804688
1710.812500	52354.535156
1709.791992	52233.347656
1708.771484	51866.996094
1707.750000	52460.003906
1706.729492	52224.625000
1705.708008	52370.031250
1704.686523	52358.371094
1703.665039	52508.453125
1702.642578	52694.152344
1701.621094	52318.648438
1700.598633	52383.070313
1699.576172	52725.558594
1698.553711	52685.316406
1697.531250	52609.449219
1696.507813	52307.925781
1695.485352	52621.675781
1694.461914	52574.347656
1693.438477	52436.812500
1692.415039	53260.750000
1691.390625	53348.621094
1690.367188	52828.953125
1689.342773	52836.191406
1688.318359	53265.679688
1687.293945	53419.882813
1686.269531	53657.031250
1685.244141	54043.460938
1684.218750	53550.285156
1683.194336	53863.121094
1682.168945	54448.355469
1681.142578	54071.457031
1680.117188	54535.632813
1679.090820	54298.585938
1678.064453	54599.160156
1677.038086	54909.093750
1676.011719	54896.984375
1674.985352	54932.207031
1673.958008	55267.941406
1672.931641	55000.246094
1671.904297	55191.550781
1670.876953	55621.656250
1669.848633	55396.597656
1668.821289	55436.410156
1667.792969	55951.332031
1666.764648	55965.031250
1665.736328	55803.863281
1664.708008	55664.015625
1663.679688	55729.718750
1662.650391	56215.777344
1661.621094	55837.433594
1660.591797	56585.355469
1659.562500	56211.792969
1658.533203	56598.292969
1657.502930	55550.007813
1656.472656	55936.484375
1655.442383	55751.996094
1654.412109	56013.304688
1653.381836	56324.031250
1652.351563	55995.757813
1651.320313	55641.667969
1650.289063	56013.562500
1649.257813	55812.750000
1648.226563	56384.722656
1647.194336	55905.972656
1646.163086	55750.023438
1645.130859	56020.312500
1644.098633	56064.496094
1643.066406	55802.679688
1642.033203	56345.789063
1641.000977	56152.246094
1639.967773	55918.773438
1638.934570	55934.703125
1637.901367	55889.480469
1636.868164	56733.042969
1635.833984	56793.476563
1634.800781	56562.437500
1633.766602	56651.078125
1632.732422	56810.167969
1631.697266	56703.750000
1630.663086	56858.070313
1629.627930	56815.082031
1628.593750	56758.015625
1627.558594	57494.414063
1626.522461	57183.757813
1625.487305	57403.554688
1624.451172	58036.207031
1623.416016	58117.363281
1622.379883	58008.515625
1621.343750	58612.574219
1620.306641	59174.210938
1619.270508	60110.710938
1618.233398	60231.257813
1617.196289	61661.667969
1616.159180	62210.636719
1615.122070	63879.113281
1614.083984	64380.648438
1613.046875	65710.937500
1612.008789	66609.976563
1610.970703	67192.671875
1609.932617	67503.679688
1608.893555	67386.359375
1607.855469	66590.609375
1606.816406	66101.570313
1605.777344	64649.144531
1604.738281	63386.636719
1603.698242	62811.914063
1602.659180	61987.285156
1601.619141	61123.218750
1600.579102	60404.328125
1599.539063	60008.089844
1598.499023	59569.945313
1597.458008	58947.457031
1596.417969	58533.003906
1595.376953	58193.398438
1594.335938	58141.011719
1593.294922	57801.593750
1592.252930	57814.625000
1591.210938	57690.007813
1590.169922	57038.292969
1589.127930	57028.125000
1588.084961	57537.914063
1587.042969	56753.687500
1586.000000	57095.519531
1584.958008	57001.445313
1583.915039	57231.265625
1582.872070	57798.792969
1581.828125	57932.890625
1580.785156	58071.597656
1579.741211	58522.246094
1578.697266	58639.843750
1577.653320	58592.140625
1576.609375	59193.710938
1575.564453	59062.164063
1574.520508	59642.492188
1573.475586	59755.117188
1572.430664	59316.578125
1571.384766	59652.417969
1570.339844	58979.269531
1569.293945	59159.324219
1568.249023	58709.578125
1567.202148	58050.886719
1566.156250	57752.484375
1565.110352	57477.410156
1564.063477	56893.593750
1563.017578	56734.847656
1561.970703	56118.867188
1560.922852	55997.449219
1559.875977	56245.019531
1558.829102	56165.375000
1557.781250	55728.539063
1556.733398	55985.292969
1555.685547	55697.042969
1554.636719	55796.058594
1553.588867	55480.121094
1552.540039	55477.164063
1551.491211	55182.250000
1550.442383	55276.644531
1549.393555	55604.949219
1548.344727	55597.328125
1547.294922	55480.882813
1546.245117	55410.781250
1545.195313	55741.128906
1544.145508	55802.910156
1543.094727	55695.757813
1542.044922	55278.644531
1540.994141	55770.683594
1539.943359	55642.773438
1538.892578	55880.230469
1537.840820	56052.867188
1536.790039	55961.953125
1535.738281	55940.394531
1534.686523	56094.437500
1533.634766	55964.285156
1532.583008	56245.296875
1531.530273	56884.144531
1530.477539	56197.476563
1529.424805	56787.621094
1528.372070	56772.847656
1527.319336	56642.699219
1526.265625	56392.617188
1525.212891	56569.382813
1524.159180	56582.324219
1523.105469	56396.949219
1522.051758	56393.777344
1520.997070	56399.824219
1519.942383	56110.859375
1518.888672	56038.605469
1517.833984	56226.710938
1516.778320	56571.386719
1515.723633	55780.519531
1514.667969	56249.492188
1513.612305	55894.085938
1512.556641	55460.542969
1511.500977	56472.449219
1510.445313	55390.066406
1509.388672	55778.156250
1508.332031	55517.449219
1507.275391	55859.375000
1506.218750	55373.406250
1505.162109	55439.355469
1504.104492	55438.621094
1503.047852	55166.707031
1501.990234	55285.500000
1500.931641	55385.867188
1499.874023	55456.339844
1498.816406	55349.953125
1497.757813	55089.765625
1496.699219	55695.136719
1495.640625	55698.929688
1494.582031	55530.609375
1493.522461	55435.765625
1492.462891	55529.062500
1491.403320	55287.457031
1490.343750	55222.515625
1489.284180	55031.488281
1488.224609	55402.160156
1487.164063	55708.519531
1486.103516	55070.648438
1485.042969	54879.777344
1483.982422	55529.671875
1482.920898	55386.878906
1481.860352	55292.222656
1480.798828	55028.175781
1479.737305	55627.207031
1478.675781	55592.054688
1477.613281	55977.957031
1476.550781	55142.003906
1475.489258	55708.550781
1474.426758	55879.234375
1473.363281	55850.921875
1472.300781	55429.382813
1471.237305	55545.160156
1470.174805	55989.992188
1469.111328	55712.601563
1468.046875	55812.265625
1466.983398	55854.789063
1465.919922	56185.046875
1464.855469	56446.683594
1463.791016	56671.699219
1462.726563	56355.667969
1461.661133	56375.222656
1460.596680	56399.332031
1459.531250	56731.402344
1458.465820	57061.074219
1457.400391	56836.464844
1456.334961	56714.539063
1455.268555	57057.703125
1454.202148	57273.105469
1453.135742	57080.515625
1452.069336	57630.761719
1451.002930	57547.515625
1449.935547	57635.121094
1448.869141	57893.480469
1447.801758	57844.375000
1446.734375	58286.988281
1445.666016	58934.277344
1444.598633	58564.152344
1443.530273	58976.812500
1442.461914	58950.292969
1441.393555	59544.679688
1440.325195	60734.621094
1439.256836	60753.265625
1438.187500	61240.160156
1437.118164	61199.613281
1436.048828	61999.828125
1434.979492	61838.738281
1433.909180	62122.917969
1432.839844	62418.347656
1431.769531	62620.570313
1430.699219	62507.152344
1429.627930	63095.160156
1428.557617	62614.039063
1427.486328	62949.945313
1426.416016	62893.253906
1425.343750	62965.871094
1424.272461	63301.523438
1423.201172	63421.648438
1422.128906	63566.667969
1421.056641	63573.367188
1419.984375	63654.847656
1418.912109	63695.511719
1417.839844	64350.070313
1416.766602	64209.394531
1415.693359	63758.519531
1414.620117	63857.992188
1413.546875	63187.753906
1412.473633	63248.812500
1411.399414	62907.042969
1410.325195	62712.460938
1409.250977	63341.351563
1408.176758	63576.476563
1407.102539	63388.652344
1406.027344	64308.730469
1404.952148	64545.808594
1403.876953	65438.218750
1402.801758	65598.171875
1401.726563	65913.960938
1400.650391	65908.867188
1399.574219	66192.859375
1398.498047	66156.101563
1397.421875	65963.578125
1396.345703	65604.085938
1395.268555	65560.671875
1394.191406	64547.019531
1393.114258	64774.531250
1392.037109	64771.886719
1390.959961	64388.109375
1389.881836	64439.644531
1388.804688	64488.906250
1387.726563	64905.542969
1386.647461	65324.281250
1385.569336	65760.890625
1384.491211	66262.671875
1383.412109	66178.656250
1382.333008	66031.609375
1381.253906	66875.296875
1380.173828	66876.750000
1379.094727	67067.265625
1378.014648	66949.406250
1376.934570	66548.101563
1375.854492	66203.179688
1374.773438	66078.789063
1373.693359	65383.269531
1372.612305	65490.640625
1371.531250	65224.820313
1370.450195	64496.109375
1369.369141	63792.378906
1368.287109	64019.019531
1367.205078	63531.265625
1366.123047	63012.242188
1365.041016	63025.574219
1363.958984	62908.687500
1362.875977	62827.757813
1361.793945	62300.246094
1360.710938	62033.207031
1359.626953	62129.699219
1358.543945	61638.480469
1357.460938	61874.046875
1356.376953	61912.210938
1355.292969	61813.605469
1354.208984	61585.035156
1353.124023	61163.816406
1352.040039	61403.722656
1350.955078	61197.742188
1349.870117	60539.394531
1348.785156	60761.359375
1347.700195	60826.515625
1346.614258	60584.960938
1345.528320	60605.355469
1344.442383	60847.281250
1343.356445	60977.246094
1342.270508	61104.925781
1341.183594	61530.019531
1340.096680	61487.601563
1339.009766	61384.828125
1337.922852	61185.972656
1336.835938	61179.390625
1335.748047	62082.265625
1334.661133	61843.167969
1333.573242	61943.679688
1332.484375	61972.687500
1331.396484	62466.132813
1330.307617	61785.085938
1329.219727	62358.738281
1328.130859	62885.312500
1327.041992	62162.156250
1325.952148	63045.515625
1324.863281	62356.046875
1323.773438	62523.183594
1322.683594	63129.507813
1321.593750	62277.648438
1320.502930	62796.867188
1319.413086	62966.019531
1318.322266	62970.230469
1317.231445	62994.488281
1316.140625	62216.910156
1315.048828	62345.953125
1313.958008	62365.847656
1312.866211	62441.382813
1311.774414	62848.515625
1310.682617	62741.460938
1309.589844	63264.078125
1308.498047	63459.507813
1307.405273	63007.664063
1306.312500	64043.605469
1305.218750	65039.152344
1304.125977	65116.300781
1303.032227	65551.226563
1301.939453	66354.859375
1300.845703	67229.289063
1299.750977	68612.062500
1298.657227	69423.578125
1297.562500	71411.625000
1296.467773	72526.476563
1295.373047	72844.078125
1294.278320	73026.179688
1293.183594	72997.429688
1292.087891	72660.320313
1290.992188	71751.078125
1289.896484	70930.867188
1288.800781	70199.640625
1287.704102	69493.062500
1286.608398	68806.679688
1285.511719	67703.937500
1284.415039	67139.976563
1283.317383	66997.117188
1282.220703	66389.195313
1281.123047	66173.445313
1280.025391	65517.175781
1278.927734	65058.152344
1277.830078	64809.550781
1276.731445	64530.140625
1275.633789	64250.980469
1274.535156	63971.574219
1273.436523	63692.164063
1272.336914	63645.238281
1271.238281	62716.218750
1270.138672	62589.906250
1269.039063	62792.929688
1267.939453	62613.617188
1266.839844	62482.968750
1265.739258	61930.480469
1264.638672	61945.753906
1263.538086	62206.105469
1262.437500	61481.765625
1261.336914	61492.687500
1260.235352	61620.562500
1259.134766	61406.398438
1258.033203	61651.156250
1256.930664	61262.816406
1255.829102	60742.300781
1254.726563	60848.132813
1253.625000	61434.488281
1252.522461	60764.343750
1251.418945	60693.820313
1250.316406	60931.769531
1249.212891	60640.957031
1248.110352	60557.269531
1247.006836	60352.503906
1245.902344	60244.679688
1244.798828	60346.003906
1243.694336	59820.062500
1242.589844	59762.996094
1241.485352	59657.542969
1240.380859	59791.886719
1239.276367	59539.117188
1238.170898	59875.718750
1237.065430	60434.234375
1235.959961	59759.460938
1234.854492	59935.402344
1233.748047	60629.824219
1232.642578	60243.156250
1231.536133	60212.445313
1230.429688	60122.453125
1229.322266	60882.191406
1228.215820	61189.433594
1227.108398	61035.656250
1226.000977	61437.117188
1224.893555	61790.160156
1223.786133	62138.683594
1222.677734	62155.906250
1221.569336	62030.582031
1220.460938	62367.902344
1219.352539	61793.218750
1218.244141	61852.117188
1217.134766	61700.636719
1216.025391	61200.863281
1214.916016	60775.746094
1213.806641	60830.394531
1212.697266	60725.179688
1211.586914	60937.441406
1210.476563	60963.570313
1209.366211	60503.855469
1208.255859	60805.742188
1207.145508	61275.964844
1206.034180	61133.582031
1204.922852	61000.000000
1203.811523	60676.242188
1202.700195	60986.554688
1201.587891	61534.988281
1200.476563	61447.308594
1199.364258	61263.523438
1198.251953	62202.617188
1197.138672	62293.949219
1196.026367	62383.062500
1194.913086	62310.578125
1193.799805	62275.222656
1192.686523	62702.566406
1191.573242	62691.152344
1190.458984	62708.105469
1189.344727	62437.113281
1188.230469	62855.382813
1187.116211	61760.234375
1186.001953	61687.949219
1184.886719	62114.832031
1183.772461	61493.320313
1182.657227	61676.042969
1181.541016	61401.210938
1180.425781	61117.765625
1179.309570	60690.687500
1178.193359	60842.933594
1177.077148	60690.351563
1175.960938	60711.941406
1174.844727	60400.574219
1173.727539	60581.035156
1172.610352	60074.019531
1171.493164	60017.398438
1170.375977	59645.488281
1169.257813	59984.656250
1168.139648	59686.789063
1167.022461	59667.218750
1165.903320	59656.343750
1164.785156	59634.605469
1163.666992	59749.722656
1162.547852	59784.433594
1161.428711	59986.332031
1160.309570	59601.984375
1159.189453	59395.765625
1158.070313	59476.082031
1156.950195	59519.480469
1155.830078	59621.437500
1154.709961	59463.070313
1153.588867	59604.027344
1152.468750	59419.699219
1151.347656	59430.539063
1150.226563	59304.824219
1149.104492	59697.070313
1147.983398	59987.339844
1146.861328	59497.660156
1145.739258	59751.035156
1144.617188	59932.855469
1143.495117	60004.191406
1142.372070	60352.570313
1141.250000	60356.707031
1140.126953	60289.429688
1139.003906	60938.281250
1137.879883	60736.808594
1136.756836	61037.148438
1135.632813	60805.453125
1134.508789	61332.660156
1133.384766	61079.375000
1132.259766	60865.078125
1131.135742	60970.640625
1130.010742	61082.644531
1128.885742	61032.613281
1127.759766	61392.902344
1126.634766	61139.867188
1125.508789	60677.527344
1124.382813	61221.132813
1123.256836	60495.671875
1122.130859	60691.742188
1121.003906	61049.527344
1119.877930	60969.359375
1118.750977	61201.886719
1117.624023	60459.828125
1116.496094	60882.050781
1115.369141	60607.992188
1114.241211	60566.750000
1113.113281	60592.304688
1111.985352	60428.292969
1110.856445	60839.355469
1109.728516	60699.039063
1108.599609	60565.230469
1107.470703	61090.113281
1106.340820	60820.699219
1105.211914	61044.105469
1104.082031	60824.273438
1102.952148	60901.335938
1101.822266	61133.199219
1100.692383	60990.863281
1099.561523	60717.449219
1098.431641	60846.042969
1097.300781	61032.613281
1096.169922	60239.394531
1095.038086	60627.921875
1093.907227	60425.683594
1092.775391	60509.109375
1091.643555	60313.402344
1090.511719	60087.710938
1089.378906	59928.632813
1088.246094	60241.671875
1087.114258	60097.632813
1085.980469	59434.566406
1084.847656	59578.097656
1083.714844	59642.234375
1082.581055	60319.468750
1081.447266	59423.207031
1080.313477	59881.644531
1079.179688	59767.832031
1078.044922	59553.378906
1076.910156	60075.785156
1075.775391	60259.652344
1074.640625	59816.128906
1073.505859	60400.269531
1072.370117	60282.195313
1071.234375	60241.195313
1070.098633	60266.531250
1068.962891	60606.296875
1067.826172	60657.214844
1066.690430	60601.195313
1065.553711	60363.476563
1064.416992	60320.351563
1063.279297	60773.050781
1062.142578	61031.140625
1061.004883	60872.546875
1059.867188	60496.144531
1058.729492	60000.285156
1057.590820	60386.425781
1056.453125	60458.613281
1055.314453	59918.203125
1054.175781	60073.667969
1053.037109	59644.472656
1051.897461	60360.953125
1050.757813	59786.824219
1049.618164	59630.855469
1048.478516	60174.246094
1047.338867	60169.605469
1046.199219	60224.636719
1045.058594	59798.074219
1043.917969	60100.281250
1042.777344	60031.742188
1041.635742	59886.562500
1040.495117	59892.605469
1039.353516	59881.617188
1038.211914	59632.238281
1037.069336	59448.917969
1035.927734	59610.351563
1034.785156	59656.847656
1033.642578	58948.261719
1032.500000	59594.546875
1031.357422	59334.847656
1030.213867	59481.261719
1029.071289	59240.800781
1027.927734	59518.921875
1026.783203	59369.894531
1025.639648	59667.003906
1024.495117	59490.390625
1023.351563	59528.304688
1022.207031	59211.652344
1021.061523	59958.566406
1019.916992	59253.570313
1018.771484	59543.992188
1017.625977	59369.703125
1016.480469	59984.515625
1015.334961	59294.871094
1014.188477	59228.847656
1013.041992	59608.031250
1011.895508	60014.628906
1010.749023	59645.464844
1009.602539	59356.945313
1008.455078	59646.843750
1007.307617	59271.589844
1006.160156	59836.679688
1005.012695	59859.554688
1003.864258	59641.101563
1002.716797	60288.343750
1001.568359	59981.015625
1000.419922	60479.859375
999.270508	60849.484375
998.122070	60590.855469
996.972656	60681.207031
995.823242	61020.984375
994.673828	60715.957031
993.523438	60356.093750
992.373047	61120.433594
991.222656	60965.539063
990.072266	60865.613281
988.921875	60753.050781
987.771484	60925.562500
986.620117	60553.375000
985.468750	61156.414063
984.317383	61208.464844
983.165039	61669.800781
982.013672	61877.828125
980.861328	61419.324219
979.708984	61682.144531
978.555664	62075.574219
977.403320	62163.218750
976.250000	62151.773438
975.096680	61971.761719
973.943359	62128.890625
972.790039	61929.988281
971.635742	62015.457031
970.481445	61612.406250
969.327148	61700.000000
968.172852	61286.625000
967.018555	61990.828125
965.863281	61238.800781
964.708008	61513.613281
963.552734	61308.785156
962.397461	61335.339844
961.241211	61708.785156
960.084961	61319.046875
958.929688	61257.304688
957.772461	61441.437500
956.616211	61268.343750
955.458984	61630.945313
954.301758	61453.675781
953.144531	61855.996094
951.987305	61407.929688
950.830078	61111.152344
949.671875	61578.359375
948.513672	61434.820313
947.355469	61131.898438
946.196289	61231.789063
945.038086	60673.175781
943.878906	60641.019531
942.719727	60952.656250
941.560547	61247.414063
940.400391	60710.152344
939.241211	60990.167969
938.081055	61156.968750
936.919922	61417.949219
935.759766	61620.199219
934.599609	61761.656250
933.438477	61890.503906
932.277344	61464.714844
931.116211	62302.878906
929.954102	61979.671875
928.791992	61566.644531
927.630859	61845.960938
926.467773	61828.273438
925.305664	61741.605469
924.143555	61700.945313
922.980469	62201.527344
921.817383	62060.507813
920.654297	61894.468750
919.490234	62041.765625
918.327148	62859.300781
917.163086	62808.027344
915.999023	63182.589844
914.833984	62993.527344
913.669922	63138.386719
912.504883	63483.464844
911.339844	63525.968750
910.174805	63906.296875
909.008789	64255.207031
907.843750	64608.152344
906.677734	64802.558594
905.511719	64823.925781
904.345703	64920.289063
903.178711	64456.250000
902.011719	63802.851563
900.844727	63774.402344
899.677734	63872.957031
898.510742	63732.089844
897.342773	63272.851563
896.174805	63161.273438
895.006836	62650.289063
893.838867	62879.992188
892.670898	62964.031250
891.501953	63029.320313
890.333008	62766.117188
889.164063	62843.882813
887.994141	62601.589844
886.825195	62947.382813
885.655273	62607.515625
884.485352	62446.390625
883.315430	62879.226563
882.144531	62784.546875
880.973633	62799.914063
879.803711	63197.156250
878.631836	63347.316406
877.460938	63188.292969
876.289063	63942.007813
875.118164	63639.828125
873.945313	64053.121094
872.773438	63709.562500
871.601563	64027.335938
870.428711	63808.246094
869.255859	63674.183594
868.083008	63774.261719
866.910156	63673.390625
865.736328	64229.007813
864.562500	64459.355469
863.388672	64515.730469
862.214844	65186.777344
861.040039	65311.277344
859.866211	65812.273438
858.691406	65324.316406
857.516602	65215.011719
856.340820	64872.089844
855.166016	65269.410156
853.990234	64662.019531
852.814453	64964.164063
851.637695	64460.363281
850.461914	64632.277344
849.285156	65093.289063
848.108398	65046.121094
846.931641	65178.589844
845.754883	65496.800781
844.577148	66260.703125
843.399414	66192.703125
842.221680	67164.562500
841.043945	66811.750000
839.865234	67954.304688
838.687500	69131.492188
837.508789	70300.000000
836.329102	71006.335938
835.150391	71172.468750
833.970703	70841.945313
832.791992	70882.367188
831.611328	70220.406250
830.431641	68831.734375
829.251953	68081.851563
828.071289	67505.164063
826.890625	65936.632813
825.709961	66249.539063
824.528320	65095.363281
823.347656	64980.429688
822.166016	64698.945313
820.984375	64508.039063
819.801758	63692.199219
818.620117	63875.652344
817.437500	63674.718750
816.254883	63395.777344
815.072266	62944.371094
813.888672	62969.652344
812.706055	62764.917969
811.522461	62790.222656
810.338867	62743.664063
809.154297	62374.878906
807.970703	62096.519531
806.786133	62478.914063
805.601563	61853.957031
804.416992	61918.351563
803.231445	62288.257813
802.045898	61958.902344
800.861328	62008.886719
799.674805	61980.968750
798.489258	61914.125000
797.302734	60982.765625
796.117188	61829.664063
794.930664	61310.289063
793.743164	61362.367188
792.556641	60935.390625
791.369141	60758.273438
790.181641	60503.457031
788.994141	60707.039063
787.805664	60640.519531
786.618164	60692.644531
785.429688	60294.878906
784.241211	60960.390625
783.052734	60348.085938
781.863281	60107.964844
780.673828	60027.312500
779.484375	59726.042969
778.294922	59872.210938
777.105469	59752.835938
775.915039	60023.492188
774.724609	59330.480469
773.534180	59427.617188
772.343750	59224.734375
771.152344	59585.046875
769.960938	59516.839844
768.769531	59972.816406
767.578125	59606.839844
766.385742	60009.617188
765.194336	59957.679688
764.001953	59463.503906
762.808594	60373.449219
761.616211	60213.488281
760.422852	60385.593750
759.230469	60783.687500
758.037109	60851.777344
756.842773	61703.601563
755.649414	61773.523438
754.455078	61814.929688
753.260742	61919.386719
752.066406	61987.187500
750.871094	61532.257813
749.676758	61667.203125
748.481445	61454.437500
747.286133	60944.968750
746.089844	60490.562500
744.894531	60225.292969
743.698242	59988.566406
742.501953	60032.226563
741.304688	59572.222656
740.108398	59715.433594
738.911133	59438.363281
737.713867	59003.078125
736.516602	59184.859375
735.319336	58834.992188
734.121094	58821.992188
732.922852	58658.910156
731.724609	58499.941406
730.526367	58608.652344
729.327148	58838.937500
728.127930	58100.390625
726.928711	58107.789063
725.729492	58210.398438
724.530273	58154.976563
723.330078	58528.906250
722.129883	58040.140625
720.929688	58027.285156
719.728516	57921.328125
718.528320	57989.441406
717.327148	58043.363281
716.125977	58309.664063
714.923828	58080.351563
713.722656	58004.800781
712.520508	58592.410156
711.318359	58551.152344
710.116211	58374.496094
708.913086	58636.382813
707.710938	58231.484375
706.507813	58511.472656
705.304688	58009.808594
704.100586	58596.632813
702.897461	58432.265625
701.693359	58722.085938
700.489258	58696.992188
699.284180	58681.992188
698.080078	58935.285156
696.875000	59113.855469
695.669922	59010.054688
694.464844	59299.425781
693.258789	59314.550781
692.053711	59779.085938
690.847656	60442.925781
689.641602	60496.097656
688.434570	60825.191406
687.228516	60429.179688
686.021484	60085.660156
684.814453	60376.390625
683.607422	59447.308594
682.399414	59609.253906
681.191406	59646.394531
679.983398	59204.761719
678.775391	58594.351563
677.567383	59192.671875
676.358398	58554.343750
675.149414	58394.644531
673.940430	59093.144531
672.730469	58629.992188
671.521484	59163.449219
670.311523	58951.519531
669.101563	59050.941406
667.890625	58551.992188
666.680664	58856.203125
665.469727	58289.230469
664.258789	58089.695313
663.047852	58458.015625
661.835938	58256.507813
660.625000	58175.410156
659.413086	58228.683594
658.201172	57893.003906
656.988281	57920.250000
655.776367	58212.015625
654.563477	57810.398438
653.350586	58308.414063
652.136719	57606.480469
650.923828	57539.621094
649.709961	57941.292969
648.496094	58218.699219
647.282227	58073.699219
646.067383	58026.800781
644.852539	58322.035156
643.637695	58073.070313
642.422852	57790.199219
641.208008	57629.402344
639.992188	57584.617188
638.776367	57957.597656
637.560547	58588.234375
636.344727	58307.511719
635.127930	58244.644531
633.911133	58806.957031
632.694336	58136.941406
631.477539	57780.636719
630.259766	58308.773438
629.042969	57493.527344
627.825195	57893.804688
626.606445	57595.660156
625.388672	57189.910156
624.169922	57643.859375
622.951172	57525.375000
621.732422	57568.410156
620.513672	57667.238281
619.293945	57660.406250
618.074219	57490.191406
616.854492	57694.546875
615.634766	57576.171875
614.414063	57113.335938
613.193359	57409.222656
611.972656	57503.949219
610.751953	57634.464844
609.530273	57546.042969
608.309570	57668.535156
607.087891	58041.601563
605.866211	57448.011719
604.643555	57749.398438
603.420898	58356.812500
602.198242	57892.683594
600.975586	58058.675781
599.752930	58498.785156
598.529297	57820.343750
597.305664	58361.621094
596.082031	58459.875000
594.858398	58436.980469
593.633789	58088.554688
592.410156	58982.625000
591.185547	59070.753906
589.959961	58956.496094
588.735352	59010.875000
587.509766	59305.183594
586.284180	59946.363281
585.058594	59661.527344
583.832031	60272.664063
582.606445	60445.625000
581.379883	60933.539063
580.153320	61326.187500
578.925781	61124.527344
577.699219	62029.839844
576.471680	62180.519531
575.244141	62210.394531
574.015625	62271.917969
572.788086	62236.464844
571.559570	62147.605469
570.331055	62133.937500
569.101563	60969.351563
567.873047	61390.878906
566.643555	60564.894531
565.414063	60116.710938
564.184570	59838.632813
562.954102	59321.601563
561.724609	58798.835938
560.494141	58969.464844
559.263672	58693.777344
558.032227	58690.625000
556.800781	58164.414063
555.570313	57887.050781
554.337891	57479.566406
553.106445	57733.085938
551.874023	57142.351563
550.642578	57111.875000
549.409180	57262.789063
548.176758	57210.609375
546.944336	57075.675781
545.710938	56848.171875
544.477539	56756.691406
543.243164	56665.242188
542.009766	56796.363281
540.775391	56941.214844
539.541016	56887.175781
538.306641	57065.410156
537.071289	56702.410156
535.836914	57071.453125
534.601563	56840.378906
533.366211	56595.625000
532.129883	57068.691406
530.894531	56959.632813
529.658203	56691.394531
528.421875	56796.660156
527.184570	56717.183594
525.948242	56673.093750
524.710938	56984.531250
523.473633	57016.992188
522.235352	56968.933594
520.998047	56903.226563
519.759766	57283.070313
518.521484	57174.148438
517.283203	57394.875000
516.043945	57266.355469
514.804688	57592.878906
513.565430	57933.007813
512.326172	57949.523438
511.085938	57877.828125
509.846680	57784.597656
508.606445	57203.519531
507.366211	57137.871094
506.125000	57254.398438
504.883789	57361.089844
503.643555	57101.609375
502.401367	57061.468750
501.160156	57240.542969
499.917969	57145.593750
498.675781	56770.914063
497.433594	56951.886719
496.191406	57222.750000
494.948242	56654.683594
493.705078	57187.453125
492.461914	57129.742188
491.218750	56874.679688
489.975586	56830.722656
488.731445	57216.539063
487.487305	57004.562500
486.242188	56925.449219
484.998047	56965.453125
483.752930	57206.496094
482.507813	57572.343750
481.262695	57356.585938
480.016602	57335.992188
478.771484	57331.007813
477.525391	57409.875000
476.278320	57500.414063
475.032227	56918.371094
473.785156	57537.144531
472.538086	57676.312500
471.291016	58399.914063
470.043945	57915.527344
468.795898	57737.085938
467.547852	57685.277344
466.299805	58476.453125
465.051758	58420.625000
463.802734	58808.523438
462.553711	58933.597656
461.304688	59270.667969
460.055664	59144.699219
458.805664	59625.496094
457.555664	59705.593750
456.305664	59873.132813
455.055664	60347.675781
453.804688	60425.640625
452.553711	60981.492188
451.302734	61034.050781
450.051758	61933.308594
448.799805	62125.460938
447.548828	62552.433594
446.296875	63221.855469
445.043945	64015.218750
443.791992	64920.808594
442.539063	64910.457031
441.286133	64434.632813
440.033203	63916.328125
438.779297	62899.960938
437.526367	62085.570313
436.272461	61341.250000
435.017578	60519.703125
433.763672	59878.628906
432.508789	59722.019531
431.253906	59104.570313
429.999023	58710.015625
428.744141	58983.449219
427.488281	58190.363281
426.232422	57813.609375
424.976563	57771.695313
423.720703	58054.761719
422.463867	58082.437500
421.207031	57821.992188
419.950195	57925.089844
418.693359	57529.468750
417.435547	57510.832031
416.177734	57608.125000
414.919922	58265.589844
413.662109	57292.707031
412.403320	57243.222656
411.144531	57135.832031
409.885742	57655.824219
408.626953	57655.824219
407.367188	57655.824219
406.107422	57655.824219
404.847656	57655.824219
403.587891	57655.824219
402.327148	57655.824219
401.067383	57655.824219
