#Wave		#Intensity
2001.221680	41074.250000
2000.251953	41292.320313
1999.282227	41480.585938
1998.312500	41192.710938
1997.342773	40704.523438
1996.372070	40975.445313
1995.402344	41511.730469
1994.431641	40886.019531
1993.460938	41324.496094
1992.490234	41137.062500
1991.518555	41074.820313
1990.547852	41445.472656
1989.576172	40982.921875
1988.604492	41546.054688
1987.632813	41078.644531
1986.661133	41799.085938
1985.689453	41514.289063
1984.716797	41209.593750
1983.745117	40850.023438
1982.772461	41617.464844
1981.799805	41355.378906
1980.827148	41805.246094
1979.853516	41638.109375
1978.880859	41481.019531
1977.907227	41641.035156
1976.933594	41633.757813
1975.959961	41274.601563
1974.986328	41292.339844
1974.011719	41609.437500
1973.038086	41512.371094
1972.063477	41629.804688
1971.088867	41547.726563
1970.114258	41792.253906
1969.138672	41156.828125
1968.164063	41331.554688
1967.188477	41590.937500
1966.212891	41638.472656
1965.237305	41932.578125
1964.261719	41354.953125
1963.286133	41790.925781
1962.309570	41118.921875
1961.333984	41482.601563
1960.357422	41968.093750
1959.380859	41858.734375
1958.404297	41386.203125
1957.426758	41709.777344
1956.450195	41530.886719
1955.472656	41777.238281
1954.495117	41829.593750
1953.517578	41797.417969
1952.540039	41852.234375
1951.561523	41723.160156
1950.583008	41338.250000
1949.605469	41862.554688
1948.626953	41994.300781
1947.647461	41679.062500
1946.668945	41681.695313
1945.690430	41661.992188
1944.710938	41768.855469
1943.731445	41984.851563
1942.751953	41863.386719
1941.772461	41925.507813
1940.791992	42143.839844
1939.812500	41573.617188
1938.832031	42240.640625
1937.851563	41695.382813
1936.871094	41727.734375
1935.890625	42027.667969
1934.909180	41859.281250
1933.928711	41703.335938
1932.947266	41738.132813
1931.965820	41475.792969
1930.984375	41854.718750
1930.002930	41758.281250
1929.020508	41901.921875
1928.038086	41854.992188
1927.056641	41694.281250
1926.074219	41639.980469
1925.090820	41553.550781
1924.108398	41813.304688
1923.125000	41665.066406
1922.142578	41608.328125
1921.159180	41709.773438
1920.175781	41754.351563
1919.191406	41848.316406
1918.208008	41626.097656
1917.223633	41287.882813
1916.240234	42026.308594
1915.255859	41732.578125
1914.271484	41325.410156
1913.286133	41584.687500
1912.301758	41639.078125
1911.316406	41917.941406
1910.331055	41876.058594
1909.345703	41654.167969
1908.360352	42004.378906
1907.375000	41425.089844
1906.388672	41679.085938
1905.402344	41787.601563
1904.416016	42167.101563
1903.429688	41487.179688
1902.443359	41723.742188
1901.457031	41669.632813
1900.469727	41683.902344
1899.482422	41698.171875
1898.495117	41712.445313
1897.507813	41726.714844
1896.520508	41740.984375
1895.532227	41755.269531
1894.543945	41769.554688
1893.556641	41783.824219
1892.568359	41798.109375
1891.579102	42085.765625
1890.590820	41726.906250
1889.601563	42120.140625
1888.613281	41599.238281
1887.624023	42107.812500
1886.634766	42151.996094
1885.644531	41655.914063
1884.655273	41692.792969
1883.665039	42169.074219
1882.674805	42075.765625
1881.684570	41604.578125
1880.694336	41543.292969
1879.704102	42176.257813
1878.712891	41943.203125
1877.722656	42333.101563
1876.731445	41825.496094
1875.740234	41506.820313
1874.748047	41881.878906
1873.756836	41725.039063
1872.764648	42129.324219
1871.773438	41879.406250
1870.781250	41854.902344
1869.788086	42163.441406
1868.795898	41965.062500
1867.803711	41813.257813
1866.810547	42300.304688
1865.817383	42006.562500
1864.824219	41964.925781
1863.831055	42138.570313
1862.837891	42079.804688
1861.843750	42605.492188
1860.849609	42028.335938
1859.855469	41976.945313
1858.861328	42047.777344
1857.867188	42196.777344
1856.872070	41778.898438
1855.877930	42032.929688
1854.882813	41854.570313
1853.887695	41708.023438
1852.892578	41827.644531
1851.896484	41942.339844
1850.901367	42227.839844
1849.905273	42156.968750
1848.909180	42337.414063
1847.913086	42220.195313
1846.916992	42200.574219
1845.919922	42783.261719
1844.923828	42283.250000
1843.926758	42124.675781
1842.929688	42512.089844
1841.932617	42468.058594
1840.935547	42368.003906
1839.937500	42433.625000
1838.939453	42737.898438
1837.942383	42228.753906
1836.943359	42946.839844
1835.945313	42639.875000
1834.947266	42851.410156
1833.948242	43255.101563
1832.949219	42719.542969
1831.951172	42750.941406
1830.951172	42624.242188
1829.952148	43034.980469
1828.953125	42995.796875
1827.953125	42657.640625
1826.953125	42978.222656
1825.953125	42939.066406
1824.953125	43227.902344
1823.952148	42666.460938
1822.952148	43108.242188
1821.951172	43311.902344
1820.950195	43090.628906
1819.949219	43209.261719
1818.948242	43172.523438
1817.946289	43562.863281
1816.945313	42696.359375
1815.943359	43205.500000
1814.941406	43159.082031
1813.939453	43243.617188
1812.936523	42906.285156
1811.934570	43594.390625
1810.931641	42908.128906
1809.928711	42769.718750
1808.925781	43287.894531
1807.921875	43413.484375
1806.918945	43890.191406
1805.915039	43792.863281
1804.912109	43884.402344
1803.908203	43598.304688
1802.903320	43835.046875
1801.899414	43357.902344
1800.894531	43701.046875
1799.890625	43705.433594
1798.885742	43535.695313
1797.880859	43818.171875
1796.875000	43928.902344
1795.870117	43580.343750
1794.864258	44285.574219
1793.858398	43690.613281
1792.852539	43900.328125
1791.846680	43824.953125
1790.840820	43923.480469
1789.833984	44215.132813
1788.828125	44134.910156
1787.821289	43931.613281
1786.814453	44457.191406
1785.806641	44171.871094
1784.799805	44067.578125
1783.791992	44764.101563
1782.784180	44500.574219
1781.776367	44567.464844
1780.768555	44185.937500
1779.760742	44472.191406
1778.751953	44724.605469
1777.743164	44261.324219
1776.735352	44287.238281
1775.725586	45018.851563
1774.716797	44765.273438
1773.708008	44567.156250
1772.698242	45007.042969
1771.688477	44539.382813
1770.678711	45063.343750
1769.668945	44552.523438
1768.659180	44968.039063
1767.648438	45085.167969
1766.637695	44538.535156
1765.626953	44869.679688
1764.616211	45051.660156
1763.605469	44849.019531
1762.593750	45482.710938
1761.583008	45376.167969
1760.571289	45079.882813
1759.559570	45480.222656
1758.547852	45294.484375
1757.535156	45497.761719
1756.523438	45544.929688
1755.510742	45860.894531
1754.498047	45819.191406
1753.485352	45722.320313
1752.472656	45795.796875
1751.458984	45919.613281
1750.445313	46165.679688
1749.432617	46131.144531
1748.417969	46317.152344
1747.404297	46383.261719
1746.390625	46334.324219
1745.375977	46199.148438
1744.361328	46650.898438
1743.346680	46415.125000
1742.332031	46773.285156
1741.317383	47121.742188
1740.302734	46993.718750
1739.287109	47035.664063
1738.271484	47532.242188
1737.255859	47626.710938
1736.240234	48010.578125
1735.223633	48047.523438
1734.208008	48067.714844
1733.191406	48766.875000
1732.174805	48870.593750
1731.158203	48916.914063
1730.140625	49410.050781
1729.124023	49845.671875
1728.106445	49827.296875
1727.088867	50291.343750
1726.071289	50373.179688
1725.053711	50223.406250
1724.035156	50832.738281
1723.017578	51699.597656
1721.999023	51217.992188
1720.980469	51134.968750
1719.961914	51560.031250
1718.942383	51913.398438
1717.923828	51923.281250
1716.904297	52123.878906
1715.884766	52226.675781
1714.865234	51771.773438
1713.844727	52050.914063
1712.825195	51617.640625
1711.804688	51841.921875
1710.784180	51925.617188
1709.763672	52059.277344
1708.743164	51769.140625
1707.722656	51698.082031
1706.701172	51636.566406
1705.679688	51953.390625
1704.658203	51370.859375
1703.636719	51471.164063
1702.615234	50900.812500
1701.592773	51131.933594
1700.571289	51065.816406
1699.548828	50968.824219
1698.526367	50912.257813
1697.502930	50976.890625
1696.480469	51024.867188
1695.457031	50866.183594
1694.433594	51089.890625
1693.410156	51237.535156
1692.386719	50718.062500
1691.363281	50958.281250
1690.338867	51094.000000
1689.314453	50705.320313
1688.290039	50919.312500
1687.265625	50575.859375
1686.241211	51240.355469
1685.215820	51053.445313
1684.191406	51217.437500
1683.166016	51447.730469
1682.140625	51308.269531
1681.115234	51209.132813
1680.088867	50908.679688
1679.062500	51368.593750
1678.037109	51134.515625
1677.010742	51018.902344
1675.983398	51478.542969
1674.957031	51677.679688
1673.930664	51973.761719
1672.903320	51756.335938
1671.875977	51879.617188
1670.848633	52156.578125
1669.820313	52570.589844
1668.792969	52265.726563
1667.764648	52190.261719
1666.736328	52481.144531
1665.708008	52084.300781
1664.679688	52561.734375
1663.651367	52658.695313
1662.622070	52710.746094
1661.592773	52857.226563
1660.563477	52996.574219
1659.534180	53105.937500
1658.504883	53215.300781
1657.474609	53324.765625
1656.444336	53434.230469
1655.415039	53543.593750
1654.383789	53653.164063
1653.353516	53762.628906
1652.323242	53872.093750
1651.291992	53981.664063
1650.260742	54091.234375
1649.229492	54200.804688
1648.198242	54320.742188
1647.166016	54593.738281
1646.134766	54970.253906
1645.102539	54673.222656
1644.070313	55075.480469
1643.038086	54997.429688
1642.004883	54742.906250
1640.972656	55314.339844
1639.939453	55537.402344
1638.906250	55816.828125
1637.873047	55708.132813
1636.839844	55554.800781
1635.805664	56400.617188
1634.772461	56811.304688
1633.738281	56674.300781
1632.704102	56664.222656
1631.668945	56752.804688
1630.634766	57165.476563
1629.599609	57479.375000
1628.565430	58067.859375
1627.530273	57804.000000
1626.494141	57990.867188
1625.458984	58536.699219
1624.422852	58758.558594
1623.387695	59177.382813
1622.351563	59839.972656
1621.315430	60715.718750
1620.278320	61340.281250
1619.242188	62133.398438
1618.205078	63587.156250
1617.167969	64946.660156
1616.130859	66340.820313
1615.093750	68090.539063
1614.055664	69956.734375
1613.018555	71269.632813
1611.980469	72081.046875
1610.942383	72779.812500
1609.904297	73188.117188
1608.865234	72749.210938
1607.827148	72158.390625
1606.788086	70959.601563
1605.749023	68718.179688
1604.709961	67798.679688
1603.669922	65808.757813
1602.630859	64677.394531
1601.590820	63546.429688
1600.550781	62675.230469
1599.510742	61687.531250
1598.470703	61239.746094
1597.429688	60276.000000
1596.389648	60449.718750
1595.348633	59374.394531
1594.307617	59622.898438
1593.265625	59129.195313
1592.224609	58542.332031
1591.182617	58907.488281
1590.140625	58582.105469
1589.098633	58989.097656
1588.056641	58896.972656
1587.014648	58802.546875
1585.971680	58822.363281
1584.928711	59215.031250
1583.886719	58661.589844
1582.842773	58886.414063
1581.799805	59446.546875
1580.755859	59428.960938
1579.712891	59106.367188
1578.668945	59244.808594
1577.625000	59217.949219
1576.580078	59516.882813
1575.536133	59140.980469
1574.491211	59588.695313
1573.446289	59645.511719
1572.401367	59255.832031
1571.356445	59480.082031
1570.311523	58860.429688
1569.265625	58638.425781
1568.219727	58985.816406
1567.173828	58440.921875
1566.127930	58372.417969
1565.082031	58090.269531
1564.035156	57750.164063
1562.988281	57393.925781
1561.941406	57402.250000
1560.894531	57533.570313
1559.847656	56808.609375
1558.799805	57014.226563
1557.751953	57266.156250
1556.704102	57146.929688
1555.656250	57308.312500
1554.608398	57311.988281
1553.560547	57141.812500
1552.511719	56644.925781
1551.462891	57401.773438
1550.414063	56960.613281
1549.365234	57024.558594
1548.315430	57493.753906
1547.265625	57321.402344
1546.216797	57894.546875
1545.166992	58124.925781
1544.116211	58093.710938
1543.066406	58085.640625
1542.015625	58022.054688
1540.965820	58085.699219
1539.915039	58075.316406
1538.863281	58067.250000
1537.812500	57957.464844
1536.760742	58296.113281
1535.709961	57229.605469
1534.658203	57485.082031
1533.605469	57862.898438
1532.553711	57194.296875
1531.501953	57103.246094
1530.449219	57136.902344
1529.396484	56764.257813
1528.343750	56689.484375
1527.290039	56153.210938
1526.237305	55956.285156
1525.183594	56250.769531
1524.129883	55650.277344
1523.076172	55559.613281
1522.022461	55286.843750
1520.968750	55396.820313
1519.914063	55866.289063
1518.859375	55409.257813
1517.804688	54952.386719
1516.750000	54958.675781
1515.694336	55356.484375
1514.639648	55671.250000
1513.583984	55546.175781
1512.528320	55082.773438
1511.472656	55466.457031
1510.416016	54987.121094
1509.360352	55290.156250
1508.303711	55505.675781
1507.247070	55279.562500
1506.190430	55658.253906
1505.132813	55710.359375
1504.076172	55325.722656
1503.018555	55724.882813
1501.960938	55165.750000
1500.903320	55730.195313
1499.844727	55770.742188
1498.787109	55540.292969
1497.728516	55224.964844
1496.669922	55366.585938
1495.611328	55964.906250
1494.552734	55606.066406
1493.493164	55669.523438
1492.434570	55317.742188
1491.375000	55355.996094
1490.315430	55557.050781
1489.254883	56023.992188
1488.195313	55436.273438
1487.134766	55880.144531
1486.074219	55290.367188
1485.013672	55484.367188
1483.953125	55355.304688
1482.892578	55638.542969
1481.831055	55550.710938
1480.769531	55412.539063
1479.708008	55782.589844
1478.646484	55742.835938
1477.583984	55355.277344
1476.522461	55075.386719
1475.459961	55740.300781
1474.397461	56217.441406
1473.334961	55642.566406
1472.271484	56110.402344
1471.208984	55720.894531
1470.145508	55761.179688
1469.082031	55378.722656
1468.018555	56273.476563
1466.954102	55845.378906
1465.890625	56148.234375
1464.826172	55939.507813
1463.761719	56306.152344
1462.697266	56421.585938
1461.631836	56685.312500
1460.567383	56602.125000
1459.501953	56651.281250
1458.436523	56490.574219
1457.371094	56193.093750
1456.305664	56702.859375
1455.239258	56156.960938
1454.172852	56810.140625
1453.107422	56977.687500
1452.040039	56965.179688
1450.973633	56847.882813
1449.907227	57026.714844
1448.839844	57223.699219
1447.772461	57794.003906
1446.705078	57148.515625
1445.637695	57707.242188
1444.569336	57498.902344
1443.500977	57463.546875
1442.432617	57644.300781
1441.364258	57704.449219
1440.295898	58271.660156
1439.227539	57795.117188
1438.158203	58500.761719
1437.088867	58306.164063
1436.019531	58888.753906
1434.950195	58376.082031
1433.879883	59026.589844
1432.810547	59422.503906
1431.740234	58989.480469
1430.669922	58874.445313
1429.598633	59084.035156
1428.528320	59111.992188
1427.457031	59577.863281
1426.386719	59201.902344
1425.314453	59254.765625
1424.243164	59271.324219
1423.171875	59020.324219
1422.099609	58454.296875
1421.027344	58180.859375
1419.955078	58272.375000
1418.882813	58493.000000
1417.810547	58332.964844
1416.737305	57606.750000
1415.664063	58234.984375
1414.590820	57896.210938
1413.517578	57609.617188
1412.444336	57796.160156
1411.370117	58566.464844
1410.295898	57829.664063
1409.221680	57769.488281
1408.147461	58102.871094
1407.073242	58185.125000
1405.998047	58468.566406
1404.922852	58315.632813
1403.847656	58205.695313
1402.772461	58267.523438
1401.697266	58412.921875
1400.621094	57941.601563
1399.544922	58166.046875
1398.468750	58431.054688
1397.392578	58752.402344
1396.316406	58818.566406
1395.239258	58902.761719
1394.162109	59329.894531
1393.084961	59937.351563
1392.007813	59876.933594
1390.930664	60400.628906
1389.852539	60919.621094
1388.774414	60931.187500
1387.696289	60823.289063
1386.618164	61423.046875
1385.540039	62042.863281
1384.460938	62326.792969
1383.382813	62534.039063
1382.303711	62799.757813
1381.223633	63087.894531
1380.144531	63040.503906
1379.064453	63197.945313
1377.985352	62972.773438
1376.905273	63244.910156
1375.825195	63683.410156
1374.744141	63208.617188
1373.664063	62740.734375
1372.583008	62239.296875
1371.501953	62317.988281
1370.420898	61926.929688
1369.338867	61266.359375
1368.257813	60954.257813
1367.175781	60640.015625
1366.093750	60730.144531
1365.011719	60350.937500
1363.929688	59947.167969
1362.846680	59857.789063
1361.763672	59974.914063
1360.680664	59602.835938
1359.597656	59715.468750
1358.514648	58816.460938
1357.430664	59211.757813
1356.346680	58842.320313
1355.262695	58708.402344
1354.178711	58457.976563
1353.094727	58290.554688
1352.009766	58082.863281
1350.925781	58244.871094
1349.840820	58131.328125
1348.755859	58201.453125
1347.669922	57552.835938
1346.584961	57625.273438
1345.499023	57283.621094
1344.413086	57112.156250
1343.327148	57028.011719
1342.240234	57221.273438
1341.154297	57870.722656
1340.067383	57694.796875
1338.980469	57259.582031
1337.893555	57358.773438
1336.805664	57500.386719
1335.718750	57726.859375
1334.630859	57316.523438
1333.542969	56971.109375
1332.455078	57385.144531
1331.367188	57627.093750
1330.278320	57491.660156
1329.189453	57554.929688
1328.100586	57528.906250
1327.011719	57779.574219
1325.922852	58099.300781
1324.833008	57830.062500
1323.743164	58015.855469
1322.653320	57597.335938
1321.563477	58130.871094
1320.473633	57942.050781
1319.382813	57735.464844
1318.291992	58088.203125
1317.201172	58068.789063
1316.110352	58523.789063
1315.019531	58461.984375
1313.927734	58587.226563
1312.835938	58302.824219
1311.744141	58701.800781
1310.652344	58775.742188
1309.560547	59036.542969
1308.467773	59281.671875
1307.375000	58870.617188
1306.282227	59324.710938
1305.189453	59149.457031
1304.095703	59154.312500
1303.002930	59221.390625
1301.909180	59770.628906
1300.815430	59435.453125
1299.721680	59340.289063
1298.626953	59895.859375
1297.533203	59765.113281
1296.438477	59634.414063
1295.343750	60229.578125
1294.248047	60203.136719
1293.153320	60376.398438
1292.057617	60616.148438
1290.961914	61055.429688
1289.866211	60776.042969
1288.770508	60875.898438
1287.674805	60989.015625
1286.578125	60712.000000
1285.481445	61097.667969
1284.384766	61091.031250
1283.288086	60532.808594
1282.190430	61088.832031
1281.092773	61077.765625
1279.996094	60336.078125
1278.897461	60586.351563
1277.799805	60604.144531
1276.702148	60641.843750
1275.603516	60318.906250
1274.504883	60133.226563
1273.406250	59788.375000
1272.307617	59496.714844
1271.208008	59421.820313
1270.108398	59640.929688
1269.008789	59577.074219
1267.909180	59473.472656
1266.809570	58841.906250
1265.708984	59080.832031
1264.609375	58710.148438
1263.508789	58871.726563
1262.407227	58366.550781
1261.306641	58856.996094
1260.206055	58009.949219
1259.104492	58014.871094
1258.002930	58244.800781
1256.901367	57678.425781
1255.798828	57850.992188
1254.697266	57871.363281
1253.594727	57757.257813
1252.492188	57471.281250
1251.389648	57478.480469
1250.286133	57265.355469
1249.183594	57481.851563
1248.080078	57048.562500
1246.976563	57088.851563
1245.872070	57532.019531
1244.768555	57206.804688
1243.664063	56661.628906
1242.560547	56479.710938
1241.455078	56953.457031
1240.350586	57343.441406
1239.246094	57352.824219
1238.140625	57199.488281
1237.035156	56854.945313
1235.929688	57064.417969
1234.824219	57100.203125
1233.717773	56725.097656
1232.612305	56580.792969
1231.505859	56983.437500
1230.399414	56670.039063
1229.291992	56962.734375
1228.185547	56587.984375
1227.078125	56384.558594
1225.970703	56319.453125
1224.863281	56443.054688
1223.755859	56189.308594
1222.647461	56389.644531
1221.539063	56197.394531
1220.430664	56040.289063
1219.322266	56665.785156
1218.213867	56201.820313
1217.104492	56193.796875
1215.995117	56496.867188
1214.885742	55884.230469
1213.776367	55655.070313
1212.666992	55993.101563
1211.556641	56046.406250
1210.446289	56101.503906
1209.335938	56156.597656
1208.225586	56211.695313
1207.115234	56266.792969
1206.003906	56321.937500
1204.892578	56377.082031
1203.781250	56432.226563
1202.669922	56487.371094
1201.557617	56365.628906
1200.446289	56394.707031
1199.333984	56876.039063
1198.221680	57064.472656
1197.108398	56964.542969
1195.996094	57192.195313
1194.882813	57411.031250
1193.769531	57184.476563
1192.656250	57294.105469
1191.542969	57346.957031
1190.428711	57332.152344
1189.314453	57679.445313
1188.200195	57557.718750
1187.085938	57710.777344
1185.971680	57619.605469
1184.856445	57569.878906
1183.741211	57413.382813
1182.625977	57577.238281
1181.510742	57492.683594
1180.395508	57525.773438
1179.279297	57826.707031
1178.163086	57925.039063
1177.046875	57672.851563
1175.930664	57851.703125
1174.813477	57645.312500
1173.697266	57323.683594
1172.580078	57443.757813
1171.462891	57107.050781
1170.344727	57585.914063
1169.227539	56886.218750
1168.109375	57306.250000
1166.991211	56367.789063
1165.873047	56214.101563
1164.754883	56853.445313
1163.635742	56845.253906
1162.516602	56708.929688
1161.397461	56800.644531
1160.278320	56197.617188
1159.159180	56146.128906
1158.039063	56906.300781
1156.918945	56366.500000
1155.798828	56247.750000
1154.678711	56593.207031
1153.558594	56270.605469
1152.437500	56453.312500
1151.316406	56297.773438
1150.195313	56393.703125
1149.074219	56502.601563
1147.952148	56336.296875
1146.831055	56063.906250
1145.708984	56696.925781
1144.586914	57074.191406
1143.463867	57042.128906
1142.341797	57427.847656
1141.218750	57726.851563
1140.095703	58014.925781
1138.972656	57859.386719
1137.849609	58701.070313
1136.725586	58432.996094
1135.601563	58428.816406
1134.477539	58275.464844
1133.353516	58658.214844
1132.229492	58241.218750
1131.104492	58167.925781
1129.979492	58168.105469
1128.854492	58116.441406
1127.729492	58079.914063
1126.603516	58140.558594
1125.478516	57950.761719
1124.352539	57873.269531
1123.226563	57998.648438
1122.099609	57750.722656
1120.973633	57349.730469
1119.846680	57248.667969
1118.719727	57576.753906
1117.592773	57331.234375
1116.465820	57163.398438
1115.337891	56534.417969
1114.209961	56715.863281
1113.082031	56795.980469
1111.954102	56593.894531
1110.826172	56424.183594
1109.697266	56071.507813
1108.568359	56565.015625
1107.439453	56444.898438
1106.310547	56073.039063
1105.180664	56323.132813
1104.051758	56145.039063
1102.921875	56018.625000
1101.791992	56004.078125
1100.661133	56335.695313
1099.531250	56136.218750
1098.400391	56242.011719
1097.269531	55838.480469
1096.138672	56064.597656
1095.006836	55648.351563
1093.875977	55636.023438
1092.744141	55849.160156
1091.612305	55544.816406
1090.480469	55317.855469
1089.347656	55397.867188
1088.215820	54681.785156
1087.083008	54882.019531
1085.950195	55084.324219
1084.816406	55063.515625
1083.683594	54802.570313
1082.549805	55169.839844
1081.416016	54658.191406
1080.282227	54798.191406
1079.148438	54713.167969
1078.013672	54377.535156
1076.878906	54406.128906
1075.744141	54691.679688
1074.609375	54120.714844
1073.474609	54618.132813
1072.338867	53916.832031
1071.203125	54523.230469
1070.067383	54590.261719
1068.931641	54098.972656
1067.794922	54548.875000
1066.659180	54756.984375
1065.522461	54426.269531
1064.385742	54595.843750
1063.248047	54173.378906
1062.111328	54163.449219
1060.973633	54008.253906
1059.835938	54085.925781
1058.698242	54048.250000
1057.559570	54147.234375
1056.421875	53992.148438
1055.283203	54424.062500
1054.144531	54123.863281
1053.005859	53962.453125
1051.866211	54144.546875
1050.726563	53927.734375
1049.587891	53937.039063
1048.447266	54193.648438
1047.307617	54712.351563
1046.167969	54459.355469
1045.027344	54191.535156
1043.886719	54718.464844
1042.746094	54621.093750
1041.604492	54900.707031
1040.463867	54569.113281
1039.322266	54539.941406
1038.180664	54887.519531
1037.038086	54290.089844
1035.896484	54605.667969
1034.753906	54531.828125
1033.611328	54560.101563
1032.468750	54573.480469
1031.326172	54121.222656
1030.182617	54604.464844
1029.040039	54360.648438
1027.896484	54590.789063
1026.751953	54582.890625
1025.608398	54541.007813
1024.463867	54467.277344
1023.319336	54707.839844
1022.174805	55026.859375
1021.030273	54940.339844
1019.885742	54673.457031
1018.740234	54398.179688
1017.594727	54417.886719
1016.449219	55023.003906
1015.303711	54635.414063
1014.157227	54328.531250
1013.010742	54549.621094
1011.864258	54476.011719
1010.717773	55063.593750
1009.571289	54816.175781
1008.423828	54378.195313
1007.276367	54647.769531
1006.128906	54771.132813
1004.981445	55133.691406
1003.833008	55043.117188
1002.684570	54990.667969
1001.536133	55200.625000
1000.387695	55943.640625
999.239258	55641.449219
998.089844	55978.054688
996.941406	55775.343750
995.791992	55407.808594
994.641602	55792.875000
993.492188	55414.902344
992.341797	55322.304688
991.191406	55707.167969
990.041016	55745.500000
988.890625	55728.910156
987.739258	55805.222656
986.588867	55693.625000
985.437500	55598.953125
984.285156	55635.148438
983.133789	55654.445313
981.981445	55850.925781
980.829102	55730.976563
979.676758	55254.710938
978.524414	55752.628906
977.372070	55563.195313
976.218750	55850.121094
975.065430	56065.296875
973.912109	55517.765625
972.757813	56120.476563
971.604492	56207.015625
970.450195	55743.976563
969.295898	56224.207031
968.141602	56234.902344
966.986328	55702.660156
965.832031	55389.425781
964.676758	55806.250000
963.521484	56368.042969
962.365234	55823.542969
961.209961	55964.632813
960.053711	55710.484375
958.897461	55960.824219
957.741211	55517.648438
956.584961	55639.773438
955.427734	55717.738281
954.270508	55686.468750
953.113281	55886.175781
951.956055	55518.988281
950.797852	55449.984375
949.639648	55685.292969
948.481445	55351.906250
947.323242	55956.351563
946.165039	55677.566406
945.005859	55417.753906
943.847656	55774.445313
942.687500	55697.078125
941.528320	55626.027344
940.369141	55630.433594
939.208984	55565.703125
938.048828	55974.390625
936.888672	55348.339844
935.728516	55220.867188
934.567383	55359.320313
933.406250	56004.261719
932.245117	56025.316406
931.083984	55502.347656
929.922852	55791.257813
928.760742	56002.671875
927.598633	55770.664063
926.436523	56249.625000
925.274414	56370.941406
924.111328	56111.816406
922.948242	56402.371094
921.785156	56582.082031
920.622070	56926.750000
919.458984	56337.718750
918.294922	56907.816406
917.130859	56861.812500
915.966797	57375.238281
914.802734	56680.113281
913.637695	57045.230469
912.472656	57766.949219
911.307617	57120.105469
910.142578	57789.402344
908.977539	58047.699219
907.811523	57674.242188
906.645508	58095.031250
905.479492	58594.847656
904.313477	58200.656250
903.146484	57987.835938
901.980469	57995.863281
900.813477	57766.496094
899.646484	57291.539063
898.478516	57362.132813
897.311523	57166.300781
896.143555	57082.902344
894.975586	57478.031250
893.806641	57176.199219
892.638672	57296.644531
891.469727	57458.628906
890.300781	57429.292969
889.131836	57574.558594
887.962891	57549.363281
886.792969	57281.078125
885.623047	57476.140625
884.453125	57097.886719
883.283203	57984.406250
882.112305	57629.031250
880.942383	57304.917969
879.771484	57846.378906
878.600586	58126.179688
877.428711	58499.238281
876.257813	58785.031250
875.085938	58921.398438
873.914063	59163.460938
872.741211	59129.703125
871.569336	59433.816406
870.396484	59161.695313
869.223633	59173.535156
868.050781	58992.707031
866.877930	59582.433594
865.704102	59525.843750
864.530273	59972.386719
863.356445	60431.183594
862.182617	60345.480469
861.007813	60328.097656
859.833984	61001.730469
858.659180	61426.890625
857.484375	61070.128906
856.308594	60608.042969
855.133789	60952.402344
853.958008	60631.062500
852.782227	60202.371094
851.605469	60220.140625
850.429688	60454.816406
849.252930	60030.519531
848.076172	60184.601563
846.899414	60598.769531
845.722656	60434.777344
844.544922	60570.113281
843.367188	60573.328125
842.189453	60904.585938
841.011719	61097.507813
839.833008	61669.835938
838.655273	62130.601563
837.476563	62500.480469
836.296875	62742.425781
835.118164	62794.675781
833.938477	63110.644531
832.758789	62598.332031
831.579102	62710.300781
830.399414	61889.347656
829.219727	61072.812500
828.039063	60843.273438
826.858398	60008.703125
825.677734	59328.781250
824.496094	59134.660156
823.315430	58848.039063
822.133789	58508.050781
820.952148	58379.980469
819.769531	58258.125000
818.587891	57786.875000
817.405273	57741.210938
816.222656	57440.769531
815.040039	57060.316406
813.856445	57606.351563
812.673828	57725.035156
811.490234	57324.199219
810.305664	56796.234375
809.122070	56779.527344
807.938477	56803.867188
806.753906	56836.402344
805.569336	56996.105469
804.383789	56735.300781
803.199219	56423.328125
802.013672	56593.257813
800.828125	56613.492188
799.642578	56316.050781
798.457031	56229.773438
797.270508	56727.390625
796.083984	56026.578125
794.897461	55649.589844
793.710938	55923.851563
792.523438	55491.742188
791.336914	55548.968750
790.149414	55117.089844
788.961914	55354.406250
787.773438	55288.882813
786.585938	55151.796875
785.397461	54791.871094
784.208984	54951.375000
783.019531	55133.296875
781.831055	54538.542969
780.641602	54773.597656
779.452148	55000.390625
778.262695	54679.687500
777.072266	54785.917969
775.882813	53648.644531
774.692383	54312.335938
773.501953	54187.929688
772.310547	54365.589844
771.120117	54029.023438
769.928711	54247.437500
768.737305	54386.226563
767.544922	54304.734375
766.353516	54690.148438
765.161133	54592.316406
763.968750	54372.238281
762.776367	54916.351563
761.583984	54775.742188
760.390625	55183.101563
759.197266	55464.042969
758.003906	55510.726563
756.810547	55455.601563
755.616211	56471.093750
754.421875	56246.902344
753.227539	56620.964844
752.033203	56382.585938
750.838867	55908.363281
749.643555	56174.500000
748.448242	55399.589844
747.252930	55751.089844
746.057617	55238.714844
744.861328	54742.785156
743.665039	54565.992188
742.468750	54525.355469
741.272461	54594.394531
740.075195	54529.394531
738.878906	53995.476563
737.681641	54435.996094
736.484375	54543.546875
735.286133	54005.859375
734.087891	53965.359375
732.890625	54267.632813
731.691406	54148.011719
730.493164	53862.187500
729.294922	53992.007813
728.095703	53641.457031
726.896484	53945.523438
725.696289	53828.089844
724.497070	53228.621094
723.296875	53755.351563
722.096680	54263.660156
720.896484	53405.316406
719.696289	53237.480469
718.495117	53844.750000
717.293945	53492.773438
716.092773	53640.574219
714.891602	53311.007813
713.689453	53600.328125
712.487305	53750.039063
711.285156	53485.312500
710.083008	53348.003906
708.880859	53849.257813
707.677734	53160.406250
706.474609	53808.949219
705.271484	53310.187500
704.068359	53039.769531
702.864258	53647.589844
701.660156	53772.800781
700.456055	53458.042969
699.251953	53220.066406
698.046875	53476.398438
696.841797	53286.906250
695.636719	53498.761719
694.431641	53742.792969
693.226563	53091.753906
692.020508	53551.406250
690.814453	53075.941406
689.608398	53640.175781
688.402344	53519.367188
687.195313	53676.511719
685.988281	53430.902344
684.781250	53825.542969
683.574219	53658.488281
682.366211	53946.281250
681.158203	53471.433594
679.950195	54107.148438
678.742188	54201.609375
677.534180	54338.261719
676.325195	53887.812500
675.116211	54114.921875
673.907227	54179.156250
672.697266	54189.113281
671.488281	54313.574219
670.278320	54032.257813
669.068359	54271.164063
667.858398	54100.382813
666.647461	54138.437500
665.436523	54060.066406
664.225586	53752.960938
663.014648	53724.843750
661.802734	53714.785156
660.591797	53670.636719
659.379883	53323.718750
658.167969	53331.781250
656.955078	53540.277344
655.743164	52971.121094
654.530273	53191.625000
653.317383	53918.878906
652.103516	53450.113281
650.890625	53067.628906
649.676758	53454.117188
648.462891	53618.261719
647.249023	53634.238281
646.034180	53045.886719
644.819336	53300.039063
643.604492	53550.089844
642.389648	53098.074219
641.174805	53488.035156
639.958984	53661.933594
638.743164	53318.078125
637.527344	53605.851563
636.311523	53477.917969
635.094727	53645.687500
633.877930	53875.308594
632.661133	53587.636719
631.444336	53655.453125
630.226563	53735.222656
629.008789	53681.238281
627.791016	53669.175781
626.573242	53315.964844
625.355469	53361.816406
624.136719	53640.980469
622.917969	53589.046875
621.699219	52919.128906
620.480469	53369.625000
619.260742	53018.843750
618.041016	52943.144531
616.821289	53010.902344
615.601563	53056.722656
614.380859	52895.425781
613.160156	53542.511719
611.939453	53241.839844
610.718750	53132.339844
609.497070	52764.199219
608.276367	53331.234375
607.054688	52937.332031
605.832031	53368.886719
604.610352	53476.175781
603.387695	53134.148438
602.165039	52913.484375
600.942383	53243.363281
599.719727	53283.035156
598.496094	53314.746094
597.272461	53413.964844
596.048828	53445.632813
594.825195	53108.011719
593.600586	52919.386719
592.375977	53312.320313
591.151367	52836.011719
589.926758	52709.035156
588.701172	53524.257813
587.476563	52990.660156
586.250977	53046.132813
585.024414	52766.562500
583.798828	53131.242188
582.572266	53396.699219
581.345703	53063.718750
580.119141	53535.093750
578.892578	53683.472656
577.665039	53772.382813
576.437500	53532.621094
575.209961	53288.988281
573.982422	53510.511719
572.753906	53894.199219
571.525391	53745.582031
570.296875	53381.429688
569.068359	54002.218750
567.838867	54027.652344
566.610352	54183.535156
565.380859	53938.148438
564.150391	53704.710938
562.920898	54212.230469
561.690430	53767.464844
560.459961	54541.390625
559.229492	53861.753906
557.999023	54001.652344
556.767578	54072.414063
555.536133	54228.003906
554.304688	54071.789063
553.073242	53791.351563
551.840820	53980.429688
550.608398	54305.496094
549.375977	54320.902344
548.143555	53841.527344
546.910156	54006.792969
545.676758	53972.972656
544.443359	54183.460938
543.209961	54031.433594
541.975586	54107.906250
540.742188	54097.714844
539.507813	53947.753906
538.272461	54221.015625
537.038086	54541.398438
535.802734	54517.351563
534.567383	54332.003906
533.332031	54036.585938
532.096680	54177.812500
530.860352	54425.148438
529.624023	54835.539063
528.387695	54408.562500
527.151367	54366.867188
525.914063	54435.199219
524.676758	54485.824219
523.439453	54459.843750
522.202148	54427.976563
520.963867	54820.136719
519.725586	54323.054688
518.487305	54320.656250
517.249023	54795.011719
516.009766	54331.554688
514.771484	54586.066406
513.532227	54291.449219
512.291992	54359.625000
511.052734	54447.371094
509.812500	54484.132813
508.572266	54148.597656
507.332031	54432.226563
506.090820	54502.257813
504.850586	54605.546875
503.609375	54264.363281
502.368164	54968.605469
501.125977	55081.531250
499.884766	54713.042969
498.642578	55193.769531
497.400391	54813.660156
496.157227	54854.156250
494.915039	55418.652344
493.671875	55079.761719
492.428711	55432.902344
491.184570	55441.976563
489.941406	55150.156250
488.697266	55401.496094
487.453125	55166.429688
486.208984	54933.398438
484.963867	55416.960938
483.718750	55701.234375
482.473633	55612.648438
481.228516	56043.113281
479.982422	55767.207031
478.737305	55836.636719
477.491211	56075.699219
476.244141	56279.570313
474.998047	56327.414063
473.750977	56279.734375
472.503906	56538.007813
471.256836	56274.042969
470.009766	57038.667969
468.761719	56706.539063
467.513672	57003.468750
466.265625	57541.687500
465.017578	57297.230469
463.768555	57763.179688
462.519531	57958.500000
461.270508	58420.250000
460.021484	58304.171875
458.771484	58853.183594
457.521484	59125.906250
456.271484	59328.542969
455.021484	59259.011719
453.770508	59650.023438
452.519531	59370.632813
451.268555	60037.289063
450.017578	60579.402344
448.765625	60802.875000
447.514648	61433.929688
446.262695	61497.992188
445.009766	62041.347656
443.757813	62489.425781
442.504883	62444.613281
441.251953	62401.757813
439.999023	61744.226563
438.745117	61443.664063
437.492188	61162.593750
436.238281	60211.089844
434.983398	59554.460938
433.729492	59353.328125
432.474609	58954.707031
431.219727	58594.964844
429.964844	58490.925781
428.709961	58282.394531
427.454102	58178.449219
426.198242	58215.796875
424.942383	58229.914063
423.685547	57714.023438
422.429688	57706.949219
421.172852	58260.617188
419.916016	57847.460938
418.658203	57913.808594
417.401367	57647.742188
416.143555	57876.390625
414.885742	58408.238281
413.626953	57585.980469
412.369141	58024.984375
411.110352	57701.214844
409.851563	58352.355469
408.591797	57891.617188
407.333008	57647.160156
406.073242	57892.804688
404.813477	57895.320313
403.553711	58038.609375
402.292969	57979.394531
401.032227	58060.921875
