#Wave		#Intensity
2001.182617	35529.593750
2000.212891	35985.777344
1999.243164	35989.519531
1998.273438	35587.347656
1997.303711	35450.867188
1996.333008	35482.246094
1995.363281	35420.957031
1994.392578	35502.410156
1993.421875	35343.500000
1992.451172	35665.222656
1991.479492	35741.578125
1990.508789	35685.292969
1989.537109	35651.542969
1988.566406	35807.894531
1987.594727	35534.054688
1986.622070	35870.398438
1985.650391	35606.640625
1984.677734	35950.351563
1983.706055	35714.156250
1982.733398	35518.019531
1981.760742	35779.121094
1980.788086	36150.031250
1979.814453	35294.625000
1978.841797	35832.777344
1977.868164	35931.367188
1976.894531	36094.816406
1975.920898	35781.554688
1974.947266	35770.308594
1973.972656	35699.195313
1972.999023	36139.429688
1972.024414	35609.406250
1971.049805	36366.160156
1970.075195	36270.058594
1969.099609	36064.316406
1968.125000	35669.242188
1967.149414	35986.921875
1966.173828	35801.261719
1965.198242	36173.601563
1964.222656	35987.968750
1963.247070	35884.570313
1962.270508	36201.925781
1961.294922	36153.281250
1960.318359	35751.269531
1959.341797	35391.695313
1958.364258	36144.261719
1957.387695	36075.757813
1956.410156	35977.433594
1955.433594	36132.757813
1954.456055	36168.695313
1953.478516	35956.066406
1952.500000	35711.203125
1951.522461	36184.500000
1950.543945	36304.863281
1949.565430	36025.289063
1948.586914	36148.121094
1947.608398	36074.753906
1946.629883	35882.253906
1945.650391	36072.058594
1944.671875	36088.078125
1943.692383	36364.617188
1942.712891	36033.269531
1941.733398	36123.695313
1940.752930	36124.808594
1939.773438	36393.707031
1938.792969	35896.484375
1937.812500	36705.660156
1936.832031	36295.289063
1935.851563	35862.761719
1934.870117	36371.761719
1933.888672	36204.394531
1932.908203	36411.027344
1931.926758	36360.082031
1930.945313	36071.496094
1929.962891	36218.636719
1928.981445	36103.406250
1927.999023	36938.332031
1927.016602	36741.375000
1926.034180	36566.746094
1925.051758	36362.500000
1924.069336	36591.019531
1923.085938	36384.367188
1922.102539	36405.179688
1921.119141	36574.257813
1920.135742	36627.144531
1919.152344	36576.257813
1918.168945	36508.101563
1917.184570	36590.601563
1916.200195	36344.687500
1915.215820	36602.460938
1914.231445	36218.410156
1913.247070	36843.808594
1912.261719	36975.519531
1911.276367	36779.082031
1910.291992	36215.210938
1909.306641	36551.640625
1908.320313	36345.515625
1907.334961	36235.605469
1906.348633	36483.117188
1905.363281	36641.828125
1904.376953	36677.285156
1903.390625	36419.582031
1902.403320	36790.035156
1901.416992	36342.777344
1900.429688	36459.507813
1899.443359	36283.253906
1898.456055	36574.703125
1897.467773	36450.164063
1896.480469	36387.179688
1895.493164	36754.710938
1894.504883	36945.027344
1893.516602	36527.867188
1892.528320	36804.207031
1891.540039	36502.753906
1890.550781	36931.382813
1889.562500	37236.992188
1888.573242	36655.523438
1887.583984	36796.480469
1886.594727	36723.707031
1885.605469	36434.855469
1884.615234	36860.582031
1883.625000	36404.878906
1882.635742	37169.160156
1881.645508	37123.371094
1880.654297	37075.140625
1879.664063	36609.902344
1878.673828	36593.660156
1877.682617	36719.652344
1876.691406	37056.457031
1875.700195	36956.792969
1874.708984	37415.980469
1873.716797	36823.734375
1872.725586	36988.773438
1871.733398	37136.601563
1870.741211	37083.539063
1869.749023	36934.996094
1868.755859	37405.933594
1867.763672	37281.859375
1866.770508	37189.644531
1865.777344	37151.296875
1864.784180	37298.906250
1863.791016	37319.257813
1862.797852	37234.433594
1861.803711	37386.835938
1860.809570	37179.777344
1859.815430	37339.468750
1858.821289	37095.828125
1857.827148	37582.917969
1856.832031	37288.015625
1855.837891	37100.691406
1854.842773	37272.457031
1853.847656	37114.507813
1852.852539	37422.929688
1851.856445	37570.132813
1850.861328	37590.371094
1849.865234	37349.500000
1848.869141	37606.425781
1847.873047	37860.816406
1846.876953	37700.507813
1845.879883	37662.175781
1844.883789	37704.308594
1843.886719	37458.789063
1842.889648	37827.523438
1841.892578	37694.156250
1840.895508	37826.394531
1839.897461	37992.683594
1838.899414	37915.371094
1837.901367	37728.503906
1836.903320	38035.929688
1835.905273	37793.117188
1834.907227	38076.082031
1833.908203	37478.082031
1832.909180	38006.718750
1831.910156	37917.324219
1830.911133	37470.449219
1829.912109	37955.039063
1828.912109	38512.390625
1827.913086	38692.773438
1826.913086	38275.234375
1825.913086	38460.457031
1824.913086	38120.847656
1823.912109	38087.414063
1822.912109	37949.558594
1821.911133	38209.972656
1820.910156	38142.550781
1819.909180	38293.605469
1818.908203	38653.324219
1817.906250	38136.953125
1816.904297	38355.855469
1815.903320	38222.964844
1814.900391	38133.773438
1813.898438	38313.761719
1812.896484	38212.457031
1811.893555	38348.734375
1810.891602	38598.867188
1809.888672	38516.949219
1808.885742	38544.074219
1807.881836	38624.480469
1806.878906	38080.035156
1805.875000	38375.992188
1804.871094	38577.425781
1803.867188	38892.550781
1802.863281	38747.750000
1801.859375	38605.417969
1800.854492	38330.074219
1799.849609	38707.902344
1798.844727	38621.273438
1797.839844	38817.566406
1796.834961	38791.378906
1795.830078	38784.539063
1794.824219	38942.031250
1793.818359	38966.570313
1792.812500	39063.578125
1791.806641	39344.117188
1790.799805	38395.343750
1789.793945	39436.472656
1788.787109	39120.507813
1787.780273	39149.812500
1786.773438	39167.035156
1785.766602	39345.910156
1784.758789	38972.281250
1783.751953	39442.972656
1782.744141	39310.613281
1781.736328	39503.796875
1780.728516	39267.808594
1779.719727	39152.414063
1778.711914	39714.222656
1777.703125	39480.726563
1776.694336	39126.863281
1775.685547	39242.789063
1774.676758	39469.449219
1773.666992	39770.667969
1772.657227	39347.183594
1771.648438	39393.187500
1770.638672	39533.023438
1769.627930	39990.402344
1768.618164	39709.097656
1767.607422	40214.386719
1766.597656	40137.542969
1765.586914	40154.496094
1764.576172	40440.675781
1763.564453	40022.539063
1762.553711	40104.382813
1761.541992	40159.761719
1760.530273	40200.710938
1759.518555	40818.066406
1758.506836	40378.609375
1757.495117	40637.976563
1756.482422	40261.117188
1755.469727	40594.812500
1754.457031	40942.785156
1753.444336	40772.398438
1752.431641	41290.527344
1751.417969	41069.773438
1750.405273	41024.144531
1749.391602	41318.980469
1748.377930	41071.964844
1747.364258	41194.121094
1746.349609	41498.351563
1745.335938	41443.097656
1744.321289	41589.074219
1743.306641	41797.265625
1742.291992	41559.996094
1741.276367	42014.710938
1740.261719	42081.484375
1739.246094	41786.847656
1738.230469	41669.382813
1737.214844	42178.777344
1736.199219	41987.128906
1735.182617	42381.488281
1734.166992	42314.210938
1733.150391	42772.917969
1732.133789	42817.937500
1731.117188	42991.992188
1730.099609	43383.425781
1729.083008	43022.167969
1728.065430	43590.214844
1727.047852	43759.226563
1726.030273	43899.523438
1725.012695	44042.156250
1723.994141	44802.953125
1722.976563	44553.984375
1721.958008	44629.609375
1720.939453	44643.175781
1719.920898	44895.265625
1718.901367	45063.792969
1717.882813	45554.152344
1716.863281	45569.925781
1715.843750	45628.593750
1714.824219	45053.324219
1713.803711	45822.109375
1712.784180	45328.003906
1711.763672	45610.562500
1710.743164	46040.671875
1709.722656	45858.699219
1708.702148	45626.796875
1707.681641	45383.074219
1706.660156	45796.250000
1705.638672	45764.343750
1704.617188	45477.898438
1703.595703	45500.757813
1702.574219	45302.449219
1701.551758	45410.921875
1700.529297	45628.710938
1699.507813	45646.769531
1698.484375	45458.070313
1697.461914	45535.546875
1696.439453	45479.960938
1695.416016	45621.531250
1694.392578	45285.734375
1693.369141	45517.507813
1692.345703	45333.769531
1691.322266	45342.343750
1690.297852	45676.019531
1689.273438	45475.734375
1688.249023	45916.011719
1687.224609	45609.027344
1686.200195	45685.539063
1685.174805	45762.121094
1684.150391	45838.632813
1683.125000	45915.214844
1682.099609	45991.800781
1681.073242	46068.457031
1680.047852	46145.039063
1679.021484	46221.695313
1677.995117	46320.050781
1676.968750	46361.550781
1675.942383	46450.375000
1674.916016	46188.890625
1673.888672	47032.558594
1672.862305	46607.816406
1671.834961	46571.156250
1670.806641	46664.585938
1669.779297	46878.578125
1668.751953	47047.570313
1667.723633	47207.042969
1666.695313	46924.511719
1665.666992	47261.167969
1664.638672	47122.835938
1663.609375	47213.675781
1662.581055	47408.394531
1661.551758	47470.812500
1660.522461	47797.621094
1659.493164	47557.808594
1658.462891	47202.441406
1657.433594	47132.707031
1656.403320	47850.957031
1655.373047	47868.402344
1654.342773	48171.195313
1653.312500	47601.453125
1652.281250	48010.269531
1651.250977	47935.742188
1650.219727	48247.726563
1649.188477	47638.312500
1648.156250	48152.835938
1647.125000	48375.105469
1646.092773	48345.312500
1645.060547	48466.218750
1644.028320	48273.980469
1642.996094	48945.625000
1641.963867	48842.789063
1640.930664	48544.699219
1639.898438	48578.414063
1638.865234	48875.539063
1637.832031	48584.652344
1636.797852	49053.308594
1635.764648	49145.667969
1634.730469	48967.703125
1633.696289	49027.140625
1632.662109	49655.144531
1631.627930	49277.500000
1630.592773	49956.902344
1629.558594	49938.621094
1628.523438	49605.730469
1627.488281	50413.816406
1626.453125	50414.234375
1625.416992	50520.250000
1624.381836	51194.003906
1623.345703	51522.683594
1622.309570	52067.019531
1621.273438	52414.183594
1620.237305	52629.929688
1619.200195	53734.011719
1618.163086	54950.199219
1617.125977	55746.503906
1616.088867	56893.949219
1615.051758	58488.390625
1614.014648	59513.152344
1612.976563	60647.601563
1611.938477	61566.253906
1610.900391	61705.101563
1609.862305	62106.011719
1608.823242	61437.429688
1607.785156	60366.683594
1606.746094	60089.273438
1605.707031	58114.070313
1604.667969	57215.175781
1603.628906	56094.503906
1602.588867	55170.570313
1601.548828	54347.457031
1600.508789	53522.296875
1599.468750	53008.144531
1598.428711	52536.214844
1597.387695	52211.582031
1596.347656	51835.691406
1595.306641	51763.417969
1594.265625	51544.125000
1593.224609	51093.867188
1592.182617	51108.093750
1591.140625	51308.941406
1590.099609	50576.734375
1589.057617	50402.144531
1588.014648	50621.656250
1586.972656	50472.757813
1585.929688	50246.996094
1584.887695	50629.539063
1583.844727	50049.671875
1582.800781	50441.425781
1581.757813	50283.367188
1580.714844	50092.757813
1579.670898	49841.683594
1578.626953	50184.300781
1577.583008	50408.093750
1576.538086	50413.062500
1575.494141	49731.675781
1574.449219	49994.968750
1573.404297	50237.234375
1572.359375	50112.000000
1571.314453	50630.828125
1570.269531	50463.722656
1569.223633	49894.597656
1568.177734	49520.871094
1567.131836	49753.656250
1566.085938	49812.136719
1565.040039	49573.320313
1563.993164	49125.601563
1562.946289	49223.628906
1561.899414	48929.328125
1560.852539	48809.191406
1559.805664	48519.707031
1558.757813	49102.644531
1557.709961	48831.761719
1556.662109	49168.597656
1555.614258	48709.980469
1554.566406	48499.582031
1553.517578	48973.050781
1552.469727	48975.890625
1551.420898	48327.621094
1550.372070	48807.808594
1549.322266	48460.914063
1548.273438	48542.574219
1547.223633	48628.835938
1546.173828	48860.910156
1545.124023	49023.460938
1544.074219	49065.609375
1543.024414	48818.523438
1541.973633	48775.097656
1540.922852	48592.910156
1539.872070	48852.476563
1538.821289	48619.468750
1537.770508	48659.324219
1536.718750	48916.425781
1535.666992	49009.359375
1534.615234	48790.343750
1533.563477	48208.726563
1532.511719	48498.050781
1531.458984	48311.566406
1530.407227	48268.296875
1529.354492	48049.597656
1528.300781	48151.789063
1527.248047	47919.339844
1526.195313	47896.925781
1525.141602	47936.800781
1524.087891	47582.273438
1523.034180	47352.390625
1521.980469	47945.660156
1520.925781	47757.285156
1519.871094	47882.414063
1518.817383	47463.683594
1517.762695	47697.093750
1516.707031	47386.804688
1515.652344	47564.875000
1514.596680	47540.242188
1513.541016	47278.488281
1512.485352	47235.500000
1511.429688	47721.843750
1510.374023	47572.941406
1509.317383	47159.523438
1508.260742	47160.281250
1507.204102	47545.093750
1506.147461	47134.199219
1505.090820	47134.953125
1504.033203	47537.949219
1502.975586	47292.730469
1501.917969	47493.351563
1500.860352	47620.382813
1499.802734	47467.152344
1498.744141	47226.707031
1497.686523	47121.812500
1496.627930	47478.378906
1495.569336	47651.195313
1494.509766	47146.976563
1493.451172	47377.148438
1492.391602	47258.546875
1491.332031	47770.722656
1490.272461	47085.675781
1489.212891	47478.472656
1488.152344	47009.203125
1487.092773	47482.082031
1486.032227	47661.476563
1484.971680	47080.156250
1483.910156	47477.171875
1482.849609	47521.335938
1481.788086	47464.730469
1480.726563	47488.273438
1479.665039	47330.968750
1478.603516	47722.996094
1477.541992	47696.132813
1476.479492	47529.718750
1475.416992	48411.003906
1474.354492	47530.968750
1473.291992	47826.562500
1472.229492	47481.914063
1471.166016	47416.250000
1470.102539	47597.429688
1469.039063	47785.398438
1467.975586	47971.011719
1466.912109	47475.882813
1465.847656	48047.433594
1464.783203	47812.761719
1463.718750	48281.312500
1462.654297	48446.117188
1461.589844	48186.390625
1460.524414	48656.898438
1459.458984	48892.261719
1458.393555	48780.847656
1457.328125	48434.582031
1456.262695	48473.769531
1455.196289	48811.570313
1454.130859	48987.425781
1453.064453	48689.218750
1451.998047	48634.910156
1450.930664	49024.824219
1449.864258	48970.468750
1448.796875	49050.484375
1447.729492	48966.542969
1446.662109	49308.308594
1445.594727	49030.886719
1444.526367	49447.609375
1443.458008	49359.097656
1442.390625	49777.878906
1441.321289	49950.878906
1440.252930	50169.296875
1439.184570	50483.121094
1438.115234	50137.628906
1437.045898	50964.968750
1435.976563	50792.207031
1434.907227	51401.027344
1433.836914	51316.832031
1432.767578	51405.261719
1431.697266	51514.093750
1430.626953	51768.183594
1429.555664	52117.507813
1428.485352	52173.953125
1427.414063	52420.972656
1426.342773	52372.980469
1425.271484	52504.191406
1424.200195	52580.925781
1423.128906	52641.757813
1422.056641	52110.886719
1420.984375	52051.652344
1419.912109	52366.351563
1418.839844	52538.191406
1417.767578	52891.195313
1416.694336	52639.332031
1415.621094	52500.785156
1414.547852	52013.609375
1413.474609	51714.496094
1412.400391	52402.289063
1411.327148	51707.203125
1410.252930	51659.437500
1409.178711	51885.394531
1408.104492	51480.265625
1407.029297	51692.605469
1405.955078	52083.472656
1404.879883	51936.210938
1403.804688	52141.566406
1402.729492	52037.273438
1401.653320	51630.281250
1400.578125	52506.445313
1399.501953	52472.148438
1398.425781	52286.574219
1397.349609	52624.832031
1396.272461	52475.410156
1395.196289	52935.371094
1394.119141	52853.632813
1393.041992	53554.750000
1391.964844	53502.246094
1390.886719	53808.332031
1389.809570	54454.773438
1388.731445	54120.339844
1387.653320	54741.695313
1386.575195	54513.238281
1385.497070	55199.632813
1384.417969	54714.363281
1383.338867	55341.910156
1382.259766	54829.757813
1381.180664	55535.859375
1380.101563	55271.472656
1379.021484	55583.363281
1377.941406	55388.820313
1376.861328	55534.078125
1375.781250	55224.882813
1374.701172	54891.058594
1373.620117	54726.003906
1372.539063	54277.726563
1371.458008	53559.859375
1370.376953	53992.953125
1369.295898	54091.074219
1368.213867	53578.070313
1367.132813	53559.421875
1366.050781	53605.906250
1364.967773	53769.136719
1363.885742	53936.792969
1362.802734	54059.496094
1361.720703	54186.640625
1360.637695	54028.773438
1359.554688	54283.746094
1358.470703	53798.437500
1357.387695	53537.558594
1356.303711	53561.527344
1355.219727	52919.679688
1354.135742	52932.542969
1353.050781	52279.828125
1351.966797	52633.363281
1350.881836	51951.812500
1349.796875	51814.765625
1348.711914	51771.820313
1347.626953	51578.878906
1346.541016	51551.660156
1345.455078	51479.683594
1344.369141	51154.863281
1343.283203	51360.414063
1342.197266	51465.222656
1341.110352	50791.675781
1340.023438	51433.214844
1338.936523	51365.796875
1337.849609	51667.230469
1336.762695	50909.199219
1335.674805	51101.105469
1334.586914	51279.539063
1333.499023	51515.984375
1332.411133	51881.871094
1331.323242	51928.316406
1330.234375	51780.519531
1329.145508	51940.800781
1328.056641	51681.464844
1326.967773	51899.714844
1325.878906	52265.125000
1324.789063	52463.109375
1323.699219	52355.503906
1322.609375	53079.601563
1321.519531	53321.914063
1320.429688	53343.476563
1319.338867	54225.218750
1318.248047	54518.429688
1317.157227	54403.871094
1316.066406	55164.664063
1314.975586	55533.250000
1313.883789	55897.250000
1312.791992	56080.808594
1311.700195	56043.957031
1310.608398	56142.855469
1309.516602	55698.855469
1308.423828	55117.097656
1307.331055	55151.605469
1306.238281	54901.476563
1305.145508	54128.972656
1304.051758	53872.445313
1302.958984	54709.441406
1301.865234	54068.484375
1300.771484	53865.417969
1299.677734	53891.207031
1298.583008	54032.468750
1297.489258	53833.953125
1296.394531	54541.273438
1295.299805	54775.554688
1294.204102	54778.953125
1293.109375	54851.132813
1292.013672	55038.636719
1290.917969	54864.539063
1289.822266	54847.953125
1288.726563	54454.445313
1287.630859	54291.621094
1286.534180	53896.136719
1285.437500	54010.468750
1284.340820	54237.753906
1283.244141	53603.246094
1282.146484	53777.363281
1281.048828	53207.378906
1279.951172	52681.878906
1278.853516	52517.382813
1277.755859	52673.855469
1276.658203	52462.945313
1275.559570	52395.917969
1274.460938	52114.347656
1273.362305	51534.312500
1272.262695	51146.859375
1271.164063	51606.273438
1270.064453	51391.355469
1268.964844	50654.953125
1267.865234	50831.375000
1266.765625	51049.703125
1265.665039	50896.878906
1264.564453	50788.273438
1263.463867	50737.109375
1262.363281	50173.808594
1261.262695	50500.199219
1260.161133	50007.757813
1259.059570	49778.046875
1257.958008	50055.796875
1256.856445	49629.863281
1255.754883	49618.652344
1254.652344	49622.878906
1253.549805	49426.503906
1252.447266	49212.566406
1251.344727	48994.296875
1250.242188	49456.886719
1249.138672	49498.574219
1248.035156	49293.582031
1246.931641	49330.875000
1245.828125	49299.906250
1244.724609	49264.542969
1243.620117	49251.199219
1242.515625	49730.742188
1241.411133	49792.113281
1240.306641	49334.359375
1239.201172	50042.332031
1238.096680	49872.734375
1236.991211	49593.277344
1235.885742	49502.945313
1234.779297	49535.710938
1233.673828	49557.472656
1232.567383	49678.082031
1231.460938	49363.761719
1230.354492	49374.558594
1229.248047	49912.289063
1228.140625	49762.730469
1227.033203	49411.300781
1225.926758	49292.605469
1224.818359	49068.636719
1223.710938	49428.242188
1222.602539	49460.933594
1221.495117	48923.480469
1220.386719	49392.531250
1219.278320	49056.945313
1218.168945	48949.406250
1217.060547	48914.214844
1215.951172	49109.066406
1214.841797	49100.136719
1213.731445	48837.171875
1212.622070	49020.976563
1211.511719	48534.812500
1210.402344	49007.527344
1209.291992	49206.515625
1208.180664	49282.898438
1207.070313	49122.988281
1205.958984	49192.792969
1204.847656	49002.339844
1203.736328	49441.644531
1202.625000	49677.484375
1201.512695	49600.691406
1200.401367	49783.968750
1199.289063	49914.738281
1198.176758	49781.144531
1197.063477	49990.488281
1195.951172	50977.132813
1194.837891	50629.453125
1193.724609	50936.750000
1192.611328	50514.996094
1191.498047	50743.644531
1190.383789	50319.894531
1189.269531	50264.925781
1188.155273	50220.882813
1187.041016	49960.984375
1185.926758	49760.042969
1184.811523	49602.761719
1183.696289	49510.917969
1182.581055	49532.406250
1181.465820	49390.500000
1180.350586	49035.187500
1179.234375	49078.519531
1178.118164	49476.734375
1177.001953	48692.746094
1175.885742	48899.351563
1174.768555	48690.238281
1173.652344	48644.382813
1172.535156	48541.980469
1171.417969	48641.878906
1170.299805	48617.796875
1169.182617	47789.292969
1168.064453	48713.109375
1166.946289	48428.218750
1165.828125	48584.535156
1164.709961	48360.597656
1163.590820	48088.953125
1162.471680	47565.484375
1161.352539	47995.425781
1160.233398	47723.988281
1159.114258	47856.371094
1157.994141	48092.875000
1156.874023	48086.273438
1155.753906	47867.074219
1154.633789	47955.949219
1153.513672	47821.425781
1152.392578	47728.144531
1151.271484	48166.000000
1150.150391	48146.378906
1149.029297	48245.945313
1147.907227	47665.160156
1146.786133	47658.628906
1145.664063	48106.917969
1144.541992	48018.019531
1143.418945	48608.968750
1142.296875	48593.601563
1141.173828	48820.636719
1140.050781	48588.851563
1138.927734	49010.503906
1137.803711	49447.144531
1136.680664	49314.847656
1135.556641	49515.582031
1134.432617	49130.378906
1133.308594	48885.812500
1132.183594	49246.425781
1131.059570	49174.773438
1129.934570	48643.007813
1128.809570	49197.855469
1127.684570	49288.203125
1126.558594	49009.316406
1125.432617	49419.152344
1124.307617	49099.328125
1123.180664	49148.621094
1122.054688	48992.933594
1120.928711	48811.410156
1119.801758	48709.753906
1118.674805	48573.628906
1117.547852	48155.125000
1116.419922	48478.277344
1115.292969	48424.160156
1114.165039	48139.500000
1113.037109	48792.093750
1111.909180	47999.128906
1110.780273	48266.011719
1109.652344	48003.113281
1108.523438	47546.554688
1107.394531	48170.667969
1106.264648	48157.554688
1105.135742	48163.812500
1104.005859	48071.105469
1102.875977	48124.691406
1101.746094	48466.410156
1100.616211	48416.695313
1099.485352	48313.253906
1098.355469	48085.191406
1097.224609	48250.453125
1096.092773	48587.531250
1094.961914	48174.804688
1093.830078	47888.937500
1092.699219	47927.417969
1091.567383	48090.398438
1090.434570	48057.984375
1089.302734	47647.867188
1088.169922	47827.972656
1087.037109	47812.781250
1085.904297	47675.335938
1084.771484	47441.429688
1083.637695	47248.351563
1082.504883	47299.726563
1081.371094	47732.597656
1080.236328	47376.699219
1079.102539	47134.480469
1077.968750	47374.343750
1076.833984	47421.355469
1075.699219	47444.792969
1074.564453	47478.921875
1073.428711	47560.132813
1072.292969	47345.960938
1071.158203	47609.042969
1070.022461	47617.437500
1068.885742	47668.609375
1067.750000	47683.398438
1066.613281	47452.285156
1065.476563	47873.300781
1064.339844	47186.949219
1063.203125	47635.636719
1062.065430	47799.980469
1060.927734	47750.628906
1059.790039	47466.343750
1058.652344	47500.351563
1057.514648	47538.617188
1056.375977	47429.570313
1055.237305	47320.562500
1054.098633	47324.687500
1052.959961	47271.207031
1051.820313	48128.605469
1050.681641	47968.351563
1049.541992	47827.347656
1048.402344	47810.050781
1047.261719	48391.734375
1046.122070	47696.609375
1044.981445	48346.281250
1043.840820	47721.718750
1042.700195	48403.097656
1041.558594	47819.210938
1040.417969	47818.953125
1039.276367	48146.542969
1038.134766	47667.312500
1036.992188	47854.351563
1035.850586	47737.054688
1034.708008	47779.347656
1033.565430	47255.867188
1032.422852	47500.250000
1031.280273	47425.617188
1030.136719	47706.015625
1028.994141	47639.871094
1027.850586	47641.750000
1026.706055	47575.636719
1025.562500	47464.941406
1024.417969	47022.972656
1023.273438	47405.042969
1022.128906	47657.468750
1020.984375	47672.062500
1019.839844	47790.640625
1018.694336	47750.035156
1017.548828	47997.960938
1016.403320	47942.476563
1015.256836	47628.292969
1014.111328	47950.304688
1012.964844	47704.066406
1011.818359	48059.855469
1010.671875	47741.632813
1009.524414	47747.691406
1008.377930	47819.414063
1007.230469	47888.988281
1006.083008	48085.589844
1004.934570	47644.847656
1003.787109	48053.093750
1002.638672	47826.269531
1001.490234	48105.253906
1000.341797	47977.937500
999.193359	48322.355469
998.043945	48036.425781
996.894531	47811.917969
995.745117	48177.316406
994.595703	48111.386719
993.446289	47823.582031
992.295898	48053.542969
991.145508	48135.539063
989.995117	48247.074219
988.844727	47900.324219
987.693359	48087.863281
986.541992	48389.328125
985.390625	48122.933594
984.239258	48512.902344
983.087891	48303.542969
981.935547	48360.042969
980.783203	48490.339844
979.630859	48829.335938
978.478516	48936.300781
977.325195	48733.371094
976.172852	48899.316406
975.019531	48843.957031
973.865234	48813.898438
972.711914	48769.101563
971.557617	48688.519531
970.404297	48393.203125
969.250000	48676.906250
968.094727	48872.101563
966.940430	48656.871094
965.785156	48826.746094
964.629883	48969.210938
963.474609	49193.640625
962.319336	48818.691406
961.163086	49503.496094
960.007813	49305.191406
958.851563	49071.230469
957.694336	49425.703125
956.538086	49435.503906
955.380859	49228.945313
954.223633	49284.976563
953.066406	49030.226563
951.909180	49239.515625
950.751953	49184.261719
949.593750	49066.070313
948.435547	49088.496094
947.277344	49100.425781
946.118164	48999.085938
944.959961	49103.289063
943.800781	49001.980469
942.641602	48728.820313
941.482422	48527.015625
940.322266	49196.992188
939.162109	49009.835938
938.001953	49490.949219
936.841797	49532.082031
935.681641	48965.964844
934.520508	49189.312500
933.360352	48803.472656
932.198242	49160.695313
931.037109	49193.472656
929.875977	49625.800781
928.713867	49938.746094
927.551758	49916.980469
926.389648	49675.687500
925.227539	49898.554688
924.064453	49571.656250
922.901367	49869.683594
921.738281	49478.140625
920.575195	49728.027344
919.412109	50255.589844
918.248047	50006.175781
917.083984	50320.539063
915.919922	50484.492188
914.755859	50477.257813
913.590820	50659.898438
912.426758	51157.484375
911.261719	51289.867188
910.095703	51488.933594
908.930664	51546.140625
907.764648	51424.046875
906.598633	51914.765625
905.432617	51955.187500
904.266602	51916.417969
903.099609	51802.667969
901.933594	51189.105469
900.766602	51531.558594
899.599609	50628.875000
898.431641	50721.511719
897.264648	50449.906250
896.096680	50702.761719
894.928711	50362.601563
893.759766	50089.125000
892.591797	50173.445313
891.422852	50515.562500
890.253906	50242.203125
889.084961	50139.378906
887.916016	50485.460938
886.746094	50316.140625
885.576172	50456.398438
884.406250	50758.609375
883.236328	51355.574219
882.065430	50411.792969
880.895508	50956.703125
879.724609	51345.753906
878.552734	51460.753906
877.381836	51303.929688
876.209961	51570.312500
875.039063	51753.636719
873.866211	51787.601563
872.694336	51585.214844
871.522461	51971.558594
870.349609	51373.390625
869.176758	51641.523438
868.003906	51665.105469
866.830078	51533.339844
865.657227	51567.281250
864.483398	52209.917969
863.309570	52330.660156
862.135742	52492.750000
860.960938	52967.238281
859.786133	53033.976563
858.611328	52788.339844
857.436523	52704.109375
856.261719	52630.246094
855.085938	52610.156250
853.910156	52461.921875
852.734375	52102.945313
851.558594	51882.535156
850.382813	52418.300781
849.206055	51770.363281
848.029297	52287.359375
846.852539	52643.113281
845.674805	52815.015625
844.498047	53017.804688
843.320313	53691.003906
842.142578	53928.628906
840.963867	54692.167969
839.786133	54983.132813
838.607422	56065.796875
837.428711	56845.000000
836.250000	57030.273438
835.070313	56881.617188
833.891602	57301.707031
832.711914	56957.343750
831.532227	56987.972656
830.352539	55774.753906
829.171875	54868.765625
827.991211	54389.230469
826.810547	53210.093750
825.629883	53383.363281
824.449219	52480.539063
823.267578	52458.457031
822.085938	51852.292969
820.904297	51943.425781
819.722656	51284.121094
818.540039	51410.265625
817.357422	51279.468750
816.174805	51015.160156
814.992188	50876.261719
813.809570	50458.074219
812.625977	50933.355469
811.442383	50930.054688
810.258789	50337.589844
809.074219	50564.273438
807.890625	50624.652344
806.706055	50723.988281
805.521484	50753.539063
804.336914	50594.394531
803.151367	50788.000000
801.966797	50790.863281
800.781250	50553.898438
799.594727	50464.578125
798.409180	50623.218750
797.222656	49980.781250
796.037109	49594.613281
794.849609	49726.695313
793.663086	49565.937500
792.476563	49347.917969
791.289063	49920.019531
790.101563	49413.472656
788.914063	49774.609375
787.725586	49215.085938
786.538086	49610.886719
785.349609	48984.121094
784.161133	49398.214844
782.971680	49160.089844
781.783203	48772.863281
780.593750	49086.632813
779.404297	49355.343750
778.214844	49060.203125
777.024414	49122.550781
775.834961	48594.796875
774.644531	48953.207031
773.454102	48807.351563
772.262695	48851.324219
771.072266	48801.425781
769.880859	48537.359375
768.689453	49225.839844
767.497070	48894.492188
766.305664	49158.585938
765.113281	49432.769531
763.920898	49197.347656
762.728516	49504.019531
761.536133	49696.488281
760.342773	50131.269531
759.149414	49838.863281
757.956055	50399.691406
756.762695	50547.054688
755.568359	50317.824219
754.374023	50908.765625
753.179688	50883.007813
751.985352	51078.980469
750.791016	50662.699219
749.595703	50673.593750
748.400391	50509.640625
747.205078	49898.550781
746.009766	50228.648438
744.813477	49341.492188
743.617188	49519.199219
742.420898	49081.390625
741.224609	49317.968750
740.027344	48945.332031
738.830078	48718.992188
737.632813	49036.683594
736.435547	48779.968750
735.238281	48839.859375
734.040039	48414.902344
732.841797	49160.347656
731.643555	48496.207031
730.445313	48371.601563
729.246094	48305.824219
728.046875	48361.664063
726.847656	48241.199219
725.648438	48414.531250
724.449219	48105.722656
723.249023	47954.988281
722.048828	48348.964844
720.848633	48422.941406
719.647461	47970.652344
718.447266	48151.921875
717.246094	48318.957031
716.044922	48342.300781
714.842773	48029.906250
713.641602	48419.296875
712.439453	48438.562500
711.237305	47988.863281
710.035156	48450.789063
708.832031	48617.535156
707.629883	48317.546875
706.426758	48583.222656
705.223633	48372.203125
704.019531	48399.511719
702.815430	48493.425781
701.612305	48619.597656
700.408203	48156.476563
699.203125	48472.308594
697.999023	48527.804688
696.793945	48256.550781
695.588867	48451.195313
694.383789	47966.347656
693.177734	47806.207031
691.971680	48619.523438
690.766602	48785.738281
689.559570	48409.968750
688.353516	48191.441406
687.146484	48478.464844
685.939453	48652.625000
684.732422	48534.824219
683.525391	48578.078125
682.318359	48516.675781
681.110352	47857.750000
679.902344	48222.949219
678.693359	48205.886719
677.485352	48265.238281
676.276367	48103.421875
675.067383	48621.054688
673.858398	47936.710938
672.649414	48315.535156
671.439453	47956.945313
670.229492	48560.578125
669.019531	48226.167969
667.809570	48185.019531
666.598633	48372.730469
665.387695	47974.312500
664.176758	48370.679688
662.965820	48229.210938
661.754883	48137.941406
660.542969	48100.851563
659.331055	47965.523438
658.119141	48357.500000
656.906250	48482.742188
655.694336	48283.281250
654.481445	48192.089844
653.268555	48104.937500
652.054688	48296.218750
650.841797	48419.339844
649.627930	48316.171875
648.414063	48008.855469
647.200195	48520.226563
645.985352	48685.230469
644.770508	48946.199219
643.555664	49445.101563
642.340820	49267.843750
641.125977	49386.582031
639.910156	49289.363281
638.694336	49300.113281
637.478516	49107.019531
636.262695	49157.757813
635.045898	48878.859375
633.829102	48947.589844
632.612305	48792.636719
631.395508	48733.578125
630.177734	48954.000000
628.959961	48583.582031
627.742188	48333.027344
626.524414	48182.312500
625.306641	48434.578125
624.087891	47918.945313
622.869141	48316.714844
621.650391	48618.648438
620.430664	47947.792969
619.211914	48315.437500
617.992188	48515.578125
616.772461	48145.914063
615.551758	48148.828125
614.332031	48305.074219
613.111328	48481.164063
611.890625	48290.925781
610.669922	47973.382813
609.448242	48201.164063
608.226563	48331.378906
607.004883	48035.878906
605.783203	47897.597656
604.561523	48502.996094
603.338867	47406.484375
602.116211	47902.425781
600.893555	48294.843750
599.669922	47767.210938
598.447266	48328.351563
597.223633	48202.097656
596.000000	48169.214844
594.775391	48471.863281
593.551758	48254.335938
592.327148	47943.617188
591.102539	48379.070313
589.877930	48800.476563
588.652344	48105.027344
587.426758	48119.781250
586.201172	48247.546875
584.975586	48190.902344
583.750000	48502.925781
582.523438	48428.417969
581.296875	49005.757813
580.070313	48346.824219
578.842773	48805.128906
577.616211	48795.953125
576.388672	48198.792969
575.161133	49123.992188
573.932617	48596.257813
572.705078	48850.277344
571.476563	49052.761719
570.248047	49027.714844
569.018555	49275.566406
567.790039	48380.542969
566.560547	48800.398438
565.331055	48277.355469
564.101563	48258.390625
562.871094	48247.335938
561.641602	48473.316406
560.411133	48086.984375
559.179688	47919.972656
557.949219	47956.359375
556.717773	47963.125000
555.486328	48100.128906
554.254883	48029.910156
553.023438	47912.371094
551.791016	47891.515625
550.558594	47850.949219
549.326172	48263.851563
548.093750	47915.718750
546.860352	47833.777344
545.627930	47738.066406
544.393555	47721.195313
543.160156	47787.054688
541.926758	47537.796875
540.692383	47603.660156
539.458008	47659.656250
538.223633	47833.722656
536.988281	47848.324219
535.752930	47801.925781
534.517578	48186.339844
533.282227	48037.621094
532.046875	47790.636719
530.810547	47872.066406
529.574219	47717.585938
528.337891	47987.656250
527.101563	47947.171875
525.864258	47619.882813
524.626953	48196.218750
523.389648	47967.187500
522.152344	47977.777344
520.914063	47970.691406
519.675781	47800.707031
518.437500	47697.503906
517.199219	47931.785156
515.959961	47856.050781
514.721680	47766.613281
513.482422	47553.679688
512.242188	47830.933594
511.002930	47704.304688
509.762695	47834.441406
508.522461	48023.308594
507.282227	47659.671875
506.041016	47437.191406
504.800781	47866.878906
503.559570	47481.937500
502.318359	47402.503906
501.076172	47710.609375
499.833984	47568.542969
498.592773	48166.039063
497.349609	47863.542969
496.107422	47621.785156
494.864258	48013.625000
493.622070	47646.808594
492.377930	47917.308594
491.134766	48060.683594
489.891602	47666.707031
488.647461	47856.953125
487.403320	48099.855469
486.158203	47844.730469
484.914063	47878.640625
483.668945	48291.214844
482.423828	48328.929688
481.178711	48528.578125
479.932617	47735.167969
478.686523	48516.085938
477.440430	48228.050781
476.194336	48616.679688
474.948242	48545.675781
473.701172	48474.617188
472.454102	48403.558594
471.207031	48332.500000
469.958984	48870.718750
468.711914	48473.917969
467.463867	48861.972656
466.215820	48512.042969
464.966797	48950.542969
463.718750	48830.359375
462.469727	49517.679688
461.220703	49389.648438
459.970703	49736.230469
458.721680	49901.832031
457.471680	50100.421875
456.221680	49974.308594
454.970703	50089.234375
453.720703	50804.535156
452.469727	50602.589844
451.218750	51000.910156
449.966797	51296.152344
448.715820	51855.343750
447.463867	52321.136719
446.211914	53207.929688
444.959961	53681.046875
443.707031	54049.218750
442.454102	54364.867188
441.201172	54218.812500
439.948242	53700.511719
438.695313	52891.593750
437.441406	52294.261719
436.187500	51470.410156
434.933594	50807.691406
433.678711	49916.625000
432.424805	50050.496094
431.169922	49618.855469
429.914063	49367.437500
428.659180	49048.363281
427.403320	49135.835938
426.147461	49068.472656
424.891602	48739.953125
423.635742	48643.671875
422.378906	48108.421875
421.122070	48155.375000
419.865234	48331.832031
418.608398	47938.035156
417.350586	48481.632813
416.092773	48194.214844
414.834961	48071.105469
413.577148	48187.527344
412.318359	48300.039063
411.059570	48371.964844
409.800781	48061.667969
408.541992	48118.167969
407.282227	48286.558594
406.022461	47906.996094
404.762695	48351.175781
403.502930	48311.144531
402.242188	47762.117188
400.981445	48493.292969
