#Wave		#Intensity
2001.182617	37943.351563
2000.212891	37843.089844
1999.243164	38019.425781
1998.273438	38155.609375
1997.303711	38016.175781
1996.333008	38330.144531
1995.363281	37937.789063
1994.392578	38587.179688
1993.421875	38182.394531
1992.451172	38395.992188
1991.479492	38129.019531
1990.508789	38247.468750
1989.537109	38741.125000
1988.566406	38439.210938
1987.594727	38505.019531
1986.622070	38465.789063
1985.650391	38056.582031
1984.677734	38434.855469
1983.706055	38563.089844
1982.733398	38433.921875
1981.760742	38049.980469
1980.788086	38470.449219
1979.814453	38194.015625
1978.841797	38254.757813
1977.868164	38567.617188
1976.894531	38426.093750
1975.920898	38546.652344
1974.947266	38522.449219
1973.972656	38408.441406
1972.999023	38723.488281
1972.024414	38407.484375
1971.049805	38438.171875
1970.075195	38892.648438
1969.099609	38601.703125
1968.125000	38836.687500
1967.149414	38471.097656
1966.173828	38623.808594
1965.198242	38836.242188
1964.222656	39230.398438
1963.247070	38558.730469
1962.270508	39211.699219
1961.294922	38784.191406
1960.318359	38640.535156
1959.341797	38912.453125
1958.364258	39102.175781
1957.387695	38804.324219
1956.410156	39195.433594
1955.433594	38870.312500
1954.456055	39156.859375
1953.478516	38802.031250
1952.500000	38670.984375
1951.522461	39041.890625
1950.543945	39295.902344
1949.565430	38844.425781
1948.586914	39108.312500
1947.608398	39357.214844
1946.629883	39052.421875
1945.650391	38943.824219
1944.671875	38996.566406
1943.692383	38806.128906
1942.712891	39322.777344
1941.733398	39216.679688
1940.752930	38914.707031
1939.773438	38796.316406
1938.792969	39178.730469
1937.812500	39444.519531
1936.832031	39110.492188
1935.851563	39244.875000
1934.870117	39505.550781
1933.888672	39032.980469
1932.908203	39236.640625
1931.926758	39088.636719
1930.945313	39294.687500
1929.962891	39515.515625
1928.981445	39436.828125
1927.999023	39551.156250
1927.016602	39628.335938
1926.034180	39604.082031
1925.051758	39641.656250
1924.069336	39592.675781
1923.085938	39261.890625
1922.102539	39465.101563
1921.119141	39537.265625
1920.135742	39592.105469
1919.152344	39926.078125
1918.168945	39585.636719
1917.184570	39079.859375
1916.200195	39655.710938
1915.215820	39712.941406
1914.231445	39599.847656
1913.247070	39555.886719
1912.261719	39381.171875
1911.276367	39556.820313
1910.291992	39362.429688
1909.306641	39441.839844
1908.320313	39410.265625
1907.334961	39681.917969
1906.348633	39554.187500
1905.363281	39433.890625
1904.376953	39927.140625
1903.390625	39824.062500
1902.403320	40053.527344
1901.416992	39952.921875
1900.429688	39591.363281
1899.443359	39650.882813
1898.456055	39858.058594
1897.467773	40207.886719
1896.480469	39959.710938
1895.493164	40063.398438
1894.504883	39889.117188
1893.516602	40155.078125
1892.528320	39943.960938
1891.540039	40079.527344
1890.550781	39723.480469
1889.562500	40448.812500
1888.573242	40127.222656
1887.583984	39931.023438
1886.594727	40022.257813
1885.605469	40174.847656
1884.615234	40113.781250
1883.625000	39851.433594
1882.635742	39679.992188
1881.645508	39574.867188
1880.654297	40409.476563
1879.664063	40159.523438
1878.673828	40282.460938
1877.682617	40098.824219
1876.691406	40162.882813
1875.700195	40146.023438
1874.708984	40239.457031
1873.716797	40156.421875
1872.725586	40164.066406
1871.733398	40367.679688
1870.741211	40431.613281
1869.749023	40032.703125
1868.755859	40407.613281
1867.763672	40407.855469
1866.770508	40513.339844
1865.777344	40755.820313
1864.784180	40626.324219
1863.791016	40560.472656
1862.797852	40213.382813
1861.803711	40482.636719
1860.809570	40658.890625
1859.815430	40639.519531
1858.821289	40664.144531
1857.827148	40867.148438
1856.832031	41043.203125
1855.837891	40762.394531
1854.842773	40713.707031
1853.847656	41192.488281
1852.852539	40941.093750
1851.856445	41185.320313
1850.861328	41012.117188
1849.865234	41065.906250
1848.869141	41180.671875
1847.873047	41324.664063
1846.876953	41407.632813
1845.879883	41912.429688
1844.883789	41098.062500
1843.886719	41346.781250
1842.889648	41527.167969
1841.892578	41824.457031
1840.895508	41290.847656
1839.897461	41390.761719
1838.899414	41843.781250
1837.901367	41821.804688
1836.903320	41863.136719
1835.905273	41984.781250
1834.907227	42091.777344
1833.908203	41906.734375
1832.909180	41733.917969
1831.910156	41906.574219
1830.911133	42074.300781
1829.912109	42314.917969
1828.912109	42042.468750
1827.913086	41869.773438
1826.913086	41998.500000
1825.913086	42221.941406
1824.913086	42391.859375
1823.912109	41803.851563
1822.912109	41713.914063
1821.911133	42260.191406
1820.910156	42097.371094
1819.909180	42298.707031
1818.908203	42055.843750
1817.906250	42395.421875
1816.904297	42603.871094
1815.903320	41841.992188
1814.900391	42210.527344
1813.898438	42637.121094
1812.896484	42522.937500
1811.893555	42476.660156
1810.891602	42551.570313
1809.888672	42723.378906
1808.885742	42708.578125
1807.881836	42851.226563
1806.878906	42913.906250
1805.875000	42567.351563
1804.871094	42286.281250
1803.867188	42806.496094
1802.863281	42697.304688
1801.859375	42992.230469
1800.854492	42958.039063
1799.849609	43117.359375
1798.844727	43061.386719
1797.839844	43368.125000
1796.834961	43038.949219
1795.830078	43215.054688
1794.824219	43183.265625
1793.818359	43487.339844
1792.812500	43467.589844
1791.806641	43718.367188
1790.799805	43577.832031
1789.793945	43562.898438
1788.787109	43772.480469
1787.780273	44109.914063
1786.773438	43979.054688
1785.766602	44145.015625
1784.758789	44134.812500
1783.751953	43994.363281
1782.744141	44348.332031
1781.736328	44306.746094
1780.728516	44376.070313
1779.719727	44389.929688
1778.711914	44396.550781
1777.703125	44321.250000
1776.694336	44380.875000
1775.685547	44507.917969
1774.676758	44726.425781
1773.666992	44364.593750
1772.657227	44785.257813
1771.648438	45121.527344
1770.638672	44776.656250
1769.627930	44999.726563
1768.618164	44623.722656
1767.607422	44786.605469
1766.597656	45146.621094
1765.586914	44977.554688
1764.576172	45070.574219
1763.564453	45096.257813
1762.553711	45222.863281
1761.541992	45411.886719
1760.530273	45680.113281
1759.518555	45386.230469
1758.506836	45829.664063
1757.495117	45475.832031
1756.482422	45967.097656
1755.469727	45762.164063
1754.457031	45631.695313
1753.444336	46026.699219
1752.431641	46452.746094
1751.417969	46039.207031
1750.405273	46270.863281
1749.391602	46049.300781
1748.377930	46161.015625
1747.364258	46176.820313
1746.349609	46439.429688
1745.335938	46311.425781
1744.321289	46720.035156
1743.306641	46639.925781
1742.291992	46624.492188
1741.276367	46872.417969
1740.261719	46727.683594
1739.246094	47080.804688
1738.230469	47151.441406
1737.214844	47631.156250
1736.199219	47347.648438
1735.182617	47042.710938
1734.166992	48014.769531
1733.150391	48460.515625
1732.133789	48222.468750
1731.117188	48964.363281
1730.099609	48943.750000
1729.083008	48908.808594
1728.065430	49368.324219
1727.047852	49459.890625
1726.030273	50191.351563
1725.012695	50246.921875
1723.994141	50565.039063
1722.976563	50245.839844
1721.958008	50365.792969
1720.939453	50643.804688
1719.920898	50921.812500
1718.901367	51200.089844
1717.882813	51478.097656
1716.863281	51756.375000
1715.843750	51935.507813
1714.824219	51890.562500
1713.803711	52234.015625
1712.784180	52546.371094
1711.763672	52358.421875
1710.743164	52182.445313
1709.722656	52273.203125
1708.702148	51990.171875
1707.681641	52678.355469
1706.660156	52059.800781
1705.638672	52083.886719
1704.617188	52205.496094
1703.595703	52510.207031
1702.574219	52003.878906
1701.551758	52032.707031
1700.529297	52280.222656
1699.507813	51992.871094
1698.484375	51843.445313
1697.461914	52342.714844
1696.439453	52129.136719
1695.416016	52036.761719
1694.392578	52317.250000
1693.369141	52044.429688
1692.345703	51904.636719
1691.322266	52187.367188
1690.297852	52118.785156
1689.273438	52043.109375
1688.249023	51995.921875
1687.224609	52854.765625
1686.200195	52499.175781
1685.174805	52707.988281
1684.150391	52153.421875
1683.125000	52966.585938
1682.099609	53360.031250
1681.073242	52952.531250
1680.047852	52831.800781
1679.021484	53040.320313
1677.995117	53407.414063
1676.968750	53085.417969
1675.942383	53419.230469
1674.916016	53317.449219
1673.888672	53293.789063
1672.862305	53830.843750
1671.834961	53582.378906
1670.806641	53896.875000
1669.779297	54232.542969
1668.751953	54218.183594
1667.723633	54232.195313
1666.695313	53882.242188
1665.666992	54019.175781
1664.638672	54623.839844
1663.609375	54299.980469
1662.581055	54866.585938
1661.551758	54450.703125
1660.522461	54344.238281
1659.493164	54908.167969
1658.462891	54848.855469
1657.433594	54987.765625
1656.403320	55091.234375
1655.373047	55135.699219
1654.342773	55095.242188
1653.312500	54528.988281
1652.281250	55210.042969
1651.250977	54976.308594
1650.219727	55558.058594
1649.188477	54944.988281
1648.156250	55168.449219
1647.125000	55954.765625
1646.092773	55643.382813
1645.060547	55584.046875
1644.028320	56019.097656
1642.996094	55964.417969
1641.963867	56119.199219
1640.930664	55899.816406
1639.898438	56487.402344
1638.865234	56390.332031
1637.832031	56773.027344
1636.797852	56539.562500
1635.764648	56893.882813
1634.730469	57325.632813
1633.696289	57484.632813
1632.662109	57681.167969
1631.627930	58063.210938
1630.592773	58076.367188
1629.558594	58040.203125
1628.523438	58501.800781
1627.488281	58892.804688
1626.453125	59419.796875
1625.416992	59916.089844
1624.381836	60013.355469
1623.345703	60776.781250
1622.309570	61589.187500
1621.273438	62044.867188
1620.237305	62709.046875
1619.200195	64078.566406
1618.163086	65302.285156
1617.125977	66448.234375
1616.088867	67553.953125
1615.051758	68816.210938
1614.014648	70787.648438
1612.976563	71870.921875
1611.938477	73335.414063
1610.900391	73259.148438
1609.862305	73690.773438
1608.823242	73261.140625
1607.785156	72417.562500
1606.746094	71508.789063
1605.707031	69982.914063
1604.667969	68520.718750
1603.628906	67444.789063
1602.588867	66652.070313
1601.548828	65530.109375
1600.508789	64544.070313
1599.468750	63553.703125
1598.428711	63549.386719
1597.387695	62678.652344
1596.347656	62247.191406
1595.306641	62273.449219
1594.265625	61867.886719
1593.224609	61702.835938
1592.182617	61285.847656
1591.140625	60822.347656
1590.099609	61023.757813
1589.057617	60474.179688
1588.014648	60983.347656
1586.972656	60280.109375
1585.929688	60061.921875
1584.887695	60020.914063
1583.844727	60152.339844
1582.800781	60171.894531
1581.757813	60433.671875
1580.714844	60094.542969
1579.670898	59871.953125
1578.626953	60357.109375
1577.583008	60527.882813
1576.538086	60286.707031
1575.494141	60599.355469
1574.449219	60783.945313
1573.404297	61575.500000
1572.359375	61431.964844
1571.314453	61497.726563
1570.269531	61210.132813
1569.223633	61273.578125
1568.177734	61666.972656
1567.131836	60691.792969
1566.085938	60244.253906
1565.040039	60742.125000
1563.993164	59677.062500
1562.946289	59636.230469
1561.899414	59217.042969
1560.852539	59236.640625
1559.805664	59226.066406
1558.757813	58496.292969
1557.709961	58636.621094
1556.662109	58725.871094
1555.614258	58884.652344
1554.566406	58709.535156
1553.517578	59118.593750
1552.469727	58709.421875
1551.420898	58946.863281
1550.372070	58894.632813
1549.322266	59039.300781
1548.273438	58912.960938
1547.223633	58469.449219
1546.173828	59188.234375
1545.124023	58605.949219
1544.074219	58676.472656
1543.024414	58490.140625
1541.973633	57857.390625
1540.922852	58055.214844
1539.872070	57753.457031
1538.821289	57537.355469
1537.770508	57584.863281
1536.718750	57396.597656
1535.666992	57430.246094
1534.615234	57951.386719
1533.563477	57097.851563
1532.511719	57505.687500
1531.458984	57114.382813
1530.407227	56589.300781
1529.354492	56639.199219
1528.300781	57129.906250
1527.248047	56450.488281
1526.195313	56318.109375
1525.141602	56741.707031
1524.087891	56715.414063
1523.034180	56670.679688
1521.980469	57052.476563
1520.925781	56452.164063
1519.871094	55905.066406
1518.817383	56319.054688
1517.762695	56631.515625
1516.707031	56137.656250
1515.652344	56171.367188
1514.596680	56472.171875
1513.541016	55900.320313
1512.485352	55846.578125
1511.429688	56032.203125
1510.374023	56215.457031
1509.317383	56511.367188
1508.260742	55864.105469
1507.204102	56560.128906
1506.147461	56306.269531
1505.090820	55707.660156
1504.033203	56368.855469
1502.975586	55627.960938
1501.917969	56259.054688
1500.860352	55316.281250
1499.802734	56006.921875
1498.744141	55790.207031
1497.686523	56207.277344
1496.627930	55965.351563
1495.569336	55808.429688
1494.509766	55536.824219
1493.451172	55467.218750
1492.391602	55826.613281
1491.332031	55552.847656
1490.272461	55838.710938
1489.212891	56071.738281
1488.152344	56139.628906
1487.092773	55877.453125
1486.032227	55649.742188
1484.971680	55983.433594
1483.910156	55689.351563
1482.849609	55640.433594
1481.788086	55735.792969
1480.726563	55881.484375
1479.665039	56006.519531
1478.603516	55987.324219
1477.541992	56068.812500
1476.479492	56113.664063
1475.416992	56156.214844
1474.354492	56185.019531
1473.291992	55966.863281
1472.229492	56080.277344
1471.166016	56150.222656
1470.102539	56268.128906
1469.039063	56507.097656
1467.975586	56426.136719
1466.912109	56141.917969
1465.847656	56522.363281
1464.783203	56875.265625
1463.718750	56312.597656
1462.654297	57112.781250
1461.589844	57102.531250
1460.524414	57078.589844
1459.458984	57006.750000
1458.393555	57505.152344
1457.328125	57310.113281
1456.262695	57322.625000
1455.196289	57476.468750
1454.130859	57470.707031
1453.064453	57551.539063
1451.998047	57759.933594
1450.930664	57596.937500
1449.864258	58256.207031
1448.796875	57999.808594
1447.729492	58317.246094
1446.662109	58145.148438
1445.594727	58594.449219
1444.526367	58670.394531
1443.458008	58596.152344
1442.390625	58710.734375
1441.321289	58604.664063
1440.252930	59219.460938
1439.184570	59974.992188
1438.115234	60211.984375
1437.045898	60014.800781
1435.976563	60340.312500
1434.907227	60961.050781
1433.836914	60752.476563
1432.767578	60920.968750
1431.697266	60860.066406
1430.626953	61795.812500
1429.555664	61360.246094
1428.485352	61628.355469
1427.414063	62118.726563
1426.342773	62282.238281
1425.271484	62609.000000
1424.200195	62776.898438
1423.128906	62992.347656
1422.056641	62885.808594
1420.984375	63219.015625
1419.912109	62860.921875
1418.839844	63542.933594
1417.767578	63221.152344
1416.694336	63635.585938
1415.621094	63284.460938
1414.547852	63245.906250
1413.474609	63153.035156
1412.400391	62213.714844
1411.327148	62716.199219
1410.252930	61942.453125
1409.178711	62150.730469
1408.104492	61992.535156
1407.029297	62338.656250
1405.955078	61816.484375
1404.879883	62578.429688
1403.804688	62928.773438
1402.729492	62797.683594
1401.653320	63267.597656
1400.578125	62987.406250
1399.501953	62980.582031
1398.425781	62878.921875
1397.349609	63497.468750
1396.272461	63635.011719
1395.196289	63916.933594
1394.119141	63907.679688
1393.041992	64333.828125
1391.964844	64775.613281
1390.886719	64806.792969
1389.809570	65169.406250
1388.731445	65806.921875
1387.653320	65653.070313
1386.575195	65961.242188
1385.497070	66251.281250
1384.417969	65736.976563
1383.338867	65993.164063
1382.259766	66078.101563
1381.180664	65570.859375
1380.101563	65493.757813
1379.021484	65725.031250
1377.941406	65494.902344
1376.861328	65147.863281
1375.781250	65334.074219
1374.701172	65189.601563
1373.620117	64635.914063
1372.539063	64475.875000
1371.458008	63960.726563
1370.376953	64093.031250
1369.295898	63436.570313
1368.213867	63337.511719
1367.132813	63710.195313
1366.050781	62849.777344
1364.967773	63687.214844
1363.885742	63974.312500
1362.802734	64337.625000
1361.720703	64058.957031
1360.637695	63975.597656
1359.554688	64738.031250
1358.470703	64737.562500
1357.387695	64436.585938
1356.303711	63611.042969
1355.219727	63837.191406
1354.135742	63659.808594
1353.050781	63265.109375
1351.966797	62637.535156
1350.881836	61779.441406
1349.796875	62072.898438
1348.711914	61309.265625
1347.626953	61360.886719
1346.541016	60521.546875
1345.455078	60257.707031
1344.369141	60629.480469
1343.283203	60555.886719
1342.197266	60562.843750
1341.110352	60332.726563
1340.023438	60281.582031
1338.936523	60433.902344
1337.849609	60742.636719
1336.762695	60058.953125
1335.674805	60892.750000
1334.586914	60928.664063
1333.499023	60888.617188
1332.411133	61049.582031
1331.323242	60786.230469
1330.234375	61317.742188
1329.145508	61764.242188
1328.056641	61411.632813
1326.967773	61648.203125
1325.878906	62094.394531
1324.789063	62520.343750
1323.699219	63017.500000
1322.609375	63741.898438
1321.519531	64029.097656
1320.429688	64481.125000
1319.338867	64957.500000
1318.248047	66467.523438
1317.157227	67163.898438
1316.066406	67472.476563
1314.975586	68304.250000
1313.883789	68977.640625
1312.791992	69617.398438
1311.700195	69889.687500
1310.608398	69476.507813
1309.516602	69254.804688
1308.423828	69418.000000
1307.331055	68046.554688
1306.238281	67607.312500
1305.145508	66861.414063
1304.051758	66542.562500
1302.958984	66092.703125
1301.865234	65398.582031
1300.771484	65588.914063
1299.677734	65634.789063
1298.583008	66213.648438
1297.489258	66468.117188
1296.394531	66516.023438
1295.299805	67154.328125
1294.204102	67426.226563
1293.109375	67085.632813
1292.013672	67570.414063
1290.917969	67114.578125
1289.822266	67399.578125
1288.726563	66484.976563
1287.630859	66370.960938
1286.534180	66159.460938
1285.437500	65766.328125
1284.340820	65089.738281
1283.244141	64606.109375
1282.146484	64521.316406
1281.048828	64562.773438
1279.951172	63997.578125
1278.853516	63868.664063
1277.755859	63151.082031
1276.658203	63044.488281
1275.559570	63298.550781
1274.460938	63211.871094
1273.362305	62784.636719
1272.262695	62527.816406
1271.164063	61875.355469
1270.064453	61687.308594
1268.964844	61746.843750
1267.865234	61141.273438
1266.765625	61410.753906
1265.665039	60595.625000
1264.564453	60776.765625
1263.463867	60374.929688
1262.363281	60227.113281
1261.262695	60266.957031
1260.161133	60648.832031
1259.059570	60125.949219
1257.958008	59856.945313
1256.856445	59929.898438
1255.754883	59208.960938
1254.652344	59469.406250
1253.549805	59028.765625
1252.447266	59416.972656
1251.344727	58712.066406
1250.242188	59269.832031
1249.138672	59115.894531
1248.035156	58715.343750
1246.931641	59420.332031
1245.828125	58405.625000
1244.724609	58562.316406
1243.620117	58890.605469
1242.515625	58554.257813
1241.411133	58739.425781
1240.306641	58906.925781
1239.201172	58412.410156
1238.096680	58942.703125
1236.991211	59193.609375
1235.885742	58861.953125
1234.779297	58972.128906
1233.673828	58688.968750
1232.567383	59029.792969
1231.460938	59199.175781
1230.354492	59232.343750
1229.248047	59032.761719
1228.140625	59237.164063
1227.033203	59173.726563
1225.926758	59094.949219
1224.818359	59314.582031
1223.710938	58897.988281
1222.602539	58667.964844
1221.495117	58516.964844
1220.386719	59175.007813
1219.278320	58815.726563
1218.168945	58300.968750
1217.060547	58016.468750
1215.951172	58209.667969
1214.841797	57708.433594
1213.731445	58052.722656
1212.622070	58099.097656
1211.511719	57911.207031
1210.402344	58174.277344
1209.291992	58297.191406
1208.180664	57840.234375
1207.070313	58201.609375
1205.958984	58018.234375
1204.847656	58554.386719
1203.736328	58817.035156
1202.625000	58826.011719
1201.512695	58653.574219
1200.401367	59182.652344
1199.289063	59176.253906
1198.176758	59656.984375
1197.063477	59731.308594
1195.951172	59314.281250
1194.837891	60676.746094
1193.724609	60034.859375
1192.611328	60205.074219
1191.498047	59753.343750
1190.383789	59639.925781
1189.269531	59596.351563
1188.155273	59140.605469
1187.041016	58726.453125
1185.926758	58733.199219
1184.811523	58637.500000
1183.696289	58166.992188
1182.581055	58038.742188
1181.465820	58304.839844
1180.350586	57932.656250
1179.234375	57743.535156
1178.118164	57887.605469
1177.001953	57628.894531
1175.885742	57535.687500
1174.768555	57429.457031
1173.652344	57068.707031
1172.535156	57134.445313
1171.417969	56726.023438
1170.299805	57048.386719
1169.182617	56922.761719
1168.064453	57029.769531
1166.946289	56769.445313
1165.828125	56741.710938
1164.709961	56874.757813
1163.590820	56840.496094
1162.471680	56619.472656
1161.352539	56691.664063
1160.233398	56631.394531
1159.114258	56299.828125
1157.994141	56667.167969
1156.874023	56513.632813
1155.753906	56639.996094
1154.633789	56534.230469
1153.513672	56014.304688
1152.392578	56576.488281
1151.271484	56837.140625
1150.150391	56237.242188
1149.029297	56549.863281
1147.907227	56628.378906
1146.786133	56397.093750
1145.664063	56759.320313
1144.541992	56881.054688
1143.418945	56667.164063
1142.296875	57267.246094
1141.173828	57548.964844
1140.050781	57016.976563
1138.927734	57696.707031
1137.803711	57485.011719
1136.680664	58136.285156
1135.556641	57762.414063
1134.432617	58117.222656
1133.308594	57888.304688
1132.183594	57681.078125
1131.059570	57858.523438
1129.934570	58044.542969
1128.809570	57560.925781
1127.684570	57725.332031
1126.558594	57572.289063
1125.432617	57911.484375
1124.307617	57846.945313
1123.180664	57780.273438
1122.054688	57668.316406
1120.928711	57741.906250
1119.801758	57649.398438
1118.674805	57440.484375
1117.547852	57233.796875
1116.419922	57389.316406
1115.292969	57225.808594
1114.165039	56853.351563
1113.037109	57073.476563
1111.909180	56869.187500
1110.780273	57181.828125
1109.652344	56458.671875
1108.523438	57020.992188
1107.394531	56795.328125
1106.264648	56767.726563
1105.135742	56826.199219
1104.005859	56940.578125
1102.875977	57244.183594
1101.746094	57197.156250
1100.616211	56997.492188
1099.485352	56739.859375
1098.355469	56591.929688
1097.224609	57516.328125
1096.092773	57217.914063
1094.961914	57518.914063
1093.830078	57235.636719
1092.699219	56903.070313
1091.567383	56695.144531
1090.434570	56654.718750
1089.302734	56850.375000
1088.169922	56841.054688
1087.037109	56831.734375
1085.904297	56822.414063
1084.771484	56813.093750
1083.637695	56803.765625
1082.504883	56794.445313
1081.371094	56785.117188
1080.236328	56775.781250
1079.102539	56766.453125
1077.968750	56757.125000
1076.833984	56747.789063
1075.699219	56738.453125
1074.564453	57271.878906
1073.428711	56820.421875
1072.292969	57122.488281
1071.158203	57210.453125
1070.022461	57030.960938
1068.885742	56943.503906
1067.750000	56952.320313
1066.613281	57102.253906
1065.476563	57232.890625
1064.339844	57008.656250
1063.203125	57162.765625
1062.065430	56898.019531
1060.927734	57222.992188
1059.790039	56631.535156
1058.652344	56917.992188
1057.514648	57405.042969
1056.375977	56566.242188
1055.237305	56769.304688
1054.098633	57008.570313
1052.959961	57066.390625
1051.820313	57109.257813
1050.681641	56638.105469
1049.541992	56776.984375
1048.402344	56745.250000
1047.261719	57114.269531
1046.122070	56901.328125
1044.981445	57187.074219
1043.840820	57496.148438
1042.700195	57564.414063
1041.558594	57666.722656
1040.417969	57157.894531
1039.276367	56502.359375
1038.134766	57134.792969
1036.992188	57037.054688
1035.850586	56886.160156
1034.708008	56067.343750
1033.565430	56763.187500
1032.422852	56799.554688
1031.280273	56806.136719
1030.136719	57014.660156
1028.994141	56810.785156
1027.850586	56451.859375
1026.706055	56664.574219
1025.562500	56692.406250
1024.417969	56501.472656
1023.273438	56580.281250
1022.128906	56406.417969
1020.984375	57202.656250
1019.839844	56848.343750
1018.694336	56318.050781
1017.548828	56530.457031
1016.403320	56836.113281
1015.256836	56838.394531
1014.111328	57086.625000
1012.964844	57453.480469
1011.818359	56904.566406
1010.671875	56741.531250
1009.524414	57190.871094
1008.377930	56758.808594
1007.230469	57123.253906
1006.083008	57114.871094
1004.934570	57504.519531
1003.787109	57244.167969
1002.638672	57517.238281
1001.490234	58175.320313
1000.341797	58350.800781
999.193359	58065.089844
998.043945	58217.257813
996.894531	58181.175781
995.745117	58157.792969
994.595703	58265.460938
993.446289	57944.093750
992.295898	58121.480469
991.145508	57855.175781
989.995117	58438.039063
988.844727	58127.421875
987.693359	58053.386719
986.541992	57793.613281
985.390625	58430.921875
984.239258	58253.464844
983.087891	58390.429688
981.935547	58639.136719
980.783203	58008.296875
979.630859	58744.070313
978.478516	58524.542969
977.325195	59047.054688
976.172852	59029.859375
975.019531	58662.898438
973.865234	58643.671875
972.711914	58828.757813
971.557617	58752.640625
970.404297	58659.707031
969.250000	58499.437500
968.094727	58471.828125
966.940430	58536.812500
965.785156	58635.437500
964.629883	58717.191406
963.474609	58588.597656
962.319336	58373.832031
961.163086	59153.585938
960.007813	59472.703125
958.851563	58915.316406
957.694336	58769.980469
956.538086	59317.980469
955.380859	59357.460938
954.223633	58888.699219
953.066406	59314.582031
951.909180	58801.914063
950.751953	59244.441406
949.593750	59181.054688
948.435547	58800.871094
947.277344	58712.410156
946.118164	58737.238281
944.959961	58537.679688
943.800781	58398.992188
942.641602	58438.531250
941.482422	58532.542969
940.322266	58557.371094
939.162109	58619.894531
938.001953	58655.164063
936.841797	58702.984375
935.681641	58683.777344
934.520508	58993.257813
933.360352	58695.613281
932.198242	58822.906250
931.037109	59270.277344
929.875977	59441.339844
928.713867	59633.253906
927.551758	59574.148438
926.389648	59887.230469
925.227539	59642.046875
924.064453	59455.472656
922.901367	59783.019531
921.738281	59853.464844
920.575195	59631.433594
919.412109	60292.921875
918.248047	60423.781250
917.083984	60997.183594
915.919922	60539.226563
914.755859	60878.656250
913.590820	60913.316406
912.426758	61181.613281
911.261719	61266.257813
910.095703	61688.707031
908.930664	61858.707031
907.764648	62520.617188
906.598633	62527.824219
905.432617	62574.617188
904.266602	61923.421875
903.099609	61999.468750
901.933594	62108.808594
900.766602	61632.968750
899.599609	61519.558594
898.431641	61624.753906
897.264648	61107.636719
896.096680	61329.386719
894.928711	61103.765625
893.759766	61450.230469
892.591797	60787.941406
891.422852	60520.949219
890.253906	60393.339844
889.084961	60712.652344
887.916016	60919.621094
886.746094	60596.695313
885.576172	60737.132813
884.406250	60946.054688
883.236328	60668.976563
882.065430	61305.523438
880.895508	60856.183594
879.724609	61824.519531
878.552734	61155.296875
877.381836	61303.726563
876.209961	61976.886719
875.039063	62164.507813
873.866211	62426.703125
872.694336	62440.023438
871.522461	62051.230469
870.349609	62512.234375
869.176758	62030.328125
868.003906	62565.738281
866.830078	61961.792969
865.657227	62538.429688
864.483398	63415.058594
863.309570	64092.640625
862.135742	63532.308594
860.960938	63795.753906
859.786133	64112.890625
858.611328	64371.988281
857.436523	64403.496094
856.261719	64116.554688
855.085938	63775.964844
853.910156	63489.238281
852.734375	63545.671875
851.558594	63304.546875
850.382813	63608.886719
849.206055	63254.234375
848.029297	63492.382813
846.852539	63573.523438
845.674805	64168.640625
844.498047	64096.894531
843.320313	65071.378906
842.142578	64795.230469
840.963867	65519.621094
839.786133	66165.375000
838.607422	66911.921875
837.428711	67672.617188
836.250000	68057.882813
835.070313	68438.882813
833.891602	67991.429688
832.711914	67836.671875
831.532227	67440.984375
830.352539	67356.398438
829.171875	65676.156250
827.991211	65089.628906
826.810547	64307.792969
825.629883	64215.605469
824.449219	63769.574219
823.267578	63299.023438
822.085938	63110.402344
820.904297	62239.167969
819.722656	62714.859375
818.540039	62238.671875
817.357422	62142.855469
816.174805	62116.937500
814.992188	62027.335938
813.809570	61894.636719
812.625977	61550.457031
811.442383	61662.222656
810.258789	61804.734375
809.074219	61723.468750
807.890625	61703.796875
806.706055	61290.203125
805.521484	62372.167969
804.336914	61769.910156
803.151367	61863.015625
801.966797	61822.816406
800.781250	61241.488281
799.594727	60863.265625
798.409180	61450.269531
797.222656	61229.886719
796.037109	60858.015625
794.849609	60492.417969
793.663086	60423.843750
792.476563	60216.089844
791.289063	59854.902344
790.101563	59763.964844
788.914063	60002.460938
787.725586	59942.210938
786.538086	59904.476563
785.349609	59359.632813
784.161133	59921.042969
782.971680	59486.773438
781.783203	59455.273438
780.593750	58966.078125
779.404297	59012.312500
778.214844	58927.800781
777.024414	59192.531250
775.834961	58601.648438
774.644531	58835.714844
773.454102	59004.378906
772.262695	58632.199219
771.072266	59088.511719
769.880859	58830.687500
768.689453	59048.164063
767.497070	59210.500000
766.305664	59719.363281
765.113281	59696.015625
763.920898	59723.621094
762.728516	60230.058594
761.536133	60328.855469
760.342773	60588.523438
759.149414	60762.562500
757.956055	60254.437500
756.762695	60955.718750
755.568359	61363.644531
754.374023	60969.640625
753.179688	61338.753906
751.985352	61272.402344
750.791016	61263.019531
749.595703	61115.367188
748.400391	60733.960938
747.205078	60415.707031
746.009766	60046.761719
744.813477	59712.492188
743.617188	59341.777344
742.420898	59143.847656
741.224609	59559.292969
740.027344	58965.460938
738.830078	58595.148438
737.632813	59272.281250
736.435547	58553.011719
735.238281	58499.484375
734.040039	58667.085938
732.841797	58130.855469
731.643555	58523.542969
730.445313	58024.027344
729.246094	58248.335938
728.046875	58004.410156
726.847656	58090.847656
725.648438	58315.015625
724.449219	57890.933594
723.249023	57799.125000
722.048828	57948.296875
720.848633	57771.484375
719.647461	57651.410156
718.447266	57592.085938
717.246094	57559.082031
716.044922	58228.019531
714.842773	57849.058594
713.641602	57991.937500
712.439453	57669.765625
711.237305	57778.261719
710.035156	57872.562500
708.832031	58178.992188
707.629883	58212.574219
706.426758	58252.199219
705.223633	58253.437500
704.019531	58155.734375
702.815430	58742.410156
701.612305	58222.820313
700.408203	58431.902344
699.203125	58225.281250
697.999023	58404.019531
696.793945	58330.585938
695.588867	58928.656250
694.383789	58649.503906
693.177734	58535.746094
691.971680	58833.148438
690.766602	59319.843750
689.559570	59318.832031
688.353516	58548.394531
687.146484	58591.824219
685.939453	58989.597656
684.732422	58793.367188
683.525391	58862.882813
682.318359	58467.527344
681.110352	57945.562500
679.902344	57882.425781
678.693359	58086.796875
677.485352	58092.019531
676.276367	58103.269531
675.067383	57734.613281
673.858398	58533.710938
672.649414	58046.558594
671.439453	58547.972656
670.229492	58609.328125
669.019531	58572.253906
667.809570	58302.289063
666.598633	58297.402344
665.387695	57569.976563
664.176758	57432.781250
662.965820	57630.687500
661.754883	57754.296875
660.542969	57857.800781
659.331055	57379.765625
658.119141	57531.414063
656.906250	57470.531250
655.694336	57243.332031
654.481445	57473.054688
653.268555	57131.750000
652.054688	58016.351563
650.841797	57727.132813
649.627930	58032.664063
648.414063	58260.003906
647.200195	58687.402344
645.985352	58934.539063
644.770508	59267.613281
643.555664	59436.535156
642.340820	60043.371094
641.125977	60224.074219
639.910156	60164.808594
638.694336	59693.812500
637.478516	59496.773438
636.262695	59129.968750
635.045898	58719.355469
633.829102	58724.324219
632.612305	58289.968750
631.395508	58295.015625
630.177734	58343.968750
628.959961	57754.250000
627.742188	58002.824219
626.524414	57594.933594
625.306641	57183.203125
624.087891	57294.128906
622.869141	57307.312500
621.650391	57085.246094
620.430664	56622.085938
619.211914	57366.734375
617.992188	57232.441406
616.772461	57251.585938
615.551758	57673.035156
614.332031	57188.285156
613.111328	57316.917969
611.890625	56916.011719
610.669922	56752.085938
609.448242	57503.531250
608.226563	56589.531250
607.004883	57535.648438
605.783203	57343.875000
604.561523	57132.289063
603.338867	57531.078125
602.116211	57528.226563
600.893555	57119.984375
599.669922	57327.808594
598.447266	57485.890625
597.223633	57477.078125
596.000000	57279.625000
594.775391	57251.000000
593.551758	57059.613281
592.327148	57679.992188
591.102539	57567.960938
589.877930	57332.968750
588.652344	57687.156250
587.426758	57959.898438
586.201172	57489.011719
584.975586	57878.644531
583.750000	57923.261719
582.523438	58183.851563
581.296875	58682.089844
580.070313	58459.109375
578.842773	58216.402344
577.616211	58751.968750
576.388672	59150.726563
575.161133	58593.296875
573.932617	59253.160156
572.705078	59008.539063
571.476563	59185.375000
570.248047	59095.128906
569.018555	58854.621094
567.790039	58950.316406
566.560547	58494.453125
565.331055	58633.656250
564.101563	58494.179688
562.871094	58344.878906
561.641602	58233.160156
560.411133	57807.472656
559.179688	57960.480469
557.949219	57384.960938
556.717773	57583.382813
555.486328	57923.812500
554.254883	57214.449219
553.023438	57489.714844
551.791016	57186.992188
550.558594	57140.730469
549.326172	57039.277344
548.093750	56831.417969
546.860352	56674.875000
545.627930	57113.464844
544.393555	56998.292969
543.160156	57058.464844
541.926758	56770.042969
540.692383	56629.394531
539.458008	57526.250000
538.223633	57056.816406
536.988281	57000.804688
535.752930	57239.933594
534.517578	57166.199219
533.282227	57210.496094
532.046875	57526.128906
530.810547	57574.269531
529.574219	57284.296875
528.337891	57633.140625
527.101563	57956.304688
525.864258	57715.531250
524.626953	57804.820313
523.389648	57546.488281
522.152344	57598.464844
520.914063	57660.234375
519.675781	57561.042969
518.437500	57571.769531
517.199219	57553.062500
515.959961	57757.980469
514.721680	57454.867188
513.482422	57604.816406
512.242188	57640.996094
511.002930	57536.039063
509.762695	57634.925781
508.522461	57132.257813
507.282227	57144.984375
506.041016	57404.484375
504.800781	57483.730469
503.559570	57453.300781
502.318359	57125.343750
501.076172	57296.570313
499.833984	57530.347656
498.592773	57323.847656
497.349609	57336.496094
496.107422	57245.488281
494.864258	57312.890625
493.622070	57163.269531
492.377930	57107.519531
491.134766	57727.925781
489.891602	57515.781250
488.647461	57237.296875
487.403320	57367.105469
486.158203	57707.750000
484.914063	57618.753906
483.668945	57808.917969
482.423828	57374.503906
481.178711	57424.148438
479.932617	58191.683594
478.686523	57888.113281
477.440430	57535.902344
476.194336	57895.476563
474.948242	58543.421875
473.701172	58339.402344
472.454102	58497.902344
471.207031	58747.910156
469.958984	58138.796875
468.711914	58786.066406
467.463867	58467.300781
466.215820	59071.429688
464.966797	59042.738281
463.718750	59101.628906
462.469727	59434.835938
461.220703	59174.589844
459.970703	59709.925781
458.721680	59675.296875
457.471680	60078.121094
456.221680	59650.769531
454.970703	60148.671875
453.720703	59803.074219
452.469727	60120.082031
451.218750	60920.613281
449.966797	61274.179688
448.715820	61817.890625
447.463867	62176.968750
446.211914	62957.085938
444.959961	63040.253906
443.707031	64054.667969
442.454102	63838.859375
441.201172	63749.191406
439.948242	63149.582031
438.695313	62606.417969
437.441406	61536.230469
436.187500	60790.085938
434.933594	60032.593750
433.678711	59697.703125
432.424805	60515.371094
431.169922	60858.285156
429.914063	58817.687500
428.659180	58990.441406
427.403320	58166.394531
426.147461	58074.101563
424.891602	58287.515625
423.635742	57800.628906
422.378906	57992.734375
421.122070	57939.203125
419.865234	58150.535156
418.608398	57341.253906
417.350586	57973.890625
416.092773	57646.031250
414.834961	57687.257813
413.577148	57647.347656
412.318359	57870.066406
411.059570	57891.910156
409.800781	57875.136719
408.541992	57541.867188
407.282227	57639.003906
406.022461	57365.699219
404.762695	57379.890625
403.502930	57966.816406
402.242188	57724.449219
400.981445	57647.953125
