Data from AgNPs_UA_50uM_CRN_500uM_AS_RamanShift__11__15-18-21-554.txt Node

Date: Wed Aug 17 15:18:21 BST 2022
User: TCL
Spectrometer: QEP01345
Trigger mode: 4
Integration Time (sec): 7.000000E0
Scans to average: 10
Electric dark correction enabled: true
Nonlinearity correction enabled: false
Boxcar width: 0
XAxis mode: Raman Shifts
Number of Pixels in Spectrum: 1044
>>>>>Begin Spectral Data<<<<<
46.04893	-0.5
50.45542	-0.2
54.85868	-1.1
59.25871	-0.8
63.6555	27.8
68.04907	29.4
72.43941	33.9
76.82654	38.4
81.21044	35.8
85.59113	37.6
89.96862	39.7
94.34289	45.4
98.71396	42.5
103.08183	45.1
107.4465	46.3
111.80798	45.8
116.16626	42
120.52136	42.9
124.87327	43.5
129.222	47.4
133.56755	43.7
137.90993	44.8
142.24913	48.4
146.58517	50.7
150.91804	50.8
155.24774	53.7
159.57429	56.2
163.89768	64
168.21792	80.2
172.53501	98.3
176.84895	127.1
181.15975	171
185.46741	228.9
189.77193	314.4
194.07331	409.3
198.37157	522.2
202.6667	642.2
206.9587	756.2
211.24758	873.8
215.53334	991.7
219.81599	1104.7
224.09553	1238.3
228.37195	1385.3
232.64527	1538.1
236.91549	1703.9
241.18261	1877.7
245.44663	2021.4
249.70755	2162
253.96539	2284.8
258.22014	2374.2
262.4718	2423.4
266.72039	2454.5
270.96589	2459.8
275.20832	2421.4
279.44768	2370.9
283.68397	2322.4
287.91719	2267.5
292.14735	2235.8
296.37445	2195.5
300.59849	2179.8
304.81948	2183.3
309.03742	2181.3
313.25231	2176.8
317.46415	2154.9
321.67296	2124.3
325.87872	2103.7
330.08145	2095.7
334.28114	2098.9
338.47781	2114.1
342.67145	2150.9
346.86207	2177.3
351.04966	2218.4
355.23424	2255.5
359.4158	2297.4
363.59435	2328.8
367.76989	2352.3
371.94243	2367.1
376.11196	2387.7
380.27849	2400.8
384.44203	2410.5
388.60257	2427.7
392.76012	2457.6
396.91468	2480.2
401.06626	2504.8
405.21485	2541.7
409.36047	2541.7
413.50311	2527
417.64277	2497.1
421.77947	2498.6
425.9132	2493
430.04396	2512.9
434.17176	2538.1
438.2966	2546.7
442.41849	2586.4
446.53742	2602.2
450.6534	2639.6
454.76644	2655.3
458.87653	2671.9
462.98368	2672.2
467.08789	2660
471.18916	2653.1
475.2875	2642.9
479.38291	2637.5
483.4754	2622.2
487.56496	2629.5
491.6516	2631.2
495.73531	2643.7
499.81612	2649.2
503.89401	2641.9
507.96899	2651.2
512.04106	2661.6
516.11023	2669.5
520.1765	2691.2
524.23987	2693.1
528.30034	2676.6
532.35792	2670.6
536.41261	2669.3
540.46441	2671.7
544.51333	2656.6
548.55936	2658.3
552.60252	2681.9
556.64279	2699.7
560.6802	2710
564.71473	2722.7
568.7464	2734.2
572.7752	2740.4
576.80114	2738.4
580.82422	2755.8
584.84444	2740.7
588.86181	2771.7
592.87633	2799.1
596.888	2845.6
600.89682	2879.7
604.9028	2956.3
608.90594	3158.3
612.90624	3383.5
616.90371	3268.1
620.89834	2956.1
624.89015	2830.9
628.87913	2811.5
632.86528	2818.9
636.84862	2846.4
640.82913	2846.6
644.80683	2825.2
648.78172	2821.4
652.75379	2819.5
656.72306	2852.6
660.68952	2886.4
664.65319	2873
668.61405	2856.8
672.57211	2867.4
676.52738	2902.4
680.47986	2936.3
684.42955	2938.1
688.37646	2942.7
692.32058	2924.5
696.26192	2932.2
700.20048	2924.1
704.13626	2918.2
708.06928	2904.3
711.99952	2879.1
715.927	2877.2
719.85171	2874.2
723.77365	2879
727.69284	2880.2
731.60928	2867.5
735.52295	2869.3
739.43388	2872.5
743.34206	2881.6
747.24749	2890.4
751.15017	2897.7
755.05012	2915.7
758.94733	2943.8
762.8418	3043.4
766.73354	3160.6
770.62254	3311.1
774.50882	3356.4
778.39237	3289
782.27321	3137.9
786.15132	3028.3
790.02671	2958.1
793.89938	2912.5
797.76935	2888.6
801.6366	2885.6
805.50115	2874.5
809.36299	2882.5
813.22213	2875.5
817.07857	2884.4
820.93231	2867.1
824.78336	2860.6
828.63172	2866.9
832.47738	2869.8
836.32036	2863.9
840.16066	2870.4
843.99827	2868.7
847.8332	2870.8
851.66546	2882.9
855.49504	2879.3
859.32195	2884.5
863.1462	2880
866.96777	2897.2
870.78668	2897.5
874.60293	2901.7
878.41652	2893.2
882.22745	2914.8
886.03573	2914.7
889.84136	2911.6
893.64433	2913.7
897.44466	2916.4
901.24235	2917.2
905.0374	2917.9
908.8298	2913.8
912.61957	2894.8
916.40671	2920.4
920.19121	2909.5
923.97308	2915.6
927.75233	2917.6
931.52895	2930
935.30295	2908.7
939.07433	2878.6
942.84309	2864.3
946.60924	2874.8
950.37278	2858.6
954.13371	2862
957.89203	2846.8
961.64774	2854.3
965.40086	2857.4
969.15137	2851.5
972.89929	2836.7
976.64461	2825.8
980.38733	2837.7
984.12747	2833.5
987.86502	2843.5
991.59999	2843.5
995.33237	2844.3
999.06217	2863.9
1002.78939	2888.8
1006.51404	2896.2
1010.23611	2903.9
1013.95561	2930.1
1017.67255	2931.8
1021.38692	2924.8
1025.09872	2916.1
1028.80796	2905.1
1032.51465	2907.2
1036.21877	2929.8
1039.92035	2926.1
1043.61937	2918.4
1047.31584	2937.1
1051.00976	2938.6
1054.70114	2954.9
1058.38998	2952.3
1062.07627	2957.5
1065.76003	2964.3
1069.44126	2966.2
1073.11995	2978.5
1076.79611	2988.9
1080.46974	3009.9
1084.14085	3008.4
1087.80943	3025.9
1091.47549	3040.8
1095.13903	3032.7
1098.80005	3006.6
1102.45857	2995.6
1106.11456	2983
1109.76805	2997
1113.41903	3009.8
1117.06751	3020.4
1120.71348	3045.6
1124.35696	3092.3
1127.99793	3117.1
1131.63641	3124.6
1135.2724	3103
1138.90589	3072.7
1142.5369	3046.2
1146.16542	3034.2
1149.79145	3020.5
1153.415	3010.5
1157.03607	3014
1160.65467	3034.9
1164.27079	3041.9
1167.88443	3098.2
1171.49561	3164.6
1175.10432	3250.5
1178.71056	3388.1
1182.31434	3504.3
1185.91565	3575.1
1189.51451	3551.3
1193.11091	3513.7
1196.70485	3448.4
1200.29634	3388.7
1203.88538	3318.2
1207.47197	3259.5
1211.05612	3185.5
1214.63782	3140.6
1218.21708	3129.7
1221.79391	3120.5
1225.36829	3128
1228.94024	3117.3
1232.50976	3148.8
1236.07685	3128.6
1239.6415	3129.3
1243.20374	3138.1
1246.76355	3140.9
1250.32093	3167.5
1253.8759	3175.5
1257.42845	3189.6
1260.97859	3226.6
1264.52631	3249.8
1268.07163	3275.2
1271.61453	3280.4
1275.15503	3312.1
1278.69312	3317.1
1282.22882	3323.2
1285.76211	3336.3
1289.29301	3371.1
1292.82151	3401.8
1296.34761	3446.5
1299.87133	3513.5
1303.39266	3605.1
1306.9116	3718.8
1310.42815	3833.6
1313.94233	3889.3
1317.45412	3858.9
1320.96354	3780.8
1324.47058	3667.7
1327.97525	3570.2
1331.47754	3508.4
1334.97747	3456.2
1338.47502	3468.2
1341.97022	3502.2
1345.46305	3582
1348.95352	3688.6
1352.44163	3821
1355.92738	3949.8
1359.41078	4131.2
1362.89183	4314
1366.37053	4289.6
1369.84688	4052.4
1373.32088	3737.9
1376.79254	3496.5
1380.26186	3384.8
1383.72883	3325.6
1387.19347	3269.1
1390.65578	3203.2
1394.11575	3153.7
1397.57339	3123.3
1401.0287	3085.8
1404.48168	3077.3
1407.93234	3060.9
1411.38068	3055.2
1414.82669	3068
1418.27039	3061.6
1421.71177	3066.6
1425.15083	3026.6
1428.58758	3019.7
1432.02203	3008.6
1435.45416	3008.8
1438.88399	3018.6
1442.31151	3018
1445.73673	3006.4
1449.15965	3017.1
1452.58027	3000.6
1455.9986	3002
1459.41463	3000.7
1462.82837	3016.5
1466.23982	3042.6
1469.64898	3055.9
1473.05586	3098.7
1476.46045	3106.2
1479.86276	3122.8
1483.26279	3157.2
1486.66054	3175.8
1490.05602	3229.1
1493.44922	3265.7
1496.84016	3384.3
1500.22882	3518.1
1503.61521	3707
1506.99934	3884.2
1510.38121	3996
1513.76081	3982.6
1517.13816	3847.3
1520.51324	3652.9
1523.88607	3485.1
1527.25665	3391.2
1530.62498	3342.8
1533.99105	3303.2
1537.35488	3289.4
1540.71647	3265.5
1544.07581	3244.9
1547.4329	3230.1
1550.78776	3221.8
1554.14038	3225.1
1557.49077	3225.6
1560.83892	3236.2
1564.18484	3281.3
1567.52853	3301.5
1570.86999	3358.7
1574.20922	3387
1577.54624	3369.1
1580.88103	3321
1584.2136	3255.1
1587.54395	3201.3
1590.87208	3204.1
1594.19801	3241.8
1597.52172	3286.8
1600.84321	3314
1604.16251	3291.8
1607.47959	3264.8
1610.79447	3198.8
1614.10715	3163.4
1617.41763	3087.8
1620.7259	3057.6
1624.03199	3037.4
1627.33587	3010.4
1630.63757	3018
1633.93707	3047.3
1637.23439	3098.9
1640.52951	3191.9
1643.82246	3313.3
1647.11321	3453.1
1650.40179	3541.4
1653.68819	3502.4
1656.97241	3352.8
1660.25446	3203.7
1663.53433	3088
1666.81203	2989.7
1670.08756	2924.3
1673.36092	2890.9
1676.63211	2860.9
1679.90115	2828.7
1683.16801	2816.8
1686.43272	2810.4
1689.69527	2804.3
1692.95567	2775
1696.2139	2788.3
1699.46999	2783.6
1702.72392	2774.4
1705.97571	2758.6
1709.22535	2753.3
1712.47284	2750.2
1715.71819	2753.4
1718.96139	2730
1722.20246	2712.5
1725.44139	2716
1728.67818	2709.5
1731.91284	2690.1
1735.14537	2675.6
1738.37576	2677.1
1741.60403	2687.5
1744.83017	2676.2
1748.05418	2670.7
1751.27607	2681.7
1754.49584	2689.8
1757.71349	2688.2
1760.92903	2689.1
1764.14244	2699.2
1767.35375	2687
1770.56294	2687.4
1773.77002	2663.7
1776.97499	2646.6
1780.17785	2630.6
1783.37861	2623.8
1786.57727	2615.1
1789.77382	2606.1
1792.96828	2606.3
1796.16064	2585.2
1799.3509	2585.7
1802.53907	2586.9
1805.72514	2561.7
1808.90913	2563.2
1812.09102	2542.2
1815.27083	2556.6
1818.44856	2542.8
1821.6242	2541.1
1824.79776	2543.9
1827.96924	2536.5
1831.13864	2533.7
1834.30597	2524
1837.47122	2526.6
1840.6344	2519.6
1843.7955	2517.5
1846.95454	2518.9
1850.11151	2530.6
1853.26642	2514.3
1856.41926	2510.7
1859.57004	2504.6
1862.71876	2495
1865.86542	2508.2
1869.01003	2500.5
1872.15258	2506.9
1875.29308	2501.4
1878.43152	2507.3
1881.56792	2498.2
1884.70227	2504.3
1887.83457	2487.9
1890.96482	2485.7
1894.09304	2471.3
1897.21921	2494
1900.34335	2484.3
1903.46544	2493.1
1906.58551	2486.5
1909.70353	2481.5
1912.81953	2468.5
1915.93349	2480.8
1919.04543	2477.8
1922.15534	2462.8
1925.26322	2459
1928.36908	2478.4
1931.47292	2465.1
1934.57473	2463.5
1937.67453	2462.1
1940.77232	2453.7
1943.86808	2446.4
1946.96184	2442.8
1950.05358	2426.1
1953.14331	2427.3
1956.23103	2413.3
1959.31675	2415.6
1962.40046	2407.5
1965.48217	2404.3
1968.56188	2394.7
1971.63959	2394.9
1974.7153	2375.7
1977.78901	2373
1980.86073	2372.4
1983.93046	2362.4
1986.99819	2371.7
1990.06394	2365.3
1993.1277	2348.1
1996.18947	2339.9
1999.24925	2346.5
2002.30706	2340.9
2005.36288	2329.7
2008.41672	2331.6
2011.46859	2322.8
2014.51848	2316.7
2017.56639	2315.8
2020.61233	2308.2
2023.6563	2308.2
2026.6983	2300.1
2029.73833	2299.2
2032.7764	2287.3
2035.8125	2279.7
2038.84664	2279.9
2041.87881	2285.8
2044.90903	2271.1
2047.93729	2268.4
2050.96359	2266.6
2053.98794	2265.2
2057.01034	2254.8
2060.03078	2267.7
2063.04927	2256
2066.06582	2266.6
2069.08042	2257.9
2072.09307	2254.6
2075.10378	2263.2
2078.11255	2262.2
2081.11938	2251.5
2084.12426	2260
2087.12722	2262.5
2090.12824	2271.6
2093.12732	2273.6
2096.12447	2264.4
2099.11969	2270.9
2102.11299	2258.9
2105.10435	2272.1
2108.09379	2268.2
2111.08131	2263.7
2114.0669	2267.9
2117.05057	2272.9
2120.03233	2273.3
2123.01216	2283.2
2125.99008	2288.9
2128.96609	2302.3
2131.94018	2299.6
2134.91236	2292.7
2137.88263	2293.5
2140.851	2304.9
2143.81746	2309.1
2146.78201	2307.8
2149.74466	2316.1
2152.7054	2309.6
2155.66425	2304.2
2158.6212	2309.3
2161.57625	2313.2
2164.52941	2308.3
2167.48067	2307
2170.43004	2310
2173.37752	2309
2176.32311	2318.3
2179.26681	2322.5
2182.20863	2315.7
2185.14856	2309.7
2188.08661	2319.9
2191.02278	2307.8
2193.95707	2305
2196.88948	2313.7
2199.82001	2303.9
2202.74867	2303.5
2205.67545	2315.8
2208.60037	2309
2211.52341	2307
2214.44458	2300.8
2217.36388	2288.3
2220.28132	2299.3
2223.1969	2280
2226.11061	2288.3
2229.02246	2277.6
2231.93245	2276
2234.84058	2272.3
2237.74686	2258.3
2240.65128	2270.7
2243.55385	2270.5
2246.45456	2277.1
2249.35343	2269.3
2252.25044	2264.5
2255.14561	2269.7
2258.03893	2267.8
2260.93041	2262.7
2263.82004	2255.5
2266.70783	2262
2269.59378	2257.9
2272.4779	2241.1
2275.36017	2236
2278.24061	2238
2281.11922	2233.2
2283.996	2221.1
2286.87094	2226.7
2289.74405	2222.7
2292.61534	2229.2
2295.4848	2227
2298.35243	2219.2
2301.21824	2215.9
2304.08223	2214.7
2306.94439	2229.5
2309.80474	2227.9
2312.66327	2224.7
2315.51999	2220.6
2318.37489	2211.9
2321.22797	2206.2
2324.07925	2220.1
2326.92871	2188
2329.77637	2206
2332.62222	2199.5
2335.46626	2197.9
2338.3085	2184.9
2341.14893	2189.9
2343.98756	2185.6
2346.8244	2192.6
2349.65943	2189.7
2352.49267	2179.8
2355.32411	2183.3
2358.15376	2199.6
2360.98161	2181.6
2363.80768	2183.6
2366.63195	2184.6
2369.45444	2190.3
2372.27514	2189.2
2375.09405	2173.3
2377.91118	2182.1
2380.72652	2176.1
2383.54009	2186
2386.35187	2179.3
2389.16188	2169.1
2391.97011	2164.6
2394.77657	2157
2397.58125	2159.2
2400.38416	2163.1
2403.18529	2149.5
2405.98466	2157.3
2408.78226	2148.1
2411.57809	2138.1
2414.37216	2131.3
2417.16446	2134.7
2419.955	2158.9
2422.74378	2145.4
2425.5308	2155.4
2428.31606	2139.2
2431.09956	2140
2433.88131	2131.1
2436.6613	2144
2439.43954	2139.2
2442.21603	2136.2
2444.99077	2131.7
2447.76377	2124.9
2450.53501	2128.2
2453.30451	2126.6
2456.07226	2117.4
2458.83827	2129.9
2461.60254	2137.4
2464.36507	2128.5
2467.12586	2118.3
2469.88492	2115.6
2472.64224	2108.7
2475.39782	2119.1
2478.15167	2124.9
2480.90379	2125.1
2483.65417	2121.8
2486.40283	2119.6
2489.14976	2116.1
2491.89497	2123.4
2494.63845	2116.6
2497.3802	2119.7
2500.12024	2124.5
2502.85855	2125.8
2505.59514	2122.1
2508.33002	2115.5
2511.06318	2108.6
2513.79462	2107.9
2516.52435	2102.3
2519.25237	2101
2521.97867	2107.4
2524.70327	2094.3
2527.42616	2086.3
2530.14734	2091.3
2532.86681	2099
2535.58458	2104.6
2538.30065	2091.3
2541.01501	2106
2543.72768	2097.1
2546.43864	2098.5
2549.14791	2089.7
2551.85548	2078
2554.56136	2088.2
2557.26554	2082.1
2559.96803	2083.8
2562.66883	2078.8
2565.36794	2071.1
2568.06536	2061.4
2570.7611	2060.1
2573.45514	2051.4
2576.14751	2043.4
2578.83819	2040.4
2581.52719	2040.4
2584.21451	2040.7
2586.90015	2053.1
2589.58411	2063.1
2592.2664	2052.1
2594.94701	2043.9
2597.62594	2045.3
2600.30321	2035.8
2602.9788	2035.1
2605.65273	2028
2608.32498	2040.9
2610.99557	2037.7
2613.66449	2034.9
2616.33175	2032.1
2618.99734	2025.6
2621.66128	2015.8
2624.32355	2013.8
2626.98416	2008.5
2629.64311	2018.3
2632.30041	2013.4
2634.95605	2018.6
2637.61004	2007.3
2640.26238	1998.3
2642.91306	1997.1
2645.56209	2001.1
2648.20948	1989.5
2650.85521	1998.3
2653.4993	1995.8
2656.14175	1992.8
2658.78255	2011.5
2661.42171	2006.7
2664.05923	2005.4
2666.6951	2023.8
2669.32934	2009.3
2671.96194	2000.6
2674.59291	2010.4
2677.22224	2005.5
2679.84993	2019
2682.476	2012.1
2685.10043	2015
2687.72324	2009.3
2690.34441	2009.2
2692.96396	2015
2695.58188	2015.6
2698.19818	2014
2700.81285	2015.5
2703.4259	2010.4
2706.03733	2028.5
2708.64714	2011.6
2711.25533	2010.2
2713.86191	2000.3
2716.46687	2006.9
2719.07021	2014.4
2721.67194	2017.6
2724.27206	2027.5
2726.87057	2026.1
2729.46747	2026.9
2732.06276	2027.5
2734.65644	2035.2
2737.24852	2028.4
2739.83899	2018.2
2742.42786	2025.2
2745.01513	2015.8
2747.60079	2001.2
2750.18486	1998.7
2752.76733	2007.6
2755.3482	2008.3
2757.92747	2003.1
2760.50515	2011.1
2763.08123	1998.2
2765.65573	2006.9
2768.22863	2000
2770.79994	2002.7
2773.36967	1995.3
2775.9378	1998
2778.50435	1987.6
2781.06932	1985
2783.6327	1994.4
2786.1945	1989.4
2788.75471	1988.6
2791.31335	1984.3
2793.87041	1978.2
2796.42589	1967.4
2798.97979	1976.6
2801.53212	1974.5
2804.08288	1967.4
2806.63206	1969.3
2809.17967	1963.9
2811.72571	1962.4
2814.27018	1958.2
2816.81308	1953.2
2819.35442	1954.3
2821.89419	1938.2
2824.43239	1951.7
2826.96904	1942.7
2829.50412	1949.9
2832.03763	1936.6
2834.56959	1937.8
2837.1	1946.4
2839.62884	1934.2
2842.15613	1942.8
2844.68186	1941.8
2847.20604	1947.4
2849.72867	1941.1
2852.24974	1955.5
2854.76927	1951.2
2857.28724	1940.4
2859.80367	1951.6
2862.31855	1955.5
2864.83189	1949.6
2867.34368	1949.5
2869.85393	1960.9
2872.36264	1958.5
2874.8698	1958.4
2877.37543	1956.7
2879.87952	1962.9
2882.38207	1963.9
2884.88308	1960.7
2887.38256	1964
2889.88051	1961.6
2892.37692	1975.5
2894.8718	1983.7
2897.36515	1984.9
2899.85698	1989.9
2902.34727	1992.3
2904.83604	2002.3
2907.32328	1995.2
2909.809	2001.9
2912.29319	2006.7
2914.77587	2024.1
2917.25702	2018.6
2919.73665	2028.9
2922.21476	2023.7
2924.69136	2035
2927.16644	2024.3
2929.64	2023.6
2932.11205	2026.5
2934.58258	2035.6
2937.05161	2032.9
2939.51912	2036.8
2941.98513	2042.8
2944.44962	2032.1
2946.91261	2041.2
2949.37409	2036.5
2951.83407	2032.7
2954.29254	2048.7
2956.74951	2027.2
2959.20498	2021.3
2961.65895	2020.6
2964.11142	2018.8
2966.56239	2004.8
2969.01186	2017.6
2971.45984	2005.5
2973.90632	2001.3
2976.35131	2005.4
2978.7948	2007.4
2981.23681	1997.4
2983.67732	1998.9
2986.11635	1985.9
2988.55388	1971.2
2990.98993	1986.6
2993.4245	1982
2995.85758	1977.6
2998.28917	1970.5
3000.71928	1976.5
3003.14791	1974.4
3005.57506	1973.7
3008.00073	1958.8
3010.42493	1922.3
3012.84764	1959.5
3015.26888	1960.7
3017.68865	1960.3
3020.10694	1965.3
3022.52376	1961
3024.9391	1971
3027.35298	1969.2
3029.76539	1955.3
3032.17632	1956.5
3034.5858	1952.5
3036.9938	1957.8
3039.40034	1952.9
3041.80542	1959.1
3044.20903	1968.5
3046.61118	1970.7
3049.01187	1962.4
3051.4111	1964
3053.80888	1972.2
3056.20519	1972
3058.60005	1973.8
3060.99345	1978.6
3063.3854	1974.2
3065.7759	1966
3068.16494	1968.5
3070.55254	1970.2
3072.93868	1968.8
3075.32338	1964.2
3077.70662	1960.9
3080.08842	1959.9
3082.46878	1966.1
3084.84769	1971.4
3087.22515	1973.4
3089.60118	1987.1
3091.97576	1979.7
3094.3489	1978.8
3096.72061	1991.3
3099.09087	2007.4
3101.4597	2007.9
3103.82709	2018.7
3106.19305	2026.7
3108.55757	2024.3
3110.92066	2028.8
3113.28232	2034.8
3115.64255	2039.9
3118.00134	2035.4
3120.35871	2046
3122.71466	2041.1
3125.06917	2036.3
3127.42226	2035.5
3129.77393	2051.8
3132.12417	2057.4
3134.47299	2068.8
3136.82039	2078.7
3139.16636	2074
3141.51092	2078.8
3143.85406	2080
3146.19579	2099.9
3148.53609	2104.6
3150.87499	2099.5
3153.21246	2113.1
3155.54853	2131.2
3157.88318	2134.5
3160.21642	2140
3162.54826	2145.6
3164.87868	2158.4
3167.2077	2157.2
3169.5353	2174.7
3171.86151	2185.4
3174.18631	2191.2
3176.5097	2190.1
3178.83169	2186
3181.15228	2187.1
3183.47147	2202.5
3185.78926	2204.8
3188.10565	2203.4
3190.42065	2225.2
3192.73424	2226.7
3195.04645	2221.5
3197.35725	2219.6
3199.66667	2210.9
3201.97469	2223.7
3204.28132	2221.6
3206.58656	2244.1
3208.8904	2252.6
3211.19287	2241.4
3213.49394	2255.6
3215.79363	2262.1
3218.09193	2274.3
3220.38884	2289.6
3222.68438	2284
3224.97853	2284.9
3227.2713	2293.1
3229.56269	2288.3
3231.8527	2294
3234.14133	2291.4
3236.42858	2286.2
3238.71446	2282.1
3240.99896	2288.2
3243.28209	2279.2
3245.56384	2270.5
3247.84423	2276
3250.12324	2276.4
3252.40088	2263.2
3254.67715	2269.7
3256.95205	2265.6
3259.22558	2268.5
3261.49775	2279.8
3263.76855	2275.3
3266.03799	2271.6
3268.30606	2294.1
3270.57277	2282.1
3272.83812	2271.3
3275.10211	2271.5
3277.36474	2267.7
3279.62601	2280.9
3281.88593	2262.3
3284.14448	2264.9
3286.40168	2268.3
3288.65753	2252.2
3290.91202	2266.1
3293.16516	2259
3295.41695	2244.8
3297.66738	2246.5
3299.91647	2228.5
3302.16421	2217.4
3304.4106	2222.1
3306.65564	2204.5
3308.89933	2189.8
3311.14169	2178.3
3313.38269	2165.2
3315.62236	2160
3317.86068	2140.8
3320.09766	2123.5
3322.3333	2097.3
3324.5676	2098.2
3326.80056	2058.6
3329.03219	2052.5
3331.26248	1.6
3333.49143	1.3
3335.71905	0.5
