Data from AgNPs_UA_20uM_CRN_500uM_AS_RamanShift__26__14-53-51-528.txt Node

Date: Wed Aug 17 14:53:51 BST 2022
User: TCL
Spectrometer: QEP01345
Trigger mode: 4
Integration Time (sec): 7.000000E0
Scans to average: 10
Electric dark correction enabled: true
Nonlinearity correction enabled: false
Boxcar width: 0
XAxis mode: Raman Shifts
Number of Pixels in Spectrum: 1044
>>>>>Begin Spectral Data<<<<<
46.04893	-0.7625
50.45542	-0.3625
54.85868	-1.4625
59.25871	0.2375
63.6555	48.4375
68.04907	49.8375
72.43941	56.8375
76.82654	60.2375
81.21044	58.6375
85.59113	63.1375
89.96862	63.5375
94.34289	72.3375
98.71396	73.1375
103.08183	72.0375
107.4465	77.4375
111.80798	73.6375
116.16626	79.4375
120.52136	78.4375
124.87327	82.4375
129.222	84.5375
133.56755	89.8375
137.90993	92.1375
142.24913	108.3375
146.58517	111.7375
150.91804	127.1375
155.24774	146.9375
159.57429	174.9375
163.89768	221.1375
168.21792	293.3375
172.53501	393.4375
176.84895	543.4375
181.15975	754.6375
185.46741	1064.2375
189.77193	1471.0375
194.07331	1974.3375
198.37157	2560.6375
202.6667	3182.6375
206.9587	3869.5375
211.24758	4572.9375
215.53334	5396.5375
219.81599	6310.8375
224.09553	7428.8375
228.37195	8615.4375
232.64527	9840.4375
236.91549	10895.6375
241.18261	11659.7375
245.44663	12100.5375
249.70755	12339.3375
253.96539	12605.9375
258.22014	12837.5375
262.4718	13005.2375
266.72039	12964.6375
270.96589	12678.2375
275.20832	12107.1375
279.44768	11490.2375
283.68397	10943.8375
287.91719	10727.5375
292.14735	10975.2375
296.37445	11861.1375
300.59849	13277.2375
304.81948	14975.9375
309.03742	16355.6375
313.25231	16617.2375
317.46415	15281.5375
321.67296	12986.9375
325.87872	11142.2375
330.08145	10369.5375
334.28114	10401.3375
338.47781	10821.5375
342.67145	11446.3375
346.86207	12491.3375
351.04966	14165.7375
355.23424	16122.1375
359.4158	17418.4375
363.59435	17746.1375
367.76989	17475.9375
371.94243	16836.6375
376.11196	16236.3375
380.27849	15646.6375
384.44203	15020.3375
388.60257	14377.3375
392.76012	13943.1375
396.91468	13947.8375
401.06626	14337.2375
405.21485	14493.6375
409.36047	13596.6375
413.50311	11898.5375
417.64277	10318.3375
421.77947	9373.3375
425.9132	8938.6375
430.04396	8747.5375
434.17176	8774.7375
438.2966	9006.2375
442.41849	9395.6375
446.53742	9797.2375
450.6534	10072.4375
454.76644	10074.4375
458.87653	9896.3375
462.98368	9611.0375
467.08789	9304.3375
471.18916	8987.8375
475.2875	8568.6375
479.38291	8186.4375
483.4754	7899.3375
487.56496	7736.6375
491.6516	7635.7375
495.73531	7655.0375
499.81612	7759.6375
503.89401	8022.5375
507.96899	8437.1375
512.04106	8903.7375
516.11023	9404.2375
520.1765	9752.2375
524.23987	9729.2375
528.30034	9464.0375
532.35792	9188.9375
536.41261	8832.2375
540.46441	8380.3375
544.51333	8117.5375
548.55936	8171.5375
552.60252	8556.9375
556.64279	9041.1375
560.6802	9474.6375
564.71473	10379.7375
568.7464	11771.1375
572.7752	11764.2375
576.80114	9942.2375
580.82422	8360.6375
584.84444	7674.6375
588.86181	7458.8375
592.87633	7539.1375
596.888	7921.8375
600.89682	9213.5375
604.9028	13291.3375
608.90594	23299.1375
612.90624	34657.7375
616.90371	30376.3375
620.89834	15987.2375
624.89015	9889.5375
628.87913	8938.1375
632.86528	9528.2375
636.84862	10141.5375
640.82913	9534.7375
644.80683	8223.3375
648.78172	7423.1375
652.75379	7616.8375
656.72306	8754.7375
660.68952	9819.9375
664.65319	9113.3375
668.61405	7659.8375
672.57211	7088.2375
676.52738	7122.5375
680.47986	7065.9375
684.42955	6816.3375
688.37646	6665.0375
692.32058	6667.5375
696.26192	6820.4375
700.20048	7033.7375
704.13626	7155.5375
708.06928	7039.1375
711.99952	6897.6375
715.927	6945.0375
719.85171	7136.9375
723.77365	7323.9375
727.69284	7239.0375
731.60928	7077.7375
735.52295	6992.3375
739.43388	7015.1375
743.34206	7085.3375
747.24749	7084.2375
751.15017	7122.4375
755.05012	7538.5375
758.94733	9053.1375
762.8418	12773.7375
766.73354	18198.7375
770.62254	22353.9375
774.50882	24055.6375
778.39237	22382.8375
782.27321	17208.9375
786.15132	11905.1375
790.02671	8962.4375
793.89938	7704.1375
797.76935	7184.7375
801.6366	6952.0375
805.50115	6818.6375
809.36299	6717.5375
813.22213	6669.0375
817.07857	6634.6375
820.93231	6687.1375
824.78336	6803.4375
828.63172	6968.0375
832.47738	7006.2375
836.32036	6834.4375
840.16066	6600.1375
843.99827	6469.4375
847.8332	6415.0375
851.66546	6441.1375
855.49504	6453.1375
859.32195	6439.7375
863.1462	6395.3375
866.96777	6342.0375
870.78668	6350.2375
874.60293	6383.4375
878.41652	6501.1375
882.22745	6657.4375
886.03573	6771.9375
889.84136	6752.9375
893.64433	6697.7375
897.44466	6723.2375
901.24235	6726.5375
905.0374	6622.3375
908.8298	6427.6375
912.61957	6254.0375
916.40671	6193.0375
920.19121	6235.2375
923.97308	6442.0375
927.75233	6878.2375
931.52895	7354.9375
935.30295	7109.7375
939.07433	6438.4375
942.84309	5908.5375
946.60924	5642.2375
950.37278	5529.6375
954.13371	5483.0375
957.89203	5487.8375
961.64774	5461.0375
965.40086	5455.4375
969.15137	5418.7375
972.89929	5391.0375
976.64461	5362.6375
980.38733	5380.0375
984.12747	5387.3375
987.86502	5426.3375
991.59999	5471.2375
995.33237	5556.4375
999.06217	5713.0375
1002.78939	5974.1375
1006.51404	6287.8375
1010.23611	6530.0375
1013.95561	6486.7375
1017.67255	6353.4375
1021.38692	6165.7375
1025.09872	5947.7375
1028.80796	5831.6375
1032.51465	5857.1375
1036.21877	5957.6375
1039.92035	6086.2375
1043.61937	6210.9375
1047.31584	6305.7375
1051.00976	6297.4375
1054.70114	6183.4375
1058.38998	6101.9375
1062.07627	6099.2375
1065.76003	6072.7375
1069.44126	6091.9375
1073.11995	6268.6375
1076.79611	6681.7375
1080.46974	7421.5375
1084.14085	8302.7375
1087.80943	8970.4375
1091.47549	9016.5375
1095.13903	8474.5375
1098.80005	7651.3375
1102.45857	7183.9375
1106.11456	7192.4375
1109.76805	7609.0375
1113.41903	8447.4375
1117.06751	9750.6375
1120.71348	11486.3375
1124.35696	13496.5375
1127.99793	14402.6375
1131.63641	13110.3375
1135.2724	10841.1375
1138.90589	9207.4375
1142.5369	8281.8375
1146.16542	7681.2375
1149.79145	7313.8375
1153.415	7181.7375
1157.03607	7280.3375
1160.65467	7630.0375
1164.27079	8275.3375
1167.88443	9320.1375
1171.49561	11032.1375
1175.10432	14042.9375
1178.71056	18051.7375
1182.31434	21156.7375
1185.91565	21419.7375
1189.51451	19413.1375
1193.11091	16611.5375
1196.70485	14138.1375
1200.29634	12731.9375
1203.88538	11538.4375
1207.47197	9959.1375
1211.05612	8495.8375
1214.63782	7600.6375
1218.21708	7129.2375
1221.79391	6940.2375
1225.36829	6917.4375
1228.94024	6870.2375
1232.50976	6843.3375
1236.07685	6864.0375
1239.6415	6979.7375
1243.20374	7118.8375
1246.76355	7318.0375
1250.32093	7525.4375
1253.8759	7831.6375
1257.42845	8366.5375
1260.97859	9094.2375
1264.52631	9895.6375
1268.07163	10663.3375
1271.61453	11132.2375
1275.15503	11268.3375
1278.69312	11191.5375
1282.22882	11416.2375
1285.76211	12216.0375
1289.29301	13257.4375
1292.82151	14167.8375
1296.34761	15254.4375
1299.87133	17353.0375
1303.39266	21343.5375
1306.9116	27526.3375
1310.42815	33194.4375
1313.94233	33767.4375
1317.45412	28792.4375
1320.96354	22573.0375
1324.47058	17353.3375
1327.97525	13712.2375
1331.47754	11757.4375
1334.97747	11129.4375
1338.47502	11624.3375
1341.97022	13363.2375
1345.46305	16400.1375
1348.95352	20383.3375
1352.44163	25165.8375
1355.92738	32202.4375
1359.41078	42744.2375
1362.89183	50285.8375
1366.37053	44426.3375
1369.84688	31242.4375
1373.32088	21661.1375
1376.79254	16758.8375
1380.26186	14006.7375
1383.72883	12028.1375
1387.19347	10428.0375
1390.65578	9165.8375
1394.11575	8259.4375
1397.57339	7750.5375
1401.0287	7483.8375
1404.48168	7333.4375
1407.93234	7253.9375
1411.38068	7384.8375
1414.82669	7741.0375
1418.27039	8057.8375
1421.71177	8096.7375
1425.15083	7977.1375
1428.58758	8170.5375
1432.02203	8541.2375
1435.45416	8650.1375
1438.88399	8429.5375
1442.31151	8204.7375
1445.73673	8222.1375
1449.15965	8311.1375
1452.58027	8239.8375
1455.9986	8025.8375
1459.41463	7986.3375
1462.82837	8245.3375
1466.23982	8725.5375
1469.64898	9109.3375
1473.05586	9194.8375
1476.46045	9177.1375
1479.86276	9366.7375
1483.26279	9896.6375
1486.66054	10883.6375
1490.05602	12379.7375
1493.44922	14749.1375
1496.84016	18675.8375
1500.22882	25061.7375
1503.61521	34067.4375
1506.99934	43975.1375
1510.38121	50622.1375
1513.76081	49962.2375
1517.13816	42017.7375
1520.51324	31289.7375
1523.88607	22493.4375
1527.25665	17078.6375
1530.62498	14142.6375
1533.99105	12355.6375
1537.35488	11236.7375
1540.71647	10676.7375
1544.07581	10606.9375
1547.4329	10867.2375
1550.78776	11342.9375
1554.14038	11835.5375
1557.49077	12366.9375
1560.83892	13244.0375
1564.18484	14693.6375
1567.52853	16417.6375
1570.86999	17681.9375
1574.20922	18157.9375
1577.54624	17349.8375
1580.88103	14733.4375
1584.2136	11740.6375
1587.54395	9891.7375
1590.87208	9465.5375
1594.19801	10202.4375
1597.52172	11299.2375
1600.84321	11484.4375
1604.16251	10702.4375
1607.47959	9763.1375
1610.79447	8878.5375
1614.10715	7987.6375
1617.41763	7266.7375
1620.7259	6876.6375
1624.03199	6808.6375
1627.33587	7005.9375
1630.63757	7494.4375
1633.93707	8372.2375
1637.23439	9987.4375
1640.52951	12898.1375
1643.82246	17648.1375
1647.11321	23491.8375
1650.40179	27046.6375
1653.68819	25213.1375
1656.97241	19472.4375
1660.25446	13775.0375
1663.53433	10027.4375
1666.81203	7933.0375
1670.08756	6745.9375
1673.36092	6089.2375
1676.63211	5679.6375
1679.90115	5403.3375
1683.16801	5210.5375
1686.43272	5082.6375
1689.69527	4992.8375
1692.95567	4922.0375
1696.2139	4883.4375
1699.46999	4867.2375
1702.72392	4836.1375
1705.97571	4810.4375
1709.22535	4790.5375
1712.47284	4807.2375
1715.71819	4774.3375
1718.96139	4716.0375
1722.20246	4665.4375
1725.44139	4584.5375
1728.67818	4487.8375
1731.91284	4388.7375
1735.14537	4325.2375
1738.37576	4274.8375
1741.60403	4253.1375
1744.83017	4221.1375
1748.05418	4204.7375
1751.27607	4180.1375
1754.49584	4142.8375
1757.71349	4113.2375
1760.92903	4070.8375
1764.14244	4018.0375
1767.35375	3986.7375
1770.56294	3935.2375
1773.77002	3874.3375
1776.97499	3804.4375
1780.17785	3765.0375
1783.37861	3721.8375
1786.57727	3677.1375
1789.77382	3665.0375
1792.96828	3652.0375
1796.16064	3651.1375
1799.3509	3635.6375
1802.53907	3603.3375
1805.72514	3598.2375
1808.90913	3535.1375
1812.09102	3521.7375
1815.27083	3492.9375
1818.44856	3480.0375
1821.6242	3466.9375
1824.79776	3455.8375
1827.96924	3423.5375
1831.13864	3407.7375
1834.30597	3399.0375
1837.47122	3361.1375
1840.6344	3329.3375
1843.7955	3330.4375
1846.95454	3318.7375
1850.11151	3311.7375
1853.26642	3288.7375
1856.41926	3304.9375
1859.57004	3300.3375
1862.71876	3297.5375
1865.86542	3304.7375
1869.01003	3298.1375
1872.15258	3300.8375
1875.29308	3326.9375
1878.43152	3303.8375
1881.56792	3307.0375
1884.70227	3298.6375
1887.83457	3283.6375
1890.96482	3286.6375
1894.09304	3266.4375
1897.21921	3255.1375
1900.34335	3251.0375
1903.46544	3251.1375
1906.58551	3264.3375
1909.70353	3258.1375
1912.81953	3254.3375
1915.93349	3241.5375
1919.04543	3237.5375
1922.15534	3215.2375
1925.26322	3185.0375
1928.36908	3178.5375
1931.47292	3157.5375
1934.57473	3118.1375
1937.67453	3093.2375
1940.77232	3060.9375
1943.86808	3027.6375
1946.96184	3013.5375
1950.05358	3014.6375
1953.14331	3005.2375
1956.23103	2992.0375
1959.31675	3018.5375
1962.40046	3011.9375
1965.48217	3012.1375
1968.56188	3040.7375
1971.63959	3035.0375
1974.7153	3026.0375
1977.78901	3001.0375
1980.86073	2984.8375
1983.93046	2934.5375
1986.99819	2911.5375
1990.06394	2888.8375
1993.1277	2863.4375
1996.18947	2851.0375
1999.24925	2823.7375
2002.30706	2807.8375
2005.36288	2793.7375
2008.41672	2786.6375
2011.46859	2768.5375
2014.51848	2748.7375
2017.56639	2743.4375
2020.61233	2732.7375
2023.6563	2718.0375
2026.6983	2706.0375
2029.73833	2709.6375
2032.7764	2687.4375
2035.8125	2684.4375
2038.84664	2677.1375
2041.87881	2670.0375
2044.90903	2668.8375
2047.93729	2661.9375
2050.96359	2639.4375
2053.98794	2635.9375
2057.01034	2627.4375
2060.03078	2619.5375
2063.04927	2615.4375
2066.06582	2592.9375
2069.08042	2584.0375
2072.09307	2576.9375
2075.10378	2578.0375
2078.11255	2588.2375
2081.11938	2589.2375
2084.12426	2576.2375
2087.12722	2576.5375
2090.12824	2564.5375
2093.12732	2575.8375
2096.12447	2576.4375
2099.11969	2582.8375
2102.11299	2574.5375
2105.10435	2571.3375
2108.09379	2577.0375
2111.08131	2591.8375
2114.0669	2596.5375
2117.05057	2620.8375
2120.03233	2628.8375
2123.01216	2645.0375
2125.99008	2638.4375
2128.96609	2652.6375
2131.94018	2649.9375
2134.91236	2626.1375
2137.88263	2624.3375
2140.851	2619.0375
2143.81746	2598.9375
2146.78201	2590.9375
2149.74466	2568.4375
2152.7054	2551.8375
2155.66425	2544.4375
2158.6212	2533.1375
2161.57625	2521.4375
2164.52941	2509.2375
2167.48067	2519.6375
2170.43004	2521.5375
2173.37752	2507.0375
2176.32311	2515.7375
2179.26681	2513.0375
2182.20863	2522.9375
2185.14856	2520.5375
2188.08661	2512.9375
2191.02278	2509.8375
2193.95707	2488.8375
2196.88948	2478.3375
2199.82001	2485.7375
2202.74867	2480.4375
2205.67545	2473.6375
2208.60037	2473.7375
2211.52341	2482.4375
2214.44458	2469.4375
2217.36388	2448.3375
2220.28132	2447.6375
2223.1969	2437.2375
2226.11061	2420.9375
2229.02246	2414.4375
2231.93245	2399.9375
2234.84058	2399.7375
2237.74686	2396.7375
2240.65128	2386.4375
2243.55385	2402.1375
2246.45456	2419.5375
2249.35343	2424.5375
2252.25044	2433.7375
2255.14561	2456.3375
2258.03893	2492.3375
2260.93041	2503.1375
2263.82004	2499.6375
2266.70783	2503.9375
2269.59378	2487.2375
2272.4779	2473.5375
2275.36017	2470.9375
2278.24061	2462.3375
2281.11922	2454.1375
2283.996	2431.6375
2286.87094	2418.6375
2289.74405	2410.1375
2292.61534	2381.5375
2295.4848	2363.9375
2298.35243	2345.9375
2301.21824	2352.6375
2304.08223	2349.6375
2306.94439	2340.1375
2309.80474	2345.2375
2312.66327	2341.7375
2315.51999	2337.4375
2318.37489	2341.0375
2321.22797	2330.3375
2324.07925	2323.3375
2326.92871	2317.9375
2329.77637	2327.2375
2332.62222	2320.2375
2335.46626	2315.1375
2338.3085	2321.4375
2341.14893	2330.2375
2343.98756	2332.0375
2346.8244	2345.9375
2349.65943	2369.2375
2352.49267	2373.7375
2355.32411	2379.8375
2358.15376	2414.9375
2360.98161	2441.9375
2363.80768	2462.4375
2366.63195	2479.4375
2369.45444	2490.9375
2372.27514	2497.5375
2375.09405	2496.4375
2377.91118	2471.4375
2380.72652	2464.4375
2383.54009	2427.7375
2386.35187	2400.4375
2389.16188	2362.7375
2391.97011	2338.3375
2394.77657	2326.1375
2397.58125	2313.3375
2400.38416	2294.2375
2403.18529	2268.3375
2405.98466	2254.6375
2408.78226	2246.8375
2411.57809	2245.1375
2414.37216	2237.3375
2417.16446	2236.0375
2419.955	2239.8375
2422.74378	2243.7375
2425.5308	2258.1375
2428.31606	2260.1375
2431.09956	2269.5375
2433.88131	2275.6375
2436.6613	2283.2375
2439.43954	2290.8375
2442.21603	2302.4375
2444.99077	2309.1375
2447.76377	2314.7375
2450.53501	2327.1375
2453.30451	2324.7375
2456.07226	2330.1375
2458.83827	2322.7375
2461.60254	2321.0375
2464.36507	2322.2375
2467.12586	2323.8375
2469.88492	2305.1375
2472.64224	2333.5375
2475.39782	2349.0375
2478.15167	2365.2375
2480.90379	2395.1375
2483.65417	2414.6375
2486.40283	2454.3375
2489.14976	2465.5375
2491.89497	2476.3375
2494.63845	2488.7375
2497.3802	2465.1375
2500.12024	2453.2375
2502.85855	2432.4375
2505.59514	2375.0375
2508.33002	2346.1375
2511.06318	2312.1375
2513.79462	2273.0375
2516.52435	2233.1375
2519.25237	2210.1375
2521.97867	2184.4375
2524.70327	2165.9375
2527.42616	2149.3375
2530.14734	2143.0375
2532.86681	2135.3375
2535.58458	2152.2375
2538.30065	2149.0375
2541.01501	2168.8375
2543.72768	2172.8375
2546.43864	2187.9375
2549.14791	2188.5375
2551.85548	2189.6375
2554.56136	2183.8375
2557.26554	2189.4375
2559.96803	2199.0375
2562.66883	2185.0375
2565.36794	2182.1375
2568.06536	2172.1375
2570.7611	2175.9375
2573.45514	2152.3375
2576.14751	2157.1375
2578.83819	2138.0375
2581.52719	2122.5375
2584.21451	2127.7375
2586.90015	2114.8375
2589.58411	2103.3375
2592.2664	2097.5375
2594.94701	2099.2375
2597.62594	2098.6375
2600.30321	2091.4375
2602.9788	2093.8375
2605.65273	2105.8375
2608.32498	2101.1375
2610.99557	2101.2375
2613.66449	2116.9375
2616.33175	2120.8375
2618.99734	2120.1375
2621.66128	2112.1375
2624.32355	2098.8375
2626.98416	2087.2375
2629.64311	2087.5375
2632.30041	2075.9375
2634.95605	2064.0375
2637.61004	2046.2375
2640.26238	2044.8375
2642.91306	2031.8375
2645.56209	2023.2375
2648.20948	2023.7375
2650.85521	2017.3375
2653.4993	2029.3375
2656.14175	2032.2375
2658.78255	2051.6375
2661.42171	2059.2375
2664.05923	2064.8375
2666.6951	2092.9375
2669.32934	2092.1375
2671.96194	2091.2375
2674.59291	2091.9375
2677.22224	2099.2375
2679.84993	2101.3375
2682.476	2090.1375
2685.10043	2107.2375
2687.72324	2077.8375
2690.34441	2075.3375
2692.96396	2073.7375
2695.58188	2058.6375
2698.19818	2054.0375
2700.81285	2050.8375
2703.4259	2055.6375
2706.03733	2071.0375
2708.64714	2077.8375
2711.25533	2077.1375
2713.86191	2086.6375
2716.46687	2079.9375
2719.07021	2086.2375
2721.67194	2085.7375
2724.27206	2094.2375
2726.87057	2084.9375
2729.46747	2086.1375
2732.06276	2064.2375
2734.65644	2053.8375
2737.24852	2034.8375
2739.83899	2030.0375
2742.42786	2014.5375
2745.01513	2002.6375
2747.60079	2001.5375
2750.18486	1976.2375
2752.76733	1971.6375
2755.3482	1963.0375
2757.92747	1959.7375
2760.50515	1955.6375
2763.08123	1943.6375
2765.65573	1949.8375
2768.22863	1940.7375
2770.79994	1937.5375
2773.36967	1937.4375
2775.9378	1935.5375
2778.50435	1939.6375
2781.06932	1945.1375
2783.6327	1955.3375
2786.1945	1949.3375
2788.75471	1961.3375
2791.31335	1976.5375
2793.87041	1967.5375
2796.42589	1978.9375
2798.97979	1990.3375
2801.53212	1993.2375
2804.08288	2012.0375
2806.63206	2023.0375
2809.17967	2042.1375
2811.72571	2056.1375
2814.27018	2079.2375
2816.81308	2088.9375
2819.35442	2104.0375
2821.89419	2121.4375
2824.43239	2141.2375
2826.96904	2137.0375
2829.50412	2132.8375
2832.03763	2131.3375
2834.56959	2120.0375
2837.1	2118.5375
2839.62884	2123.9375
2842.15613	2121.5375
2844.68186	2131.4375
2847.20604	2147.7375
2849.72867	2158.8375
2852.24974	2174.6375
2854.76927	2189.2375
2857.28724	2222.3375
2859.80367	2253.1375
2862.31855	2265.5375
2864.83189	2297.9375
2867.34368	2316.7375
2869.85393	2336.5375
2872.36264	2356.9375
2874.8698	2360.0375
2877.37543	2353.9375
2879.87952	2343.0375
2882.38207	2344.8375
2884.88308	2326.5375
2887.38256	2345.4375
2889.88051	2325.5375
2892.37692	2325.9375
2894.8718	2333.1375
2897.36515	2336.3375
2899.85698	2321.3375
2902.34727	2323.7375
2904.83604	2325.5375
2907.32328	2326.1375
2909.809	2303.0375
2912.29319	2299.4375
2914.77587	2298.5375
2917.25702	2280.4375
2919.73665	2279.5375
2922.21476	2270.4375
2924.69136	2270.6375
2927.16644	2261.6375
2929.64	2256.5375
2932.11205	2235.2375
2934.58258	2231.7375
2937.05161	2233.5375
2939.51912	2225.9375
2941.98513	2224.1375
2944.44962	2222.7375
2946.91261	2204.3375
2949.37409	2194.4375
2951.83407	2181.4375
2954.29254	2188.2375
2956.74951	2177.7375
2959.20498	2168.5375
2961.65895	2156.0375
2964.11142	2142.2375
2966.56239	2132.1375
2969.01186	2117.9375
2971.45984	2108.9375
2973.90632	2094.2375
2976.35131	2076.4375
2978.7948	2058.7375
2981.23681	2061.1375
2983.67732	2040.8375
2986.11635	2036.8375
2988.55388	2031.7375
2990.98993	2027.1375
2993.4245	2034.0375
2995.85758	2044.8375
2998.28917	2043.7375
3000.71928	2038.3375
3003.14791	2050.8375
3005.57506	2053.0375
3008.00073	2062.2375
3010.42493	2030.0375
3012.84764	2053.4375
3015.26888	2063.1375
3017.68865	2047.4375
3020.10694	2047.2375
3022.52376	2046.7375
3024.9391	2032.1375
3027.35298	2028.6375
3029.76539	2001.6375
3032.17632	1991.2375
3034.5858	1977.6375
3036.9938	1957.3375
3039.40034	1953.8375
3041.80542	1951.1375
3044.20903	1940.2375
3046.61118	1936.8375
3049.01187	1920.9375
3051.4111	1919.6375
3053.80888	1912.1375
3056.20519	1911.7375
3058.60005	1912.2375
3060.99345	1922.1375
3063.3854	1898.4375
3065.7759	1895.2375
3068.16494	1885.2375
3070.55254	1878.7375
3072.93868	1882.3375
3075.32338	1867.0375
3077.70662	1856.3375
3080.08842	1859.7375
3082.46878	1857.4375
3084.84769	1853.0375
3087.22515	1868.8375
3089.60118	1860.4375
3091.97576	1862.5375
3094.3489	1852.4375
3096.72061	1873.8375
3099.09087	1867.2375
3101.4597	1871.3375
3103.82709	1885.0375
3106.19305	1876.8375
3108.55757	1885.4375
3110.92066	1895.7375
3113.28232	1904.7375
3115.64255	1900.7375
3118.00134	1905.8375
3120.35871	1899.8375
3122.71466	1901.6375
3125.06917	1918.9375
3127.42226	1913.2375
3129.77393	1912.4375
3132.12417	1920.1375
3134.47299	1931.8375
3136.82039	1941.7375
3139.16636	1952.5375
3141.51092	1937.2375
3143.85406	1954.8375
3146.19579	1962.9375
3148.53609	1982.8375
3150.87499	1991.9375
3153.21246	1999.6375
3155.54853	2007.1375
3157.88318	2018.0375
3160.21642	2026.6375
3162.54826	2031.4375
3164.87868	2033.2375
3167.2077	2053.9375
3169.5353	2058.0375
3171.86151	2061.2375
3174.18631	2068.7375
3176.5097	2059.9375
3178.83169	2053.9375
3181.15228	2065.4375
3183.47147	2072.4375
3185.78926	2085.9375
3188.10565	2075.0375
3190.42065	2083.5375
3192.73424	2107.1375
3195.04645	2098.6375
3197.35725	2120.0375
3199.66667	2125.5375
3201.97469	2140.9375
3204.28132	2157.5375
3206.58656	2174.1375
3208.8904	2184.3375
3211.19287	2206.9375
3213.49394	2211.5375
3215.79363	2228.8375
3218.09193	2249.8375
3220.38884	2258.5375
3222.68438	2266.7375
3224.97853	2269.0375
3227.2713	2278.0375
3229.56269	2292.3375
3231.8527	2286.7375
3234.14133	2279.2375
3236.42858	2279.8375
3238.71446	2293.3375
3240.99896	2275.2375
3243.28209	2289.4375
3245.56384	2298.0375
3247.84423	2302.7375
3250.12324	2306.6375
3252.40088	2302.5375
3254.67715	2306.9375
3256.95205	2299.7375
3259.22558	2323.5375
3261.49775	2329.1375
3263.76855	2324.3375
3266.03799	2332.5375
3268.30606	2338.9375
3270.57277	2326.1375
3272.83812	2329.4375
3275.10211	2327.5375
3277.36474	2340.2375
3279.62601	2347.0375
3281.88593	2343.6375
3284.14448	2344.1375
3286.40168	2344.6375
3288.65753	2355.5375
3290.91202	2361.6375
3293.16516	2359.9375
3295.41695	2358.4375
3297.66738	2340.6375
3299.91647	2346.4375
3302.16421	2319.0375
3304.4106	2305.5375
3306.65564	2284.6375
3308.89933	2250.3375
3311.14169	2234.9375
3313.38269	2206.8375
3315.62236	2195.9375
3317.86068	2182.0375
3320.09766	2165.3375
3322.3333	2128.9375
3324.5676	2124.6375
3326.80056	2083.2375
3329.03219	2060.2375
3331.26248	0.9375
3333.49143	0.7375
3335.71905	1.5375
