Data from AgNPs_UA_20uM_CRN_500uM_AS_RamanShift__8__14-32-51-506.txt Node

Date: Wed Aug 17 14:32:51 BST 2022
User: TCL
Spectrometer: QEP01345
Trigger mode: 4
Integration Time (sec): 7.000000E0
Scans to average: 10
Electric dark correction enabled: true
Nonlinearity correction enabled: false
Boxcar width: 0
XAxis mode: Raman Shifts
Number of Pixels in Spectrum: 1044
>>>>>Begin Spectral Data<<<<<
46.04893	0.0375
50.45542	-1.8625
54.85868	-0.8625
59.25871	-0.4625
63.6555	48.5375
68.04907	49.3375
72.43941	54.6375
76.82654	61.4375
81.21044	61.6375
85.59113	62.0375
89.96862	65.6375
94.34289	74.9375
98.71396	75.1375
103.08183	74.6375
107.4465	74.5375
111.80798	74.5375
116.16626	75.5375
120.52136	77.6375
124.87327	75.9375
129.222	78.5375
133.56755	82.5375
137.90993	84.4375
142.24913	88.3375
146.58517	99.5375
150.91804	100.5375
155.24774	111.3375
159.57429	129.5375
163.89768	154.3375
168.21792	200.3375
172.53501	263.0375
176.84895	354.2375
181.15975	486.0375
185.46741	669.3375
189.77193	920.4375
194.07331	1219.3375
198.37157	1558.9375
202.6667	1926.1375
206.9587	2286.0375
211.24758	2653.6375
215.53334	3042.5375
219.81599	3472.2375
224.09553	3955.8375
228.37195	4484.2375
232.64527	5064.0375
236.91549	5629.1375
241.18261	6161.2375
245.44663	6518.8375
249.70755	6744.6375
253.96539	6917.3375
258.22014	7023.7375
262.4718	7079.6375
266.72039	7137.1375
270.96589	7110.1375
275.20832	6956.4375
279.44768	6783.6375
283.68397	6611.0375
287.91719	6475.5375
292.14735	6445.1375
296.37445	6547.1375
300.59849	6742.2375
304.81948	7027.8375
309.03742	7287.5375
313.25231	7460.3375
317.46415	7410.7375
321.67296	7160.1375
325.87872	6905.2375
330.08145	6754.2375
334.28114	6754.2375
338.47781	6776.2375
342.67145	6903.5375
346.86207	7100.1375
351.04966	7338.1375
355.23424	7601.9375
359.4158	7750.0375
363.59435	7798.2375
367.76989	7716.0375
371.94243	7639.2375
376.11196	7559.8375
380.27849	7509.4375
384.44203	7478.0375
388.60257	7495.8375
392.76012	7509.0375
396.91468	7591.8375
401.06626	7697.9375
405.21485	7711.0375
409.36047	7473.5375
413.50311	7097.4375
417.64277	6807.8375
421.77947	6655.4375
425.9132	6670.0375
430.04396	6732.9375
434.17176	6828.7375
438.2966	7037.1375
442.41849	7348.1375
446.53742	7768.2375
450.6534	8135.2375
454.76644	8265.8375
458.87653	8153.3375
462.98368	7920.1375
467.08789	7641.3375
471.18916	7329.6375
475.2875	7020.6375
479.38291	6712.9375
483.4754	6441.7375
487.56496	6294.6375
491.6516	6222.4375
495.73531	6221.2375
499.81612	6236.1375
503.89401	6289.7375
507.96899	6379.7375
512.04106	6407.9375
516.11023	6421.4375
520.1765	6508.7375
524.23987	6562.6375
528.30034	6622.2375
532.35792	6621.6375
536.41261	6489.4375
540.46441	6297.9375
544.51333	6183.7375
548.55936	6220.0375
552.60252	6405.5375
556.64279	6698.2375
560.6802	6849.7375
564.71473	6856.2375
568.7464	6928.5375
572.7752	7027.8375
576.80114	7035.9375
580.82422	7131.9375
584.84444	7442.0375
588.86181	8209.6375
592.87633	9378.1375
596.888	10232.8375
600.89682	10002.0375
604.9028	9857.3375
608.90594	11405.1375
612.90624	13397.4375
616.90371	11895.9375
620.89834	8287.2375
624.89015	6704.2375
628.87913	6509.1375
632.86528	6722.9375
636.84862	6861.6375
640.82913	6604.9375
644.80683	6207.5375
648.78172	5947.5375
652.75379	5967.8375
656.72306	6228.7375
660.68952	6472.8375
664.65319	6230.0375
668.61405	5844.2375
672.57211	5737.9375
676.52738	5825.7375
680.47986	5834.5375
684.42955	5716.9375
688.37646	5640.7375
692.32058	5621.6375
696.26192	5731.9375
700.20048	5826.2375
704.13626	5915.6375
708.06928	5897.7375
711.99952	5823.2375
715.927	5847.6375
719.85171	5912.3375
723.77365	5931.1375
727.69284	5893.7375
731.60928	5863.8375
735.52295	5914.4375
739.43388	6020.0375
743.34206	6054.5375
747.24749	6032.7375
751.15017	6070.4375
755.05012	6205.3375
758.94733	6666.6375
762.8418	7778.0375
766.73354	9482.7375
770.62254	10877.4375
774.50882	11037.4375
778.39237	10076.6375
782.27321	8605.9375
786.15132	7297.4375
790.02671	6479.3375
793.89938	6047.9375
797.76935	5809.8375
801.6366	5698.1375
805.50115	5592.6375
809.36299	5527.7375
813.22213	5447.7375
817.07857	5437.2375
820.93231	5403.5375
824.78336	5425.8375
828.63172	5453.0375
832.47738	5448.7375
836.32036	5450.4375
840.16066	5377.2375
843.99827	5353.2375
847.8332	5363.2375
851.66546	5377.3375
855.49504	5403.6375
859.32195	5405.9375
863.1462	5389.1375
866.96777	5366.9375
870.78668	5354.2375
874.60293	5365.3375
878.41652	5428.5375
882.22745	5488.8375
886.03573	5523.2375
889.84136	5518.0375
893.64433	5503.1375
897.44466	5495.2375
901.24235	5482.6375
905.0374	5447.6375
908.8298	5377.4375
912.61957	5336.8375
916.40671	5361.0375
920.19121	5449.9375
923.97308	5567.9375
927.75233	5654.2375
931.52895	5639.9375
935.30295	5462.1375
939.07433	5218.7375
942.84309	5057.6375
946.60924	4972.5375
950.37278	4927.1375
954.13371	4898.8375
957.89203	4913.5375
961.64774	4898.9375
965.40086	4909.8375
969.15137	4891.0375
972.89929	4873.4375
976.64461	4838.5375
980.38733	4848.8375
984.12747	4843.6375
987.86502	4876.8375
991.59999	4945.7375
995.33237	5045.4375
999.06217	5227.3375
1002.78939	5472.3375
1006.51404	5682.2375
1010.23611	5856.4375
1013.95561	5944.3375
1017.67255	5925.2375
1021.38692	5761.2375
1025.09872	5499.1375
1028.80796	5269.8375
1032.51465	5196.4375
1036.21877	5200.7375
1039.92035	5235.3375
1043.61937	5292.6375
1047.31584	5317.6375
1051.00976	5343.0375
1054.70114	5354.8375
1058.38998	5344.9375
1062.07627	5357.8375
1065.76003	5376.3375
1069.44126	5437.0375
1073.11995	5570.0375
1076.79611	5726.9375
1080.46974	5916.7375
1084.14085	6153.8375
1087.80943	6356.7375
1091.47549	6416.2375
1095.13903	6250.3375
1098.80005	5987.0375
1102.45857	5786.4375
1106.11456	5760.5375
1109.76805	5854.7375
1113.41903	6079.8375
1117.06751	6349.1375
1120.71348	6705.5375
1124.35696	7117.7375
1127.99793	7384.6375
1131.63641	7242.4375
1135.2724	6913.5375
1138.90589	6620.0375
1142.5369	6446.5375
1146.16542	6395.5375
1149.79145	6415.5375
1153.415	6478.7375
1157.03607	6567.1375
1160.65467	6764.1375
1164.27079	7137.5375
1167.88443	7743.9375
1171.49561	8704.6375
1175.10432	10125.1375
1178.71056	11935.4375
1182.31434	13444.8375
1185.91565	13797.0375
1189.51451	13255.3375
1193.11091	12390.9375
1196.70485	11498.4375
1200.29634	10545.0375
1203.88538	9651.7375
1207.47197	8785.9375
1211.05612	8148.8375
1214.63782	7787.2375
1218.21708	7784.5375
1221.79391	7946.1375
1225.36829	8160.2375
1228.94024	8142.7375
1232.50976	7896.5375
1236.07685	7548.5375
1239.6415	7343.1375
1243.20374	7258.5375
1246.76355	7228.7375
1250.32093	7263.5375
1253.8759	7417.2375
1257.42845	7714.6375
1260.97859	8112.0375
1264.52631	8549.9375
1268.07163	8964.4375
1271.61453	9296.6375
1275.15503	9518.9375
1278.69312	9795.6375
1282.22882	10169.9375
1285.76211	10830.9375
1289.29301	11629.0375
1292.82151	12498.0375
1296.34761	13444.5375
1299.87133	14621.9375
1303.39266	16214.3375
1306.9116	18146.7375
1310.42815	19924.6375
1313.94233	20545.3375
1317.45412	19598.5375
1320.96354	17737.2375
1324.47058	15752.1375
1327.97525	14124.1375
1331.47754	13016.1375
1334.97747	12523.1375
1338.47502	12496.8375
1341.97022	12830.3375
1345.46305	13494.8375
1348.95352	14603.9375
1352.44163	16120.3375
1355.92738	18240.0375
1359.41078	21082.1375
1362.89183	23338.8375
1366.37053	22545.9375
1369.84688	18808.6375
1373.32088	14926.3375
1376.79254	12702.8375
1380.26186	11730.0375
1383.72883	11158.3375
1387.19347	10559.8375
1390.65578	10037.4375
1394.11575	9789.4375
1397.57339	9761.0375
1401.0287	9729.6375
1404.48168	9679.7375
1407.93234	9569.1375
1411.38068	9465.7375
1414.82669	9393.2375
1418.27039	9267.2375
1421.71177	9044.9375
1425.15083	8780.2375
1428.58758	8695.3375
1432.02203	8807.3375
1435.45416	9024.2375
1438.88399	9131.6375
1442.31151	9157.0375
1445.73673	9146.3375
1449.15965	9156.8375
1452.58027	9035.9375
1455.9986	8870.5375
1459.41463	8861.6375
1462.82837	9059.8375
1466.23982	9478.9375
1469.64898	9918.3375
1473.05586	10264.7375
1476.46045	10539.2375
1479.86276	10751.4375
1483.26279	11027.3375
1486.66054	11396.9375
1490.05602	11996.6375
1493.44922	12801.5375
1496.84016	13761.1375
1500.22882	15036.3375
1503.61521	16634.9375
1506.99934	18266.1375
1510.38121	19143.4375
1513.76081	18547.8375
1517.13816	16766.1375
1520.51324	14663.6375
1523.88607	13071.3375
1527.25665	12220.9375
1530.62498	11829.5375
1533.99105	11496.6375
1537.35488	11058.4375
1540.71647	10530.9375
1544.07581	10019.1375
1547.4329	9543.2375
1550.78776	9191.1375
1554.14038	8975.8375
1557.49077	8929.3375
1560.83892	9110.4375
1564.18484	9540.2375
1567.52853	10129.6375
1570.86999	10612.5375
1574.20922	10884.1375
1577.54624	10731.5375
1580.88103	10061.6375
1584.2136	9334.6375
1587.54395	9143.6375
1590.87208	9626.2375
1594.19801	10641.5375
1597.52172	11717.9375
1600.84321	12135.0375
1604.16251	11519.4375
1607.47959	10364.1375
1610.79447	9109.0375
1614.10715	8010.6375
1617.41763	7208.2375
1620.7259	6731.6375
1624.03199	6522.9375
1627.33587	6602.0375
1630.63757	6976.0375
1633.93707	7729.9375
1637.23439	9126.4375
1640.52951	11236.0375
1643.82246	13934.7375
1647.11321	16159.1375
1650.40179	16612.3375
1653.68819	14819.3375
1656.97241	11908.7375
1660.25446	9189.2375
1663.53433	7378.8375
1666.81203	6279.0375
1670.08756	5628.4375
1673.36092	5271.4375
1676.63211	5030.1375
1679.90115	4847.5375
1683.16801	4702.4375
1686.43272	4638.0375
1689.69527	4536.2375
1692.95567	4481.8375
1696.2139	4446.8375
1699.46999	4399.0375
1702.72392	4372.9375
1705.97571	4331.3375
1709.22535	4308.6375
1712.47284	4306.3375
1715.71819	4304.2375
1718.96139	4250.3375
1722.20246	4227.9375
1725.44139	4191.2375
1728.67818	4127.3375
1731.91284	4074.2375
1735.14537	4023.6375
1738.37576	4009.1375
1741.60403	3993.4375
1744.83017	3966.3375
1748.05418	3947.7375
1751.27607	3956.8375
1754.49584	3949.2375
1757.71349	3932.6375
1760.92903	3910.3375
1764.14244	3903.7375
1767.35375	3861.5375
1770.56294	3843.0375
1773.77002	3811.3375
1776.97499	3784.5375
1780.17785	3751.7375
1783.37861	3735.6375
1786.57727	3712.4375
1789.77382	3684.7375
1792.96828	3666.7375
1796.16064	3648.1375
1799.3509	3632.2375
1802.53907	3621.2375
1805.72514	3606.2375
1808.90913	3601.6375
1812.09102	3563.7375
1815.27083	3547.3375
1818.44856	3544.9375
1821.6242	3536.2375
1824.79776	3527.2375
1827.96924	3512.0375
1831.13864	3493.4375
1834.30597	3485.3375
1837.47122	3486.5375
1840.6344	3485.4375
1843.7955	3470.9375
1846.95454	3472.7375
1850.11151	3471.7375
1853.26642	3454.8375
1856.41926	3441.7375
1859.57004	3442.4375
1862.71876	3445.5375
1865.86542	3432.2375
1869.01003	3442.7375
1872.15258	3433.4375
1875.29308	3418.0375
1878.43152	3421.6375
1881.56792	3420.6375
1884.70227	3409.8375
1887.83457	3409.8375
1890.96482	3412.3375
1894.09304	3400.2375
1897.21921	3401.1375
1900.34335	3392.5375
1903.46544	3398.1375
1906.58551	3400.1375
1909.70353	3386.3375
1912.81953	3374.3375
1915.93349	3362.8375
1919.04543	3345.2375
1922.15534	3334.9375
1925.26322	3326.4375
1928.36908	3324.3375
1931.47292	3297.0375
1934.57473	3293.0375
1937.67453	3275.9375
1940.77232	3247.5375
1943.86808	3238.3375
1946.96184	3228.9375
1950.05358	3215.8375
1953.14331	3203.2375
1956.23103	3199.8375
1959.31675	3194.3375
1962.40046	3197.4375
1965.48217	3173.0375
1968.56188	3171.3375
1971.63959	3155.9375
1974.7153	3152.2375
1977.78901	3116.6375
1980.86073	3118.6375
1983.93046	3098.7375
1986.99819	3084.3375
1990.06394	3069.8375
1993.1277	3061.2375
1996.18947	3040.2375
1999.24925	3047.7375
2002.30706	3015.7375
2005.36288	2994.1375
2008.41672	2994.3375
2011.46859	2977.3375
2014.51848	2971.2375
2017.56639	2958.7375
2020.61233	2968.3375
2023.6563	2940.4375
2026.6983	2920.4375
2029.73833	2925.6375
2032.7764	2909.0375
2035.8125	2906.1375
2038.84664	2899.2375
2041.87881	2903.4375
2044.90903	2901.9375
2047.93729	2881.8375
2050.96359	2873.7375
2053.98794	2886.7375
2057.01034	2872.4375
2060.03078	2867.9375
2063.04927	2865.6375
2066.06582	2858.0375
2069.08042	2840.5375
2072.09307	2849.3375
2075.10378	2846.4375
2078.11255	2854.6375
2081.11938	2841.3375
2084.12426	2842.7375
2087.12722	2835.9375
2090.12824	2845.9375
2093.12732	2849.5375
2096.12447	2862.9375
2099.11969	2844.1375
2102.11299	2848.2375
2105.10435	2854.1375
2108.09379	2840.3375
2111.08131	2840.5375
2114.0669	2851.5375
2117.05057	2868.7375
2120.03233	2854.2375
2123.01216	2862.0375
2125.99008	2867.6375
2128.96609	2862.6375
2131.94018	2863.4375
2134.91236	2851.3375
2137.88263	2857.8375
2140.851	2855.3375
2143.81746	2850.1375
2146.78201	2838.1375
2149.74466	2830.6375
2152.7054	2818.1375
2155.66425	2797.5375
2158.6212	2789.7375
2161.57625	2794.8375
2164.52941	2784.9375
2167.48067	2791.6375
2170.43004	2772.8375
2173.37752	2756.5375
2176.32311	2765.4375
2179.26681	2767.4375
2182.20863	2776.3375
2185.14856	2761.5375
2188.08661	2770.2375
2191.02278	2761.9375
2193.95707	2763.9375
2196.88948	2754.4375
2199.82001	2750.6375
2202.74867	2743.0375
2205.67545	2742.6375
2208.60037	2722.2375
2211.52341	2730.9375
2214.44458	2711.3375
2217.36388	2703.7375
2220.28132	2675.0375
2223.1969	2679.0375
2226.11061	2673.2375
2229.02246	2676.2375
2231.93245	2676.3375
2234.84058	2671.4375
2237.74686	2659.8375
2240.65128	2676.8375
2243.55385	2675.5375
2246.45456	2678.4375
2249.35343	2668.8375
2252.25044	2666.2375
2255.14561	2659.7375
2258.03893	2656.7375
2260.93041	2648.2375
2263.82004	2642.6375
2266.70783	2630.2375
2269.59378	2625.8375
2272.4779	2610.8375
2275.36017	2591.2375
2278.24061	2594.0375
2281.11922	2587.3375
2283.996	2574.1375
2286.87094	2573.9375
2289.74405	2563.4375
2292.61534	2551.9375
2295.4848	2547.2375
2298.35243	2542.1375
2301.21824	2529.2375
2304.08223	2535.6375
2306.94439	2547.8375
2309.80474	2532.7375
2312.66327	2519.0375
2315.51999	2530.0375
2318.37489	2527.6375
2321.22797	2505.9375
2324.07925	2500.0375
2326.92871	2504.5375
2329.77637	2507.3375
2332.62222	2499.6375
2335.46626	2511.0375
2338.3085	2492.8375
2341.14893	2499.9375
2343.98756	2501.3375
2346.8244	2495.3375
2349.65943	2499.3375
2352.49267	2510.1375
2355.32411	2511.2375
2358.15376	2508.0375
2360.98161	2510.6375
2363.80768	2515.6375
2366.63195	2533.3375
2369.45444	2522.0375
2372.27514	2526.0375
2375.09405	2518.3375
2377.91118	2511.6375
2380.72652	2508.2375
2383.54009	2499.8375
2386.35187	2490.6375
2389.16188	2477.8375
2391.97011	2465.8375
2394.77657	2450.6375
2397.58125	2450.3375
2400.38416	2437.6375
2403.18529	2431.6375
2405.98466	2420.8375
2408.78226	2425.5375
2411.57809	2421.3375
2414.37216	2413.9375
2417.16446	2396.2375
2419.955	2402.8375
2422.74378	2400.6375
2425.5308	2397.7375
2428.31606	2399.4375
2431.09956	2401.0375
2433.88131	2400.7375
2436.6613	2402.5375
2439.43954	2407.5375
2442.21603	2394.8375
2444.99077	2393.4375
2447.76377	2396.3375
2450.53501	2404.2375
2453.30451	2396.7375
2456.07226	2411.0375
2458.83827	2410.4375
2461.60254	2412.0375
2464.36507	2404.6375
2467.12586	2405.3375
2469.88492	2402.1375
2472.64224	2396.0375
2475.39782	2409.7375
2478.15167	2412.7375
2480.90379	2419.6375
2483.65417	2429.8375
2486.40283	2435.6375
2489.14976	2439.1375
2491.89497	2448.4375
2494.63845	2438.4375
2497.3802	2443.1375
2500.12024	2439.0375
2502.85855	2438.7375
2505.59514	2426.3375
2508.33002	2413.1375
2511.06318	2400.2375
2513.79462	2383.4375
2516.52435	2387.0375
2519.25237	2368.8375
2521.97867	2360.3375
2524.70327	2360.1375
2527.42616	2346.8375
2530.14734	2342.9375
2532.86681	2342.8375
2535.58458	2357.9375
2538.30065	2343.1375
2541.01501	2357.7375
2543.72768	2351.8375
2546.43864	2356.8375
2549.14791	2348.5375
2551.85548	2351.7375
2554.56136	2346.4375
2557.26554	2348.0375
2559.96803	2333.2375
2562.66883	2329.9375
2565.36794	2333.0375
2568.06536	2323.8375
2570.7611	2321.5375
2573.45514	2309.8375
2576.14751	2316.1375
2578.83819	2308.0375
2581.52719	2296.0375
2584.21451	2309.5375
2586.90015	2305.0375
2589.58411	2312.6375
2592.2664	2308.0375
2594.94701	2298.6375
2597.62594	2307.6375
2600.30321	2303.2375
2602.9788	2300.9375
2605.65273	2311.3375
2608.32498	2308.4375
2610.99557	2300.2375
2613.66449	2291.8375
2616.33175	2298.3375
2618.99734	2306.2375
2621.66128	2311.2375
2624.32355	2292.8375
2626.98416	2289.7375
2629.64311	2282.6375
2632.30041	2289.2375
2634.95605	2281.6375
2637.61004	2281.5375
2640.26238	2281.7375
2642.91306	2271.4375
2645.56209	2279.3375
2648.20948	2276.3375
2650.85521	2266.8375
2653.4993	2271.3375
2656.14175	2278.3375
2658.78255	2290.5375
2661.42171	2287.7375
2664.05923	2280.5375
2666.6951	2295.2375
2669.32934	2309.6375
2671.96194	2293.9375
2674.59291	2302.7375
2677.22224	2302.1375
2679.84993	2297.8375
2682.476	2296.5375
2685.10043	2293.6375
2687.72324	2300.6375
2690.34441	2286.1375
2692.96396	2278.2375
2695.58188	2277.4375
2698.19818	2272.3375
2700.81285	2280.0375
2703.4259	2270.0375
2706.03733	2277.5375
2708.64714	2277.5375
2711.25533	2272.6375
2713.86191	2281.1375
2716.46687	2290.2375
2719.07021	2289.0375
2721.67194	2296.3375
2724.27206	2296.6375
2726.87057	2313.1375
2729.46747	2306.0375
2732.06276	2298.9375
2734.65644	2301.3375
2737.24852	2298.7375
2739.83899	2297.6375
2742.42786	2286.6375
2745.01513	2276.0375
2747.60079	2272.3375
2750.18486	2276.0375
2752.76733	2269.1375
2755.3482	2266.9375
2757.92747	2264.4375
2760.50515	2255.5375
2763.08123	2266.6375
2765.65573	2256.1375
2768.22863	2258.5375
2770.79994	2253.5375
2773.36967	2241.6375
2775.9378	2254.4375
2778.50435	2257.2375
2781.06932	2257.6375
2783.6327	2257.4375
2786.1945	2253.3375
2788.75471	2262.9375
2791.31335	2268.8375
2793.87041	2262.5375
2796.42589	2252.8375
2798.97979	2265.8375
2801.53212	2255.6375
2804.08288	2256.2375
2806.63206	2259.5375
2809.17967	2255.4375
2811.72571	2255.6375
2814.27018	2269.1375
2816.81308	2269.5375
2819.35442	2273.3375
2821.89419	2274.2375
2824.43239	2274.1375
2826.96904	2268.5375
2829.50412	2272.8375
2832.03763	2268.0375
2834.56959	2273.3375
2837.1	2269.6375
2839.62884	2260.4375
2842.15613	2282.5375
2844.68186	2269.9375
2847.20604	2287.3375
2849.72867	2286.4375
2852.24974	2291.2375
2854.76927	2294.5375
2857.28724	2303.1375
2859.80367	2308.3375
2862.31855	2308.2375
2864.83189	2322.3375
2867.34368	2335.9375
2869.85393	2342.5375
2872.36264	2343.5375
2874.8698	2341.9375
2877.37543	2352.9375
2879.87952	2342.0375
2882.38207	2344.2375
2884.88308	2346.9375
2887.38256	2352.6375
2889.88051	2357.0375
2892.37692	2368.8375
2894.8718	2368.6375
2897.36515	2381.0375
2899.85698	2392.3375
2902.34727	2403.2375
2904.83604	2416.7375
2907.32328	2430.9375
2909.809	2442.4375
2912.29319	2441.3375
2914.77587	2455.1375
2917.25702	2456.8375
2919.73665	2456.2375
2922.21476	2461.6375
2924.69136	2464.9375
2927.16644	2460.8375
2929.64	2455.0375
2932.11205	2455.8375
2934.58258	2444.5375
2937.05161	2446.3375
2939.51912	2427.8375
2941.98513	2437.5375
2944.44962	2429.3375
2946.91261	2410.7375
2949.37409	2402.1375
2951.83407	2397.6375
2954.29254	2387.4375
2956.74951	2382.6375
2959.20498	2365.8375
2961.65895	2355.7375
2964.11142	2348.7375
2966.56239	2308.5375
2969.01186	2310.8375
2971.45984	2288.2375
2973.90632	2280.6375
2976.35131	2272.6375
2978.7948	2244.2375
2981.23681	2254.8375
2983.67732	2232.8375
2986.11635	2218.2375
2988.55388	2198.1375
2990.98993	2199.5375
2993.4245	2205.4375
2995.85758	2189.1375
2998.28917	2181.3375
3000.71928	2166.1375
3003.14791	2169.3375
3005.57506	2170.3375
3008.00073	2168.6375
3010.42493	2123.1375
3012.84764	2149.6375
3015.26888	2141.5375
3017.68865	2129.4375
3020.10694	2129.6375
3022.52376	2126.2375
3024.9391	2118.0375
3027.35298	2115.2375
3029.76539	2114.8375
3032.17632	2102.5375
3034.5858	2097.5375
3036.9938	2101.4375
3039.40034	2099.8375
3041.80542	2096.8375
3044.20903	2089.3375
3046.61118	2084.8375
3049.01187	2092.1375
3051.4111	2096.8375
3053.80888	2092.3375
3056.20519	2096.3375
3058.60005	2099.5375
3060.99345	2102.6375
3063.3854	2092.0375
3065.7759	2076.9375
3068.16494	2081.5375
3070.55254	2062.9375
3072.93868	2063.9375
3075.32338	2055.6375
3077.70662	2042.9375
3080.08842	2053.4375
3082.46878	2038.5375
3084.84769	2047.0375
3087.22515	2047.5375
3089.60118	2055.2375
3091.97576	2060.4375
3094.3489	2038.7375
3096.72061	2057.2375
3099.09087	2059.9375
3101.4597	2062.1375
3103.82709	2064.7375
3106.19305	2064.7375
3108.55757	2076.8375
3110.92066	2075.5375
3113.28232	2076.1375
3115.64255	2080.5375
3118.00134	2072.0375
3120.35871	2076.2375
3122.71466	2080.7375
3125.06917	2079.6375
3127.42226	2082.7375
3129.77393	2082.2375
3132.12417	2090.0375
3134.47299	2091.3375
3136.82039	2098.1375
3139.16636	2097.2375
3141.51092	2106.3375
3143.85406	2103.1375
3146.19579	2112.7375
3148.53609	2123.7375
3150.87499	2121.8375
3153.21246	2128.9375
3155.54853	2127.3375
3157.88318	2133.6375
3160.21642	2156.0375
3162.54826	2146.7375
3164.87868	2150.6375
3167.2077	2161.0375
3169.5353	2174.3375
3171.86151	2167.9375
3174.18631	2167.5375
3176.5097	2181.6375
3178.83169	2173.3375
3181.15228	2172.8375
3183.47147	2188.8375
3185.78926	2196.3375
3188.10565	2171.9375
3190.42065	2178.0375
3192.73424	2194.6375
3195.04645	2192.9375
3197.35725	2196.2375
3199.66667	2203.9375
3201.97469	2197.4375
3204.28132	2214.2375
3206.58656	2211.9375
3208.8904	2211.1375
3211.19287	2226.9375
3213.49394	2237.3375
3215.79363	2239.7375
3218.09193	2251.0375
3220.38884	2248.2375
3222.68438	2251.2375
3224.97853	2250.6375
3227.2713	2256.1375
3229.56269	2257.6375
3231.8527	2253.3375
3234.14133	2244.0375
3236.42858	2235.4375
3238.71446	2236.1375
3240.99896	2243.2375
3243.28209	2243.3375
3245.56384	2240.2375
3247.84423	2236.9375
3250.12324	2221.4375
3252.40088	2227.7375
3254.67715	2219.0375
3256.95205	2219.6375
3259.22558	2230.7375
3261.49775	2228.9375
3263.76855	2219.0375
3266.03799	2216.1375
3268.30606	2233.4375
3270.57277	2228.0375
3272.83812	2229.7375
3275.10211	2221.5375
3277.36474	2218.0375
3279.62601	2218.0375
3281.88593	2218.6375
3284.14448	2230.1375
3286.40168	2216.8375
3288.65753	2219.4375
3290.91202	2238.7375
3293.16516	2229.8375
3295.41695	2232.3375
3297.66738	2209.9375
3299.91647	2218.6375
3302.16421	2201.2375
3304.4106	2188.1375
3306.65564	2172.4375
3308.89933	2156.4375
3311.14169	2147.1375
3313.38269	2126.7375
3315.62236	2116.6375
3317.86068	2102.1375
3320.09766	2094.5375
3322.3333	2073.0375
3324.5676	2062.0375
3326.80056	2038.4375
3329.03219	2028.0375
3331.26248	1.1375
3333.49143	1.0375
3335.71905	1.5375
