Data from AgNPs_UA_5uM_CRN_500uM_AS_RamanShift__1__12-58-43-819.txt Node

Date: Wed Aug 17 12:58:43 BST 2022
User: TCL
Spectrometer: QEP01345
Trigger mode: 4
Integration Time (sec): 7.000000E0
Scans to average: 10
Electric dark correction enabled: true
Nonlinearity correction enabled: false
Boxcar width: 0
XAxis mode: Raman Shifts
Number of Pixels in Spectrum: 1044
>>>>>Begin Spectral Data<<<<<
46.04893	0.625
50.45542	-0.075
54.85868	0.325
59.25871	0.125
63.6555	50.025
68.04907	51.925
72.43941	55.425
76.82654	65.225
81.21044	63.825
85.59113	68.525
89.96862	74.525
94.34289	76.425
98.71396	78.825
103.08183	83.325
107.4465	80.725
111.80798	83.425
116.16626	81.025
120.52136	86.025
124.87327	90.625
129.222	91.225
133.56755	90.725
137.90993	96.625
142.24913	100.725
146.58517	106.925
150.91804	116.125
155.24774	133.025
159.57429	153.925
163.89768	190.325
168.21792	233.025
172.53501	303.025
176.84895	410.325
181.15975	554.525
185.46741	772.525
189.77193	1083.325
194.07331	1482.725
198.37157	1959.025
202.6667	2483.825
206.9587	3031.025
211.24758	3641.825
215.53334	4268.325
219.81599	4927.625
224.09553	5732.325
228.37195	6679.525
232.64527	7774.425
236.91549	8959.625
241.18261	10099.025
245.44663	11019.625
249.70755	11553.225
253.96539	11731.325
258.22014	11556.825
262.4718	11169.025
266.72039	10674.025
270.96589	10058.825
275.20832	9399.525
279.44768	8707.625
283.68397	8014.725
287.91719	7425.425
292.14735	6843.625
296.37445	6354.125
300.59849	5932.825
304.81948	5593.425
309.03742	5307.425
313.25231	5097.625
317.46415	4941.425
321.67296	4789.225
325.87872	4678.325
330.08145	4594.825
334.28114	4526.625
338.47781	4489.525
342.67145	4451.225
346.86207	4411.125
351.04966	4374.825
355.23424	4324.925
359.4158	4291.625
363.59435	4241.925
367.76989	4195.925
371.94243	4149.925
376.11196	4092.325
380.27849	4079.325
384.44203	4036.825
388.60257	3981.725
392.76012	3966.825
396.91468	3948.925
401.06626	3929.325
405.21485	3900.625
409.36047	3895.225
413.50311	3876.625
417.64277	3858.925
421.77947	3873.325
425.9132	3877.725
430.04396	3891.425
434.17176	3892.625
438.2966	3905.825
442.41849	3917.125
446.53742	3941.025
450.6534	3944.925
454.76644	3961.225
458.87653	3959.925
462.98368	3962.125
467.08789	3971.825
471.18916	3961.125
475.2875	3970.125
479.38291	3978.725
483.4754	3959.925
487.56496	3954.625
491.6516	3959.525
495.73531	3960.125
499.81612	3960.525
503.89401	3968.825
507.96899	3939.725
512.04106	3936.925
516.11023	3915.625
520.1765	3917.725
524.23987	3914.125
528.30034	3917.725
532.35792	3913.325
536.41261	3942.225
540.46441	3929.625
544.51333	3938.325
548.55936	3939.625
552.60252	3955.125
556.64279	3974.925
560.6802	3957.425
564.71473	3990.525
568.7464	3995.725
572.7752	4019.825
576.80114	4023.825
580.82422	4025.725
584.84444	4028.825
588.86181	4027.225
592.87633	4089.025
596.888	4158.725
600.89682	4276.325
604.9028	4435.525
608.90594	4597.425
612.90624	4731.425
616.90371	4811.425
620.89834	4764.625
624.89015	4692.425
628.87913	4549.325
632.86528	4413.525
636.84862	4301.125
640.82913	4239.425
644.80683	4231.525
648.78172	4239.825
652.75379	4257.025
656.72306	4272.925
660.68952	4341.625
664.65319	4421.125
668.61405	4582.125
672.57211	4870.525
676.52738	5259.625
680.47986	5657.225
684.42955	5971.825
688.37646	6092.625
692.32058	6058.725
696.26192	5899.525
700.20048	5741.825
704.13626	5618.525
708.06928	5451.525
711.99952	5250.025
715.927	5074.025
719.85171	4914.325
723.77365	4826.325
727.69284	4758.625
731.60928	4709.225
735.52295	4676.625
739.43388	4599.625
743.34206	4570.725
747.24749	4529.625
751.15017	4535.925
755.05012	4543.925
758.94733	4555.025
762.8418	4561.025
766.73354	4546.625
770.62254	4564.025
774.50882	4562.225
778.39237	4528.725
782.27321	4516.025
786.15132	4496.625
790.02671	4484.325
793.89938	4486.725
797.76935	4502.225
801.6366	4526.225
805.50115	4522.125
809.36299	4519.625
813.22213	4551.725
817.07857	4547.725
820.93231	4564.025
824.78336	4570.525
828.63172	4587.425
832.47738	4594.625
836.32036	4588.925
840.16066	4595.925
843.99827	4607.825
847.8332	4633.225
851.66546	4645.225
855.49504	4659.025
859.32195	4704.925
863.1462	4740.325
866.96777	4783.625
870.78668	4841.525
874.60293	4877.425
878.41652	4933.225
882.22745	4970.125
886.03573	5005.525
889.84136	5021.625
893.64433	5091.625
897.44466	5149.525
901.24235	5230.725
905.0374	5304.925
908.8298	5398.925
912.61957	5448.125
916.40671	5495.425
920.19121	5540.825
923.97308	5559.525
927.75233	5547.425
931.52895	5502.825
935.30295	5452.825
939.07433	5391.025
942.84309	5328.325
946.60924	5245.925
950.37278	5183.525
954.13371	5146.025
957.89203	5149.825
961.64774	5111.525
965.40086	5087.425
969.15137	5053.725
972.89929	5005.225
976.64461	4949.125
980.38733	4924.625
984.12747	4886.225
987.86502	4861.525
991.59999	4853.525
995.33237	4858.625
999.06217	4859.025
1002.78939	4869.925
1006.51404	4853.725
1010.23611	4865.925
1013.95561	4890.925
1017.67255	4897.125
1021.38692	4893.525
1025.09872	4919.125
1028.80796	4946.925
1032.51465	4994.125
1036.21877	5064.925
1039.92035	5165.425
1043.61937	5342.825
1047.31584	5543.925
1051.00976	5684.125
1054.70114	5744.825
1058.38998	5673.825
1062.07627	5534.325
1065.76003	5336.625
1069.44126	5186.225
1073.11995	5023.325
1076.79611	4961.825
1080.46974	4891.925
1084.14085	4856.425
1087.80943	4819.325
1091.47549	4808.925
1095.13903	4802.125
1098.80005	4787.825
1102.45857	4783.025
1106.11456	4782.925
1109.76805	4778.225
1113.41903	4772.925
1117.06751	4773.625
1120.71348	4805.525
1124.35696	4797.025
1127.99793	4819.025
1131.63641	4841.625
1135.2724	4836.925
1138.90589	4833.625
1142.5369	4839.125
1146.16542	4823.725
1149.79145	4809.325
1153.415	4819.025
1157.03607	4810.325
1160.65467	4830.925
1164.27079	4838.125
1167.88443	4849.325
1171.49561	4859.525
1175.10432	4893.325
1178.71056	4921.725
1182.31434	4919.625
1185.91565	4942.125
1189.51451	4957.425
1193.11091	4960.925
1196.70485	4954.125
1200.29634	4922.225
1203.88538	4913.925
1207.47197	4909.425
1211.05612	4890.425
1214.63782	4867.225
1218.21708	4892.425
1221.79391	4927.425
1225.36829	4927.325
1228.94024	4966.025
1232.50976	4991.525
1236.07685	5007.425
1239.6415	5049.925
1243.20374	5090.925
1246.76355	5143.225
1250.32093	5183.425
1253.8759	5230.725
1257.42845	5264.325
1260.97859	5291.225
1264.52631	5302.325
1268.07163	5321.825
1271.61453	5343.725
1275.15503	5343.725
1278.69312	5385.425
1282.22882	5405.725
1285.76211	5447.325
1289.29301	5463.725
1292.82151	5470.425
1296.34761	5486.525
1299.87133	5537.825
1303.39266	5566.525
1306.9116	5570.625
1310.42815	5603.025
1313.94233	5606.425
1317.45412	5617.925
1320.96354	5628.025
1324.47058	5616.025
1327.97525	5609.325
1331.47754	5602.525
1334.97747	5586.325
1338.47502	5590.525
1341.97022	5596.425
1345.46305	5647.425
1348.95352	5665.625
1352.44163	5716.425
1355.92738	5754.725
1359.41078	5830.225
1362.89183	5888.925
1366.37053	5887.625
1369.84688	5892.425
1373.32088	5864.125
1376.79254	5833.025
1380.26186	5828.325
1383.72883	5786.525
1387.19347	5748.625
1390.65578	5726.025
1394.11575	5730.525
1397.57339	5717.225
1401.0287	5736.325
1404.48168	5754.125
1407.93234	5775.325
1411.38068	5820.925
1414.82669	5842.725
1418.27039	5852.125
1421.71177	5867.025
1425.15083	5827.925
1428.58758	5811.225
1432.02203	5800.025
1435.45416	5777.125
1438.88399	5725.325
1442.31151	5723.225
1445.73673	5710.025
1449.15965	5703.825
1452.58027	5689.225
1455.9986	5668.125
1459.41463	5642.225
1462.82837	5631.925
1466.23982	5598.525
1469.64898	5573.725
1473.05586	5545.625
1476.46045	5500.825
1479.86276	5442.525
1483.26279	5392.025
1486.66054	5352.025
1490.05602	5338.025
1493.44922	5327.225
1496.84016	5301.925
1500.22882	5290.225
1503.61521	5308.825
1506.99934	5304.225
1510.38121	5293.025
1513.76081	5281.925
1517.13816	5264.625
1520.51324	5235.225
1523.88607	5213.825
1527.25665	5194.625
1530.62498	5189.525
1533.99105	5186.625
1537.35488	5193.825
1540.71647	5215.225
1544.07581	5220.225
1547.4329	5208.725
1550.78776	5226.125
1554.14038	5228.925
1557.49077	5246.225
1560.83892	5251.225
1564.18484	5273.725
1567.52853	5251.825
1570.86999	5244.625
1574.20922	5243.425
1577.54624	5223.125
1580.88103	5224.025
1584.2136	5193.425
1587.54395	5197.225
1590.87208	5205.425
1594.19801	5224.725
1597.52172	5230.625
1600.84321	5216.525
1604.16251	5216.225
1607.47959	5204.925
1610.79447	5204.625
1614.10715	5178.025
1617.41763	5153.125
1620.7259	5143.725
1624.03199	5123.125
1627.33587	5113.525
1630.63757	5096.725
1633.93707	5098.425
1637.23439	5084.825
1640.52951	5082.325
1643.82246	5102.425
1647.11321	5111.225
1650.40179	5111.425
1653.68819	5116.825
1656.97241	5079.225
1660.25446	5077.525
1663.53433	5074.425
1666.81203	5041.425
1670.08756	5071.425
1673.36092	5090.625
1676.63211	5095.925
1679.90115	5115.325
1683.16801	5129.525
1686.43272	5150.525
1689.69527	5135.425
1692.95567	5153.525
1696.2139	5138.425
1699.46999	5146.725
1702.72392	5143.125
1705.97571	5127.925
1709.22535	5146.125
1712.47284	5125.425
1715.71819	5098.125
1718.96139	5072.625
1722.20246	5048.725
1725.44139	5065.825
1728.67818	5071.625
1731.91284	5092.925
1735.14537	5113.025
1738.37576	5174.225
1741.60403	5212.625
1744.83017	5282.925
1748.05418	5373.825
1751.27607	5497.325
1754.49584	5604.925
1757.71349	5686.425
1760.92903	5743.525
1764.14244	5767.725
1767.35375	5735.025
1770.56294	5642.625
1773.77002	5581.625
1776.97499	5493.625
1780.17785	5436.525
1783.37861	5378.025
1786.57727	5307.025
1789.77382	5266.725
1792.96828	5197.925
1796.16064	5131.225
1799.3509	5067.225
1802.53907	5011.525
1805.72514	4948.025
1808.90913	4888.225
1812.09102	4828.825
1815.27083	4791.925
1818.44856	4740.225
1821.6242	4715.125
1824.79776	4678.825
1827.96924	4637.325
1831.13864	4609.325
1834.30597	4572.025
1837.47122	4584.325
1840.6344	4574.925
1843.7955	4548.225
1846.95454	4538.125
1850.11151	4527.625
1853.26642	4519.525
1856.41926	4514.525
1859.57004	4493.625
1862.71876	4487.225
1865.86542	4490.925
1869.01003	4497.625
1872.15258	4502.125
1875.29308	4509.125
1878.43152	4518.725
1881.56792	4504.525
1884.70227	4499.625
1887.83457	4510.825
1890.96482	4506.225
1894.09304	4507.125
1897.21921	4511.525
1900.34335	4535.825
1903.46544	4543.425
1906.58551	4553.425
1909.70353	4584.325
1912.81953	4590.425
1915.93349	4624.225
1919.04543	4660.025
1922.15534	4695.125
1925.26322	4730.825
1928.36908	4842.225
1931.47292	4855.525
1934.57473	4843.225
1937.67453	4871.025
1940.77232	4857.525
1943.86808	4865.025
1946.96184	4850.625
1950.05358	4833.825
1953.14331	4780.225
1956.23103	4741.125
1959.31675	4687.725
1962.40046	4625.425
1965.48217	4580.125
1968.56188	4526.225
1971.63959	4462.525
1974.7153	4421.525
1977.78901	4379.425
1980.86073	4340.725
1983.93046	4315.325
1986.99819	4306.825
1990.06394	4291.625
1993.1277	4259.825
1996.18947	4239.725
1999.24925	4248.825
2002.30706	4217.425
2005.36288	4197.025
2008.41672	4197.325
2011.46859	4201.325
2014.51848	4185.025
2017.56639	4171.025
2020.61233	4167.825
2023.6563	4156.825
2026.6983	4139.525
2029.73833	4136.125
2032.7764	4124.025
2035.8125	4111.325
2038.84664	4111.325
2041.87881	4113.925
2044.90903	4111.125
2047.93729	4104.725
2050.96359	4124.425
2053.98794	4119.025
2057.01034	4130.025
2060.03078	4149.725
2063.04927	4155.625
2066.06582	4156.425
2069.08042	4161.825
2072.09307	4190.925
2075.10378	4188.925
2078.11255	4190.325
2081.11938	4208.525
2084.12426	4204.125
2087.12722	4211.825
2090.12824	4211.725
2093.12732	4233.425
2096.12447	4226.425
2099.11969	4203.525
2102.11299	4202.225
2105.10435	4194.925
2108.09379	4188.125
2111.08131	4186.525
2114.0669	4169.625
2117.05057	4180.825
2120.03233	4177.625
2123.01216	4176.725
2125.99008	4167.725
2128.96609	4165.225
2131.94018	4164.325
2134.91236	4156.725
2137.88263	4157.125
2140.851	4146.525
2143.81746	4152.325
2146.78201	4136.325
2149.74466	4143.925
2152.7054	4130.425
2155.66425	4120.925
2158.6212	4124.125
2161.57625	4131.925
2164.52941	4115.125
2167.48067	4113.625
2170.43004	4089.725
2173.37752	4097.925
2176.32311	4088.825
2179.26681	4097.225
2182.20863	4088.725
2185.14856	4092.425
2188.08661	4073.025
2191.02278	4085.725
2193.95707	4084.125
2196.88948	4071.325
2199.82001	4075.525
2202.74867	4076.525
2205.67545	4073.825
2208.60037	4060.425
2211.52341	4060.625
2214.44458	4059.225
2217.36388	4033.425
2220.28132	4014.525
2223.1969	4012.425
2226.11061	4012.225
2229.02246	4000.025
2231.93245	4001.125
2234.84058	3991.425
2237.74686	3995.825
2240.65128	3989.725
2243.55385	3975.925
2246.45456	3975.925
2249.35343	3970.325
2252.25044	3970.525
2255.14561	3960.725
2258.03893	3960.725
2260.93041	3952.825
2263.82004	3945.525
2266.70783	3927.025
2269.59378	3925.425
2272.4779	3923.525
2275.36017	3911.925
2278.24061	3908.325
2281.11922	3875.825
2283.996	3873.625
2286.87094	3891.225
2289.74405	3881.325
2292.61534	3868.825
2295.4848	3867.525
2298.35243	3861.325
2301.21824	3861.125
2304.08223	3862.725
2306.94439	3877.425
2309.80474	3850.925
2312.66327	3846.825
2315.51999	3835.125
2318.37489	3842.225
2321.22797	3819.225
2324.07925	3821.925
2326.92871	3807.125
2329.77637	3811.525
2332.62222	3812.325
2335.46626	3797.525
2338.3085	3800.325
2341.14893	3786.625
2343.98756	3786.725
2346.8244	3781.025
2349.65943	3783.025
2352.49267	3764.325
2355.32411	3771.725
2358.15376	3764.425
2360.98161	3785.125
2363.80768	3765.425
2366.63195	3777.025
2369.45444	3775.025
2372.27514	3758.925
2375.09405	3754.825
2377.91118	3747.825
2380.72652	3749.825
2383.54009	3753.425
2386.35187	3733.725
2389.16188	3742.225
2391.97011	3711.225
2394.77657	3711.125
2397.58125	3718.725
2400.38416	3717.325
2403.18529	3688.925
2405.98466	3688.825
2408.78226	3695.725
2411.57809	3686.825
2414.37216	3677.825
2417.16446	3661.825
2419.955	3671.725
2422.74378	3667.725
2425.5308	3667.725
2428.31606	3652.525
2431.09956	3665.425
2433.88131	3647.525
2436.6613	3656.825
2439.43954	3641.525
2442.21603	3642.225
2444.99077	3641.325
2447.76377	3636.925
2450.53501	3628.825
2453.30451	3624.125
2456.07226	3630.225
2458.83827	3624.825
2461.60254	3625.925
2464.36507	3608.225
2467.12586	3617.925
2469.88492	3602.325
2472.64224	3602.125
2475.39782	3604.125
2478.15167	3594.825
2480.90379	3596.425
2483.65417	3595.325
2486.40283	3604.425
2489.14976	3587.325
2491.89497	3589.625
2494.63845	3586.925
2497.3802	3594.425
2500.12024	3566.125
2502.85855	3571.425
2505.59514	3565.225
2508.33002	3566.625
2511.06318	3567.825
2513.79462	3554.725
2516.52435	3554.925
2519.25237	3542.625
2521.97867	3522.125
2524.70327	3542.425
2527.42616	3545.225
2530.14734	3530.325
2532.86681	3526.125
2535.58458	3528.225
2538.30065	3522.525
2541.01501	3516.325
2543.72768	3487.825
2546.43864	3509.125
2549.14791	3504.325
2551.85548	3500.225
2554.56136	3484.025
2557.26554	3486.225
2559.96803	3481.525
2562.66883	3465.125
2565.36794	3449.125
2568.06536	3448.225
2570.7611	3446.725
2573.45514	3440.125
2576.14751	3430.025
2578.83819	3426.825
2581.52719	3426.625
2584.21451	3436.125
2586.90015	3427.525
2589.58411	3426.325
2592.2664	3423.325
2594.94701	3405.225
2597.62594	3406.925
2600.30321	3396.625
2602.9788	3394.125
2605.65273	3391.825
2608.32498	3389.625
2610.99557	3387.925
2613.66449	3369.525
2616.33175	3367.925
2618.99734	3363.225
2621.66128	3357.625
2624.32355	3358.725
2626.98416	3353.525
2629.64311	3337.625
2632.30041	3339.725
2634.95605	3339.525
2637.61004	3322.125
2640.26238	3329.525
2642.91306	3324.225
2645.56209	3332.125
2648.20948	3324.825
2650.85521	3327.225
2653.4993	3326.125
2656.14175	3311.025
2658.78255	3310.225
2661.42171	3311.625
2664.05923	3310.025
2666.6951	3309.525
2669.32934	3312.125
2671.96194	3326.225
2674.59291	3308.325
2677.22224	3317.225
2679.84993	3311.725
2682.476	3317.125
2685.10043	3315.725
2687.72324	3294.025
2690.34441	3282.825
2692.96396	3307.125
2695.58188	3303.125
2698.19818	3304.725
2700.81285	3308.625
2703.4259	3297.725
2706.03733	3294.025
2708.64714	3308.825
2711.25533	3299.625
2713.86191	3289.625
2716.46687	3302.925
2719.07021	3289.425
2721.67194	3293.025
2724.27206	3304.325
2726.87057	3289.325
2729.46747	3298.225
2732.06276	3290.525
2734.65644	3299.025
2737.24852	3301.225
2739.83899	3287.325
2742.42786	3289.925
2745.01513	3267.525
2747.60079	3274.025
2750.18486	3262.525
2752.76733	3268.325
2755.3482	3268.925
2757.92747	3263.225
2760.50515	3261.125
2763.08123	3245.825
2765.65573	3250.425
2768.22863	3236.425
2770.79994	3231.825
2773.36967	3240.325
2775.9378	3234.625
2778.50435	3222.925
2781.06932	3220.225
2783.6327	3217.025
2786.1945	3190.925
2788.75471	3223.125
2791.31335	3213.025
2793.87041	3211.525
2796.42589	3198.425
2798.97979	3195.925
2801.53212	3196.325
2804.08288	3180.825
2806.63206	3184.625
2809.17967	3176.825
2811.72571	3173.225
2814.27018	3171.525
2816.81308	3161.525
2819.35442	3166.025
2821.89419	3141.525
2824.43239	3146.425
2826.96904	3129.325
2829.50412	3132.225
2832.03763	3123.025
2834.56959	3124.725
2837.1	3122.625
2839.62884	3124.825
2842.15613	3131.525
2844.68186	3126.125
2847.20604	3123.725
2849.72867	3124.725
2852.24974	3123.425
2854.76927	3120.525
2857.28724	3113.725
2859.80367	3106.925
2862.31855	3105.425
2864.83189	3102.825
2867.34368	3107.625
2869.85393	3112.725
2872.36264	3101.625
2874.8698	3112.725
2877.37543	3103.925
2879.87952	3092.125
2882.38207	3103.825
2884.88308	3120.125
2887.38256	3122.425
2889.88051	3122.225
2892.37692	3123.625
2894.8718	3129.525
2897.36515	3145.725
2899.85698	3152.725
2902.34727	3172.625
2904.83604	3170.725
2907.32328	3186.525
2909.809	3190.325
2912.29319	3195.025
2914.77587	3204.225
2917.25702	3228.425
2919.73665	3234.925
2922.21476	3236.125
2924.69136	3231.725
2927.16644	3259.225
2929.64	3252.225
2932.11205	3253.725
2934.58258	3258.225
2937.05161	3262.325
2939.51912	3289.025
2941.98513	3297.125
2944.44962	3299.525
2946.91261	3304.525
2949.37409	3321.525
2951.83407	3328.925
2954.29254	3330.825
2956.74951	3322.825
2959.20498	3295.825
2961.65895	3283.225
2964.11142	3268.925
2966.56239	3255.025
2969.01186	3229.625
2971.45984	3217.125
2973.90632	3200.525
2976.35131	3184.425
2978.7948	3177.525
2981.23681	3176.325
2983.67732	3160.525
2986.11635	3140.925
2988.55388	3144.625
2990.98993	3137.525
2993.4245	3124.525
2995.85758	3110.625
2998.28917	3112.525
3000.71928	3127.025
3003.14791	3113.825
3005.57506	3113.425
3008.00073	3106.525
3010.42493	3101.225
3012.84764	3101.525
3015.26888	3101.025
3017.68865	3079.725
3020.10694	3077.525
3022.52376	3066.825
3024.9391	3076.225
3027.35298	3077.725
3029.76539	3067.425
3032.17632	3068.425
3034.5858	3074.025
3036.9938	3062.025
3039.40034	3071.525
3041.80542	3067.925
3044.20903	3054.725
3046.61118	3066.725
3049.01187	3053.025
3051.4111	3038.225
3053.80888	3040.925
3056.20519	3034.825
3058.60005	3030.825
3060.99345	3036.425
3063.3854	3032.325
3065.7759	3023.925
3068.16494	3016.725
3070.55254	3015.825
3072.93868	2993.425
3075.32338	3005.725
3077.70662	3001.825
3080.08842	3010.525
3082.46878	3016.425
3084.84769	3008.425
3087.22515	3025.625
3089.60118	3014.925
3091.97576	3040.725
3094.3489	3043.825
3096.72061	3047.825
3099.09087	3065.125
3101.4597	3069.325
3103.82709	3082.625
3106.19305	3076.625
3108.55757	3080.925
3110.92066	3094.525
3113.28232	3092.825
3115.64255	3093.925
3118.00134	3105.225
3120.35871	3103.425
3122.71466	3102.325
3125.06917	3093.925
3127.42226	3109.425
3129.77393	3118.525
3132.12417	3127.825
3134.47299	3118.325
3136.82039	3136.125
3139.16636	3138.625
3141.51092	3146.925
3143.85406	3153.225
3146.19579	3163.325
3148.53609	3160.125
3150.87499	3171.725
3153.21246	3185.625
3155.54853	3207.325
3157.88318	3210.925
3160.21642	3233.825
3162.54826	3228.925
3164.87868	3247.425
3167.2077	3255.125
3169.5353	3258.525
3171.86151	3271.325
3174.18631	3271.225
3176.5097	3283.025
3178.83169	3291.625
3181.15228	3288.525
3183.47147	3287.225
3185.78926	3293.925
3188.10565	3297.525
3190.42065	3305.725
3192.73424	3318.025
3195.04645	3318.525
3197.35725	3322.825
3199.66667	3320.025
3201.97469	3330.225
3204.28132	3322.325
3206.58656	3341.925
3208.8904	3347.925
3211.19287	3357.525
3213.49394	3357.225
3215.79363	3363.725
3218.09193	3363.625
3220.38884	3382.425
3222.68438	3392.225
3224.97853	3388.825
3227.2713	3391.225
3229.56269	3394.125
3231.8527	3407.525
3234.14133	3397.925
3236.42858	3392.725
3238.71446	3393.025
3240.99896	3383.425
3243.28209	3396.325
3245.56384	3377.825
3247.84423	3377.425
3250.12324	3378.325
3252.40088	3378.525
3254.67715	3384.325
3256.95205	3368.125
3259.22558	3394.225
3261.49775	3401.625
3263.76855	3381.225
3266.03799	3400.525
3268.30606	3393.025
3270.57277	3400.625
3272.83812	3394.125
3275.10211	3384.625
3277.36474	3372.625
3279.62601	3383.425
3281.88593	3363.425
3284.14448	3371.625
3286.40168	3372.325
3288.65753	3371.925
3290.91202	3369.925
3293.16516	3365.725
3295.41695	3357.225
3297.66738	3350.125
3299.91647	3319.125
3302.16421	3309.425
3304.4106	3286.925
3306.65564	3247.025
3308.89933	3227.625
3311.14169	3207.825
3313.38269	3194.725
3315.62236	3164.625
3317.86068	3136.925
3320.09766	3116.325
3322.3333	3083.325
3324.5676	3075.725
3326.80056	3028.625
3329.03219	3008.025
3331.26248	0.725
3333.49143	-0.675
3335.71905	-2.075
