Data from AgNPs_UA_20uM_CRN_500uM_AS_RamanShift__16__14-42-11-516.txt Node

Date: Wed Aug 17 14:42:11 BST 2022
User: TCL
Spectrometer: QEP01345
Trigger mode: 4
Integration Time (sec): 7.000000E0
Scans to average: 10
Electric dark correction enabled: true
Nonlinearity correction enabled: false
Boxcar width: 0
XAxis mode: Raman Shifts
Number of Pixels in Spectrum: 1044
>>>>>Begin Spectral Data<<<<<
46.04893	-0.3625
50.45542	-0.8625
54.85868	-1.8625
59.25871	0.2375
63.6555	31.5375
68.04907	31.2375
72.43941	36.7375
76.82654	40.2375
81.21044	41.1375
85.59113	43.2375
89.96862	44.8375
94.34289	49.9375
98.71396	51.1375
103.08183	50.6375
107.4465	51.7375
111.80798	51.3375
116.16626	52.3375
120.52136	52.8375
124.87327	53.8375
129.222	48.3375
133.56755	50.9375
137.90993	49.8375
142.24913	55.7375
146.58517	55.8375
150.91804	56.9375
155.24774	59.0375
159.57429	65.5375
163.89768	74.2375
168.21792	92.5375
172.53501	114.4375
176.84895	153.0375
181.15975	198.2375
185.46741	273.2375
189.77193	367.0375
194.07331	488.9375
198.37157	620.9375
202.6667	767.7375
206.9587	910.6375
211.24758	1061.0375
215.53334	1210.5375
219.81599	1371.5375
224.09553	1546.6375
228.37195	1731.5375
232.64527	1936.3375
236.91549	2133.9375
241.18261	2342.3375
245.44663	2508.9375
249.70755	2638.7375
253.96539	2751.8375
258.22014	2843.7375
262.4718	2894.4375
266.72039	2938.1375
270.96589	2927.8375
275.20832	2901.2375
279.44768	2819.6375
283.68397	2769.2375
287.91719	2706.3375
292.14735	2685.9375
296.37445	2688.8375
300.59849	2709.6375
304.81948	2776.0375
309.03742	2799.5375
313.25231	2790.0375
317.46415	2717.6375
321.67296	2630.9375
325.87872	2550.4375
330.08145	2511.5375
334.28114	2530.7375
338.47781	2562.0375
342.67145	2612.6375
346.86207	2670.4375
351.04966	2752.2375
355.23424	2843.5375
359.4158	2937.6375
363.59435	2982.8375
367.76989	3028.5375
371.94243	3037.3375
376.11196	3052.2375
380.27849	3059.8375
384.44203	3050.7375
388.60257	3028.5375
392.76012	3042.8375
396.91468	3064.1375
401.06626	3099.3375
405.21485	3132.3375
409.36047	3089.0375
413.50311	3022.6375
417.64277	2950.7375
421.77947	2904.0375
425.9132	2897.3375
430.04396	2897.9375
434.17176	2924.7375
438.2966	2942.8375
442.41849	2990.4375
446.53742	3049.8375
450.6534	3082.1375
454.76644	3115.7375
458.87653	3133.5375
462.98368	3135.9375
467.08789	3122.6375
471.18916	3087.7375
475.2875	3061.1375
479.38291	3035.0375
483.4754	3023.3375
487.56496	3004.6375
491.6516	3007.1375
495.73531	3007.9375
499.81612	3015.2375
503.89401	3032.7375
507.96899	3057.9375
512.04106	3076.2375
516.11023	3086.9375
520.1765	3119.6375
524.23987	3116.2375
528.30034	3097.8375
532.35792	3073.2375
536.41261	3075.5375
540.46441	3052.2375
544.51333	3024.9375
548.55936	3017.9375
552.60252	3030.5375
556.64279	3068.5375
560.6802	3072.1375
564.71473	3085.2375
568.7464	3135.6375
572.7752	3144.5375
576.80114	3109.1375
580.82422	3081.6375
584.84444	3081.3375
588.86181	3077.7375
592.87633	3109.5375
596.888	3155.6375
600.89682	3242.0375
604.9028	3492.5375
608.90594	4061.4375
612.90624	4656.2375
616.90371	4390.9375
620.89834	3559.2375
624.89015	3192.9375
628.87913	3145.3375
632.86528	3156.5375
636.84862	3228.2375
640.82913	3214.4375
644.80683	3165.4375
648.78172	3112.7375
652.75379	3124.0375
656.72306	3189.2375
660.68952	3273.9375
664.65319	3239.9375
668.61405	3173.6375
672.57211	3168.7375
676.52738	3220.4375
680.47986	3247.4375
684.42955	3227.5375
688.37646	3197.8375
692.32058	3167.4375
696.26192	3162.4375
700.20048	3170.8375
704.13626	3175.6375
708.06928	3143.9375
711.99952	3133.3375
715.927	3114.7375
719.85171	3131.8375
723.77365	3140.8375
727.69284	3134.0375
731.60928	3133.9375
735.52295	3133.5375
739.43388	3135.2375
743.34206	3134.3375
747.24749	3137.1375
751.15017	3130.4375
755.05012	3160.0375
758.94733	3228.0375
762.8418	3411.9375
766.73354	3754.6375
770.62254	4080.9375
774.50882	4255.0375
778.39237	4107.5375
782.27321	3764.1375
786.15132	3449.1375
790.02671	3244.9375
793.89938	3150.9375
797.76935	3105.6375
801.6366	3103.8375
805.50115	3075.1375
809.36299	3072.7375
813.22213	3050.6375
817.07857	3048.9375
820.93231	3038.2375
824.78336	3040.8375
828.63172	3039.8375
832.47738	3048.2375
836.32036	3030.5375
840.16066	3017.8375
843.99827	3009.9375
847.8332	3013.5375
851.66546	3018.7375
855.49504	3017.9375
859.32195	3024.4375
863.1462	3040.5375
866.96777	3043.2375
870.78668	3047.2375
874.60293	3056.4375
878.41652	3061.0375
882.22745	3076.1375
886.03573	3081.9375
889.84136	3073.2375
893.64433	3064.1375
897.44466	3043.0375
901.24235	3041.6375
905.0374	3034.3375
908.8298	3014.9375
912.61957	3006.1375
916.40671	2993.5375
920.19121	2998.4375
923.97308	3019.9375
927.75233	3046.1375
931.52895	3061.5375
935.30295	3050.8375
939.07433	3009.1375
942.84309	2972.4375
946.60924	2955.9375
950.37278	2926.2375
954.13371	2911.5375
957.89203	2909.4375
961.64774	2903.1375
965.40086	2891.8375
969.15137	2886.1375
972.89929	2879.9375
976.64461	2859.2375
980.38733	2874.4375
984.12747	2865.8375
987.86502	2869.8375
991.59999	2870.1375
995.33237	2887.2375
999.06217	2911.7375
1002.78939	2935.5375
1006.51404	2968.8375
1010.23611	2988.5375
1013.95561	3010.0375
1017.67255	3013.7375
1021.38692	3003.9375
1025.09872	2983.4375
1028.80796	2948.7375
1032.51465	2953.4375
1036.21877	2957.2375
1039.92035	2983.5375
1043.61937	2977.4375
1047.31584	2998.7375
1051.00976	2998.8375
1054.70114	3005.6375
1058.38998	3003.7375
1062.07627	2994.4375
1065.76003	2991.5375
1069.44126	3005.3375
1073.11995	3003.4375
1076.79611	3034.0375
1080.46974	3072.5375
1084.14085	3106.1375
1087.80943	3142.2375
1091.47549	3160.9375
1095.13903	3130.2375
1098.80005	3089.0375
1102.45857	3065.7375
1106.11456	3041.1375
1109.76805	3054.7375
1113.41903	3084.8375
1117.06751	3145.1375
1120.71348	3215.9375
1124.35696	3305.5375
1127.99793	3357.1375
1131.63641	3364.3375
1135.2724	3288.6375
1138.90589	3203.2375
1142.5369	3140.2375
1146.16542	3087.8375
1149.79145	3073.2375
1153.415	3038.0375
1157.03607	3057.8375
1160.65467	3078.1375
1164.27079	3133.3375
1167.88443	3223.2375
1171.49561	3361.3375
1175.10432	3563.0375
1178.71056	3883.8375
1182.31434	4148.1375
1185.91565	4227.2375
1189.51451	4164.7375
1193.11091	3999.0375
1196.70485	3821.4375
1200.29634	3677.0375
1203.88538	3548.8375
1207.47197	3404.1375
1211.05612	3277.3375
1214.63782	3184.8375
1218.21708	3147.5375
1221.79391	3136.3375
1225.36829	3130.4375
1228.94024	3122.9375
1232.50976	3119.3375
1236.07685	3129.2375
1239.6415	3126.3375
1243.20374	3135.7375
1246.76355	3154.5375
1250.32093	3167.6375
1253.8759	3184.9375
1257.42845	3230.4375
1260.97859	3276.4375
1264.52631	3343.8375
1268.07163	3380.5375
1271.61453	3451.4375
1275.15503	3486.9375
1278.69312	3522.2375
1282.22882	3527.6375
1285.76211	3558.3375
1289.29301	3640.1375
1292.82151	3711.7375
1296.34761	3821.8375
1299.87133	3965.7375
1303.39266	4200.5375
1306.9116	4514.2375
1310.42815	4838.6375
1313.94233	4935.4375
1317.45412	4743.0375
1320.96354	4466.4375
1324.47058	4178.7375
1327.97525	3958.4375
1331.47754	3791.2375
1334.97747	3720.9375
1338.47502	3726.4375
1341.97022	3814.9375
1345.46305	3981.0375
1348.95352	4236.7375
1352.44163	4552.2375
1355.92738	4950.4375
1359.41078	5475.5375
1362.89183	5940.3375
1366.37053	5775.3375
1369.84688	5053.4375
1373.32088	4358.7375
1376.79254	3894.8375
1380.26186	3631.4375
1383.72883	3478.7375
1387.19347	3367.8375
1390.65578	3242.6375
1394.11575	3170.5375
1397.57339	3104.5375
1401.0287	3083.0375
1404.48168	3060.8375
1407.93234	3045.5375
1411.38068	3066.2375
1414.82669	3079.2375
1418.27039	3102.1375
1421.71177	3091.4375
1425.15083	3062.4375
1428.58758	3042.7375
1432.02203	3055.4375
1435.45416	3042.2375
1438.88399	3058.4375
1442.31151	3039.8375
1445.73673	3058.4375
1449.15965	3053.0375
1452.58027	3054.5375
1455.9986	3048.6375
1459.41463	3057.6375
1462.82837	3094.8375
1466.23982	3132.0375
1469.64898	3182.7375
1473.05586	3212.0375
1476.46045	3236.4375
1479.86276	3258.9375
1483.26279	3292.3375
1486.66054	3344.0375
1490.05602	3425.2375
1493.44922	3578.8375
1496.84016	3794.9375
1500.22882	4145.7375
1503.61521	4626.4375
1506.99934	5120.1375
1510.38121	5441.2375
1513.76081	5409.9375
1517.13816	4986.1375
1520.51324	4431.2375
1523.88607	3961.4375
1527.25665	3676.1375
1530.62498	3533.3375
1533.99105	3425.4375
1537.35488	3368.7375
1540.71647	3306.2375
1544.07581	3283.2375
1547.4329	3267.4375
1550.78776	3265.8375
1554.14038	3289.5375
1557.49077	3320.8375
1560.83892	3359.5375
1564.18484	3431.2375
1567.52853	3533.2375
1570.86999	3623.9375
1574.20922	3687.3375
1577.54624	3664.2375
1580.88103	3506.7375
1584.2136	3333.6375
1587.54395	3197.7375
1590.87208	3178.0375
1594.19801	3237.3375
1597.52172	3341.8375
1600.84321	3376.8375
1604.16251	3324.3375
1607.47959	3242.3375
1610.79447	3152.0375
1614.10715	3048.4375
1617.41763	2944.8375
1620.7259	2876.1375
1624.03199	2838.1375
1627.33587	2821.5375
1630.63757	2844.6375
1633.93707	2914.7375
1637.23439	3021.3375
1640.52951	3221.5375
1643.82246	3512.6375
1647.11321	3824.9375
1650.40179	4036.9375
1653.68819	3945.6375
1656.97241	3603.2375
1660.25446	3226.0375
1663.53433	2973.7375
1666.81203	2799.8375
1670.08756	2701.2375
1673.36092	2653.8375
1676.63211	2595.9375
1679.90115	2565.9375
1683.16801	2536.0375
1686.43272	2509.5375
1689.69527	2503.6375
1692.95567	2483.8375
1696.2139	2479.3375
1699.46999	2466.9375
1702.72392	2455.9375
1705.97571	2442.6375
1709.22535	2432.5375
1712.47284	2426.8375
1715.71819	2409.6375
1718.96139	2405.3375
1722.20246	2397.8375
1725.44139	2389.4375
1728.67818	2369.9375
1731.91284	2362.9375
1735.14537	2356.0375
1738.37576	2348.9375
1741.60403	2346.7375
1744.83017	2359.7375
1748.05418	2351.1375
1751.27607	2350.9375
1754.49584	2350.3375
1757.71349	2368.8375
1760.92903	2359.5375
1764.14244	2343.1375
1767.35375	2324.8375
1770.56294	2304.0375
1773.77002	2288.6375
1776.97499	2284.5375
1780.17785	2277.3375
1783.37861	2258.3375
1786.57727	2244.0375
1789.77382	2233.3375
1792.96828	2221.6375
1796.16064	2210.3375
1799.3509	2195.8375
1802.53907	2208.6375
1805.72514	2194.1375
1808.90913	2177.0375
1812.09102	2169.5375
1815.27083	2179.3375
1818.44856	2164.7375
1821.6242	2151.1375
1824.79776	2159.0375
1827.96924	2157.1375
1831.13864	2136.0375
1834.30597	2142.1375
1837.47122	2136.6375
1840.6344	2134.3375
1843.7955	2125.2375
1846.95454	2123.4375
1850.11151	2128.2375
1853.26642	2123.8375
1856.41926	2112.0375
1859.57004	2108.6375
1862.71876	2099.7375
1865.86542	2108.7375
1869.01003	2107.5375
1872.15258	2111.6375
1875.29308	2109.9375
1878.43152	2093.8375
1881.56792	2092.1375
1884.70227	2097.5375
1887.83457	2098.4375
1890.96482	2085.1375
1894.09304	2073.5375
1897.21921	2075.1375
1900.34335	2071.2375
1903.46544	2073.2375
1906.58551	2077.2375
1909.70353	2080.8375
1912.81953	2064.3375
1915.93349	2059.6375
1919.04543	2051.2375
1922.15534	2045.9375
1925.26322	2052.7375
1928.36908	2050.4375
1931.47292	2037.5375
1934.57473	2048.1375
1937.67453	2020.2375
1940.77232	2026.0375
1943.86808	2008.4375
1946.96184	2006.7375
1950.05358	2006.6375
1953.14331	1998.5375
1956.23103	1997.0375
1959.31675	2000.3375
1962.40046	1981.8375
1965.48217	1981.5375
1968.56188	1967.8375
1971.63959	1971.8375
1974.7153	1948.6375
1977.78901	1953.7375
1980.86073	1953.9375
1983.93046	1944.4375
1986.99819	1944.7375
1990.06394	1937.4375
1993.1277	1926.3375
1996.18947	1917.1375
1999.24925	1910.6375
2002.30706	1899.7375
2005.36288	1890.0375
2008.41672	1890.7375
2011.46859	1886.9375
2014.51848	1880.8375
2017.56639	1883.8375
2020.61233	1871.7375
2023.6563	1870.2375
2026.6983	1864.4375
2029.73833	1849.0375
2032.7764	1857.7375
2035.8125	1841.6375
2038.84664	1840.7375
2041.87881	1836.7375
2044.90903	1833.6375
2047.93729	1825.3375
2050.96359	1825.9375
2053.98794	1821.2375
2057.01034	1827.6375
2060.03078	1825.2375
2063.04927	1818.1375
2066.06582	1818.1375
2069.08042	1821.1375
2072.09307	1815.1375
2075.10378	1821.3375
2078.11255	1808.3375
2081.11938	1817.2375
2084.12426	1815.1375
2087.12722	1813.2375
2090.12824	1801.8375
2093.12732	1826.0375
2096.12447	1815.8375
2099.11969	1805.8375
2102.11299	1812.0375
2105.10435	1808.7375
2108.09379	1800.3375
2111.08131	1814.3375
2114.0669	1810.3375
2117.05057	1811.9375
2120.03233	1819.9375
2123.01216	1814.7375
2125.99008	1819.5375
2128.96609	1811.3375
2131.94018	1828.3375
2134.91236	1819.7375
2137.88263	1822.8375
2140.851	1810.3375
2143.81746	1822.0375
2146.78201	1833.4375
2149.74466	1820.5375
2152.7054	1808.5375
2155.66425	1810.2375
2158.6212	1819.6375
2161.57625	1811.3375
2164.52941	1814.1375
2167.48067	1808.5375
2170.43004	1800.6375
2173.37752	1804.7375
2176.32311	1793.4375
2179.26681	1810.7375
2182.20863	1800.9375
2185.14856	1821.0375
2188.08661	1791.6375
2191.02278	1798.7375
2193.95707	1813.2375
2196.88948	1814.4375
2199.82001	1791.4375
2202.74867	1797.1375
2205.67545	1806.1375
2208.60037	1797.2375
2211.52341	1794.5375
2214.44458	1781.7375
2217.36388	1786.3375
2220.28132	1781.4375
2223.1969	1775.2375
2226.11061	1769.1375
2229.02246	1768.6375
2231.93245	1758.9375
2234.84058	1751.9375
2237.74686	1754.8375
2240.65128	1753.9375
2243.55385	1759.3375
2246.45456	1754.0375
2249.35343	1753.2375
2252.25044	1749.1375
2255.14561	1740.2375
2258.03893	1744.3375
2260.93041	1753.9375
2263.82004	1731.0375
2266.70783	1738.6375
2269.59378	1722.2375
2272.4779	1727.0375
2275.36017	1715.2375
2278.24061	1714.3375
2281.11922	1713.6375
2283.996	1703.1375
2286.87094	1705.6375
2289.74405	1695.5375
2292.61534	1694.1375
2295.4848	1690.6375
2298.35243	1692.1375
2301.21824	1690.3375
2304.08223	1687.1375
2306.94439	1691.5375
2309.80474	1694.7375
2312.66327	1682.2375
2315.51999	1672.8375
2318.37489	1683.2375
2321.22797	1671.0375
2324.07925	1670.8375
2326.92871	1662.3375
2329.77637	1670.0375
2332.62222	1662.2375
2335.46626	1656.9375
2338.3085	1662.3375
2341.14893	1657.8375
2343.98756	1661.9375
2346.8244	1658.6375
2349.65943	1659.2375
2352.49267	1666.8375
2355.32411	1655.4375
2358.15376	1655.8375
2360.98161	1656.6375
2363.80768	1654.8375
2366.63195	1653.4375
2369.45444	1648.2375
2372.27514	1650.2375
2375.09405	1648.4375
2377.91118	1646.2375
2380.72652	1645.3375
2383.54009	1636.8375
2386.35187	1635.2375
2389.16188	1624.7375
2391.97011	1613.7375
2394.77657	1620.1375
2397.58125	1625.9375
2400.38416	1609.9375
2403.18529	1621.2375
2405.98466	1611.6375
2408.78226	1607.1375
2411.57809	1606.6375
2414.37216	1604.1375
2417.16446	1600.7375
2419.955	1597.6375
2422.74378	1585.4375
2425.5308	1591.0375
2428.31606	1598.1375
2431.09956	1595.7375
2433.88131	1591.3375
2436.6613	1590.1375
2439.43954	1588.8375
2442.21603	1586.7375
2444.99077	1580.3375
2447.76377	1585.4375
2450.53501	1581.7375
2453.30451	1577.4375
2456.07226	1573.7375
2458.83827	1577.4375
2461.60254	1580.9375
2464.36507	1568.0375
2467.12586	1567.4375
2469.88492	1564.4375
2472.64224	1567.3375
2475.39782	1572.5375
2478.15167	1572.5375
2480.90379	1566.9375
2483.65417	1572.9375
2486.40283	1573.0375
2489.14976	1565.9375
2491.89497	1579.6375
2494.63845	1577.8375
2497.3802	1574.4375
2500.12024	1561.9375
2502.85855	1567.2375
2505.59514	1565.5375
2508.33002	1557.3375
2511.06318	1550.6375
2513.79462	1543.4375
2516.52435	1542.9375
2519.25237	1548.3375
2521.97867	1538.6375
2524.70327	1535.5375
2527.42616	1529.7375
2530.14734	1524.2375
2532.86681	1534.2375
2535.58458	1518.5375
2538.30065	1535.7375
2541.01501	1529.5375
2543.72768	1526.3375
2546.43864	1529.5375
2549.14791	1530.4375
2551.85548	1516.4375
2554.56136	1517.8375
2557.26554	1519.3375
2559.96803	1509.2375
2562.66883	1507.9375
2565.36794	1510.9375
2568.06536	1502.9375
2570.7611	1487.6375
2573.45514	1500.2375
2576.14751	1491.3375
2578.83819	1490.9375
2581.52719	1490.9375
2584.21451	1484.7375
2586.90015	1479.7375
2589.58411	1479.5375
2592.2664	1491.8375
2594.94701	1470.4375
2597.62594	1475.7375
2600.30321	1481.7375
2602.9788	1458.9375
2605.65273	1474.3375
2608.32498	1463.4375
2610.99557	1461.5375
2613.66449	1466.3375
2616.33175	1466.4375
2618.99734	1460.0375
2621.66128	1467.1375
2624.32355	1444.2375
2626.98416	1453.1375
2629.64311	1449.0375
2632.30041	1447.1375
2634.95605	1450.5375
2637.61004	1440.8375
2640.26238	1447.2375
2642.91306	1439.6375
2645.56209	1434.6375
2648.20948	1440.5375
2650.85521	1436.1375
2653.4993	1435.1375
2656.14175	1438.9375
2658.78255	1440.1375
2661.42171	1439.8375
2664.05923	1438.4375
2666.6951	1433.8375
2669.32934	1444.9375
2671.96194	1446.0375
2674.59291	1442.9375
2677.22224	1442.6375
2679.84993	1434.0375
2682.476	1443.3375
2685.10043	1434.9375
2687.72324	1433.1375
2690.34441	1437.3375
2692.96396	1429.6375
2695.58188	1419.9375
2698.19818	1429.3375
2700.81285	1431.6375
2703.4259	1425.4375
2706.03733	1440.7375
2708.64714	1440.0375
2711.25533	1440.1375
2713.86191	1430.7375
2716.46687	1431.2375
2719.07021	1439.8375
2721.67194	1431.4375
2724.27206	1438.9375
2726.87057	1434.1375
2729.46747	1441.0375
2732.06276	1430.6375
2734.65644	1431.5375
2737.24852	1429.6375
2739.83899	1432.2375
2742.42786	1437.6375
2745.01513	1418.7375
2747.60079	1416.7375
2750.18486	1415.6375
2752.76733	1425.2375
2755.3482	1422.0375
2757.92747	1410.4375
2760.50515	1418.7375
2763.08123	1415.8375
2765.65573	1407.2375
2768.22863	1404.9375
2770.79994	1405.2375
2773.36967	1410.7375
2775.9378	1403.4375
2778.50435	1399.2375
2781.06932	1399.8375
2783.6327	1403.6375
2786.1945	1399.8375
2788.75471	1401.3375
2791.31335	1397.1375
2793.87041	1394.8375
2796.42589	1391.2375
2798.97979	1393.6375
2801.53212	1390.0375
2804.08288	1385.8375
2806.63206	1392.4375
2809.17967	1394.2375
2811.72571	1389.4375
2814.27018	1387.1375
2816.81308	1383.7375
2819.35442	1392.3375
2821.89419	1390.3375
2824.43239	1384.0375
2826.96904	1380.2375
2829.50412	1383.6375
2832.03763	1376.9375
2834.56959	1389.4375
2837.1	1371.3375
2839.62884	1376.5375
2842.15613	1387.8375
2844.68186	1384.4375
2847.20604	1383.7375
2849.72867	1383.5375
2852.24974	1388.3375
2854.76927	1386.0375
2857.28724	1390.8375
2859.80367	1396.7375
2862.31855	1392.6375
2864.83189	1395.4375
2867.34368	1410.2375
2869.85393	1405.5375
2872.36264	1408.3375
2874.8698	1414.2375
2877.37543	1408.9375
2879.87952	1407.0375
2882.38207	1418.0375
2884.88308	1417.9375
2887.38256	1426.9375
2889.88051	1429.1375
2892.37692	1432.7375
2894.8718	1437.5375
2897.36515	1446.2375
2899.85698	1448.9375
2902.34727	1451.3375
2904.83604	1451.0375
2907.32328	1457.0375
2909.809	1463.8375
2912.29319	1469.5375
2914.77587	1465.3375
2917.25702	1475.4375
2919.73665	1490.7375
2922.21476	1490.7375
2924.69136	1489.0375
2927.16644	1496.9375
2929.64	1497.9375
2932.11205	1490.9375
2934.58258	1493.5375
2937.05161	1495.8375
2939.51912	1495.5375
2941.98513	1506.2375
2944.44962	1504.0375
2946.91261	1497.4375
2949.37409	1485.0375
2951.83407	1490.6375
2954.29254	1482.0375
2956.74951	1479.7375
2959.20498	1474.6375
2961.65895	1461.1375
2964.11142	1458.4375
2966.56239	1454.2375
2969.01186	1452.4375
2971.45984	1436.8375
2973.90632	1441.8375
2976.35131	1430.7375
2978.7948	1428.3375
2981.23681	1422.0375
2983.67732	1424.3375
2986.11635	1416.2375
2988.55388	1412.0375
2990.98993	1413.9375
2993.4245	1407.4375
2995.85758	1403.2375
2998.28917	1390.3375
3000.71928	1392.3375
3003.14791	1387.8375
3005.57506	1389.6375
3008.00073	1387.1375
3010.42493	1360.8375
3012.84764	1386.7375
3015.26888	1385.4375
3017.68865	1379.2375
3020.10694	1382.8375
3022.52376	1382.9375
3024.9391	1380.8375
3027.35298	1376.9375
3029.76539	1376.9375
3032.17632	1375.5375
3034.5858	1371.9375
3036.9938	1377.4375
3039.40034	1381.1375
3041.80542	1379.9375
3044.20903	1376.1375
3046.61118	1384.8375
3049.01187	1379.6375
3051.4111	1378.0375
3053.80888	1382.8375
3056.20519	1377.9375
3058.60005	1390.1375
3060.99345	1377.6375
3063.3854	1397.5375
3065.7759	1386.1375
3068.16494	1376.8375
3070.55254	1388.5375
3072.93868	1380.0375
3075.32338	1381.6375
3077.70662	1374.7375
3080.08842	1385.8375
3082.46878	1394.7375
3084.84769	1395.8375
3087.22515	1396.2375
3089.60118	1405.5375
3091.97576	1405.9375
3094.3489	1411.9375
3096.72061	1413.2375
3099.09087	1423.6375
3101.4597	1426.9375
3103.82709	1442.5375
3106.19305	1441.7375
3108.55757	1444.9375
3110.92066	1439.3375
3113.28232	1458.8375
3115.64255	1463.1375
3118.00134	1460.7375
3120.35871	1469.9375
3122.71466	1460.7375
3125.06917	1476.1375
3127.42226	1476.2375
3129.77393	1478.0375
3132.12417	1488.7375
3134.47299	1488.2375
3136.82039	1486.8375
3139.16636	1505.9375
3141.51092	1505.3375
3143.85406	1521.6375
3146.19579	1520.3375
3148.53609	1522.2375
3150.87499	1531.8375
3153.21246	1547.4375
3155.54853	1559.0375
3157.88318	1552.3375
3160.21642	1566.0375
3162.54826	1566.5375
3164.87868	1586.0375
3167.2077	1583.4375
3169.5353	1607.4375
3171.86151	1604.5375
3174.18631	1613.9375
3176.5097	1618.3375
3178.83169	1618.3375
3181.15228	1626.0375
3183.47147	1627.9375
3185.78926	1632.9375
3188.10565	1635.0375
3190.42065	1638.7375
3192.73424	1648.9375
3195.04645	1649.1375
3197.35725	1658.3375
3199.66667	1658.8375
3201.97469	1661.3375
3204.28132	1675.2375
3206.58656	1675.9375
3208.8904	1680.4375
3211.19287	1687.3375
3213.49394	1695.6375
3215.79363	1702.8375
3218.09193	1698.8375
3220.38884	1712.6375
3222.68438	1718.6375
3224.97853	1712.0375
3227.2713	1725.3375
3229.56269	1718.6375
3231.8527	1719.5375
3234.14133	1713.3375
3236.42858	1714.7375
3238.71446	1722.5375
3240.99896	1717.5375
3243.28209	1715.2375
3245.56384	1712.2375
3247.84423	1718.9375
3250.12324	1706.3375
3252.40088	1709.4375
3254.67715	1708.8375
3256.95205	1707.1375
3259.22558	1708.4375
3261.49775	1730.2375
3263.76855	1724.0375
3266.03799	1727.7375
3268.30606	1714.4375
3270.57277	1730.5375
3272.83812	1723.8375
3275.10211	1716.9375
3277.36474	1705.2375
3279.62601	1714.0375
3281.88593	1714.4375
3284.14448	1711.3375
3286.40168	1707.7375
3288.65753	1717.8375
3290.91202	1717.1375
3293.16516	1711.2375
3295.41695	1709.9375
3297.66738	1698.8375
3299.91647	1701.1375
3302.16421	1684.9375
3304.4106	1680.3375
3306.65564	1678.7375
3308.89933	1662.4375
3311.14169	1666.7375
3313.38269	1640.1375
3315.62236	1632.0375
3317.86068	1620.7375
3320.09766	1619.0375
3322.3333	1594.9375
3324.5676	1603.2375
3326.80056	1574.3375
3329.03219	1564.7375
3331.26248	1.3375
3333.49143	2.0375
3335.71905	0.9375
