Data from AgNPs_UA_20uM_CRN_500uM_AS_RamanShift__28__14-56-11-531.txt Node

Date: Wed Aug 17 14:56:11 BST 2022
User: TCL
Spectrometer: QEP01345
Trigger mode: 4
Integration Time (sec): 7.000000E0
Scans to average: 10
Electric dark correction enabled: true
Nonlinearity correction enabled: false
Boxcar width: 0
XAxis mode: Raman Shifts
Number of Pixels in Spectrum: 1044
>>>>>Begin Spectral Data<<<<<
46.04893	-0.6
50.45542	-0.5
54.85868	-0.8
59.25871	-0.6
63.6555	54.5
68.04907	53.5
72.43941	59.2
76.82654	63.4
81.21044	62.8
85.59113	64.1
89.96862	70.5
94.34289	75.2
98.71396	75.8
103.08183	83.3
107.4465	81.8
111.80798	80.3
116.16626	82.6
120.52136	84
124.87327	89.6
129.222	90
133.56755	97.4
137.90993	104.1
142.24913	114.4
146.58517	120
150.91804	137.8
155.24774	161.1
159.57429	193.1
163.89768	241.3
168.21792	322
172.53501	435.8
176.84895	605.7
181.15975	843.3
185.46741	1182.7
189.77193	1630.6
194.07331	2196.9
198.37157	2839.7
202.6667	3548.3
206.9587	4281
211.24758	5081.5
215.53334	5998.9
219.81599	7063.3
224.09553	8289.7
228.37195	9625
232.64527	10984.8
236.91549	12187.3
241.18261	13057.3
245.44663	13490.9
249.70755	13805.1
253.96539	14064.1
258.22014	14348.2
262.4718	14503.2
266.72039	14470
270.96589	14064.2
275.20832	13475.9
279.44768	12716.8
283.68397	12111.9
287.91719	11884.3
292.14735	12196.6
296.37445	13157.6
300.59849	14768.3
304.81948	16704.8
309.03742	18252.3
313.25231	18625.4
317.46415	17150.3
321.67296	14559.8
325.87872	12435.4
330.08145	11526.2
334.28114	11551.1
338.47781	12036.4
342.67145	12765.4
346.86207	13956.5
351.04966	15913.3
355.23424	18072.1
359.4158	19521
363.59435	19891.4
367.76989	19511.8
371.94243	18805
376.11196	18102.8
380.27849	17411.2
384.44203	16680.8
388.60257	15972.3
392.76012	15497.4
396.91468	15504.3
401.06626	15983
405.21485	16165.5
409.36047	15162.6
413.50311	13181.7
417.64277	11377.3
421.77947	10289.1
425.9132	9792.8
430.04396	9591.3
434.17176	9625.3
438.2966	9866.8
442.41849	10312.8
446.53742	10777.3
450.6534	11099.6
454.76644	11105.7
458.87653	10863.4
462.98368	10535.3
467.08789	10209.5
471.18916	9804.3
475.2875	9350.9
479.38291	8890.3
483.4754	8589.5
487.56496	8363.6
491.6516	8268.6
495.73531	8280.1
499.81612	8397.7
503.89401	8729.7
507.96899	9159.6
512.04106	9731.7
516.11023	10301.1
520.1765	10697.1
524.23987	10648.1
528.30034	10344
532.35792	10029.6
536.41261	9634.9
540.46441	9128.5
544.51333	8814.1
548.55936	8880.2
552.60252	9332.8
556.64279	9903.5
560.6802	10370.7
564.71473	11400.8
568.7464	13031.3
572.7752	13018.1
576.80114	10959.8
580.82422	9137.8
584.84444	8304.2
588.86181	8081.2
592.87633	8173.1
596.888	8638.9
600.89682	10060.8
604.9028	14733.3
608.90594	26206.6
612.90624	39207.7
616.90371	34260.6
620.89834	17793.1
624.89015	10814.3
628.87913	9732.5
632.86528	10453.4
636.84862	11163.9
640.82913	10429.1
644.80683	8896.3
648.78172	7999.2
652.75379	8211.7
656.72306	9522.8
660.68952	10743.2
664.65319	9895.3
668.61405	8261.9
672.57211	7607.2
676.52738	7614.1
680.47986	7581.6
684.42955	7287.3
688.37646	7105.5
692.32058	7146.5
696.26192	7292.8
700.20048	7569
704.13626	7684.7
708.06928	7543.9
711.99952	7411
715.927	7446.3
719.85171	7698.3
723.77365	7895
727.69284	7782.5
731.60928	7597
735.52295	7525.3
739.43388	7535.1
743.34206	7617.4
747.24749	7591.8
751.15017	7628.4
755.05012	8118
758.94733	9882.6
762.8418	14167.7
766.73354	20322.6
770.62254	25055
774.50882	26991.6
778.39237	25070
782.27321	19181.5
786.15132	13138.6
790.02671	9742.3
793.89938	8326.3
797.76935	7740.3
801.6366	7450.2
805.50115	7315.8
809.36299	7229
813.22213	7142.8
817.07857	7143.5
820.93231	7163.7
824.78336	7314.7
828.63172	7476.6
832.47738	7532.1
836.32036	7322.6
840.16066	7064.3
843.99827	6906.6
847.8332	6859.7
851.66546	6850.3
855.49504	6875.7
859.32195	6874.2
863.1462	6821.9
866.96777	6772.1
870.78668	6754
874.60293	6832.2
878.41652	6955.5
882.22745	7142.9
886.03573	7256.7
889.84136	7204.2
893.64433	7191.3
897.44466	7215.5
901.24235	7241.3
905.0374	7095.8
908.8298	6861.4
912.61957	6678.3
916.40671	6610.1
920.19121	6641
923.97308	6876.2
927.75233	7392.5
931.52895	7932.4
935.30295	7649
939.07433	6873.9
942.84309	6279.6
946.60924	5976.8
950.37278	5846.1
954.13371	5816.3
957.89203	5800.1
961.64774	5800
965.40086	5751.9
969.15137	5738.8
972.89929	5710.5
976.64461	5676.4
980.38733	5677.4
984.12747	5693.2
987.86502	5733
991.59999	5780.6
995.33237	5883.3
999.06217	6061.7
1002.78939	6330.8
1006.51404	6721.8
1010.23611	6960.5
1013.95561	6956.6
1017.67255	6772.2
1021.38692	6555.8
1025.09872	6337.6
1028.80796	6160.9
1032.51465	6212.3
1036.21877	6317.4
1039.92035	6472.1
1043.61937	6619.2
1047.31584	6725.2
1051.00976	6728.9
1054.70114	6589.3
1058.38998	6484.1
1062.07627	6466.7
1065.76003	6449.6
1069.44126	6501.3
1073.11995	6679.4
1076.79611	7185.8
1080.46974	8001.5
1084.14085	9021.2
1087.80943	9833.9
1091.47549	9878.2
1095.13903	9206.8
1098.80005	8291.2
1102.45857	7731.1
1106.11456	7750.8
1109.76805	8233.7
1113.41903	9199.8
1117.06751	10690.6
1120.71348	12700.9
1124.35696	15004.8
1127.99793	16033.7
1131.63641	14481.8
1135.2724	11875.5
1138.90589	10056.9
1142.5369	8978.1
1146.16542	8288.4
1149.79145	7874.9
1153.415	7746.5
1157.03607	7854.5
1160.65467	8240
1164.27079	8999.1
1167.88443	10216.5
1171.49561	12178.7
1175.10432	15600.9
1178.71056	20202.8
1182.31434	23726.5
1185.91565	23978.9
1189.51451	21695.9
1193.11091	18477.7
1196.70485	15681.7
1200.29634	14076.1
1203.88538	12738.4
1207.47197	10921.9
1211.05612	9235.5
1214.63782	8185
1218.21708	7693.9
1221.79391	7448
1225.36829	7434.3
1228.94024	7366.8
1232.50976	7342.6
1236.07685	7374.5
1239.6415	7530.6
1243.20374	7677.3
1246.76355	7886.3
1250.32093	8141.9
1253.8759	8518
1257.42845	9117.7
1260.97859	9978.6
1264.52631	10935.6
1268.07163	11781.7
1271.61453	12307.5
1275.15503	12389.3
1278.69312	12309.7
1282.22882	12533.6
1285.76211	13473.2
1289.29301	14675.7
1292.82151	15694
1296.34761	16951.3
1299.87133	19387.1
1303.39266	23967.9
1306.9116	31025.7
1310.42815	37455.3
1313.94233	38073
1317.45412	32437.1
1320.96354	25352.5
1324.47058	19342.9
1327.97525	15167.3
1331.47754	12954.7
1334.97747	12274.3
1338.47502	12848.8
1341.97022	14819.7
1345.46305	18302.4
1348.95352	22892
1352.44163	28429.6
1355.92738	36560.2
1359.41078	48673.1
1362.89183	57090.6
1366.37053	50228.1
1369.84688	35172.6
1373.32088	24328.4
1376.79254	18774.1
1380.26186	15623.2
1383.72883	13312.8
1387.19347	11501.9
1390.65578	10047.6
1394.11575	9026
1397.57339	8444.6
1401.0287	8128.5
1404.48168	7953.7
1407.93234	7875.1
1411.38068	8053.1
1414.82669	8456.3
1418.27039	8784.8
1421.71177	8815.7
1425.15083	8710.9
1428.58758	8910.7
1432.02203	9383.3
1435.45416	9477.6
1438.88399	9229.2
1442.31151	8987.6
1445.73673	9025.7
1449.15965	9119.3
1452.58027	9002.9
1455.9986	8774.2
1459.41463	8680.9
1462.82837	8999.4
1466.23982	9553.3
1469.64898	9979.9
1473.05586	10095.8
1476.46045	10097.7
1479.86276	10293.6
1483.26279	10960.3
1486.66054	12075.3
1490.05602	13804.4
1493.44922	16512.4
1496.84016	21018.9
1500.22882	28296.6
1503.61521	38577.9
1506.99934	49885.4
1510.38121	57424
1513.76081	56889.7
1517.13816	47748.7
1520.51324	35479.5
1523.88607	25358.8
1527.25665	19163.7
1530.62498	15762.9
1533.99105	13722.6
1537.35488	12441.8
1540.71647	11770.4
1544.07581	11712.3
1547.4329	12026.4
1550.78776	12509.2
1554.14038	13093.3
1557.49077	13739.7
1560.83892	14733.1
1564.18484	16398
1567.52853	18367.9
1570.86999	19811
1574.20922	20328.4
1577.54624	19390.3
1580.88103	16401.8
1584.2136	12962.4
1587.54395	10876.5
1590.87208	10373.8
1594.19801	11226.3
1597.52172	12474.2
1600.84321	12675
1604.16251	11809.3
1607.47959	10751.9
1610.79447	9718.9
1614.10715	8658.2
1617.41763	7848.3
1620.7259	7427.7
1624.03199	7344.1
1627.33587	7587.5
1630.63757	8159.4
1633.93707	9209.5
1637.23439	11067.5
1640.52951	14419.4
1643.82246	19961.2
1647.11321	26645.3
1650.40179	30692.1
1653.68819	28573.7
1656.97241	21937.6
1660.25446	15405.5
1663.53433	11061
1666.81203	8625.4
1670.08756	7293.2
1673.36092	6537.7
1676.63211	6065.8
1679.90115	5749.8
1683.16801	5535.9
1686.43272	5388.8
1689.69527	5292.5
1692.95567	5215.2
1696.2139	5186.5
1699.46999	5147.1
1702.72392	5123
1705.97571	5084.1
1709.22535	5054.3
1712.47284	5052
1715.71819	5062.8
1718.96139	4989.6
1722.20246	4922.7
1725.44139	4840.9
1728.67818	4711.7
1731.91284	4627.9
1735.14537	4536.4
1738.37576	4473.3
1741.60403	4463.9
1744.83017	4439
1748.05418	4402.9
1751.27607	4361.5
1754.49584	4325.9
1757.71349	4292.8
1760.92903	4229.9
1764.14244	4197.9
1767.35375	4136.2
1770.56294	4077.8
1773.77002	4026.7
1776.97499	3939.5
1780.17785	3908.2
1783.37861	3858.6
1786.57727	3825.3
1789.77382	3801.2
1792.96828	3782.3
1796.16064	3756.5
1799.3509	3753.4
1802.53907	3721.6
1805.72514	3695.4
1808.90913	3671.3
1812.09102	3633.1
1815.27083	3602.3
1818.44856	3570.3
1821.6242	3572.3
1824.79776	3551
1827.96924	3525.5
1831.13864	3495.8
1834.30597	3484.6
1837.47122	3452.9
1840.6344	3432.7
1843.7955	3402.7
1846.95454	3409.8
1850.11151	3387.8
1853.26642	3369
1856.41926	3374.7
1859.57004	3373
1862.71876	3381.4
1865.86542	3395.8
1869.01003	3379.7
1872.15258	3412.6
1875.29308	3405.7
1878.43152	3397.3
1881.56792	3406.4
1884.70227	3380.7
1887.83457	3373.6
1890.96482	3360.9
1894.09304	3352.4
1897.21921	3345.9
1900.34335	3336.9
1903.46544	3330.8
1906.58551	3339.2
1909.70353	3337.4
1912.81953	3329.3
1915.93349	3320.1
1919.04543	3317
1922.15534	3291.8
1925.26322	3276.2
1928.36908	3240
1931.47292	3210.9
1934.57473	3179.8
1937.67453	3136.1
1940.77232	3122.6
1943.86808	3110.6
1946.96184	3075.9
1950.05358	3074.4
1953.14331	3066.2
1956.23103	3048.3
1959.31675	3068.3
1962.40046	3068.4
1965.48217	3071.6
1968.56188	3101
1971.63959	3106.5
1974.7153	3115.3
1977.78901	3067.2
1980.86073	3037.4
1983.93046	3001.8
1986.99819	2958.7
1990.06394	2937.1
1993.1277	2915.6
1996.18947	2887.4
1999.24925	2865.7
2002.30706	2854.3
2005.36288	2832.2
2008.41672	2818.1
2011.46859	2802.8
2014.51848	2785.8
2017.56639	2792.4
2020.61233	2771.8
2023.6563	2743.1
2026.6983	2746.6
2029.73833	2725
2032.7764	2726.1
2035.8125	2711.5
2038.84664	2716.4
2041.87881	2695.8
2044.90903	2701.9
2047.93729	2705.1
2050.96359	2685.9
2053.98794	2662.5
2057.01034	2663.8
2060.03078	2635.1
2063.04927	2631.8
2066.06582	2623.1
2069.08042	2598.7
2072.09307	2603.9
2075.10378	2611.2
2078.11255	2594.8
2081.11938	2597.2
2084.12426	2609.9
2087.12722	2592.6
2090.12824	2594.1
2093.12732	2606.6
2096.12447	2592.2
2099.11969	2591
2102.11299	2611.3
2105.10435	2605.4
2108.09379	2594
2111.08131	2607.7
2114.0669	2625.9
2117.05057	2641.9
2120.03233	2654.4
2123.01216	2684.1
2125.99008	2691
2128.96609	2677.8
2131.94018	2675.8
2134.91236	2662
2137.88263	2656.2
2140.851	2639
2143.81746	2621.2
2146.78201	2606.5
2149.74466	2588.4
2152.7054	2558.2
2155.66425	2557.4
2158.6212	2550.7
2161.57625	2534
2164.52941	2525.7
2167.48067	2531.8
2170.43004	2511.4
2173.37752	2516.4
2176.32311	2540.2
2179.26681	2529.7
2182.20863	2538.5
2185.14856	2536.1
2188.08661	2526
2191.02278	2521
2193.95707	2513.3
2196.88948	2491
2199.82001	2484.9
2202.74867	2476.8
2205.67545	2479.6
2208.60037	2484.2
2211.52341	2479.9
2214.44458	2462.8
2217.36388	2457.2
2220.28132	2460.2
2223.1969	2435.5
2226.11061	2425.9
2229.02246	2411.3
2231.93245	2398.6
2234.84058	2398.3
2237.74686	2402
2240.65128	2408.8
2243.55385	2402.6
2246.45456	2424.2
2249.35343	2425.3
2252.25044	2450.5
2255.14561	2474.9
2258.03893	2490.5
2260.93041	2528.2
2263.82004	2525.6
2266.70783	2530.9
2269.59378	2516.9
2272.4779	2500
2275.36017	2489
2278.24061	2482.1
2281.11922	2475.8
2283.996	2450.7
2286.87094	2435.3
2289.74405	2406.5
2292.61534	2391.5
2295.4848	2373.4
2298.35243	2357.5
2301.21824	2359.7
2304.08223	2334.6
2306.94439	2350.9
2309.80474	2352.2
2312.66327	2350.6
2315.51999	2345
2318.37489	2341.8
2321.22797	2327
2324.07925	2327.8
2326.92871	2321.8
2329.77637	2325.8
2332.62222	2324.6
2335.46626	2327.5
2338.3085	2328.3
2341.14893	2330.1
2343.98756	2349.5
2346.8244	2353.5
2349.65943	2373.2
2352.49267	2377
2355.32411	2399.6
2358.15376	2427.9
2360.98161	2457.8
2363.80768	2474.4
2366.63195	2515.9
2369.45444	2533.1
2372.27514	2541
2375.09405	2535.4
2377.91118	2509.7
2380.72652	2484.3
2383.54009	2461.2
2386.35187	2424
2389.16188	2380.7
2391.97011	2347.2
2394.77657	2336.4
2397.58125	2319.6
2400.38416	2298.6
2403.18529	2280.8
2405.98466	2282.5
2408.78226	2256.1
2411.57809	2248.9
2414.37216	2239.4
2417.16446	2237.1
2419.955	2233.5
2422.74378	2262.2
2425.5308	2253.4
2428.31606	2275.4
2431.09956	2283.2
2433.88131	2278.9
2436.6613	2286.8
2439.43954	2300.4
2442.21603	2316.7
2444.99077	2334.7
2447.76377	2337.5
2450.53501	2343.1
2453.30451	2353
2456.07226	2350.8
2458.83827	2355.2
2461.60254	2356.5
2464.36507	2345.8
2467.12586	2342.3
2469.88492	2348.3
2472.64224	2358.9
2475.39782	2379
2478.15167	2408.9
2480.90379	2437.2
2483.65417	2450.5
2486.40283	2492.4
2489.14976	2509.6
2491.89497	2521.5
2494.63845	2534.1
2497.3802	2519.7
2500.12024	2499.9
2502.85855	2469.8
2505.59514	2421.7
2508.33002	2374.5
2511.06318	2348.8
2513.79462	2288.5
2516.52435	2250.7
2519.25237	2213.2
2521.97867	2185.7
2524.70327	2163.5
2527.42616	2152.9
2530.14734	2148.7
2532.86681	2140.3
2535.58458	2154.2
2538.30065	2160.9
2541.01501	2175.6
2543.72768	2174.3
2546.43864	2189.8
2549.14791	2194.7
2551.85548	2197.1
2554.56136	2197
2557.26554	2200.9
2559.96803	2192.5
2562.66883	2208.1
2565.36794	2204.4
2568.06536	2186.3
2570.7611	2181.6
2573.45514	2184.3
2576.14751	2178.3
2578.83819	2143.9
2581.52719	2138.1
2584.21451	2129.9
2586.90015	2117.1
2589.58411	2109.3
2592.2664	2108.2
2594.94701	2118.6
2597.62594	2102.9
2600.30321	2105.2
2602.9788	2105.5
2605.65273	2110.6
2608.32498	2122
2610.99557	2120.2
2613.66449	2126.9
2616.33175	2147.3
2618.99734	2140.6
2621.66128	2131.1
2624.32355	2117.1
2626.98416	2104.1
2629.64311	2094
2632.30041	2084.9
2634.95605	2065.8
2637.61004	2056.9
2640.26238	2042.3
2642.91306	2029.9
2645.56209	2040
2648.20948	2025.8
2650.85521	2025.6
2653.4993	2035.3
2656.14175	2048
2658.78255	2059
2661.42171	2070.9
2664.05923	2081.4
2666.6951	2099.8
2669.32934	2110.2
2671.96194	2113.1
2674.59291	2115.8
2677.22224	2110.3
2679.84993	2119.5
2682.476	2108.4
2685.10043	2094.3
2687.72324	2097.8
2690.34441	2091.2
2692.96396	2083.2
2695.58188	2081.1
2698.19818	2061.6
2700.81285	2063.1
2703.4259	2073.3
2706.03733	2083.5
2708.64714	2083
2711.25533	2093.2
2713.86191	2087.9
2716.46687	2084.4
2719.07021	2110.2
2721.67194	2105.8
2724.27206	2113.2
2726.87057	2090.8
2729.46747	2091.5
2732.06276	2077.2
2734.65644	2069.1
2737.24852	2058.4
2739.83899	2028.4
2742.42786	2032
2745.01513	2007.8
2747.60079	1995
2750.18486	1985.6
2752.76733	1984.3
2755.3482	1969.7
2757.92747	1960.6
2760.50515	1956.3
2763.08123	1942.6
2765.65573	1934.6
2768.22863	1937.7
2770.79994	1929.6
2773.36967	1932.1
2775.9378	1933.5
2778.50435	1944.1
2781.06932	1935.1
2783.6327	1948
2786.1945	1955.4
2788.75471	1969.5
2791.31335	1964.2
2793.87041	1972.9
2796.42589	1989.7
2798.97979	2008.7
2801.53212	2013.6
2804.08288	2027.2
2806.63206	2035.8
2809.17967	2056.7
2811.72571	2084.5
2814.27018	2103.7
2816.81308	2120.9
2819.35442	2131.2
2821.89419	2167.8
2824.43239	2176.6
2826.96904	2170.1
2829.50412	2177.6
2832.03763	2172.9
2834.56959	2162.1
2837.1	2152.3
2839.62884	2163.8
2842.15613	2166.1
2844.68186	2181.4
2847.20604	2200.5
2849.72867	2203.9
2852.24974	2222.1
2854.76927	2240.2
2857.28724	2268.2
2859.80367	2294.6
2862.31855	2325
2864.83189	2354
2867.34368	2385.1
2869.85393	2401.1
2872.36264	2414.5
2874.8698	2434
2877.37543	2439.7
2879.87952	2429.4
2882.38207	2409.8
2884.88308	2412.8
2887.38256	2393.3
2889.88051	2392.2
2892.37692	2385.2
2894.8718	2400.6
2897.36515	2382.5
2899.85698	2396
2902.34727	2381.1
2904.83604	2385.5
2907.32328	2372.2
2909.809	2363.5
2912.29319	2358.2
2914.77587	2348.4
2917.25702	2325
2919.73665	2322.7
2922.21476	2326.5
2924.69136	2300.4
2927.16644	2300.3
2929.64	2286.4
2932.11205	2278
2934.58258	2251.1
2937.05161	2262.9
2939.51912	2241.1
2941.98513	2252.3
2944.44962	2239.4
2946.91261	2219.9
2949.37409	2222.9
2951.83407	2214.3
2954.29254	2213.8
2956.74951	2207.9
2959.20498	2191.7
2961.65895	2185.5
2964.11142	2176.2
2966.56239	2150
2969.01186	2130.6
2971.45984	2119.9
2973.90632	2114.4
2976.35131	2092.9
2978.7948	2085.3
2981.23681	2084.7
2983.67732	2071.6
2986.11635	2059.9
2988.55388	2052.6
2990.98993	2054.4
2993.4245	2063.3
2995.85758	2055.3
2998.28917	2057
3000.71928	2071.4
3003.14791	2069.5
3005.57506	2079
3008.00073	2086.2
3010.42493	2059.8
3012.84764	2094.3
3015.26888	2084.2
3017.68865	2082.7
3020.10694	2083.9
3022.52376	2061.8
3024.9391	2063.5
3027.35298	2048.7
3029.76539	2029.1
3032.17632	2023.3
3034.5858	1987.6
3036.9938	1982.5
3039.40034	1962.8
3041.80542	1952.9
3044.20903	1939.7
3046.61118	1933.8
3049.01187	1937.6
3051.4111	1928.4
3053.80888	1919.9
3056.20519	1919.8
3058.60005	1915.1
3060.99345	1908.3
3063.3854	1913.5
3065.7759	1894.9
3068.16494	1895.5
3070.55254	1876.4
3072.93868	1876.9
3075.32338	1859.3
3077.70662	1860.1
3080.08842	1847.7
3082.46878	1851.2
3084.84769	1860.3
3087.22515	1860
3089.60118	1861.5
3091.97576	1850.3
3094.3489	1851.4
3096.72061	1871.7
3099.09087	1861.3
3101.4597	1860.8
3103.82709	1875.1
3106.19305	1869.3
3108.55757	1882.1
3110.92066	1885.7
3113.28232	1889.6
3115.64255	1896.8
3118.00134	1892.9
3120.35871	1900.1
3122.71466	1893.9
3125.06917	1902.8
3127.42226	1900
3129.77393	1909.5
3132.12417	1920.2
3134.47299	1922.1
3136.82039	1936.4
3139.16636	1933.9
3141.51092	1940.3
3143.85406	1949.8
3146.19579	1958.5
3148.53609	1981.6
3150.87499	1983.9
3153.21246	2002.3
3155.54853	2017.8
3157.88318	2024.1
3160.21642	2026.9
3162.54826	2036.6
3164.87868	2031.2
3167.2077	2050.2
3169.5353	2048.7
3171.86151	2063
3174.18631	2053.2
3176.5097	2055.5
3178.83169	2055.8
3181.15228	2060.2
3183.47147	2060.3
3185.78926	2063.4
3188.10565	2070.4
3190.42065	2084.6
3192.73424	2099.7
3195.04645	2102.4
3197.35725	2112.8
3199.66667	2126.9
3201.97469	2125.5
3204.28132	2159.7
3206.58656	2181.3
3208.8904	2189.2
3211.19287	2213.1
3213.49394	2226.9
3215.79363	2238.8
3218.09193	2254
3220.38884	2279.1
3222.68438	2278.4
3224.97853	2290.8
3227.2713	2291.9
3229.56269	2301.2
3231.8527	2296.4
3234.14133	2299.5
3236.42858	2301.1
3238.71446	2298.2
3240.99896	2304.2
3243.28209	2310.7
3245.56384	2321.7
3247.84423	2317.3
3250.12324	2326.5
3252.40088	2322.7
3254.67715	2307
3256.95205	2320.2
3259.22558	2338.2
3261.49775	2338.2
3263.76855	2342.4
3266.03799	2345.8
3268.30606	2361.5
3270.57277	2358.9
3272.83812	2354.8
3275.10211	2352.9
3277.36474	2354.1
3279.62601	2360.8
3281.88593	2356.5
3284.14448	2376.7
3286.40168	2372
3288.65753	2379.3
3290.91202	2383.9
3293.16516	2391.2
3295.41695	2385.6
3297.66738	2370
3299.91647	2358.7
3302.16421	2339.4
3304.4106	2329.9
3306.65564	2312.1
3308.89933	2270.8
3311.14169	2263.5
3313.38269	2224.2
3315.62236	2197.9
3317.86068	2194.5
3320.09766	2166.8
3322.3333	2146.1
3324.5676	2131.5
3326.80056	2093.8
3329.03219	2082.1
3331.26248	2.3
3333.49143	-0.2
3335.71905	-0.2
