Data from AgNPs_UA_20uM_CRN_500uM_AS_RamanShift__7__14-31-41-504.txt Node

Date: Wed Aug 17 14:31:41 BST 2022
User: TCL
Spectrometer: QEP01345
Trigger mode: 4
Integration Time (sec): 7.000000E0
Scans to average: 10
Electric dark correction enabled: true
Nonlinearity correction enabled: false
Boxcar width: 0
XAxis mode: Raman Shifts
Number of Pixels in Spectrum: 1044
>>>>>Begin Spectral Data<<<<<
46.04893	-0.5125
50.45542	-1.3125
54.85868	-1.1125
59.25871	-0.7125
63.6555	51.8875
68.04907	52.0875
72.43941	57.1875
76.82654	63.9875
81.21044	64.4875
85.59113	68.7875
89.96862	69.5875
94.34289	77.2875
98.71396	81.5875
103.08183	79.4875
107.4465	81.6875
111.80798	78.9875
116.16626	81.3875
120.52136	80.7875
124.87327	81.9875
129.222	82.6875
133.56755	89.3875
137.90993	86.4875
142.24913	96.9875
146.58517	104.0875
150.91804	111.0875
155.24774	117.8875
159.57429	138.6875
163.89768	170.5875
168.21792	215.1875
172.53501	292.8875
176.84895	393.6875
181.15975	535.4875
185.46741	739.7875
189.77193	1011.3875
194.07331	1351.0875
198.37157	1725.2875
202.6667	2124.2875
206.9587	2533.7875
211.24758	2960.9875
215.53334	3380.9875
219.81599	3863.9875
224.09553	4403.8875
228.37195	5016.8875
232.64527	5650.5875
236.91549	6293.7875
241.18261	6837.7875
245.44663	7252.0875
249.70755	7506.4875
253.96539	7692.8875
258.22014	7789.5875
262.4718	7875.8875
266.72039	7909.8875
270.96589	7851.4875
275.20832	7704.0875
279.44768	7507.3875
283.68397	7300.5875
287.91719	7169.9875
292.14735	7137.1875
296.37445	7225.7875
300.59849	7447.5875
304.81948	7784.0875
309.03742	8092.9875
313.25231	8268.8875
317.46415	8222.6875
321.67296	7974.2875
325.87872	7695.5875
330.08145	7569.2875
334.28114	7568.2875
338.47781	7631.3875
342.67145	7763.0875
346.86207	7976.0875
351.04966	8234.5875
355.23424	8540.7875
359.4158	8706.7875
363.59435	8724.3875
367.76989	8634.2875
371.94243	8523.1875
376.11196	8416.7875
380.27849	8395.4875
384.44203	8380.9875
388.60257	8370.1875
392.76012	8381.2875
396.91468	8445.9875
401.06626	8561.8875
405.21485	8574.0875
409.36047	8318.5875
413.50311	7914.1875
417.64277	7571.0875
421.77947	7408.9875
425.9132	7412.1875
430.04396	7514.0875
434.17176	7677.7875
438.2966	7924.9875
442.41849	8352.8875
446.53742	8888.4875
450.6534	9354.2875
454.76644	9509.3875
458.87653	9399.3875
462.98368	9068.4875
467.08789	8664.8875
471.18916	8276.4875
475.2875	7888.6875
479.38291	7483.3875
483.4754	7174.1875
487.56496	6985.5875
491.6516	6911.8875
495.73531	6877.2875
499.81612	6900.9875
503.89401	6971.5875
507.96899	7044.2875
512.04106	7058.4875
516.11023	7098.8875
520.1765	7167.1875
524.23987	7270.1875
528.30034	7359.9875
532.35792	7388.9875
536.41261	7207.4875
540.46441	6961.2875
544.51333	6848.2875
548.55936	6891.9875
552.60252	7123.8875
556.64279	7479.1875
560.6802	7687.7875
564.71473	7678.9875
568.7464	7731.0875
572.7752	7828.4875
576.80114	7846.7875
580.82422	7975.2875
584.84444	8409.9875
588.86181	9419.9875
592.87633	11009.2875
596.888	12206.9875
600.89682	11826.5875
604.9028	11427.6875
608.90594	12928.7875
612.90624	15009.3875
616.90371	13265.2875
620.89834	9221.9875
624.89015	7463.1875
628.87913	7246.5875
632.86528	7488.4875
636.84862	7566.2875
640.82913	7283.9875
644.80683	6817.4875
648.78172	6552.0875
652.75379	6541.0875
656.72306	6858.6875
660.68952	7143.9875
664.65319	6845.8875
668.61405	6393.7875
672.57211	6292.8875
676.52738	6371.6875
680.47986	6378.8875
684.42955	6257.0875
688.37646	6131.3875
692.32058	6149.4875
696.26192	6238.3875
700.20048	6429.1875
704.13626	6497.8875
708.06928	6469.1875
711.99952	6425.4875
715.927	6439.5875
719.85171	6528.0875
723.77365	6548.6875
727.69284	6475.5875
731.60928	6455.6875
735.52295	6536.1875
739.43388	6645.6875
743.34206	6688.7875
747.24749	6682.8875
751.15017	6703.5875
755.05012	6856.1875
758.94733	7386.4875
762.8418	8646.1875
766.73354	10554.8875
770.62254	12083.9875
774.50882	12264.5875
778.39237	11173.6875
782.27321	9543.2875
786.15132	8063.4875
790.02671	7137.9875
793.89938	6628.4875
797.76935	6396.3875
801.6366	6250.0875
805.50115	6151.9875
809.36299	6068.5875
813.22213	5985.7875
817.07857	5941.8875
820.93231	5927.7875
824.78336	5948.1875
828.63172	5981.6875
832.47738	5982.3875
836.32036	5968.6875
840.16066	5921.1875
843.99827	5878.1875
847.8332	5866.8875
851.66546	5916.2875
855.49504	5915.2875
859.32195	5918.0875
863.1462	5903.2875
866.96777	5854.0875
870.78668	5873.2875
874.60293	5882.8875
878.41652	5950.0875
882.22745	6019.8875
886.03573	6061.8875
889.84136	6059.2875
893.64433	6036.0875
897.44466	6027.7875
901.24235	6022.1875
905.0374	5966.1875
908.8298	5882.5875
912.61957	5851.1875
916.40671	5883.9875
920.19121	5963.4875
923.97308	6124.6875
927.75233	6223.4875
931.52895	6202.7875
935.30295	5984.6875
939.07433	5701.8875
942.84309	5517.2875
946.60924	5420.5875
950.37278	5393.4875
954.13371	5366.1875
957.89203	5371.7875
961.64774	5383.8875
965.40086	5352.8875
969.15137	5349.0875
972.89929	5321.9875
976.64461	5273.9875
980.38733	5296.5875
984.12747	5303.8875
987.86502	5350.2875
991.59999	5411.4875
995.33237	5578.5875
999.06217	5795.5875
1002.78939	6101.3875
1006.51404	6376.0875
1010.23611	6572.5875
1013.95561	6681.6875
1017.67255	6639.9875
1021.38692	6420.3875
1025.09872	6080.2875
1028.80796	5801.2875
1032.51465	5728.0875
1036.21877	5716.7875
1039.92035	5765.8875
1043.61937	5829.3875
1047.31584	5831.3875
1051.00976	5876.6875
1054.70114	5862.5875
1058.38998	5853.6875
1062.07627	5883.5875
1065.76003	5896.8875
1069.44126	5986.3875
1073.11995	6130.0875
1076.79611	6304.2875
1080.46974	6528.3875
1084.14085	6817.1875
1087.80943	7052.7875
1091.47549	7098.8875
1095.13903	6917.2875
1098.80005	6631.6875
1102.45857	6396.8875
1106.11456	6376.1875
1109.76805	6486.3875
1113.41903	6730.7875
1117.06751	7050.8875
1120.71348	7461.6875
1124.35696	7935.0875
1127.99793	8217.3875
1131.63641	8074.4875
1135.2724	7646.9875
1138.90589	7325.9875
1142.5369	7169.8875
1146.16542	7142.6875
1149.79145	7194.1875
1153.415	7277.5875
1157.03607	7370.2875
1160.65467	7604.6875
1164.27079	8029.2875
1167.88443	8771.4875
1171.49561	9960.4875
1175.10432	11684.2875
1178.71056	13799.2875
1182.31434	15566.2875
1185.91565	15962.9875
1189.51451	15206.0875
1193.11091	14089.3875
1196.70485	12994.5875
1200.29634	11903.8875
1203.88538	10803.7875
1207.47197	9854.8875
1211.05612	9128.2875
1214.63782	8817.0875
1218.21708	8874.7875
1221.79391	9139.4875
1225.36829	9416.7875
1228.94024	9419.1875
1232.50976	9065.5875
1236.07685	8617.2875
1239.6415	8347.6875
1243.20374	8265.8875
1246.76355	8223.0875
1250.32093	8262.0875
1253.8759	8435.9875
1257.42845	8807.8875
1260.97859	9298.1875
1264.52631	9818.4875
1268.07163	10299.6875
1271.61453	10670.7875
1275.15503	10951.0875
1278.69312	11231.0875
1282.22882	11703.0875
1285.76211	12501.5875
1289.29301	13535.8875
1292.82151	14609.0875
1296.34761	15766.4875
1299.87133	17237.0875
1303.39266	19112.9875
1306.9116	21417.5875
1310.42815	23569.8875
1313.94233	24398.7875
1317.45412	23263.4875
1320.96354	21072.8875
1324.47058	18640.9875
1327.97525	16558.4875
1331.47754	15206.4875
1334.97747	14595.0875
1338.47502	14555.6875
1341.97022	14911.6875
1345.46305	15658.8875
1348.95352	16855.1875
1352.44163	18622.2875
1355.92738	21133.5875
1359.41078	24524.0875
1362.89183	27191.1875
1366.37053	26227.9875
1369.84688	21813.5875
1373.32088	17288.6875
1376.79254	14855.4875
1380.26186	13805.6875
1383.72883	13106.2875
1387.19347	12350.5875
1390.65578	11717.8875
1394.11575	11476.3875
1397.57339	11483.3875
1401.0287	11570.1875
1404.48168	11570.2875
1407.93234	11398.4875
1411.38068	11262.6875
1414.82669	11156.9875
1418.27039	11016.1875
1421.71177	10691.5875
1425.15083	10402.1875
1428.58758	10268.5875
1432.02203	10507.1875
1435.45416	10802.9875
1438.88399	10977.9875
1442.31151	11038.3875
1445.73673	11046.2875
1449.15965	10969.5875
1452.58027	10805.7875
1455.9986	10540.3875
1459.41463	10451.2875
1462.82837	10734.8875
1466.23982	11219.2875
1469.64898	11775.4875
1473.05586	12238.8875
1476.46045	12650.1875
1479.86276	12954.3875
1483.26279	13259.5875
1486.66054	13711.1875
1490.05602	14394.3875
1493.44922	15239.7875
1496.84016	16144.9875
1500.22882	17350.5875
1503.61521	18947.8875
1506.99934	20571.3875
1510.38121	21439.1875
1513.76081	20803.1875
1517.13816	18811.6875
1520.51324	16541.2875
1523.88607	14868.4875
1527.25665	13918.1875
1530.62498	13568.4875
1533.99105	13211.2875
1537.35488	12747.0875
1540.71647	12171.9875
1544.07581	11558.7875
1547.4329	11013.9875
1550.78776	10551.6875
1554.14038	10260.9875
1557.49077	10144.9875
1560.83892	10305.5875
1564.18484	10772.1875
1567.52853	11417.6875
1570.86999	11995.8875
1574.20922	12314.9875
1577.54624	12161.0875
1580.88103	11419.3875
1584.2136	10712.0875
1587.54395	10566.8875
1590.87208	11232.2875
1594.19801	12567.5875
1597.52172	14024.6875
1600.84321	14600.2875
1604.16251	13855.0875
1607.47959	12323.0875
1610.79447	10630.4875
1614.10715	9202.6875
1617.41763	8199.0875
1620.7259	7606.6875
1624.03199	7393.3875
1627.33587	7500.2875
1630.63757	7964.3875
1633.93707	8977.0875
1637.23439	10717.5875
1640.52951	13459.5875
1643.82246	16790.0875
1647.11321	19481.0875
1650.40179	19914.5875
1653.68819	17597.2875
1656.97241	13919.7875
1660.25446	10641.3875
1663.53433	8434.8875
1666.81203	7118.8875
1670.08756	6365.6875
1673.36092	5944.0875
1676.63211	5639.4875
1679.90115	5414.1875
1683.16801	5259.0875
1686.43272	5167.2875
1689.69527	5071.3875
1692.95567	4995.6875
1696.2139	4923.6875
1699.46999	4917.4875
1702.72392	4871.9875
1705.97571	4826.9875
1709.22535	4803.3875
1712.47284	4814.9875
1715.71819	4789.9875
1718.96139	4739.4875
1722.20246	4704.0875
1725.44139	4655.0875
1728.67818	4596.0875
1731.91284	4540.6875
1735.14537	4500.6875
1738.37576	4458.5875
1741.60403	4429.4875
1744.83017	4406.0875
1748.05418	4373.8875
1751.27607	4381.8875
1754.49584	4382.1875
1757.71349	4374.0875
1760.92903	4337.3875
1764.14244	4311.4875
1767.35375	4290.7875
1770.56294	4252.7875
1773.77002	4231.5875
1776.97499	4204.2875
1780.17785	4159.9875
1783.37861	4143.9875
1786.57727	4126.1875
1789.77382	4101.7875
1792.96828	4094.6875
1796.16064	4063.7875
1799.3509	4044.8875
1802.53907	4029.2875
1805.72514	4019.7875
1808.90913	3985.5875
1812.09102	3965.1875
1815.27083	3955.0875
1818.44856	3935.5875
1821.6242	3935.5875
1824.79776	3930.7875
1827.96924	3896.4875
1831.13864	3881.0875
1834.30597	3884.8875
1837.47122	3871.2875
1840.6344	3858.2875
1843.7955	3859.8875
1846.95454	3845.6875
1850.11151	3843.5875
1853.26642	3821.1875
1856.41926	3833.3875
1859.57004	3824.6875
1862.71876	3810.6875
1865.86542	3806.5875
1869.01003	3813.7875
1872.15258	3807.0875
1875.29308	3814.0875
1878.43152	3801.2875
1881.56792	3803.2875
1884.70227	3795.7875
1887.83457	3783.9875
1890.96482	3802.7875
1894.09304	3778.3875
1897.21921	3773.3875
1900.34335	3773.4875
1903.46544	3777.2875
1906.58551	3777.4875
1909.70353	3773.8875
1912.81953	3765.3875
1915.93349	3755.7875
1919.04543	3740.2875
1922.15534	3732.1875
1925.26322	3706.2875
1928.36908	3691.6875
1931.47292	3669.1875
1934.57473	3665.8875
1937.67453	3633.8875
1940.77232	3630.0875
1943.86808	3605.1875
1946.96184	3602.4875
1950.05358	3586.8875
1953.14331	3572.4875
1956.23103	3570.4875
1959.31675	3558.6875
1962.40046	3551.6875
1965.48217	3538.1875
1968.56188	3537.6875
1971.63959	3520.3875
1974.7153	3501.1875
1977.78901	3482.9875
1980.86073	3476.1875
1983.93046	3457.1875
1986.99819	3446.7875
1990.06394	3409.6875
1993.1277	3401.1875
1996.18947	3387.1875
1999.24925	3379.6875
2002.30706	3345.3875
2005.36288	3327.2875
2008.41672	3329.3875
2011.46859	3304.8875
2014.51848	3297.5875
2017.56639	3285.7875
2020.61233	3299.9875
2023.6563	3282.1875
2026.6983	3272.8875
2029.73833	3267.5875
2032.7764	3244.9875
2035.8125	3237.8875
2038.84664	3223.4875
2041.87881	3211.2875
2044.90903	3230.3875
2047.93729	3221.6875
2050.96359	3222.3875
2053.98794	3208.9875
2057.01034	3198.5875
2060.03078	3195.5875
2063.04927	3191.7875
2066.06582	3184.2875
2069.08042	3169.5875
2072.09307	3164.5875
2075.10378	3158.0875
2078.11255	3174.8875
2081.11938	3166.3875
2084.12426	3167.8875
2087.12722	3170.6875
2090.12824	3167.5875
2093.12732	3183.2875
2096.12447	3180.8875
2099.11969	3185.1875
2102.11299	3167.5875
2105.10435	3161.5875
2108.09379	3160.9875
2111.08131	3153.9875
2114.0669	3171.4875
2117.05057	3165.1875
2120.03233	3163.3875
2123.01216	3165.8875
2125.99008	3179.9875
2128.96609	3185.6875
2131.94018	3161.0875
2134.91236	3175.3875
2137.88263	3162.6875
2140.851	3149.8875
2143.81746	3167.0875
2146.78201	3138.9875
2149.74466	3122.4875
2152.7054	3117.2875
2155.66425	3107.0875
2158.6212	3096.4875
2161.57625	3107.8875
2164.52941	3089.7875
2167.48067	3091.5875
2170.43004	3075.4875
2173.37752	3069.4875
2176.32311	3066.1875
2179.26681	3066.3875
2182.20863	3071.0875
2185.14856	3067.0875
2188.08661	3075.1875
2191.02278	3067.1875
2193.95707	3073.4875
2196.88948	3068.2875
2199.82001	3059.4875
2202.74867	3050.6875
2205.67545	3033.2875
2208.60037	3040.6875
2211.52341	3037.2875
2214.44458	3011.6875
2217.36388	2981.6875
2220.28132	2985.3875
2223.1969	2974.6875
2226.11061	2971.8875
2229.02246	2970.8875
2231.93245	2978.4875
2234.84058	2965.6875
2237.74686	2969.8875
2240.65128	2967.0875
2243.55385	2974.4875
2246.45456	2971.8875
2249.35343	2975.1875
2252.25044	2965.0875
2255.14561	2957.1875
2258.03893	2951.3875
2260.93041	2942.4875
2263.82004	2936.5875
2266.70783	2923.0875
2269.59378	2902.9875
2272.4779	2898.0875
2275.36017	2881.4875
2278.24061	2892.2875
2281.11922	2878.5875
2283.996	2863.0875
2286.87094	2849.5875
2289.74405	2845.9875
2292.61534	2829.5875
2295.4848	2829.3875
2298.35243	2815.3875
2301.21824	2815.4875
2304.08223	2823.6875
2306.94439	2816.0875
2309.80474	2809.2875
2312.66327	2808.4875
2315.51999	2794.5875
2318.37489	2792.7875
2321.22797	2785.8875
2324.07925	2781.6875
2326.92871	2766.2875
2329.77637	2790.1875
2332.62222	2763.8875
2335.46626	2771.7875
2338.3085	2779.5875
2341.14893	2766.0875
2343.98756	2766.3875
2346.8244	2775.0875
2349.65943	2774.2875
2352.49267	2780.0875
2355.32411	2785.8875
2358.15376	2784.1875
2360.98161	2788.6875
2363.80768	2798.7875
2366.63195	2804.6875
2369.45444	2814.5875
2372.27514	2806.6875
2375.09405	2805.8875
2377.91118	2802.2875
2380.72652	2783.8875
2383.54009	2791.0875
2386.35187	2770.0875
2389.16188	2739.1875
2391.97011	2730.4875
2394.77657	2726.8875
2397.58125	2719.8875
2400.38416	2708.5875
2403.18529	2701.7875
2405.98466	2716.1875
2408.78226	2695.6875
2411.57809	2675.2875
2414.37216	2670.5875
2417.16446	2673.8875
2419.955	2675.7875
2422.74378	2677.3875
2425.5308	2677.9875
2428.31606	2675.9875
2431.09956	2678.3875
2433.88131	2664.9875
2436.6613	2682.9875
2439.43954	2664.0875
2442.21603	2669.0875
2444.99077	2664.5875
2447.76377	2673.5875
2450.53501	2678.6875
2453.30451	2678.6875
2456.07226	2690.1875
2458.83827	2679.3875
2461.60254	2686.0875
2464.36507	2678.1875
2467.12586	2680.4875
2469.88492	2681.6875
2472.64224	2681.0875
2475.39782	2677.8875
2478.15167	2695.5875
2480.90379	2699.0875
2483.65417	2704.8875
2486.40283	2720.8875
2489.14976	2720.2875
2491.89497	2719.8875
2494.63845	2733.0875
2497.3802	2737.0875
2500.12024	2715.7875
2502.85855	2719.4875
2505.59514	2700.2875
2508.33002	2691.8875
2511.06318	2674.1875
2513.79462	2671.4875
2516.52435	2651.5875
2519.25237	2656.0875
2521.97867	2630.2875
2524.70327	2634.8875
2527.42616	2624.0875
2530.14734	2617.9875
2532.86681	2616.5875
2535.58458	2634.6875
2538.30065	2629.6875
2541.01501	2640.2875
2543.72768	2634.5875
2546.43864	2638.5875
2549.14791	2643.4875
2551.85548	2630.5875
2554.56136	2611.8875
2557.26554	2630.8875
2559.96803	2625.9875
2562.66883	2620.3875
2565.36794	2610.6875
2568.06536	2615.0875
2570.7611	2612.5875
2573.45514	2591.8875
2576.14751	2591.1875
2578.83819	2594.4875
2581.52719	2589.8875
2584.21451	2596.1875
2586.90015	2586.4875
2589.58411	2590.8875
2592.2664	2588.9875
2594.94701	2588.6875
2597.62594	2596.8875
2600.30321	2593.8875
2602.9788	2589.0875
2605.65273	2597.2875
2608.32498	2585.9875
2610.99557	2593.8875
2613.66449	2603.6875
2616.33175	2593.4875
2618.99734	2596.5875
2621.66128	2585.5875
2624.32355	2583.2875
2626.98416	2585.2875
2629.64311	2574.8875
2632.30041	2574.3875
2634.95605	2576.7875
2637.61004	2566.9875
2640.26238	2558.8875
2642.91306	2576.0875
2645.56209	2563.7875
2648.20948	2571.9875
2650.85521	2568.1875
2653.4993	2575.9875
2656.14175	2577.3875
2658.78255	2580.1875
2661.42171	2586.7875
2664.05923	2594.6875
2666.6951	2607.1875
2669.32934	2617.1875
2671.96194	2603.5875
2674.59291	2610.2875
2677.22224	2597.0875
2679.84993	2608.3875
2682.476	2584.6875
2685.10043	2601.8875
2687.72324	2583.1875
2690.34441	2583.9875
2692.96396	2575.5875
2695.58188	2570.7875
2698.19818	2580.2875
2700.81285	2573.6875
2703.4259	2574.9875
2706.03733	2568.3875
2708.64714	2582.9875
2711.25533	2581.1875
2713.86191	2590.4875
2716.46687	2588.9875
2719.07021	2594.2875
2721.67194	2601.3875
2724.27206	2601.8875
2726.87057	2616.5875
2729.46747	2612.6875
2732.06276	2614.6875
2734.65644	2621.3875
2737.24852	2603.2875
2739.83899	2593.7875
2742.42786	2601.6875
2745.01513	2590.8875
2747.60079	2588.2875
2750.18486	2573.5875
2752.76733	2589.2875
2755.3482	2581.7875
2757.92747	2574.0875
2760.50515	2572.8875
2763.08123	2567.4875
2765.65573	2562.2875
2768.22863	2558.5875
2770.79994	2556.3875
2773.36967	2566.1875
2775.9378	2565.6875
2778.50435	2567.3875
2781.06932	2562.2875
2783.6327	2575.2875
2786.1945	2574.1875
2788.75471	2578.0875
2791.31335	2577.3875
2793.87041	2583.5875
2796.42589	2572.6875
2798.97979	2576.4875
2801.53212	2581.3875
2804.08288	2580.2875
2806.63206	2572.8875
2809.17967	2572.0875
2811.72571	2583.9875
2814.27018	2584.7875
2816.81308	2582.2875
2819.35442	2582.5875
2821.89419	2580.1875
2824.43239	2597.3875
2826.96904	2599.6875
2829.50412	2593.6875
2832.03763	2582.4875
2834.56959	2583.6875
2837.1	2588.8875
2839.62884	2589.8875
2842.15613	2593.0875
2844.68186	2595.8875
2847.20604	2598.1875
2849.72867	2608.3875
2852.24974	2612.3875
2854.76927	2616.0875
2857.28724	2621.5875
2859.80367	2629.5875
2862.31855	2624.8875
2864.83189	2646.0875
2867.34368	2656.2875
2869.85393	2664.6875
2872.36264	2665.8875
2874.8698	2672.4875
2877.37543	2658.4875
2879.87952	2665.2875
2882.38207	2671.6875
2884.88308	2668.7875
2887.38256	2689.7875
2889.88051	2668.1875
2892.37692	2679.8875
2894.8718	2697.3875
2897.36515	2701.4875
2899.85698	2717.3875
2902.34727	2745.7875
2904.83604	2750.7875
2907.32328	2758.9875
2909.809	2754.9875
2912.29319	2784.3875
2914.77587	2772.0875
2917.25702	2779.4875
2919.73665	2784.2875
2922.21476	2788.7875
2924.69136	2790.8875
2927.16644	2793.5875
2929.64	2776.9875
2932.11205	2764.3875
2934.58258	2751.5875
2937.05161	2770.5875
2939.51912	2755.0875
2941.98513	2753.2875
2944.44962	2741.1875
2946.91261	2729.1875
2949.37409	2717.1875
2951.83407	2719.5875
2954.29254	2711.5875
2956.74951	2695.1875
2959.20498	2665.5875
2961.65895	2658.8875
2964.11142	2636.4875
2966.56239	2631.8875
2969.01186	2613.8875
2971.45984	2590.3875
2973.90632	2590.4875
2976.35131	2567.3875
2978.7948	2552.1875
2981.23681	2542.4875
2983.67732	2537.2875
2986.11635	2515.4875
2988.55388	2497.9875
2990.98993	2495.2875
2993.4245	2488.2875
2995.85758	2477.3875
2998.28917	2466.5875
3000.71928	2461.7875
3003.14791	2461.2875
3005.57506	2453.7875
3008.00073	2443.6875
3010.42493	2400.9875
3012.84764	2424.3875
3015.26888	2425.0875
3017.68865	2410.5875
3020.10694	2408.2875
3022.52376	2406.6875
3024.9391	2395.8875
3027.35298	2387.5875
3029.76539	2370.1875
3032.17632	2368.0875
3034.5858	2346.2875
3036.9938	2361.6875
3039.40034	2372.3875
3041.80542	2371.6875
3044.20903	2362.6875
3046.61118	2363.4875
3049.01187	2369.5875
3051.4111	2365.3875
3053.80888	2364.7875
3056.20519	2363.5875
3058.60005	2368.2875
3060.99345	2369.4875
3063.3854	2351.8875
3065.7759	2347.7875
3068.16494	2336.2875
3070.55254	2334.4875
3072.93868	2319.4875
3075.32338	2298.8875
3077.70662	2298.9875
3080.08842	2300.1875
3082.46878	2304.9875
3084.84769	2306.9875
3087.22515	2307.1875
3089.60118	2307.7875
3091.97576	2300.0875
3094.3489	2306.4875
3096.72061	2304.3875
3099.09087	2305.8875
3101.4597	2313.0875
3103.82709	2317.7875
3106.19305	2307.0875
3108.55757	2317.6875
3110.92066	2304.8875
3113.28232	2313.1875
3115.64255	2314.8875
3118.00134	2319.7875
3120.35871	2320.5875
3122.71466	2317.6875
3125.06917	2315.4875
3127.42226	2316.6875
3129.77393	2328.9875
3132.12417	2324.1875
3134.47299	2325.7875
3136.82039	2337.0875
3139.16636	2336.3875
3141.51092	2333.8875
3143.85406	2348.7875
3146.19579	2332.9875
3148.53609	2344.1875
3150.87499	2347.7875
3153.21246	2367.9875
3155.54853	2361.1875
3157.88318	2366.6875
3160.21642	2376.2875
3162.54826	2368.3875
3164.87868	2379.0875
3167.2077	2382.7875
3169.5353	2392.5875
3171.86151	2393.7875
3174.18631	2415.2875
3176.5097	2414.3875
3178.83169	2398.0875
3181.15228	2418.9875
3183.47147	2403.3875
3185.78926	2410.3875
3188.10565	2408.8875
3190.42065	2396.8875
3192.73424	2420.8875
3195.04645	2420.4875
3197.35725	2407.9875
3199.66667	2424.1875
3201.97469	2412.8875
3204.28132	2431.1875
3206.58656	2440.8875
3208.8904	2439.2875
3211.19287	2442.1875
3213.49394	2444.8875
3215.79363	2430.1875
3218.09193	2459.5875
3220.38884	2463.4875
3222.68438	2464.7875
3224.97853	2462.6875
3227.2713	2467.3875
3229.56269	2466.5875
3231.8527	2470.5875
3234.14133	2454.4875
3236.42858	2465.9875
3238.71446	2458.3875
3240.99896	2454.8875
3243.28209	2460.3875
3245.56384	2456.8875
3247.84423	2454.6875
3250.12324	2444.6875
3252.40088	2440.6875
3254.67715	2432.3875
3256.95205	2432.3875
3259.22558	2444.7875
3261.49775	2439.9875
3263.76855	2436.8875
3266.03799	2433.1875
3268.30606	2437.5875
3270.57277	2439.2875
3272.83812	2431.5875
3275.10211	2424.9875
3277.36474	2432.1875
3279.62601	2429.3875
3281.88593	2441.1875
3284.14448	2437.1875
3286.40168	2446.4875
3288.65753	2437.3875
3290.91202	2446.3875
3293.16516	2445.1875
3295.41695	2443.3875
3297.66738	2440.1875
3299.91647	2430.1875
3302.16421	2419.7875
3304.4106	2391.4875
3306.65564	2386.8875
3308.89933	2360.9875
3311.14169	2355.2875
3313.38269	2321.6875
3315.62236	2320.3875
3317.86068	2290.7875
3320.09766	2279.6875
3322.3333	2270.9875
3324.5676	2257.4875
3326.80056	2220.1875
3329.03219	2218.5875
3331.26248	1.2875
3333.49143	1.0875
3335.71905	0.8875
