Data from AgNPs_UA_5uM_CRN_500uM_AS_RamanShift__14__13-13-53-835.txt Node

Date: Wed Aug 17 13:13:53 BST 2022
User: TCL
Spectrometer: QEP01345
Trigger mode: 4
Integration Time (sec): 7.000000E0
Scans to average: 10
Electric dark correction enabled: true
Nonlinearity correction enabled: false
Boxcar width: 0
XAxis mode: Raman Shifts
Number of Pixels in Spectrum: 1044
>>>>>Begin Spectral Data<<<<<
46.04893	0.4875
50.45542	0.4875
54.85868	-0.0125
59.25871	-0.4125
63.6555	44.5875
68.04907	46.3875
72.43941	51.1875
76.82654	56.5875
81.21044	59.1875
85.59113	64.0875
89.96862	65.7875
94.34289	70.8875
98.71396	70.5875
103.08183	71.9875
107.4465	73.2875
111.80798	71.5875
116.16626	71.6875
120.52136	72.6875
124.87327	71.3875
129.222	72.8875
133.56755	73.5875
137.90993	73.7875
142.24913	73.0875
146.58517	75.6875
150.91804	77.1875
155.24774	83.3875
159.57429	90.4875
163.89768	107.3875
168.21792	117.8875
172.53501	144.9875
176.84895	181.5875
181.15975	233.9875
185.46741	313.2875
189.77193	423.4875
194.07331	574.5875
198.37157	740.9875
202.6667	931.0875
206.9587	1119.3875
211.24758	1335.1875
215.53334	1542.7875
219.81599	1747.0875
224.09553	1966.0875
228.37195	2171.1875
232.64527	2376.1875
236.91549	2581.9875
241.18261	2786.0875
245.44663	2951.3875
249.70755	3103.7875
253.96539	3208.3875
258.22014	3245.6875
262.4718	3253.0875
266.72039	3222.3875
270.96589	3142.6875
275.20832	3039.8875
279.44768	2902.8875
283.68397	2785.6875
287.91719	2669.2875
292.14735	2532.3875
296.37445	2430.6875
300.59849	2333.2875
304.81948	2275.1875
309.03742	2207.4875
313.25231	2164.8875
317.46415	2125.4875
321.67296	2095.1875
325.87872	2065.3875
330.08145	2042.6875
334.28114	2058.1875
338.47781	2060.3875
342.67145	2074.8875
346.86207	2087.9875
351.04966	2091.8875
355.23424	2101.3875
359.4158	2106.4875
363.59435	2109.2875
367.76989	2105.2875
371.94243	2108.9875
376.11196	2108.0875
380.27849	2096.4875
384.44203	2110.4875
388.60257	2114.3875
392.76012	2122.3875
396.91468	2142.1875
401.06626	2154.6875
405.21485	2161.9875
409.36047	2173.7875
413.50311	2175.4875
417.64277	2189.2875
421.77947	2195.2875
425.9132	2214.0875
430.04396	2220.6875
434.17176	2239.1875
438.2966	2258.3875
442.41849	2280.9875
446.53742	2298.2875
450.6534	2307.2875
454.76644	2314.6875
458.87653	2341.6875
462.98368	2352.1875
467.08789	2359.3875
471.18916	2345.6875
475.2875	2370.5875
479.38291	2368.2875
483.4754	2365.6875
487.56496	2371.2875
491.6516	2371.7875
495.73531	2377.8875
499.81612	2393.3875
503.89401	2398.4875
507.96899	2411.4875
512.04106	2399.0875
516.11023	2389.9875
520.1765	2395.0875
524.23987	2378.4875
528.30034	2378.2875
532.35792	2386.5875
536.41261	2388.8875
540.46441	2399.6875
544.51333	2406.9875
548.55936	2413.7875
552.60252	2415.9875
556.64279	2431.5875
560.6802	2429.3875
564.71473	2443.5875
568.7464	2475.7875
572.7752	2494.9875
576.80114	2487.9875
580.82422	2485.2875
584.84444	2482.1875
588.86181	2480.6875
592.87633	2479.2875
596.888	2504.2875
600.89682	2529.4875
604.9028	2551.7875
608.90594	2588.6875
612.90624	2661.4875
616.90371	2631.4875
620.89834	2610.9875
624.89015	2593.8875
628.87913	2590.9875
632.86528	2588.5875
636.84862	2610.0875
640.82913	2615.0875
644.80683	2642.2875
648.78172	2676.3875
652.75379	2691.7875
656.72306	2705.7875
660.68952	2723.1875
664.65319	2757.7875
668.61405	2829.3875
672.57211	3010.1875
676.52738	3258.3875
680.47986	3476.9875
684.42955	3593.2875
688.37646	3552.0875
692.32058	3414.7875
696.26192	3264.2875
700.20048	3169.6875
704.13626	3092.9875
708.06928	3047.9875
711.99952	2968.4875
715.927	2905.5875
719.85171	2868.6875
723.77365	2857.9875
727.69284	2867.3875
731.60928	2868.0875
735.52295	2852.2875
739.43388	2824.0875
743.34206	2819.0875
747.24749	2821.7875
751.15017	2825.8875
755.05012	2845.3875
758.94733	2871.3875
762.8418	2888.1875
766.73354	2878.1875
770.62254	2875.1875
774.50882	2849.3875
778.39237	2829.6875
782.27321	2788.8875
786.15132	2761.1875
790.02671	2762.5875
793.89938	2747.4875
797.76935	2743.0875
801.6366	2741.0875
805.50115	2755.8875
809.36299	2749.1875
813.22213	2756.0875
817.07857	2741.0875
820.93231	2748.8875
824.78336	2743.1875
828.63172	2739.2875
832.47738	2748.3875
836.32036	2745.3875
840.16066	2757.2875
843.99827	2757.7875
847.8332	2756.6875
851.66546	2765.5875
855.49504	2760.6875
859.32195	2775.5875
863.1462	2789.9875
866.96777	2803.1875
870.78668	2817.3875
874.60293	2837.7875
878.41652	2850.6875
882.22745	2858.6875
886.03573	2859.4875
889.84136	2848.4875
893.64433	2851.3875
897.44466	2844.6875
901.24235	2865.4875
905.0374	2856.8875
908.8298	2881.0875
912.61957	2872.5875
916.40671	2884.1875
920.19121	2879.2875
923.97308	2884.7875
927.75233	2895.2875
931.52895	2911.0875
935.30295	2894.6875
939.07433	2904.9875
942.84309	2888.8875
946.60924	2864.7875
950.37278	2857.1875
954.13371	2846.2875
957.89203	2827.1875
961.64774	2851.6875
965.40086	2837.8875
969.15137	2836.4875
972.89929	2811.8875
976.64461	2811.2875
980.38733	2811.2875
984.12747	2794.0875
987.86502	2795.6875
991.59999	2794.6875
995.33237	2790.2875
999.06217	2804.9875
1002.78939	2800.2875
1006.51404	2800.5875
1010.23611	2807.0875
1013.95561	2823.8875
1017.67255	2824.9875
1021.38692	2824.5875
1025.09872	2835.2875
1028.80796	2838.1875
1032.51465	2849.1875
1036.21877	2874.5875
1039.92035	2887.4875
1043.61937	2927.7875
1047.31584	2961.0875
1051.00976	2973.6875
1054.70114	2986.6875
1058.38998	2977.3875
1062.07627	2964.0875
1065.76003	2931.7875
1069.44126	2896.6875
1073.11995	2882.2875
1076.79611	2859.6875
1080.46974	2855.4875
1084.14085	2845.8875
1087.80943	2824.1875
1091.47549	2832.0875
1095.13903	2823.2875
1098.80005	2812.3875
1102.45857	2824.0875
1106.11456	2807.8875
1109.76805	2814.9875
1113.41903	2821.0875
1117.06751	2815.0875
1120.71348	2827.0875
1124.35696	2833.9875
1127.99793	2836.2875
1131.63641	2846.2875
1135.2724	2833.7875
1138.90589	2847.0875
1142.5369	2829.3875
1146.16542	2838.9875
1149.79145	2813.7875
1153.415	2833.1875
1157.03607	2810.7875
1160.65467	2819.3875
1164.27079	2825.6875
1167.88443	2833.9875
1171.49561	2848.4875
1175.10432	2854.7875
1178.71056	2865.9875
1182.31434	2873.3875
1185.91565	2880.3875
1189.51451	2889.0875
1193.11091	2890.7875
1196.70485	2881.9875
1200.29634	2884.2875
1203.88538	2867.1875
1207.47197	2858.5875
1211.05612	2847.6875
1214.63782	2852.1875
1218.21708	2850.8875
1221.79391	2857.3875
1225.36829	2861.1875
1228.94024	2885.0875
1232.50976	2895.6875
1236.07685	2898.8875
1239.6415	2924.3875
1243.20374	2960.5875
1246.76355	2963.9875
1250.32093	2998.4875
1253.8759	3027.4875
1257.42845	3042.3875
1260.97859	3026.7875
1264.52631	3027.3875
1268.07163	3012.2875
1271.61453	2993.9875
1275.15503	2999.4875
1278.69312	2980.7875
1282.22882	2979.4875
1285.76211	2971.5875
1289.29301	2974.8875
1292.82151	2978.3875
1296.34761	2991.4875
1299.87133	2999.5875
1303.39266	3012.8875
1306.9116	3020.3875
1310.42815	3036.7875
1313.94233	3052.7875
1317.45412	3048.8875
1320.96354	3036.4875
1324.47058	3043.5875
1327.97525	3025.8875
1331.47754	3029.7875
1334.97747	3029.8875
1338.47502	3037.8875
1341.97022	3050.2875
1345.46305	3076.5875
1348.95352	3112.7875
1352.44163	3155.1875
1355.92738	3167.6875
1359.41078	3196.6875
1362.89183	3234.2875
1366.37053	3227.5875
1369.84688	3192.6875
1373.32088	3151.1875
1376.79254	3098.4875
1380.26186	3063.5875
1383.72883	3040.7875
1387.19347	3021.7875
1390.65578	2993.9875
1394.11575	2967.0875
1397.57339	2975.5875
1401.0287	2957.0875
1404.48168	2988.3875
1407.93234	3003.8875
1411.38068	3019.1875
1414.82669	3053.2875
1418.27039	3050.4875
1421.71177	3061.8875
1425.15083	3029.1875
1428.58758	2994.1875
1432.02203	2954.3875
1435.45416	2926.7875
1438.88399	2911.8875
1442.31151	2914.6875
1445.73673	2915.3875
1449.15965	2915.5875
1452.58027	2924.3875
1455.9986	2932.2875
1459.41463	2939.3875
1462.82837	2940.2875
1466.23982	2945.3875
1469.64898	2940.1875
1473.05586	2940.4875
1476.46045	2918.7875
1479.86276	2894.8875
1483.26279	2857.6875
1486.66054	2844.4875
1490.05602	2864.0875
1493.44922	2857.0875
1496.84016	2863.1875
1500.22882	2875.5875
1503.61521	2900.7875
1506.99934	2936.7875
1510.38121	2947.8875
1513.76081	2943.7875
1517.13816	2927.8875
1520.51324	2910.8875
1523.88607	2896.1875
1527.25665	2889.5875
1530.62498	2885.1875
1533.99105	2880.9875
1537.35488	2887.2875
1540.71647	2889.7875
1544.07581	2900.1875
1547.4329	2903.2875
1550.78776	2913.6875
1554.14038	2918.6875
1557.49077	2927.1875
1560.83892	2938.4875
1564.18484	2962.4875
1567.52853	2945.3875
1570.86999	2948.5875
1574.20922	2954.6875
1577.54624	2937.9875
1580.88103	2937.6875
1584.2136	2918.0875
1587.54395	2925.2875
1590.87208	2928.1875
1594.19801	2924.8875
1597.52172	2938.6875
1600.84321	2935.9875
1604.16251	2935.3875
1607.47959	2931.4875
1610.79447	2920.9875
1614.10715	2901.4875
1617.41763	2868.9875
1620.7259	2863.9875
1624.03199	2856.9875
1627.33587	2822.5875
1630.63757	2836.3875
1633.93707	2832.1875
1637.23439	2844.3875
1640.52951	2828.0875
1643.82246	2845.9875
1647.11321	2866.8875
1650.40179	2875.9875
1653.68819	2871.4875
1656.97241	2850.2875
1660.25446	2839.1875
1663.53433	2830.2875
1666.81203	2831.7875
1670.08756	2824.6875
1673.36092	2826.1875
1676.63211	2830.6875
1679.90115	2832.3875
1683.16801	2823.8875
1686.43272	2828.0875
1689.69527	2830.3875
1692.95567	2820.3875
1696.2139	2826.8875
1699.46999	2832.7875
1702.72392	2821.5875
1705.97571	2805.7875
1709.22535	2808.6875
1712.47284	2804.2875
1715.71819	2797.3875
1718.96139	2781.0875
1722.20246	2770.1875
1725.44139	2768.5875
1728.67818	2781.5875
1731.91284	2754.8875
1735.14537	2779.9875
1738.37576	2779.9875
1741.60403	2800.3875
1744.83017	2834.7875
1748.05418	2893.4875
1751.27607	2971.1875
1754.49584	3074.9875
1757.71349	3147.0875
1760.92903	3197.9875
1764.14244	3197.8875
1767.35375	3141.5875
1770.56294	3062.0875
1773.77002	2990.1875
1776.97499	2896.1875
1780.17785	2843.9875
1783.37861	2806.6875
1786.57727	2766.2875
1789.77382	2736.7875
1792.96828	2682.1875
1796.16064	2643.3875
1799.3509	2616.9875
1802.53907	2581.3875
1805.72514	2557.6875
1808.90913	2542.2875
1812.09102	2523.6875
1815.27083	2507.9875
1818.44856	2500.1875
1821.6242	2489.2875
1824.79776	2480.1875
1827.96924	2459.5875
1831.13864	2451.6875
1834.30597	2451.0875
1837.47122	2451.5875
1840.6344	2437.6875
1843.7955	2450.4875
1846.95454	2435.2875
1850.11151	2441.3875
1853.26642	2428.9875
1856.41926	2435.1875
1859.57004	2427.0875
1862.71876	2418.1875
1865.86542	2419.8875
1869.01003	2413.5875
1872.15258	2411.5875
1875.29308	2427.1875
1878.43152	2425.4875
1881.56792	2420.7875
1884.70227	2418.1875
1887.83457	2417.8875
1890.96482	2415.6875
1894.09304	2406.7875
1897.21921	2406.6875
1900.34335	2415.3875
1903.46544	2411.4875
1906.58551	2408.2875
1909.70353	2407.9875
1912.81953	2405.3875
1915.93349	2418.2875
1919.04543	2410.1875
1922.15534	2419.1875
1925.26322	2422.9875
1928.36908	2410.6875
1931.47292	2413.2875
1934.57473	2415.5875
1937.67453	2416.9875
1940.77232	2412.3875
1943.86808	2400.8875
1946.96184	2399.3875
1950.05358	2388.9875
1953.14331	2389.3875
1956.23103	2385.4875
1959.31675	2377.8875
1962.40046	2363.1875
1965.48217	2369.5875
1968.56188	2358.7875
1971.63959	2337.9875
1974.7153	2329.9875
1977.78901	2326.9875
1980.86073	2305.8875
1983.93046	2291.9875
1986.99819	2305.2875
1990.06394	2284.4875
1993.1277	2272.8875
1996.18947	2269.2875
1999.24925	2275.7875
2002.30706	2257.1875
2005.36288	2248.0875
2008.41672	2228.1875
2011.46859	2231.4875
2014.51848	2237.8875
2017.56639	2236.1875
2020.61233	2217.8875
2023.6563	2211.1875
2026.6983	2207.8875
2029.73833	2208.6875
2032.7764	2201.5875
2035.8125	2187.7875
2038.84664	2193.2875
2041.87881	2180.1875
2044.90903	2168.3875
2047.93729	2161.0875
2050.96359	2175.4875
2053.98794	2171.6875
2057.01034	2169.3875
2060.03078	2180.8875
2063.04927	2178.1875
2066.06582	2175.5875
2069.08042	2170.5875
2072.09307	2162.3875
2075.10378	2183.5875
2078.11255	2168.4875
2081.11938	2179.1875
2084.12426	2179.3875
2087.12722	2164.5875
2090.12824	2180.9875
2093.12732	2190.5875
2096.12447	2182.8875
2099.11969	2187.1875
2102.11299	2181.5875
2105.10435	2184.9875
2108.09379	2178.7875
2111.08131	2184.3875
2114.0669	2186.9875
2117.05057	2186.3875
2120.03233	2186.6875
2123.01216	2193.9875
2125.99008	2195.9875
2128.96609	2194.8875
2131.94018	2200.4875
2134.91236	2210.4875
2137.88263	2199.3875
2140.851	2187.5875
2143.81746	2204.4875
2146.78201	2200.7875
2149.74466	2197.8875
2152.7054	2198.8875
2155.66425	2189.7875
2158.6212	2202.2875
2161.57625	2206.3875
2164.52941	2188.5875
2167.48067	2191.4875
2170.43004	2190.7875
2173.37752	2184.0875
2176.32311	2179.2875
2179.26681	2193.2875
2182.20863	2183.2875
2185.14856	2188.2875
2188.08661	2182.2875
2191.02278	2184.2875
2193.95707	2178.5875
2196.88948	2179.0875
2199.82001	2182.8875
2202.74867	2168.1875
2205.67545	2178.7875
2208.60037	2171.3875
2211.52341	2172.4875
2214.44458	2171.7875
2217.36388	2164.4875
2220.28132	2159.5875
2223.1969	2146.2875
2226.11061	2149.0875
2229.02246	2137.9875
2231.93245	2140.7875
2234.84058	2127.7875
2237.74686	2129.4875
2240.65128	2124.8875
2243.55385	2119.6875
2246.45456	2118.6875
2249.35343	2122.4875
2252.25044	2119.3875
2255.14561	2118.0875
2258.03893	2113.4875
2260.93041	2109.8875
2263.82004	2103.0875
2266.70783	2096.8875
2269.59378	2096.3875
2272.4779	2089.3875
2275.36017	2082.6875
2278.24061	2074.6875
2281.11922	2064.6875
2283.996	2068.5875
2286.87094	2070.6875
2289.74405	2067.2875
2292.61534	2052.8875
2295.4848	2054.9875
2298.35243	2053.6875
2301.21824	2049.6875
2304.08223	2049.0875
2306.94439	2047.5875
2309.80474	2046.6875
2312.66327	2043.4875
2315.51999	2037.3875
2318.37489	2042.1875
2321.22797	2039.8875
2324.07925	2032.4875
2326.92871	2038.3875
2329.77637	2031.6875
2332.62222	2027.4875
2335.46626	2025.7875
2338.3085	2025.8875
2341.14893	2039.3875
2343.98756	2007.7875
2346.8244	2012.3875
2349.65943	2011.4875
2352.49267	2009.5875
2355.32411	2002.2875
2358.15376	2008.0875
2360.98161	2015.8875
2363.80768	2000.0875
2366.63195	2004.0875
2369.45444	1997.0875
2372.27514	2000.4875
2375.09405	2002.1875
2377.91118	2002.2875
2380.72652	1996.7875
2383.54009	1990.0875
2386.35187	1989.5875
2389.16188	1987.4875
2391.97011	1984.9875
2394.77657	1971.6875
2397.58125	1967.5875
2400.38416	1980.0875
2403.18529	1965.0875
2405.98466	1959.1875
2408.78226	1965.7875
2411.57809	1962.6875
2414.37216	1957.5875
2417.16446	1949.7875
2419.955	1951.3875
2422.74378	1958.3875
2425.5308	1943.6875
2428.31606	1951.6875
2431.09956	1949.3875
2433.88131	1947.9875
2436.6613	1948.5875
2439.43954	1936.6875
2442.21603	1926.9875
2444.99077	1932.9875
2447.76377	1938.0875
2450.53501	1930.9875
2453.30451	1925.0875
2456.07226	1913.9875
2458.83827	1912.9875
2461.60254	1919.9875
2464.36507	1918.9875
2467.12586	1914.6875
2469.88492	1906.3875
2472.64224	1915.9875
2475.39782	1920.2875
2478.15167	1909.7875
2480.90379	1913.4875
2483.65417	1911.8875
2486.40283	1903.7875
2489.14976	1911.9875
2491.89497	1900.7875
2494.63845	1905.4875
2497.3802	1911.7875
2500.12024	1897.1875
2502.85855	1902.0875
2505.59514	1895.2875
2508.33002	1885.3875
2511.06318	1889.6875
2513.79462	1880.2875
2516.52435	1880.6875
2519.25237	1877.8875
2521.97867	1881.4875
2524.70327	1874.9875
2527.42616	1877.6875
2530.14734	1871.9875
2532.86681	1866.5875
2535.58458	1869.2875
2538.30065	1872.1875
2541.01501	1864.9875
2543.72768	1862.8875
2546.43864	1860.1875
2549.14791	1855.7875
2551.85548	1857.5875
2554.56136	1849.1875
2557.26554	1851.1875
2559.96803	1839.7875
2562.66883	1845.3875
2565.36794	1834.2875
2568.06536	1824.5875
2570.7611	1817.3875
2573.45514	1820.3875
2576.14751	1824.1875
2578.83819	1822.4875
2581.52719	1811.6875
2584.21451	1819.1875
2586.90015	1815.9875
2589.58411	1808.5875
2592.2664	1802.4875
2594.94701	1802.7875
2597.62594	1803.7875
2600.30321	1799.0875
2602.9788	1803.8875
2605.65273	1793.2875
2608.32498	1779.7875
2610.99557	1791.2875
2613.66449	1782.5875
2616.33175	1789.7875
2618.99734	1780.1875
2621.66128	1780.9875
2624.32355	1770.7875
2626.98416	1770.4875
2629.64311	1772.6875
2632.30041	1765.1875
2634.95605	1766.0875
2637.61004	1751.2875
2640.26238	1750.5875
2642.91306	1768.0875
2645.56209	1756.6875
2648.20948	1763.3875
2650.85521	1767.4875
2653.4993	1754.1875
2656.14175	1749.0875
2658.78255	1754.6875
2661.42171	1753.5875
2664.05923	1753.7875
2666.6951	1754.0875
2669.32934	1761.7875
2671.96194	1763.4875
2674.59291	1769.6875
2677.22224	1756.1875
2679.84993	1758.8875
2682.476	1763.0875
2685.10043	1752.3875
2687.72324	1742.8875
2690.34441	1741.3875
2692.96396	1748.6875
2695.58188	1752.5875
2698.19818	1748.5875
2700.81285	1750.0875
2703.4259	1747.6875
2706.03733	1754.6875
2708.64714	1744.6875
2711.25533	1753.7875
2713.86191	1747.8875
2716.46687	1749.5875
2719.07021	1747.4875
2721.67194	1761.2875
2724.27206	1763.0875
2726.87057	1754.4875
2729.46747	1756.4875
2732.06276	1764.7875
2734.65644	1754.9875
2737.24852	1751.6875
2739.83899	1751.1875
2742.42786	1753.1875
2745.01513	1738.2875
2747.60079	1745.2875
2750.18486	1740.5875
2752.76733	1737.8875
2755.3482	1736.8875
2757.92747	1741.5875
2760.50515	1732.7875
2763.08123	1728.1875
2765.65573	1726.8875
2768.22863	1730.4875
2770.79994	1718.4875
2773.36967	1719.0875
2775.9378	1719.2875
2778.50435	1720.7875
2781.06932	1712.1875
2783.6327	1716.8875
2786.1945	1714.1875
2788.75471	1716.2875
2791.31335	1715.9875
2793.87041	1713.5875
2796.42589	1717.9875
2798.97979	1717.5875
2801.53212	1710.3875
2804.08288	1702.2875
2806.63206	1707.7875
2809.17967	1696.9875
2811.72571	1698.7875
2814.27018	1711.6875
2816.81308	1703.6875
2819.35442	1704.5875
2821.89419	1696.0875
2824.43239	1703.8875
2826.96904	1686.2875
2829.50412	1697.1875
2832.03763	1694.3875
2834.56959	1683.4875
2837.1	1685.3875
2839.62884	1694.8875
2842.15613	1703.5875
2844.68186	1696.3875
2847.20604	1700.9875
2849.72867	1692.9875
2852.24974	1702.8875
2854.76927	1700.2875
2857.28724	1692.1875
2859.80367	1690.2875
2862.31855	1686.6875
2864.83189	1686.4875
2867.34368	1692.8875
2869.85393	1691.3875
2872.36264	1690.7875
2874.8698	1695.8875
2877.37543	1697.0875
2879.87952	1698.7875
2882.38207	1701.9875
2884.88308	1715.1875
2887.38256	1712.6875
2889.88051	1714.5875
2892.37692	1728.7875
2894.8718	1739.4875
2897.36515	1741.9875
2899.85698	1761.6875
2902.34727	1761.0875
2904.83604	1780.1875
2907.32328	1784.5875
2909.809	1788.3875
2912.29319	1801.2875
2914.77587	1806.7875
2917.25702	1811.0875
2919.73665	1827.8875
2922.21476	1830.3875
2924.69136	1848.5875
2927.16644	1853.0875
2929.64	1862.0875
2932.11205	1866.4875
2934.58258	1875.0875
2937.05161	1885.1875
2939.51912	1905.9875
2941.98513	1919.0875
2944.44962	1930.3875
2946.91261	1942.9875
2949.37409	1956.0875
2951.83407	1968.3875
2954.29254	1959.5875
2956.74951	1958.1875
2959.20498	1954.7875
2961.65895	1931.6875
2964.11142	1913.1875
2966.56239	1888.0875
2969.01186	1875.9875
2971.45984	1858.4875
2973.90632	1827.3875
2976.35131	1830.9875
2978.7948	1815.5875
2981.23681	1809.2875
2983.67732	1790.8875
2986.11635	1781.2875
2988.55388	1778.9875
2990.98993	1777.1875
2993.4245	1774.0875
2995.85758	1769.1875
2998.28917	1770.0875
3000.71928	1770.2875
3003.14791	1755.5875
3005.57506	1764.8875
3008.00073	1764.4875
3010.42493	1787.2875
3012.84764	1775.4875
3015.26888	1769.1875
3017.68865	1760.2875
3020.10694	1760.1875
3022.52376	1768.2875
3024.9391	1764.8875
3027.35298	1760.3875
3029.76539	1756.8875
3032.17632	1746.5875
3034.5858	1742.4875
3036.9938	1743.8875
3039.40034	1750.6875
3041.80542	1748.5875
3044.20903	1739.3875
3046.61118	1741.8875
3049.01187	1733.3875
3051.4111	1730.0875
3053.80888	1734.4875
3056.20519	1731.0875
3058.60005	1731.6875
3060.99345	1731.6875
3063.3854	1728.7875
3065.7759	1723.8875
3068.16494	1721.8875
3070.55254	1713.4875
3072.93868	1723.6875
3075.32338	1714.7875
3077.70662	1723.3875
3080.08842	1723.2875
3082.46878	1728.3875
3084.84769	1734.0875
3087.22515	1745.6875
3089.60118	1752.0875
3091.97576	1761.3875
3094.3489	1751.3875
3096.72061	1776.4875
3099.09087	1777.3875
3101.4597	1796.1875
3103.82709	1807.6875
3106.19305	1808.0875
3108.55757	1807.8875
3110.92066	1810.1875
3113.28232	1819.8875
3115.64255	1816.3875
3118.00134	1821.1875
3120.35871	1836.4875
3122.71466	1837.0875
3125.06917	1848.2875
3127.42226	1842.7875
3129.77393	1860.0875
3132.12417	1853.8875
3134.47299	1860.3875
3136.82039	1875.1875
3139.16636	1881.4875
3141.51092	1886.1875
3143.85406	1904.9875
3146.19579	1897.4875
3148.53609	1917.6875
3150.87499	1926.2875
3153.21246	1935.0875
3155.54853	1951.4875
3157.88318	1965.7875
3160.21642	1970.7875
3162.54826	1979.1875
3164.87868	1983.6875
3167.2077	1986.2875
3169.5353	2009.7875
3171.86151	2022.1875
3174.18631	2029.7875
3176.5097	2035.7875
3178.83169	2049.7875
3181.15228	2050.4875
3183.47147	2040.1875
3185.78926	2050.6875
3188.10565	2059.9875
3190.42065	2066.7875
3192.73424	2083.2875
3195.04645	2083.4875
3197.35725	2084.5875
3199.66667	2093.6875
3201.97469	2086.3875
3204.28132	2101.0875
3206.58656	2118.6875
3208.8904	2125.9875
3211.19287	2124.0875
3213.49394	2125.1875
3215.79363	2137.4875
3218.09193	2143.5875
3220.38884	2146.8875
3222.68438	2158.4875
3224.97853	2156.4875
3227.2713	2163.4875
3229.56269	2165.6875
3231.8527	2175.0875
3234.14133	2161.9875
3236.42858	2154.9875
3238.71446	2165.3875
3240.99896	2176.0875
3243.28209	2162.3875
3245.56384	2164.7875
3247.84423	2157.0875
3250.12324	2164.0875
3252.40088	2158.8875
3254.67715	2158.9875
3256.95205	2175.1875
3259.22558	2180.1875
3261.49775	2175.4875
3263.76855	2172.6875
3266.03799	2174.9875
3268.30606	2174.3875
3270.57277	2169.3875
3272.83812	2180.2875
3275.10211	2181.0875
3277.36474	2167.8875
3279.62601	2172.2875
3281.88593	2164.2875
3284.14448	2169.2875
3286.40168	2163.0875
3288.65753	2164.9875
3290.91202	2161.5875
3293.16516	2157.3875
3295.41695	2154.8875
3297.66738	2139.6875
3299.91647	2149.6875
3302.16421	2126.6875
3304.4106	2113.3875
3306.65564	2096.3875
3308.89933	2079.9875
3311.14169	2075.0875
3313.38269	2052.3875
3315.62236	2044.4875
3317.86068	2036.8875
3320.09766	2015.8875
3322.3333	2003.1875
3324.5676	1990.3875
3326.80056	1964.4875
3329.03219	1944.4875
3331.26248	0.2875
3333.49143	-0.1125
3335.71905	-1.2125
