Data from AgNPs_UA_20uM_CRN_500uM_AS_RamanShift__1__14-24-41-497.txt Node

Date: Wed Aug 17 14:24:41 BST 2022
User: TCL
Spectrometer: QEP01345
Trigger mode: 4
Integration Time (sec): 7.000000E0
Scans to average: 10
Electric dark correction enabled: true
Nonlinearity correction enabled: false
Boxcar width: 0
XAxis mode: Raman Shifts
Number of Pixels in Spectrum: 1044
>>>>>Begin Spectral Data<<<<<
46.04893	-1.8875
50.45542	0.0125
54.85868	-0.6875
59.25871	0.0125
63.6555	55.6125
68.04907	55.9125
72.43941	60.0125
76.82654	64.3125
81.21044	67.6125
85.59113	70.3125
89.96862	72.0125
94.34289	80.9125
98.71396	81.0125
103.08183	79.6125
107.4465	84.8125
111.80798	82.6125
116.16626	84.1125
120.52136	89.2125
124.87327	87.6125
129.222	93.0125
133.56755	91.6125
137.90993	95.0125
142.24913	103.7125
146.58517	109.4125
150.91804	119.0125
155.24774	136.1125
159.57429	156.9125
163.89768	192.2125
168.21792	248.4125
172.53501	323.1125
176.84895	445.1125
181.15975	614.3125
185.46741	857.5125
189.77193	1172.5125
194.07331	1568.7125
198.37157	2002.6125
202.6667	2483.8125
206.9587	2980.5125
211.24758	3473.9125
215.53334	4004.3125
219.81599	4634.6125
224.09553	5328.6125
228.37195	6097.9125
232.64527	6920.6125
236.91549	7682.3125
241.18261	8346.7125
245.44663	8811.6125
249.70755	9055.6125
253.96539	9229.0125
258.22014	9315.8125
262.4718	9397.4125
266.72039	9437.1125
270.96589	9336.6125
275.20832	9116.3125
279.44768	8830.8125
283.68397	8560.4125
287.91719	8376.1125
292.14735	8382.2125
296.37445	8616.1125
300.59849	9030.2125
304.81948	9607.5125
309.03742	10107.4125
313.25231	10374.3125
317.46415	10165.8125
321.67296	9589.6125
325.87872	9022.9125
330.08145	8749.1125
334.28114	8714.5125
338.47781	8816.7125
342.67145	9010.2125
346.86207	9372.3125
351.04966	9868.3125
355.23424	10398.1125
359.4158	10768.9125
363.59435	10866.1125
367.76989	10731.8125
371.94243	10547.3125
376.11196	10388.7125
380.27849	10246.7125
384.44203	10179.0125
388.60257	10136.5125
392.76012	10112.0125
396.91468	10206.4125
401.06626	10377.6125
405.21485	10430.0125
409.36047	10038.5125
413.50311	9388.0125
417.64277	8814.0125
421.77947	8525.8125
425.9132	8437.3125
430.04396	8496.8125
434.17176	8607.5125
438.2966	8887.6125
442.41849	9339.8125
446.53742	9886.8125
450.6534	10311.1125
454.76644	10409.2125
458.87653	10238.7125
462.98368	9899.8125
467.08789	9559.8125
471.18916	9182.8125
475.2875	8785.4125
479.38291	8425.2125
483.4754	8132.5125
487.56496	7972.7125
491.6516	7903.0125
495.73531	7905.3125
499.81612	7952.6125
503.89401	8049.9125
507.96899	8151.7125
512.04106	8249.3125
516.11023	8351.6125
520.1765	8462.6125
524.23987	8561.1125
528.30034	8581.0125
532.35792	8597.5125
536.41261	8436.6125
540.46441	8140.6125
544.51333	8001.1125
548.55936	8039.4125
552.60252	8303.8125
556.64279	8622.2125
560.6802	8844.0125
564.71473	8989.3125
568.7464	9261.1125
572.7752	9356.0125
576.80114	9078.4125
580.82422	8874.6125
584.84444	9083.7125
588.86181	9824.0125
592.87633	11038.8125
596.888	12115.8125
600.89682	12398.9125
604.9028	13114.3125
608.90594	16299.5125
612.90624	20176.9125
616.90371	17867.2125
620.89834	11659.8125
624.89015	9010.9125
628.87913	8663.7125
632.86528	9022.1125
636.84862	9260.5125
640.82913	8886.5125
644.80683	8258.1125
648.78172	7876.5125
652.75379	7935.6125
656.72306	8423.0125
660.68952	8840.8125
664.65319	8442.1125
668.61405	7795.4125
672.57211	7585.6125
676.52738	7658.5125
680.47986	7635.7125
684.42955	7450.8125
688.37646	7339.0125
692.32058	7368.3125
696.26192	7534.8125
700.20048	7740.5125
704.13626	7827.9125
708.06928	7726.8125
711.99952	7651.0125
715.927	7724.4125
719.85171	7843.9125
723.77365	7888.6125
727.69284	7835.7125
731.60928	7793.8125
735.52295	7849.9125
739.43388	7915.4125
743.34206	7933.5125
747.24749	7907.7125
751.15017	7916.5125
755.05012	8102.8125
758.94733	8839.9125
762.8418	10577.9125
766.73354	13164.3125
770.62254	15217.7125
774.50882	15707.8125
778.39237	14607.2125
782.27321	12299.7125
786.15132	10059.4125
790.02671	8694.0125
793.89938	8027.3125
797.76935	7728.8125
801.6366	7556.1125
805.50115	7451.3125
809.36299	7373.7125
813.22213	7300.6125
817.07857	7262.0125
820.93231	7273.8125
824.78336	7307.5125
828.63172	7370.9125
832.47738	7403.5125
836.32036	7372.8125
840.16066	7307.5125
843.99827	7240.4125
847.8332	7225.8125
851.66546	7255.2125
855.49504	7266.3125
859.32195	7259.2125
863.1462	7228.3125
866.96777	7223.8125
870.78668	7207.2125
874.60293	7247.8125
878.41652	7335.7125
882.22745	7434.4125
886.03573	7485.9125
889.84136	7479.9125
893.64433	7465.4125
897.44466	7468.8125
901.24235	7456.6125
905.0374	7377.7125
908.8298	7267.3125
912.61957	7191.5125
916.40671	7220.7125
920.19121	7261.5125
923.97308	7439.6125
927.75233	7616.5125
931.52895	7717.7125
935.30295	7510.5125
939.07433	7145.1125
942.84309	6878.4125
946.60924	6770.7125
950.37278	6708.1125
954.13371	6703.0125
957.89203	6691.4125
961.64774	6694.2125
965.40086	6672.3125
969.15137	6654.2125
972.89929	6615.7125
976.64461	6621.8125
980.38733	6628.6125
984.12747	6632.3125
987.86502	6685.3125
991.59999	6797.8125
995.33237	6958.6125
999.06217	7226.0125
1002.78939	7541.3125
1006.51404	7803.7125
1010.23611	8032.8125
1013.95561	8122.6125
1017.67255	8108.1125
1021.38692	7877.0125
1025.09872	7538.2125
1028.80796	7315.4125
1032.51465	7301.5125
1036.21877	7345.4125
1039.92035	7435.3125
1043.61937	7441.1125
1047.31584	7457.7125
1051.00976	7416.4125
1054.70114	7390.2125
1058.38998	7370.6125
1062.07627	7344.1125
1065.76003	7378.6125
1069.44126	7462.1125
1073.11995	7630.0125
1076.79611	7897.1125
1080.46974	8221.0125
1084.14085	8603.8125
1087.80943	8931.7125
1091.47549	8952.1125
1095.13903	8692.8125
1098.80005	8259.2125
1102.45857	8012.7125
1106.11456	7978.9125
1109.76805	8111.7125
1113.41903	8441.3125
1117.06751	8932.7125
1120.71348	9568.2125
1124.35696	10307.9125
1127.99793	10760.8125
1131.63641	10412.0125
1135.2724	9658.4125
1138.90589	9075.6125
1142.5369	8763.9125
1146.16542	8576.5125
1149.79145	8533.7125
1153.415	8536.4125
1157.03607	8626.1125
1160.65467	8896.3125
1164.27079	9408.0125
1167.88443	10232.7125
1171.49561	11593.2125
1175.10432	13586.2125
1178.71056	16280.5125
1182.31434	18475.0125
1185.91565	18949.1125
1189.51451	18014.4125
1193.11091	16528.9125
1196.70485	15128.1125
1200.29634	13915.3125
1203.88538	12715.5125
1207.47197	11521.9125
1211.05612	10553.3125
1214.63782	10051.5125
1218.21708	9983.8125
1221.79391	10181.0125
1225.36829	10437.5125
1228.94024	10486.6125
1232.50976	10246.1125
1236.07685	9938.4125
1239.6415	9788.5125
1243.20374	9737.0125
1246.76355	9743.7125
1250.32093	9796.5125
1253.8759	10005.9125
1257.42845	10470.5125
1260.97859	11099.3125
1264.52631	11729.8125
1268.07163	12311.9125
1271.61453	12726.9125
1275.15503	12947.8125
1278.69312	13187.6125
1282.22882	13647.4125
1285.76211	14488.4125
1289.29301	15542.5125
1292.82151	16612.6125
1296.34761	17849.2125
1299.87133	19440.3125
1303.39266	21812.2125
1306.9116	24967.1125
1310.42815	27898.1125
1313.94233	28714.1125
1317.45412	26812.8125
1320.96354	23738.6125
1324.47058	20527.5125
1327.97525	17929.2125
1331.47754	16334.2125
1334.97747	15641.9125
1338.47502	15700.5125
1341.97022	16343.8125
1345.46305	17554.0125
1348.95352	19352.3125
1352.44163	21841.3125
1355.92738	25479.6125
1359.41078	30468.9125
1362.89183	33981.7125
1366.37053	31920.3125
1369.84688	25504.8125
1373.32088	19940.2125
1376.79254	17050.9125
1380.26186	15689.8125
1383.72883	14699.4125
1387.19347	13659.9125
1390.65578	12806.3125
1394.11575	12412.4125
1397.57339	12278.2125
1401.0287	12331.0125
1404.48168	12307.0125
1407.93234	12182.6125
1411.38068	12134.7125
1414.82669	12145.0125
1418.27039	12094.5125
1421.71177	11911.0125
1425.15083	11687.8125
1428.58758	11737.7125
1432.02203	12076.1125
1435.45416	12391.0125
1438.88399	12453.8125
1442.31151	12341.8125
1445.73673	12260.3125
1449.15965	12193.0125
1452.58027	11934.3125
1455.9986	11593.8125
1459.41463	11519.1125
1462.82837	11761.1125
1466.23982	12308.9125
1469.64898	12832.0125
1473.05586	13286.1125
1476.46045	13640.8125
1479.86276	13972.7125
1483.26279	14365.4125
1486.66054	14946.8125
1490.05602	15857.3125
1493.44922	17099.9125
1496.84016	18740.1125
1500.22882	21076.3125
1503.61521	24233.3125
1506.99934	27398.0125
1510.38121	29180.5125
1513.76081	28391.3125
1517.13816	25127.6125
1520.51324	21144.1125
1523.88607	17982.3125
1527.25665	16218.5125
1530.62498	15339.8125
1533.99105	14737.1125
1537.35488	14162.0125
1540.71647	13569.5125
1544.07581	13053.4125
1547.4329	12621.1125
1550.78776	12278.7125
1554.14038	12073.2125
1557.49077	12039.9125
1560.83892	12351.8125
1564.18484	13105.5125
1567.52853	14103.6125
1570.86999	14909.3125
1574.20922	15356.5125
1577.54624	15015.8125
1580.88103	13857.5125
1584.2136	12632.9125
1587.54395	12173.5125
1590.87208	12678.3125
1594.19801	14028.1125
1597.52172	15501.2125
1600.84321	16089.4125
1604.16251	15270.4125
1607.47959	13721.1125
1610.79447	12063.8125
1614.10715	10675.1125
1617.41763	9682.2125
1620.7259	9115.1125
1624.03199	8949.5125
1627.33587	9098.2125
1630.63757	9572.0125
1633.93707	10608.2125
1637.23439	12428.7125
1640.52951	15328.4125
1643.82246	19139.5125
1647.11321	22532.9125
1650.40179	23471.3125
1653.68819	21080.5125
1656.97241	16834.4125
1660.25446	12951.2125
1663.53433	10340.5125
1666.81203	8819.4125
1670.08756	7967.7125
1673.36092	7477.1125
1676.63211	7138.3125
1679.90115	6923.6125
1683.16801	6775.5125
1686.43272	6654.9125
1689.69527	6552.8125
1692.95567	6468.1125
1696.2139	6435.0125
1699.46999	6413.0125
1702.72392	6354.5125
1705.97571	6332.7125
1709.22535	6308.1125
1712.47284	6328.0125
1715.71819	6308.0125
1718.96139	6269.0125
1722.20246	6227.3125
1725.44139	6179.5125
1728.67818	6114.4125
1731.91284	6032.5125
1735.14537	5959.5125
1738.37576	5940.8125
1741.60403	5894.5125
1744.83017	5896.5125
1748.05418	5856.9125
1751.27607	5850.7125
1754.49584	5838.0125
1757.71349	5811.5125
1760.92903	5783.9125
1764.14244	5771.3125
1767.35375	5728.6125
1770.56294	5692.0125
1773.77002	5669.9125
1776.97499	5621.1125
1780.17785	5597.6125
1783.37861	5569.7125
1786.57727	5559.3125
1789.77382	5517.5125
1792.96828	5501.3125
1796.16064	5470.5125
1799.3509	5452.3125
1802.53907	5442.6125
1805.72514	5428.9125
1808.90913	5411.0125
1812.09102	5379.3125
1815.27083	5346.7125
1818.44856	5335.9125
1821.6242	5343.7125
1824.79776	5323.0125
1827.96924	5322.5125
1831.13864	5294.3125
1834.30597	5296.4125
1837.47122	5269.0125
1840.6344	5251.5125
1843.7955	5233.8125
1846.95454	5243.0125
1850.11151	5228.4125
1853.26642	5199.6125
1856.41926	5218.1125
1859.57004	5197.6125
1862.71876	5192.8125
1865.86542	5211.0125
1869.01003	5205.2125
1872.15258	5203.9125
1875.29308	5201.5125
1878.43152	5190.9125
1881.56792	5201.1125
1884.70227	5194.6125
1887.83457	5188.9125
1890.96482	5170.8125
1894.09304	5169.7125
1897.21921	5166.6125
1900.34335	5166.3125
1903.46544	5163.4125
1906.58551	5169.7125
1909.70353	5163.4125
1912.81953	5157.9125
1915.93349	5136.1125
1919.04543	5109.8125
1922.15534	5115.5125
1925.26322	5102.7125
1928.36908	5084.6125
1931.47292	5046.2125
1934.57473	5021.1125
1937.67453	5025.5125
1940.77232	4986.4125
1943.86808	4960.3125
1946.96184	4951.8125
1950.05358	4934.9125
1953.14331	4938.8125
1956.23103	4928.2125
1959.31675	4915.0125
1962.40046	4906.3125
1965.48217	4883.4125
1968.56188	4889.2125
1971.63959	4888.6125
1974.7153	4864.2125
1977.78901	4829.1125
1980.86073	4808.3125
1983.93046	4788.9125
1986.99819	4765.9125
1990.06394	4744.1125
1993.1277	4718.5125
1996.18947	4699.4125
1999.24925	4687.6125
2002.30706	4677.8125
2005.36288	4646.0125
2008.41672	4623.0125
2011.46859	4613.7125
2014.51848	4603.9125
2017.56639	4608.0125
2020.61233	4585.9125
2023.6563	4577.0125
2026.6983	4559.9125
2029.73833	4545.4125
2032.7764	4537.1125
2035.8125	4539.3125
2038.84664	4517.9125
2041.87881	4526.1125
2044.90903	4515.6125
2047.93729	4501.3125
2050.96359	4507.2125
2053.98794	4479.1125
2057.01034	4484.8125
2060.03078	4480.3125
2063.04927	4462.9125
2066.06582	4463.4125
2069.08042	4455.5125
2072.09307	4438.3125
2075.10378	4461.0125
2078.11255	4447.6125
2081.11938	4437.6125
2084.12426	4448.6125
2087.12722	4443.7125
2090.12824	4440.7125
2093.12732	4470.2125
2096.12447	4459.4125
2099.11969	4452.6125
2102.11299	4442.9125
2105.10435	4444.5125
2108.09379	4435.1125
2111.08131	4445.0125
2114.0669	4453.1125
2117.05057	4460.5125
2120.03233	4490.8125
2123.01216	4467.9125
2125.99008	4480.4125
2128.96609	4488.2125
2131.94018	4487.9125
2134.91236	4482.6125
2137.88263	4463.3125
2140.851	4451.0125
2143.81746	4465.9125
2146.78201	4451.9125
2149.74466	4440.8125
2152.7054	4424.3125
2155.66425	4399.4125
2158.6212	4406.5125
2161.57625	4405.7125
2164.52941	4379.8125
2167.48067	4380.1125
2170.43004	4375.2125
2173.37752	4362.7125
2176.32311	4379.0125
2179.26681	4369.6125
2182.20863	4383.0125
2185.14856	4387.0125
2188.08661	4379.0125
2191.02278	4387.6125
2193.95707	4382.6125
2196.88948	4361.3125
2199.82001	4381.4125
2202.74867	4382.4125
2205.67545	4373.1125
2208.60037	4354.1125
2211.52341	4357.2125
2214.44458	4324.5125
2217.36388	4313.7125
2220.28132	4298.7125
2223.1969	4275.8125
2226.11061	4281.6125
2229.02246	4281.3125
2231.93245	4256.9125
2234.84058	4268.8125
2237.74686	4275.4125
2240.65128	4260.4125
2243.55385	4268.0125
2246.45456	4285.8125
2249.35343	4284.4125
2252.25044	4272.6125
2255.14561	4259.4125
2258.03893	4267.5125
2260.93041	4285.8125
2263.82004	4263.9125
2266.70783	4243.6125
2269.59378	4234.3125
2272.4779	4223.3125
2275.36017	4203.6125
2278.24061	4185.4125
2281.11922	4173.2125
2283.996	4170.9125
2286.87094	4158.3125
2289.74405	4130.3125
2292.61534	4128.5125
2295.4848	4114.0125
2298.35243	4111.5125
2301.21824	4104.7125
2304.08223	4108.7125
2306.94439	4119.0125
2309.80474	4118.6125
2312.66327	4117.0125
2315.51999	4095.2125
2318.37489	4100.1125
2321.22797	4077.9125
2324.07925	4073.2125
2326.92871	4072.2125
2329.77637	4078.0125
2332.62222	4065.9125
2335.46626	4078.8125
2338.3085	4069.8125
2341.14893	4068.2125
2343.98756	4072.9125
2346.8244	4061.1125
2349.65943	4064.3125
2352.49267	4080.3125
2355.32411	4077.5125
2358.15376	4095.3125
2360.98161	4101.0125
2363.80768	4095.4125
2366.63195	4122.7125
2369.45444	4111.2125
2372.27514	4115.8125
2375.09405	4123.7125
2377.91118	4094.2125
2380.72652	4098.6125
2383.54009	4075.6125
2386.35187	4068.6125
2389.16188	4034.6125
2391.97011	4015.8125
2394.77657	4013.6125
2397.58125	4005.2125
2400.38416	3996.3125
2403.18529	3977.4125
2405.98466	3978.0125
2408.78226	3949.1125
2411.57809	3952.0125
2414.37216	3939.2125
2417.16446	3934.9125
2419.955	3941.0125
2422.74378	3952.6125
2425.5308	3951.3125
2428.31606	3940.7125
2431.09956	3944.1125
2433.88131	3942.8125
2436.6613	3945.6125
2439.43954	3948.4125
2442.21603	3954.7125
2444.99077	3953.8125
2447.76377	3951.5125
2450.53501	3941.7125
2453.30451	3952.0125
2456.07226	3966.5125
2458.83827	3958.7125
2461.60254	3959.0125
2464.36507	3956.2125
2467.12586	3955.3125
2469.88492	3953.6125
2472.64224	3962.8125
2475.39782	3978.1125
2478.15167	3986.4125
2480.90379	3990.1125
2483.65417	4000.8125
2486.40283	4015.1125
2489.14976	4025.4125
2491.89497	4040.0125
2494.63845	4052.4125
2497.3802	4036.3125
2500.12024	4023.5125
2502.85855	4015.9125
2505.59514	4003.0125
2508.33002	3982.7125
2511.06318	3966.0125
2513.79462	3936.7125
2516.52435	3911.2125
2519.25237	3905.0125
2521.97867	3895.9125
2524.70327	3892.3125
2527.42616	3891.6125
2530.14734	3883.9125
2532.86681	3877.8125
2535.58458	3885.3125
2538.30065	3896.5125
2541.01501	3906.0125
2543.72768	3880.2125
2546.43864	3892.7125
2549.14791	3880.5125
2551.85548	3885.3125
2554.56136	3886.8125
2557.26554	3882.5125
2559.96803	3874.2125
2562.66883	3878.0125
2565.36794	3867.3125
2568.06536	3865.3125
2570.7611	3863.0125
2573.45514	3852.2125
2576.14751	3855.1125
2578.83819	3841.6125
2581.52719	3831.0125
2584.21451	3817.9125
2586.90015	3817.9125
2589.58411	3826.3125
2592.2664	3812.1125
2594.94701	3832.2125
2597.62594	3828.6125
2600.30321	3819.3125
2602.9788	3819.8125
2605.65273	3813.8125
2608.32498	3820.0125
2610.99557	3821.5125
2613.66449	3829.8125
2616.33175	3833.0125
2618.99734	3826.2125
2621.66128	3810.2125
2624.32355	3812.7125
2626.98416	3808.6125
2629.64311	3795.4125
2632.30041	3797.7125
2634.95605	3798.7125
2637.61004	3776.6125
2640.26238	3767.9125
2642.91306	3761.0125
2645.56209	3770.4125
2648.20948	3768.4125
2650.85521	3762.5125
2653.4993	3792.5125
2656.14175	3775.6125
2658.78255	3791.3125
2661.42171	3797.9125
2664.05923	3800.1125
2666.6951	3823.0125
2669.32934	3827.0125
2671.96194	3822.5125
2674.59291	3823.8125
2677.22224	3824.3125
2679.84993	3819.5125
2682.476	3818.3125
2685.10043	3815.5125
2687.72324	3794.2125
2690.34441	3799.4125
2692.96396	3785.8125
2695.58188	3778.2125
2698.19818	3768.4125
2700.81285	3780.1125
2703.4259	3776.5125
2706.03733	3783.5125
2708.64714	3783.5125
2711.25533	3786.4125
2713.86191	3779.9125
2716.46687	3807.8125
2719.07021	3809.8125
2721.67194	3811.0125
2724.27206	3828.5125
2726.87057	3826.2125
2729.46747	3815.8125
2732.06276	3823.4125
2734.65644	3819.9125
2737.24852	3820.1125
2739.83899	3797.6125
2742.42786	3799.6125
2745.01513	3787.4125
2747.60079	3783.0125
2750.18486	3757.1125
2752.76733	3770.0125
2755.3482	3762.7125
2757.92747	3762.9125
2760.50515	3754.4125
2763.08123	3746.5125
2765.65573	3746.3125
2768.22863	3741.0125
2770.79994	3740.4125
2773.36967	3741.2125
2775.9378	3732.9125
2778.50435	3729.9125
2781.06932	3739.9125
2783.6327	3755.6125
2786.1945	3748.0125
2788.75471	3749.3125
2791.31335	3748.6125
2793.87041	3733.6125
2796.42589	3759.8125
2798.97979	3755.2125
2801.53212	3755.9125
2804.08288	3746.7125
2806.63206	3750.2125
2809.17967	3761.8125
2811.72571	3756.0125
2814.27018	3770.7125
2816.81308	3768.7125
2819.35442	3769.2125
2821.89419	3774.4125
2824.43239	3782.8125
2826.96904	3780.8125
2829.50412	3790.0125
2832.03763	3773.8125
2834.56959	3777.7125
2837.1	3772.7125
2839.62884	3765.9125
2842.15613	3776.2125
2844.68186	3781.4125
2847.20604	3807.0125
2849.72867	3816.3125
2852.24974	3811.7125
2854.76927	3825.6125
2857.28724	3827.3125
2859.80367	3840.4125
2862.31855	3858.0125
2864.83189	3859.0125
2867.34368	3882.2125
2869.85393	3888.4125
2872.36264	3904.2125
2874.8698	3883.8125
2877.37543	3893.1125
2879.87952	3900.5125
2882.38207	3890.8125
2884.88308	3901.0125
2887.38256	3889.5125
2889.88051	3902.0125
2892.37692	3914.9125
2894.8718	3937.0125
2897.36515	3951.9125
2899.85698	3961.1125
2902.34727	3980.8125
2904.83604	3989.1125
2907.32328	4002.3125
2909.809	4009.3125
2912.29319	4008.9125
2914.77587	4030.5125
2917.25702	4024.0125
2919.73665	4011.7125
2922.21476	4023.7125
2924.69136	4015.7125
2927.16644	4019.9125
2929.64	3997.8125
2932.11205	3987.5125
2934.58258	3987.6125
2937.05161	3973.9125
2939.51912	3965.8125
2941.98513	3950.1125
2944.44962	3936.1125
2946.91261	3903.3125
2949.37409	3900.1125
2951.83407	3898.2125
2954.29254	3876.2125
2956.74951	3868.8125
2959.20498	3861.3125
2961.65895	3839.8125
2964.11142	3814.6125
2966.56239	3786.0125
2969.01186	3775.6125
2971.45984	3741.0125
2973.90632	3765.7125
2976.35131	3718.7125
2978.7948	3713.7125
2981.23681	3697.4125
2983.67732	3686.2125
2986.11635	3659.5125
2988.55388	3627.9125
2990.98993	3636.3125
2993.4245	3625.4125
2995.85758	3625.7125
2998.28917	3601.3125
3000.71928	3598.2125
3003.14791	3612.4125
3005.57506	3606.4125
3008.00073	3594.7125
3010.42493	3552.1125
3012.84764	3564.7125
3015.26888	3559.6125
3017.68865	3559.4125
3020.10694	3538.3125
3022.52376	3528.7125
3024.9391	3522.0125
3027.35298	3511.4125
3029.76539	3499.3125
3032.17632	3498.0125
3034.5858	3491.0125
3036.9938	3490.8125
3039.40034	3473.8125
3041.80542	3477.1125
3044.20903	3478.0125
3046.61118	3486.3125
3049.01187	3468.1125
3051.4111	3481.0125
3053.80888	3468.5125
3056.20519	3481.5125
3058.60005	3475.2125
3060.99345	3463.6125
3063.3854	3457.5125
3065.7759	3436.2125
3068.16494	3431.8125
3070.55254	3402.4125
3072.93868	3402.9125
3075.32338	3382.9125
3077.70662	3389.2125
3080.08842	3350.4125
3082.46878	3375.7125
3084.84769	3363.9125
3087.22515	3369.9125
3089.60118	3370.6125
3091.97576	3373.6125
3094.3489	3378.3125
3096.72061	3370.1125
3099.09087	3383.2125
3101.4597	3371.2125
3103.82709	3380.6125
3106.19305	3376.7125
3108.55757	3389.1125
3110.92066	3385.2125
3113.28232	3381.5125
3115.64255	3382.8125
3118.00134	3386.6125
3120.35871	3385.1125
3122.71466	3370.5125
3125.06917	3373.0125
3127.42226	3380.2125
3129.77393	3380.6125
3132.12417	3391.7125
3134.47299	3367.1125
3136.82039	3380.2125
3139.16636	3385.6125
3141.51092	3393.4125
3143.85406	3401.8125
3146.19579	3403.1125
3148.53609	3404.9125
3150.87499	3403.3125
3153.21246	3409.4125
3155.54853	3415.2125
3157.88318	3418.0125
3160.21642	3434.5125
3162.54826	3424.3125
3164.87868	3422.2125
3167.2077	3430.9125
3169.5353	3451.1125
3171.86151	3453.8125
3174.18631	3465.9125
3176.5097	3448.6125
3178.83169	3455.6125
3181.15228	3453.4125
3183.47147	3442.3125
3185.78926	3440.7125
3188.10565	3440.7125
3190.42065	3449.5125
3192.73424	3456.2125
3195.04645	3464.8125
3197.35725	3457.0125
3199.66667	3451.5125
3201.97469	3463.3125
3204.28132	3463.0125
3206.58656	3483.8125
3208.8904	3490.8125
3211.19287	3490.3125
3213.49394	3496.2125
3215.79363	3498.8125
3218.09193	3502.9125
3220.38884	3517.7125
3222.68438	3517.4125
3224.97853	3504.2125
3227.2713	3526.9125
3229.56269	3518.8125
3231.8527	3518.6125
3234.14133	3520.2125
3236.42858	3508.8125
3238.71446	3509.2125
3240.99896	3498.3125
3243.28209	3498.8125
3245.56384	3494.8125
3247.84423	3487.0125
3250.12324	3488.3125
3252.40088	3474.3125
3254.67715	3469.7125
3256.95205	3478.9125
3259.22558	3487.9125
3261.49775	3485.6125
3263.76855	3472.2125
3266.03799	3471.4125
3268.30606	3487.1125
3270.57277	3489.9125
3272.83812	3493.0125
3275.10211	3482.8125
3277.36474	3479.2125
3279.62601	3493.2125
3281.88593	3479.2125
3284.14448	3491.8125
3286.40168	3485.0125
3288.65753	3497.4125
3290.91202	3504.5125
3293.16516	3502.7125
3295.41695	3514.2125
3297.66738	3496.1125
3299.91647	3476.5125
3302.16421	3454.7125
3304.4106	3439.8125
3306.65564	3410.5125
3308.89933	3381.5125
3311.14169	3353.3125
3313.38269	3343.1125
3315.62236	3326.9125
3317.86068	3305.1125
3320.09766	3280.8125
3322.3333	3254.6125
3324.5676	3245.5125
3326.80056	3184.1125
3329.03219	3170.7125
3331.26248	2.1125
3333.49143	1.4125
3335.71905	0.0125
