Data from AgNPs_UA_50uM_CRN_500uM_AS_RamanShift__2__15-07-51-543.txt Node

Date: Wed Aug 17 15:07:51 BST 2022
User: TCL
Spectrometer: QEP01345
Trigger mode: 4
Integration Time (sec): 7.000000E0
Scans to average: 10
Electric dark correction enabled: true
Nonlinearity correction enabled: false
Boxcar width: 0
XAxis mode: Raman Shifts
Number of Pixels in Spectrum: 1044
>>>>>Begin Spectral Data<<<<<
46.04893	-2.3
50.45542	0.2
54.85868	-1.2
59.25871	0.6
63.6555	40.6
68.04907	43.1
72.43941	43.1
76.82654	51
81.21044	48.7
85.59113	53
89.96862	57
94.34289	61.8
98.71396	60
103.08183	63.4
107.4465	61.8
111.80798	63.3
116.16626	66.3
120.52136	62.6
124.87327	61.7
129.222	65.1
133.56755	65.4
137.90993	71.2
142.24913	76.9
146.58517	80.8
150.91804	85.8
155.24774	98.7
159.57429	108.5
163.89768	138.1
168.21792	177.7
172.53501	231.5
176.84895	316.2
181.15975	428.4
185.46741	594.9
189.77193	823.2
194.07331	1099.6
198.37157	1401.2
202.6667	1746.5
206.9587	2102.9
211.24758	2467.7
215.53334	2844.5
219.81599	3299.2
224.09553	3813.5
228.37195	4354.7
232.64527	4925.2
236.91549	5484.6
241.18261	5918.4
245.44663	6198.3
249.70755	6350.9
253.96539	6455.7
258.22014	6535.6
262.4718	6577.3
266.72039	6596.5
270.96589	6533.4
275.20832	6358.2
279.44768	6119.6
283.68397	5951
287.91719	5834.1
292.14735	5843.6
296.37445	6045.6
300.59849	6441.2
304.81948	6967.5
309.03742	7382.7
313.25231	7576
317.46415	7345.8
321.67296	6777.2
325.87872	6204.4
330.08145	5942.8
334.28114	5881
338.47781	5982
342.67145	6153.6
346.86207	6450.1
351.04966	6909.2
355.23424	7402.8
359.4158	7730.5
363.59435	7805.4
367.76989	7723.1
371.94243	7560.4
376.11196	7424.8
380.27849	7304.7
384.44203	7184.4
388.60257	7074.9
392.76012	7049.6
396.91468	7111
401.06626	7219
405.21485	7266.7
409.36047	6952.7
413.50311	6430.6
417.64277	5958.1
421.77947	5692.6
425.9132	5583
430.04396	5583.6
434.17176	5644.5
438.2966	5795.9
442.41849	6022.8
446.53742	6271.9
450.6534	6497.6
454.76644	6516.7
458.87653	6443.9
462.98368	6293.1
467.08789	6117.6
471.18916	5925.4
475.2875	5702.4
479.38291	5486.9
483.4754	5333.2
487.56496	5267.2
491.6516	5220.7
495.73531	5207.7
499.81612	5250.4
503.89401	5326.3
507.96899	5420.6
512.04106	5523.6
516.11023	5671.9
520.1765	5787.2
524.23987	5821
528.30034	5789
532.35792	5741.1
536.41261	5617.4
540.46441	5434.7
544.51333	5339.4
548.55936	5376.2
552.60252	5539.7
556.64279	5743.5
560.6802	5857
564.71473	6052.8
568.7464	6394.6
572.7752	6451.5
576.80114	6076.1
580.82422	5739
584.84444	5679.5
588.86181	5891.5
592.87633	6276.8
596.888	6651.7
600.89682	6904.5
604.9028	7963.6
608.90594	11048.5
612.90624	14600.3
616.90371	13010.4
620.89834	8164.1
624.89015	6053.6
628.87913	5742.5
632.86528	6029.3
636.84862	6249.3
640.82913	6039.4
644.80683	5540.1
648.78172	5248.3
652.75379	5313.5
656.72306	5683.2
660.68952	6027.4
664.65319	5719.5
668.61405	5224.2
672.57211	5032.8
676.52738	5104.3
680.47986	5102
684.42955	5017.7
688.37646	4930.3
692.32058	4921.2
696.26192	4983.8
700.20048	5081.2
704.13626	5130
708.06928	5102.1
711.99952	5035.5
715.927	5057
719.85171	5138.8
723.77365	5194.5
727.69284	5182.1
731.60928	5135.2
735.52295	5142.3
739.43388	5158.9
743.34206	5184.8
747.24749	5161.7
751.15017	5168.9
755.05012	5298.6
758.94733	5848.8
762.8418	7155
766.73354	9113.4
770.62254	10635.9
774.50882	11099
778.39237	10330.6
782.27321	8591.5
786.15132	6818.3
790.02671	5794.1
793.89938	5305.5
797.76935	5091.2
801.6366	4975.3
805.50115	4926.2
809.36299	4876.6
813.22213	4842
817.07857	4812.5
820.93231	4832.4
824.78336	4857.8
828.63172	4892.5
832.47738	4896.8
836.32036	4845.1
840.16066	4794.4
843.99827	4752.9
847.8332	4738.7
851.66546	4766.1
855.49504	4778.6
859.32195	4786.4
863.1462	4762.8
866.96777	4739.6
870.78668	4757.4
874.60293	4756.5
878.41652	4823
882.22745	4898.6
886.03573	4949
889.84136	4952.7
893.64433	4917.2
897.44466	4909.9
901.24235	4898.9
905.0374	4857.7
908.8298	4785.1
912.61957	4716.8
916.40671	4703
920.19121	4748.3
923.97308	4838.7
927.75233	4971
931.52895	5086.4
935.30295	4966
939.07433	4706
942.84309	4526.1
946.60924	4424
950.37278	4389.7
954.13371	4358.6
957.89203	4378.5
961.64774	4354.5
965.40086	4353.9
969.15137	4346.9
972.89929	4318.7
976.64461	4296.6
980.38733	4319.3
984.12747	4320.4
987.86502	4332.4
991.59999	4384.7
995.33237	4456.8
999.06217	4575.1
1002.78939	4737.7
1006.51404	4900
1010.23611	5006.4
1013.95561	5040.6
1017.67255	5022.1
1021.38692	4897.4
1025.09872	4755
1028.80796	4645.8
1032.51465	4619.8
1036.21877	4644
1039.92035	4702.5
1043.61937	4741.9
1047.31584	4777.6
1051.00976	4768.5
1054.70114	4759.6
1058.38998	4722.2
1062.07627	4737.2
1065.76003	4718.5
1069.44126	4742
1073.11995	4844.6
1076.79611	5008.9
1080.46974	5252
1084.14085	5539.9
1087.80943	5760.3
1091.47549	5786.8
1095.13903	5561.7
1098.80005	5306.2
1102.45857	5131.9
1106.11456	5127.7
1109.76805	5243.3
1113.41903	5482.4
1117.06751	5851.8
1120.71348	6382.6
1124.35696	7007.4
1127.99793	7374.8
1131.63641	7061
1135.2724	6438.7
1138.90589	5950.8
1142.5369	5634.3
1146.16542	5435.6
1149.79145	5321.8
1153.415	5294.7
1157.03607	5337.5
1160.65467	5505.4
1164.27079	5789.7
1167.88443	6306.8
1171.49561	7095.1
1175.10432	8383.1
1178.71056	10104.6
1182.31434	11509.5
1185.91565	11843.5
1189.51451	11192.1
1193.11091	10205.1
1196.70485	9284.6
1200.29634	8560.4
1203.88538	7872.6
1207.47197	7091
1211.05612	6406.2
1214.63782	6006.9
1218.21708	5859.2
1221.79391	5861.2
1225.36829	5925.3
1228.94024	5920.6
1232.50976	5819.9
1236.07685	5734.3
1239.6415	5716.8
1243.20374	5731.4
1246.76355	5787.6
1250.32093	5858.6
1253.8759	5992.5
1257.42845	6252.7
1260.97859	6635.6
1264.52631	7015.4
1268.07163	7381.3
1271.61453	7614.8
1275.15503	7714.6
1278.69312	7770.7
1282.22882	7922.5
1285.76211	8372.1
1289.29301	8963.9
1292.82151	9483.5
1296.34761	10132.2
1299.87133	11107.7
1303.39266	12739.4
1306.9116	14949.4
1310.42815	16977.7
1313.94233	17317.9
1317.45412	15785.9
1320.96354	13606
1324.47058	11548.9
1327.97525	9965.6
1331.47754	9016.3
1334.97747	8649
1338.47502	8786.5
1341.97022	9309.2
1345.46305	10341.6
1348.95352	11800.2
1352.44163	13579
1355.92738	16074.7
1359.41078	19679.4
1362.89183	22346.2
1366.37053	20718.8
1369.84688	16027.7
1373.32088	12138.9
1376.79254	10116.7
1380.26186	9106.1
1383.72883	8380.8
1387.19347	7710.9
1390.65578	7157.6
1394.11575	6813.5
1397.57339	6648.7
1401.0287	6543.3
1404.48168	6475.5
1407.93234	6463
1411.38068	6475
1414.82669	6560.7
1418.27039	6624.9
1421.71177	6554.8
1425.15083	6431.8
1428.58758	6424.5
1432.02203	6585.2
1435.45416	6739.8
1438.88399	6745.4
1442.31151	6654.6
1445.73673	6654.3
1449.15965	6644.2
1452.58027	6542.5
1455.9986	6424.2
1459.41463	6380.3
1462.82837	6494
1466.23982	6779
1469.64898	7024.5
1473.05586	7195.2
1476.46045	7327.5
1479.86276	7487.1
1483.26279	7722.5
1486.66054	8158.5
1490.05602	8824.9
1493.44922	9810.1
1496.84016	11266.5
1500.22882	13450.6
1503.61521	16373.3
1506.99934	19280.2
1510.38121	21026.1
1513.76081	20414.7
1517.13816	17636.3
1520.51324	14202.9
1523.88607	11434.2
1527.25665	9835.8
1530.62498	9021.8
1533.99105	8528.9
1537.35488	8110.4
1540.71647	7801.7
1544.07581	7599.6
1547.4329	7453.4
1550.78776	7388.6
1554.14038	7347
1557.49077	7430.3
1560.83892	7685.8
1564.18484	8265.2
1567.52853	9043.9
1570.86999	9643.8
1574.20922	9925.1
1577.54624	9657.6
1580.88103	8730.5
1584.2136	7678.5
1587.54395	7119
1590.87208	7155.6
1594.19801	7744.5
1597.52172	8374.6
1600.84321	8592.8
1604.16251	8172.4
1607.47959	7515.1
1610.79447	6813.3
1614.10715	6197.4
1617.41763	5721.7
1620.7259	5465.9
1624.03199	5348.7
1627.33587	5403
1630.63757	5677
1633.93707	6192
1637.23439	7097.7
1640.52951	8631.5
1643.82246	10768.2
1647.11321	12967.8
1650.40179	14025.4
1653.68819	12874
1656.97241	10407.5
1660.25446	8018.6
1663.53433	6418.3
1666.81203	5489.5
1670.08756	4976.6
1673.36092	4650.1
1676.63211	4461.6
1679.90115	4309.9
1683.16801	4200.2
1686.43272	4148.8
1689.69527	4069.9
1692.95567	4015.6
1696.2139	4014.3
1699.46999	3973.8
1702.72392	3945.6
1705.97571	3921.6
1709.22535	3893.8
1712.47284	3894.7
1715.71819	3885.4
1718.96139	3856.6
1722.20246	3844.3
1725.44139	3806.6
1728.67818	3757.2
1731.91284	3694.1
1735.14537	3651.3
1738.37576	3639
1741.60403	3610.5
1744.83017	3609.7
1748.05418	3591.5
1751.27607	3582.6
1754.49584	3588.7
1757.71349	3576.5
1760.92903	3562.2
1764.14244	3535.9
1767.35375	3509.9
1770.56294	3492.9
1773.77002	3457.1
1776.97499	3425.8
1780.17785	3398
1783.37861	3372.8
1786.57727	3345.8
1789.77382	3343.7
1792.96828	3332.7
1796.16064	3306
1799.3509	3296
1802.53907	3276.8
1805.72514	3272.9
1808.90913	3253
1812.09102	3250.4
1815.27083	3227.4
1818.44856	3217.7
1821.6242	3212.8
1824.79776	3215.1
1827.96924	3188.5
1831.13864	3176.6
1834.30597	3155.4
1837.47122	3150.6
1840.6344	3140.1
1843.7955	3151.6
1846.95454	3135.2
1850.11151	3127.4
1853.26642	3125.5
1856.41926	3128.1
1859.57004	3120.9
1862.71876	3114
1865.86542	3109
1869.01003	3111.7
1872.15258	3114.9
1875.29308	3108.8
1878.43152	3104.6
1881.56792	3106.4
1884.70227	3097.4
1887.83457	3097.9
1890.96482	3080.5
1894.09304	3071
1897.21921	3079.4
1900.34335	3079.6
1903.46544	3083.9
1906.58551	3078.5
1909.70353	3065.6
1912.81953	3058.1
1915.93349	3069.7
1919.04543	3057.5
1922.15534	3046.8
1925.26322	3048.8
1928.36908	3018.2
1931.47292	3010.9
1934.57473	2999.2
1937.67453	2984.6
1940.77232	2968.3
1943.86808	2957.2
1946.96184	2939.3
1950.05358	2930.8
1953.14331	2929.3
1956.23103	2916
1959.31675	2914.5
1962.40046	2919.8
1965.48217	2902.9
1968.56188	2902.8
1971.63959	2903.6
1974.7153	2892.6
1977.78901	2873.2
1980.86073	2876.2
1983.93046	2843.3
1986.99819	2831.2
1990.06394	2811.8
1993.1277	2806.9
1996.18947	2796.1
1999.24925	2778
2002.30706	2764.3
2005.36288	2758.7
2008.41672	2752.1
2011.46859	2732.7
2014.51848	2739.3
2017.56639	2733.9
2020.61233	2718.7
2023.6563	2719.7
2026.6983	2714.3
2029.73833	2701.1
2032.7764	2685.6
2035.8125	2673.8
2038.84664	2670.6
2041.87881	2664.7
2044.90903	2663.2
2047.93729	2667.2
2050.96359	2663.7
2053.98794	2649.8
2057.01034	2644
2060.03078	2642.9
2063.04927	2631.8
2066.06582	2637.7
2069.08042	2625.3
2072.09307	2622.3
2075.10378	2631.7
2078.11255	2620.5
2081.11938	2617.7
2084.12426	2620.2
2087.12722	2613.3
2090.12824	2625.2
2093.12732	2639.3
2096.12447	2634.3
2099.11969	2634.8
2102.11299	2620.1
2105.10435	2618.2
2108.09379	2622.9
2111.08131	2627.2
2114.0669	2624.7
2117.05057	2627.4
2120.03233	2632.9
2123.01216	2644.8
2125.99008	2646.6
2128.96609	2647.1
2131.94018	2639.8
2134.91236	2647.4
2137.88263	2654.8
2140.851	2633.9
2143.81746	2624.8
2146.78201	2628.5
2149.74466	2631.6
2152.7054	2608.8
2155.66425	2600.2
2158.6212	2601.7
2161.57625	2588.5
2164.52941	2594.7
2167.48067	2591.5
2170.43004	2586.4
2173.37752	2594.3
2176.32311	2586.9
2179.26681	2594.1
2182.20863	2593.8
2185.14856	2596.2
2188.08661	2598.6
2191.02278	2586.4
2193.95707	2584.5
2196.88948	2582.1
2199.82001	2584.9
2202.74867	2567.2
2205.67545	2570.6
2208.60037	2570
2211.52341	2561.9
2214.44458	2559.4
2217.36388	2548.1
2220.28132	2540.3
2223.1969	2527.5
2226.11061	2522.8
2229.02246	2519
2231.93245	2506.7
2234.84058	2511.3
2237.74686	2504.6
2240.65128	2516.9
2243.55385	2510.1
2246.45456	2503.2
2249.35343	2509.7
2252.25044	2515.3
2255.14561	2524.4
2258.03893	2522.3
2260.93041	2517.8
2263.82004	2518.6
2266.70783	2523
2269.59378	2504
2272.4779	2498.7
2275.36017	2487.8
2278.24061	2486.3
2281.11922	2473.6
2283.996	2469.2
2286.87094	2462.9
2289.74405	2444.3
2292.61534	2452
2295.4848	2437
2298.35243	2428.1
2301.21824	2418.9
2304.08223	2425.5
2306.94439	2436.5
2309.80474	2428.8
2312.66327	2426
2315.51999	2409.9
2318.37489	2412.1
2321.22797	2416.3
2324.07925	2414.2
2326.92871	2405.9
2329.77637	2399
2332.62222	2397.9
2335.46626	2395.8
2338.3085	2408.3
2341.14893	2398.2
2343.98756	2402.9
2346.8244	2388.7
2349.65943	2391
2352.49267	2379.2
2355.32411	2412.4
2358.15376	2410
2360.98161	2425.7
2363.80768	2422.4
2366.63195	2440.3
2369.45444	2444.1
2372.27514	2446.6
2375.09405	2433.6
2377.91118	2437
2380.72652	2430.7
2383.54009	2410.6
2386.35187	2402.8
2389.16188	2370.7
2391.97011	2381.1
2394.77657	2341.7
2397.58125	2360.8
2400.38416	2356.3
2403.18529	2340.3
2405.98466	2321.3
2408.78226	2321.5
2411.57809	2313.9
2414.37216	2314.3
2417.16446	2315
2419.955	2322.9
2422.74378	2319
2425.5308	2309.1
2428.31606	2315.9
2431.09956	2327.9
2433.88131	2310.8
2436.6613	2315
2439.43954	2311.6
2442.21603	2314.5
2444.99077	2312.1
2447.76377	2317.9
2450.53501	2318.7
2453.30451	2327.6
2456.07226	2318.8
2458.83827	2312.1
2461.60254	2329.4
2464.36507	2328.6
2467.12586	2326.5
2469.88492	2312.9
2472.64224	2324.6
2475.39782	2328
2478.15167	2332.8
2480.90379	2348
2483.65417	2359.2
2486.40283	2373.4
2489.14976	2376.7
2491.89497	2379.1
2494.63845	2392.7
2497.3802	2381.9
2500.12024	2379.9
2502.85855	2365.9
2505.59514	2346.3
2508.33002	2326.6
2511.06318	2312.1
2513.79462	2299
2516.52435	2276.3
2519.25237	2264
2521.97867	2256.1
2524.70327	2249.8
2527.42616	2246.8
2530.14734	2247.8
2532.86681	2240.2
2535.58458	2246
2538.30065	2241.3
2541.01501	2250.8
2543.72768	2235.8
2546.43864	2242.5
2549.14791	2255.3
2551.85548	2245.1
2554.56136	2247.5
2557.26554	2252.9
2559.96803	2238.9
2562.66883	2243.7
2565.36794	2238.7
2568.06536	2240.2
2570.7611	2232.6
2573.45514	2223.5
2576.14751	2221.5
2578.83819	2220.9
2581.52719	2211.4
2584.21451	2213.9
2586.90015	2210.6
2589.58411	2200.9
2592.2664	2199.8
2594.94701	2188.2
2597.62594	2188.2
2600.30321	2204.2
2602.9788	2185.1
2605.65273	2189.9
2608.32498	2187.9
2610.99557	2198.8
2613.66449	2202.4
2616.33175	2192.1
2618.99734	2192.4
2621.66128	2183.6
2624.32355	2175.6
2626.98416	2179.6
2629.64311	2171
2632.30041	2171.5
2634.95605	2164.4
2637.61004	2156.6
2640.26238	2152.7
2642.91306	2146.9
2645.56209	2149.6
2648.20948	2131.6
2650.85521	2140.8
2653.4993	2146.9
2656.14175	2148.2
2658.78255	2155.3
2661.42171	2157.9
2664.05923	2153.4
2666.6951	2171.3
2669.32934	2178.1
2671.96194	2179.3
2674.59291	2168.6
2677.22224	2172.7
2679.84993	2182.5
2682.476	2172.5
2685.10043	2173
2687.72324	2165.9
2690.34441	2167.2
2692.96396	2149.4
2695.58188	2158.3
2698.19818	2148.1
2700.81285	2151
2703.4259	2155.3
2706.03733	2178.9
2708.64714	2162.1
2711.25533	2160
2713.86191	2159.1
2716.46687	2170.5
2719.07021	2158
2721.67194	2171.3
2724.27206	2163.7
2726.87057	2171.3
2729.46747	2176.6
2732.06276	2165.9
2734.65644	2156.4
2737.24852	2154.9
2739.83899	2149
2742.42786	2158.7
2745.01513	2142.7
2747.60079	2150.5
2750.18486	2127.5
2752.76733	2137.8
2755.3482	2121.9
2757.92747	2131.7
2760.50515	2122.8
2763.08123	2110.4
2765.65573	2107.4
2768.22863	2110.6
2770.79994	2116.6
2773.36967	2109.2
2775.9378	2099
2778.50435	2107.8
2781.06932	2102.1
2783.6327	2107
2786.1945	2104.5
2788.75471	2108
2791.31335	2111.3
2793.87041	2115.3
2796.42589	2126.9
2798.97979	2107.6
2801.53212	2117.1
2804.08288	2116.6
2806.63206	2112.3
2809.17967	2127.2
2811.72571	2130.2
2814.27018	2129.7
2816.81308	2127.2
2819.35442	2140.9
2821.89419	2138.9
2824.43239	2139.8
2826.96904	2145.7
2829.50412	2151.2
2832.03763	2145
2834.56959	2145.9
2837.1	2145.8
2839.62884	2154.1
2842.15613	2153.4
2844.68186	2162
2847.20604	2160.8
2849.72867	2175.8
2852.24974	2182.8
2854.76927	2194.6
2857.28724	2198.9
2859.80367	2220.8
2862.31855	2232.3
2864.83189	2236.4
2867.34368	2255.9
2869.85393	2271.9
2872.36264	2272.5
2874.8698	2295.2
2877.37543	2287.9
2879.87952	2282.9
2882.38207	2293.2
2884.88308	2294.1
2887.38256	2305
2889.88051	2293.7
2892.37692	2302.5
2894.8718	2325.8
2897.36515	2330.9
2899.85698	2341.6
2902.34727	2343.4
2904.83604	2354
2907.32328	2369.6
2909.809	2367.4
2912.29319	2386
2914.77587	2373.3
2917.25702	2389.7
2919.73665	2384.7
2922.21476	2379.5
2924.69136	2381.8
2927.16644	2387.4
2929.64	2359.7
2932.11205	2366
2934.58258	2353.7
2937.05161	2358.1
2939.51912	2350.4
2941.98513	2346.8
2944.44962	2336.5
2946.91261	2320.3
2949.37409	2307
2951.83407	2298.2
2954.29254	2300.6
2956.74951	2279.9
2959.20498	2267.5
2961.65895	2251
2964.11142	2247
2966.56239	2227.6
2969.01186	2212.5
2971.45984	2188.1
2973.90632	2191.8
2976.35131	2170.5
2978.7948	2163
2981.23681	2150.4
2983.67732	2161.9
2986.11635	2149.2
2988.55388	2126.6
2990.98993	2127.4
2993.4245	2115.7
2995.85758	2109.9
2998.28917	2101
3000.71928	2101.4
3003.14791	2097
3005.57506	2101.5
3008.00073	2084.7
3010.42493	2058.5
3012.84764	2087.5
3015.26888	2081.4
3017.68865	2072.7
3020.10694	2072.8
3022.52376	2065
3024.9391	2052
3027.35298	2047.9
3029.76539	2049.9
3032.17632	2051.5
3034.5858	2030.3
3036.9938	2037.2
3039.40034	2028.5
3041.80542	2026
3044.20903	2021.7
3046.61118	2030.2
3049.01187	2016.9
3051.4111	2025.5
3053.80888	2024.1
3056.20519	2027.4
3058.60005	2034.2
3060.99345	2030.9
3063.3854	2029.1
3065.7759	2015.9
3068.16494	2012.9
3070.55254	2011.8
3072.93868	2005.3
3075.32338	1994.6
3077.70662	1987.6
3080.08842	1978.5
3082.46878	1990.2
3084.84769	1997.9
3087.22515	1992.1
3089.60118	2005.6
3091.97576	2000
3094.3489	2003.5
3096.72061	2003
3099.09087	2006
3101.4597	2019.3
3103.82709	2035
3106.19305	2020.3
3108.55757	2037.3
3110.92066	2026.8
3113.28232	2037.9
3115.64255	2045
3118.00134	2031.1
3120.35871	2041.2
3122.71466	2040.9
3125.06917	2038.2
3127.42226	2042.1
3129.77393	2038.9
3132.12417	2067.3
3134.47299	2057.6
3136.82039	2061.7
3139.16636	2064.7
3141.51092	2074.6
3143.85406	2085.9
3146.19579	2072.8
3148.53609	2085.4
3150.87499	2100
3153.21246	2113.3
3155.54853	2110.2
3157.88318	2126.6
3160.21642	2132.9
3162.54826	2117.5
3164.87868	2143.6
3167.2077	2144.7
3169.5353	2161.3
3171.86151	2155.9
3174.18631	2163.7
3176.5097	2160
3178.83169	2153.2
3181.15228	2167.5
3183.47147	2173.1
3185.78926	2173.9
3188.10565	2159.5
3190.42065	2179.7
3192.73424	2184.9
3195.04645	2183.9
3197.35725	2178.8
3199.66667	2183.9
3201.97469	2199.5
3204.28132	2200.4
3206.58656	2216.3
3208.8904	2221
3211.19287	2222.3
3213.49394	2231.7
3215.79363	2233
3218.09193	2244.3
3220.38884	2260.3
3222.68438	2259.2
3224.97853	2272.8
3227.2713	2268
3229.56269	2255.6
3231.8527	2264.2
3234.14133	2261.2
3236.42858	2249.1
3238.71446	2255.6
3240.99896	2258.3
3243.28209	2259.1
3245.56384	2255.4
3247.84423	2253.2
3250.12324	2243.5
3252.40088	2244.1
3254.67715	2239.4
3256.95205	2241.2
3259.22558	2256.3
3261.49775	2260.5
3263.76855	2253.8
3266.03799	2256.4
3268.30606	2267.4
3270.57277	2263.8
3272.83812	2266.2
3275.10211	2261.2
3277.36474	2278.4
3279.62601	2277.3
3281.88593	2257.4
3284.14448	2272.8
3286.40168	2277.8
3288.65753	2284.5
3290.91202	2286
3293.16516	2282.4
3295.41695	2280.2
3297.66738	2274.1
3299.91647	2273.6
3302.16421	2259.6
3304.4106	2251.6
3306.65564	2240.9
3308.89933	2225.5
3311.14169	2207.9
3313.38269	2191.2
3315.62236	2185.9
3317.86068	2162.7
3320.09766	2160.7
3322.3333	2141.2
3324.5676	2132.9
3326.80056	2105.5
3329.03219	2095
3331.26248	1.5
3333.49143	0
3335.71905	2.1
