Data from AgNPs_UA_50uM_CRN_500uM_AS_RamanShift__21__15-30-01-566.txt Node

Date: Wed Aug 17 15:30:01 BST 2022
User: TCL
Spectrometer: QEP01345
Trigger mode: 4
Integration Time (sec): 7.000000E0
Scans to average: 10
Electric dark correction enabled: true
Nonlinearity correction enabled: false
Boxcar width: 0
XAxis mode: Raman Shifts
Number of Pixels in Spectrum: 1044
>>>>>Begin Spectral Data<<<<<
46.04893	-1.4125
50.45542	-0.6125
54.85868	-1.1125
59.25871	-0.3125
63.6555	28.1875
68.04907	26.1875
72.43941	30.5875
76.82654	31.1875
81.21044	32.7875
85.59113	31.2875
89.96862	33.2875
94.34289	44.6875
98.71396	42.3875
103.08183	38.1875
107.4465	42.8875
111.80798	39.5875
116.16626	42.0875
120.52136	40.8875
124.87327	39.0875
129.222	42.9875
133.56755	43.4875
137.90993	42.0875
142.24913	46.8875
146.58517	51.1875
150.91804	54.7875
155.24774	59.7875
159.57429	64.0875
163.89768	79.5875
168.21792	97.5875
172.53501	126.7875
176.84895	169.8875
181.15975	231.5875
185.46741	316.0875
189.77193	435.1875
194.07331	568.5875
198.37157	741.9875
202.6667	916.0875
206.9587	1095.2875
211.24758	1287.1875
215.53334	1484.3875
219.81599	1701.5875
224.09553	1947.4875
228.37195	2217.2875
232.64527	2501.1875
236.91549	2768.1875
241.18261	3001.0875
245.44663	3176.7875
249.70755	3299.2875
253.96539	3406.5875
258.22014	3495.2875
262.4718	3566.4875
266.72039	3618.9875
270.96589	3616.0875
275.20832	3552.6875
279.44768	3448.6875
283.68397	3334.7875
287.91719	3259.9875
292.14735	3274.5875
296.37445	3367.4875
300.59849	3541.9875
304.81948	3738.5875
309.03742	3880.6875
313.25231	3864.6875
317.46415	3675.9875
321.67296	3380.0875
325.87872	3160.1875
330.08145	3054.4875
334.28114	3065.1875
338.47781	3128.8875
342.67145	3231.1875
346.86207	3370.7875
351.04966	3580.6875
355.23424	3869.5875
359.4158	4066.8875
363.59435	4194.3875
367.76989	4229.2875
371.94243	4209.7875
376.11196	4181.5875
380.27849	4162.4875
384.44203	4093.2875
388.60257	4014.0875
392.76012	3969.3875
396.91468	3984.0875
401.06626	4048.5875
405.21485	4094.8875
409.36047	3966.1875
413.50311	3733.5875
417.64277	3513.9875
421.77947	3386.1875
425.9132	3331.2875
430.04396	3320.4875
434.17176	3354.3875
438.2966	3393.2875
442.41849	3472.0875
446.53742	3561.4875
450.6534	3617.1875
454.76644	3638.8875
458.87653	3640.9875
462.98368	3620.3875
467.08789	3574.5875
471.18916	3523.8875
475.2875	3473.8875
479.38291	3430.8875
483.4754	3390.9875
487.56496	3366.8875
491.6516	3365.4875
495.73531	3367.9875
499.81612	3387.5875
503.89401	3431.4875
507.96899	3490.0875
512.04106	3564.8875
516.11023	3652.6875
520.1765	3704.2875
524.23987	3714.9875
528.30034	3663.5875
532.35792	3632.9875
536.41261	3584.4875
540.46441	3512.8875
544.51333	3489.4875
548.55936	3508.5875
552.60252	3565.2875
556.64279	3646.3875
560.6802	3704.1875
564.71473	3778.2875
568.7464	3935.9875
572.7752	3964.3875
576.80114	3772.0875
580.82422	3594.5875
584.84444	3524.3875
588.86181	3506.6875
592.87633	3552.8875
596.888	3644.3875
600.89682	3815.3875
604.9028	4427.0875
608.90594	5920.9875
612.90624	7550.8875
616.90371	6895.7875
620.89834	4815.3875
624.89015	3917.3875
628.87913	3763.5875
632.86528	3875.4875
636.84862	3988.6875
640.82913	3959.3875
644.80683	3756.1875
648.78172	3630.3875
652.75379	3666.8875
656.72306	3828.5875
660.68952	3981.9875
664.65319	3883.1875
668.61405	3689.5875
672.57211	3635.0875
676.52738	3676.9875
680.47986	3717.0875
684.42955	3681.2875
688.37646	3644.9875
692.32058	3624.9875
696.26192	3619.7875
700.20048	3644.7875
704.13626	3667.7875
708.06928	3645.9875
711.99952	3608.3875
715.927	3622.0875
719.85171	3636.8875
723.77365	3665.6875
727.69284	3662.4875
731.60928	3649.5875
735.52295	3626.5875
739.43388	3655.2875
743.34206	3671.9875
747.24749	3673.8875
751.15017	3690.6875
755.05012	3739.1875
758.94733	3940.8875
762.8418	4424.2875
766.73354	5249.1875
770.62254	6034.9875
774.50882	6376.2875
778.39237	6038.2875
782.27321	5215.0875
786.15132	4442.1875
790.02671	4015.8875
793.89938	3806.8875
797.76935	3731.1875
801.6366	3705.9875
805.50115	3688.7875
809.36299	3701.2875
813.22213	3692.6875
817.07857	3679.9875
820.93231	3680.4875
824.78336	3662.0875
828.63172	3688.0875
832.47738	3695.2875
836.32036	3665.8875
840.16066	3645.8875
843.99827	3640.2875
847.8332	3646.5875
851.66546	3656.1875
855.49504	3661.4875
859.32195	3668.7875
863.1462	3681.2875
866.96777	3693.7875
870.78668	3716.9875
874.60293	3724.0875
878.41652	3726.0875
882.22745	3769.6875
886.03573	3786.4875
889.84136	3794.0875
893.64433	3782.0875
897.44466	3768.0875
901.24235	3771.1875
905.0374	3750.7875
908.8298	3731.6875
912.61957	3707.4875
916.40671	3717.1875
920.19121	3709.7875
923.97308	3764.9875
927.75233	3804.0875
931.52895	3888.6875
935.30295	3849.0875
939.07433	3779.2875
942.84309	3713.8875
946.60924	3643.3875
950.37278	3636.7875
954.13371	3607.6875
957.89203	3621.6875
961.64774	3622.1875
965.40086	3614.2875
969.15137	3617.6875
972.89929	3593.2875
976.64461	3581.7875
980.38733	3613.0875
984.12747	3626.1875
987.86502	3626.3875
991.59999	3627.9875
995.33237	3677.6875
999.06217	3701.2875
1002.78939	3758.3875
1006.51404	3816.7875
1010.23611	3872.9875
1013.95561	3884.4875
1017.67255	3884.2875
1021.38692	3855.8875
1025.09872	3832.1875
1028.80796	3800.9875
1032.51465	3816.7875
1036.21877	3843.9875
1039.92035	3876.8875
1043.61937	3903.3875
1047.31584	3931.2875
1051.00976	3939.3875
1054.70114	3942.8875
1058.38998	3927.6875
1062.07627	3959.6875
1065.76003	3948.2875
1069.44126	3961.8875
1073.11995	3987.4875
1076.79611	4042.5875
1080.46974	4139.3875
1084.14085	4269.3875
1087.80943	4387.1875
1091.47549	4413.3875
1095.13903	4358.8875
1098.80005	4241.1875
1102.45857	4196.5875
1106.11456	4183.7875
1109.76805	4250.8875
1113.41903	4393.7875
1117.06751	4556.1875
1120.71348	4790.9875
1124.35696	4996.1875
1127.99793	5155.3875
1131.63641	5103.4875
1135.2724	4832.9875
1138.90589	4622.0875
1142.5369	4481.8875
1146.16542	4373.8875
1149.79145	4302.9875
1153.415	4255.8875
1157.03607	4261.3875
1160.65467	4316.1875
1164.27079	4438.7875
1167.88443	4605.7875
1171.49561	4878.7875
1175.10432	5349.2875
1178.71056	6062.7875
1182.31434	6628.6875
1185.91565	6753.7875
1189.51451	6440.5875
1193.11091	5966.0875
1196.70485	5547.5875
1200.29634	5291.8875
1203.88538	5108.7875
1207.47197	4860.8875
1211.05612	4639.6875
1214.63782	4477.4875
1218.21708	4417.0875
1221.79391	4382.5875
1225.36829	4394.6875
1228.94024	4384.5875
1232.50976	4395.0875
1236.07685	4392.1875
1239.6415	4419.3875
1243.20374	4441.3875
1246.76355	4476.6875
1250.32093	4516.0875
1253.8759	4558.3875
1257.42845	4658.0875
1260.97859	4764.1875
1264.52631	4898.0875
1268.07163	5030.5875
1271.61453	5115.6875
1275.15503	5173.3875
1278.69312	5184.2875
1282.22882	5220.4875
1285.76211	5322.0875
1289.29301	5464.0875
1292.82151	5648.7875
1296.34761	5874.5875
1299.87133	6239.8875
1303.39266	6864.0875
1306.9116	7762.9875
1310.42815	8585.8875
1313.94233	8708.8875
1317.45412	8015.4875
1320.96354	7145.0875
1324.47058	6407.6875
1327.97525	5822.3875
1331.47754	5504.5875
1334.97747	5374.7875
1338.47502	5417.5875
1341.97022	5608.1875
1345.46305	6033.5875
1348.95352	6644.6875
1352.44163	7424.0875
1355.92738	8404.3875
1359.41078	9918.5875
1362.89183	11205.7875
1366.37053	10722.9875
1369.84688	8742.0875
1373.32088	7094.5875
1376.79254	6181.2875
1380.26186	5693.0875
1383.72883	5369.0875
1387.19347	5127.0875
1390.65578	4947.6875
1394.11575	4766.7875
1397.57339	4658.9875
1401.0287	4617.9875
1404.48168	4577.3875
1407.93234	4571.6875
1411.38068	4587.4875
1414.82669	4641.1875
1418.27039	4673.4875
1421.71177	4688.0875
1425.15083	4661.5875
1428.58758	4640.4875
1432.02203	4682.7875
1435.45416	4730.5875
1438.88399	4726.0875
1442.31151	4678.8875
1445.73673	4683.8875
1449.15965	4677.8875
1452.58027	4685.9875
1455.9986	4653.8875
1459.41463	4653.7875
1462.82837	4678.6875
1466.23982	4767.4875
1469.64898	4852.3875
1473.05586	4924.2875
1476.46045	4930.7875
1479.86276	4966.8875
1483.26279	5051.6875
1486.66054	5208.0875
1490.05602	5447.2875
1493.44922	5791.9875
1496.84016	6359.3875
1500.22882	7316.5875
1503.61521	8661.9875
1506.99934	10116.7875
1510.38121	11078.1875
1513.76081	10882.6875
1517.13816	9638.7875
1520.51324	8109.2875
1523.88607	6874.8875
1527.25665	6135.6875
1530.62498	5755.7875
1533.99105	5550.6875
1537.35488	5399.4875
1540.71647	5301.8875
1544.07581	5314.7875
1547.4329	5336.0875
1550.78776	5405.3875
1554.14038	5482.7875
1557.49077	5570.1875
1560.83892	5677.0875
1564.18484	5897.4875
1567.52853	6145.9875
1570.86999	6382.0875
1574.20922	6507.9875
1577.54624	6427.5875
1580.88103	6053.2875
1584.2136	5597.7875
1587.54395	5320.2875
1590.87208	5256.5875
1594.19801	5367.5875
1597.52172	5552.3875
1600.84321	5612.5875
1604.16251	5498.3875
1607.47959	5329.2875
1610.79447	5173.0875
1614.10715	5018.0875
1617.41763	4870.4875
1620.7259	4799.1875
1624.03199	4753.0875
1627.33587	4760.5875
1630.63757	4838.1875
1633.93707	4979.2875
1637.23439	5213.4875
1640.52951	5625.1875
1643.82246	6312.5875
1647.11321	7163.1875
1650.40179	7746.1875
1653.68819	7536.6875
1656.97241	6736.5875
1660.25446	5880.4875
1663.53433	5296.3875
1666.81203	4968.0875
1670.08756	4795.1875
1673.36092	4674.6875
1676.63211	4581.0875
1679.90115	4528.0875
1683.16801	4490.5875
1686.43272	4460.0875
1689.69527	4447.5875
1692.95567	4434.9875
1696.2139	4431.9875
1699.46999	4454.9875
1702.72392	4424.9875
1705.97571	4397.4875
1709.22535	4385.4875
1712.47284	4401.0875
1715.71819	4372.6875
1718.96139	4360.9875
1722.20246	4350.8875
1725.44139	4345.5875
1728.67818	4324.3875
1731.91284	4297.5875
1735.14537	4269.0875
1738.37576	4311.5875
1741.60403	4285.8875
1744.83017	4292.2875
1748.05418	4298.5875
1751.27607	4319.1875
1754.49584	4324.8875
1757.71349	4326.8875
1760.92903	4314.8875
1764.14244	4303.6875
1767.35375	4284.9875
1770.56294	4277.6875
1773.77002	4270.6875
1776.97499	4253.0875
1780.17785	4257.5875
1783.37861	4237.1875
1786.57727	4228.5875
1789.77382	4230.6875
1792.96828	4217.6875
1796.16064	4210.6875
1799.3509	4210.7875
1802.53907	4203.7875
1805.72514	4192.4875
1808.90913	4182.0875
1812.09102	4186.2875
1815.27083	4165.5875
1818.44856	4164.9875
1821.6242	4176.1875
1824.79776	4184.1875
1827.96924	4172.3875
1831.13864	4166.5875
1834.30597	4165.7875
1837.47122	4155.2875
1840.6344	4152.4875
1843.7955	4163.6875
1846.95454	4155.1875
1850.11151	4149.6875
1853.26642	4156.3875
1856.41926	4146.9875
1859.57004	4180.9875
1862.71876	4140.5875
1865.86542	4172.7875
1869.01003	4175.7875
1872.15258	4183.9875
1875.29308	4177.0875
1878.43152	4179.2875
1881.56792	4197.5875
1884.70227	4193.2875
1887.83457	4186.1875
1890.96482	4175.6875
1894.09304	4180.7875
1897.21921	4179.6875
1900.34335	4192.8875
1903.46544	4187.3875
1906.58551	4208.4875
1909.70353	4200.5875
1912.81953	4194.8875
1915.93349	4197.3875
1919.04543	4197.8875
1922.15534	4192.1875
1925.26322	4201.4875
1928.36908	4192.8875
1931.47292	4174.0875
1934.57473	4187.5875
1937.67453	4191.9875
1940.77232	4190.6875
1943.86808	4173.2875
1946.96184	4162.9875
1950.05358	4139.3875
1953.14331	4145.8875
1956.23103	4158.5875
1959.31675	4137.7875
1962.40046	4147.9875
1965.48217	4132.4875
1968.56188	4127.4875
1971.63959	4117.3875
1974.7153	4107.3875
1977.78901	4098.2875
1980.86073	4096.2875
1983.93046	4084.8875
1986.99819	4093.0875
1990.06394	4086.9875
1993.1277	4068.9875
1996.18947	4078.5875
1999.24925	4082.4875
2002.30706	4057.9875
2005.36288	4044.1875
2008.41672	4038.4875
2011.46859	4036.4875
2014.51848	4021.7875
2017.56639	4026.0875
2020.61233	4041.1875
2023.6563	4018.7875
2026.6983	4008.9875
2029.73833	4000.6875
2032.7764	3992.2875
2035.8125	3991.7875
2038.84664	3986.0875
2041.87881	4002.7875
2044.90903	4000.9875
2047.93729	4000.8875
2050.96359	3986.5875
2053.98794	3985.5875
2057.01034	4000.9875
2060.03078	3999.2875
2063.04927	3994.5875
2066.06582	4013.1875
2069.08042	4009.7875
2072.09307	4010.4875
2075.10378	4011.0875
2078.11255	4007.7875
2081.11938	4012.8875
2084.12426	4010.6875
2087.12722	4029.0875
2090.12824	4051.1875
2093.12732	4047.1875
2096.12447	4052.9875
2099.11969	4053.2875
2102.11299	4063.9875
2105.10435	4070.9875
2108.09379	4072.9875
2111.08131	4073.1875
2114.0669	4091.9875
2117.05057	4097.7875
2120.03233	4122.5875
2123.01216	4134.7875
2125.99008	4144.9875
2128.96609	4159.5875
2131.94018	4148.8875
2134.91236	4176.4875
2137.88263	4169.6875
2140.851	4176.9875
2143.81746	4193.0875
2146.78201	4182.6875
2149.74466	4194.3875
2152.7054	4202.7875
2155.66425	4198.7875
2158.6212	4200.1875
2161.57625	4207.1875
2164.52941	4216.2875
2167.48067	4211.6875
2170.43004	4226.3875
2173.37752	4222.3875
2176.32311	4243.3875
2179.26681	4260.0875
2182.20863	4246.1875
2185.14856	4258.1875
2188.08661	4275.7875
2191.02278	4267.9875
2193.95707	4271.8875
2196.88948	4262.4875
2199.82001	4247.4875
2202.74867	4258.0875
2205.67545	4283.7875
2208.60037	4279.0875
2211.52341	4289.6875
2214.44458	4275.1875
2217.36388	4281.1875
2220.28132	4285.7875
2223.1969	4254.4875
2226.11061	4245.4875
2229.02246	4238.0875
2231.93245	4258.8875
2234.84058	4264.4875
2237.74686	4249.2875
2240.65128	4258.8875
2243.55385	4287.8875
2246.45456	4279.3875
2249.35343	4286.4875
2252.25044	4291.7875
2255.14561	4281.4875
2258.03893	4300.9875
2260.93041	4297.2875
2263.82004	4281.1875
2266.70783	4283.5875
2269.59378	4275.9875
2272.4779	4264.5875
2275.36017	4257.8875
2278.24061	4271.9875
2281.11922	4245.3875
2283.996	4252.6875
2286.87094	4261.9875
2289.74405	4245.1875
2292.61534	4246.4875
2295.4848	4243.5875
2298.35243	4246.2875
2301.21824	4247.0875
2304.08223	4265.0875
2306.94439	4279.2875
2309.80474	4278.1875
2312.66327	4280.7875
2315.51999	4275.9875
2318.37489	4269.6875
2321.22797	4257.2875
2324.07925	4252.1875
2326.92871	4266.3875
2329.77637	4242.6875
2332.62222	4256.7875
2335.46626	4254.5875
2338.3085	4263.2875
2341.14893	4271.2875
2343.98756	4261.1875
2346.8244	4265.1875
2349.65943	4261.0875
2352.49267	4251.8875
2355.32411	4279.3875
2358.15376	4266.1875
2360.98161	4289.8875
2363.80768	4305.6875
2366.63195	4314.1875
2369.45444	4300.2875
2372.27514	4291.7875
2375.09405	4317.4875
2377.91118	4293.8875
2380.72652	4299.6875
2383.54009	4310.8875
2386.35187	4332.5875
2389.16188	4286.0875
2391.97011	4270.4875
2394.77657	4273.9875
2397.58125	4287.6875
2400.38416	4274.4875
2403.18529	4269.6875
2405.98466	4275.7875
2408.78226	4257.7875
2411.57809	4245.6875
2414.37216	4250.9875
2417.16446	4258.5875
2419.955	4285.7875
2422.74378	4270.8875
2425.5308	4284.3875
2428.31606	4288.3875
2431.09956	4287.0875
2433.88131	4271.5875
2436.6613	4286.6875
2439.43954	4304.1875
2442.21603	4273.9875
2444.99077	4286.3875
2447.76377	4269.7875
2450.53501	4277.6875
2453.30451	4287.8875
2456.07226	4304.3875
2458.83827	4292.3875
2461.60254	4286.4875
2464.36507	4292.8875
2467.12586	4304.4875
2469.88492	4285.4875
2472.64224	4290.1875
2475.39782	4309.4875
2478.15167	4316.2875
2480.90379	4315.7875
2483.65417	4321.4875
2486.40283	4331.7875
2489.14976	4350.0875
2491.89497	4351.3875
2494.63845	4355.1875
2497.3802	4360.2875
2500.12024	4341.1875
2502.85855	4337.2875
2505.59514	4322.2875
2508.33002	4330.3875
2511.06318	4320.0875
2513.79462	4330.7875
2516.52435	4319.8875
2519.25237	4308.9875
2521.97867	4306.2875
2524.70327	4307.0875
2527.42616	4305.1875
2530.14734	4290.7875
2532.86681	4298.1875
2535.58458	4312.0875
2538.30065	4329.9875
2541.01501	4322.4875
2543.72768	4310.8875
2546.43864	4326.9875
2549.14791	4318.1875
2551.85548	4292.9875
2554.56136	4303.3875
2557.26554	4304.5875
2559.96803	4308.0875
2562.66883	4318.4875
2565.36794	4303.4875
2568.06536	4289.7875
2570.7611	4281.0875
2573.45514	4264.0875
2576.14751	4260.2875
2578.83819	4256.8875
2581.52719	4252.2875
2584.21451	4261.3875
2586.90015	4280.8875
2589.58411	4283.7875
2592.2664	4280.3875
2594.94701	4278.8875
2597.62594	4285.4875
2600.30321	4266.7875
2602.9788	4257.9875
2605.65273	4280.8875
2608.32498	4268.6875
2610.99557	4285.3875
2613.66449	4299.9875
2616.33175	4268.0875
2618.99734	4264.6875
2621.66128	4249.5875
2624.32355	4238.5875
2626.98416	4238.7875
2629.64311	4250.1875
2632.30041	4265.5875
2634.95605	4251.4875
2637.61004	4220.4875
2640.26238	4230.5875
2642.91306	4229.5875
2645.56209	4221.7875
2648.20948	4219.6875
2650.85521	4216.8875
2653.4993	4227.8875
2656.14175	4246.7875
2658.78255	4260.5875
2661.42171	4272.7875
2664.05923	4286.2875
2666.6951	4300.3875
2669.32934	4302.2875
2671.96194	4277.5875
2674.59291	4291.9875
2677.22224	4291.3875
2679.84993	4301.4875
2682.476	4310.4875
2685.10043	4303.5875
2687.72324	4301.4875
2690.34441	4290.8875
2692.96396	4307.3875
2695.58188	4314.2875
2698.19818	4325.5875
2700.81285	4338.4875
2703.4259	4333.4875
2706.03733	4342.7875
2708.64714	4333.4875
2711.25533	4333.1875
2713.86191	4325.6875
2716.46687	4347.5875
2719.07021	4354.5875
2721.67194	4363.1875
2724.27206	4368.7875
2726.87057	4386.6875
2729.46747	4371.4875
2732.06276	4373.0875
2734.65644	4366.3875
2737.24852	4351.0875
2739.83899	4355.1875
2742.42786	4368.4875
2745.01513	4361.3875
2747.60079	4357.8875
2750.18486	4338.5875
2752.76733	4354.4875
2755.3482	4339.2875
2757.92747	4334.8875
2760.50515	4341.2875
2763.08123	4346.7875
2765.65573	4324.6875
2768.22863	4329.4875
2770.79994	4326.9875
2773.36967	4333.9875
2775.9378	4323.5875
2778.50435	4328.9875
2781.06932	4320.5875
2783.6327	4314.7875
2786.1945	4330.1875
2788.75471	4336.1875
2791.31335	4317.0875
2793.87041	4323.8875
2796.42589	4326.8875
2798.97979	4323.1875
2801.53212	4322.1875
2804.08288	4322.3875
2806.63206	4324.3875
2809.17967	4321.2875
2811.72571	4303.0875
2814.27018	4311.8875
2816.81308	4296.5875
2819.35442	4290.7875
2821.89419	4295.6875
2824.43239	4304.9875
2826.96904	4301.5875
2829.50412	4294.0875
2832.03763	4287.7875
2834.56959	4269.2875
2837.1	4277.3875
2839.62884	4284.4875
2842.15613	4286.7875
2844.68186	4306.3875
2847.20604	4296.8875
2849.72867	4286.7875
2852.24974	4297.9875
2854.76927	4313.6875
2857.28724	4307.2875
2859.80367	4308.4875
2862.31855	4302.0875
2864.83189	4319.1875
2867.34368	4322.1875
2869.85393	4324.2875
2872.36264	4316.8875
2874.8698	4322.9875
2877.37543	4337.9875
2879.87952	4324.7875
2882.38207	4324.6875
2884.88308	4326.6875
2887.38256	4344.9875
2889.88051	4347.2875
2892.37692	4358.8875
2894.8718	4376.2875
2897.36515	4379.6875
2899.85698	4391.8875
2902.34727	4413.1875
2904.83604	4421.7875
2907.32328	4428.7875
2909.809	4441.6875
2912.29319	4444.7875
2914.77587	4448.8875
2917.25702	4459.1875
2919.73665	4451.8875
2922.21476	4466.8875
2924.69136	4479.2875
2927.16644	4465.3875
2929.64	4450.1875
2932.11205	4467.9875
2934.58258	4448.0875
2937.05161	4470.0875
2939.51912	4472.1875
2941.98513	4503.0875
2944.44962	4487.4875
2946.91261	4477.5875
2949.37409	4473.2875
2951.83407	4475.8875
2954.29254	4474.7875
2956.74951	4479.9875
2959.20498	4469.4875
2961.65895	4459.7875
2964.11142	4458.7875
2966.56239	4452.8875
2969.01186	4453.0875
2971.45984	4451.2875
2973.90632	4463.1875
2976.35131	4451.8875
2978.7948	4436.0875
2981.23681	4436.6875
2983.67732	4450.8875
2986.11635	4451.9875
2988.55388	4447.0875
2990.98993	4429.6875
2993.4245	4413.5875
2995.85758	4420.5875
2998.28917	4395.1875
3000.71928	4410.4875
3003.14791	4406.1875
3005.57506	4402.4875
3008.00073	4392.4875
3010.42493	4357.3875
3012.84764	4393.1875
3015.26888	4379.4875
3017.68865	4376.1875
3020.10694	4383.4875
3022.52376	4389.9875
3024.9391	4388.1875
3027.35298	4376.5875
3029.76539	4365.5875
3032.17632	4377.8875
3034.5858	4365.3875
3036.9938	4376.5875
3039.40034	4372.9875
3041.80542	4377.1875
3044.20903	4378.8875
3046.61118	4398.0875
3049.01187	4379.0875
3051.4111	4369.0875
3053.80888	4374.6875
3056.20519	4378.1875
3058.60005	4372.0875
3060.99345	4402.0875
3063.3854	4384.7875
3065.7759	4376.7875
3068.16494	4347.7875
3070.55254	4337.0875
3072.93868	4339.3875
3075.32338	4330.1875
3077.70662	4321.0875
3080.08842	4315.8875
3082.46878	4339.5875
3084.84769	4341.6875
3087.22515	4330.2875
3089.60118	4346.7875
3091.97576	4331.1875
3094.3489	4341.0875
3096.72061	4365.7875
3099.09087	4389.8875
3101.4597	4396.0875
3103.82709	4420.0875
3106.19305	4407.4875
3108.55757	4411.4875
3110.92066	4423.7875
3113.28232	4421.5875
3115.64255	4436.0875
3118.00134	4424.3875
3120.35871	4418.9875
3122.71466	4418.8875
3125.06917	4416.2875
3127.42226	4421.5875
3129.77393	4435.3875
3132.12417	4434.6875
3134.47299	4452.2875
3136.82039	4468.8875
3139.16636	4437.8875
3141.51092	4446.6875
3143.85406	4459.9875
3146.19579	4449.0875
3148.53609	4468.3875
3150.87499	4502.7875
3153.21246	4505.1875
3155.54853	4504.1875
3157.88318	4506.0875
3160.21642	4539.6875
3162.54826	4534.7875
3164.87868	4539.3875
3167.2077	4567.8875
3169.5353	4577.6875
3171.86151	4592.9875
3174.18631	4589.8875
3176.5097	4602.3875
3178.83169	4607.6875
3181.15228	4605.9875
3183.47147	4584.8875
3185.78926	4586.1875
3188.10565	4585.2875
3190.42065	4613.2875
3192.73424	4607.1875
3195.04645	4595.6875
3197.35725	4585.9875
3199.66667	4591.5875
3201.97469	4600.0875
3204.28132	4633.4875
3206.58656	4652.8875
3208.8904	4651.8875
3211.19287	4652.8875
3213.49394	4649.9875
3215.79363	4638.3875
3218.09193	4657.2875
3220.38884	4690.4875
3222.68438	4709.9875
3224.97853	4702.8875
3227.2713	4715.7875
3229.56269	4712.0875
3231.8527	4725.3875
3234.14133	4703.8875
3236.42858	4691.0875
3238.71446	4707.3875
3240.99896	4691.1875
3243.28209	4684.9875
3245.56384	4683.3875
3247.84423	4696.2875
3250.12324	4670.2875
3252.40088	4662.9875
3254.67715	4663.7875
3256.95205	4655.1875
3259.22558	4689.6875
3261.49775	4698.4875
3263.76855	4690.6875
3266.03799	4679.2875
3268.30606	4703.5875
3270.57277	4690.7875
3272.83812	4690.3875
3275.10211	4679.8875
3277.36474	4687.6875
3279.62601	4703.0875
3281.88593	4664.1875
3284.14448	4668.9875
3286.40168	4672.7875
3288.65753	4653.8875
3290.91202	4648.2875
3293.16516	4639.9875
3295.41695	4636.0875
3297.66738	4613.1875
3299.91647	4610.5875
3302.16421	4594.7875
3304.4106	4584.0875
3306.65564	4555.0875
3308.89933	4520.2875
3311.14169	4505.5875
3313.38269	4460.8875
3315.62236	4450.2875
3317.86068	4412.0875
3320.09766	4379.9875
3322.3333	4349.9875
3324.5676	4318.9875
3326.80056	4272.4875
3329.03219	4239.8875
3331.26248	2.8875
3333.49143	0.9875
3335.71905	1.0875
