Data from AgNPs_UA_5uM_CRN_500uM_AS_RamanShift__12__13-11-33-832.txt Node

Date: Wed Aug 17 13:11:33 BST 2022
User: TCL
Spectrometer: QEP01345
Trigger mode: 4
Integration Time (sec): 7.000000E0
Scans to average: 10
Electric dark correction enabled: true
Nonlinearity correction enabled: false
Boxcar width: 0
XAxis mode: Raman Shifts
Number of Pixels in Spectrum: 1044
>>>>>Begin Spectral Data<<<<<
46.04893	0.9
50.45542	-0.1
54.85868	0.7
59.25871	-0.3
63.6555	45.4
68.04907	45.5
72.43941	51.2
76.82654	54.3
81.21044	59.6
85.59113	58.3
89.96862	64
94.34289	67.1
98.71396	70.7
103.08183	74.1
107.4465	73.6
111.80798	71.5
116.16626	72.4
120.52136	70.6
124.87327	70.4
129.222	73.4
133.56755	71.6
137.90993	74.6
142.24913	75.2
146.58517	74.5
150.91804	72.2
155.24774	81.7
159.57429	89.7
163.89768	103.2
168.21792	118.2
172.53501	143.3
176.84895	181.1
181.15975	239.6
185.46741	322
189.77193	434.5
194.07331	578.8
198.37157	763.9
202.6667	959.3
206.9587	1157.1
211.24758	1372.9
215.53334	1574.3
219.81599	1795.3
224.09553	2011.6
228.37195	2226.1
232.64527	2437.2
236.91549	2633.4
241.18261	2833.4
245.44663	3011.4
249.70755	3158.7
253.96539	3261.4
258.22014	3322.5
262.4718	3330
266.72039	3290
270.96589	3199.9
275.20832	3085.5
279.44768	2956.4
283.68397	2812.9
287.91719	2677.2
292.14735	2536.1
296.37445	2414.2
300.59849	2310.4
304.81948	2245.2
309.03742	2165.2
313.25231	2116.1
317.46415	2076.4
321.67296	2035.9
325.87872	2001.4
330.08145	2002.6
334.28114	1993.7
338.47781	1986.4
342.67145	1990.9
346.86207	2017.3
351.04966	2005.2
355.23424	2002.9
359.4158	2004.6
363.59435	1999.2
367.76989	1978
371.94243	1977.3
376.11196	1968.5
380.27849	1981.8
384.44203	1973.1
388.60257	1971.9
392.76012	1982.2
396.91468	1986.8
401.06626	1989.4
405.21485	1998.9
409.36047	1989.3
413.50311	2005.6
417.64277	2012
421.77947	2015.6
425.9132	2027.1
430.04396	2036.6
434.17176	2052.3
438.2966	2056.9
442.41849	2074.7
446.53742	2104.1
450.6534	2103.5
454.76644	2112.8
458.87653	2135.8
462.98368	2138.2
467.08789	2141.9
471.18916	2151.6
475.2875	2155.1
479.38291	2153.2
483.4754	2165.3
487.56496	2161.7
491.6516	2176.9
495.73531	2192.6
499.81612	2194.4
503.89401	2212.8
507.96899	2205.9
512.04106	2192.3
516.11023	2180.6
520.1765	2169.7
524.23987	2178.4
528.30034	2175.7
532.35792	2174.8
536.41261	2178.4
540.46441	2185.7
544.51333	2184.1
548.55936	2177
552.60252	2195.8
556.64279	2199.1
560.6802	2216.3
564.71473	2222.9
568.7464	2241.9
572.7752	2256.1
576.80114	2272.5
580.82422	2279.3
584.84444	2267.3
588.86181	2256.3
592.87633	2256.9
596.888	2276.7
600.89682	2294.4
604.9028	2336.4
608.90594	2364.8
612.90624	2409.4
616.90371	2397.9
620.89834	2376.3
624.89015	2364.5
628.87913	2364
632.86528	2357.3
636.84862	2362.2
640.82913	2371.6
644.80683	2408
648.78172	2433
652.75379	2448.2
656.72306	2468.8
660.68952	2490.8
664.65319	2512.9
668.61405	2621.9
672.57211	2797.4
676.52738	3036.5
680.47986	3295.5
684.42955	3435.7
688.37646	3399.4
692.32058	3266.6
696.26192	3118.7
700.20048	3003.9
704.13626	2907.5
708.06928	2843.8
711.99952	2760.4
715.927	2673.7
719.85171	2634
723.77365	2613.5
727.69284	2626.2
731.60928	2629.2
735.52295	2605.1
739.43388	2580.8
743.34206	2558
747.24749	2548.8
751.15017	2574.5
755.05012	2595.4
758.94733	2604.6
762.8418	2624.3
766.73354	2621.6
770.62254	2600.4
774.50882	2570.8
778.39237	2534.2
782.27321	2508.2
786.15132	2483.3
790.02671	2466.3
793.89938	2472.6
797.76935	2477.8
801.6366	2475.8
805.50115	2479.4
809.36299	2476.3
813.22213	2478.4
817.07857	2448.3
820.93231	2455.2
824.78336	2468
828.63172	2452.1
832.47738	2457.1
836.32036	2451.1
840.16066	2460.3
843.99827	2452.9
847.8332	2470.6
851.66546	2462.3
855.49504	2474.8
859.32195	2483.5
863.1462	2490.5
866.96777	2509.6
870.78668	2523.4
874.60293	2550.1
878.41652	2547.4
882.22745	2570.6
886.03573	2564.9
889.84136	2555.9
893.64433	2565.4
897.44466	2565.6
901.24235	2564.5
905.0374	2581
908.8298	2581
912.61957	2582.7
916.40671	2580.6
920.19121	2593.5
923.97308	2596.2
927.75233	2614.7
931.52895	2617.8
935.30295	2599.5
939.07433	2601.1
942.84309	2577.8
946.60924	2576
950.37278	2548.5
954.13371	2538.6
957.89203	2533.8
961.64774	2533.9
965.40086	2535
969.15137	2529.5
972.89929	2511.3
976.64461	2496.5
980.38733	2489.6
984.12747	2492.5
987.86502	2483.1
991.59999	2483.2
995.33237	2477.5
999.06217	2485.1
1002.78939	2481.4
1006.51404	2473.4
1010.23611	2486.4
1013.95561	2494.4
1017.67255	2496
1021.38692	2509.6
1025.09872	2510.2
1028.80796	2512.6
1032.51465	2536.8
1036.21877	2558.6
1039.92035	2569
1043.61937	2596.4
1047.31584	2625.1
1051.00976	2651.4
1054.70114	2668.3
1058.38998	2652.5
1062.07627	2652.8
1065.76003	2610.5
1069.44126	2579.1
1073.11995	2544.6
1076.79611	2526.9
1080.46974	2507.5
1084.14085	2509.2
1087.80943	2480.7
1091.47549	2486.5
1095.13903	2484.9
1098.80005	2479.7
1102.45857	2471.3
1106.11456	2469
1109.76805	2473.1
1113.41903	2475.8
1117.06751	2477.1
1120.71348	2471.3
1124.35696	2481.5
1127.99793	2502.6
1131.63641	2506
1135.2724	2494.4
1138.90589	2499.8
1142.5369	2491.6
1146.16542	2494.5
1149.79145	2489.3
1153.415	2500.4
1157.03607	2499.5
1160.65467	2503.6
1164.27079	2510.6
1167.88443	2517.7
1171.49561	2503.1
1175.10432	2514
1178.71056	2517.9
1182.31434	2530
1185.91565	2538.8
1189.51451	2532.4
1193.11091	2542.4
1196.70485	2521.2
1200.29634	2518.1
1203.88538	2519.4
1207.47197	2507.3
1211.05612	2501.5
1214.63782	2500.6
1218.21708	2506
1221.79391	2510.9
1225.36829	2520.4
1228.94024	2534.7
1232.50976	2541.2
1236.07685	2560.7
1239.6415	2586.3
1243.20374	2616.3
1246.76355	2640.9
1250.32093	2673
1253.8759	2703.9
1257.42845	2703.9
1260.97859	2701.8
1264.52631	2701.3
1268.07163	2676.4
1271.61453	2655
1275.15503	2636.3
1278.69312	2631.2
1282.22882	2640.9
1285.76211	2643.8
1289.29301	2635.3
1292.82151	2632.8
1296.34761	2633.7
1299.87133	2642.2
1303.39266	2660.7
1306.9116	2664.9
1310.42815	2674.2
1313.94233	2681.5
1317.45412	2678.6
1320.96354	2677.9
1324.47058	2669.2
1327.97525	2670.7
1331.47754	2680.7
1334.97747	2681.9
1338.47502	2681.4
1341.97022	2681.5
1345.46305	2733.7
1348.95352	2741.6
1352.44163	2763.7
1355.92738	2795
1359.41078	2831.8
1362.89183	2857
1366.37053	2860.3
1369.84688	2840.7
1373.32088	2807.8
1376.79254	2769.2
1380.26186	2743.3
1383.72883	2716.7
1387.19347	2709.8
1390.65578	2687
1394.11575	2679.2
1397.57339	2653.6
1401.0287	2667.6
1404.48168	2692
1407.93234	2711.4
1411.38068	2729.4
1414.82669	2741.6
1418.27039	2744.6
1421.71177	2742.7
1425.15083	2695.3
1428.58758	2675.9
1432.02203	2632.5
1435.45416	2611.1
1438.88399	2596.5
1442.31151	2585.4
1445.73673	2582
1449.15965	2602.6
1452.58027	2621.4
1455.9986	2626.5
1459.41463	2622.5
1462.82837	2630.8
1466.23982	2630
1469.64898	2625.2
1473.05586	2621.8
1476.46045	2595
1479.86276	2566.3
1483.26279	2530.7
1486.66054	2516.1
1490.05602	2502
1493.44922	2515.4
1496.84016	2515.1
1500.22882	2530.3
1503.61521	2542.7
1506.99934	2571
1510.38121	2571.9
1513.76081	2568.4
1517.13816	2556.9
1520.51324	2551.5
1523.88607	2530.2
1527.25665	2534.3
1530.62498	2540.9
1533.99105	2534.1
1537.35488	2535.7
1540.71647	2566.1
1544.07581	2559.6
1547.4329	2569.3
1550.78776	2578.4
1554.14038	2590.1
1557.49077	2610.5
1560.83892	2598.2
1564.18484	2617.4
1567.52853	2609.3
1570.86999	2616.1
1574.20922	2628.4
1577.54624	2601.3
1580.88103	2608.7
1584.2136	2593
1587.54395	2600.4
1590.87208	2583.7
1594.19801	2582
1597.52172	2594.3
1600.84321	2585.2
1604.16251	2594.2
1607.47959	2585
1610.79447	2570.3
1614.10715	2555.8
1617.41763	2539.9
1620.7259	2519.7
1624.03199	2521.4
1627.33587	2507
1630.63757	2505.5
1633.93707	2496.4
1637.23439	2493
1640.52951	2487.1
1643.82246	2503.3
1647.11321	2510.2
1650.40179	2522
1653.68819	2552.6
1656.97241	2507.9
1660.25446	2485.8
1663.53433	2481
1666.81203	2486.4
1670.08756	2492.5
1673.36092	2489.2
1676.63211	2494.6
1679.90115	2491.8
1683.16801	2496.9
1686.43272	2508
1689.69527	2508
1692.95567	2509.3
1696.2139	2513.7
1699.46999	2525.7
1702.72392	2512.7
1705.97571	2505.7
1709.22535	2503.3
1712.47284	2494.9
1715.71819	2480.4
1718.96139	2466.7
1722.20246	2457.1
1725.44139	2444.4
1728.67818	2438
1731.91284	2439.2
1735.14537	2449.4
1738.37576	2461.2
1741.60403	2474.8
1744.83017	2500.3
1748.05418	2561.9
1751.27607	2653.5
1754.49584	2759.8
1757.71349	2847.4
1760.92903	2899.7
1764.14244	2926.5
1767.35375	2878.9
1770.56294	2800.6
1773.77002	2713.9
1776.97499	2635
1780.17785	2568.7
1783.37861	2517.6
1786.57727	2469.4
1789.77382	2422.7
1792.96828	2368.5
1796.16064	2327.9
1799.3509	2296.7
1802.53907	2259.5
1805.72514	2223.2
1808.90913	2207.7
1812.09102	2184.1
1815.27083	2166.1
1818.44856	2161.5
1821.6242	2147.7
1824.79776	2140.2
1827.96924	2122.4
1831.13864	2118
1834.30597	2096.2
1837.47122	2097.2
1840.6344	2087.6
1843.7955	2086.9
1846.95454	2084.6
1850.11151	2084.2
1853.26642	2081.9
1856.41926	2074.3
1859.57004	2077.2
1862.71876	2071.8
1865.86542	2069.8
1869.01003	2075.4
1872.15258	2074.2
1875.29308	2074
1878.43152	2076.9
1881.56792	2075.3
1884.70227	2068.2
1887.83457	2073.5
1890.96482	2066.3
1894.09304	2065.6
1897.21921	2063
1900.34335	2074
1903.46544	2064.1
1906.58551	2066.4
1909.70353	2076.1
1912.81953	2076.2
1915.93349	2072.5
1919.04543	2067.7
1922.15534	2077.8
1925.26322	2079.4
1928.36908	2078.4
1931.47292	2084.6
1934.57473	2083.6
1937.67453	2080.3
1940.77232	2065.6
1943.86808	2075.6
1946.96184	2058.3
1950.05358	2060.1
1953.14331	2053.6
1956.23103	2047.1
1959.31675	2036
1962.40046	2030.4
1965.48217	2031.6
1968.56188	2014
1971.63959	2014.9
1974.7153	1994.3
1977.78901	1996.7
1980.86073	1977.5
1983.93046	1982.5
1986.99819	1968
1990.06394	1965
1993.1277	1959.1
1996.18947	1948.5
1999.24925	1944.7
2002.30706	1934.6
2005.36288	1921.5
2008.41672	1899.3
2011.46859	1907.9
2014.51848	1907.2
2017.56639	1902.5
2020.61233	1908.1
2023.6563	1879.8
2026.6983	1882.1
2029.73833	1881.5
2032.7764	1873.3
2035.8125	1872.9
2038.84664	1859.1
2041.87881	1859.6
2044.90903	1852.2
2047.93729	1851.2
2050.96359	1854.2
2053.98794	1856.8
2057.01034	1851.7
2060.03078	1868.2
2063.04927	1844.5
2066.06582	1848.5
2069.08042	1845.6
2072.09307	1853.9
2075.10378	1852.7
2078.11255	1851.1
2081.11938	1862.9
2084.12426	1862.7
2087.12722	1851.2
2090.12824	1870.4
2093.12732	1867.1
2096.12447	1871.6
2099.11969	1867.2
2102.11299	1868
2105.10435	1860.9
2108.09379	1872.9
2111.08131	1865.5
2114.0669	1863.2
2117.05057	1869
2120.03233	1867.8
2123.01216	1863.9
2125.99008	1882
2128.96609	1867.9
2131.94018	1879.1
2134.91236	1877.7
2137.88263	1878.9
2140.851	1873.9
2143.81746	1880.2
2146.78201	1876.2
2149.74466	1875.9
2152.7054	1881.8
2155.66425	1882
2158.6212	1884.1
2161.57625	1878
2164.52941	1878.2
2167.48067	1868.1
2170.43004	1867.4
2173.37752	1862.9
2176.32311	1868.3
2179.26681	1865.1
2182.20863	1858.5
2185.14856	1861.6
2188.08661	1857.4
2191.02278	1864
2193.95707	1844.7
2196.88948	1855.8
2199.82001	1858
2202.74867	1848
2205.67545	1840.2
2208.60037	1855.3
2211.52341	1836.1
2214.44458	1842.5
2217.36388	1833.2
2220.28132	1833
2223.1969	1823.8
2226.11061	1817
2229.02246	1817.7
2231.93245	1822.4
2234.84058	1807.4
2237.74686	1809.6
2240.65128	1799.2
2243.55385	1813
2246.45456	1806
2249.35343	1793.9
2252.25044	1796.9
2255.14561	1797.8
2258.03893	1788.8
2260.93041	1792
2263.82004	1776.6
2266.70783	1779
2269.59378	1780.8
2272.4779	1777.4
2275.36017	1757.9
2278.24061	1763
2281.11922	1758.8
2283.996	1751.8
2286.87094	1755.8
2289.74405	1760.3
2292.61534	1744.1
2295.4848	1745.3
2298.35243	1738.2
2301.21824	1733.2
2304.08223	1739.7
2306.94439	1744.2
2309.80474	1738.4
2312.66327	1746.1
2315.51999	1730.4
2318.37489	1734.1
2321.22797	1726.9
2324.07925	1730.4
2326.92871	1725.4
2329.77637	1726.3
2332.62222	1723.9
2335.46626	1705.8
2338.3085	1714.9
2341.14893	1712.5
2343.98756	1708.4
2346.8244	1704.4
2349.65943	1702.5
2352.49267	1693.6
2355.32411	1699.9
2358.15376	1699.7
2360.98161	1702.3
2363.80768	1689.3
2366.63195	1697
2369.45444	1694.7
2372.27514	1698.5
2375.09405	1701.6
2377.91118	1678.7
2380.72652	1681.9
2383.54009	1689.5
2386.35187	1683.3
2389.16188	1679.2
2391.97011	1679.7
2394.77657	1674.2
2397.58125	1666.3
2400.38416	1679.4
2403.18529	1668.6
2405.98466	1666.4
2408.78226	1661.7
2411.57809	1657
2414.37216	1648.3
2417.16446	1653
2419.955	1645.9
2422.74378	1664.6
2425.5308	1650.8
2428.31606	1649.9
2431.09956	1645.9
2433.88131	1649
2436.6613	1647.5
2439.43954	1643.1
2442.21603	1637.3
2444.99077	1632.8
2447.76377	1633.2
2450.53501	1628.4
2453.30451	1623.8
2456.07226	1623.9
2458.83827	1619.4
2461.60254	1630.2
2464.36507	1618.2
2467.12586	1615.7
2469.88492	1621.4
2472.64224	1618.9
2475.39782	1624.5
2478.15167	1623.7
2480.90379	1613.6
2483.65417	1619.5
2486.40283	1615.3
2489.14976	1617.1
2491.89497	1613.4
2494.63845	1615.5
2497.3802	1608.3
2500.12024	1602
2502.85855	1598.2
2505.59514	1605.3
2508.33002	1607
2511.06318	1597.6
2513.79462	1591.2
2516.52435	1594.4
2519.25237	1579.8
2521.97867	1587.3
2524.70327	1590
2527.42616	1597.9
2530.14734	1576.9
2532.86681	1589
2535.58458	1583.7
2538.30065	1580.6
2541.01501	1578.9
2543.72768	1573.2
2546.43864	1578.3
2549.14791	1562.9
2551.85548	1568.8
2554.56136	1553.7
2557.26554	1560.6
2559.96803	1566.2
2562.66883	1547.5
2565.36794	1544.5
2568.06536	1551.2
2570.7611	1545.6
2573.45514	1526.6
2576.14751	1536
2578.83819	1533.1
2581.52719	1546.2
2584.21451	1533.6
2586.90015	1528.5
2589.58411	1533.5
2592.2664	1529
2594.94701	1516.8
2597.62594	1518.1
2600.30321	1519.3
2602.9788	1525
2605.65273	1520.6
2608.32498	1522.6
2610.99557	1514.4
2613.66449	1509.5
2616.33175	1506
2618.99734	1497.2
2621.66128	1496.8
2624.32355	1494.8
2626.98416	1497.4
2629.64311	1494.5
2632.30041	1500
2634.95605	1495.3
2637.61004	1494.7
2640.26238	1488.6
2642.91306	1486.3
2645.56209	1491.2
2648.20948	1488.9
2650.85521	1497.3
2653.4993	1485.6
2656.14175	1489.4
2658.78255	1489.2
2661.42171	1490.9
2664.05923	1491
2666.6951	1482.5
2669.32934	1490.2
2671.96194	1498.2
2674.59291	1480.7
2677.22224	1487.8
2679.84993	1495.2
2682.476	1486.4
2685.10043	1487.5
2687.72324	1483.5
2690.34441	1477.6
2692.96396	1481.9
2695.58188	1487.3
2698.19818	1475.4
2700.81285	1492.7
2703.4259	1475.8
2706.03733	1481.8
2708.64714	1480.4
2711.25533	1490.3
2713.86191	1489.5
2716.46687	1482.5
2719.07021	1483.6
2721.67194	1486.9
2724.27206	1487.4
2726.87057	1495.2
2729.46747	1500
2732.06276	1495.8
2734.65644	1486.5
2737.24852	1482.4
2739.83899	1491.4
2742.42786	1480.6
2745.01513	1479.7
2747.60079	1471.2
2750.18486	1479.4
2752.76733	1475.3
2755.3482	1476.2
2757.92747	1479.4
2760.50515	1479.2
2763.08123	1460.1
2765.65573	1472.9
2768.22863	1453.5
2770.79994	1462
2773.36967	1456
2775.9378	1460.8
2778.50435	1464
2781.06932	1466.2
2783.6327	1463.7
2786.1945	1449.7
2788.75471	1460.3
2791.31335	1463.5
2793.87041	1455.6
2796.42589	1458.9
2798.97979	1455.4
2801.53212	1452.3
2804.08288	1451.3
2806.63206	1442.4
2809.17967	1457.5
2811.72571	1448.6
2814.27018	1450.7
2816.81308	1446.2
2819.35442	1444.9
2821.89419	1441.5
2824.43239	1436.2
2826.96904	1434.7
2829.50412	1447.7
2832.03763	1439.4
2834.56959	1442.2
2837.1	1441.5
2839.62884	1439.1
2842.15613	1444.3
2844.68186	1448.2
2847.20604	1448.5
2849.72867	1443.5
2852.24974	1448.1
2854.76927	1447.2
2857.28724	1446.2
2859.80367	1435.5
2862.31855	1445
2864.83189	1443.6
2867.34368	1437.9
2869.85393	1446.1
2872.36264	1449.7
2874.8698	1450.2
2877.37543	1447.1
2879.87952	1455.3
2882.38207	1456.5
2884.88308	1466.7
2887.38256	1467
2889.88051	1476.4
2892.37692	1468.7
2894.8718	1491.4
2897.36515	1497.8
2899.85698	1515.3
2902.34727	1519.8
2904.83604	1521.3
2907.32328	1534
2909.809	1542.6
2912.29319	1549.1
2914.77587	1555.8
2917.25702	1569.1
2919.73665	1575.4
2922.21476	1598.6
2924.69136	1593.3
2927.16644	1610.3
2929.64	1620.5
2932.11205	1622.3
2934.58258	1631.4
2937.05161	1643.6
2939.51912	1661.6
2941.98513	1684.9
2944.44962	1685.4
2946.91261	1694.8
2949.37409	1712.4
2951.83407	1731
2954.29254	1724.6
2956.74951	1708.6
2959.20498	1703.8
2961.65895	1688.2
2964.11142	1672.5
2966.56239	1650.2
2969.01186	1633.7
2971.45984	1608.8
2973.90632	1588.7
2976.35131	1576.9
2978.7948	1559.4
2981.23681	1556.6
2983.67732	1545.4
2986.11635	1549.3
2988.55388	1528.9
2990.98993	1538
2993.4245	1530.6
2995.85758	1523
2998.28917	1520.7
3000.71928	1521
3003.14791	1520.3
3005.57506	1520.8
3008.00073	1522.5
3010.42493	1529.3
3012.84764	1536.4
3015.26888	1531.3
3017.68865	1524.7
3020.10694	1529.6
3022.52376	1522.4
3024.9391	1525.2
3027.35298	1522.3
3029.76539	1523
3032.17632	1516.9
3034.5858	1503.7
3036.9938	1516
3039.40034	1512.6
3041.80542	1511.1
3044.20903	1505.6
3046.61118	1511.8
3049.01187	1502
3051.4111	1498.8
3053.80888	1498.8
3056.20519	1496
3058.60005	1504.4
3060.99345	1498.5
3063.3854	1495.3
3065.7759	1490.7
3068.16494	1489.4
3070.55254	1486.8
3072.93868	1493.5
3075.32338	1488.6
3077.70662	1484.9
3080.08842	1500.8
3082.46878	1498.3
3084.84769	1505.8
3087.22515	1526.1
3089.60118	1524.5
3091.97576	1523.3
3094.3489	1540.7
3096.72061	1547.3
3099.09087	1553.4
3101.4597	1560.4
3103.82709	1568.2
3106.19305	1574.7
3108.55757	1576.5
3110.92066	1587.7
3113.28232	1602.1
3115.64255	1595.9
3118.00134	1602.8
3120.35871	1611.6
3122.71466	1613
3125.06917	1625.2
3127.42226	1624.2
3129.77393	1644.7
3132.12417	1635.1
3134.47299	1641.7
3136.82039	1660.7
3139.16636	1667.7
3141.51092	1666.5
3143.85406	1681.8
3146.19579	1680.9
3148.53609	1690.1
3150.87499	1707.5
3153.21246	1719.4
3155.54853	1728.3
3157.88318	1731
3160.21642	1755.9
3162.54826	1758
3164.87868	1766.9
3167.2077	1774.7
3169.5353	1792.3
3171.86151	1793.4
3174.18631	1805.1
3176.5097	1815.9
3178.83169	1823.2
3181.15228	1816.1
3183.47147	1831.5
3185.78926	1833.2
3188.10565	1843.7
3190.42065	1845.5
3192.73424	1858.1
3195.04645	1856.1
3197.35725	1858.8
3199.66667	1873.7
3201.97469	1876.9
3204.28132	1887.9
3206.58656	1898.1
3208.8904	1904
3211.19287	1915.8
3213.49394	1910.5
3215.79363	1921.4
3218.09193	1926.7
3220.38884	1925.9
3222.68438	1937.4
3224.97853	1927.7
3227.2713	1949.5
3229.56269	1951.9
3231.8527	1954.8
3234.14133	1959.3
3236.42858	1946.3
3238.71446	1961.6
3240.99896	1952.8
3243.28209	1953.9
3245.56384	1960.8
3247.84423	1959.1
3250.12324	1944.3
3252.40088	1967.8
3254.67715	1954.4
3256.95205	1953.7
3259.22558	1971.9
3261.49775	1967.2
3263.76855	1960.9
3266.03799	1965.3
3268.30606	1966.6
3270.57277	1967.5
3272.83812	1970
3275.10211	1959
3277.36474	1962.2
3279.62601	1952
3281.88593	1953.3
3284.14448	1958.2
3286.40168	1959.8
3288.65753	1955.9
3290.91202	1956.8
3293.16516	1959.1
3295.41695	1945.5
3297.66738	1942.3
3299.91647	1930.1
3302.16421	1931.2
3304.4106	1915.9
3306.65564	1902.6
3308.89933	1894
3311.14169	1879.2
3313.38269	1869
3315.62236	1861.3
3317.86068	1844.9
3320.09766	1826.8
3322.3333	1814.4
3324.5676	1801.1
3326.80056	1770.8
3329.03219	1776.9
3331.26248	0.9
3333.49143	-0.7
3335.71905	-1.4
