Data from AgNPs_UA_5uM_CRN_500uM_AS_RamanShift__6__13-04-33-825.txt Node

Date: Wed Aug 17 13:04:33 BST 2022
User: TCL
Spectrometer: QEP01345
Trigger mode: 4
Integration Time (sec): 7.000000E0
Scans to average: 10
Electric dark correction enabled: true
Nonlinearity correction enabled: false
Boxcar width: 0
XAxis mode: Raman Shifts
Number of Pixels in Spectrum: 1044
>>>>>Begin Spectral Data<<<<<
46.04893	0.3875
50.45542	0.1875
54.85868	0.6875
59.25871	0.0875
63.6555	42.6875
68.04907	45.0875
72.43941	53.2875
76.82654	58.2875
81.21044	59.5875
85.59113	60.8875
89.96862	66.2875
94.34289	64.8875
98.71396	71.0875
103.08183	72.3875
107.4465	73.0875
111.80798	72.7875
116.16626	68.3875
120.52136	71.7875
124.87327	69.5875
129.222	72.1875
133.56755	74.5875
137.90993	72.6875
142.24913	73.8875
146.58517	73.2875
150.91804	79.2875
155.24774	86.7875
159.57429	91.8875
163.89768	103.6875
168.21792	121.3875
172.53501	148.6875
176.84895	191.3875
181.15975	250.4875
185.46741	328.7875
189.77193	456.2875
194.07331	618.2875
198.37157	814.5875
202.6667	1036.6875
206.9587	1267.1875
211.24758	1517.6875
215.53334	1766.0875
219.81599	2007.2875
224.09553	2246.6875
228.37195	2460.6875
232.64527	2671.4875
236.91549	2862.8875
241.18261	3051.1875
245.44663	3188.1875
249.70755	3322.6875
253.96539	3408.5875
258.22014	3433.0875
262.4718	3392.9875
266.72039	3334.7875
270.96589	3224.9875
275.20832	3070.1875
279.44768	2898.2875
283.68397	2734.8875
287.91719	2595.4875
292.14735	2456.4875
296.37445	2318.7875
300.59849	2209.0875
304.81948	2122.9875
309.03742	2044.0875
313.25231	1987.3875
317.46415	1932.8875
321.67296	1879.1875
325.87872	1856.6875
330.08145	1817.2875
334.28114	1810.6875
338.47781	1809.6875
342.67145	1825.7875
346.86207	1843.5875
351.04966	1840.8875
355.23424	1845.2875
359.4158	1830.3875
363.59435	1826.2875
367.76989	1813.2875
371.94243	1798.3875
376.11196	1776.9875
380.27849	1769.5875
384.44203	1780.1875
388.60257	1778.6875
392.76012	1769.3875
396.91468	1789.6875
401.06626	1785.9875
405.21485	1791.4875
409.36047	1805.8875
413.50311	1807.9875
417.64277	1816.8875
421.77947	1819.2875
425.9132	1821.6875
430.04396	1845.1875
434.17176	1856.6875
438.2966	1871.3875
442.41849	1890.1875
446.53742	1905.9875
450.6534	1927.6875
454.76644	1941.2875
458.87653	1957.3875
462.98368	1962.6875
467.08789	1972.1875
471.18916	1972.6875
475.2875	1964.1875
479.38291	1965.0875
483.4754	1968.6875
487.56496	1973.2875
491.6516	1972.8875
495.73531	1985.9875
499.81612	1992.3875
503.89401	1990.6875
507.96899	1989.1875
512.04106	1978.5875
516.11023	1964.9875
520.1765	1948.4875
524.23987	1938.8875
528.30034	1942.0875
532.35792	1934.7875
536.41261	1939.0875
540.46441	1950.6875
544.51333	1946.0875
548.55936	1940.8875
552.60252	1947.4875
556.64279	1954.2875
560.6802	1971.7875
564.71473	1991.5875
568.7464	2021.5875
572.7752	2056.1875
576.80114	2076.1875
580.82422	2077.9875
584.84444	2051.8875
588.86181	2055.9875
592.87633	2053.8875
596.888	2083.9875
600.89682	2114.3875
604.9028	2152.9875
608.90594	2190.7875
612.90624	2236.6875
616.90371	2239.3875
620.89834	2202.6875
624.89015	2169.4875
628.87913	2165.6875
632.86528	2165.9875
636.84862	2174.5875
640.82913	2204.4875
644.80683	2259.3875
648.78172	2298.9875
652.75379	2317.1875
656.72306	2298.0875
660.68952	2320.5875
664.65319	2361.2875
668.61405	2505.7875
672.57211	2786.9875
676.52738	3189.3875
680.47986	3539.9875
684.42955	3671.7875
688.37646	3506.8875
692.32058	3211.7875
696.26192	2943.7875
700.20048	2754.6875
704.13626	2665.4875
708.06928	2564.9875
711.99952	2477.7875
715.927	2408.0875
719.85171	2385.4875
723.77365	2387.1875
727.69284	2412.8875
731.60928	2427.4875
735.52295	2408.7875
739.43388	2351.6875
743.34206	2318.8875
747.24749	2330.6875
751.15017	2366.7875
755.05012	2401.7875
758.94733	2418.1875
762.8418	2430.9875
766.73354	2424.1875
770.62254	2366.9875
774.50882	2313.6875
778.39237	2264.9875
782.27321	2224.2875
786.15132	2211.4875
790.02671	2204.2875
793.89938	2197.6875
797.76935	2189.5875
801.6366	2208.4875
805.50115	2203.5875
809.36299	2191.7875
813.22213	2178.0875
817.07857	2162.6875
820.93231	2162.0875
824.78336	2141.9875
828.63172	2153.7875
832.47738	2147.4875
836.32036	2141.1875
840.16066	2155.8875
843.99827	2150.8875
847.8332	2164.0875
851.66546	2166.0875
855.49504	2170.5875
859.32195	2188.8875
863.1462	2207.6875
866.96777	2236.7875
870.78668	2260.1875
874.60293	2283.9875
878.41652	2271.7875
882.22745	2265.6875
886.03573	2274.6875
889.84136	2268.2875
893.64433	2260.6875
897.44466	2261.0875
901.24235	2263.2875
905.0374	2269.4875
908.8298	2275.6875
912.61957	2269.1875
916.40671	2290.1875
920.19121	2289.1875
923.97308	2307.3875
927.75233	2331.3875
931.52895	2353.1875
935.30295	2349.0875
939.07433	2322.6875
942.84309	2301.4875
946.60924	2265.3875
950.37278	2250.0875
954.13371	2221.1875
957.89203	2212.2875
961.64774	2222.8875
965.40086	2207.7875
969.15137	2211.4875
972.89929	2178.4875
976.64461	2166.4875
980.38733	2152.7875
984.12747	2147.3875
987.86502	2141.0875
991.59999	2138.7875
995.33237	2142.2875
999.06217	2136.6875
1002.78939	2137.5875
1006.51404	2137.1875
1010.23611	2151.0875
1013.95561	2161.2875
1017.67255	2164.2875
1021.38692	2167.9875
1025.09872	2158.2875
1028.80796	2175.3875
1032.51465	2193.9875
1036.21877	2208.2875
1039.92035	2250.0875
1043.61937	2280.7875
1047.31584	2321.4875
1051.00976	2342.9875
1054.70114	2348.7875
1058.38998	2339.3875
1062.07627	2291.5875
1065.76003	2254.3875
1069.44126	2228.9875
1073.11995	2185.8875
1076.79611	2159.7875
1080.46974	2170.4875
1084.14085	2140.0875
1087.80943	2133.3875
1091.47549	2139.8875
1095.13903	2122.2875
1098.80005	2124.3875
1102.45857	2118.9875
1106.11456	2108.7875
1109.76805	2118.9875
1113.41903	2131.3875
1117.06751	2131.5875
1120.71348	2140.7875
1124.35696	2151.8875
1127.99793	2173.7875
1131.63641	2177.0875
1135.2724	2184.4875
1138.90589	2188.7875
1142.5369	2186.5875
1146.16542	2184.5875
1149.79145	2176.7875
1153.415	2181.7875
1157.03607	2175.2875
1160.65467	2175.7875
1164.27079	2164.1875
1167.88443	2171.0875
1171.49561	2187.8875
1175.10432	2195.6875
1178.71056	2197.7875
1182.31434	2200.8875
1185.91565	2209.3875
1189.51451	2218.6875
1193.11091	2213.0875
1196.70485	2199.1875
1200.29634	2194.3875
1203.88538	2175.3875
1207.47197	2178.4875
1211.05612	2179.8875
1214.63782	2168.4875
1218.21708	2172.5875
1221.79391	2186.0875
1225.36829	2199.4875
1228.94024	2199.2875
1232.50976	2228.9875
1236.07685	2250.1875
1239.6415	2280.8875
1243.20374	2315.9875
1246.76355	2337.1875
1250.32093	2352.3875
1253.8759	2373.5875
1257.42845	2388.0875
1260.97859	2379.5875
1264.52631	2371.2875
1268.07163	2344.3875
1271.61453	2331.4875
1275.15503	2311.8875
1278.69312	2297.3875
1282.22882	2289.5875
1285.76211	2300.4875
1289.29301	2316.7875
1292.82151	2312.4875
1296.34761	2313.8875
1299.87133	2324.3875
1303.39266	2328.6875
1306.9116	2339.5875
1310.42815	2355.9875
1313.94233	2367.6875
1317.45412	2385.2875
1320.96354	2362.7875
1324.47058	2370.4875
1327.97525	2375.6875
1331.47754	2376.7875
1334.97747	2386.4875
1338.47502	2409.3875
1341.97022	2443.5875
1345.46305	2476.2875
1348.95352	2511.2875
1352.44163	2571.2875
1355.92738	2589.6875
1359.41078	2640.3875
1362.89183	2661.7875
1366.37053	2654.2875
1369.84688	2616.2875
1373.32088	2568.2875
1376.79254	2524.9875
1380.26186	2479.5875
1383.72883	2440.0875
1387.19347	2419.2875
1390.65578	2394.0875
1394.11575	2369.7875
1397.57339	2360.4875
1401.0287	2387.7875
1404.48168	2414.9875
1407.93234	2458.8875
1411.38068	2512.2875
1414.82669	2550.3875
1418.27039	2606.8875
1421.71177	2630.4875
1425.15083	2593.9875
1428.58758	2508.0875
1432.02203	2454.8875
1435.45416	2393.3875
1438.88399	2371.0875
1442.31151	2357.9875
1445.73673	2362.9875
1449.15965	2381.4875
1452.58027	2391.3875
1455.9986	2400.0875
1459.41463	2391.7875
1462.82837	2408.3875
1466.23982	2397.4875
1469.64898	2390.0875
1473.05586	2371.5875
1476.46045	2325.4875
1479.86276	2281.7875
1483.26279	2244.5875
1486.66054	2207.3875
1490.05602	2194.8875
1493.44922	2189.4875
1496.84016	2190.0875
1500.22882	2187.3875
1503.61521	2206.4875
1506.99934	2230.0875
1510.38121	2239.8875
1513.76081	2246.9875
1517.13816	2236.3875
1520.51324	2237.2875
1523.88607	2209.2875
1527.25665	2210.7875
1530.62498	2212.9875
1533.99105	2211.6875
1537.35488	2226.8875
1540.71647	2231.6875
1544.07581	2242.5875
1547.4329	2253.4875
1550.78776	2258.0875
1554.14038	2269.4875
1557.49077	2283.7875
1560.83892	2293.4875
1564.18484	2277.1875
1567.52853	2281.4875
1570.86999	2281.9875
1574.20922	2282.8875
1577.54624	2275.2875
1580.88103	2280.2875
1584.2136	2266.9875
1587.54395	2268.8875
1590.87208	2260.7875
1594.19801	2255.1875
1597.52172	2272.3875
1600.84321	2270.1875
1604.16251	2255.1875
1607.47959	2260.6875
1610.79447	2227.2875
1614.10715	2213.3875
1617.41763	2174.9875
1620.7259	2162.2875
1624.03199	2155.3875
1627.33587	2136.1875
1630.63757	2137.1875
1633.93707	2143.5875
1637.23439	2149.5875
1640.52951	2147.1875
1643.82246	2158.6875
1647.11321	2176.5875
1650.40179	2201.2875
1653.68819	2196.1875
1656.97241	2196.5875
1660.25446	2202.2875
1663.53433	2199.5875
1666.81203	2212.1875
1670.08756	2224.1875
1673.36092	2231.8875
1676.63211	2251.0875
1679.90115	2255.0875
1683.16801	2260.0875
1686.43272	2264.1875
1689.69527	2240.8875
1692.95567	2239.9875
1696.2139	2233.0875
1699.46999	2228.6875
1702.72392	2211.6875
1705.97571	2188.0875
1709.22535	2171.4875
1712.47284	2148.9875
1715.71819	2150.4875
1718.96139	2134.0875
1722.20246	2139.9875
1725.44139	2147.1875
1728.67818	2167.6875
1731.91284	2178.1875
1735.14537	2194.1875
1738.37576	2231.5875
1741.60403	2267.9875
1744.83017	2336.7875
1748.05418	2459.3875
1751.27607	2606.5875
1754.49584	2758.6875
1757.71349	2876.2875
1760.92903	2938.5875
1764.14244	2910.0875
1767.35375	2829.8875
1770.56294	2697.1875
1773.77002	2593.1875
1776.97499	2504.1875
1780.17785	2440.9875
1783.37861	2389.7875
1786.57727	2352.6875
1789.77382	2293.6875
1792.96828	2242.3875
1796.16064	2196.2875
1799.3509	2153.9875
1802.53907	2121.6875
1805.72514	2071.2875
1808.90913	2037.5875
1812.09102	2009.3875
1815.27083	1979.9875
1818.44856	1955.3875
1821.6242	1919.6875
1824.79776	1899.5875
1827.96924	1875.8875
1831.13864	1845.9875
1834.30597	1821.8875
1837.47122	1810.6875
1840.6344	1791.7875
1843.7955	1785.1875
1846.95454	1754.6875
1850.11151	1745.3875
1853.26642	1753.3875
1856.41926	1741.4875
1859.57004	1723.8875
1862.71876	1718.3875
1865.86542	1717.6875
1869.01003	1724.8875
1872.15258	1716.7875
1875.29308	1723.3875
1878.43152	1725.3875
1881.56792	1733.0875
1884.70227	1724.3875
1887.83457	1724.4875
1890.96482	1722.9875
1894.09304	1728.2875
1897.21921	1723.8875
1900.34335	1732.7875
1903.46544	1728.0875
1906.58551	1741.0875
1909.70353	1734.4875
1912.81953	1760.4875
1915.93349	1760.7875
1919.04543	1760.9875
1922.15534	1770.5875
1925.26322	1771.9875
1928.36908	1775.7875
1931.47292	1775.2875
1934.57473	1768.4875
1937.67453	1764.3875
1940.77232	1763.1875
1943.86808	1764.8875
1946.96184	1757.1875
1950.05358	1754.5875
1953.14331	1745.3875
1956.23103	1731.4875
1959.31675	1735.3875
1962.40046	1734.2875
1965.48217	1724.5875
1968.56188	1708.3875
1971.63959	1707.3875
1974.7153	1685.0875
1977.78901	1675.4875
1980.86073	1669.3875
1983.93046	1668.4875
1986.99819	1656.7875
1990.06394	1640.5875
1993.1277	1636.2875
1996.18947	1624.6875
1999.24925	1619.6875
2002.30706	1619.8875
2005.36288	1600.2875
2008.41672	1586.2875
2011.46859	1586.3875
2014.51848	1578.8875
2017.56639	1578.9875
2020.61233	1577.1875
2023.6563	1568.5875
2026.6983	1555.5875
2029.73833	1555.6875
2032.7764	1547.1875
2035.8125	1541.9875
2038.84664	1538.0875
2041.87881	1529.4875
2044.90903	1528.9875
2047.93729	1528.1875
2050.96359	1524.3875
2053.98794	1521.4875
2057.01034	1531.1875
2060.03078	1520.4875
2063.04927	1530.6875
2066.06582	1531.6875
2069.08042	1529.8875
2072.09307	1525.3875
2075.10378	1524.3875
2078.11255	1537.1875
2081.11938	1543.9875
2084.12426	1540.8875
2087.12722	1545.6875
2090.12824	1549.5875
2093.12732	1552.7875
2096.12447	1559.3875
2099.11969	1569.0875
2102.11299	1562.5875
2105.10435	1576.6875
2108.09379	1565.7875
2111.08131	1581.9875
2114.0669	1576.7875
2117.05057	1581.1875
2120.03233	1583.5875
2123.01216	1587.2875
2125.99008	1591.3875
2128.96609	1586.7875
2131.94018	1582.2875
2134.91236	1595.8875
2137.88263	1588.8875
2140.851	1592.7875
2143.81746	1584.8875
2146.78201	1567.9875
2149.74466	1568.0875
2152.7054	1566.2875
2155.66425	1558.8875
2158.6212	1551.3875
2161.57625	1539.3875
2164.52941	1529.9875
2167.48067	1530.1875
2170.43004	1517.0875
2173.37752	1523.2875
2176.32311	1517.2875
2179.26681	1524.8875
2182.20863	1521.2875
2185.14856	1508.3875
2188.08661	1518.8875
2191.02278	1518.7875
2193.95707	1512.5875
2196.88948	1506.4875
2199.82001	1506.7875
2202.74867	1508.1875
2205.67545	1502.9875
2208.60037	1496.6875
2211.52341	1502.5875
2214.44458	1494.2875
2217.36388	1486.4875
2220.28132	1487.3875
2223.1969	1474.3875
2226.11061	1473.5875
2229.02246	1474.1875
2231.93245	1462.9875
2234.84058	1462.5875
2237.74686	1472.2875
2240.65128	1455.7875
2243.55385	1461.1875
2246.45456	1461.9875
2249.35343	1456.5875
2252.25044	1453.1875
2255.14561	1444.9875
2258.03893	1448.6875
2260.93041	1443.4875
2263.82004	1446.7875
2266.70783	1436.6875
2269.59378	1438.2875
2272.4779	1431.2875
2275.36017	1433.7875
2278.24061	1424.0875
2281.11922	1418.3875
2283.996	1423.0875
2286.87094	1421.1875
2289.74405	1417.1875
2292.61534	1410.9875
2295.4848	1410.3875
2298.35243	1409.0875
2301.21824	1405.9875
2304.08223	1415.2875
2306.94439	1410.3875
2309.80474	1401.4875
2312.66327	1404.5875
2315.51999	1401.6875
2318.37489	1395.3875
2321.22797	1388.2875
2324.07925	1394.2875
2326.92871	1385.5875
2329.77637	1386.7875
2332.62222	1392.2875
2335.46626	1391.1875
2338.3085	1388.3875
2341.14893	1385.2875
2343.98756	1386.0875
2346.8244	1379.2875
2349.65943	1369.1875
2352.49267	1382.6875
2355.32411	1372.2875
2358.15376	1369.3875
2360.98161	1376.5875
2363.80768	1371.3875
2366.63195	1376.5875
2369.45444	1371.4875
2372.27514	1371.8875
2375.09405	1366.9875
2377.91118	1365.1875
2380.72652	1365.4875
2383.54009	1367.6875
2386.35187	1366.7875
2389.16188	1358.4875
2391.97011	1352.8875
2394.77657	1349.5875
2397.58125	1355.3875
2400.38416	1361.5875
2403.18529	1355.9875
2405.98466	1352.4875
2408.78226	1346.2875
2411.57809	1352.0875
2414.37216	1339.4875
2417.16446	1343.9875
2419.955	1336.2875
2422.74378	1342.2875
2425.5308	1341.3875
2428.31606	1326.7875
2431.09956	1346.5875
2433.88131	1333.7875
2436.6613	1334.6875
2439.43954	1333.0875
2442.21603	1322.8875
2444.99077	1319.8875
2447.76377	1332.6875
2450.53501	1323.6875
2453.30451	1323.1875
2456.07226	1321.7875
2458.83827	1314.3875
2461.60254	1319.3875
2464.36507	1320.8875
2467.12586	1306.8875
2469.88492	1306.5875
2472.64224	1312.0875
2475.39782	1308.4875
2478.15167	1310.4875
2480.90379	1312.1875
2483.65417	1308.0875
2486.40283	1301.8875
2489.14976	1316.9875
2491.89497	1309.3875
2494.63845	1305.8875
2497.3802	1308.5875
2500.12024	1300.5875
2502.85855	1307.5875
2505.59514	1300.1875
2508.33002	1301.2875
2511.06318	1298.0875
2513.79462	1295.0875
2516.52435	1291.1875
2519.25237	1292.9875
2521.97867	1291.4875
2524.70327	1289.8875
2527.42616	1301.2875
2530.14734	1286.3875
2532.86681	1282.2875
2535.58458	1280.5875
2538.30065	1285.7875
2541.01501	1274.3875
2543.72768	1270.4875
2546.43864	1281.6875
2549.14791	1264.0875
2551.85548	1271.0875
2554.56136	1264.2875
2557.26554	1268.1875
2559.96803	1262.7875
2562.66883	1267.2875
2565.36794	1260.8875
2568.06536	1256.2875
2570.7611	1255.5875
2573.45514	1250.6875
2576.14751	1259.2875
2578.83819	1244.1875
2581.52719	1249.2875
2584.21451	1254.5875
2586.90015	1251.5875
2589.58411	1246.7875
2592.2664	1239.8875
2594.94701	1234.6875
2597.62594	1238.9875
2600.30321	1241.2875
2602.9788	1232.8875
2605.65273	1234.5875
2608.32498	1233.4875
2610.99557	1232.2875
2613.66449	1230.7875
2616.33175	1223.9875
2618.99734	1219.6875
2621.66128	1233.5875
2624.32355	1214.1875
2626.98416	1212.6875
2629.64311	1226.5875
2632.30041	1216.1875
2634.95605	1214.6875
2637.61004	1216.2875
2640.26238	1210.6875
2642.91306	1220.0875
2645.56209	1215.3875
2648.20948	1208.3875
2650.85521	1219.4875
2653.4993	1215.2875
2656.14175	1206.6875
2658.78255	1209.6875
2661.42171	1208.2875
2664.05923	1215.0875
2666.6951	1213.9875
2669.32934	1217.2875
2671.96194	1210.8875
2674.59291	1214.5875
2677.22224	1218.5875
2679.84993	1216.4875
2682.476	1215.7875
2685.10043	1223.5875
2687.72324	1208.0875
2690.34441	1210.3875
2692.96396	1222.9875
2695.58188	1215.2875
2698.19818	1214.9875
2700.81285	1216.7875
2703.4259	1221.4875
2706.03733	1219.7875
2708.64714	1218.5875
2711.25533	1226.4875
2713.86191	1221.2875
2716.46687	1218.8875
2719.07021	1221.8875
2721.67194	1232.8875
2724.27206	1218.0875
2726.87057	1228.5875
2729.46747	1227.2875
2732.06276	1230.0875
2734.65644	1225.8875
2737.24852	1219.7875
2739.83899	1224.6875
2742.42786	1215.5875
2745.01513	1219.0875
2747.60079	1217.4875
2750.18486	1213.4875
2752.76733	1219.4875
2755.3482	1214.4875
2757.92747	1205.0875
2760.50515	1211.4875
2763.08123	1215.2875
2765.65573	1203.2875
2768.22863	1204.6875
2770.79994	1201.5875
2773.36967	1210.9875
2775.9378	1215.6875
2778.50435	1205.3875
2781.06932	1208.2875
2783.6327	1208.8875
2786.1945	1200.4875
2788.75471	1208.8875
2791.31335	1207.5875
2793.87041	1218.4875
2796.42589	1217.9875
2798.97979	1216.0875
2801.53212	1213.7875
2804.08288	1214.9875
2806.63206	1213.5875
2809.17967	1220.2875
2811.72571	1223.6875
2814.27018	1223.2875
2816.81308	1219.4875
2819.35442	1224.3875
2821.89419	1220.9875
2824.43239	1218.4875
2826.96904	1220.9875
2829.50412	1224.8875
2832.03763	1221.9875
2834.56959	1221.9875
2837.1	1226.0875
2839.62884	1225.0875
2842.15613	1229.1875
2844.68186	1229.9875
2847.20604	1234.3875
2849.72867	1235.9875
2852.24974	1236.0875
2854.76927	1231.1875
2857.28724	1239.8875
2859.80367	1239.2875
2862.31855	1237.4875
2864.83189	1230.6875
2867.34368	1233.8875
2869.85393	1240.2875
2872.36264	1245.6875
2874.8698	1253.0875
2877.37543	1258.7875
2879.87952	1265.6875
2882.38207	1275.2875
2884.88308	1282.3875
2887.38256	1293.7875
2889.88051	1294.5875
2892.37692	1315.2875
2894.8718	1326.5875
2897.36515	1336.6875
2899.85698	1345.5875
2902.34727	1371.5875
2904.83604	1378.6875
2907.32328	1393.9875
2909.809	1406.4875
2912.29319	1415.7875
2914.77587	1427.1875
2917.25702	1447.3875
2919.73665	1463.3875
2922.21476	1480.2875
2924.69136	1481.6875
2927.16644	1498.9875
2929.64	1507.3875
2932.11205	1535.3875
2934.58258	1538.5875
2937.05161	1558.8875
2939.51912	1569.1875
2941.98513	1600.0875
2944.44962	1609.9875
2946.91261	1622.4875
2949.37409	1639.1875
2951.83407	1645.6875
2954.29254	1649.0875
2956.74951	1630.1875
2959.20498	1607.9875
2961.65895	1604.3875
2964.11142	1570.9875
2966.56239	1536.2875
2969.01186	1513.6875
2971.45984	1483.7875
2973.90632	1457.4875
2976.35131	1436.0875
2978.7948	1422.8875
2981.23681	1396.5875
2983.67732	1394.8875
2986.11635	1385.3875
2988.55388	1372.4875
2990.98993	1369.7875
2993.4245	1364.3875
2995.85758	1368.2875
2998.28917	1366.1875
3000.71928	1369.8875
3003.14791	1365.0875
3005.57506	1375.0875
3008.00073	1373.6875
3010.42493	1369.6875
3012.84764	1379.6875
3015.26888	1381.2875
3017.68865	1370.0875
3020.10694	1361.9875
3022.52376	1358.9875
3024.9391	1353.3875
3027.35298	1358.5875
3029.76539	1345.5875
3032.17632	1347.0875
3034.5858	1341.9875
3036.9938	1329.2875
3039.40034	1324.8875
3041.80542	1329.2875
3044.20903	1320.9875
3046.61118	1318.3875
3049.01187	1308.8875
3051.4111	1304.9875
3053.80888	1300.5875
3056.20519	1309.9875
3058.60005	1319.1875
3060.99345	1307.5875
3063.3854	1305.4875
3065.7759	1303.7875
3068.16494	1296.8875
3070.55254	1299.3875
3072.93868	1298.5875
3075.32338	1311.1875
3077.70662	1301.5875
3080.08842	1311.6875
3082.46878	1312.1875
3084.84769	1321.2875
3087.22515	1321.3875
3089.60118	1339.5875
3091.97576	1342.7875
3094.3489	1341.4875
3096.72061	1354.9875
3099.09087	1372.5875
3101.4597	1381.3875
3103.82709	1382.7875
3106.19305	1385.2875
3108.55757	1390.3875
3110.92066	1406.0875
3113.28232	1411.0875
3115.64255	1414.5875
3118.00134	1418.2875
3120.35871	1417.8875
3122.71466	1428.6875
3125.06917	1432.2875
3127.42226	1447.8875
3129.77393	1450.6875
3132.12417	1465.2875
3134.47299	1466.0875
3136.82039	1470.2875
3139.16636	1490.1875
3141.51092	1492.0875
3143.85406	1499.0875
3146.19579	1515.6875
3148.53609	1525.5875
3150.87499	1524.9875
3153.21246	1554.8875
3155.54853	1546.0875
3157.88318	1560.1875
3160.21642	1572.6875
3162.54826	1589.2875
3164.87868	1599.1875
3167.2077	1605.9875
3169.5353	1620.9875
3171.86151	1621.5875
3174.18631	1640.5875
3176.5097	1651.6875
3178.83169	1668.3875
3181.15228	1660.9875
3183.47147	1673.4875
3185.78926	1673.8875
3188.10565	1676.0875
3190.42065	1688.0875
3192.73424	1695.0875
3195.04645	1707.9875
3197.35725	1709.6875
3199.66667	1716.4875
3201.97469	1729.5875
3204.28132	1729.1875
3206.58656	1751.3875
3208.8904	1752.4875
3211.19287	1749.2875
3213.49394	1762.5875
3215.79363	1776.5875
3218.09193	1772.2875
3220.38884	1777.9875
3222.68438	1788.3875
3224.97853	1791.2875
3227.2713	1796.7875
3229.56269	1796.2875
3231.8527	1800.5875
3234.14133	1794.1875
3236.42858	1799.4875
3238.71446	1814.3875
3240.99896	1806.7875
3243.28209	1803.1875
3245.56384	1814.9875
3247.84423	1800.2875
3250.12324	1803.2875
3252.40088	1809.6875
3254.67715	1819.1875
3256.95205	1812.0875
3259.22558	1818.5875
3261.49775	1810.4875
3263.76855	1821.3875
3266.03799	1827.7875
3268.30606	1834.6875
3270.57277	1833.8875
3272.83812	1829.6875
3275.10211	1820.0875
3277.36474	1825.4875
3279.62601	1822.7875
3281.88593	1826.1875
3284.14448	1822.2875
3286.40168	1825.7875
3288.65753	1822.9875
3290.91202	1822.5875
3293.16516	1817.2875
3295.41695	1810.1875
3297.66738	1815.7875
3299.91647	1818.5875
3302.16421	1797.3875
3304.4106	1789.5875
3306.65564	1782.2875
3308.89933	1768.0875
3311.14169	1753.3875
3313.38269	1744.7875
3315.62236	1737.2875
3317.86068	1723.6875
3320.09766	1718.8875
3322.3333	1686.5875
3324.5676	1682.2875
3326.80056	1670.7875
3329.03219	1651.8875
3331.26248	0.7875
3333.49143	-1.5125
3335.71905	-0.6125
