Data from AgNPs_UA_20uM_CRN_500uM_AS_RamanShift__5__14-29-21-502.txt Node

Date: Wed Aug 17 14:29:21 BST 2022
User: TCL
Spectrometer: QEP01345
Trigger mode: 4
Integration Time (sec): 7.000000E0
Scans to average: 10
Electric dark correction enabled: true
Nonlinearity correction enabled: false
Boxcar width: 0
XAxis mode: Raman Shifts
Number of Pixels in Spectrum: 1044
>>>>>Begin Spectral Data<<<<<
46.04893	0.0875
50.45542	0.1875
54.85868	-2.0125
59.25871	0.0875
63.6555	52.4875
68.04907	55.5875
72.43941	63.0875
76.82654	64.7875
81.21044	69.7875
85.59113	68.3875
89.96862	74.4875
94.34289	79.0875
98.71396	81.7875
103.08183	81.9875
107.4465	81.7875
111.80798	82.8875
116.16626	83.3875
120.52136	85.6875
124.87327	87.6875
129.222	86.6875
133.56755	88.5875
137.90993	91.6875
142.24913	99.9875
146.58517	104.5875
150.91804	114.9875
155.24774	128.5875
159.57429	152.5875
163.89768	182.4875
168.21792	237.0875
172.53501	318.9875
176.84895	427.9875
181.15975	592.2875
185.46741	815.2875
189.77193	1120.2875
194.07331	1483.8875
198.37157	1897.8875
202.6667	2357.1875
206.9587	2816.4875
211.24758	3286.3875
215.53334	3800.5875
219.81599	4367.9875
224.09553	5033.8875
228.37195	5770.9875
232.64527	6546.3875
236.91549	7300.6875
241.18261	7925.1875
245.44663	8324.0875
249.70755	8601.1875
253.96539	8757.3875
258.22014	8850.6875
262.4718	8918.8875
266.72039	8938.5875
270.96589	8830.9875
275.20832	8579.8875
279.44768	8320.7875
283.68397	8044.2875
287.91719	7891.8875
292.14735	7896.6875
296.37445	8118.1875
300.59849	8541.3875
304.81948	9066.8875
309.03742	9542.9875
313.25231	9825.2875
317.46415	9675.7875
321.67296	9172.7875
325.87872	8672.6875
330.08145	8384.6875
334.28114	8319.4875
338.47781	8404.8875
342.67145	8584.1875
346.86207	8891.6875
351.04966	9336.5875
355.23424	9790.9875
359.4158	10088.9875
363.59435	10149.9875
367.76989	10030.3875
371.94243	9837.8875
376.11196	9692.6875
380.27849	9569.0875
384.44203	9479.5875
388.60257	9448.9875
392.76012	9440.3875
396.91468	9527.4875
401.06626	9676.8875
405.21485	9710.3875
409.36047	9324.3875
413.50311	8738.7875
417.64277	8256.3875
421.77947	8007.9875
425.9132	7971.0875
430.04396	8055.3875
434.17176	8215.6875
438.2966	8505.1875
442.41849	8983.7875
446.53742	9606.0875
450.6534	10070.4875
454.76644	10200.1875
458.87653	9997.8875
462.98368	9598.3875
467.08789	9154.7875
471.18916	8756.6875
475.2875	8296.8875
479.38291	7864.6875
483.4754	7573.6875
487.56496	7391.3875
491.6516	7305.6875
495.73531	7277.2875
499.81612	7297.2875
503.89401	7378.4875
507.96899	7453.7875
512.04106	7532.7875
516.11023	7599.3875
520.1765	7706.1875
524.23987	7797.9875
528.30034	7884.2875
532.35792	7895.0875
536.41261	7691.0875
540.46441	7438.6875
544.51333	7265.8875
548.55936	7326.5875
552.60252	7594.2875
556.64279	7986.2875
560.6802	8233.7875
564.71473	8335.4875
568.7464	8538.0875
572.7752	8651.2875
576.80114	8496.2875
580.82422	8427.5875
584.84444	8804.6875
588.86181	9775.4875
592.87633	11250.3875
596.888	12287.1875
600.89682	12173.8875
604.9028	12401.0875
608.90594	15144.8875
612.90624	18553.8875
616.90371	16301.4875
620.89834	10598.3875
624.89015	8121.8875
628.87913	7827.6875
632.86528	8145.3875
636.84862	8347.7875
640.82913	7958.9875
644.80683	7365.4875
648.78172	6988.6875
652.75379	7020.0875
656.72306	7452.9875
660.68952	7851.7875
664.65319	7447.8875
668.61405	6808.9875
672.57211	6645.9875
676.52738	6733.9875
680.47986	6720.3875
684.42955	6551.2875
688.37646	6423.0875
692.32058	6432.8875
696.26192	6599.0875
700.20048	6791.5875
704.13626	6877.3875
708.06928	6807.5875
711.99952	6728.2875
715.927	6766.0875
719.85171	6887.6875
723.77365	6923.0875
727.69284	6853.7875
731.60928	6833.8875
735.52295	6905.6875
739.43388	6986.1875
743.34206	7025.2875
747.24749	6998.0875
751.15017	6994.1875
755.05012	7196.7875
758.94733	7932.0875
762.8418	9609.6875
766.73354	12123.6875
770.62254	14036.8875
774.50882	14396.9875
778.39237	13210.3875
782.27321	11019.5875
786.15132	8934.1875
790.02671	7643.7875
793.89938	6994.7875
797.76935	6710.9875
801.6366	6540.8875
805.50115	6436.1875
809.36299	6346.5875
813.22213	6267.0875
817.07857	6220.8875
820.93231	6213.1875
824.78336	6241.5875
828.63172	6293.9875
832.47738	6313.5875
836.32036	6288.7875
840.16066	6191.2875
843.99827	6157.8875
847.8332	6172.7875
851.66546	6316.8875
855.49504	6267.2875
859.32195	6187.1875
863.1462	6147.6875
866.96777	6117.8875
870.78668	6121.0875
874.60293	6147.0875
878.41652	6233.3875
882.22745	6331.3875
886.03573	6364.5875
889.84136	6375.9875
893.64433	6340.2875
897.44466	6338.1875
901.24235	6304.6875
905.0374	6229.4875
908.8298	6134.4875
912.61957	6081.9875
916.40671	6081.1875
920.19121	6184.7875
923.97308	6352.6875
927.75233	6496.0875
931.52895	6533.4875
935.30295	6312.2875
939.07433	5965.3875
942.84309	5729.5875
946.60924	5622.5875
950.37278	5560.8875
954.13371	5540.4875
957.89203	5540.0875
961.64774	5537.3875
965.40086	5525.2875
969.15137	5516.4875
972.89929	5494.1875
976.64461	5452.0875
980.38733	5451.9875
984.12747	5494.4875
987.86502	5531.7875
991.59999	5632.7875
995.33237	5809.7875
999.06217	6073.0875
1002.78939	6423.5875
1006.51404	6745.5875
1010.23611	6985.7875
1013.95561	7105.0875
1017.67255	7071.5875
1021.38692	6793.7875
1025.09872	6392.9875
1028.80796	6138.0875
1032.51465	6070.6875
1036.21877	6129.0875
1039.92035	6183.4875
1043.61937	6234.5875
1047.31584	6241.0875
1051.00976	6230.3875
1054.70114	6192.8875
1058.38998	6174.4875
1062.07627	6175.0875
1065.76003	6203.1875
1069.44126	6288.2875
1073.11995	6451.1875
1076.79611	6670.4875
1080.46974	6989.2875
1084.14085	7365.9875
1087.80943	7653.6875
1091.47549	7688.7875
1095.13903	7403.0875
1098.80005	7038.3875
1102.45857	6776.0875
1106.11456	6757.2875
1109.76805	6901.8875
1113.41903	7244.8875
1117.06751	7694.4875
1120.71348	8294.9875
1124.35696	9007.8875
1127.99793	9381.4875
1131.63641	9037.6875
1135.2724	8393.7875
1138.90589	7877.9875
1142.5369	7599.0875
1146.16542	7467.1875
1149.79145	7448.1875
1153.415	7490.5875
1157.03607	7648.1875
1160.65467	7929.2875
1164.27079	8491.8875
1167.88443	9419.2875
1171.49561	10849.4875
1175.10432	12981.1875
1178.71056	15678.4875
1182.31434	17843.1875
1185.91565	18211.9875
1189.51451	17225.8875
1193.11091	15755.8875
1196.70485	14341.1875
1200.29634	13103.0875
1203.88538	11836.3875
1207.47197	10648.6875
1211.05612	9717.8875
1214.63782	9276.1875
1218.21708	9239.8875
1221.79391	9534.9875
1225.36829	9806.2875
1228.94024	9746.4875
1232.50976	9387.2875
1236.07685	8964.5875
1239.6415	8769.5875
1243.20374	8711.5875
1246.76355	8681.2875
1250.32093	8770.8875
1253.8759	9000.7875
1257.42845	9433.6875
1260.97859	10071.8875
1264.52631	10712.9875
1268.07163	11297.3875
1271.61453	11682.6875
1275.15503	11986.7875
1278.69312	12253.0875
1282.22882	12792.1875
1285.76211	13733.8875
1289.29301	14868.1875
1292.82151	15995.0875
1296.34761	17341.4875
1299.87133	19090.7875
1303.39266	21542.7875
1306.9116	24736.0875
1310.42815	27713.4875
1313.94233	28681.5875
1317.45412	26971.5875
1320.96354	23850.7875
1324.47058	20642.6875
1327.97525	18020.7875
1331.47754	16391.7875
1334.97747	15721.8875
1338.47502	15750.8875
1341.97022	16283.2875
1345.46305	17368.8875
1348.95352	19071.9875
1352.44163	21446.7875
1355.92738	24866.5875
1359.41078	29531.9875
1362.89183	32798.0875
1366.37053	30790.0875
1369.84688	24726.5875
1373.32088	19266.3875
1376.79254	16433.2875
1380.26186	15135.1875
1383.72883	14132.2875
1387.19347	13156.3875
1390.65578	12420.2875
1394.11575	12146.6875
1397.57339	12166.9875
1401.0287	12276.1875
1404.48168	12267.9875
1407.93234	12163.7875
1411.38068	12024.5875
1414.82669	11936.4875
1418.27039	11772.6875
1421.71177	11451.8875
1425.15083	11185.4875
1428.58758	11195.6875
1432.02203	11569.8875
1435.45416	11956.4875
1438.88399	12055.5875
1442.31151	12007.7875
1445.73673	11940.9875
1449.15965	11876.0875
1452.58027	11624.7875
1455.9986	11317.3875
1459.41463	11229.5875
1462.82837	11551.5875
1466.23982	12129.8875
1469.64898	12730.2875
1473.05586	13204.5875
1476.46045	13559.9875
1479.86276	13888.5875
1483.26279	14250.4875
1486.66054	14798.5875
1490.05602	15674.1875
1493.44922	16798.9875
1496.84016	18245.6875
1500.22882	20277.5875
1503.61521	23082.8875
1506.99934	25829.5875
1510.38121	27243.9875
1513.76081	26318.3875
1517.13816	23305.8875
1520.51324	19675.7875
1523.88607	16932.7875
1527.25665	15446.1875
1530.62498	14715.1875
1533.99105	14265.1875
1537.35488	13705.5875
1540.71647	13110.0875
1544.07581	12478.3875
1547.4329	11920.2875
1550.78776	11483.9875
1554.14038	11222.9875
1557.49077	11148.5875
1560.83892	11425.1875
1564.18484	12112.6875
1567.52853	13013.2875
1570.86999	13781.6875
1574.20922	14192.0875
1577.54624	13848.6875
1580.88103	12842.6875
1584.2136	11768.4875
1587.54395	11455.4875
1590.87208	12142.3875
1594.19801	13663.8875
1597.52172	15301.3875
1600.84321	15884.9875
1604.16251	15018.9875
1607.47959	13276.0875
1610.79447	11427.9875
1614.10715	9844.8875
1617.41763	8751.5875
1620.7259	8151.2875
1624.03199	7934.4875
1627.33587	8098.4875
1630.63757	8670.3875
1633.93707	9841.8875
1637.23439	11906.6875
1640.52951	15054.3875
1643.82246	19027.1875
1647.11321	22327.2875
1650.40179	22969.4875
1653.68819	20281.3875
1656.97241	15851.6875
1660.25446	11889.0875
1663.53433	9236.0875
1666.81203	7708.3875
1670.08756	6835.7875
1673.36092	6311.8875
1676.63211	5966.5875
1679.90115	5733.0875
1683.16801	5559.1875
1686.43272	5442.0875
1689.69527	5346.2875
1692.95567	5269.3875
1696.2139	5216.3875
1699.46999	5183.3875
1702.72392	5134.5875
1705.97571	5112.8875
1709.22535	5091.4875
1712.47284	5082.7875
1715.71819	5076.3875
1718.96139	5027.5875
1722.20246	4955.4875
1725.44139	4912.8875
1728.67818	4852.0875
1731.91284	4792.7875
1735.14537	4718.3875
1738.37576	4694.5875
1741.60403	4660.3875
1744.83017	4614.3875
1748.05418	4622.3875
1751.27607	4609.8875
1754.49584	4583.3875
1757.71349	4580.9875
1760.92903	4554.4875
1764.14244	4504.4875
1767.35375	4494.2875
1770.56294	4443.8875
1773.77002	4423.9875
1776.97499	4378.0875
1780.17785	4345.0875
1783.37861	4329.0875
1786.57727	4298.5875
1789.77382	4274.7875
1792.96828	4262.0875
1796.16064	4224.6875
1799.3509	4218.5875
1802.53907	4217.0875
1805.72514	4177.9875
1808.90913	4152.6875
1812.09102	4129.4875
1815.27083	4108.8875
1818.44856	4091.5875
1821.6242	4101.3875
1824.79776	4077.5875
1827.96924	4060.1875
1831.13864	4041.9875
1834.30597	4026.7875
1837.47122	4018.8875
1840.6344	4005.5875
1843.7955	4014.6875
1846.95454	4000.8875
1850.11151	3982.2875
1853.26642	3980.3875
1856.41926	3964.3875
1859.57004	3973.5875
1862.71876	3963.1875
1865.86542	3962.0875
1869.01003	3956.9875
1872.15258	3970.7875
1875.29308	3975.6875
1878.43152	3960.9875
1881.56792	3967.5875
1884.70227	3946.9875
1887.83457	3956.5875
1890.96482	3949.9875
1894.09304	3943.3875
1897.21921	3944.0875
1900.34335	3933.8875
1903.46544	3940.4875
1906.58551	3945.1875
1909.70353	3930.9875
1912.81953	3936.8875
1915.93349	3911.9875
1919.04543	3884.1875
1922.15534	3880.1875
1925.26322	3866.9875
1928.36908	3855.3875
1931.47292	3841.9875
1934.57473	3804.8875
1937.67453	3783.6875
1940.77232	3772.5875
1943.86808	3740.3875
1946.96184	3732.0875
1950.05358	3711.1875
1953.14331	3702.8875
1956.23103	3706.1875
1959.31675	3710.6875
1962.40046	3694.3875
1965.48217	3669.7875
1968.56188	3655.4875
1971.63959	3665.6875
1974.7153	3644.5875
1977.78901	3628.8875
1980.86073	3613.8875
1983.93046	3588.3875
1986.99819	3584.0875
1990.06394	3550.0875
1993.1277	3539.8875
1996.18947	3518.2875
1999.24925	3499.3875
2002.30706	3484.7875
2005.36288	3461.3875
2008.41672	3452.5875
2011.46859	3443.8875
2014.51848	3442.9875
2017.56639	3424.2875
2020.61233	3419.8875
2023.6563	3411.8875
2026.6983	3399.7875
2029.73833	3388.4875
2032.7764	3390.3875
2035.8125	3383.3875
2038.84664	3369.4875
2041.87881	3365.8875
2044.90903	3358.0875
2047.93729	3354.6875
2050.96359	3344.3875
2053.98794	3328.2875
2057.01034	3320.9875
2060.03078	3320.3875
2063.04927	3312.2875
2066.06582	3318.5875
2069.08042	3301.3875
2072.09307	3304.1875
2075.10378	3295.7875
2078.11255	3306.3875
2081.11938	3297.5875
2084.12426	3297.3875
2087.12722	3288.1875
2090.12824	3309.5875
2093.12732	3306.5875
2096.12447	3316.8875
2099.11969	3300.6875
2102.11299	3301.0875
2105.10435	3293.5875
2108.09379	3283.9875
2111.08131	3274.8875
2114.0669	3279.1875
2117.05057	3292.0875
2120.03233	3298.6875
2123.01216	3313.2875
2125.99008	3302.7875
2128.96609	3297.6875
2131.94018	3304.9875
2134.91236	3288.3875
2137.88263	3280.9875
2140.851	3262.4875
2143.81746	3273.6875
2146.78201	3243.1875
2149.74466	3239.7875
2152.7054	3236.4875
2155.66425	3225.9875
2158.6212	3209.4875
2161.57625	3213.8875
2164.52941	3186.2875
2167.48067	3188.9875
2170.43004	3195.0875
2173.37752	3183.8875
2176.32311	3183.9875
2179.26681	3182.1875
2182.20863	3202.2875
2185.14856	3196.1875
2188.08661	3199.7875
2191.02278	3197.1875
2193.95707	3202.2875
2196.88948	3183.1875
2199.82001	3191.3875
2202.74867	3182.7875
2205.67545	3174.8875
2208.60037	3169.8875
2211.52341	3143.7875
2214.44458	3149.2875
2217.36388	3130.7875
2220.28132	3119.4875
2223.1969	3107.9875
2226.11061	3108.8875
2229.02246	3104.5875
2231.93245	3095.6875
2234.84058	3090.4875
2237.74686	3092.4875
2240.65128	3109.3875
2243.55385	3107.7875
2246.45456	3098.4875
2249.35343	3095.2875
2252.25044	3097.0875
2255.14561	3091.9875
2258.03893	3088.9875
2260.93041	3090.5875
2263.82004	3085.9875
2266.70783	3069.7875
2269.59378	3058.0875
2272.4779	3042.6875
2275.36017	3027.7875
2278.24061	3023.4875
2281.11922	3012.0875
2283.996	3001.0875
2286.87094	2989.8875
2289.74405	2978.9875
2292.61534	2973.5875
2295.4848	2967.7875
2298.35243	2959.4875
2301.21824	2954.5875
2304.08223	2960.1875
2306.94439	2950.6875
2309.80474	2954.4875
2312.66327	2951.5875
2315.51999	2935.2875
2318.37489	2940.8875
2321.22797	2934.7875
2324.07925	2924.5875
2326.92871	2927.0875
2329.77637	2929.1875
2332.62222	2926.4875
2335.46626	2933.4875
2338.3085	2912.3875
2341.14893	2917.4875
2343.98756	2936.5875
2346.8244	2925.1875
2349.65943	2938.2875
2352.49267	2941.9875
2355.32411	2934.1875
2358.15376	2955.6875
2360.98161	2959.2875
2363.80768	2954.1875
2366.63195	2976.6875
2369.45444	2967.0875
2372.27514	2987.4875
2375.09405	2970.8875
2377.91118	2970.2875
2380.72652	2963.2875
2383.54009	2957.5875
2386.35187	2939.9875
2389.16188	2907.3875
2391.97011	2891.1875
2394.77657	2872.7875
2397.58125	2883.3875
2400.38416	2858.7875
2403.18529	2857.8875
2405.98466	2850.2875
2408.78226	2845.2875
2411.57809	2837.8875
2414.37216	2824.6875
2417.16446	2815.5875
2419.955	2820.1875
2422.74378	2832.7875
2425.5308	2831.2875
2428.31606	2819.5875
2431.09956	2821.0875
2433.88131	2826.9875
2436.6613	2835.0875
2439.43954	2824.9875
2442.21603	2819.9875
2444.99077	2838.5875
2447.76377	2842.8875
2450.53501	2835.2875
2453.30451	2848.6875
2456.07226	2833.3875
2458.83827	2851.7875
2461.60254	2841.4875
2464.36507	2849.1875
2467.12586	2854.8875
2469.88492	2842.5875
2472.64224	2855.7875
2475.39782	2857.6875
2478.15167	2882.8875
2480.90379	2872.1875
2483.65417	2892.5875
2486.40283	2901.4875
2489.14976	2929.0875
2491.89497	2924.0875
2494.63845	2938.1875
2497.3802	2930.3875
2500.12024	2920.7875
2502.85855	2909.0875
2505.59514	2896.4875
2508.33002	2873.1875
2511.06318	2866.1875
2513.79462	2830.2875
2516.52435	2824.8875
2519.25237	2817.5875
2521.97867	2809.8875
2524.70327	2800.8875
2527.42616	2796.3875
2530.14734	2788.5875
2532.86681	2787.4875
2535.58458	2794.3875
2538.30065	2797.1875
2541.01501	2811.8875
2543.72768	2804.3875
2546.43864	2818.1875
2549.14791	2804.7875
2551.85548	2814.6875
2554.56136	2801.4875
2557.26554	2809.4875
2559.96803	2804.2875
2562.66883	2798.0875
2565.36794	2787.8875
2568.06536	2794.4875
2570.7611	2793.9875
2573.45514	2790.7875
2576.14751	2775.2875
2578.83819	2778.6875
2581.52719	2794.4875
2584.21451	2779.1875
2586.90015	2777.6875
2589.58411	2773.3875
2592.2664	2784.6875
2594.94701	2772.3875
2597.62594	2777.6875
2600.30321	2777.9875
2602.9788	2777.7875
2605.65273	2776.7875
2608.32498	2776.2875
2610.99557	2797.6875
2613.66449	2785.7875
2616.33175	2795.9875
2618.99734	2788.1875
2621.66128	2782.3875
2624.32355	2779.3875
2626.98416	2783.8875
2629.64311	2780.6875
2632.30041	2780.1875
2634.95605	2768.3875
2637.61004	2762.7875
2640.26238	2759.4875
2642.91306	2766.0875
2645.56209	2759.7875
2648.20948	2744.6875
2650.85521	2760.8875
2653.4993	2761.8875
2656.14175	2783.9875
2658.78255	2769.1875
2661.42171	2775.6875
2664.05923	2796.5875
2666.6951	2801.0875
2669.32934	2803.1875
2671.96194	2810.1875
2674.59291	2815.0875
2677.22224	2812.7875
2679.84993	2805.1875
2682.476	2799.2875
2685.10043	2798.4875
2687.72324	2777.4875
2690.34441	2772.6875
2692.96396	2769.4875
2695.58188	2773.3875
2698.19818	2760.4875
2700.81285	2761.6875
2703.4259	2764.6875
2706.03733	2765.6875
2708.64714	2791.1875
2711.25533	2778.3875
2713.86191	2779.6875
2716.46687	2790.7875
2719.07021	2804.5875
2721.67194	2801.4875
2724.27206	2812.2875
2726.87057	2816.6875
2729.46747	2814.9875
2732.06276	2813.1875
2734.65644	2815.2875
2737.24852	2793.3875
2739.83899	2796.8875
2742.42786	2806.9875
2745.01513	2783.2875
2747.60079	2778.8875
2750.18486	2771.1875
2752.76733	2775.4875
2755.3482	2774.2875
2757.92747	2762.3875
2760.50515	2758.2875
2763.08123	2763.1875
2765.65573	2765.4875
2768.22863	2760.4875
2770.79994	2763.6875
2773.36967	2753.0875
2775.9378	2755.7875
2778.50435	2755.5875
2781.06932	2759.7875
2783.6327	2776.7875
2786.1945	2782.8875
2788.75471	2786.6875
2791.31335	2782.3875
2793.87041	2785.0875
2796.42589	2786.1875
2798.97979	2796.4875
2801.53212	2777.3875
2804.08288	2784.5875
2806.63206	2780.5875
2809.17967	2783.8875
2811.72571	2801.4875
2814.27018	2814.7875
2816.81308	2801.9875
2819.35442	2813.1875
2821.89419	2809.5875
2824.43239	2813.6875
2826.96904	2807.1875
2829.50412	2824.5875
2832.03763	2820.0875
2834.56959	2822.1875
2837.1	2822.5875
2839.62884	2814.7875
2842.15613	2817.4875
2844.68186	2834.2875
2847.20604	2839.6875
2849.72867	2849.6875
2852.24974	2854.1875
2854.76927	2868.3875
2857.28724	2868.3875
2859.80367	2889.9875
2862.31855	2900.5875
2864.83189	2907.5875
2867.34368	2920.3875
2869.85393	2931.8875
2872.36264	2937.5875
2874.8698	2941.7875
2877.37543	2952.4875
2879.87952	2940.1875
2882.38207	2942.9875
2884.88308	2951.7875
2887.38256	2965.6875
2889.88051	2959.9875
2892.37692	2975.9875
2894.8718	2990.2875
2897.36515	2997.5875
2899.85698	3012.0875
2902.34727	3032.0875
2904.83604	3034.4875
2907.32328	3034.1875
2909.809	3054.2875
2912.29319	3060.7875
2914.77587	3064.7875
2917.25702	3072.6875
2919.73665	3066.4875
2922.21476	3068.0875
2924.69136	3077.0875
2927.16644	3057.2875
2929.64	3050.7875
2932.11205	3029.8875
2934.58258	3018.9875
2937.05161	3018.6875
2939.51912	3007.5875
2941.98513	3004.6875
2944.44962	2997.2875
2946.91261	2973.4875
2949.37409	2971.1875
2951.83407	2967.7875
2954.29254	2940.3875
2956.74951	2929.0875
2959.20498	2917.8875
2961.65895	2907.3875
2964.11142	2893.4875
2966.56239	2858.1875
2969.01186	2848.5875
2971.45984	2826.4875
2973.90632	2814.5875
2976.35131	2797.5875
2978.7948	2784.6875
2981.23681	2760.3875
2983.67732	2768.3875
2986.11635	2741.9875
2988.55388	2716.5875
2990.98993	2710.3875
2993.4245	2701.8875
2995.85758	2690.8875
2998.28917	2678.3875
3000.71928	2691.4875
3003.14791	2679.2875
3005.57506	2685.3875
3008.00073	2665.0875
3010.42493	2631.7875
3012.84764	2651.2875
3015.26888	2650.0875
3017.68865	2631.6875
3020.10694	2623.1875
3022.52376	2622.0875
3024.9391	2613.0875
3027.35298	2612.5875
3029.76539	2604.1875
3032.17632	2589.6875
3034.5858	2579.9875
3036.9938	2582.2875
3039.40034	2576.1875
3041.80542	2589.5875
3044.20903	2580.5875
3046.61118	2581.5875
3049.01187	2567.4875
3051.4111	2573.5875
3053.80888	2574.8875
3056.20519	2567.8875
3058.60005	2560.8875
3060.99345	2565.5875
3063.3854	2549.0875
3065.7759	2539.6875
3068.16494	2543.1875
3070.55254	2514.1875
3072.93868	2512.2875
3075.32338	2492.2875
3077.70662	2501.6875
3080.08842	2487.1875
3082.46878	2496.0875
3084.84769	2492.1875
3087.22515	2489.7875
3089.60118	2497.6875
3091.97576	2489.4875
3094.3489	2499.3875
3096.72061	2503.8875
3099.09087	2507.7875
3101.4597	2506.4875
3103.82709	2499.4875
3106.19305	2506.4875
3108.55757	2505.8875
3110.92066	2496.7875
3113.28232	2488.2875
3115.64255	2518.8875
3118.00134	2502.2875
3120.35871	2503.9875
3122.71466	2507.5875
3125.06917	2516.5875
3127.42226	2515.7875
3129.77393	2522.7875
3132.12417	2517.0875
3134.47299	2521.2875
3136.82039	2531.9875
3139.16636	2521.4875
3141.51092	2535.9875
3143.85406	2534.0875
3146.19579	2527.9875
3148.53609	2540.8875
3150.87499	2535.9875
3153.21246	2538.6875
3155.54853	2555.2875
3157.88318	2549.3875
3160.21642	2566.4875
3162.54826	2549.1875
3164.87868	2554.7875
3167.2077	2573.8875
3169.5353	2580.6875
3171.86151	2571.3875
3174.18631	2584.6875
3176.5097	2595.6875
3178.83169	2591.6875
3181.15228	2592.6875
3183.47147	2585.4875
3185.78926	2586.8875
3188.10565	2586.5875
3190.42065	2595.9875
3192.73424	2608.0875
3195.04645	2606.1875
3197.35725	2600.0875
3199.66667	2607.1875
3201.97469	2607.1875
3204.28132	2620.8875
3206.58656	2626.4875
3208.8904	2630.7875
3211.19287	2636.1875
3213.49394	2652.3875
3215.79363	2643.3875
3218.09193	2655.1875
3220.38884	2662.2875
3222.68438	2660.8875
3224.97853	2658.9875
3227.2713	2666.8875
3229.56269	2668.5875
3231.8527	2661.3875
3234.14133	2667.2875
3236.42858	2658.3875
3238.71446	2663.9875
3240.99896	2648.0875
3243.28209	2666.3875
3245.56384	2650.1875
3247.84423	2653.8875
3250.12324	2647.3875
3252.40088	2646.0875
3254.67715	2627.6875
3256.95205	2650.6875
3259.22558	2643.1875
3261.49775	2648.7875
3263.76855	2643.3875
3266.03799	2646.2875
3268.30606	2651.9875
3270.57277	2655.9875
3272.83812	2641.3875
3275.10211	2647.4875
3277.36474	2641.7875
3279.62601	2653.2875
3281.88593	2654.3875
3284.14448	2667.9875
3286.40168	2665.4875
3288.65753	2673.9875
3290.91202	2685.2875
3293.16516	2679.8875
3295.41695	2680.4875
3297.66738	2671.7875
3299.91647	2669.5875
3302.16421	2641.0875
3304.4106	2647.2875
3306.65564	2604.9875
3308.89933	2586.0875
3311.14169	2578.4875
3313.38269	2552.1875
3315.62236	2539.9875
3317.86068	2525.4875
3320.09766	2513.5875
3322.3333	2489.7875
3324.5676	2472.3875
3326.80056	2439.7875
3329.03219	2425.3875
3331.26248	1.3875
3333.49143	0.5875
3335.71905	0.1875
