Data from AgNPs_UA_20uM_CRN_500uM_AS_RamanShift__0__14-23-31-509.txt Node

Date: Wed Aug 17 14:23:31 BST 2022
User: TCL
Spectrometer: QEP01345
Trigger mode: 4
Integration Time (sec): 7.000000E0
Scans to average: 10
Electric dark correction enabled: true
Nonlinearity correction enabled: false
Boxcar width: 0
XAxis mode: Raman Shifts
Number of Pixels in Spectrum: 1044
>>>>>Begin Spectral Data<<<<<
46.04893	-1.4
50.45542	1.4
54.85868	-1
59.25871	-1
63.6555	56
68.04907	57.1
72.43941	64
76.82654	67.7
81.21044	71.3
85.59113	69.4
89.96862	74.4
94.34289	83.3
98.71396	82.4
103.08183	85
107.4465	84.4
111.80798	85.5
116.16626	88.7
120.52136	87.8
124.87327	90.3
129.222	95.3
133.56755	96.1
137.90993	98.9
142.24913	106.6
146.58517	118.6
150.91804	128.2
155.24774	144
159.57429	166.4
163.89768	209.6
168.21792	271.8
172.53501	361.5
176.84895	491.1
181.15975	679.4
185.46741	941.8
189.77193	1301.8
194.07331	1728
198.37157	2214.6
202.6667	2749.2
206.9587	3278.2
211.24758	3827.6
215.53334	4437.4
219.81599	5093.7
224.09553	5867.2
228.37195	6730
232.64527	7635.9
236.91549	8487.1
241.18261	9228.5
245.44663	9706.4
249.70755	10023.5
253.96539	10227.5
258.22014	10365.7
262.4718	10455
266.72039	10521.5
270.96589	10400.7
275.20832	10142.9
279.44768	9824.9
283.68397	9520
287.91719	9335.6
292.14735	9324.5
296.37445	9549.6
300.59849	10002.2
304.81948	10600.6
309.03742	11162
313.25231	11463.9
317.46415	11254.9
321.67296	10654.4
325.87872	10086.8
330.08145	9776.7
334.28114	9761.3
338.47781	9892.3
342.67145	10128
346.86207	10498.9
351.04966	11064.5
355.23424	11638.6
359.4158	12037.1
363.59435	12114.1
367.76989	11979.7
371.94243	11764.5
376.11196	11601.8
380.27849	11497
384.44203	11420.8
388.60257	11356.7
392.76012	11346.9
396.91468	11453.9
401.06626	11623.9
405.21485	11644.5
409.36047	11244.9
413.50311	10555.9
417.64277	9914.1
421.77947	9585.6
425.9132	9514.1
430.04396	9544.5
434.17176	9759.8
438.2966	10135.6
442.41849	10685.4
446.53742	11325.9
450.6534	11863.2
454.76644	12011.4
458.87653	11808.9
462.98368	11383.4
467.08789	10941.1
471.18916	10490.3
475.2875	10059.1
479.38291	9590.4
483.4754	9263.6
487.56496	9033.5
491.6516	8948.7
495.73531	8973.8
499.81612	9012.6
503.89401	9088
507.96899	9216
512.04106	9300
516.11023	9455.5
520.1765	9562.3
524.23987	9657.8
528.30034	9730.2
532.35792	9748.1
536.41261	9561
540.46441	9261.3
544.51333	9117.3
548.55936	9157.2
552.60252	9421.9
556.64279	9813
560.6802	10075.8
564.71473	10217.5
568.7464	10482.5
572.7752	10608.9
576.80114	10251.8
580.82422	10050
584.84444	10329.9
588.86181	11274.5
592.87633	12851.5
596.888	14301.8
600.89682	14687.7
604.9028	15293.9
608.90594	18575.9
612.90624	22579.2
616.90371	19959.1
620.89834	13169.4
624.89015	10313.9
628.87913	9917
632.86528	10252.8
636.84862	10488.9
640.82913	10050.9
644.80683	9360.9
648.78172	8995.2
652.75379	9082.2
656.72306	9591.4
660.68952	10059.2
664.65319	9617.1
668.61405	8868.1
672.57211	8680.1
676.52738	8761.4
680.47986	8692.9
684.42955	8470.4
688.37646	8337.6
692.32058	8389.4
696.26192	8620.3
700.20048	8836.3
704.13626	8929.1
708.06928	8832
711.99952	8724.1
715.927	8785.2
719.85171	8936.4
723.77365	8977.1
727.69284	8895.7
731.60928	8863.7
735.52295	8950.2
739.43388	9043.3
743.34206	9068.8
747.24749	9058.2
751.15017	9048.6
755.05012	9237
758.94733	10024.3
762.8418	11935.7
766.73354	14722.9
770.62254	16927.6
774.50882	17462.4
778.39237	16294.9
782.27321	13830.2
786.15132	11380
790.02671	9875.8
793.89938	9136.3
797.76935	8814.4
801.6366	8623.1
805.50115	8526.5
809.36299	8423.8
813.22213	8346.5
817.07857	8332.3
820.93231	8329.6
824.78336	8391.8
828.63172	8476.7
832.47738	8489.1
836.32036	8454.8
840.16066	8373.4
843.99827	8327
847.8332	8302
851.66546	8309.3
855.49504	8350.6
859.32195	8339.9
863.1462	8282.8
866.96777	8288.8
870.78668	8282
874.60293	8325.9
878.41652	8416.3
882.22745	8511.3
886.03573	8603.6
889.84136	8619.1
893.64433	8559.7
897.44466	8551.9
901.24235	8533
905.0374	8468.5
908.8298	8341.8
912.61957	8275
916.40671	8263.5
920.19121	8349
923.97308	8539
927.75233	8769
931.52895	8861.4
935.30295	8622.8
939.07433	8209.9
942.84309	7946.5
946.60924	7800.9
950.37278	7745.9
954.13371	7735.9
957.89203	7712.1
961.64774	7739.3
965.40086	7710.9
969.15137	7699
972.89929	7677
976.64461	7651.6
980.38733	7676
984.12747	7698.2
987.86502	7775.9
991.59999	7903.7
995.33237	8111.3
999.06217	8451.3
1002.78939	8806.8
1006.51404	9169.7
1010.23611	9402
1013.95561	9523
1017.67255	9477.4
1021.38692	9193.3
1025.09872	8793
1028.80796	8523.5
1032.51465	8506.7
1036.21877	8590.7
1039.92035	8642.5
1043.61937	8693.5
1047.31584	8668.2
1051.00976	8594.2
1054.70114	8553.3
1058.38998	8483.1
1062.07627	8481.5
1065.76003	8513
1069.44126	8592.5
1073.11995	8796.3
1076.79611	9073.5
1080.46974	9483.8
1084.14085	9888.1
1087.80943	10259.5
1091.47549	10321.3
1095.13903	9985.2
1098.80005	9533
1102.45857	9230.6
1106.11456	9185.6
1109.76805	9378.6
1113.41903	9713.3
1117.06751	10255.1
1120.71348	10974.7
1124.35696	11788.7
1127.99793	12219.4
1131.63641	11841.6
1135.2724	11048.7
1138.90589	10406.9
1142.5369	10048.9
1146.16542	9881.2
1149.79145	9866.7
1153.415	9887.5
1157.03607	9963.9
1160.65467	10283
1164.27079	10856.5
1167.88443	11832.9
1171.49561	13355.4
1175.10432	15710.2
1178.71056	18743.8
1182.31434	21277.5
1185.91565	21858
1189.51451	20686.5
1193.11091	18935
1196.70485	17259.7
1200.29634	15872.8
1203.88538	14492
1207.47197	13171.5
1211.05612	12114.2
1214.63782	11626.3
1218.21708	11621.7
1221.79391	11895.8
1225.36829	12276
1228.94024	12309.8
1232.50976	12010
1236.07685	11660.1
1239.6415	11465.4
1243.20374	11428.9
1246.76355	11402.8
1250.32093	11478
1253.8759	11754.6
1257.42845	12279.4
1260.97859	13009.2
1264.52631	13817.4
1268.07163	14454.8
1271.61453	14903.4
1275.15503	15130.9
1278.69312	15333.5
1282.22882	15837.6
1285.76211	16843.8
1289.29301	18144
1292.82151	19424.1
1296.34761	20793.2
1299.87133	22663.6
1303.39266	25311.8
1306.9116	28820.4
1310.42815	32175.2
1313.94233	33180.8
1317.45412	31251.8
1320.96354	27751.9
1324.47058	24086.4
1327.97525	21079.5
1331.47754	19135.7
1334.97747	18340.3
1338.47502	18391.8
1341.97022	19013.3
1345.46305	20300.7
1348.95352	22220.7
1352.44163	25009.9
1355.92738	29216.5
1359.41078	34866.9
1362.89183	38887.9
1366.37053	36532.4
1369.84688	29431.8
1373.32088	23156
1376.79254	19955.1
1380.26186	18528.3
1383.72883	17419.5
1387.19347	16130.9
1390.65578	15136.7
1394.11575	14655.8
1397.57339	14607.6
1401.0287	14722.2
1404.48168	14742.4
1407.93234	14658.3
1411.38068	14560.9
1414.82669	14573.3
1418.27039	14506.1
1421.71177	14199.9
1425.15083	13958
1428.58758	14052.6
1432.02203	14556
1435.45416	15019.8
1438.88399	15155.4
1442.31151	15079.8
1445.73673	14942.7
1449.15965	14805.7
1452.58027	14404.8
1455.9986	13941.3
1459.41463	13735.8
1462.82837	14033.7
1466.23982	14702.3
1469.64898	15349.6
1473.05586	15928.2
1476.46045	16429.2
1479.86276	16882.5
1483.26279	17362.9
1486.66054	17998.5
1490.05602	18954.7
1493.44922	20179.9
1496.84016	21737.3
1500.22882	23935.7
1503.61521	27059.4
1506.99934	30271.3
1510.38121	32175.9
1513.76081	31399.4
1517.13816	27979.6
1520.51324	23710.3
1523.88607	20385.3
1527.25665	18496.5
1530.62498	17595.1
1533.99105	17006.4
1537.35488	16420.3
1540.71647	15749.9
1544.07581	15208.4
1547.4329	14681.3
1550.78776	14253.7
1554.14038	13954.5
1557.49077	13868.6
1560.83892	14159
1564.18484	14967.1
1567.52853	16032.3
1570.86999	16936.8
1574.20922	17382.6
1577.54624	17061.4
1580.88103	15787.7
1584.2136	14545.1
1587.54395	14122.9
1590.87208	14827.7
1594.19801	16561
1597.52172	18495.7
1600.84321	19290.4
1604.16251	18399.9
1607.47959	16419.7
1610.79447	14273.6
1614.10715	12490.9
1617.41763	11291.1
1620.7259	10649.8
1624.03199	10449.4
1627.33587	10638.1
1630.63757	11215.6
1633.93707	12449
1637.23439	14705.4
1640.52951	18184
1643.82246	22724
1647.11321	26697.1
1650.40179	27620
1653.68819	24600.5
1656.97241	19634.2
1660.25446	15064.2
1663.53433	12064.9
1666.81203	10361.9
1670.08756	9351.1
1673.36092	8771.8
1676.63211	8408.1
1679.90115	8159.6
1683.16801	7982.6
1686.43272	7839.1
1689.69527	7727.6
1692.95567	7632.4
1696.2139	7586.9
1699.46999	7580.9
1702.72392	7527
1705.97571	7475
1709.22535	7481.2
1712.47284	7473
1715.71819	7461.6
1718.96139	7431.6
1722.20246	7382.1
1725.44139	7300.6
1728.67818	7239.5
1731.91284	7142.5
1735.14537	7103
1738.37576	7050.6
1741.60403	7011.5
1744.83017	6987.7
1748.05418	6939.7
1751.27607	6923.8
1754.49584	6923.9
1757.71349	6926.6
1760.92903	6878
1764.14244	6827.4
1767.35375	6812.9
1770.56294	6780.5
1773.77002	6755.5
1776.97499	6704.3
1780.17785	6666.9
1783.37861	6636.1
1786.57727	6610.5
1789.77382	6605.4
1792.96828	6567.8
1796.16064	6534
1799.3509	6535.7
1802.53907	6512.4
1805.72514	6491.3
1808.90913	6452.4
1812.09102	6414
1815.27083	6397.1
1818.44856	6403.5
1821.6242	6397.8
1824.79776	6370.1
1827.96924	6355.2
1831.13864	6336.4
1834.30597	6342.9
1837.47122	6308.9
1840.6344	6281.9
1843.7955	6276
1846.95454	6282.6
1850.11151	6273.3
1853.26642	6244.4
1856.41926	6245
1859.57004	6226.8
1862.71876	6235.8
1865.86542	6238.2
1869.01003	6244.5
1872.15258	6242
1875.29308	6245.3
1878.43152	6240
1881.56792	6238.5
1884.70227	6244
1887.83457	6239.1
1890.96482	6211.8
1894.09304	6197.3
1897.21921	6215.6
1900.34335	6211.8
1903.46544	6209.6
1906.58551	6226.4
1909.70353	6211.5
1912.81953	6214.9
1915.93349	6201.2
1919.04543	6162.2
1922.15534	6154
1925.26322	6142.8
1928.36908	6117.5
1931.47292	6112.6
1934.57473	6063.1
1937.67453	6047.6
1940.77232	6010.8
1943.86808	5987.7
1946.96184	5966.2
1950.05358	5955.9
1953.14331	5943.4
1956.23103	5927.3
1959.31675	5918.1
1962.40046	5910.2
1965.48217	5904.9
1968.56188	5878.5
1971.63959	5859.1
1974.7153	5856.3
1977.78901	5825
1980.86073	5806
1983.93046	5764.2
1986.99819	5752.4
1990.06394	5731.6
1993.1277	5705.8
1996.18947	5683.7
1999.24925	5671.5
2002.30706	5644.5
2005.36288	5598.5
2008.41672	5586
2011.46859	5566.7
2014.51848	5561.9
2017.56639	5559.6
2020.61233	5539.4
2023.6563	5518
2026.6983	5519
2029.73833	5499.8
2032.7764	5477.5
2035.8125	5478.9
2038.84664	5487.7
2041.87881	5462.9
2044.90903	5446.1
2047.93729	5449.1
2050.96359	5443.5
2053.98794	5436.4
2057.01034	5427.2
2060.03078	5422.6
2063.04927	5410.5
2066.06582	5406.1
2069.08042	5397.7
2072.09307	5393.9
2075.10378	5367
2078.11255	5382
2081.11938	5393.3
2084.12426	5392.1
2087.12722	5370.2
2090.12824	5392.1
2093.12732	5399.2
2096.12447	5397.1
2099.11969	5375.9
2102.11299	5386.8
2105.10435	5392.4
2108.09379	5366.5
2111.08131	5363
2114.0669	5370.6
2117.05057	5395
2120.03233	5390.3
2123.01216	5396.5
2125.99008	5403.5
2128.96609	5412.4
2131.94018	5414.6
2134.91236	5396.7
2137.88263	5398.3
2140.851	5389.1
2143.81746	5396.7
2146.78201	5371
2149.74466	5360.2
2152.7054	5367.6
2155.66425	5329.4
2158.6212	5335.2
2161.57625	5325.9
2164.52941	5315.2
2167.48067	5301.1
2170.43004	5292.1
2173.37752	5286.8
2176.32311	5280.7
2179.26681	5292.2
2182.20863	5307.6
2185.14856	5326.3
2188.08661	5317.2
2191.02278	5310.5
2193.95707	5316.9
2196.88948	5307.4
2199.82001	5306.9
2202.74867	5312.3
2205.67545	5312.3
2208.60037	5292.9
2211.52341	5283.3
2214.44458	5251.9
2217.36388	5236.6
2220.28132	5227.5
2223.1969	5209.2
2226.11061	5181.9
2229.02246	5182.7
2231.93245	5185.6
2234.84058	5183.7
2237.74686	5177.1
2240.65128	5193.3
2243.55385	5205.2
2246.45456	5190.5
2249.35343	5191.8
2252.25044	5181.9
2255.14561	5202.2
2258.03893	5183.8
2260.93041	5200
2263.82004	5164.9
2266.70783	5157.4
2269.59378	5129
2272.4779	5118.1
2275.36017	5091.6
2278.24061	5092.5
2281.11922	5072
2283.996	5054.9
2286.87094	5059.3
2289.74405	5033.3
2292.61534	5024.8
2295.4848	5018.1
2298.35243	5002.2
2301.21824	5001.9
2304.08223	4996.2
2306.94439	5000.7
2309.80474	4996.6
2312.66327	4989.4
2315.51999	4998.3
2318.37489	4995
2321.22797	4971.9
2324.07925	4956.5
2326.92871	4937.1
2329.77637	4948.5
2332.62222	4941.8
2335.46626	4930.7
2338.3085	4964.5
2341.14893	4943.8
2343.98756	4936.6
2346.8244	4947.1
2349.65943	4944.4
2352.49267	4955.9
2355.32411	4966
2358.15376	4958.9
2360.98161	4979.8
2363.80768	4973.7
2366.63195	4986.9
2369.45444	4994
2372.27514	4998.8
2375.09405	4999.4
2377.91118	4973.6
2380.72652	4963.8
2383.54009	4963.7
2386.35187	4954.2
2389.16188	4926.3
2391.97011	4893.2
2394.77657	4881
2397.58125	4863.3
2400.38416	4854.4
2403.18529	4850.3
2405.98466	4828.2
2408.78226	4804.7
2411.57809	4818.6
2414.37216	4787.8
2417.16446	4791.5
2419.955	4794.7
2422.74378	4796.9
2425.5308	4791.4
2428.31606	4798.6
2431.09956	4804.8
2433.88131	4805.4
2436.6613	4797.3
2439.43954	4806.5
2442.21603	4794.1
2444.99077	4803.8
2447.76377	4813.7
2450.53501	4799.9
2453.30451	4805.3
2456.07226	4821.8
2458.83827	4820.7
2461.60254	4816.2
2464.36507	4819.7
2467.12586	4806.4
2469.88492	4807.3
2472.64224	4812.2
2475.39782	4819.8
2478.15167	4834.6
2480.90379	4849.8
2483.65417	4860
2486.40283	4887.3
2489.14976	4888
2491.89497	4910.3
2494.63845	4905.1
2497.3802	4908.4
2500.12024	4910.3
2502.85855	4875.8
2505.59514	4876.6
2508.33002	4847.5
2511.06318	4816
2513.79462	4792.1
2516.52435	4782.9
2519.25237	4754.9
2521.97867	4756.1
2524.70327	4752.5
2527.42616	4739.7
2530.14734	4742.7
2532.86681	4731.7
2535.58458	4735
2538.30065	4740.5
2541.01501	4764.2
2543.72768	4754
2546.43864	4742.8
2549.14791	4744.3
2551.85548	4740.9
2554.56136	4752
2557.26554	4730.4
2559.96803	4735.5
2562.66883	4726.6
2565.36794	4724.2
2568.06536	4719.8
2570.7611	4706.1
2573.45514	4692.5
2576.14751	4701.6
2578.83819	4695.5
2581.52719	4670.8
2584.21451	4685.4
2586.90015	4686.1
2589.58411	4699.4
2592.2664	4686.1
2594.94701	4677.8
2597.62594	4672.3
2600.30321	4675.9
2602.9788	4677.8
2605.65273	4680.6
2608.32498	4673.3
2610.99557	4679.7
2613.66449	4686.4
2616.33175	4703.4
2618.99734	4692.3
2621.66128	4666.5
2624.32355	4648.5
2626.98416	4672.2
2629.64311	4651.2
2632.30041	4645.3
2634.95605	4647.6
2637.61004	4638.4
2640.26238	4634.9
2642.91306	4621.4
2645.56209	4613.1
2648.20948	4614.2
2650.85521	4619.7
2653.4993	4622.6
2656.14175	4632
2658.78255	4642.2
2661.42171	4656.9
2664.05923	4658.9
2666.6951	4680.6
2669.32934	4692.3
2671.96194	4696.6
2674.59291	4691.2
2677.22224	4682.8
2679.84993	4689.1
2682.476	4668.1
2685.10043	4670.9
2687.72324	4669.4
2690.34441	4652.6
2692.96396	4633.6
2695.58188	4620.5
2698.19818	4626.9
2700.81285	4623.3
2703.4259	4645.8
2706.03733	4659
2708.64714	4645.8
2711.25533	4649.9
2713.86191	4647
2716.46687	4669.6
2719.07021	4686.1
2721.67194	4697.6
2724.27206	4698.7
2726.87057	4702.9
2729.46747	4700.2
2732.06276	4690.4
2734.65644	4701.4
2737.24852	4685.2
2739.83899	4675.1
2742.42786	4664.5
2745.01513	4661.3
2747.60079	4649.3
2750.18486	4644.8
2752.76733	4636.5
2755.3482	4631
2757.92747	4621.1
2760.50515	4630
2763.08123	4620.2
2765.65573	4597.1
2768.22863	4619.7
2770.79994	4605.7
2773.36967	4616.6
2775.9378	4602.7
2778.50435	4602.9
2781.06932	4619.3
2783.6327	4622.3
2786.1945	4619.8
2788.75471	4618.1
2791.31335	4621.4
2793.87041	4627.4
2796.42589	4626.2
2798.97979	4621.6
2801.53212	4614.6
2804.08288	4623.3
2806.63206	4612.4
2809.17967	4632.8
2811.72571	4631.8
2814.27018	4630.7
2816.81308	4629.6
2819.35442	4629.2
2821.89419	4628.3
2824.43239	4637.4
2826.96904	4643
2829.50412	4647
2832.03763	4632.6
2834.56959	4641.9
2837.1	4646.3
2839.62884	4637.3
2842.15613	4617
2844.68186	4652.6
2847.20604	4658.4
2849.72867	4656.9
2852.24974	4674.1
2854.76927	4677.4
2857.28724	4662.8
2859.80367	4705.4
2862.31855	4717
2864.83189	4758.6
2867.34368	4762.2
2869.85393	4752.1
2872.36264	4755.9
2874.8698	4749.9
2877.37543	4745.5
2879.87952	4742
2882.38207	4728.3
2884.88308	4722.9
2887.38256	4749.4
2889.88051	4766.8
2892.37692	4749.5
2894.8718	4778.1
2897.36515	4795.8
2899.85698	4812.8
2902.34727	4838.7
2904.83604	4844.6
2907.32328	4860.5
2909.809	4861.6
2912.29319	4885.5
2914.77587	4873.1
2917.25702	4881.6
2919.73665	4875
2922.21476	4883.2
2924.69136	4884.5
2927.16644	4871.4
2929.64	4852.3
2932.11205	4843.1
2934.58258	4823.1
2937.05161	4818.8
2939.51912	4813.8
2941.98513	4803.5
2944.44962	4774.6
2946.91261	4757.9
2949.37409	4762.4
2951.83407	4727.8
2954.29254	4716.6
2956.74951	4714.3
2959.20498	4689.9
2961.65895	4668.5
2964.11142	4669.3
2966.56239	4639.7
2969.01186	4628.9
2971.45984	4582.4
2973.90632	4572.5
2976.35131	4574.4
2978.7948	4548
2981.23681	4519.6
2983.67732	4518.5
2986.11635	4485.2
2988.55388	4455.3
2990.98993	4446.1
2993.4245	4439.3
2995.85758	4433.7
2998.28917	4416.1
3000.71928	4418.7
3003.14791	4406.7
3005.57506	4393
3008.00073	4378.7
3010.42493	4348.6
3012.84764	4370.9
3015.26888	4354
3017.68865	4346.2
3020.10694	4324.4
3022.52376	4322
3024.9391	4307.3
3027.35298	4312.1
3029.76539	4293.7
3032.17632	4275.6
3034.5858	4268.4
3036.9938	4265.3
3039.40034	4251.1
3041.80542	4259.7
3044.20903	4256.5
3046.61118	4262.9
3049.01187	4252.7
3051.4111	4252.7
3053.80888	4240.4
3056.20519	4247.3
3058.60005	4227.4
3060.99345	4227.5
3063.3854	4214.4
3065.7759	4196.3
3068.16494	4172.9
3070.55254	4166.4
3072.93868	4158
3075.32338	4127.9
3077.70662	4118.3
3080.08842	4127.6
3082.46878	4124.2
3084.84769	4130.5
3087.22515	4113.3
3089.60118	4127.4
3091.97576	4122.4
3094.3489	4100.4
3096.72061	4121.5
3099.09087	4124.2
3101.4597	4119.1
3103.82709	4117.9
3106.19305	4109.6
3108.55757	4115.8
3110.92066	4119.4
3113.28232	4114
3115.64255	4114.3
3118.00134	4115.8
3120.35871	4098.9
3122.71466	4107.8
3125.06917	4086.6
3127.42226	4109.4
3129.77393	4116
3132.12417	4112
3134.47299	4113.2
3136.82039	4114.1
3139.16636	4096.5
3141.51092	4116.9
3143.85406	4121.5
3146.19579	4120.5
3148.53609	4115.7
3150.87499	4126.2
3153.21246	4119.3
3155.54853	4139.3
3157.88318	4120.4
3160.21642	4142.6
3162.54826	4135.4
3164.87868	4137.1
3167.2077	4143.2
3169.5353	4153
3171.86151	4150.3
3174.18631	4144.4
3176.5097	4165.3
3178.83169	4158.1
3181.15228	4147.4
3183.47147	4152.7
3185.78926	4142.5
3188.10565	4129.9
3190.42065	4137.4
3192.73424	4145.4
3195.04645	4134.9
3197.35725	4139.8
3199.66667	4139.9
3201.97469	4154.1
3204.28132	4155.3
3206.58656	4166
3208.8904	4187.5
3211.19287	4178.1
3213.49394	4176.4
3215.79363	4179
3218.09193	4174.3
3220.38884	4211.5
3222.68438	4204.8
3224.97853	4207.3
3227.2713	4218.5
3229.56269	4216.2
3231.8527	4214.6
3234.14133	4198.5
3236.42858	4190
3238.71446	4188.2
3240.99896	4179.1
3243.28209	4186.6
3245.56384	4185.6
3247.84423	4187.2
3250.12324	4162.5
3252.40088	4159.1
3254.67715	4154.9
3256.95205	4148.7
3259.22558	4156
3261.49775	4167.3
3263.76855	4167.1
3266.03799	4146.2
3268.30606	4165.5
3270.57277	4167.9
3272.83812	4161.1
3275.10211	4153.5
3277.36474	4154.4
3279.62601	4159.4
3281.88593	4147.9
3284.14448	4173.9
3286.40168	4169.4
3288.65753	4183.2
3290.91202	4181.7
3293.16516	4188.9
3295.41695	4177.5
3297.66738	4170.2
3299.91647	4145.6
3302.16421	4120.1
3304.4106	4104.5
3306.65564	4070.7
3308.89933	4043.1
3311.14169	4005.4
3313.38269	3968
3315.62236	3954.1
3317.86068	3920.9
3320.09766	3901.6
3322.3333	3875.8
3324.5676	3847.3
3326.80056	3797.4
3329.03219	3765.2
3331.26248	1.3
3333.49143	0.9
3335.71905	0.8
