Data from AgNPs_UA_5uM_CRN_500uM_AS_RamanShift__5__13-03-23-824.txt Node

Date: Wed Aug 17 13:03:23 BST 2022
User: TCL
Spectrometer: QEP01345
Trigger mode: 4
Integration Time (sec): 7.000000E0
Scans to average: 10
Electric dark correction enabled: true
Nonlinearity correction enabled: false
Boxcar width: 0
XAxis mode: Raman Shifts
Number of Pixels in Spectrum: 1044
>>>>>Begin Spectral Data<<<<<
46.04893	1.1
50.45542	1.4
54.85868	-0.4
59.25871	-0.2
63.6555	42.3
68.04907	45.1
72.43941	50.5
76.82654	56.6
81.21044	60.6
85.59113	61.7
89.96862	68.2
94.34289	66.7
98.71396	68.2
103.08183	72.2
107.4465	73.6
111.80798	71.7
116.16626	71.3
120.52136	72.4
124.87327	68.3
129.222	73.7
133.56755	75.1
137.90993	76.7
142.24913	77.1
146.58517	77.9
150.91804	73.1
155.24774	82.9
159.57429	93.5
163.89768	108.6
168.21792	118.6
172.53501	151.4
176.84895	193.7
181.15975	247
185.46741	326
189.77193	454.2
194.07331	610.3
198.37157	810.6
202.6667	1026
206.9587	1259.1
211.24758	1501.1
215.53334	1741.4
219.81599	1975.2
224.09553	2187.3
228.37195	2414.1
232.64527	2609.5
236.91549	2805.9
241.18261	2976.9
245.44663	3122.4
249.70755	3236.8
253.96539	3323.8
258.22014	3313.3
262.4718	3286.6
266.72039	3195.5
270.96589	3070.7
275.20832	2936.1
279.44768	2784
283.68397	2619
287.91719	2485.1
292.14735	2347.9
296.37445	2233.7
300.59849	2132
304.81948	2061.4
309.03742	1995.4
313.25231	1933.1
317.46415	1893.9
321.67296	1831.2
325.87872	1800
330.08145	1766.9
334.28114	1763.2
338.47781	1761.6
342.67145	1789.5
346.86207	1785.5
351.04966	1813.6
355.23424	1799
359.4158	1799.7
363.59435	1790.8
367.76989	1776
371.94243	1769.6
376.11196	1752.4
380.27849	1748.5
384.44203	1756.1
388.60257	1747
392.76012	1752.3
396.91468	1761.1
401.06626	1761.1
405.21485	1777.7
409.36047	1777.5
413.50311	1791.7
417.64277	1794.3
421.77947	1800.5
425.9132	1811.8
430.04396	1820.6
434.17176	1839.8
438.2966	1852.8
442.41849	1887.6
446.53742	1904.6
450.6534	1921.8
454.76644	1941.8
458.87653	1964.8
462.98368	1960.5
467.08789	1981.3
471.18916	1968.6
475.2875	1954.9
479.38291	1961.5
483.4754	1944.9
487.56496	1951.9
491.6516	1949.7
495.73531	1958.7
499.81612	1964.5
503.89401	1963.6
507.96899	1961.1
512.04106	1955.4
516.11023	1934.7
520.1765	1921
524.23987	1916.6
528.30034	1906.8
532.35792	1901.8
536.41261	1921.5
540.46441	1897.9
544.51333	1916.8
548.55936	1903.5
552.60252	1914.4
556.64279	1932.3
560.6802	1934.1
564.71473	1953.7
568.7464	1994.7
572.7752	2035.6
576.80114	2061.5
580.82422	2057.1
584.84444	2021.5
588.86181	2024.1
592.87633	2032.4
596.888	2055.5
600.89682	2077.6
604.9028	2128
608.90594	2191.6
612.90624	2255
616.90371	2241.3
620.89834	2196
624.89015	2164.5
628.87913	2148.7
632.86528	2144.4
636.84862	2159.7
640.82913	2194.3
644.80683	2256.7
648.78172	2282.2
652.75379	2313.4
656.72306	2294.7
660.68952	2299
664.65319	2343.8
668.61405	2479.9
672.57211	2776.8
676.52738	3180.8
680.47986	3532.1
684.42955	3649
688.37646	3465.9
692.32058	3155.1
696.26192	2898.4
700.20048	2716
704.13626	2600.1
708.06928	2505.1
711.99952	2421.8
715.927	2361.2
719.85171	2332.3
723.77365	2340.5
727.69284	2374.1
731.60928	2377.3
735.52295	2349
739.43388	2302.7
743.34206	2282.1
747.24749	2291.9
751.15017	2327.2
755.05012	2371.1
758.94733	2405.2
762.8418	2401.5
766.73354	2371.4
770.62254	2334.9
774.50882	2270.5
778.39237	2233.6
782.27321	2194.6
786.15132	2172.6
790.02671	2148.3
793.89938	2159
797.76935	2150.6
801.6366	2156.1
805.50115	2169.6
809.36299	2158.5
813.22213	2132.9
817.07857	2116.3
820.93231	2115.9
824.78336	2109.9
828.63172	2106.2
832.47738	2112
836.32036	2103
840.16066	2106.7
843.99827	2109.1
847.8332	2108.7
851.66546	2119.1
855.49504	2129.6
859.32195	2154.4
863.1462	2194
866.96777	2220.6
870.78668	2228.2
874.60293	2245.3
878.41652	2249
882.22745	2233
886.03573	2229.9
889.84136	2215.9
893.64433	2222.9
897.44466	2219.5
901.24235	2216.5
905.0374	2228.2
908.8298	2236.8
912.61957	2226.4
916.40671	2244.3
920.19121	2266.7
923.97308	2286.7
927.75233	2308.8
931.52895	2327.2
935.30295	2318.5
939.07433	2309
942.84309	2270.6
946.60924	2237.9
950.37278	2198.6
954.13371	2168.9
957.89203	2175.5
961.64774	2185.8
965.40086	2180.6
969.15137	2163.9
972.89929	2145.9
976.64461	2125.1
980.38733	2106.7
984.12747	2104
987.86502	2092.7
991.59999	2091.8
995.33237	2081.6
999.06217	2085
1002.78939	2098.5
1006.51404	2086
1010.23611	2102.7
1013.95561	2111.1
1017.67255	2115.8
1021.38692	2122.1
1025.09872	2128.1
1028.80796	2135.1
1032.51465	2155
1036.21877	2161.8
1039.92035	2204.5
1043.61937	2250
1047.31584	2283.6
1051.00976	2306.3
1054.70114	2307.3
1058.38998	2292.3
1062.07627	2260.5
1065.76003	2223.2
1069.44126	2174.2
1073.11995	2134.1
1076.79611	2118.1
1080.46974	2088.7
1084.14085	2097.2
1087.80943	2086.1
1091.47549	2099.6
1095.13903	2083.6
1098.80005	2071.8
1102.45857	2069
1106.11456	2065.9
1109.76805	2066.6
1113.41903	2081.4
1117.06751	2094.5
1120.71348	2101.1
1124.35696	2118.9
1127.99793	2134.8
1131.63641	2144.9
1135.2724	2144.5
1138.90589	2138.4
1142.5369	2143.5
1146.16542	2141.3
1149.79145	2138.4
1153.415	2131.8
1157.03607	2126.6
1160.65467	2128.9
1164.27079	2136.1
1167.88443	2132.3
1171.49561	2143.9
1175.10432	2145.7
1178.71056	2165.4
1182.31434	2187.2
1185.91565	2191
1189.51451	2196.8
1193.11091	2180.7
1196.70485	2173.3
1200.29634	2152.3
1203.88538	2131.9
1207.47197	2145.1
1211.05612	2128.4
1214.63782	2124.2
1218.21708	2130.2
1221.79391	2144.1
1225.36829	2153.4
1228.94024	2161.1
1232.50976	2188.7
1236.07685	2197.7
1239.6415	2246
1243.20374	2264.6
1246.76355	2276.6
1250.32093	2313.5
1253.8759	2321.2
1257.42845	2323.8
1260.97859	2314
1264.52631	2315
1268.07163	2291.9
1271.61453	2265.2
1275.15503	2253.6
1278.69312	2258.5
1282.22882	2242.8
1285.76211	2256.1
1289.29301	2270.3
1292.82151	2269.4
1296.34761	2273
1299.87133	2286.5
1303.39266	2304.3
1306.9116	2319.8
1310.42815	2339.2
1313.94233	2346.8
1317.45412	2338.9
1320.96354	2335.8
1324.47058	2321.9
1327.97525	2335.4
1331.47754	2341.5
1334.97747	2351.5
1338.47502	2372.4
1341.97022	2402.9
1345.46305	2460.5
1348.95352	2517.3
1352.44163	2556.6
1355.92738	2604.6
1359.41078	2661
1362.89183	2695.5
1366.37053	2693.6
1369.84688	2648.4
1373.32088	2565.1
1376.79254	2497.4
1380.26186	2441.7
1383.72883	2417.4
1387.19347	2353.3
1390.65578	2322.2
1394.11575	2293.9
1397.57339	2278.4
1401.0287	2297.6
1404.48168	2337.8
1407.93234	2374.7
1411.38068	2422.8
1414.82669	2493.5
1418.27039	2531.8
1421.71177	2560.5
1425.15083	2528.3
1428.58758	2459.8
1432.02203	2409.1
1435.45416	2345.6
1438.88399	2325
1442.31151	2288.8
1445.73673	2295.5
1449.15965	2305.3
1452.58027	2315.4
1455.9986	2306
1459.41463	2315.1
1462.82837	2315.7
1466.23982	2324.6
1469.64898	2311.8
1473.05586	2302.4
1476.46045	2256.2
1479.86276	2213.4
1483.26279	2177.7
1486.66054	2150.1
1490.05602	2131.3
1493.44922	2139.2
1496.84016	2142
1500.22882	2147.4
1503.61521	2168.1
1506.99934	2195.5
1510.38121	2204.9
1513.76081	2222.9
1517.13816	2198.2
1520.51324	2180.3
1523.88607	2147.6
1527.25665	2144.5
1530.62498	2153.9
1533.99105	2143.1
1537.35488	2151.1
1540.71647	2163.8
1544.07581	2173.1
1547.4329	2188.2
1550.78776	2193
1554.14038	2200.9
1557.49077	2196.4
1560.83892	2220.2
1564.18484	2212
1567.52853	2208.8
1570.86999	2220.4
1574.20922	2223.8
1577.54624	2221.3
1580.88103	2207.9
1584.2136	2198.8
1587.54395	2194.1
1590.87208	2198
1594.19801	2202.6
1597.52172	2216.1
1600.84321	2219.6
1604.16251	2209.1
1607.47959	2198.5
1610.79447	2170.9
1614.10715	2157.5
1617.41763	2111.5
1620.7259	2111.5
1624.03199	2092.7
1627.33587	2089.1
1630.63757	2084.4
1633.93707	2095.5
1637.23439	2083.7
1640.52951	2095.6
1643.82246	2119.9
1647.11321	2135.7
1650.40179	2169
1653.68819	2178
1656.97241	2167.6
1660.25446	2166.5
1663.53433	2164.1
1666.81203	2189.9
1670.08756	2204.5
1673.36092	2227.6
1676.63211	2235.3
1679.90115	2250
1683.16801	2251.3
1686.43272	2233.7
1689.69527	2230.4
1692.95567	2204.5
1696.2139	2201.8
1699.46999	2187.2
1702.72392	2159.3
1705.97571	2144.1
1709.22535	2120
1712.47284	2115.5
1715.71819	2098
1718.96139	2089
1722.20246	2093.9
1725.44139	2112.5
1728.67818	2114.9
1731.91284	2148.9
1735.14537	2179.3
1738.37576	2217
1741.60403	2268.6
1744.83017	2351.2
1748.05418	2476.5
1751.27607	2624.6
1754.49584	2758.6
1757.71349	2861.4
1760.92903	2868.8
1764.14244	2804.6
1767.35375	2711.1
1770.56294	2569
1773.77002	2481.5
1776.97499	2408
1780.17785	2351.1
1783.37861	2305.9
1786.57727	2272.4
1789.77382	2232.7
1792.96828	2195.1
1796.16064	2148.2
1799.3509	2109.5
1802.53907	2085.6
1805.72514	2061.5
1808.90913	2015.8
1812.09102	1998.5
1815.27083	1972
1818.44856	1938.2
1821.6242	1909.2
1824.79776	1897
1827.96924	1853
1831.13864	1822
1834.30597	1813.7
1837.47122	1798.5
1840.6344	1775.3
1843.7955	1758.6
1846.95454	1740.3
1850.11151	1725.5
1853.26642	1717.2
1856.41926	1711
1859.57004	1701
1862.71876	1692.8
1865.86542	1695.6
1869.01003	1683.6
1872.15258	1694.1
1875.29308	1696.7
1878.43152	1694.3
1881.56792	1694.3
1884.70227	1685.5
1887.83457	1686.3
1890.96482	1701
1894.09304	1700.2
1897.21921	1699.9
1900.34335	1707
1903.46544	1705.6
1906.58551	1710.3
1909.70353	1717.5
1912.81953	1714.6
1915.93349	1721.1
1919.04543	1732.4
1922.15534	1738.5
1925.26322	1741.4
1928.36908	1743.8
1931.47292	1747.4
1934.57473	1728.5
1937.67453	1751.3
1940.77232	1735.3
1943.86808	1739.6
1946.96184	1738.7
1950.05358	1722.5
1953.14331	1711.1
1956.23103	1723.8
1959.31675	1719.9
1962.40046	1699.8
1965.48217	1698.5
1968.56188	1678.8
1971.63959	1677.4
1974.7153	1669.4
1977.78901	1654.3
1980.86073	1644.1
1983.93046	1642.4
1986.99819	1630.2
1990.06394	1612.8
1993.1277	1605.9
1996.18947	1591.6
1999.24925	1597.7
2002.30706	1580.6
2005.36288	1572.3
2008.41672	1565.2
2011.46859	1568.1
2014.51848	1555.3
2017.56639	1548.9
2020.61233	1542.4
2023.6563	1532.9
2026.6983	1532.4
2029.73833	1522.4
2032.7764	1517
2035.8125	1518.4
2038.84664	1511.4
2041.87881	1511.9
2044.90903	1493.3
2047.93729	1494.1
2050.96359	1497
2053.98794	1497.7
2057.01034	1493.5
2060.03078	1485.5
2063.04927	1494
2066.06582	1494.1
2069.08042	1491.2
2072.09307	1494.7
2075.10378	1508.1
2078.11255	1506.6
2081.11938	1513.3
2084.12426	1510.3
2087.12722	1519.1
2090.12824	1522
2093.12732	1533.7
2096.12447	1533
2099.11969	1546.9
2102.11299	1544.7
2105.10435	1547.4
2108.09379	1554
2111.08131	1558
2114.0669	1562.3
2117.05057	1568.1
2120.03233	1563.2
2123.01216	1559.4
2125.99008	1561
2128.96609	1557.4
2131.94018	1555.8
2134.91236	1558.3
2137.88263	1546.9
2140.851	1541.5
2143.81746	1529.7
2146.78201	1536.2
2149.74466	1515
2152.7054	1511.7
2155.66425	1516.5
2158.6212	1504.3
2161.57625	1501.2
2164.52941	1492.2
2167.48067	1483.2
2170.43004	1492.6
2173.37752	1483.7
2176.32311	1493.1
2179.26681	1474.9
2182.20863	1480.8
2185.14856	1484.5
2188.08661	1477.5
2191.02278	1478
2193.95707	1486.3
2196.88948	1474.4
2199.82001	1475.2
2202.74867	1466
2205.67545	1467.6
2208.60037	1468.7
2211.52341	1455.1
2214.44458	1470.7
2217.36388	1458.8
2220.28132	1449.7
2223.1969	1445.3
2226.11061	1441.4
2229.02246	1447.9
2231.93245	1445.4
2234.84058	1426.8
2237.74686	1442.3
2240.65128	1426.8
2243.55385	1428.3
2246.45456	1426.1
2249.35343	1424.5
2252.25044	1426.9
2255.14561	1414.5
2258.03893	1417.2
2260.93041	1409.6
2263.82004	1407.9
2266.70783	1411.7
2269.59378	1402.9
2272.4779	1405.8
2275.36017	1399.1
2278.24061	1395.4
2281.11922	1392.4
2283.996	1392.5
2286.87094	1395.7
2289.74405	1393.5
2292.61534	1382.5
2295.4848	1384
2298.35243	1376.8
2301.21824	1377.4
2304.08223	1380.1
2306.94439	1382.4
2309.80474	1370.9
2312.66327	1375.6
2315.51999	1365.2
2318.37489	1377.1
2321.22797	1371.2
2324.07925	1365.5
2326.92871	1355.5
2329.77637	1365
2332.62222	1360.5
2335.46626	1364.3
2338.3085	1353.9
2341.14893	1348.8
2343.98756	1353.4
2346.8244	1353.7
2349.65943	1348.2
2352.49267	1342.5
2355.32411	1345
2358.15376	1354.2
2360.98161	1345
2363.80768	1340.8
2366.63195	1348.2
2369.45444	1348.5
2372.27514	1354.8
2375.09405	1348.2
2377.91118	1336.2
2380.72652	1334.1
2383.54009	1338.4
2386.35187	1339.3
2389.16188	1335.5
2391.97011	1338.8
2394.77657	1326.2
2397.58125	1332.7
2400.38416	1324.4
2403.18529	1320.4
2405.98466	1318.7
2408.78226	1321.7
2411.57809	1324.8
2414.37216	1320.7
2417.16446	1317.9
2419.955	1309.8
2422.74378	1309.5
2425.5308	1310.4
2428.31606	1316.6
2431.09956	1311.3
2433.88131	1302
2436.6613	1315.6
2439.43954	1313.6
2442.21603	1304.1
2444.99077	1301.3
2447.76377	1305.4
2450.53501	1295.3
2453.30451	1303.2
2456.07226	1300.5
2458.83827	1299.1
2461.60254	1296.1
2464.36507	1292.4
2467.12586	1296.7
2469.88492	1282.1
2472.64224	1283.2
2475.39782	1286.4
2478.15167	1283.8
2480.90379	1286
2483.65417	1297.9
2486.40283	1287.8
2489.14976	1283.6
2491.89497	1280.8
2494.63845	1288.8
2497.3802	1289.2
2500.12024	1276.6
2502.85855	1281.6
2505.59514	1275.1
2508.33002	1275.9
2511.06318	1277.9
2513.79462	1267.1
2516.52435	1276.1
2519.25237	1265.8
2521.97867	1269.8
2524.70327	1261.9
2527.42616	1268.7
2530.14734	1267.1
2532.86681	1254.3
2535.58458	1253.3
2538.30065	1261
2541.01501	1259.4
2543.72768	1256.4
2546.43864	1258.1
2549.14791	1247.3
2551.85548	1251
2554.56136	1244.5
2557.26554	1250.9
2559.96803	1245.4
2562.66883	1246
2565.36794	1233.1
2568.06536	1238.7
2570.7611	1234.8
2573.45514	1225
2576.14751	1227.6
2578.83819	1230.8
2581.52719	1229.7
2584.21451	1232.2
2586.90015	1230.6
2589.58411	1226
2592.2664	1218.7
2594.94701	1221.7
2597.62594	1225.1
2600.30321	1218.2
2602.9788	1213.3
2605.65273	1219
2608.32498	1206.3
2610.99557	1207.6
2613.66449	1207.9
2616.33175	1208.6
2618.99734	1200.7
2621.66128	1205.1
2624.32355	1202.3
2626.98416	1203.9
2629.64311	1202.7
2632.30041	1196.5
2634.95605	1202
2637.61004	1190.9
2640.26238	1191
2642.91306	1201.6
2645.56209	1199.4
2648.20948	1197.5
2650.85521	1198.9
2653.4993	1200.7
2656.14175	1190.4
2658.78255	1193
2661.42171	1188.3
2664.05923	1195.8
2666.6951	1190.6
2669.32934	1201.8
2671.96194	1195.3
2674.59291	1200.4
2677.22224	1203.6
2679.84993	1200.7
2682.476	1199.2
2685.10043	1195.5
2687.72324	1200
2690.34441	1196.3
2692.96396	1196.6
2695.58188	1200.7
2698.19818	1191.8
2700.81285	1203.5
2703.4259	1189.7
2706.03733	1196.3
2708.64714	1199.9
2711.25533	1202.5
2713.86191	1199.6
2716.46687	1207.9
2719.07021	1204.6
2721.67194	1201.3
2724.27206	1205.9
2726.87057	1204.4
2729.46747	1205.8
2732.06276	1208.8
2734.65644	1205.7
2737.24852	1202.1
2739.83899	1194.7
2742.42786	1204.4
2745.01513	1194.5
2747.60079	1200.1
2750.18486	1197
2752.76733	1204.6
2755.3482	1192.7
2757.92747	1194.4
2760.50515	1196.4
2763.08123	1192.8
2765.65573	1192.2
2768.22863	1190.9
2770.79994	1191.2
2773.36967	1191.3
2775.9378	1190.7
2778.50435	1190.8
2781.06932	1198.2
2783.6327	1196.9
2786.1945	1192.7
2788.75471	1201.6
2791.31335	1193.5
2793.87041	1195.1
2796.42589	1201.8
2798.97979	1205.3
2801.53212	1209.6
2804.08288	1213.3
2806.63206	1207.1
2809.17967	1209.3
2811.72571	1205.1
2814.27018	1217.1
2816.81308	1198.7
2819.35442	1201.4
2821.89419	1206
2824.43239	1204.6
2826.96904	1206.2
2829.50412	1212.4
2832.03763	1212.9
2834.56959	1215.5
2837.1	1209.7
2839.62884	1218.3
2842.15613	1223.3
2844.68186	1224.7
2847.20604	1229.6
2849.72867	1229.4
2852.24974	1227.1
2854.76927	1230.4
2857.28724	1224.4
2859.80367	1228.2
2862.31855	1224.7
2864.83189	1226.3
2867.34368	1228.4
2869.85393	1234.3
2872.36264	1241.3
2874.8698	1239.1
2877.37543	1250.3
2879.87952	1263.1
2882.38207	1273.6
2884.88308	1288.7
2887.38256	1294.2
2889.88051	1306.3
2892.37692	1315.1
2894.8718	1315.7
2897.36515	1343.1
2899.85698	1356
2902.34727	1379.3
2904.83604	1378.4
2907.32328	1393
2909.809	1405.1
2912.29319	1413.5
2914.77587	1428.6
2917.25702	1448.4
2919.73665	1470.9
2922.21476	1476.5
2924.69136	1482.4
2927.16644	1504.2
2929.64	1513.8
2932.11205	1526.5
2934.58258	1536.7
2937.05161	1551.5
2939.51912	1565.1
2941.98513	1593.6
2944.44962	1602.7
2946.91261	1619
2949.37409	1627.4
2951.83407	1639.1
2954.29254	1631.9
2956.74951	1612.5
2959.20498	1598.7
2961.65895	1570.6
2964.11142	1548
2966.56239	1519.9
2969.01186	1497.4
2971.45984	1468.6
2973.90632	1442.1
2976.35131	1427.9
2978.7948	1407.7
2981.23681	1392.7
2983.67732	1385.4
2986.11635	1377.3
2988.55388	1369.5
2990.98993	1362.3
2993.4245	1362.5
2995.85758	1353.9
2998.28917	1350.2
3000.71928	1363.7
3003.14791	1359
3005.57506	1360.1
3008.00073	1364.6
3010.42493	1371.8
3012.84764	1380.6
3015.26888	1367.8
3017.68865	1365.8
3020.10694	1368.3
3022.52376	1360
3024.9391	1353.5
3027.35298	1353
3029.76539	1341.5
3032.17632	1326.1
3034.5858	1326.7
3036.9938	1314.8
3039.40034	1314.6
3041.80542	1314
3044.20903	1306.3
3046.61118	1307.8
3049.01187	1301.8
3051.4111	1298.3
3053.80888	1292.9
3056.20519	1295.2
3058.60005	1300.5
3060.99345	1292.7
3063.3854	1292.8
3065.7759	1290.9
3068.16494	1287.9
3070.55254	1287.5
3072.93868	1295.2
3075.32338	1304.4
3077.70662	1303.4
3080.08842	1310.6
3082.46878	1306.2
3084.84769	1319.6
3087.22515	1316.1
3089.60118	1325.3
3091.97576	1333.4
3094.3489	1345.6
3096.72061	1349.8
3099.09087	1354.5
3101.4597	1365.4
3103.82709	1370.6
3106.19305	1378.1
3108.55757	1386
3110.92066	1389.3
3113.28232	1406.1
3115.64255	1409.5
3118.00134	1410.5
3120.35871	1418.9
3122.71466	1427.4
3125.06917	1435.3
3127.42226	1442.5
3129.77393	1452.1
3132.12417	1450.8
3134.47299	1468.8
3136.82039	1468.4
3139.16636	1475.4
3141.51092	1495.3
3143.85406	1492.3
3146.19579	1505.1
3148.53609	1511.7
3150.87499	1522.9
3153.21246	1538.1
3155.54853	1544.2
3157.88318	1549
3160.21642	1571
3162.54826	1585.1
3164.87868	1580.6
3167.2077	1594.5
3169.5353	1623.5
3171.86151	1615.6
3174.18631	1631.3
3176.5097	1634.7
3178.83169	1654.1
3181.15228	1659
3183.47147	1659.7
3185.78926	1664.2
3188.10565	1671.4
3190.42065	1677.1
3192.73424	1681
3195.04645	1707.4
3197.35725	1701.3
3199.66667	1713.2
3201.97469	1714.9
3204.28132	1724.8
3206.58656	1741.9
3208.8904	1745
3211.19287	1753.1
3213.49394	1767.6
3215.79363	1761.6
3218.09193	1769.2
3220.38884	1766
3222.68438	1778.5
3224.97853	1785.2
3227.2713	1793.6
3229.56269	1803.7
3231.8527	1802
3234.14133	1793.8
3236.42858	1805.5
3238.71446	1800.6
3240.99896	1808.3
3243.28209	1804.8
3245.56384	1798.9
3247.84423	1808.6
3250.12324	1794.8
3252.40088	1811.5
3254.67715	1805.3
3256.95205	1802
3259.22558	1812.6
3261.49775	1809.2
3263.76855	1805.4
3266.03799	1819.6
3268.30606	1822.4
3270.57277	1816.5
3272.83812	1813.4
3275.10211	1819.9
3277.36474	1815.3
3279.62601	1821.8
3281.88593	1807.6
3284.14448	1810.4
3286.40168	1824.2
3288.65753	1807
3290.91202	1809.3
3293.16516	1807.4
3295.41695	1813.1
3297.66738	1792.2
3299.91647	1807.9
3302.16421	1794
3304.4106	1786.4
3306.65564	1773.1
3308.89933	1763.5
3311.14169	1748.6
3313.38269	1744.7
3315.62236	1727.1
3317.86068	1716.9
3320.09766	1708.6
3322.3333	1693.9
3324.5676	1693.5
3326.80056	1661
3329.03219	1650.3
3331.26248	1
3333.49143	-1.5
3335.71905	-1.7
