Data from AgNPs_UA_20uM_CRN_500uM_AS_RamanShift__2__14-25-51-498.txt Node

Date: Wed Aug 17 14:25:51 BST 2022
User: TCL
Spectrometer: QEP01345
Trigger mode: 4
Integration Time (sec): 7.000000E0
Scans to average: 10
Electric dark correction enabled: true
Nonlinearity correction enabled: false
Boxcar width: 0
XAxis mode: Raman Shifts
Number of Pixels in Spectrum: 1044
>>>>>Begin Spectral Data<<<<<
46.04893	-0.075
50.45542	-0.475
54.85868	-1.575
59.25871	-0.475
63.6555	53.425
68.04907	54.725
72.43941	59.125
76.82654	64.625
81.21044	64.725
85.59113	68.725
89.96862	73.425
94.34289	80.725
98.71396	80.425
103.08183	78.725
107.4465	81.725
111.80798	82.825
116.16626	82.725
120.52136	83.825
124.87327	84.525
129.222	87.425
133.56755	91.425
137.90993	89.625
142.24913	103.125
146.58517	107.425
150.91804	120.625
155.24774	133.225
159.57429	155.025
163.89768	194.825
168.21792	248.725
172.53501	322.425
176.84895	440.925
181.15975	612.325
185.46741	853.725
189.77193	1172.625
194.07331	1559.225
198.37157	2007.525
202.6667	2483.025
206.9587	2962.125
211.24758	3472.725
215.53334	4008.725
219.81599	4626.525
224.09553	5335.625
228.37195	6104.925
232.64527	6922.425
236.91549	7714.025
241.18261	8351.625
245.44663	8791.925
249.70755	9055.825
253.96539	9242.125
258.22014	9312.625
262.4718	9383.225
266.72039	9420.625
270.96589	9318.925
275.20832	9096.125
279.44768	8811.125
283.68397	8548.325
287.91719	8390.125
292.14735	8387.125
296.37445	8620.925
300.59849	9078.325
304.81948	9655.725
309.03742	10186.225
313.25231	10468.825
317.46415	10218.525
321.67296	9638.925
325.87872	9054.025
330.08145	8755.925
334.28114	8697.525
338.47781	8797.825
342.67145	9003.425
346.86207	9340.625
351.04966	9854.425
355.23424	10409.725
359.4158	10769.925
363.59435	10849.725
367.76989	10757.625
371.94243	10565.425
376.11196	10395.225
380.27849	10282.225
384.44203	10136.825
388.60257	10095.325
392.76012	10093.125
396.91468	10170.725
401.06626	10365.725
405.21485	10377.125
409.36047	9988.025
413.50311	9349.125
417.64277	8747.525
421.77947	8449.325
425.9132	8361.325
430.04396	8393.425
434.17176	8537.125
438.2966	8817.925
442.41849	9244.425
446.53742	9764.325
450.6534	10169.625
454.76644	10275.125
458.87653	10062.725
462.98368	9756.825
467.08789	9408.025
471.18916	9034.025
475.2875	8664.625
479.38291	8279.725
483.4754	8004.325
487.56496	7850.025
491.6516	7786.125
495.73531	7782.225
499.81612	7821.525
503.89401	7921.925
507.96899	8033.525
512.04106	8146.425
516.11023	8242.425
520.1765	8368.825
524.23987	8431.525
528.30034	8449.725
532.35792	8458.725
536.41261	8266.225
540.46441	7994.125
544.51333	7853.325
548.55936	7904.525
552.60252	8158.925
556.64279	8495.525
560.6802	8717.925
564.71473	8879.725
568.7464	9161.825
572.7752	9273.425
576.80114	8962.825
580.82422	8768.225
584.84444	8977.825
588.86181	9692.625
592.87633	10828.125
596.888	11840.425
600.89682	12039.025
604.9028	12819.525
608.90594	16152.325
612.90624	20149.525
616.90371	17873.125
620.89834	11576.725
624.89015	8863.825
628.87913	8500.225
632.86528	8849.425
636.84862	9095.425
640.82913	8717.925
644.80683	8079.025
648.78172	7725.725
652.75379	7769.525
656.72306	8233.425
660.68952	8677.925
664.65319	8257.125
668.61405	7574.725
672.57211	7386.825
676.52738	7472.225
680.47986	7437.425
684.42955	7249.125
688.37646	7136.825
692.32058	7161.325
696.26192	7312.425
700.20048	7526.425
704.13626	7600.625
708.06928	7543.225
711.99952	7464.325
715.927	7500.825
719.85171	7631.125
723.77365	7695.025
727.69284	7632.825
731.60928	7580.525
735.52295	7635.725
739.43388	7683.525
743.34206	7712.125
747.24749	7690.625
751.15017	7709.325
755.05012	7892.525
758.94733	8651.625
762.8418	10431.525
766.73354	13076.625
770.62254	15174.525
774.50882	15661.225
778.39237	14503.725
782.27321	12157.525
786.15132	9855.325
790.02671	8475.325
793.89938	7796.425
797.76935	7489.525
801.6366	7337.825
805.50115	7230.625
809.36299	7157.325
813.22213	7077.425
817.07857	7046.625
820.93231	7034.025
824.78336	7086.025
828.63172	7155.025
832.47738	7156.725
836.32036	7111.025
840.16066	7048.825
843.99827	6974.225
847.8332	6956.225
851.66546	6997.925
855.49504	7021.825
859.32195	7010.225
863.1462	6982.825
866.96777	6951.425
870.78668	6956.925
874.60293	6981.625
878.41652	7069.325
882.22745	7189.525
886.03573	7242.525
889.84136	7240.725
893.64433	7203.925
897.44466	7214.325
901.24235	7183.925
905.0374	7105.725
908.8298	7009.125
912.61957	6954.525
916.40671	6930.725
920.19121	7005.725
923.97308	7183.925
927.75233	7370.725
931.52895	7466.825
935.30295	7230.825
939.07433	6865.725
942.84309	6618.725
946.60924	6490.925
950.37278	6445.025
954.13371	6416.125
957.89203	6400.525
961.64774	6394.525
965.40086	6382.925
969.15137	6373.725
972.89929	6353.425
976.64461	6333.325
980.38733	6327.925
984.12747	6341.325
987.86502	6393.525
991.59999	6485.025
995.33237	6647.325
999.06217	6888.825
1002.78939	7209.225
1006.51404	7515.225
1010.23611	7721.725
1013.95561	7807.725
1017.67255	7800.125
1021.38692	7566.125
1025.09872	7246.225
1028.80796	7008.225
1032.51465	6984.925
1036.21877	7034.125
1039.92035	7106.225
1043.61937	7166.625
1047.31584	7166.425
1051.00976	7137.925
1054.70114	7083.325
1058.38998	7053.725
1062.07627	7066.425
1065.76003	7081.925
1069.44126	7142.425
1073.11995	7314.325
1076.79611	7568.925
1080.46974	7902.925
1084.14085	8291.825
1087.80943	8619.825
1091.47549	8647.025
1095.13903	8355.325
1098.80005	7944.425
1102.45857	7687.125
1106.11456	7646.725
1109.76805	7812.525
1113.41903	8145.625
1117.06751	8632.225
1120.71348	9261.425
1124.35696	10064.125
1127.99793	10522.625
1131.63641	10145.225
1135.2724	9357.825
1138.90589	8790.425
1142.5369	8437.925
1146.16542	8257.825
1149.79145	8194.625
1153.415	8209.425
1157.03607	8312.325
1160.65467	8559.025
1164.27079	9109.425
1167.88443	9941.925
1171.49561	11299.225
1175.10432	13351.525
1178.71056	16021.425
1182.31434	18181.125
1185.91565	18672.425
1189.51451	17692.925
1193.11091	16233.325
1196.70485	14841.825
1200.29634	13652.825
1203.88538	12434.525
1207.47197	11231.925
1211.05612	10252.225
1214.63782	9732.925
1218.21708	9611.425
1221.79391	9815.325
1225.36829	10068.225
1228.94024	10064.225
1232.50976	9801.925
1236.07685	9516.225
1239.6415	9351.225
1243.20374	9336.225
1246.76355	9328.125
1250.32093	9400.525
1253.8759	9627.125
1257.42845	10085.925
1260.97859	10676.225
1264.52631	11321.425
1268.07163	11887.825
1271.61453	12314.125
1275.15503	12551.325
1278.69312	12792.325
1282.22882	13213.425
1285.76211	14070.925
1289.29301	15062.125
1292.82151	16161.825
1296.34761	17365.025
1299.87133	18960.225
1303.39266	21404.025
1306.9116	24613.725
1310.42815	27580.725
1313.94233	28386.125
1317.45412	26529.725
1320.96354	23309.225
1324.47058	20109.325
1327.97525	17532.025
1331.47754	15962.025
1334.97747	15287.125
1338.47502	15337.825
1341.97022	16000.125
1345.46305	17207.725
1348.95352	19038.625
1352.44163	21593.925
1355.92738	25250.725
1359.41078	30249.525
1362.89183	33780.525
1366.37053	31564.625
1369.84688	25125.325
1373.32088	19546.425
1376.79254	16613.425
1380.26186	15232.025
1383.72883	14208.625
1387.19347	13184.625
1390.65578	12395.525
1394.11575	12003.225
1397.57339	11919.425
1401.0287	11928.625
1404.48168	11910.425
1407.93234	11772.225
1411.38068	11685.025
1414.82669	11712.325
1418.27039	11691.725
1421.71177	11466.925
1425.15083	11254.725
1428.58758	11297.425
1432.02203	11594.825
1435.45416	11894.225
1438.88399	11935.825
1442.31151	11843.925
1445.73673	11777.825
1449.15965	11715.225
1452.58027	11479.625
1455.9986	11188.225
1459.41463	11106.025
1462.82837	11399.625
1466.23982	11927.525
1469.64898	12447.225
1473.05586	12846.325
1476.46045	13175.325
1479.86276	13472.925
1483.26279	13871.325
1486.66054	14491.125
1490.05602	15371.125
1493.44922	16659.525
1496.84016	18393.225
1500.22882	20896.825
1503.61521	24189.625
1506.99934	27543.125
1510.38121	29322.625
1513.76081	28502.525
1517.13816	25125.825
1520.51324	21001.425
1523.88607	17738.525
1527.25665	15894.225
1530.62498	14995.125
1533.99105	14422.025
1537.35488	13835.525
1540.71647	13236.225
1544.07581	12660.025
1547.4329	12232.725
1550.78776	11907.025
1554.14038	11722.525
1557.49077	11717.425
1560.83892	12049.425
1564.18484	12835.925
1567.52853	13834.125
1570.86999	14661.925
1574.20922	15057.325
1577.54624	14721.225
1580.88103	13558.325
1584.2136	12301.225
1587.54395	11795.225
1590.87208	12280.625
1594.19801	13608.725
1597.52172	15019.925
1600.84321	15533.525
1604.16251	14715.725
1607.47959	13265.425
1610.79447	11655.725
1614.10715	10294.125
1617.41763	9319.725
1620.7259	8764.025
1624.03199	8587.525
1627.33587	8708.225
1630.63757	9219.525
1633.93707	10243.025
1637.23439	12030.225
1640.52951	14889.725
1643.82246	18634.925
1647.11321	21994.625
1650.40179	23030.025
1653.68819	20672.725
1656.97241	16458.925
1660.25446	12580.725
1663.53433	9960.125
1666.81203	8453.925
1670.08756	7594.825
1673.36092	7111.625
1676.63211	6799.125
1679.90115	6564.325
1683.16801	6380.125
1686.43272	6277.825
1689.69527	6180.125
1692.95567	6116.625
1696.2139	6070.625
1699.46999	6032.425
1702.72392	6001.225
1705.97571	5968.225
1709.22535	5948.525
1712.47284	5950.125
1715.71819	5944.825
1718.96139	5908.525
1722.20246	5844.425
1725.44139	5806.425
1728.67818	5735.625
1731.91284	5656.825
1735.14537	5582.125
1738.37576	5556.425
1741.60403	5530.025
1744.83017	5498.725
1748.05418	5486.625
1751.27607	5477.325
1754.49584	5464.225
1757.71349	5430.525
1760.92903	5400.225
1764.14244	5369.725
1767.35375	5361.125
1770.56294	5312.125
1773.77002	5287.025
1776.97499	5247.025
1780.17785	5209.625
1783.37861	5196.625
1786.57727	5168.225
1789.77382	5133.725
1792.96828	5116.325
1796.16064	5096.625
1799.3509	5079.525
1802.53907	5060.425
1805.72514	5053.425
1808.90913	5020.625
1812.09102	4996.125
1815.27083	4972.325
1818.44856	4961.025
1821.6242	4951.725
1824.79776	4955.725
1827.96924	4920.825
1831.13864	4906.125
1834.30597	4910.325
1837.47122	4892.425
1840.6344	4865.225
1843.7955	4892.725
1846.95454	4857.425
1850.11151	4854.325
1853.26642	4847.325
1856.41926	4856.325
1859.57004	4836.625
1862.71876	4824.025
1865.86542	4826.425
1869.01003	4837.425
1872.15258	4840.825
1875.29308	4833.325
1878.43152	4813.625
1881.56792	4828.125
1884.70227	4831.825
1887.83457	4820.525
1890.96482	4800.225
1894.09304	4805.625
1897.21921	4788.625
1900.34335	4785.125
1903.46544	4796.325
1906.58551	4787.025
1909.70353	4774.925
1912.81953	4774.425
1915.93349	4760.725
1919.04543	4737.625
1922.15534	4730.925
1925.26322	4728.425
1928.36908	4684.225
1931.47292	4692.925
1934.57473	4648.925
1937.67453	4639.525
1940.77232	4615.325
1943.86808	4580.625
1946.96184	4578.825
1950.05358	4557.825
1953.14331	4553.625
1956.23103	4542.025
1959.31675	4543.225
1962.40046	4539.825
1965.48217	4524.725
1968.56188	4514.125
1971.63959	4495.325
1974.7153	4485.125
1977.78901	4459.925
1980.86073	4454.725
1983.93046	4407.825
1986.99819	4404.325
1990.06394	4374.525
1993.1277	4363.225
1996.18947	4356.525
1999.24925	4325.625
2002.30706	4311.825
2005.36288	4289.425
2008.41672	4264.525
2011.46859	4271.325
2014.51848	4256.925
2017.56639	4229.625
2020.61233	4225.725
2023.6563	4225.225
2026.6983	4193.225
2029.73833	4203.725
2032.7764	4178.125
2035.8125	4166.625
2038.84664	4168.825
2041.87881	4159.525
2044.90903	4156.225
2047.93729	4154.525
2050.96359	4141.325
2053.98794	4132.125
2057.01034	4112.825
2060.03078	4109.725
2063.04927	4107.525
2066.06582	4110.725
2069.08042	4091.325
2072.09307	4084.725
2075.10378	4087.325
2078.11255	4102.125
2081.11938	4090.425
2084.12426	4078.525
2087.12722	4086.925
2090.12824	4105.125
2093.12732	4088.125
2096.12447	4102.125
2099.11969	4098.825
2102.11299	4087.625
2105.10435	4100.825
2108.09379	4086.025
2111.08131	4084.825
2114.0669	4101.525
2117.05057	4093.425
2120.03233	4110.725
2123.01216	4112.025
2125.99008	4131.125
2128.96609	4130.125
2131.94018	4121.625
2134.91236	4115.725
2137.88263	4119.925
2140.851	4088.125
2143.81746	4090.925
2146.78201	4088.525
2149.74466	4071.725
2152.7054	4060.725
2155.66425	4036.025
2158.6212	4035.125
2161.57625	4033.125
2164.52941	4020.025
2167.48067	4029.625
2170.43004	4011.425
2173.37752	4006.425
2176.32311	4003.225
2179.26681	4022.225
2182.20863	4014.725
2185.14856	4005.625
2188.08661	4035.225
2191.02278	4026.325
2193.95707	4013.925
2196.88948	4027.025
2199.82001	4003.625
2202.74867	4015.325
2205.67545	4011.325
2208.60037	3996.925
2211.52341	3998.825
2214.44458	3975.925
2217.36388	3948.725
2220.28132	3942.225
2223.1969	3920.125
2226.11061	3922.825
2229.02246	3911.625
2231.93245	3913.925
2234.84058	3902.425
2237.74686	3910.325
2240.65128	3910.525
2243.55385	3919.125
2246.45456	3918.525
2249.35343	3914.825
2252.25044	3920.525
2255.14561	3920.525
2258.03893	3911.225
2260.93041	3917.025
2263.82004	3899.425
2266.70783	3888.125
2269.59378	3874.925
2272.4779	3855.125
2275.36017	3844.325
2278.24061	3843.925
2281.11922	3812.025
2283.996	3823.425
2286.87094	3818.725
2289.74405	3785.025
2292.61534	3798.225
2295.4848	3780.225
2298.35243	3770.125
2301.21824	3757.725
2304.08223	3759.925
2306.94439	3767.825
2309.80474	3767.325
2312.66327	3751.725
2315.51999	3751.425
2318.37489	3747.025
2321.22797	3735.125
2324.07925	3733.025
2326.92871	3719.325
2329.77637	3733.825
2332.62222	3720.625
2335.46626	3721.325
2338.3085	3731.725
2341.14893	3715.625
2343.98756	3723.325
2346.8244	3720.825
2349.65943	3729.925
2352.49267	3729.725
2355.32411	3733.425
2358.15376	3739.725
2360.98161	3748.425
2363.80768	3747.525
2366.63195	3767.725
2369.45444	3762.425
2372.27514	3762.225
2375.09405	3774.225
2377.91118	3767.425
2380.72652	3739.425
2383.54009	3746.825
2386.35187	3730.825
2389.16188	3698.225
2391.97011	3662.825
2394.77657	3671.425
2397.58125	3651.825
2400.38416	3642.625
2403.18529	3638.125
2405.98466	3620.125
2408.78226	3628.525
2411.57809	3607.425
2414.37216	3605.525
2417.16446	3588.925
2419.955	3591.225
2422.74378	3601.025
2425.5308	3605.525
2428.31606	3597.925
2431.09956	3603.925
2433.88131	3600.925
2436.6613	3611.225
2439.43954	3600.425
2442.21603	3602.625
2444.99077	3594.525
2447.76377	3601.625
2450.53501	3610.925
2453.30451	3617.325
2456.07226	3626.625
2458.83827	3630.625
2461.60254	3636.225
2464.36507	3618.825
2467.12586	3610.925
2469.88492	3607.725
2472.64224	3619.925
2475.39782	3619.525
2478.15167	3638.125
2480.90379	3651.525
2483.65417	3654.725
2486.40283	3684.525
2489.14976	3675.525
2491.89497	3711.425
2494.63845	3710.925
2497.3802	3707.825
2500.12024	3682.225
2502.85855	3686.225
2505.59514	3665.525
2508.33002	3629.225
2511.06318	3611.625
2513.79462	3590.325
2516.52435	3579.925
2519.25237	3571.125
2521.97867	3551.825
2524.70327	3535.125
2527.42616	3532.325
2530.14734	3531.525
2532.86681	3541.725
2535.58458	3545.725
2538.30065	3550.725
2541.01501	3547.825
2543.72768	3543.525
2546.43864	3572.025
2549.14791	3544.725
2551.85548	3542.825
2554.56136	3542.625
2557.26554	3547.525
2559.96803	3541.325
2562.66883	3524.725
2565.36794	3516.625
2568.06536	3525.325
2570.7611	3525.425
2573.45514	3509.625
2576.14751	3499.125
2578.83819	3496.625
2581.52719	3487.025
2584.21451	3484.625
2586.90015	3495.725
2589.58411	3486.425
2592.2664	3499.725
2594.94701	3486.225
2597.62594	3486.525
2600.30321	3476.525
2602.9788	3471.025
2605.65273	3487.125
2608.32498	3505.425
2610.99557	3486.925
2613.66449	3506.225
2616.33175	3503.625
2618.99734	3496.825
2621.66128	3482.925
2624.32355	3475.225
2626.98416	3466.925
2629.64311	3462.825
2632.30041	3462.225
2634.95605	3462.525
2637.61004	3450.125
2640.26238	3443.225
2642.91306	3448.325
2645.56209	3436.325
2648.20948	3427.625
2650.85521	3436.925
2653.4993	3438.025
2656.14175	3445.525
2658.78255	3458.425
2661.42171	3462.925
2664.05923	3457.725
2666.6951	3477.125
2669.32934	3488.325
2671.96194	3487.025
2674.59291	3487.825
2677.22224	3474.425
2679.84993	3486.325
2682.476	3470.225
2685.10043	3472.025
2687.72324	3453.725
2690.34441	3458.125
2692.96396	3455.225
2695.58188	3444.825
2698.19818	3438.125
2700.81285	3447.025
2703.4259	3442.225
2706.03733	3441.625
2708.64714	3463.025
2711.25533	3463.225
2713.86191	3459.025
2716.46687	3466.925
2719.07021	3464.025
2721.67194	3476.525
2724.27206	3481.625
2726.87057	3483.925
2729.46747	3484.925
2732.06276	3486.125
2734.65644	3480.525
2737.24852	3463.125
2739.83899	3459.425
2742.42786	3468.125
2745.01513	3457.525
2747.60079	3430.225
2750.18486	3433.525
2752.76733	3445.025
2755.3482	3429.225
2757.92747	3415.625
2760.50515	3430.125
2763.08123	3422.225
2765.65573	3418.125
2768.22863	3411.125
2770.79994	3404.425
2773.36967	3415.825
2775.9378	3400.625
2778.50435	3415.525
2781.06932	3412.925
2783.6327	3411.425
2786.1945	3413.325
2788.75471	3427.825
2791.31335	3422.325
2793.87041	3421.425
2796.42589	3409.225
2798.97979	3415.725
2801.53212	3417.825
2804.08288	3411.025
2806.63206	3412.025
2809.17967	3431.625
2811.72571	3438.825
2814.27018	3441.925
2816.81308	3438.825
2819.35442	3432.725
2821.89419	3436.625
2824.43239	3447.925
2826.96904	3457.125
2829.50412	3457.225
2832.03763	3450.925
2834.56959	3447.225
2837.1	3447.225
2839.62884	3455.025
2842.15613	3461.625
2844.68186	3462.125
2847.20604	3478.625
2849.72867	3488.425
2852.24974	3489.325
2854.76927	3499.125
2857.28724	3512.525
2859.80367	3524.925
2862.31855	3538.425
2864.83189	3534.525
2867.34368	3563.425
2869.85393	3578.625
2872.36264	3570.625
2874.8698	3582.125
2877.37543	3583.225
2879.87952	3577.125
2882.38207	3573.825
2884.88308	3581.225
2887.38256	3580.625
2889.88051	3597.525
2892.37692	3607.525
2894.8718	3612.725
2897.36515	3634.725
2899.85698	3646.025
2902.34727	3663.725
2904.83604	3670.325
2907.32328	3695.425
2909.809	3694.225
2912.29319	3712.425
2914.77587	3703.125
2917.25702	3717.125
2919.73665	3721.725
2922.21476	3723.925
2924.69136	3716.425
2927.16644	3693.525
2929.64	3689.925
2932.11205	3685.025
2934.58258	3658.525
2937.05161	3661.025
2939.51912	3656.925
2941.98513	3649.925
2944.44962	3633.325
2946.91261	3607.925
2949.37409	3577.325
2951.83407	3590.325
2954.29254	3569.725
2956.74951	3556.625
2959.20498	3540.225
2961.65895	3531.625
2964.11142	3503.725
2966.56239	3492.825
2969.01186	3450.225
2971.45984	3442.325
2973.90632	3444.725
2976.35131	3419.125
2978.7948	3420.325
2981.23681	3385.825
2983.67732	3376.525
2986.11635	3359.825
2988.55388	3324.525
2990.98993	3333.825
2993.4245	3319.425
2995.85758	3317.325
2998.28917	3287.925
3000.71928	3299.825
3003.14791	3300.525
3005.57506	3307.125
3008.00073	3274.225
3010.42493	3243.625
3012.84764	3270.825
3015.26888	3252.825
3017.68865	3247.725
3020.10694	3238.725
3022.52376	3233.825
3024.9391	3211.925
3027.35298	3222.725
3029.76539	3199.925
3032.17632	3196.025
3034.5858	3180.525
3036.9938	3197.525
3039.40034	3193.925
3041.80542	3193.925
3044.20903	3179.725
3046.61118	3180.425
3049.01187	3175.225
3051.4111	3169.425
3053.80888	3166.425
3056.20519	3184.025
3058.60005	3182.225
3060.99345	3162.825
3063.3854	3154.725
3065.7759	3159.325
3068.16494	3144.425
3070.55254	3125.725
3072.93868	3113.725
3075.32338	3105.325
3077.70662	3099.125
3080.08842	3072.825
3082.46878	3066.725
3084.84769	3083.025
3087.22515	3094.525
3089.60118	3092.825
3091.97576	3083.725
3094.3489	3079.925
3096.72061	3095.525
3099.09087	3090.225
3101.4597	3087.925
3103.82709	3106.825
3106.19305	3084.625
3108.55757	3098.725
3110.92066	3088.225
3113.28232	3112.325
3115.64255	3100.625
3118.00134	3088.425
3120.35871	3090.225
3122.71466	3100.025
3125.06917	3091.025
3127.42226	3101.425
3129.77393	3098.625
3132.12417	3106.625
3134.47299	3117.225
3136.82039	3113.125
3139.16636	3117.425
3141.51092	3114.125
3143.85406	3121.525
3146.19579	3119.025
3148.53609	3125.325
3150.87499	3128.825
3153.21246	3140.325
3155.54853	3138.225
3157.88318	3142.925
3160.21642	3150.325
3162.54826	3159.825
3164.87868	3157.925
3167.2077	3161.325
3169.5353	3174.325
3171.86151	3181.125
3174.18631	3192.325
3176.5097	3175.325
3178.83169	3183.925
3181.15228	3183.325
3183.47147	3185.525
3185.78926	3167.325
3188.10565	3168.825
3190.42065	3183.725
3192.73424	3180.625
3195.04645	3181.525
3197.35725	3183.325
3199.66667	3194.725
3201.97469	3191.325
3204.28132	3207.425
3206.58656	3206.825
3208.8904	3228.725
3211.19287	3230.625
3213.49394	3228.125
3215.79363	3236.825
3218.09193	3239.125
3220.38884	3248.525
3222.68438	3246.725
3224.97853	3248.125
3227.2713	3260.625
3229.56269	3253.425
3231.8527	3255.625
3234.14133	3255.125
3236.42858	3238.725
3238.71446	3244.025
3240.99896	3233.925
3243.28209	3238.425
3245.56384	3222.825
3247.84423	3243.425
3250.12324	3234.525
3252.40088	3216.725
3254.67715	3211.325
3256.95205	3226.925
3259.22558	3230.625
3261.49775	3239.425
3263.76855	3222.325
3266.03799	3230.625
3268.30606	3236.725
3270.57277	3241.625
3272.83812	3210.625
3275.10211	3220.425
3277.36474	3225.125
3279.62601	3228.425
3281.88593	3230.025
3284.14448	3220.625
3286.40168	3241.725
3288.65753	3250.725
3290.91202	3244.725
3293.16516	3257.525
3295.41695	3253.025
3297.66738	3244.525
3299.91647	3231.825
3302.16421	3207.625
3304.4106	3203.925
3306.65564	3174.725
3308.89933	3144.025
3311.14169	3135.425
3313.38269	3110.025
3315.62236	3090.225
3317.86068	3070.625
3320.09766	3046.825
3322.3333	3037.325
3324.5676	3001.125
3326.80056	2970.725
3329.03219	2950.225
3331.26248	1.625
3333.49143	1.325
3335.71905	0.725
