Data from AgNPs_UA_20uM_CRN_500uM_AS_RamanShift__18__14-44-31-518.txt Node

Date: Wed Aug 17 14:44:31 BST 2022
User: TCL
Spectrometer: QEP01345
Trigger mode: 4
Integration Time (sec): 7.000000E0
Scans to average: 10
Electric dark correction enabled: true
Nonlinearity correction enabled: false
Boxcar width: 0
XAxis mode: Raman Shifts
Number of Pixels in Spectrum: 1044
>>>>>Begin Spectral Data<<<<<
46.04893	-0.9625
50.45542	-1.3625
54.85868	-1.5625
59.25871	1.0375
63.6555	33.7375
68.04907	35.6375
72.43941	37.8375
76.82654	43.6375
81.21044	43.3375
85.59113	43.2375
89.96862	45.6375
94.34289	51.9375
98.71396	53.7375
103.08183	52.5375
107.4465	52.5375
111.80798	52.1375
116.16626	51.3375
120.52136	52.5375
124.87327	50.9375
129.222	55.5375
133.56755	53.9375
137.90993	51.8375
142.24913	61.9375
146.58517	61.4375
150.91804	61.4375
155.24774	67.6375
159.57429	72.1375
163.89768	82.9375
168.21792	103.7375
172.53501	134.7375
176.84895	172.4375
181.15975	234.2375
185.46741	312.4375
189.77193	431.6375
194.07331	575.0375
198.37157	734.4375
202.6667	908.0375
206.9587	1084.8375
211.24758	1264.0375
215.53334	1448.2375
219.81599	1646.6375
224.09553	1871.0375
228.37195	2113.2375
232.64527	2382.6375
236.91549	2635.4375
241.18261	2864.7375
245.44663	3043.1375
249.70755	3185.7375
253.96539	3303.9375
258.22014	3387.4375
262.4718	3447.5375
266.72039	3485.9375
270.96589	3480.4375
275.20832	3428.3375
279.44768	3355.4375
283.68397	3251.2375
287.91719	3193.9375
292.14735	3161.7375
296.37445	3207.2375
300.59849	3296.8375
304.81948	3418.2375
309.03742	3492.2375
313.25231	3482.3375
317.46415	3371.3375
321.67296	3187.0375
325.87872	3034.5375
330.08145	2963.3375
334.28114	2972.9375
338.47781	3014.7375
342.67145	3079.4375
346.86207	3195.8375
351.04966	3343.2375
355.23424	3511.3375
359.4158	3640.5375
363.59435	3754.3375
367.76989	3789.8375
371.94243	3770.0375
376.11196	3773.8375
380.27849	3767.4375
384.44203	3742.5375
388.60257	3715.1375
392.76012	3685.4375
396.91468	3698.3375
401.06626	3740.2375
405.21485	3775.6375
409.36047	3703.5375
413.50311	3549.1375
417.64277	3404.1375
421.77947	3310.6375
425.9132	3289.8375
430.04396	3296.9375
434.17176	3298.9375
438.2966	3364.0375
442.41849	3416.4375
446.53742	3490.3375
450.6534	3548.9375
454.76644	3581.8375
458.87653	3600.2375
462.98368	3574.6375
467.08789	3556.1375
471.18916	3502.6375
475.2875	3446.3375
479.38291	3394.6375
483.4754	3373.3375
487.56496	3346.3375
491.6516	3342.2375
495.73531	3343.0375
499.81612	3358.4375
503.89401	3387.3375
507.96899	3428.8375
512.04106	3472.1375
516.11023	3520.5375
520.1765	3556.1375
524.23987	3537.4375
528.30034	3510.8375
532.35792	3482.3375
536.41261	3456.2375
540.46441	3400.4375
544.51333	3365.5375
548.55936	3369.3375
552.60252	3406.0375
556.64279	3461.2375
560.6802	3490.3375
564.71473	3531.1375
568.7464	3613.9375
572.7752	3642.5375
576.80114	3534.4375
580.82422	3448.6375
584.84444	3409.5375
588.86181	3425.6375
592.87633	3469.1375
596.888	3549.3375
600.89682	3684.9375
604.9028	4105.8375
608.90594	5118.9375
612.90624	6244.9375
616.90371	5759.4375
620.89834	4278.8375
624.89015	3639.3375
628.87913	3530.5375
632.86528	3581.1375
636.84862	3652.2375
640.82913	3642.4375
644.80683	3528.7375
648.78172	3426.8375
652.75379	3452.8375
656.72306	3569.5375
660.68952	3700.2375
664.65319	3617.9375
668.61405	3483.6375
672.57211	3472.8375
676.52738	3491.7375
680.47986	3541.0375
684.42955	3515.0375
688.37646	3450.2375
692.32058	3421.9375
696.26192	3420.9375
700.20048	3432.6375
704.13626	3457.7375
708.06928	3437.6375
711.99952	3396.4375
715.927	3392.9375
719.85171	3404.9375
723.77365	3425.6375
727.69284	3434.7375
731.60928	3418.7375
735.52295	3427.2375
739.43388	3411.3375
743.34206	3415.3375
747.24749	3416.3375
751.15017	3410.3375
755.05012	3473.2375
758.94733	3578.0375
762.8418	3934.3375
766.73354	4506.8375
770.62254	5095.4375
774.50882	5362.3375
778.39237	5139.0375
782.27321	4540.9375
786.15132	3955.3375
790.02671	3625.3375
793.89938	3450.7375
797.76935	3414.2375
801.6366	3379.0375
805.50115	3354.6375
809.36299	3331.8375
813.22213	3305.5375
817.07857	3296.4375
820.93231	3294.4375
824.78336	3287.9375
828.63172	3286.9375
832.47738	3294.8375
836.32036	3270.6375
840.16066	3277.0375
843.99827	3260.5375
847.8332	3252.4375
851.66546	3260.6375
855.49504	3267.0375
859.32195	3276.0375
863.1462	3290.6375
866.96777	3295.4375
870.78668	3296.5375
874.60293	3286.6375
878.41652	3299.9375
882.22745	3327.8375
886.03573	3328.6375
889.84136	3313.6375
893.64433	3315.1375
897.44466	3301.6375
901.24235	3302.6375
905.0374	3265.8375
908.8298	3238.7375
912.61957	3225.7375
916.40671	3235.6375
920.19121	3240.8375
923.97308	3261.2375
927.75233	3286.7375
931.52895	3328.9375
935.30295	3303.8375
939.07433	3240.8375
942.84309	3186.3375
946.60924	3142.8375
950.37278	3113.0375
954.13371	3085.4375
957.89203	3088.1375
961.64774	3089.7375
965.40086	3076.0375
969.15137	3061.8375
972.89929	3044.0375
976.64461	3032.5375
980.38733	3048.5375
984.12747	3045.3375
987.86502	3071.0375
991.59999	3073.8375
995.33237	3078.2375
999.06217	3116.0375
1002.78939	3174.2375
1006.51404	3204.1375
1010.23611	3239.4375
1013.95561	3269.0375
1017.67255	3264.5375
1021.38692	3241.1375
1025.09872	3213.7375
1028.80796	3174.6375
1032.51465	3182.5375
1036.21877	3199.6375
1039.92035	3217.3375
1043.61937	3224.8375
1047.31584	3236.4375
1051.00976	3233.7375
1054.70114	3224.4375
1058.38998	3219.7375
1062.07627	3211.9375
1065.76003	3201.8375
1069.44126	3202.3375
1073.11995	3227.8375
1076.79611	3276.7375
1080.46974	3332.9375
1084.14085	3404.1375
1087.80943	3471.0375
1091.47549	3503.2375
1095.13903	3459.1375
1098.80005	3375.2375
1102.45857	3321.9375
1106.11456	3316.8375
1109.76805	3341.4375
1113.41903	3422.6375
1117.06751	3545.6375
1120.71348	3658.1375
1124.35696	3810.0375
1127.99793	3933.1375
1131.63641	3913.4375
1135.2724	3735.6375
1138.90589	3578.9375
1142.5369	3478.8375
1146.16542	3396.4375
1149.79145	3336.1375
1153.415	3313.1375
1157.03607	3341.2375
1160.65467	3374.8375
1164.27079	3454.8375
1167.88443	3611.4375
1171.49561	3835.1375
1175.10432	4201.6375
1178.71056	4733.2375
1182.31434	5226.0375
1185.91565	5348.3375
1189.51451	5151.6375
1193.11091	4813.6375
1196.70485	4495.5375
1200.29634	4239.0375
1203.88538	4062.4375
1207.47197	3829.8375
1211.05612	3615.7375
1214.63782	3495.8375
1218.21708	3426.0375
1221.79391	3417.0375
1225.36829	3439.4375
1228.94024	3409.9375
1232.50976	3400.3375
1236.07685	3393.2375
1239.6415	3387.2375
1243.20374	3411.2375
1246.76355	3415.2375
1250.32093	3444.9375
1253.8759	3493.6375
1257.42845	3555.1375
1260.97859	3626.4375
1264.52631	3739.7375
1268.07163	3844.6375
1271.61453	3941.1375
1275.15503	4017.2375
1278.69312	4029.0375
1282.22882	4062.4375
1285.76211	4140.0375
1289.29301	4262.8375
1292.82151	4402.8375
1296.34761	4590.1375
1299.87133	4862.2375
1303.39266	5294.1375
1306.9116	5938.3375
1310.42815	6507.8375
1313.94233	6651.0375
1317.45412	6225.7375
1320.96354	5670.6375
1324.47058	5121.6375
1327.97525	4694.6375
1331.47754	4426.4375
1334.97747	4302.5375
1338.47502	4308.8375
1341.97022	4455.3375
1345.46305	4746.4375
1348.95352	5183.6375
1352.44163	5738.8375
1355.92738	6444.0375
1359.41078	7501.7375
1362.89183	8396.9375
1366.37053	8078.4375
1369.84688	6678.8375
1373.32088	5441.3375
1376.79254	4719.0375
1380.26186	4340.2375
1383.72883	4070.0375
1387.19347	3874.5375
1390.65578	3700.1375
1394.11575	3554.8375
1397.57339	3482.5375
1401.0287	3447.3375
1404.48168	3413.5375
1407.93234	3412.0375
1411.38068	3419.9375
1414.82669	3460.8375
1418.27039	3483.7375
1421.71177	3480.1375
1425.15083	3459.7375
1428.58758	3411.8375
1432.02203	3441.9375
1435.45416	3470.6375
1438.88399	3466.8375
1442.31151	3460.2375
1445.73673	3447.6375
1449.15965	3475.3375
1452.58027	3444.0375
1455.9986	3449.6375
1459.41463	3442.4375
1462.82837	3479.6375
1466.23982	3561.0375
1469.64898	3628.4375
1473.05586	3679.8375
1476.46045	3708.8375
1479.86276	3739.4375
1483.26279	3796.0375
1486.66054	3915.5375
1490.05602	4040.2375
1493.44922	4292.2375
1496.84016	4698.1375
1500.22882	5344.1375
1503.61521	6259.3375
1506.99934	7223.3375
1510.38121	7825.7375
1513.76081	7687.9375
1517.13816	6885.1375
1520.51324	5826.9375
1523.88607	4952.1375
1527.25665	4441.8375
1530.62498	4167.2375
1533.99105	4011.7375
1537.35488	3900.8375
1540.71647	3810.7375
1544.07581	3782.9375
1547.4329	3762.0375
1550.78776	3773.5375
1554.14038	3811.8375
1557.49077	3869.7375
1560.83892	3952.6375
1564.18484	4087.6375
1567.52853	4276.4375
1570.86999	4458.0375
1574.20922	4547.6375
1577.54624	4504.3375
1580.88103	4224.4375
1584.2136	3883.3375
1587.54395	3652.5375
1590.87208	3622.1375
1594.19801	3744.6375
1597.52172	3930.9375
1600.84321	3963.6375
1604.16251	3868.4375
1607.47959	3701.0375
1610.79447	3546.3375
1614.10715	3384.8375
1617.41763	3234.8375
1620.7259	3139.3375
1624.03199	3095.9375
1627.33587	3101.8375
1630.63757	3140.2375
1633.93707	3249.2375
1637.23439	3457.1375
1640.52951	3804.0375
1643.82246	4301.8375
1647.11321	4934.5375
1650.40179	5294.3375
1653.68819	5111.5375
1656.97241	4504.7375
1660.25446	3836.5375
1663.53433	3382.7375
1666.81203	3103.3375
1670.08756	2951.6375
1673.36092	2851.6375
1676.63211	2788.4375
1679.90115	2731.8375
1683.16801	2698.0375
1686.43272	2679.5375
1689.69527	2645.5375
1692.95567	2630.3375
1696.2139	2631.5375
1699.46999	2620.8375
1702.72392	2613.5375
1705.97571	2590.4375
1709.22535	2560.8375
1712.47284	2577.2375
1715.71819	2560.0375
1718.96139	2542.8375
1722.20246	2531.6375
1725.44139	2515.0375
1728.67818	2491.3375
1731.91284	2474.4375
1735.14537	2458.2375
1738.37576	2460.2375
1741.60403	2445.1375
1744.83017	2464.6375
1748.05418	2452.9375
1751.27607	2450.5375
1754.49584	2455.9375
1757.71349	2456.7375
1760.92903	2427.8375
1764.14244	2425.0375
1767.35375	2406.0375
1770.56294	2389.1375
1773.77002	2372.0375
1776.97499	2365.3375
1780.17785	2355.7375
1783.37861	2335.3375
1786.57727	2333.3375
1789.77382	2321.7375
1792.96828	2317.9375
1796.16064	2308.9375
1799.3509	2283.0375
1802.53907	2275.7375
1805.72514	2279.3375
1808.90913	2266.1375
1812.09102	2243.2375
1815.27083	2242.7375
1818.44856	2239.3375
1821.6242	2234.0375
1824.79776	2223.5375
1827.96924	2235.0375
1831.13864	2217.2375
1834.30597	2218.6375
1837.47122	2212.4375
1840.6344	2197.3375
1843.7955	2195.9375
1846.95454	2207.2375
1850.11151	2195.1375
1853.26642	2180.9375
1856.41926	2192.1375
1859.57004	2187.5375
1862.71876	2176.8375
1865.86542	2168.5375
1869.01003	2178.3375
1872.15258	2171.7375
1875.29308	2172.7375
1878.43152	2177.0375
1881.56792	2162.9375
1884.70227	2170.8375
1887.83457	2159.9375
1890.96482	2155.1375
1894.09304	2144.9375
1897.21921	2145.4375
1900.34335	2145.4375
1903.46544	2146.3375
1906.58551	2144.8375
1909.70353	2146.4375
1912.81953	2134.4375
1915.93349	2142.7375
1919.04543	2123.2375
1922.15534	2129.2375
1925.26322	2128.3375
1928.36908	2111.7375
1931.47292	2105.8375
1934.57473	2108.2375
1937.67453	2104.7375
1940.77232	2090.7375
1943.86808	2079.5375
1946.96184	2068.0375
1950.05358	2067.3375
1953.14331	2067.1375
1956.23103	2051.6375
1959.31675	2042.6375
1962.40046	2050.3375
1965.48217	2038.7375
1968.56188	2040.2375
1971.63959	2037.4375
1974.7153	2017.8375
1977.78901	2024.5375
1980.86073	2017.5375
1983.93046	2002.7375
1986.99819	1994.4375
1990.06394	1988.7375
1993.1277	1989.6375
1996.18947	1966.8375
1999.24925	1969.0375
2002.30706	1960.1375
2005.36288	1950.7375
2008.41672	1948.9375
2011.46859	1937.1375
2014.51848	1930.2375
2017.56639	1931.7375
2020.61233	1919.8375
2023.6563	1932.5375
2026.6983	1914.9375
2029.73833	1913.1375
2032.7764	1900.1375
2035.8125	1900.9375
2038.84664	1889.5375
2041.87881	1895.1375
2044.90903	1891.9375
2047.93729	1888.3375
2050.96359	1892.0375
2053.98794	1881.2375
2057.01034	1865.4375
2060.03078	1875.3375
2063.04927	1868.7375
2066.06582	1863.6375
2069.08042	1871.7375
2072.09307	1858.0375
2075.10378	1859.8375
2078.11255	1860.3375
2081.11938	1855.4375
2084.12426	1862.8375
2087.12722	1849.7375
2090.12824	1864.6375
2093.12732	1862.4375
2096.12447	1855.3375
2099.11969	1860.3375
2102.11299	1858.6375
2105.10435	1850.2375
2108.09379	1854.5375
2111.08131	1862.3375
2114.0669	1862.6375
2117.05057	1871.2375
2120.03233	1866.8375
2123.01216	1876.3375
2125.99008	1869.7375
2128.96609	1863.9375
2131.94018	1870.8375
2134.91236	1871.3375
2137.88263	1865.7375
2140.851	1867.5375
2143.81746	1866.4375
2146.78201	1866.6375
2149.74466	1873.7375
2152.7054	1866.4375
2155.66425	1866.8375
2158.6212	1857.0375
2161.57625	1862.6375
2164.52941	1862.5375
2167.48067	1851.0375
2170.43004	1848.9375
2173.37752	1849.0375
2176.32311	1851.5375
2179.26681	1837.3375
2182.20863	1851.8375
2185.14856	1838.5375
2188.08661	1851.3375
2191.02278	1852.2375
2193.95707	1847.3375
2196.88948	1846.0375
2199.82001	1847.4375
2202.74867	1842.8375
2205.67545	1840.0375
2208.60037	1841.2375
2211.52341	1832.5375
2214.44458	1832.4375
2217.36388	1822.5375
2220.28132	1821.8375
2223.1969	1812.8375
2226.11061	1808.3375
2229.02246	1808.4375
2231.93245	1796.7375
2234.84058	1804.3375
2237.74686	1807.4375
2240.65128	1792.9375
2243.55385	1802.9375
2246.45456	1795.2375
2249.35343	1793.1375
2252.25044	1802.3375
2255.14561	1792.6375
2258.03893	1792.3375
2260.93041	1786.0375
2263.82004	1783.0375
2266.70783	1780.3375
2269.59378	1782.5375
2272.4779	1765.8375
2275.36017	1765.8375
2278.24061	1760.3375
2281.11922	1757.1375
2283.996	1752.9375
2286.87094	1748.6375
2289.74405	1743.6375
2292.61534	1755.2375
2295.4848	1740.9375
2298.35243	1738.7375
2301.21824	1730.1375
2304.08223	1735.4375
2306.94439	1735.4375
2309.80474	1730.7375
2312.66327	1737.7375
2315.51999	1722.0375
2318.37489	1719.6375
2321.22797	1717.6375
2324.07925	1719.3375
2326.92871	1707.6375
2329.77637	1723.9375
2332.62222	1703.1375
2335.46626	1706.0375
2338.3085	1705.1375
2341.14893	1713.0375
2343.98756	1705.0375
2346.8244	1695.8375
2349.65943	1698.6375
2352.49267	1708.1375
2355.32411	1698.8375
2358.15376	1710.6375
2360.98161	1702.9375
2363.80768	1700.6375
2366.63195	1704.8375
2369.45444	1715.4375
2372.27514	1706.8375
2375.09405	1704.6375
2377.91118	1709.3375
2380.72652	1693.0375
2383.54009	1693.3375
2386.35187	1686.5375
2389.16188	1671.9375
2391.97011	1676.4375
2394.77657	1664.2375
2397.58125	1675.1375
2400.38416	1659.0375
2403.18529	1660.8375
2405.98466	1651.5375
2408.78226	1647.7375
2411.57809	1644.8375
2414.37216	1643.4375
2417.16446	1643.8375
2419.955	1642.6375
2422.74378	1637.8375
2425.5308	1636.5375
2428.31606	1631.4375
2431.09956	1646.0375
2433.88131	1643.7375
2436.6613	1637.7375
2439.43954	1633.1375
2442.21603	1627.6375
2444.99077	1631.8375
2447.76377	1631.9375
2450.53501	1634.4375
2453.30451	1629.8375
2456.07226	1641.9375
2458.83827	1638.0375
2461.60254	1635.7375
2464.36507	1629.8375
2467.12586	1625.0375
2469.88492	1610.7375
2472.64224	1618.1375
2475.39782	1628.9375
2478.15167	1634.0375
2480.90379	1630.5375
2483.65417	1630.4375
2486.40283	1635.6375
2489.14976	1640.5375
2491.89497	1644.2375
2494.63845	1635.5375
2497.3802	1632.7375
2500.12024	1622.7375
2502.85855	1622.9375
2505.59514	1620.3375
2508.33002	1612.8375
2511.06318	1606.3375
2513.79462	1601.8375
2516.52435	1598.2375
2519.25237	1592.3375
2521.97867	1582.5375
2524.70327	1578.3375
2527.42616	1577.6375
2530.14734	1570.7375
2532.86681	1564.8375
2535.58458	1575.1375
2538.30065	1571.1375
2541.01501	1578.0375
2543.72768	1570.8375
2546.43864	1571.7375
2549.14791	1574.6375
2551.85548	1569.4375
2554.56136	1568.8375
2557.26554	1557.2375
2559.96803	1559.7375
2562.66883	1562.2375
2565.36794	1553.0375
2568.06536	1545.8375
2570.7611	1549.7375
2573.45514	1546.3375
2576.14751	1538.5375
2578.83819	1541.4375
2581.52719	1540.1375
2584.21451	1538.6375
2586.90015	1528.4375
2589.58411	1532.7375
2592.2664	1526.8375
2594.94701	1532.2375
2597.62594	1523.0375
2600.30321	1526.8375
2602.9788	1527.7375
2605.65273	1515.8375
2608.32498	1514.0375
2610.99557	1514.5375
2613.66449	1513.3375
2616.33175	1518.6375
2618.99734	1514.8375
2621.66128	1512.0375
2624.32355	1509.3375
2626.98416	1514.1375
2629.64311	1489.9375
2632.30041	1499.0375
2634.95605	1501.1375
2637.61004	1495.6375
2640.26238	1491.2375
2642.91306	1487.9375
2645.56209	1484.4375
2648.20948	1483.7375
2650.85521	1486.6375
2653.4993	1489.5375
2656.14175	1487.3375
2658.78255	1488.2375
2661.42171	1495.9375
2664.05923	1495.6375
2666.6951	1494.4375
2669.32934	1500.4375
2671.96194	1501.1375
2674.59291	1490.2375
2677.22224	1482.8375
2679.84993	1496.4375
2682.476	1492.7375
2685.10043	1477.9375
2687.72324	1489.9375
2690.34441	1496.1375
2692.96396	1482.8375
2695.58188	1472.7375
2698.19818	1484.6375
2700.81285	1478.6375
2703.4259	1479.9375
2706.03733	1491.1375
2708.64714	1485.2375
2711.25533	1497.8375
2713.86191	1481.8375
2716.46687	1494.3375
2719.07021	1476.0375
2721.67194	1487.7375
2724.27206	1486.4375
2726.87057	1492.8375
2729.46747	1486.8375
2732.06276	1490.8375
2734.65644	1488.7375
2737.24852	1482.2375
2739.83899	1490.0375
2742.42786	1475.9375
2745.01513	1473.2375
2747.60079	1470.7375
2750.18486	1473.8375
2752.76733	1467.2375
2755.3482	1467.2375
2757.92747	1462.4375
2760.50515	1465.8375
2763.08123	1463.0375
2765.65573	1459.3375
2768.22863	1459.2375
2770.79994	1457.6375
2773.36967	1459.5375
2775.9378	1456.0375
2778.50435	1458.4375
2781.06932	1454.5375
2783.6327	1452.2375
2786.1945	1452.6375
2788.75471	1459.7375
2791.31335	1444.6375
2793.87041	1455.0375
2796.42589	1443.6375
2798.97979	1446.7375
2801.53212	1437.4375
2804.08288	1448.4375
2806.63206	1442.5375
2809.17967	1436.9375
2811.72571	1445.4375
2814.27018	1444.7375
2816.81308	1447.9375
2819.35442	1441.2375
2821.89419	1448.5375
2824.43239	1442.5375
2826.96904	1444.1375
2829.50412	1442.7375
2832.03763	1445.0375
2834.56959	1433.2375
2837.1	1436.7375
2839.62884	1435.6375
2842.15613	1444.8375
2844.68186	1456.1375
2847.20604	1452.9375
2849.72867	1449.9375
2852.24974	1459.3375
2854.76927	1457.8375
2857.28724	1461.0375
2859.80367	1466.3375
2862.31855	1461.2375
2864.83189	1470.0375
2867.34368	1482.0375
2869.85393	1484.7375
2872.36264	1480.0375
2874.8698	1496.4375
2877.37543	1501.4375
2879.87952	1489.8375
2882.38207	1502.0375
2884.88308	1510.1375
2887.38256	1511.8375
2889.88051	1505.1375
2892.37692	1506.9375
2894.8718	1509.9375
2897.36515	1517.1375
2899.85698	1528.1375
2902.34727	1527.0375
2904.83604	1536.4375
2907.32328	1550.9375
2909.809	1547.5375
2912.29319	1558.8375
2914.77587	1559.6375
2917.25702	1565.8375
2919.73665	1568.2375
2922.21476	1572.1375
2924.69136	1573.0375
2927.16644	1570.7375
2929.64	1576.8375
2932.11205	1578.1375
2934.58258	1568.9375
2937.05161	1583.9375
2939.51912	1585.3375
2941.98513	1583.9375
2944.44962	1582.5375
2946.91261	1575.0375
2949.37409	1553.3375
2951.83407	1562.4375
2954.29254	1561.6375
2956.74951	1552.2375
2959.20498	1536.0375
2961.65895	1532.2375
2964.11142	1534.9375
2966.56239	1527.6375
2969.01186	1509.0375
2971.45984	1502.7375
2973.90632	1501.5375
2976.35131	1497.9375
2978.7948	1496.1375
2981.23681	1488.9375
2983.67732	1486.5375
2986.11635	1477.5375
2988.55388	1479.0375
2990.98993	1474.0375
2993.4245	1463.1375
2995.85758	1459.8375
2998.28917	1457.9375
3000.71928	1455.3375
3003.14791	1458.5375
3005.57506	1453.7375
3008.00073	1449.7375
3010.42493	1413.6375
3012.84764	1443.0375
3015.26888	1446.9375
3017.68865	1444.8375
3020.10694	1438.6375
3022.52376	1440.2375
3024.9391	1436.7375
3027.35298	1438.2375
3029.76539	1431.4375
3032.17632	1438.0375
3034.5858	1427.6375
3036.9938	1433.9375
3039.40034	1434.0375
3041.80542	1439.1375
3044.20903	1435.8375
3046.61118	1429.1375
3049.01187	1435.8375
3051.4111	1437.7375
3053.80888	1439.2375
3056.20519	1436.1375
3058.60005	1448.3375
3060.99345	1449.0375
3063.3854	1443.3375
3065.7759	1429.9375
3068.16494	1439.7375
3070.55254	1430.9375
3072.93868	1438.5375
3075.32338	1431.9375
3077.70662	1432.8375
3080.08842	1438.0375
3082.46878	1443.5375
3084.84769	1444.2375
3087.22515	1456.0375
3089.60118	1451.3375
3091.97576	1454.9375
3094.3489	1455.0375
3096.72061	1468.8375
3099.09087	1476.2375
3101.4597	1471.2375
3103.82709	1488.1375
3106.19305	1489.0375
3108.55757	1494.3375
3110.92066	1501.4375
3113.28232	1498.0375
3115.64255	1510.3375
3118.00134	1510.2375
3120.35871	1519.4375
3122.71466	1522.1375
3125.06917	1521.2375
3127.42226	1519.6375
3129.77393	1528.5375
3132.12417	1533.9375
3134.47299	1539.2375
3136.82039	1548.6375
3139.16636	1550.9375
3141.51092	1553.4375
3143.85406	1559.7375
3146.19579	1571.9375
3148.53609	1576.7375
3150.87499	1589.1375
3153.21246	1592.3375
3155.54853	1610.6375
3157.88318	1615.4375
3160.21642	1627.6375
3162.54826	1615.8375
3164.87868	1632.9375
3167.2077	1633.2375
3169.5353	1648.5375
3171.86151	1662.2375
3174.18631	1660.9375
3176.5097	1664.0375
3178.83169	1676.2375
3181.15228	1679.5375
3183.47147	1673.2375
3185.78926	1680.6375
3188.10565	1685.3375
3190.42065	1695.2375
3192.73424	1701.5375
3195.04645	1705.6375
3197.35725	1705.1375
3199.66667	1705.2375
3201.97469	1716.2375
3204.28132	1726.1375
3206.58656	1732.7375
3208.8904	1735.2375
3211.19287	1749.2375
3213.49394	1745.1375
3215.79363	1762.7375
3218.09193	1762.8375
3220.38884	1765.4375
3222.68438	1767.2375
3224.97853	1773.5375
3227.2713	1775.2375
3229.56269	1776.6375
3231.8527	1769.0375
3234.14133	1774.8375
3236.42858	1772.5375
3238.71446	1780.1375
3240.99896	1769.0375
3243.28209	1776.0375
3245.56384	1774.0375
3247.84423	1777.5375
3250.12324	1758.4375
3252.40088	1761.6375
3254.67715	1769.9375
3256.95205	1768.9375
3259.22558	1775.6375
3261.49775	1782.5375
3263.76855	1776.7375
3266.03799	1776.2375
3268.30606	1792.1375
3270.57277	1782.5375
3272.83812	1778.6375
3275.10211	1782.5375
3277.36474	1771.3375
3279.62601	1778.0375
3281.88593	1771.6375
3284.14448	1772.7375
3286.40168	1777.0375
3288.65753	1773.8375
3290.91202	1773.0375
3293.16516	1780.2375
3295.41695	1779.6375
3297.66738	1768.0375
3299.91647	1770.7375
3302.16421	1757.5375
3304.4106	1749.8375
3306.65564	1739.6375
3308.89933	1725.8375
3311.14169	1727.0375
3313.38269	1707.5375
3315.62236	1693.5375
3317.86068	1688.6375
3320.09766	1678.3375
3322.3333	1670.3375
3324.5676	1662.8375
3326.80056	1629.9375
3329.03219	1624.3375
3331.26248	1.4375
3333.49143	1.4375
3335.71905	0.3375
