Data from AgNPs_UA_20uM_CRN_500uM_AS_RamanShift__21__14-48-01-522.txt Node

Date: Wed Aug 17 14:48:01 BST 2022
User: TCL
Spectrometer: QEP01345
Trigger mode: 4
Integration Time (sec): 7.000000E0
Scans to average: 10
Electric dark correction enabled: true
Nonlinearity correction enabled: false
Boxcar width: 0
XAxis mode: Raman Shifts
Number of Pixels in Spectrum: 1044
>>>>>Begin Spectral Data<<<<<
46.04893	-1.1125
50.45542	-0.7125
54.85868	-2.5125
59.25871	-0.1125
63.6555	39.6875
68.04907	39.7875
72.43941	41.0875
76.82654	46.1875
81.21044	46.6875
85.59113	46.9875
89.96862	50.9875
94.34289	56.7875
98.71396	55.1875
103.08183	55.6875
107.4465	57.4875
111.80798	58.2875
116.16626	56.2875
120.52136	57.5875
124.87327	58.9875
129.222	61.1875
133.56755	61.8875
137.90993	59.7875
142.24913	67.0875
146.58517	69.8875
150.91804	77.3875
155.24774	81.6875
159.57429	93.2875
163.89768	115.4875
168.21792	141.7875
172.53501	184.7875
176.84895	253.7875
181.15975	349.8875
185.46741	474.0875
189.77193	648.5875
194.07331	871.8875
198.37157	1122.8875
202.6667	1380.0875
206.9587	1657.7875
211.24758	1948.6875
215.53334	2266.9875
219.81599	2613.2875
224.09553	3023.0875
228.37195	3469.9875
232.64527	3936.4875
236.91549	4371.6875
241.18261	4733.7875
245.44663	4965.8875
249.70755	5101.5875
253.96539	5236.7875
258.22014	5354.7875
262.4718	5453.8875
266.72039	5500.1875
270.96589	5460.9875
275.20832	5311.0875
279.44768	5127.7875
283.68397	4937.2875
287.91719	4835.3875
292.14735	4884.1875
296.37445	5072.1875
300.59849	5446.6875
304.81948	5892.1875
309.03742	6168.4875
313.25231	6209.1875
317.46415	5850.3875
321.67296	5244.2875
325.87872	4771.0875
330.08145	4563.8875
334.28114	4566.8875
338.47781	4673.9875
342.67145	4833.2875
346.86207	5105.4875
351.04966	5530.5875
355.23424	6034.2875
359.4158	6436.3875
363.59435	6641.9875
367.76989	6668.5875
371.94243	6587.1875
376.11196	6487.3875
380.27849	6354.2875
384.44203	6245.8875
388.60257	6067.3875
392.76012	5927.7875
396.91468	5915.2875
401.06626	6040.6875
405.21485	6082.6875
409.36047	5838.5875
413.50311	5370.1875
417.64277	4921.2875
421.77947	4665.5875
425.9132	4551.3875
430.04396	4519.3875
434.17176	4543.4875
438.2966	4602.4875
442.41849	4742.4875
446.53742	4896.9875
450.6534	4993.4875
454.76644	5037.6875
458.87653	5016.2875
462.98368	4946.9875
467.08789	4858.6875
471.18916	4750.5875
475.2875	4628.8875
479.38291	4511.3875
483.4754	4419.4875
487.56496	4379.0875
491.6516	4334.1875
495.73531	4349.7875
499.81612	4381.2875
503.89401	4452.0875
507.96899	4584.4875
512.04106	4728.1875
516.11023	4841.8875
520.1765	4955.7875
524.23987	4929.5875
528.30034	4847.1875
532.35792	4762.2875
536.41261	4674.5875
540.46441	4553.9875
544.51333	4448.0875
548.55936	4464.5875
552.60252	4576.6875
556.64279	4718.1875
560.6802	4815.6875
564.71473	5012.7875
568.7464	5332.5875
572.7752	5359.1875
576.80114	4945.1875
580.82422	4576.4875
584.84444	4411.8875
588.86181	4396.6875
592.87633	4453.9875
596.888	4599.2875
600.89682	4974.4875
604.9028	6122.5875
608.90594	9002.2875
612.90624	12210.3875
616.90371	10977.1875
620.89834	6845.7875
624.89015	5041.8875
628.87913	4737.2875
632.86528	4890.2875
636.84862	5085.2875
640.82913	5003.9875
644.80683	4653.0875
648.78172	4418.2875
652.75379	4454.4875
656.72306	4779.4875
660.68952	5126.8875
664.65319	4892.1875
668.61405	4494.9875
672.57211	4356.5875
676.52738	4394.1875
680.47986	4389.0875
684.42955	4327.1875
688.37646	4236.2875
692.32058	4232.0875
696.26192	4248.0875
700.20048	4311.2875
704.13626	4350.1875
708.06928	4291.1875
711.99952	4239.3875
715.927	4228.8875
719.85171	4301.7875
723.77365	4344.3875
727.69284	4342.9875
731.60928	4307.8875
735.52295	4278.0875
739.43388	4279.0875
743.34206	4303.0875
747.24749	4311.5875
751.15017	4316.6875
755.05012	4433.9875
758.94733	4811.5875
762.8418	5784.2875
766.73354	7395.0875
770.62254	8838.1875
774.50882	9464.8875
778.39237	8859.2875
782.27321	7258.1875
786.15132	5732.5875
790.02671	4855.3875
793.89938	4471.1875
797.76935	4306.0875
801.6366	4235.6875
805.50115	4189.0875
809.36299	4154.2875
813.22213	4138.3875
817.07857	4108.6875
820.93231	4101.7875
824.78336	4139.7875
828.63172	4150.1875
832.47738	4163.1875
836.32036	4128.4875
840.16066	4062.1875
843.99827	4032.1875
847.8332	4026.9875
851.66546	4028.9875
855.49504	4057.2875
859.32195	4062.1875
863.1462	4050.4875
866.96777	4051.2875
870.78668	4063.2875
874.60293	4070.6875
878.41652	4080.3875
882.22745	4127.5875
886.03573	4149.1875
889.84136	4160.5875
893.64433	4126.8875
897.44466	4111.5875
901.24235	4107.3875
905.0374	4070.6875
908.8298	4000.2875
912.61957	3977.0875
916.40671	3963.7875
920.19121	3970.3875
923.97308	4026.8875
927.75233	4141.6875
931.52895	4237.5875
935.30295	4197.6875
939.07433	4024.9875
942.84309	3858.9875
946.60924	3780.2875
950.37278	3725.7875
954.13371	3716.5875
957.89203	3701.7875
961.64774	3688.8875
965.40086	3675.0875
969.15137	3658.4875
972.89929	3648.7875
976.64461	3635.6875
980.38733	3639.1875
984.12747	3640.4875
987.86502	3646.2875
991.59999	3675.5875
995.33237	3706.4875
999.06217	3763.9875
1002.78939	3869.2875
1006.51404	3984.9875
1010.23611	4053.4875
1013.95561	4073.6875
1017.67255	4029.7875
1021.38692	3977.5875
1025.09872	3904.6875
1028.80796	3850.7875
1032.51465	3873.5875
1036.21877	3917.1875
1039.92035	3939.0875
1043.61937	3986.6875
1047.31584	4005.3875
1051.00976	3982.5875
1054.70114	3965.2875
1058.38998	3949.5875
1062.07627	3932.3875
1065.76003	3935.2875
1069.44126	3923.7875
1073.11995	3969.9875
1076.79611	4070.4875
1080.46974	4254.8875
1084.14085	4477.7875
1087.80943	4687.1875
1091.47549	4738.5875
1095.13903	4604.0875
1098.80005	4392.7875
1102.45857	4241.8875
1106.11456	4242.1875
1109.76805	4358.8875
1113.41903	4588.0875
1117.06751	4910.7875
1120.71348	5326.0875
1124.35696	5806.5875
1127.99793	6137.4875
1131.63641	5906.6875
1135.2724	5343.3875
1138.90589	4884.8875
1142.5369	4601.9875
1146.16542	4400.4875
1149.79145	4281.8875
1153.415	4234.4875
1157.03607	4272.5875
1160.65467	4359.4875
1164.27079	4574.8875
1167.88443	4909.0875
1171.49561	5439.7875
1175.10432	6348.0875
1178.71056	7644.4875
1182.31434	8749.3875
1185.91565	8969.7875
1189.51451	8363.2875
1193.11091	7464.9875
1196.70485	6630.7875
1200.29634	6100.2875
1203.88538	5726.5875
1207.47197	5265.5875
1211.05612	4780.8875
1214.63782	4484.7875
1218.21708	4348.3875
1221.79391	4293.8875
1225.36829	4290.0875
1228.94024	4267.4875
1232.50976	4245.1875
1236.07685	4233.0875
1239.6415	4243.0875
1243.20374	4290.7875
1246.76355	4340.8875
1250.32093	4400.3875
1253.8759	4493.4875
1257.42845	4654.1875
1260.97859	4861.6875
1264.52631	5110.0875
1268.07163	5347.3875
1271.61453	5563.4875
1275.15503	5659.9875
1278.69312	5702.5875
1282.22882	5753.3875
1285.76211	5972.4875
1289.29301	6289.9875
1292.82151	6619.7875
1296.34761	7027.4875
1299.87133	7686.3875
1303.39266	8920.9875
1306.9116	10727.9875
1310.42815	12354.6875
1313.94233	12601.4875
1317.45412	11223.6875
1320.96354	9457.7875
1324.47058	7953.9875
1327.97525	6819.4875
1331.47754	6149.9875
1334.97747	5911.9875
1338.47502	5982.4875
1341.97022	6405.2875
1345.46305	7213.6875
1348.95352	8426.8875
1352.44163	9873.5875
1355.92738	11859.9875
1359.41078	14814.0875
1362.89183	17351.1875
1366.37053	16185.8875
1369.84688	12284.1875
1373.32088	9096.0875
1376.79254	7413.8875
1380.26186	6518.0875
1383.72883	5895.7875
1387.19347	5410.8875
1390.65578	5050.5875
1394.11575	4720.8875
1397.57339	4527.6875
1401.0287	4438.0875
1404.48168	4403.9875
1407.93234	4392.1875
1411.38068	4415.3875
1414.82669	4507.1875
1418.27039	4580.8875
1421.71177	4603.1875
1425.15083	4554.1875
1428.58758	4534.0875
1432.02203	4612.2875
1435.45416	4688.7875
1438.88399	4665.4875
1442.31151	4595.5875
1445.73673	4592.5875
1449.15965	4622.1875
1452.58027	4593.2875
1455.9986	4530.5875
1459.41463	4510.8875
1462.82837	4593.9875
1466.23982	4761.5875
1469.64898	4924.1875
1473.05586	5012.8875
1476.46045	5027.9875
1479.86276	5090.4875
1483.26279	5258.3875
1486.66054	5539.1875
1490.05602	5959.9875
1493.44922	6634.3875
1496.84016	7792.4875
1500.22882	9673.4875
1503.61521	12359.6875
1506.99934	15200.4875
1510.38121	16963.5875
1513.76081	16603.1875
1517.13816	14215.4875
1520.51324	11139.1875
1523.88607	8682.6875
1527.25665	7186.9875
1530.62498	6369.9875
1533.99105	5911.9875
1537.35488	5608.1875
1540.71647	5414.0875
1544.07581	5359.6875
1547.4329	5415.3875
1550.78776	5506.3875
1554.14038	5635.7875
1557.49077	5779.3875
1560.83892	6021.6875
1564.18484	6413.9875
1567.52853	6938.3875
1570.86999	7397.6875
1574.20922	7606.5875
1577.54624	7398.0875
1580.88103	6643.2875
1584.2136	5732.8875
1587.54395	5158.2875
1590.87208	5041.9875
1594.19801	5273.1875
1597.52172	5639.7875
1600.84321	5731.3875
1604.16251	5496.6875
1607.47959	5167.9875
1610.79447	4843.5875
1614.10715	4510.9875
1617.41763	4231.6875
1620.7259	4059.7875
1624.03199	4011.1875
1627.33587	4042.0875
1630.63757	4181.7875
1633.93707	4453.8875
1637.23439	4937.6875
1640.52951	5778.4875
1643.82246	7141.0875
1647.11321	8792.9875
1650.40179	9859.8875
1653.68819	9401.5875
1656.97241	7747.0875
1660.25446	6048.4875
1663.53433	4917.6875
1666.81203	4250.2875
1670.08756	3876.9875
1673.36092	3659.8875
1676.63211	3511.6875
1679.90115	3417.3875
1683.16801	3346.5875
1686.43272	3301.9875
1689.69527	3268.2875
1692.95567	3231.7875
1696.2139	3229.7875
1699.46999	3218.3875
1702.72392	3196.1875
1705.97571	3168.1875
1709.22535	3151.4875
1712.47284	3150.5875
1715.71819	3137.7875
1718.96139	3095.4875
1722.20246	3090.4875
1725.44139	3042.7875
1728.67818	3021.8875
1731.91284	2981.8875
1735.14537	2958.0875
1738.37576	2952.8875
1741.60403	2949.0875
1744.83017	2934.3875
1748.05418	2921.2875
1751.27607	2918.9875
1754.49584	2925.5875
1757.71349	2911.3875
1760.92903	2877.3875
1764.14244	2885.4875
1767.35375	2839.3875
1770.56294	2828.1875
1773.77002	2793.1875
1776.97499	2782.5875
1780.17785	2751.0875
1783.37861	2733.4875
1786.57727	2719.5875
1789.77382	2728.7875
1792.96828	2694.9875
1796.16064	2677.6875
1799.3509	2682.0875
1802.53907	2672.6875
1805.72514	2663.1875
1808.90913	2656.1875
1812.09102	2616.5875
1815.27083	2616.2875
1818.44856	2610.0875
1821.6242	2605.3875
1824.79776	2608.7875
1827.96924	2585.6875
1831.13864	2580.9875
1834.30597	2581.1875
1837.47122	2569.1875
1840.6344	2556.0875
1843.7955	2547.5875
1846.95454	2542.6875
1850.11151	2538.8875
1853.26642	2538.0875
1856.41926	2530.7875
1859.57004	2534.3875
1862.71876	2534.6875
1865.86542	2530.0875
1869.01003	2532.3875
1872.15258	2526.8875
1875.29308	2535.1875
1878.43152	2515.6875
1881.56792	2525.1875
1884.70227	2523.5875
1887.83457	2513.3875
1890.96482	2510.7875
1894.09304	2497.9875
1897.21921	2501.8875
1900.34335	2505.1875
1903.46544	2500.8875
1906.58551	2495.6875
1909.70353	2501.6875
1912.81953	2490.0875
1915.93349	2493.3875
1919.04543	2472.5875
1922.15534	2473.7875
1925.26322	2456.9875
1928.36908	2459.4875
1931.47292	2450.3875
1934.57473	2424.8875
1937.67453	2416.2875
1940.77232	2405.6875
1943.86808	2397.7875
1946.96184	2393.1875
1950.05358	2383.1875
1953.14331	2384.3875
1956.23103	2383.1875
1959.31675	2371.9875
1962.40046	2362.4875
1965.48217	2364.2875
1968.56188	2358.4875
1971.63959	2371.4875
1974.7153	2349.9875
1977.78901	2338.0875
1980.86073	2340.8875
1983.93046	2316.7875
1986.99819	2311.6875
1990.06394	2291.1875
1993.1277	2279.3875
1996.18947	2263.4875
1999.24925	2264.1875
2002.30706	2248.2875
2005.36288	2238.7875
2008.41672	2236.7875
2011.46859	2225.9875
2014.51848	2226.5875
2017.56639	2218.8875
2020.61233	2221.7875
2023.6563	2206.2875
2026.6983	2194.7875
2029.73833	2196.5875
2032.7764	2184.2875
2035.8125	2180.4875
2038.84664	2178.4875
2041.87881	2168.3875
2044.90903	2171.0875
2047.93729	2166.9875
2050.96359	2165.0875
2053.98794	2143.9875
2057.01034	2153.8875
2060.03078	2141.4875
2063.04927	2140.1875
2066.06582	2132.9875
2069.08042	2134.5875
2072.09307	2126.1875
2075.10378	2146.1875
2078.11255	2111.5875
2081.11938	2125.0875
2084.12426	2123.9875
2087.12722	2117.0875
2090.12824	2121.7875
2093.12732	2127.8875
2096.12447	2118.7875
2099.11969	2120.3875
2102.11299	2117.7875
2105.10435	2119.7875
2108.09379	2126.1875
2111.08131	2122.4875
2114.0669	2126.2875
2117.05057	2137.8875
2120.03233	2141.7875
2123.01216	2143.6875
2125.99008	2152.1875
2128.96609	2146.2875
2131.94018	2142.7875
2134.91236	2149.7875
2137.88263	2146.2875
2140.851	2144.2875
2143.81746	2136.6875
2146.78201	2135.2875
2149.74466	2134.6875
2152.7054	2127.2875
2155.66425	2115.2875
2158.6212	2115.8875
2161.57625	2120.5875
2164.52941	2116.8875
2167.48067	2113.7875
2170.43004	2103.8875
2173.37752	2098.0875
2176.32311	2115.1875
2179.26681	2109.3875
2182.20863	2112.9875
2185.14856	2103.2875
2188.08661	2107.4875
2191.02278	2109.2875
2193.95707	2112.0875
2196.88948	2094.3875
2199.82001	2104.2875
2202.74867	2096.4875
2205.67545	2094.4875
2208.60037	2079.8875
2211.52341	2081.0875
2214.44458	2082.2875
2217.36388	2070.6875
2220.28132	2075.8875
2223.1969	2066.2875
2226.11061	2058.2875
2229.02246	2048.7875
2231.93245	2038.1875
2234.84058	2044.4875
2237.74686	2035.1875
2240.65128	2049.5875
2243.55385	2051.6875
2246.45456	2041.0875
2249.35343	2049.4875
2252.25044	2042.5875
2255.14561	2052.4875
2258.03893	2059.6875
2260.93041	2057.7875
2263.82004	2048.6875
2266.70783	2045.7875
2269.59378	2035.6875
2272.4779	2035.8875
2275.36017	2020.3875
2278.24061	2030.8875
2281.11922	2018.7875
2283.996	2019.2875
2286.87094	2005.8875
2289.74405	1998.2875
2292.61534	1996.6875
2295.4848	1986.3875
2298.35243	1967.8875
2301.21824	1974.4875
2304.08223	1980.5875
2306.94439	1985.2875
2309.80474	1974.4875
2312.66327	1967.3875
2315.51999	1970.1875
2318.37489	1956.9875
2321.22797	1957.8875
2324.07925	1959.6875
2326.92871	1963.0875
2329.77637	1972.3875
2332.62222	1966.1875
2335.46626	1958.1875
2338.3085	1948.6875
2341.14893	1952.2875
2343.98756	1948.9875
2346.8244	1959.3875
2349.65943	1963.5875
2352.49267	1955.4875
2355.32411	1975.3875
2358.15376	1980.8875
2360.98161	1982.8875
2363.80768	1984.7875
2366.63195	1998.4875
2369.45444	1993.4875
2372.27514	1992.0875
2375.09405	1997.2875
2377.91118	1982.2875
2380.72652	1976.3875
2383.54009	1967.6875
2386.35187	1959.9875
2389.16188	1933.7875
2391.97011	1916.5875
2394.77657	1912.7875
2397.58125	1918.4875
2400.38416	1915.2875
2403.18529	1913.5875
2405.98466	1895.7875
2408.78226	1899.7875
2411.57809	1890.3875
2414.37216	1883.0875
2417.16446	1876.2875
2419.955	1878.2875
2422.74378	1880.8875
2425.5308	1889.8875
2428.31606	1890.3875
2431.09956	1876.7875
2433.88131	1884.6875
2436.6613	1905.5875
2439.43954	1885.3875
2442.21603	1886.2875
2444.99077	1882.4875
2447.76377	1885.0875
2450.53501	1888.8875
2453.30451	1883.7875
2456.07226	1893.5875
2458.83827	1888.5875
2461.60254	1888.1875
2464.36507	1893.9875
2467.12586	1885.5875
2469.88492	1880.9875
2472.64224	1888.0875
2475.39782	1884.6875
2478.15167	1898.2875
2480.90379	1896.8875
2483.65417	1912.0875
2486.40283	1916.2875
2489.14976	1930.9875
2491.89497	1929.8875
2494.63845	1937.3875
2497.3802	1926.4875
2500.12024	1918.4875
2502.85855	1906.3875
2505.59514	1904.7875
2508.33002	1882.4875
2511.06318	1871.6875
2513.79462	1864.6875
2516.52435	1838.0875
2519.25237	1837.3875
2521.97867	1826.9875
2524.70327	1822.1875
2527.42616	1815.8875
2530.14734	1806.0875
2532.86681	1806.4875
2535.58458	1813.3875
2538.30065	1804.7875
2541.01501	1815.4875
2543.72768	1814.4875
2546.43864	1817.8875
2549.14791	1819.1875
2551.85548	1809.0875
2554.56136	1805.7875
2557.26554	1804.9875
2559.96803	1807.6875
2562.66883	1810.5875
2565.36794	1803.6875
2568.06536	1782.5875
2570.7611	1796.0875
2573.45514	1775.3875
2576.14751	1779.1875
2578.83819	1776.2875
2581.52719	1772.6875
2584.21451	1768.6875
2586.90015	1760.8875
2589.58411	1766.1875
2592.2664	1775.2875
2594.94701	1757.9875
2597.62594	1761.5875
2600.30321	1756.8875
2602.9788	1758.0875
2605.65273	1756.5875
2608.32498	1754.2875
2610.99557	1752.1875
2613.66449	1756.5875
2616.33175	1751.2875
2618.99734	1751.3875
2621.66128	1743.6875
2624.32355	1746.3875
2626.98416	1742.5875
2629.64311	1731.8875
2632.30041	1733.3875
2634.95605	1726.0875
2637.61004	1729.3875
2640.26238	1717.3875
2642.91306	1718.2875
2645.56209	1723.7875
2648.20948	1708.8875
2650.85521	1706.6875
2653.4993	1716.3875
2656.14175	1716.2875
2658.78255	1725.8875
2661.42171	1715.4875
2664.05923	1713.4875
2666.6951	1727.0875
2669.32934	1740.4875
2671.96194	1736.7875
2674.59291	1731.8875
2677.22224	1732.8875
2679.84993	1732.2875
2682.476	1735.2875
2685.10043	1720.4875
2687.72324	1717.0875
2690.34441	1723.5875
2692.96396	1724.0875
2695.58188	1723.9875
2698.19818	1715.4875
2700.81285	1712.6875
2703.4259	1726.9875
2706.03733	1724.9875
2708.64714	1717.4875
2711.25533	1725.5875
2713.86191	1715.1875
2716.46687	1725.1875
2719.07021	1718.6875
2721.67194	1724.3875
2724.27206	1731.8875
2726.87057	1736.1875
2729.46747	1724.9875
2732.06276	1725.6875
2734.65644	1716.6875
2737.24852	1719.0875
2739.83899	1704.1875
2742.42786	1703.3875
2745.01513	1688.4875
2747.60079	1690.9875
2750.18486	1689.3875
2752.76733	1688.8875
2755.3482	1682.6875
2757.92747	1685.4875
2760.50515	1685.0875
2763.08123	1677.6875
2765.65573	1666.1875
2768.22863	1665.0875
2770.79994	1660.2875
2773.36967	1668.7875
2775.9378	1666.3875
2778.50435	1667.0875
2781.06932	1658.1875
2783.6327	1674.6875
2786.1945	1665.3875
2788.75471	1671.3875
2791.31335	1661.1875
2793.87041	1669.7875
2796.42589	1669.3875
2798.97979	1678.6875
2801.53212	1669.7875
2804.08288	1674.1875
2806.63206	1673.9875
2809.17967	1676.3875
2811.72571	1677.5875
2814.27018	1684.1875
2816.81308	1678.3875
2819.35442	1676.5875
2821.89419	1691.1875
2824.43239	1687.1875
2826.96904	1696.0875
2829.50412	1692.0875
2832.03763	1692.8875
2834.56959	1692.8875
2837.1	1693.2875
2839.62884	1697.3875
2842.15613	1693.2875
2844.68186	1697.6875
2847.20604	1702.2875
2849.72867	1701.7875
2852.24974	1712.7875
2854.76927	1717.5875
2857.28724	1723.6875
2859.80367	1732.6875
2862.31855	1729.0875
2864.83189	1744.1875
2867.34368	1761.7875
2869.85393	1766.0875
2872.36264	1765.4875
2874.8698	1786.2875
2877.37543	1783.7875
2879.87952	1788.5875
2882.38207	1780.6875
2884.88308	1778.5875
2887.38256	1805.1875
2889.88051	1791.3875
2892.37692	1796.2875
2894.8718	1803.1875
2897.36515	1802.2875
2899.85698	1812.0875
2902.34727	1816.7875
2904.83604	1819.9875
2907.32328	1820.4875
2909.809	1828.2875
2912.29319	1831.3875
2914.77587	1839.6875
2917.25702	1836.8875
2919.73665	1835.1875
2922.21476	1844.3875
2924.69136	1830.8875
2927.16644	1837.6875
2929.64	1839.7875
2932.11205	1832.7875
2934.58258	1825.2875
2937.05161	1829.2875
2939.51912	1840.0875
2941.98513	1826.5875
2944.44962	1830.6875
2946.91261	1808.2875
2949.37409	1815.5875
2951.83407	1806.8875
2954.29254	1814.0875
2956.74951	1785.4875
2959.20498	1784.5875
2961.65895	1775.1875
2964.11142	1765.1875
2966.56239	1768.4875
2969.01186	1749.1875
2971.45984	1744.8875
2973.90632	1738.1875
2976.35131	1732.9875
2978.7948	1719.0875
2981.23681	1719.8875
2983.67732	1712.5875
2986.11635	1713.2875
2988.55388	1698.0875
2990.98993	1688.0875
2993.4245	1692.5875
2995.85758	1693.2875
2998.28917	1681.8875
3000.71928	1680.9875
3003.14791	1683.8875
3005.57506	1679.7875
3008.00073	1691.2875
3010.42493	1647.1875
3012.84764	1677.5875
3015.26888	1668.2875
3017.68865	1676.3875
3020.10694	1680.6875
3022.52376	1670.6875
3024.9391	1673.3875
3027.35298	1657.5875
3029.76539	1667.0875
3032.17632	1659.1875
3034.5858	1646.0875
3036.9938	1654.5875
3039.40034	1650.5875
3041.80542	1652.0875
3044.20903	1645.2875
3046.61118	1643.9875
3049.01187	1643.6875
3051.4111	1644.6875
3053.80888	1638.7875
3056.20519	1636.7875
3058.60005	1649.0875
3060.99345	1640.8875
3063.3854	1647.8875
3065.7759	1638.3875
3068.16494	1636.4875
3070.55254	1630.4875
3072.93868	1624.6875
3075.32338	1623.8875
3077.70662	1625.1875
3080.08842	1625.9875
3082.46878	1629.1875
3084.84769	1628.2875
3087.22515	1636.6875
3089.60118	1636.2875
3091.97576	1646.3875
3094.3489	1635.8875
3096.72061	1650.5875
3099.09087	1654.6875
3101.4597	1654.9875
3103.82709	1661.8875
3106.19305	1665.9875
3108.55757	1676.7875
3110.92066	1676.5875
3113.28232	1689.5875
3115.64255	1690.7875
3118.00134	1698.8875
3120.35871	1694.8875
3122.71466	1698.6875
3125.06917	1697.5875
3127.42226	1701.0875
3129.77393	1700.5875
3132.12417	1710.6875
3134.47299	1721.0875
3136.82039	1723.9875
3139.16636	1731.9875
3141.51092	1731.9875
3143.85406	1746.6875
3146.19579	1753.3875
3148.53609	1751.2875
3150.87499	1758.7875
3153.21246	1768.9875
3155.54853	1784.6875
3157.88318	1785.3875
3160.21642	1804.4875
3162.54826	1794.3875
3164.87868	1821.9875
3167.2077	1817.9875
3169.5353	1830.2875
3171.86151	1830.3875
3174.18631	1842.7875
3176.5097	1835.8875
3178.83169	1844.2875
3181.15228	1848.6875
3183.47147	1855.4875
3185.78926	1855.3875
3188.10565	1853.5875
3190.42065	1862.8875
3192.73424	1876.0875
3195.04645	1868.2875
3197.35725	1875.1875
3199.66667	1883.2875
3201.97469	1891.5875
3204.28132	1892.2875
3206.58656	1905.4875
3208.8904	1913.9875
3211.19287	1916.9875
3213.49394	1921.9875
3215.79363	1940.3875
3218.09193	1939.3875
3220.38884	1941.5875
3222.68438	1961.3875
3224.97853	1958.8875
3227.2713	1969.0875
3229.56269	1968.1875
3231.8527	1969.3875
3234.14133	1966.3875
3236.42858	1955.9875
3238.71446	1956.2875
3240.99896	1956.0875
3243.28209	1960.8875
3245.56384	1958.5875
3247.84423	1968.3875
3250.12324	1963.3875
3252.40088	1961.0875
3254.67715	1959.5875
3256.95205	1962.7875
3259.22558	1981.4875
3261.49775	1975.4875
3263.76855	1977.8875
3266.03799	1989.6875
3268.30606	1987.8875
3270.57277	1991.1875
3272.83812	1999.9875
3275.10211	1996.8875
3277.36474	1991.9875
3279.62601	1980.7875
3281.88593	1988.1875
3284.14448	1986.5875
3286.40168	1984.9875
3288.65753	1997.1875
3290.91202	1992.0875
3293.16516	1992.0875
3295.41695	1991.1875
3297.66738	1983.3875
3299.91647	1987.0875
3302.16421	1961.7875
3304.4106	1955.2875
3306.65564	1952.5875
3308.89933	1940.7875
3311.14169	1922.3875
3313.38269	1901.2875
3315.62236	1903.6875
3317.86068	1878.5875
3320.09766	1866.9875
3322.3333	1852.6875
3324.5676	1857.7875
3326.80056	1814.4875
3329.03219	1808.8875
3331.26248	2.9875
3333.49143	1.7875
3335.71905	1.1875
