Data from AgNPs_UA_5uM_CRN_500uM_AS_RamanShift__0__12-57-33-829.txt Node

Date: Wed Aug 17 12:57:33 BST 2022
User: TCL
Spectrometer: QEP01345
Trigger mode: 4
Integration Time (sec): 7.000000E0
Scans to average: 10
Electric dark correction enabled: true
Nonlinearity correction enabled: false
Boxcar width: 0
XAxis mode: Raman Shifts
Number of Pixels in Spectrum: 1044
>>>>>Begin Spectral Data<<<<<
46.04893	1.1125
50.45542	-0.4875
54.85868	0.3125
59.25871	-0.1875
63.6555	48.6125
68.04907	51.8125
72.43941	57.8125
76.82654	59.7125
81.21044	65.8125
85.59113	68.1125
89.96862	71.2125
94.34289	74.3125
98.71396	75.6125
103.08183	78.6125
107.4465	78.0125
111.80798	80.4125
116.16626	80.7125
120.52136	83.8125
124.87327	83.8125
129.222	88.1125
133.56755	92.0125
137.90993	95.3125
142.24913	101.4125
146.58517	112.6125
150.91804	113.4125
155.24774	133.7125
159.57429	158.5125
163.89768	191.5125
168.21792	235.0125
172.53501	310.5125
176.84895	414.8125
181.15975	574.6125
185.46741	798.1125
189.77193	1120.1125
194.07331	1539.3125
198.37157	2045.3125
202.6667	2572.4125
206.9587	3177.9125
211.24758	3783.9125
215.53334	4411.1125
219.81599	5134.0125
224.09553	5947.4125
228.37195	6890.2125
232.64527	7980.4125
236.91549	9181.7125
241.18261	10344.3125
245.44663	11263.5125
249.70755	11812.6125
253.96539	12046.7125
258.22014	11952.8125
262.4718	11621.4125
266.72039	11136.8125
270.96589	10628.1125
275.20832	9961.9125
279.44768	9278.0125
283.68397	8590.3125
287.91719	7955.1125
292.14735	7355.3125
296.37445	6835.9125
300.59849	6393.4125
304.81948	6030.9125
309.03742	5732.8125
313.25231	5515.4125
317.46415	5326.6125
321.67296	5198.8125
325.87872	5088.5125
330.08145	4998.3125
334.28114	4927.2125
338.47781	4874.9125
342.67145	4833.4125
346.86207	4793.3125
351.04966	4746.4125
355.23424	4668.0125
359.4158	4628.8125
363.59435	4545.0125
367.76989	4511.6125
371.94243	4440.3125
376.11196	4378.7125
380.27849	4341.2125
384.44203	4279.2125
388.60257	4236.2125
392.76012	4202.3125
396.91468	4173.6125
401.06626	4123.8125
405.21485	4112.3125
409.36047	4072.2125
413.50311	4055.6125
417.64277	4040.3125
421.77947	4036.7125
425.9132	4033.4125
430.04396	4027.6125
434.17176	4048.1125
438.2966	4049.7125
442.41849	4042.8125
446.53742	4065.0125
450.6534	4060.7125
454.76644	4072.6125
458.87653	4080.1125
462.98368	4087.8125
467.08789	4077.0125
471.18916	4073.3125
475.2875	4073.7125
479.38291	4084.0125
483.4754	4062.8125
487.56496	4047.9125
491.6516	4069.0125
495.73531	4061.0125
499.81612	4057.8125
503.89401	4056.1125
507.96899	4036.8125
512.04106	4008.1125
516.11023	4004.8125
520.1765	3994.0125
524.23987	3994.8125
528.30034	3998.6125
532.35792	3984.8125
536.41261	3996.1125
540.46441	4003.6125
544.51333	4002.6125
548.55936	4025.4125
552.60252	4016.5125
556.64279	4041.7125
560.6802	4039.6125
564.71473	4056.7125
568.7464	4061.1125
572.7752	4063.6125
576.80114	4082.5125
580.82422	4060.4125
584.84444	4062.4125
588.86181	4082.8125
592.87633	4102.7125
596.888	4190.7125
600.89682	4310.3125
604.9028	4477.2125
608.90594	4664.3125
612.90624	4838.3125
616.90371	4944.9125
620.89834	4933.4125
624.89015	4870.2125
628.87913	4722.5125
632.86528	4526.0125
636.84862	4400.1125
640.82913	4298.1125
644.80683	4253.8125
648.78172	4276.2125
652.75379	4293.1125
656.72306	4328.2125
660.68952	4374.0125
664.65319	4457.4125
668.61405	4636.0125
672.57211	4918.6125
676.52738	5320.1125
680.47986	5730.8125
684.42955	6092.9125
688.37646	6264.2125
692.32058	6245.0125
696.26192	6089.7125
700.20048	5956.0125
704.13626	5792.9125
708.06928	5610.9125
711.99952	5418.3125
715.927	5214.6125
719.85171	5063.6125
723.77365	4946.1125
727.69284	4879.0125
731.60928	4820.9125
735.52295	4747.0125
739.43388	4672.4125
743.34206	4627.5125
747.24749	4602.8125
751.15017	4573.8125
755.05012	4567.3125
758.94733	4577.8125
762.8418	4567.2125
766.73354	4581.7125
770.62254	4571.1125
774.50882	4570.8125
778.39237	4548.0125
782.27321	4514.0125
786.15132	4537.4125
790.02671	4511.9125
793.89938	4531.8125
797.76935	4530.0125
801.6366	4557.2125
805.50115	4555.6125
809.36299	4577.8125
813.22213	4565.3125
817.07857	4585.5125
820.93231	4598.9125
824.78336	4627.2125
828.63172	4641.4125
832.47738	4645.6125
836.32036	4635.1125
840.16066	4647.3125
843.99827	4649.0125
847.8332	4673.4125
851.66546	4694.4125
855.49504	4696.4125
859.32195	4727.2125
863.1462	4781.1125
866.96777	4810.4125
870.78668	4871.4125
874.60293	4912.8125
878.41652	4983.0125
882.22745	5034.0125
886.03573	5055.9125
889.84136	5107.4125
893.64433	5164.6125
897.44466	5237.9125
901.24235	5317.5125
905.0374	5440.7125
908.8298	5529.4125
912.61957	5637.4125
916.40671	5687.0125
920.19121	5727.5125
923.97308	5750.1125
927.75233	5726.8125
931.52895	5672.5125
935.30295	5606.1125
939.07433	5525.8125
942.84309	5438.9125
946.60924	5390.7125
950.37278	5311.6125
954.13371	5263.2125
957.89203	5252.0125
961.64774	5221.8125
965.40086	5196.8125
969.15137	5148.6125
972.89929	5103.0125
976.64461	5042.7125
980.38733	4995.3125
984.12747	4949.0125
987.86502	4926.7125
991.59999	4910.0125
995.33237	4895.2125
999.06217	4906.8125
1002.78939	4903.4125
1006.51404	4916.2125
1010.23611	4909.0125
1013.95561	4939.9125
1017.67255	4951.3125
1021.38692	4959.4125
1025.09872	4978.4125
1028.80796	4986.0125
1032.51465	5052.3125
1036.21877	5151.4125
1039.92035	5264.5125
1043.61937	5458.8125
1047.31584	5712.3125
1051.00976	5915.9125
1054.70114	6006.7125
1058.38998	5929.8125
1062.07627	5755.9125
1065.76003	5499.0125
1069.44126	5291.2125
1073.11995	5115.0125
1076.79611	5013.9125
1080.46974	4924.1125
1084.14085	4876.0125
1087.80943	4833.8125
1091.47549	4827.1125
1095.13903	4809.2125
1098.80005	4802.5125
1102.45857	4800.3125
1106.11456	4766.3125
1109.76805	4774.7125
1113.41903	4794.9125
1117.06751	4786.0125
1120.71348	4794.0125
1124.35696	4794.5125
1127.99793	4808.3125
1131.63641	4816.3125
1135.2724	4826.9125
1138.90589	4814.7125
1142.5369	4825.3125
1146.16542	4814.9125
1149.79145	4802.3125
1153.415	4808.6125
1157.03607	4780.8125
1160.65467	4809.9125
1164.27079	4817.8125
1167.88443	4816.1125
1171.49561	4824.8125
1175.10432	4838.3125
1178.71056	4843.8125
1182.31434	4869.0125
1185.91565	4872.5125
1189.51451	4891.2125
1193.11091	4900.0125
1196.70485	4887.1125
1200.29634	4882.2125
1203.88538	4876.0125
1207.47197	4855.9125
1211.05612	4860.5125
1214.63782	4873.5125
1218.21708	4862.6125
1221.79391	4885.7125
1225.36829	4904.5125
1228.94024	4919.4125
1232.50976	4947.5125
1236.07685	4968.3125
1239.6415	5039.7125
1243.20374	5066.5125
1246.76355	5107.7125
1250.32093	5162.9125
1253.8759	5199.5125
1257.42845	5256.1125
1260.97859	5265.4125
1264.52631	5267.6125
1268.07163	5297.7125
1271.61453	5310.5125
1275.15503	5334.0125
1278.69312	5359.3125
1282.22882	5360.9125
1285.76211	5415.1125
1289.29301	5450.2125
1292.82151	5472.0125
1296.34761	5525.5125
1299.87133	5532.5125
1303.39266	5581.9125
1306.9116	5603.4125
1310.42815	5638.5125
1313.94233	5657.7125
1317.45412	5662.6125
1320.96354	5677.2125
1324.47058	5665.8125
1327.97525	5663.9125
1331.47754	5667.2125
1334.97747	5667.6125
1338.47502	5670.0125
1341.97022	5666.4125
1345.46305	5704.6125
1348.95352	5753.6125
1352.44163	5776.0125
1355.92738	5827.1125
1359.41078	5855.0125
1362.89183	5914.3125
1366.37053	5917.3125
1369.84688	5941.9125
1373.32088	5923.8125
1376.79254	5920.5125
1380.26186	5917.6125
1383.72883	5911.0125
1387.19347	5896.6125
1390.65578	5874.7125
1394.11575	5873.6125
1397.57339	5885.0125
1401.0287	5888.8125
1404.48168	5939.9125
1407.93234	5957.8125
1411.38068	5999.3125
1414.82669	6033.5125
1418.27039	6045.0125
1421.71177	6053.7125
1425.15083	6044.8125
1428.58758	6040.4125
1432.02203	6015.3125
1435.45416	5990.3125
1438.88399	5963.7125
1442.31151	5962.4125
1445.73673	5954.3125
1449.15965	5953.6125
1452.58027	5937.1125
1455.9986	5886.4125
1459.41463	5872.8125
1462.82837	5833.6125
1466.23982	5790.9125
1469.64898	5761.2125
1473.05586	5722.6125
1476.46045	5659.7125
1479.86276	5595.2125
1483.26279	5523.1125
1486.66054	5474.5125
1490.05602	5450.0125
1493.44922	5431.8125
1496.84016	5385.6125
1500.22882	5368.2125
1503.61521	5351.4125
1506.99934	5341.2125
1510.38121	5309.4125
1513.76081	5306.4125
1517.13816	5251.5125
1520.51324	5248.2125
1523.88607	5216.5125
1527.25665	5195.7125
1530.62498	5201.8125
1533.99105	5174.3125
1537.35488	5200.9125
1540.71647	5201.1125
1544.07581	5190.5125
1547.4329	5219.9125
1550.78776	5202.4125
1554.14038	5216.4125
1557.49077	5214.2125
1560.83892	5235.7125
1564.18484	5224.3125
1567.52853	5238.5125
1570.86999	5234.6125
1574.20922	5205.2125
1577.54624	5184.1125
1580.88103	5165.2125
1584.2136	5152.3125
1587.54395	5159.7125
1590.87208	5166.5125
1594.19801	5169.0125
1597.52172	5169.3125
1600.84321	5163.0125
1604.16251	5173.8125
1607.47959	5164.1125
1610.79447	5155.4125
1614.10715	5135.5125
1617.41763	5137.6125
1620.7259	5096.8125
1624.03199	5097.1125
1627.33587	5064.3125
1630.63757	5060.7125
1633.93707	5053.7125
1637.23439	5035.1125
1640.52951	5028.0125
1643.82246	5050.1125
1647.11321	5028.9125
1650.40179	5040.8125
1653.68819	5031.7125
1656.97241	5028.6125
1660.25446	5005.0125
1663.53433	4979.2125
1666.81203	4961.0125
1670.08756	4988.5125
1673.36092	4983.3125
1676.63211	5025.5125
1679.90115	5030.2125
1683.16801	5057.7125
1686.43272	5066.7125
1689.69527	5087.0125
1692.95567	5085.1125
1696.2139	5109.4125
1699.46999	5083.5125
1702.72392	5075.9125
1705.97571	5056.8125
1709.22535	5061.5125
1712.47284	5051.6125
1715.71819	5010.1125
1718.96139	4983.5125
1722.20246	4958.4125
1725.44139	4958.0125
1728.67818	4969.3125
1731.91284	4982.1125
1735.14537	5016.1125
1738.37576	5061.3125
1741.60403	5104.5125
1744.83017	5159.8125
1748.05418	5227.5125
1751.27607	5325.6125
1754.49584	5430.1125
1757.71349	5510.8125
1760.92903	5576.5125
1764.14244	5589.2125
1767.35375	5543.5125
1770.56294	5471.6125
1773.77002	5361.9125
1776.97499	5273.3125
1780.17785	5214.5125
1783.37861	5146.1125
1786.57727	5092.9125
1789.77382	5027.6125
1792.96828	4970.6125
1796.16064	4892.3125
1799.3509	4849.6125
1802.53907	4781.5125
1805.72514	4744.1125
1808.90913	4677.4125
1812.09102	4635.9125
1815.27083	4603.8125
1818.44856	4564.6125
1821.6242	4536.9125
1824.79776	4536.6125
1827.96924	4505.2125
1831.13864	4464.5125
1834.30597	4460.5125
1837.47122	4451.4125
1840.6344	4436.0125
1843.7955	4426.0125
1846.95454	4412.0125
1850.11151	4423.2125
1853.26642	4403.8125
1856.41926	4416.9125
1859.57004	4384.6125
1862.71876	4387.3125
1865.86542	4374.3125
1869.01003	4387.1125
1872.15258	4389.4125
1875.29308	4394.3125
1878.43152	4399.5125
1881.56792	4386.3125
1884.70227	4383.4125
1887.83457	4380.0125
1890.96482	4390.0125
1894.09304	4370.9125
1897.21921	4372.8125
1900.34335	4387.0125
1903.46544	4392.0125
1906.58551	4406.6125
1909.70353	4415.5125
1912.81953	4435.0125
1915.93349	4454.5125
1919.04543	4483.9125
1922.15534	4512.0125
1925.26322	4544.6125
1928.36908	4588.5125
1931.47292	4619.3125
1934.57473	4638.6125
1937.67453	4667.2125
1940.77232	4675.4125
1943.86808	4656.3125
1946.96184	4679.5125
1950.05358	4651.2125
1953.14331	4624.4125
1956.23103	4597.4125
1959.31675	4558.1125
1962.40046	4510.3125
1965.48217	4432.3125
1968.56188	4383.3125
1971.63959	4343.8125
1974.7153	4298.5125
1977.78901	4265.5125
1980.86073	4220.8125
1983.93046	4194.4125
1986.99819	4169.6125
1990.06394	4174.6125
1993.1277	4153.6125
1996.18947	4133.3125
1999.24925	4134.9125
2002.30706	4119.4125
2005.36288	4115.6125
2008.41672	4103.3125
2011.46859	4080.0125
2014.51848	4073.2125
2017.56639	4078.0125
2020.61233	4077.3125
2023.6563	4076.1125
2026.6983	4051.0125
2029.73833	4045.4125
2032.7764	4051.2125
2035.8125	4016.0125
2038.84664	4029.2125
2041.87881	4018.8125
2044.90903	4031.6125
2047.93729	4034.4125
2050.96359	4036.4125
2053.98794	4041.2125
2057.01034	4064.3125
2060.03078	4068.1125
2063.04927	4085.4125
2066.06582	4105.3125
2069.08042	4093.4125
2072.09307	4092.5125
2075.10378	4116.6125
2078.11255	4102.9125
2081.11938	4112.5125
2084.12426	4110.4125
2087.12722	4125.0125
2090.12824	4123.6125
2093.12732	4137.3125
2096.12447	4136.9125
2099.11969	4109.6125
2102.11299	4132.2125
2105.10435	4106.3125
2108.09379	4088.4125
2111.08131	4076.5125
2114.0669	4077.4125
2117.05057	4072.9125
2120.03233	4060.7125
2123.01216	4056.9125
2125.99008	4065.4125
2128.96609	4054.3125
2131.94018	4056.7125
2134.91236	4032.2125
2137.88263	4039.4125
2140.851	4029.6125
2143.81746	4032.8125
2146.78201	4029.9125
2149.74466	4022.2125
2152.7054	4021.1125
2155.66425	4032.5125
2158.6212	4025.2125
2161.57625	4016.2125
2164.52941	4002.0125
2167.48067	4002.7125
2170.43004	3996.0125
2173.37752	3981.3125
2176.32311	3977.3125
2179.26681	3982.1125
2182.20863	3978.0125
2185.14856	3982.0125
2188.08661	3983.0125
2191.02278	3984.5125
2193.95707	3977.3125
2196.88948	3967.3125
2199.82001	3970.0125
2202.74867	3978.4125
2205.67545	3969.7125
2208.60037	3954.1125
2211.52341	3959.2125
2214.44458	3951.1125
2217.36388	3940.9125
2220.28132	3931.7125
2223.1969	3905.4125
2226.11061	3909.0125
2229.02246	3904.2125
2231.93245	3912.9125
2234.84058	3891.9125
2237.74686	3882.0125
2240.65128	3879.6125
2243.55385	3858.2125
2246.45456	3885.8125
2249.35343	3883.2125
2252.25044	3864.0125
2255.14561	3855.5125
2258.03893	3859.9125
2260.93041	3837.1125
2263.82004	3840.4125
2266.70783	3831.5125
2269.59378	3809.0125
2272.4779	3807.0125
2275.36017	3809.1125
2278.24061	3782.9125
2281.11922	3790.1125
2283.996	3772.4125
2286.87094	3775.1125
2289.74405	3759.6125
2292.61534	3763.4125
2295.4848	3763.8125
2298.35243	3772.2125
2301.21824	3746.5125
2304.08223	3758.7125
2306.94439	3759.1125
2309.80474	3756.4125
2312.66327	3731.9125
2315.51999	3739.0125
2318.37489	3737.9125
2321.22797	3724.1125
2324.07925	3707.1125
2326.92871	3705.1125
2329.77637	3714.6125
2332.62222	3710.7125
2335.46626	3702.3125
2338.3085	3694.1125
2341.14893	3690.4125
2343.98756	3682.5125
2346.8244	3680.0125
2349.65943	3671.5125
2352.49267	3663.7125
2355.32411	3672.5125
2358.15376	3671.4125
2360.98161	3663.5125
2363.80768	3665.2125
2366.63195	3671.6125
2369.45444	3661.3125
2372.27514	3656.3125
2375.09405	3656.5125
2377.91118	3660.6125
2380.72652	3640.4125
2383.54009	3644.0125
2386.35187	3639.6125
2389.16188	3635.3125
2391.97011	3605.1125
2394.77657	3601.6125
2397.58125	3611.8125
2400.38416	3585.7125
2403.18529	3591.5125
2405.98466	3586.3125
2408.78226	3581.1125
2411.57809	3584.9125
2414.37216	3575.9125
2417.16446	3582.4125
2419.955	3559.4125
2422.74378	3561.3125
2425.5308	3560.8125
2428.31606	3546.3125
2431.09956	3562.2125
2433.88131	3547.0125
2436.6613	3543.3125
2439.43954	3549.8125
2442.21603	3531.8125
2444.99077	3543.1125
2447.76377	3524.9125
2450.53501	3528.6125
2453.30451	3517.2125
2456.07226	3506.0125
2458.83827	3512.9125
2461.60254	3518.6125
2464.36507	3499.0125
2467.12586	3498.8125
2469.88492	3489.5125
2472.64224	3490.9125
2475.39782	3510.4125
2478.15167	3490.4125
2480.90379	3491.9125
2483.65417	3475.7125
2486.40283	3476.4125
2489.14976	3491.3125
2491.89497	3464.4125
2494.63845	3483.3125
2497.3802	3468.7125
2500.12024	3471.5125
2502.85855	3466.5125
2505.59514	3456.7125
2508.33002	3452.9125
2511.06318	3439.2125
2513.79462	3440.5125
2516.52435	3436.3125
2519.25237	3434.7125
2521.97867	3423.2125
2524.70327	3432.3125
2527.42616	3435.1125
2530.14734	3422.5125
2532.86681	3426.5125
2535.58458	3425.8125
2538.30065	3414.3125
2541.01501	3404.0125
2543.72768	3404.7125
2546.43864	3398.1125
2549.14791	3395.1125
2551.85548	3390.9125
2554.56136	3382.2125
2557.26554	3369.7125
2559.96803	3378.4125
2562.66883	3359.3125
2565.36794	3359.5125
2568.06536	3351.2125
2570.7611	3337.2125
2573.45514	3351.1125
2576.14751	3330.2125
2578.83819	3330.3125
2581.52719	3330.5125
2584.21451	3326.9125
2586.90015	3332.5125
2589.58411	3316.2125
2592.2664	3321.3125
2594.94701	3304.8125
2597.62594	3318.0125
2600.30321	3292.5125
2602.9788	3292.8125
2605.65273	3279.9125
2608.32498	3278.6125
2610.99557	3278.5125
2613.66449	3271.0125
2616.33175	3258.9125
2618.99734	3248.2125
2621.66128	3258.0125
2624.32355	3250.0125
2626.98416	3255.9125
2629.64311	3227.8125
2632.30041	3238.3125
2634.95605	3225.5125
2637.61004	3227.5125
2640.26238	3227.7125
2642.91306	3232.7125
2645.56209	3215.6125
2648.20948	3218.3125
2650.85521	3219.9125
2653.4993	3230.8125
2656.14175	3204.7125
2658.78255	3203.3125
2661.42171	3208.8125
2664.05923	3206.9125
2666.6951	3215.4125
2669.32934	3212.7125
2671.96194	3205.8125
2674.59291	3213.7125
2677.22224	3208.9125
2679.84993	3206.1125
2682.476	3210.4125
2685.10043	3200.8125
2687.72324	3171.8125
2690.34441	3188.0125
2692.96396	3191.5125
2695.58188	3203.9125
2698.19818	3174.1125
2700.81285	3193.8125
2703.4259	3187.2125
2706.03733	3189.1125
2708.64714	3193.3125
2711.25533	3198.0125
2713.86191	3176.6125
2716.46687	3192.4125
2719.07021	3182.6125
2721.67194	3196.1125
2724.27206	3182.1125
2726.87057	3194.1125
2729.46747	3193.1125
2732.06276	3199.6125
2734.65644	3185.2125
2737.24852	3197.2125
2739.83899	3171.1125
2742.42786	3175.1125
2745.01513	3160.1125
2747.60079	3160.1125
2750.18486	3156.8125
2752.76733	3166.0125
2755.3482	3152.7125
2757.92747	3152.0125
2760.50515	3153.7125
2763.08123	3147.1125
2765.65573	3144.2125
2768.22863	3134.2125
2770.79994	3125.0125
2773.36967	3134.5125
2775.9378	3120.9125
2778.50435	3113.8125
2781.06932	3107.5125
2783.6327	3095.6125
2786.1945	3086.7125
2788.75471	3109.9125
2791.31335	3099.5125
2793.87041	3104.6125
2796.42589	3088.4125
2798.97979	3103.1125
2801.53212	3085.3125
2804.08288	3075.0125
2806.63206	3073.8125
2809.17967	3065.6125
2811.72571	3055.7125
2814.27018	3057.0125
2816.81308	3047.1125
2819.35442	3053.2125
2821.89419	3041.9125
2824.43239	3022.6125
2826.96904	3019.1125
2829.50412	3015.9125
2832.03763	3003.9125
2834.56959	3009.9125
2837.1	3007.4125
2839.62884	3013.3125
2842.15613	3019.3125
2844.68186	3020.5125
2847.20604	3026.4125
2849.72867	3011.3125
2852.24974	3005.9125
2854.76927	3018.9125
2857.28724	3003.9125
2859.80367	2992.5125
2862.31855	3002.0125
2864.83189	2985.9125
2867.34368	2972.5125
2869.85393	2991.4125
2872.36264	2971.0125
2874.8698	2991.1125
2877.37543	2987.5125
2879.87952	2986.5125
2882.38207	2979.7125
2884.88308	2985.2125
2887.38256	3005.6125
2889.88051	3002.9125
2892.37692	3009.9125
2894.8718	3015.1125
2897.36515	3015.6125
2899.85698	3023.2125
2902.34727	3038.2125
2904.83604	3045.6125
2907.32328	3053.6125
2909.809	3062.6125
2912.29319	3065.0125
2914.77587	3081.0125
2917.25702	3096.1125
2919.73665	3091.7125
2922.21476	3106.3125
2924.69136	3115.5125
2927.16644	3118.1125
2929.64	3108.4125
2932.11205	3115.4125
2934.58258	3127.6125
2937.05161	3142.4125
2939.51912	3151.3125
2941.98513	3165.2125
2944.44962	3167.8125
2946.91261	3180.1125
2949.37409	3190.4125
2951.83407	3198.3125
2954.29254	3187.8125
2956.74951	3197.2125
2959.20498	3173.9125
2961.65895	3152.7125
2964.11142	3157.3125
2966.56239	3112.9125
2969.01186	3110.3125
2971.45984	3082.8125
2973.90632	3069.6125
2976.35131	3056.9125
2978.7948	3055.2125
2981.23681	3037.3125
2983.67732	3043.5125
2986.11635	3036.5125
2988.55388	3015.1125
2990.98993	3009.8125
2993.4245	2992.6125
2995.85758	2999.2125
2998.28917	2995.3125
3000.71928	2984.9125
3003.14791	2988.0125
3005.57506	2993.1125
3008.00073	2987.7125
3010.42493	2990.0125
3012.84764	2979.7125
3015.26888	2979.7125
3017.68865	2965.1125
3020.10694	2970.1125
3022.52376	2955.6125
3024.9391	2968.2125
3027.35298	2968.3125
3029.76539	2957.8125
3032.17632	2951.5125
3034.5858	2952.6125
3036.9938	2946.8125
3039.40034	2936.1125
3041.80542	2940.9125
3044.20903	2940.1125
3046.61118	2944.2125
3049.01187	2926.4125
3051.4111	2934.1125
3053.80888	2933.8125
3056.20519	2921.2125
3058.60005	2919.5125
3060.99345	2919.9125
3063.3854	2933.8125
3065.7759	2920.1125
3068.16494	2911.0125
3070.55254	2898.8125
3072.93868	2902.0125
3075.32338	2895.4125
3077.70662	2886.7125
3080.08842	2901.0125
3082.46878	2898.3125
3084.84769	2904.9125
3087.22515	2912.7125
3089.60118	2929.6125
3091.97576	2938.4125
3094.3489	2933.8125
3096.72061	2939.4125
3099.09087	2947.0125
3101.4597	2963.8125
3103.82709	2965.1125
3106.19305	2969.8125
3108.55757	2980.2125
3110.92066	2979.2125
3113.28232	2984.3125
3115.64255	2980.8125
3118.00134	2985.4125
3120.35871	2997.3125
3122.71466	2993.7125
3125.06917	2999.5125
3127.42226	2998.7125
3129.77393	3012.7125
3132.12417	2997.8125
3134.47299	3019.7125
3136.82039	3018.5125
3139.16636	3036.6125
3141.51092	3042.0125
3143.85406	3035.1125
3146.19579	3041.6125
3148.53609	3062.6125
3150.87499	3064.1125
3153.21246	3080.2125
3155.54853	3089.1125
3157.88318	3096.5125
3160.21642	3115.0125
3162.54826	3116.0125
3164.87868	3114.3125
3167.2077	3142.5125
3169.5353	3146.2125
3171.86151	3150.0125
3174.18631	3166.2125
3176.5097	3180.3125
3178.83169	3179.8125
3181.15228	3192.6125
3183.47147	3172.5125
3185.78926	3192.4125
3188.10565	3180.9125
3190.42065	3191.9125
3192.73424	3192.7125
3195.04645	3204.3125
3197.35725	3203.0125
3199.66667	3207.0125
3201.97469	3219.6125
3204.28132	3221.9125
3206.58656	3235.1125
3208.8904	3255.4125
3211.19287	3257.1125
3213.49394	3248.0125
3215.79363	3256.9125
3218.09193	3267.6125
3220.38884	3269.7125
3222.68438	3278.5125
3224.97853	3282.0125
3227.2713	3280.6125
3229.56269	3286.7125
3231.8527	3292.8125
3234.14133	3288.1125
3236.42858	3280.6125
3238.71446	3299.2125
3240.99896	3296.6125
3243.28209	3290.7125
3245.56384	3266.6125
3247.84423	3277.4125
3250.12324	3279.3125
3252.40088	3278.7125
3254.67715	3276.9125
3256.95205	3266.1125
3259.22558	3268.3125
3261.49775	3283.4125
3263.76855	3278.9125
3266.03799	3284.1125
3268.30606	3292.7125
3270.57277	3287.8125
3272.83812	3274.8125
3275.10211	3263.7125
3277.36474	3287.6125
3279.62601	3268.8125
3281.88593	3265.5125
3284.14448	3268.4125
3286.40168	3279.3125
3288.65753	3253.6125
3290.91202	3266.1125
3293.16516	3257.5125
3295.41695	3249.7125
3297.66738	3234.2125
3299.91647	3228.3125
3302.16421	3202.9125
3304.4106	3174.3125
3306.65564	3163.7125
3308.89933	3124.0125
3311.14169	3100.4125
3313.38269	3098.6125
3315.62236	3068.2125
3317.86068	3040.3125
3320.09766	3027.3125
3322.3333	2990.9125
3324.5676	2969.3125
3326.80056	2935.9125
3329.03219	2915.1125
3331.26248	1.7125
3333.49143	-1.3875
3335.71905	-1.3875
