Data from AgNPs_UA_5uM_CRN_500uM_AS_RamanShift__8__13-06-53-827.txt Node

Date: Wed Aug 17 13:06:53 BST 2022
User: TCL
Spectrometer: QEP01345
Trigger mode: 4
Integration Time (sec): 7.000000E0
Scans to average: 10
Electric dark correction enabled: true
Nonlinearity correction enabled: false
Boxcar width: 0
XAxis mode: Raman Shifts
Number of Pixels in Spectrum: 1044
>>>>>Begin Spectral Data<<<<<
46.04893	-0.7
50.45542	0.1
54.85868	0.4
59.25871	0.3
63.6555	41.9
68.04907	46.5
72.43941	52.2
76.82654	52
81.21044	57.8
85.59113	60.2
89.96862	62.9
94.34289	66.2
98.71396	68.8
103.08183	69.4
107.4465	72.9
111.80798	74.2
116.16626	71.3
120.52136	74.7
124.87327	68.7
129.222	74.1
133.56755	73.4
137.90993	72.6
142.24913	77.4
146.58517	76.3
150.91804	73.7
155.24774	83.2
159.57429	93.5
163.89768	110
168.21792	123.5
172.53501	152.3
176.84895	193.3
181.15975	248
185.46741	338
189.77193	456.5
194.07331	624.7
198.37157	824.2
202.6667	1034.6
206.9587	1277.2
211.24758	1520.9
215.53334	1770.9
219.81599	2009.6
224.09553	2234.6
228.37195	2452.6
232.64527	2661.2
236.91549	2848.6
241.18261	3031.8
245.44663	3204.7
249.70755	3340.9
253.96539	3418
258.22014	3457.5
262.4718	3414.9
266.72039	3379.9
270.96589	3268.5
275.20832	3127.7
279.44768	2954.4
283.68397	2785.1
287.91719	2632
292.14735	2473.4
296.37445	2354.5
300.59849	2239.6
304.81948	2143.1
309.03742	2072.1
313.25231	2008.7
317.46415	1941
321.67296	1899.7
325.87872	1856.5
330.08145	1824.7
334.28114	1809.4
338.47781	1823.8
342.67145	1842
346.86207	1844.2
351.04966	1850.7
355.23424	1854.9
359.4158	1851.1
363.59435	1831.1
367.76989	1819.6
371.94243	1796.3
376.11196	1790.6
380.27849	1791.6
384.44203	1786.4
388.60257	1777.6
392.76012	1785.9
396.91468	1785.4
401.06626	1788
405.21485	1797.8
409.36047	1807
413.50311	1810.9
417.64277	1816.8
421.77947	1814.7
425.9132	1839.2
430.04396	1840.2
434.17176	1859.9
438.2966	1873.2
442.41849	1899.8
446.53742	1923.8
450.6534	1929.8
454.76644	1945.6
458.87653	1959.3
462.98368	1958.7
467.08789	1961.4
471.18916	1966.2
475.2875	1981.3
479.38291	1960.9
483.4754	1958.5
487.56496	1968.4
491.6516	1967.8
495.73531	1983.4
499.81612	1999.2
503.89401	2016
507.96899	2002.7
512.04106	1985.1
516.11023	1971.1
520.1765	1954.9
524.23987	1941.8
528.30034	1944.5
532.35792	1942.9
536.41261	1942.7
540.46441	1948
544.51333	1948.2
548.55936	1956.1
552.60252	1949.7
556.64279	1965.3
560.6802	1969
564.71473	1987.3
568.7464	2021
572.7752	2060.6
576.80114	2081.9
580.82422	2084.4
584.84444	2066.5
588.86181	2058.8
592.87633	2056.6
596.888	2075.8
600.89682	2107
604.9028	2134.9
608.90594	2184.9
612.90624	2232.6
616.90371	2232.8
620.89834	2192.8
624.89015	2164
628.87913	2150.5
632.86528	2154.1
636.84862	2166.7
640.82913	2186.6
644.80683	2232.7
648.78172	2275.2
652.75379	2299.1
656.72306	2301.8
660.68952	2320.7
664.65319	2390.2
668.61405	2544.6
672.57211	2849.2
676.52738	3257.8
680.47986	3650.7
684.42955	3796.1
688.37646	3643.3
692.32058	3325.8
696.26192	3045.3
700.20048	2856.1
704.13626	2727.7
708.06928	2627.9
711.99952	2525.4
715.927	2438.4
719.85171	2392.1
723.77365	2406.5
727.69284	2430.2
731.60928	2447.4
735.52295	2409.6
739.43388	2371.1
743.34206	2342.2
747.24749	2341.4
751.15017	2373.2
755.05012	2415.3
758.94733	2443.6
762.8418	2453.6
766.73354	2435.9
770.62254	2387.4
774.50882	2334.8
778.39237	2279.8
782.27321	2239.7
786.15132	2215.9
790.02671	2198.8
793.89938	2208.3
797.76935	2214.9
801.6366	2205
805.50115	2216.3
809.36299	2211.8
813.22213	2177.6
817.07857	2164.4
820.93231	2156.1
824.78336	2148.1
828.63172	2158.7
832.47738	2139.2
836.32036	2148.6
840.16066	2150.6
843.99827	2155.5
847.8332	2149
851.66546	2151.2
855.49504	2173.1
859.32195	2191.1
863.1462	2202
866.96777	2230.6
870.78668	2247.5
874.60293	2268.3
878.41652	2272.8
882.22745	2276.3
886.03573	2257.1
889.84136	2258
893.64433	2254.7
897.44466	2255.2
901.24235	2256
905.0374	2270
908.8298	2272
912.61957	2274.8
916.40671	2280.7
920.19121	2303.9
923.97308	2292
927.75233	2309.8
931.52895	2324
935.30295	2307.9
939.07433	2311.4
942.84309	2291.6
946.60924	2257.2
950.37278	2240.4
954.13371	2214.9
957.89203	2211.1
961.64774	2224.9
965.40086	2226.9
969.15137	2215.8
972.89929	2185.9
976.64461	2177.2
980.38733	2155.2
984.12747	2147.4
987.86502	2149.1
991.59999	2143.6
995.33237	2144.4
999.06217	2144.9
1002.78939	2148.1
1006.51404	2142.3
1010.23611	2135.3
1013.95561	2151
1017.67255	2156.7
1021.38692	2174.3
1025.09872	2173.7
1028.80796	2175.4
1032.51465	2198.4
1036.21877	2226.7
1039.92035	2260.6
1043.61937	2309.4
1047.31584	2335.5
1051.00976	2369
1054.70114	2376.7
1058.38998	2351.6
1062.07627	2319.3
1065.76003	2269.4
1069.44126	2245
1073.11995	2190.9
1076.79611	2176.7
1080.46974	2150.4
1084.14085	2139.6
1087.80943	2133.9
1091.47549	2137.4
1095.13903	2134.3
1098.80005	2124.8
1102.45857	2130.5
1106.11456	2124.3
1109.76805	2129.8
1113.41903	2126.7
1117.06751	2132
1120.71348	2153.9
1124.35696	2164.4
1127.99793	2164
1131.63641	2177
1135.2724	2192
1138.90589	2185.6
1142.5369	2188.2
1146.16542	2188.7
1149.79145	2189.8
1153.415	2177.3
1157.03607	2173.4
1160.65467	2177.5
1164.27079	2188.9
1167.88443	2179.4
1171.49561	2190.4
1175.10432	2197
1178.71056	2212.6
1182.31434	2220.4
1185.91565	2218.3
1189.51451	2215.9
1193.11091	2210.6
1196.70485	2204.3
1200.29634	2192.4
1203.88538	2179.3
1207.47197	2184.5
1211.05612	2171.8
1214.63782	2175.9
1218.21708	2183.7
1221.79391	2176.4
1225.36829	2186.7
1228.94024	2203
1232.50976	2240.7
1236.07685	2261.2
1239.6415	2299.2
1243.20374	2325.3
1246.76355	2362.9
1250.32093	2392.4
1253.8759	2412.9
1257.42845	2412
1260.97859	2409.3
1264.52631	2391.3
1268.07163	2371.4
1271.61453	2349.4
1275.15503	2316.1
1278.69312	2306.9
1282.22882	2310.1
1285.76211	2300.5
1289.29301	2306.2
1292.82151	2321.8
1296.34761	2316.5
1299.87133	2327
1303.39266	2346
1306.9116	2348.6
1310.42815	2369.4
1313.94233	2385.4
1317.45412	2379.1
1320.96354	2375.4
1324.47058	2382.5
1327.97525	2381.7
1331.47754	2391.2
1334.97747	2393.7
1338.47502	2414.7
1341.97022	2434.1
1345.46305	2489.6
1348.95352	2518.7
1352.44163	2566.7
1355.92738	2606.5
1359.41078	2660.2
1362.89183	2688.7
1366.37053	2685.5
1369.84688	2657.1
1373.32088	2586.4
1376.79254	2556.3
1380.26186	2501
1383.72883	2472.7
1387.19347	2450.3
1390.65578	2417.7
1394.11575	2393.6
1397.57339	2382.6
1401.0287	2407.2
1404.48168	2440
1407.93234	2474.1
1411.38068	2517.7
1414.82669	2562.6
1418.27039	2570.3
1421.71177	2584.5
1425.15083	2533.5
1428.58758	2477.8
1432.02203	2409.2
1435.45416	2364.5
1438.88399	2354.4
1442.31151	2348.2
1445.73673	2348.3
1449.15965	2364.7
1452.58027	2387.3
1455.9986	2379.5
1459.41463	2409
1462.82837	2396.9
1466.23982	2405.2
1469.64898	2398.2
1473.05586	2371.8
1476.46045	2338
1479.86276	2293
1483.26279	2247.5
1486.66054	2225.9
1490.05602	2206
1493.44922	2207.1
1496.84016	2197.7
1500.22882	2208.9
1503.61521	2232
1506.99934	2248.7
1510.38121	2277.6
1513.76081	2272.6
1517.13816	2258.5
1520.51324	2245.7
1523.88607	2241.3
1527.25665	2224.3
1530.62498	2236.4
1533.99105	2229.5
1537.35488	2247.4
1540.71647	2247.3
1544.07581	2253.5
1547.4329	2265.6
1550.78776	2276.6
1554.14038	2291.8
1557.49077	2296.4
1560.83892	2300.1
1564.18484	2303.4
1567.52853	2303.3
1570.86999	2310.1
1574.20922	2301.2
1577.54624	2305.1
1580.88103	2292.6
1584.2136	2277.4
1587.54395	2284.5
1590.87208	2284.5
1594.19801	2270.5
1597.52172	2289.1
1600.84321	2292.1
1604.16251	2276.7
1607.47959	2268.4
1610.79447	2240.4
1614.10715	2230.5
1617.41763	2202.7
1620.7259	2187.6
1624.03199	2169
1627.33587	2151.4
1630.63757	2160.3
1633.93707	2148.3
1637.23439	2159.7
1640.52951	2152.2
1643.82246	2179.5
1647.11321	2197
1650.40179	2216.6
1653.68819	2220.3
1656.97241	2205
1660.25446	2213.5
1663.53433	2222
1666.81203	2234.3
1670.08756	2253.8
1673.36092	2257.5
1676.63211	2270.6
1679.90115	2275
1683.16801	2272.3
1686.43272	2277.2
1689.69527	2263.8
1692.95567	2259
1696.2139	2256
1699.46999	2262.6
1702.72392	2246.6
1705.97571	2220.7
1709.22535	2205.1
1712.47284	2192.6
1715.71819	2177.9
1718.96139	2167.4
1722.20246	2165.8
1725.44139	2179.7
1728.67818	2186.3
1731.91284	2209.5
1735.14537	2228.4
1738.37576	2262.5
1741.60403	2303.8
1744.83017	2367.1
1748.05418	2488.7
1751.27607	2649.7
1754.49584	2804.3
1757.71349	2945.4
1760.92903	3006.3
1764.14244	2991.5
1767.35375	2900.7
1770.56294	2770.2
1773.77002	2650.7
1776.97499	2559.9
1780.17785	2485.2
1783.37861	2433.7
1786.57727	2384.3
1789.77382	2324.6
1792.96828	2252.8
1796.16064	2184
1799.3509	2151.6
1802.53907	2109.8
1805.72514	2071.6
1808.90913	2025.4
1812.09102	1985.6
1815.27083	1963.7
1818.44856	1934.9
1821.6242	1909.3
1824.79776	1887.1
1827.96924	1854.9
1831.13864	1820.2
1834.30597	1805.5
1837.47122	1800
1840.6344	1776.1
1843.7955	1756
1846.95454	1751.7
1850.11151	1739.7
1853.26642	1723.7
1856.41926	1732.3
1859.57004	1716.1
1862.71876	1713
1865.86542	1717.6
1869.01003	1713.5
1872.15258	1708.7
1875.29308	1717.7
1878.43152	1713.1
1881.56792	1717
1884.70227	1706.3
1887.83457	1724.4
1890.96482	1726
1894.09304	1721.1
1897.21921	1717.3
1900.34335	1723.8
1903.46544	1726
1906.58551	1720
1909.70353	1732.5
1912.81953	1732.9
1915.93349	1748.8
1919.04543	1745.1
1922.15534	1750.6
1925.26322	1761.6
1928.36908	1762.2
1931.47292	1784.6
1934.57473	1775.8
1937.67453	1768.2
1940.77232	1760.3
1943.86808	1755
1946.96184	1746.2
1950.05358	1747
1953.14331	1737.4
1956.23103	1733.2
1959.31675	1727
1962.40046	1713
1965.48217	1705
1968.56188	1698.3
1971.63959	1684.5
1974.7153	1674.2
1977.78901	1673.5
1980.86073	1652.3
1983.93046	1646.3
1986.99819	1645.3
1990.06394	1623
1993.1277	1615.3
1996.18947	1606.5
1999.24925	1600.3
2002.30706	1597
2005.36288	1579.6
2008.41672	1576.9
2011.46859	1575.9
2014.51848	1564.9
2017.56639	1565.9
2020.61233	1557.4
2023.6563	1553.7
2026.6983	1535.6
2029.73833	1542.2
2032.7764	1537
2035.8125	1525.9
2038.84664	1526
2041.87881	1520.1
2044.90903	1511.9
2047.93729	1508.6
2050.96359	1514.5
2053.98794	1510.8
2057.01034	1509.7
2060.03078	1512.6
2063.04927	1511.7
2066.06582	1515.4
2069.08042	1508.8
2072.09307	1505.8
2075.10378	1514.2
2078.11255	1520.7
2081.11938	1524.1
2084.12426	1530.2
2087.12722	1528.2
2090.12824	1537.3
2093.12732	1539.1
2096.12447	1536
2099.11969	1551.4
2102.11299	1551.4
2105.10435	1553.4
2108.09379	1558
2111.08131	1552.7
2114.0669	1557.6
2117.05057	1559.5
2120.03233	1563.4
2123.01216	1561.6
2125.99008	1567.9
2128.96609	1573.9
2131.94018	1564.2
2134.91236	1565.5
2137.88263	1579.4
2140.851	1564.8
2143.81746	1566.1
2146.78201	1558.2
2149.74466	1560.7
2152.7054	1550.6
2155.66425	1555.9
2158.6212	1555.2
2161.57625	1541.5
2164.52941	1527.9
2167.48067	1529
2170.43004	1517.9
2173.37752	1513.7
2176.32311	1514.2
2179.26681	1514.3
2182.20863	1510.9
2185.14856	1513.1
2188.08661	1503.3
2191.02278	1501.2
2193.95707	1496.8
2196.88948	1487.6
2199.82001	1491.4
2202.74867	1494.8
2205.67545	1489.2
2208.60037	1485.1
2211.52341	1487.9
2214.44458	1487.8
2217.36388	1475.8
2220.28132	1470.2
2223.1969	1460.8
2226.11061	1457.8
2229.02246	1452.3
2231.93245	1455.4
2234.84058	1446.5
2237.74686	1446
2240.65128	1447.3
2243.55385	1450.2
2246.45456	1458.7
2249.35343	1453.7
2252.25044	1446.8
2255.14561	1438.8
2258.03893	1438.4
2260.93041	1434.7
2263.82004	1429.9
2266.70783	1418.2
2269.59378	1427.6
2272.4779	1417.7
2275.36017	1414.4
2278.24061	1412.6
2281.11922	1405.8
2283.996	1406.5
2286.87094	1404.4
2289.74405	1401.6
2292.61534	1394.9
2295.4848	1393
2298.35243	1399.6
2301.21824	1393
2304.08223	1394.7
2306.94439	1392.4
2309.80474	1400
2312.66327	1393.9
2315.51999	1391.3
2318.37489	1384.8
2321.22797	1376.7
2324.07925	1371.2
2326.92871	1380.6
2329.77637	1383.9
2332.62222	1372.8
2335.46626	1376.9
2338.3085	1372.8
2341.14893	1363.6
2343.98756	1374.3
2346.8244	1363.6
2349.65943	1359.8
2352.49267	1362.4
2355.32411	1354.3
2358.15376	1357.1
2360.98161	1356.3
2363.80768	1354.1
2366.63195	1361.4
2369.45444	1357.1
2372.27514	1357.6
2375.09405	1351.4
2377.91118	1353.2
2380.72652	1362.9
2383.54009	1346.1
2386.35187	1348.5
2389.16188	1351.6
2391.97011	1343.1
2394.77657	1335
2397.58125	1338.9
2400.38416	1341.4
2403.18529	1335
2405.98466	1329.8
2408.78226	1346
2411.57809	1335.2
2414.37216	1327.5
2417.16446	1331
2419.955	1325.8
2422.74378	1333.8
2425.5308	1316.4
2428.31606	1315.3
2431.09956	1319.4
2433.88131	1326.4
2436.6613	1323.1
2439.43954	1316.8
2442.21603	1316.1
2444.99077	1309.6
2447.76377	1309.3
2450.53501	1310.4
2453.30451	1302.7
2456.07226	1299
2458.83827	1299.7
2461.60254	1302.7
2464.36507	1303.5
2467.12586	1296.5
2469.88492	1296.6
2472.64224	1296.2
2475.39782	1297.6
2478.15167	1302.9
2480.90379	1300
2483.65417	1295.7
2486.40283	1290.8
2489.14976	1302.8
2491.89497	1292.9
2494.63845	1282.8
2497.3802	1287.8
2500.12024	1283.3
2502.85855	1287.5
2505.59514	1281.8
2508.33002	1285.7
2511.06318	1281.5
2513.79462	1285.2
2516.52435	1280.6
2519.25237	1286.1
2521.97867	1276.5
2524.70327	1275.3
2527.42616	1261.3
2530.14734	1270.6
2532.86681	1264.1
2535.58458	1264.2
2538.30065	1271.2
2541.01501	1262.9
2543.72768	1262
2546.43864	1254.4
2549.14791	1254.2
2551.85548	1259.6
2554.56136	1260
2557.26554	1251.2
2559.96803	1256.3
2562.66883	1242.7
2565.36794	1241.8
2568.06536	1247.8
2570.7611	1237.3
2573.45514	1238.4
2576.14751	1236.8
2578.83819	1234.9
2581.52719	1235.6
2584.21451	1241.7
2586.90015	1235.5
2589.58411	1223.2
2592.2664	1223
2594.94701	1225.2
2597.62594	1222.4
2600.30321	1217
2602.9788	1220.4
2605.65273	1222.5
2608.32498	1208.6
2610.99557	1217.4
2613.66449	1213.5
2616.33175	1211.9
2618.99734	1209.8
2621.66128	1209.2
2624.32355	1203
2626.98416	1210.6
2629.64311	1194.6
2632.30041	1211.7
2634.95605	1218.7
2637.61004	1204
2640.26238	1194.2
2642.91306	1199.9
2645.56209	1203
2648.20948	1192.8
2650.85521	1197.7
2653.4993	1191.9
2656.14175	1195.5
2658.78255	1194.5
2661.42171	1197.1
2664.05923	1194.2
2666.6951	1195.4
2669.32934	1202.7
2671.96194	1200.7
2674.59291	1193.7
2677.22224	1197.6
2679.84993	1198.1
2682.476	1201.4
2685.10043	1203.2
2687.72324	1193.2
2690.34441	1192.9
2692.96396	1199.8
2695.58188	1200
2698.19818	1204.8
2700.81285	1208.9
2703.4259	1204.4
2706.03733	1203.2
2708.64714	1199.3
2711.25533	1210.1
2713.86191	1198.5
2716.46687	1202.6
2719.07021	1209
2721.67194	1207.3
2724.27206	1212.8
2726.87057	1216.2
2729.46747	1208.9
2732.06276	1211.1
2734.65644	1210.1
2737.24852	1203
2739.83899	1198.7
2742.42786	1203.1
2745.01513	1199.5
2747.60079	1193.1
2750.18486	1201.2
2752.76733	1194.1
2755.3482	1201.2
2757.92747	1191.7
2760.50515	1201.3
2763.08123	1194.4
2765.65573	1193.1
2768.22863	1190.1
2770.79994	1187.8
2773.36967	1184.3
2775.9378	1193.7
2778.50435	1187.2
2781.06932	1198.9
2783.6327	1189.2
2786.1945	1189.1
2788.75471	1186.1
2791.31335	1195.5
2793.87041	1192.7
2796.42589	1200.5
2798.97979	1196.2
2801.53212	1197.3
2804.08288	1200.1
2806.63206	1195.6
2809.17967	1198.8
2811.72571	1200.3
2814.27018	1204.2
2816.81308	1194.6
2819.35442	1201.5
2821.89419	1197.7
2824.43239	1194.8
2826.96904	1193.1
2829.50412	1191.9
2832.03763	1205
2834.56959	1202
2837.1	1197.4
2839.62884	1209.9
2842.15613	1207.4
2844.68186	1210.6
2847.20604	1214
2849.72867	1211.4
2852.24974	1215
2854.76927	1215.4
2857.28724	1208.6
2859.80367	1215.3
2862.31855	1211.5
2864.83189	1220.8
2867.34368	1226.1
2869.85393	1220.5
2872.36264	1218.1
2874.8698	1227.3
2877.37543	1238.5
2879.87952	1237.4
2882.38207	1247.1
2884.88308	1255
2887.38256	1270
2889.88051	1263.9
2892.37692	1287.7
2894.8718	1288.3
2897.36515	1308.1
2899.85698	1317.1
2902.34727	1337.3
2904.83604	1346.1
2907.32328	1360.3
2909.809	1365.5
2912.29319	1383.8
2914.77587	1390.1
2917.25702	1406
2919.73665	1426.1
2922.21476	1441.4
2924.69136	1454.8
2927.16644	1471.1
2929.64	1479.7
2932.11205	1496.7
2934.58258	1509.7
2937.05161	1521.8
2939.51912	1541.9
2941.98513	1558.2
2944.44962	1580.1
2946.91261	1599.4
2949.37409	1616.7
2951.83407	1620.3
2954.29254	1626
2956.74951	1619.2
2959.20498	1601.3
2961.65895	1578.6
2964.11142	1557.4
2966.56239	1520.6
2969.01186	1494.5
2971.45984	1459.4
2973.90632	1436.3
2976.35131	1416.9
2978.7948	1401.2
2981.23681	1380.6
2983.67732	1374
2986.11635	1371.3
2988.55388	1349.3
2990.98993	1346.5
2993.4245	1338.7
2995.85758	1336.4
2998.28917	1342.1
3000.71928	1345.5
3003.14791	1344.9
3005.57506	1355.5
3008.00073	1348.5
3010.42493	1349
3012.84764	1353.9
3015.26888	1351.4
3017.68865	1346.3
3020.10694	1344.1
3022.52376	1351.7
3024.9391	1339.9
3027.35298	1335.5
3029.76539	1323.7
3032.17632	1318.4
3034.5858	1318.8
3036.9938	1308.8
3039.40034	1308.4
3041.80542	1311.8
3044.20903	1296.8
3046.61118	1301.8
3049.01187	1291
3051.4111	1278.9
3053.80888	1285.3
3056.20519	1284.9
3058.60005	1285
3060.99345	1284.2
3063.3854	1289.4
3065.7759	1286.1
3068.16494	1282.8
3070.55254	1281.5
3072.93868	1279.3
3075.32338	1285.8
3077.70662	1283.1
3080.08842	1282.8
3082.46878	1299.2
3084.84769	1297.8
3087.22515	1309.6
3089.60118	1311.8
3091.97576	1327.8
3094.3489	1333.6
3096.72061	1341.9
3099.09087	1336.7
3101.4597	1353.1
3103.82709	1364.6
3106.19305	1369.1
3108.55757	1375.6
3110.92066	1379.5
3113.28232	1386.5
3115.64255	1397.1
3118.00134	1409.7
3120.35871	1405.4
3122.71466	1407.6
3125.06917	1422.8
3127.42226	1421.5
3129.77393	1440.3
3132.12417	1446.3
3134.47299	1454.8
3136.82039	1462
3139.16636	1469.5
3141.51092	1474.1
3143.85406	1482.8
3146.19579	1490.7
3148.53609	1504.3
3150.87499	1513.4
3153.21246	1524.8
3155.54853	1540.8
3157.88318	1547.8
3160.21642	1572.9
3162.54826	1570.3
3164.87868	1576.5
3167.2077	1588.7
3169.5353	1604.1
3171.86151	1607.5
3174.18631	1622.1
3176.5097	1626.7
3178.83169	1632.9
3181.15228	1637.8
3183.47147	1650.1
3185.78926	1651.7
3188.10565	1659.8
3190.42065	1674.3
3192.73424	1685.3
3195.04645	1691.1
3197.35725	1683.7
3199.66667	1685
3201.97469	1706.9
3204.28132	1713.9
3206.58656	1722.1
3208.8904	1729.8
3211.19287	1746.2
3213.49394	1738.1
3215.79363	1746.2
3218.09193	1747.6
3220.38884	1759.8
3222.68438	1767.3
3224.97853	1774.6
3227.2713	1777.4
3229.56269	1781.2
3231.8527	1789.8
3234.14133	1779.7
3236.42858	1791.9
3238.71446	1791.5
3240.99896	1791.1
3243.28209	1796.5
3245.56384	1792.1
3247.84423	1801.3
3250.12324	1781.4
3252.40088	1787.7
3254.67715	1794.6
3256.95205	1801.6
3259.22558	1801.8
3261.49775	1811.5
3263.76855	1810.6
3266.03799	1806
3268.30606	1808
3270.57277	1811.1
3272.83812	1815
3275.10211	1811.2
3277.36474	1815.1
3279.62601	1804.5
3281.88593	1811.7
3284.14448	1805
3286.40168	1798.6
3288.65753	1808.6
3290.91202	1799
3293.16516	1803.5
3295.41695	1806.1
3297.66738	1791.6
3299.91647	1790.5
3302.16421	1785
3304.4106	1772.2
3306.65564	1762.7
3308.89933	1748.2
3311.14169	1737
3313.38269	1723.5
3315.62236	1725.3
3317.86068	1722.7
3320.09766	1704.9
3322.3333	1677
3324.5676	1676.5
3326.80056	1663
3329.03219	1647.5
3331.26248	1.8
3333.49143	-0.9
3335.71905	-1.1
