Data from AgNPs_UA_5uM_CRN_500uM_AS_RamanShift__26__13-27-53-850.txt Node

Date: Wed Aug 17 13:27:53 BST 2022
User: TCL
Spectrometer: QEP01345
Trigger mode: 4
Integration Time (sec): 7.000000E0
Scans to average: 10
Electric dark correction enabled: true
Nonlinearity correction enabled: false
Boxcar width: 0
XAxis mode: Raman Shifts
Number of Pixels in Spectrum: 1044
>>>>>Begin Spectral Data<<<<<
46.04893	0.1875
50.45542	0.2875
54.85868	0.0875
59.25871	0.3875
63.6555	103.1875
68.04907	110.5875
72.43941	113.5875
76.82654	122.5875
81.21044	127.7875
85.59113	132.5875
89.96862	136.3875
94.34289	143.9875
98.71396	147.0875
103.08183	153.1875
107.4465	159.6875
111.80798	159.4875
116.16626	170.9875
120.52136	178.6875
124.87327	189.1875
129.222	205.9875
133.56755	224.6875
137.90993	242.0875
142.24913	271.3875
146.58517	296.4875
150.91804	351.3875
155.24774	424.2875
159.57429	537.4875
163.89768	700.1875
168.21792	929.3875
172.53501	1274.0875
176.84895	1773.8875
181.15975	2525.7875
185.46741	3546.0875
189.77193	4933.1875
194.07331	6675.3875
198.37157	8683.1875
202.6667	10876.8875
206.9587	13223.3875
211.24758	15785.4875
215.53334	18650.5875
219.81599	22018.5875
224.09553	25867.4875
228.37195	29980.0875
232.64527	34145.6875
236.91549	37823.0875
241.18261	40555.4875
245.44663	42308.9875
249.70755	43824.3875
253.96539	45322.6875
258.22014	46591.1875
262.4718	46857.1875
266.72039	45850.8875
270.96589	43567.2875
275.20832	40593.1875
279.44768	37754.8875
283.68397	35694.1875
287.91719	34921.6875
292.14735	35837.0875
296.37445	38945.7875
300.59849	44103.0875
304.81948	50417.2875
309.03742	55721.3875
313.25231	57005.8875
317.46415	52368.8875
321.67296	43934.8875
325.87872	37158.7875
330.08145	34182.0875
334.28114	34424.1875
338.47781	36326.8875
342.67145	38999.5875
346.86207	43303.0875
351.04966	49965.9875
355.23424	57038.2875
359.4158	61087.7875
363.59435	61265.4875
367.76989	59254.4875
371.94243	56317.0875
376.11196	53739.2875
380.27849	51435.3875
384.44203	49133.5875
388.60257	46933.1875
392.76012	45701.1875
396.91468	46020.3875
401.06626	47698.2875
405.21485	48225.2875
409.36047	44897.6875
413.50311	38529.8875
417.64277	32651.3875
421.77947	29098.4875
425.9132	27434.6875
430.04396	26777.6875
434.17176	26882.6875
438.2966	27878.4875
442.41849	29511.5875
446.53742	31097.8875
450.6534	32052.6875
454.76644	31982.7875
458.87653	31072.7875
462.98368	29874.1875
467.08789	28675.4875
471.18916	27249.8875
475.2875	25573.2875
479.38291	24004.5875
483.4754	22941.7875
487.56496	22271.8875
491.6516	21888.0875
495.73531	21919.4875
499.81612	22400.5875
503.89401	23436.4875
507.96899	24905.6875
512.04106	26691.0875
516.11023	28508.9875
520.1765	29732.0875
524.23987	29693.2875
528.30034	28844.5875
532.35792	27810.5875
536.41261	26556.2875
540.46441	24896.9875
544.51333	23874.4875
548.55936	23983.1875
552.60252	25276.6875
556.64279	27000.8875
560.6802	28711.9875
564.71473	32740.9875
568.7464	38556.1875
572.7752	38674.7875
576.80114	31414.1875
580.82422	25071.6875
584.84444	22192.7875
588.86181	21421.4875
592.87633	21798.3875
596.888	23357.6875
600.89682	28073.4875
604.9028	43472.2875
608.90594	81558.1875
612.90624	124796.0875
616.90371	108441.2875
620.89834	53582.7875
624.89015	30541.6875
628.87913	27352.7875
632.86528	29958.6875
636.84862	31839.6875
640.82913	28641.4875
644.80683	23382.1875
648.78172	20549.0875
652.75379	21420.2875
656.72306	25822.5875
660.68952	29648.0875
664.65319	26803.4875
668.61405	21502.6875
672.57211	19624.9875
676.52738	19782.2875
680.47986	19492.5875
684.42955	18496.2875
688.37646	18058.6875
692.32058	18285.8875
696.26192	19096.3875
700.20048	20049.6875
704.13626	20248.1875
708.06928	19667.4875
711.99952	19118.2875
715.927	19330.1875
719.85171	20155.2875
723.77365	20618.2875
727.69284	20110.4875
731.60928	19534.3875
735.52295	19364.4875
739.43388	19487.8875
743.34206	19641.6875
747.24749	19513.8875
751.15017	19586.2875
755.05012	21507.2875
758.94733	28126.6875
762.8418	43189.5875
766.73354	62800.9875
770.62254	76871.1875
774.50882	83540.0875
778.39237	78948.5875
782.27321	59188.3875
786.15132	38300.8875
790.02671	26851.1875
793.89938	22108.5875
797.76935	20181.6875
801.6366	19232.7875
805.50115	18701.9875
809.36299	18402.4875
813.22213	18104.1875
817.07857	18021.2875
820.93231	18246.3875
824.78336	18849.1875
828.63172	19543.0875
832.47738	19700.7875
836.32036	18972.0875
840.16066	17985.5875
843.99827	17395.7875
847.8332	17240.1875
851.66546	17345.6875
855.49504	17501.9875
859.32195	17495.2875
863.1462	17340.1875
866.96777	17154.2875
870.78668	17070.5875
874.60293	17271.9875
878.41652	17720.2875
882.22745	18378.4875
886.03573	18723.1875
889.84136	18582.5875
893.64433	18495.6875
897.44466	18698.6875
901.24235	18802.8875
905.0374	18247.6875
908.8298	17385.8875
912.61957	16843.8875
916.40671	16617.0875
920.19121	16827.0875
923.97308	17762.4875
927.75233	19817.6875
931.52895	21824.9875
935.30295	20655.9875
939.07433	17696.2875
942.84309	15521.1875
946.60924	14448.3875
950.37278	14016.9875
954.13371	13879.7875
957.89203	13861.1875
961.64774	13808.9875
965.40086	13742.8875
969.15137	13653.3875
972.89929	13584.3875
976.64461	13594.7875
980.38733	13586.5875
984.12747	13613.1875
987.86502	13693.4875
991.59999	13877.4875
995.33237	14246.9875
999.06217	14830.2875
1002.78939	15672.5875
1006.51404	16767.8875
1010.23611	17540.9875
1013.95561	17448.4875
1017.67255	16976.6875
1021.38692	16194.6875
1025.09872	15417.1875
1028.80796	14987.1875
1032.51465	15115.4875
1036.21877	15518.6875
1039.92035	15955.6875
1043.61937	16454.0875
1047.31584	16826.7875
1051.00976	16776.0875
1054.70114	16288.8875
1058.38998	15958.7875
1062.07627	15913.6875
1065.76003	15867.1875
1069.44126	16060.9875
1073.11995	16929.3875
1076.79611	18863.4875
1080.46974	22061.3875
1084.14085	25885.3875
1087.80943	28421.4875
1091.47549	28170.1875
1095.13903	25375.0875
1098.80005	22098.1875
1102.45857	20397.7875
1106.11456	20582.7875
1109.76805	22332.1875
1113.41903	25734.4875
1117.06751	31182.0875
1120.71348	39012.2875
1124.35696	47741.9875
1127.99793	50270.3875
1131.63641	43475.2875
1135.2724	34154.4875
1138.90589	27903.4875
1142.5369	24349.6875
1146.16542	22147.3875
1149.79145	20947.7875
1153.415	20619.8875
1157.03607	21129.1875
1160.65467	22612.7875
1164.27079	25363.3875
1167.88443	29671.8875
1171.49561	36825.0875
1175.10432	48849.6875
1178.71056	63948.5875
1182.31434	73525.5875
1185.91565	72662.5875
1189.51451	64860.0875
1193.11091	55280.3875
1196.70485	47350.9875
1200.29634	42708.3875
1203.88538	37960.3875
1207.47197	31238.2875
1211.05612	25394.5875
1214.63782	21996.4875
1218.21708	20373.3875
1221.79391	19745.5875
1225.36829	19509.4875
1228.94024	19301.3875
1232.50976	19159.6875
1236.07685	19403.0875
1239.6415	20067.6875
1243.20374	20857.9875
1246.76355	21581.7875
1250.32093	22506.5875
1253.8759	24089.0875
1257.42845	26543.2875
1260.97859	29880.2875
1264.52631	33457.1875
1268.07163	36209.0875
1271.61453	37405.6875
1275.15503	37054.1875
1278.69312	36529.2875
1282.22882	37731.7875
1285.76211	41247.2875
1289.29301	45073.4875
1292.82151	48290.6875
1296.34761	52754.4875
1299.87133	61292.5875
1303.39266	77498.1875
1306.9116	101021.2875
1310.42815	120685.2875
1313.94233	119838.3875
1317.45412	99627.1875
1320.96354	75590.6875
1324.47058	56054.2875
1327.97525	43529.0875
1331.47754	37556.3875
1334.97747	36792.9875
1338.47502	40352.1875
1341.97022	48878.8875
1345.46305	61921.3875
1348.95352	77201.2875
1352.44163	96198.8875
1355.92738	125570.9875
1359.41078	164757.3875
1362.89183	182533.0875
1366.37053	153384.5875
1369.84688	106409.3875
1373.32088	75003.0875
1376.79254	58778.1875
1380.26186	48862.0875
1383.72883	40659.2875
1387.19347	33736.2875
1390.65578	28515.4875
1394.11575	25311.2875
1397.57339	23699.4875
1401.0287	23005.0875
1404.48168	22557.1875
1407.93234	22680.8875
1411.38068	23729.9875
1414.82669	25284.4875
1418.27039	26159.3875
1421.71177	26106.2875
1425.15083	26128.1875
1428.58758	27558.2875
1432.02203	29334.3875
1435.45416	29389.1875
1438.88399	28103.3875
1442.31151	27283.7875
1445.73673	27339.8875
1449.15965	27430.7875
1452.58027	26724.5875
1455.9986	25647.5875
1459.41463	25691.8875
1462.82837	27132.2875
1466.23982	28955.7875
1469.64898	29981.7875
1473.05586	30094.2875
1476.46045	30380.4875
1479.86276	31671.0875
1483.26279	34160.8875
1486.66054	38366.6875
1490.05602	44834.6875
1493.44922	54813.2875
1496.84016	70626.6875
1500.22882	94998.4875
1503.61521	127948.1875
1506.99934	162905.7875
1510.38121	185282.0875
1513.76081	183120.9875
1517.13816	153832.0875
1520.51324	113723.6875
1523.88607	80648.1875
1527.25665	60212.2875
1530.62498	48777.8875
1533.99105	41946.8875
1537.35488	37885.5875
1540.71647	36093.8875
1544.07581	36259.0875
1547.4329	37552.3875
1550.78776	39223.1875
1554.14038	40781.9875
1557.49077	42525.2875
1560.83892	45916.2875
1564.18484	52210.1875
1567.52853	59333.0875
1570.86999	63753.3875
1574.20922	64687.6875
1577.54624	60173.6875
1580.88103	49134.3875
1584.2136	37682.3875
1587.54395	31204.7875
1590.87208	30357.3875
1594.19801	33835.3875
1597.52172	38249.2875
1600.84321	38745.8875
1604.16251	35345.6875
1607.47959	30895.0875
1610.79447	26784.9875
1614.10715	23285.4875
1617.41763	20995.6875
1620.7259	19986.6875
1624.03199	20105.6875
1627.33587	21218.5875
1630.63757	23495.0875
1633.93707	27630.7875
1637.23439	35088.3875
1640.52951	48215.8875
1643.82246	68693.5875
1647.11321	91430.8875
1650.40179	102398.6875
1653.68819	91997.5875
1656.97241	68323.3875
1660.25446	46192.6875
1663.53433	31880.1875
1666.81203	23943.3875
1670.08756	19609.1875
1673.36092	17140.6875
1676.63211	15624.1875
1679.90115	14640.9875
1683.16801	13962.4875
1686.43272	13516.1875
1689.69527	13144.1875
1692.95567	12891.1875
1696.2139	12750.7875
1699.46999	12637.8875
1702.72392	12564.6875
1705.97571	12520.7875
1709.22535	12549.4875
1712.47284	12631.0875
1715.71819	12631.6875
1718.96139	12487.8875
1722.20246	12280.3875
1725.44139	11932.7875
1728.67818	11558.4875
1731.91284	11212.3875
1735.14537	10962.9875
1738.37576	10812.7875
1741.60403	10684.5875
1744.83017	10610.7875
1748.05418	10493.1875
1751.27607	10382.7875
1754.49584	10227.1875
1757.71349	10056.0875
1760.92903	9842.5875
1764.14244	9649.3875
1767.35375	9421.4875
1770.56294	9177.5875
1773.77002	8944.8875
1776.97499	8726.6875
1780.17785	8561.0875
1783.37861	8404.5875
1786.57727	8303.3875
1789.77382	8247.5875
1792.96828	8195.3875
1796.16064	8140.9875
1799.3509	8110.8875
1802.53907	8041.8875
1805.72514	7955.7875
1808.90913	7853.5875
1812.09102	7798.2875
1815.27083	7736.1875
1818.44856	7663.1875
1821.6242	7603.9875
1824.79776	7525.9875
1827.96924	7446.4875
1831.13864	7360.2875
1834.30597	7262.5875
1837.47122	7206.3875
1840.6344	7105.7875
1843.7955	7054.3875
1846.95454	6974.9875
1850.11151	6956.0875
1853.26642	6954.2875
1856.41926	6961.8875
1859.57004	6976.7875
1862.71876	6967.2875
1865.86542	6999.0875
1869.01003	7039.7875
1872.15258	7060.5875
1875.29308	7095.7875
1878.43152	7098.9875
1881.56792	7083.0875
1884.70227	7029.7875
1887.83457	7017.4875
1890.96482	6977.8875
1894.09304	6924.9875
1897.21921	6937.4875
1900.34335	6938.6875
1903.46544	6931.4875
1906.58551	6922.3875
1909.70353	6926.6875
1912.81953	6900.6875
1915.93349	6874.2875
1919.04543	6826.7875
1922.15534	6780.6875
1925.26322	6726.8875
1928.36908	6611.0875
1931.47292	6490.6875
1934.57473	6377.7875
1937.67453	6276.2875
1940.77232	6165.5875
1943.86808	6093.9875
1946.96184	6072.5875
1950.05358	6063.0875
1953.14331	6047.9875
1956.23103	6045.8875
1959.31675	6080.6875
1962.40046	6116.7875
1965.48217	6173.6875
1968.56188	6232.9875
1971.63959	6280.7875
1974.7153	6272.1875
1977.78901	6163.1875
1980.86073	6048.4875
1983.93046	5910.6875
1986.99819	5828.0875
1990.06394	5721.3875
1993.1277	5638.7875
1996.18947	5580.1875
1999.24925	5535.4875
2002.30706	5467.1875
2005.36288	5411.8875
2008.41672	5386.1875
2011.46859	5344.1875
2014.51848	5336.3875
2017.56639	5300.2875
2020.61233	5259.5875
2023.6563	5224.2875
2026.6983	5180.4875
2029.73833	5174.9875
2032.7764	5137.1875
2035.8125	5116.1875
2038.84664	5101.2875
2041.87881	5126.8875
2044.90903	5089.8875
2047.93729	5052.6875
2050.96359	5019.0875
2053.98794	4999.7875
2057.01034	4964.4875
2060.03078	4915.7875
2063.04927	4862.4875
2066.06582	4838.4875
2069.08042	4799.2875
2072.09307	4794.4875
2075.10378	4794.5875
2078.11255	4795.7875
2081.11938	4818.1875
2084.12426	4822.1875
2087.12722	4825.0875
2090.12824	4822.5875
2093.12732	4827.8875
2096.12447	4832.6875
2099.11969	4859.7875
2102.11299	4868.3875
2105.10435	4872.7875
2108.09379	4900.2875
2111.08131	4904.7875
2114.0669	4939.4875
2117.05057	4973.6875
2120.03233	5009.2875
2123.01216	5059.8875
2125.99008	5074.3875
2128.96609	5065.0875
2131.94018	5030.4875
2134.91236	4968.7875
2137.88263	4908.3875
2140.851	4841.9875
2143.81746	4777.9875
2146.78201	4695.5875
2149.74466	4614.4875
2152.7054	4569.9875
2155.66425	4508.7875
2158.6212	4489.6875
2161.57625	4441.3875
2164.52941	4442.7875
2167.48067	4425.8875
2170.43004	4429.6875
2173.37752	4430.8875
2176.32311	4471.8875
2179.26681	4498.1875
2182.20863	4493.4875
2185.14856	4480.9875
2188.08661	4453.2875
2191.02278	4409.9875
2193.95707	4359.3875
2196.88948	4303.7875
2199.82001	4302.8875
2202.74867	4283.4875
2205.67545	4296.5875
2208.60037	4293.0875
2211.52341	4288.5875
2214.44458	4265.5875
2217.36388	4220.8875
2220.28132	4190.5875
2223.1969	4150.2875
2226.11061	4126.2875
2229.02246	4091.9875
2231.93245	4082.6875
2234.84058	4074.7875
2237.74686	4077.1875
2240.65128	4058.7875
2243.55385	4087.5875
2246.45456	4142.6875
2249.35343	4188.4875
2252.25044	4276.8875
2255.14561	4369.0875
2258.03893	4460.5875
2260.93041	4554.1875
2263.82004	4570.3875
2266.70783	4560.4875
2269.59378	4510.1875
2272.4779	4493.4875
2275.36017	4474.3875
2278.24061	4464.2875
2281.11922	4413.6875
2283.996	4380.8875
2286.87094	4328.9875
2289.74405	4256.9875
2292.61534	4175.1875
2295.4848	4117.2875
2298.35243	4069.9875
2301.21824	4035.8875
2304.08223	4017.4875
2306.94439	4017.1875
2309.80474	4016.5875
2312.66327	4018.5875
2315.51999	4008.8875
2318.37489	3985.6875
2321.22797	3968.7875
2324.07925	3965.4875
2326.92871	3958.4875
2329.77637	3945.8875
2332.62222	3964.4875
2335.46626	3966.3875
2338.3085	3973.6875
2341.14893	4008.4875
2343.98756	4045.0875
2346.8244	4071.8875
2349.65943	4111.4875
2352.49267	4172.3875
2355.32411	4250.5875
2358.15376	4359.6875
2360.98161	4443.1875
2363.80768	4522.2875
2366.63195	4602.7875
2369.45444	4668.7875
2372.27514	4690.0875
2375.09405	4684.8875
2377.91118	4629.1875
2380.72652	4585.4875
2383.54009	4485.4875
2386.35187	4407.9875
2389.16188	4298.4875
2391.97011	4207.8875
2394.77657	4117.4875
2397.58125	4063.5875
2400.38416	4006.1875
2403.18529	3942.5875
2405.98466	3904.6875
2408.78226	3888.7875
2411.57809	3866.1875
2414.37216	3874.7875
2417.16446	3852.1875
2419.955	3866.0875
2422.74378	3896.6875
2425.5308	3915.0875
2428.31606	3950.7875
2431.09956	3983.6875
2433.88131	4007.9875
2436.6613	4053.9875
2439.43954	4084.5875
2442.21603	4138.0875
2444.99077	4174.2875
2447.76377	4225.1875
2450.53501	4258.2875
2453.30451	4248.6875
2456.07226	4269.9875
2458.83827	4258.5875
2461.60254	4253.8875
2464.36507	4252.1875
2467.12586	4239.1875
2469.88492	4278.5875
2472.64224	4310.9875
2475.39782	4387.6875
2478.15167	4465.0875
2480.90379	4562.5875
2483.65417	4690.9875
2486.40283	4770.9875
2489.14976	4848.6875
2491.89497	4885.1875
2494.63845	4896.5875
2497.3802	4829.3875
2500.12024	4775.1875
2502.85855	4672.3875
2505.59514	4540.1875
2508.33002	4396.8875
2511.06318	4225.7875
2513.79462	4068.9875
2516.52435	3941.7875
2519.25237	3828.5875
2521.97867	3752.5875
2524.70327	3713.5875
2527.42616	3683.0875
2530.14734	3661.9875
2532.86681	3677.5875
2535.58458	3683.0875
2538.30065	3717.9875
2541.01501	3774.3875
2543.72768	3796.4875
2546.43864	3833.5875
2549.14791	3855.4875
2551.85548	3888.7875
2554.56136	3901.8875
2557.26554	3910.7875
2559.96803	3935.3875
2562.66883	3908.0875
2565.36794	3903.9875
2568.06536	3888.2875
2570.7611	3875.9875
2573.45514	3841.2875
2576.14751	3803.2875
2578.83819	3781.8875
2581.52719	3739.5875
2584.21451	3709.4875
2586.90015	3690.4875
2589.58411	3657.7875
2592.2664	3650.0875
2594.94701	3640.8875
2597.62594	3648.6875
2600.30321	3674.2875
2602.9788	3693.7875
2605.65273	3697.0875
2608.32498	3731.5875
2610.99557	3758.5875
2613.66449	3771.6875
2616.33175	3790.5875
2618.99734	3791.0875
2621.66128	3760.6875
2624.32355	3745.5875
2626.98416	3696.9875
2629.64311	3643.7875
2632.30041	3608.8875
2634.95605	3576.1875
2637.61004	3537.7875
2640.26238	3530.7875
2642.91306	3518.2875
2645.56209	3516.5875
2648.20948	3508.4875
2650.85521	3513.5875
2653.4993	3543.6875
2656.14175	3577.4875
2658.78255	3616.0875
2661.42171	3655.1875
2664.05923	3698.4875
2666.6951	3747.9875
2669.32934	3787.7875
2671.96194	3803.3875
2674.59291	3814.6875
2677.22224	3799.6875
2679.84993	3785.7875
2682.476	3757.0875
2685.10043	3753.9875
2687.72324	3736.9875
2690.34441	3712.4875
2692.96396	3712.2875
2695.58188	3697.3875
2698.19818	3671.3875
2700.81285	3681.8875
2703.4259	3685.2875
2706.03733	3680.0875
2708.64714	3713.3875
2711.25533	3733.9875
2713.86191	3759.0875
2716.46687	3798.9875
2719.07021	3821.8875
2721.67194	3841.7875
2724.27206	3828.8875
2726.87057	3805.2875
2729.46747	3794.8875
2732.06276	3742.0875
2734.65644	3698.9875
2737.24852	3649.5875
2739.83899	3590.3875
2742.42786	3566.4875
2745.01513	3516.6875
2747.60079	3490.1875
2750.18486	3453.5875
2752.76733	3422.0875
2755.3482	3403.7875
2757.92747	3372.9875
2760.50515	3379.8875
2763.08123	3346.0875
2765.65573	3344.4875
2768.22863	3359.2875
2770.79994	3350.0875
2773.36967	3367.2875
2775.9378	3390.6875
2778.50435	3415.5875
2781.06932	3455.7875
2783.6327	3486.7875
2786.1945	3505.7875
2788.75471	3572.1875
2791.31335	3601.5875
2793.87041	3663.0875
2796.42589	3709.3875
2798.97979	3767.1875
2801.53212	3848.6875
2804.08288	3903.6875
2806.63206	3996.0875
2809.17967	4082.1875
2811.72571	4176.0875
2814.27018	4280.0875
2816.81308	4359.2875
2819.35442	4458.4875
2821.89419	4528.7875
2824.43239	4586.2875
2826.96904	4625.8875
2829.50412	4642.4875
2832.03763	4643.9875
2834.56959	4640.6875
2837.1	4623.1875
2839.62884	4667.1875
2842.15613	4689.7875
2844.68186	4737.7875
2847.20604	4810.3875
2849.72867	4884.8875
2852.24974	4977.1875
2854.76927	5051.1875
2857.28724	5134.7875
2859.80367	5234.4875
2862.31855	5342.2875
2864.83189	5443.0875
2867.34368	5559.0875
2869.85393	5667.9875
2872.36264	5707.9875
2874.8698	5718.0875
2877.37543	5715.6875
2879.87952	5728.7875
2882.38207	5683.8875
2884.88308	5677.5875
2887.38256	5667.7875
2889.88051	5650.9875
2892.37692	5656.1875
2894.8718	5657.4875
2897.36515	5650.2875
2899.85698	5659.5875
2902.34727	5646.2875
2904.83604	5604.1875
2907.32328	5574.2875
2909.809	5536.9875
2912.29319	5460.4875
2914.77587	5382.9875
2917.25702	5336.7875
2919.73665	5276.8875
2922.21476	5204.9875
2924.69136	5137.0875
2927.16644	5100.0875
2929.64	4983.7875
2932.11205	4935.6875
2934.58258	4871.6875
2937.05161	4798.8875
2939.51912	4733.5875
2941.98513	4678.9875
2944.44962	4612.5875
2946.91261	4559.0875
2949.37409	4522.1875
2951.83407	4481.4875
2954.29254	4435.6875
2956.74951	4390.5875
2959.20498	4349.4875
2961.65895	4286.4875
2964.11142	4229.6875
2966.56239	4181.2875
2969.01186	4114.0875
2971.45984	4042.3875
2973.90632	3983.5875
2976.35131	3941.5875
2978.7948	3885.2875
2981.23681	3856.9875
2983.67732	3828.5875
2986.11635	3819.0875
2988.55388	3813.9875
2990.98993	3824.2875
2993.4245	3844.9875
2995.85758	3846.1875
2998.28917	3869.8875
3000.71928	3901.0875
3003.14791	3907.1875
3005.57506	3918.7875
3008.00073	3920.0875
3010.42493	3973.6875
3012.84764	3932.6875
3015.26888	3911.9875
3017.68865	3909.6875
3020.10694	3874.3875
3022.52376	3838.7875
3024.9391	3813.9875
3027.35298	3755.0875
3029.76539	3688.9875
3032.17632	3619.1875
3034.5858	3566.8875
3036.9938	3505.7875
3039.40034	3442.4875
3041.80542	3408.8875
3044.20903	3360.2875
3046.61118	3349.1875
3049.01187	3301.9875
3051.4111	3283.5875
3053.80888	3253.0875
3056.20519	3242.6875
3058.60005	3213.7875
3060.99345	3200.2875
3063.3854	3173.1875
3065.7759	3131.4875
3068.16494	3088.4875
3070.55254	3070.0875
3072.93868	3032.4875
3075.32338	3013.5875
3077.70662	2982.9875
3080.08842	2984.0875
3082.46878	2965.5875
3084.84769	2955.5875
3087.22515	2953.2875
3089.60118	2953.1875
3091.97576	2933.5875
3094.3489	2927.0875
3096.72061	2923.1875
3099.09087	2911.3875
3101.4597	2914.7875
3103.82709	2912.2875
3106.19305	2922.9875
3108.55757	2915.4875
3110.92066	2900.0875
3113.28232	2922.8875
3115.64255	2905.5875
3118.00134	2906.2875
3120.35871	2907.8875
3122.71466	2899.3875
3125.06917	2921.2875
3127.42226	2916.7875
3129.77393	2935.1875
3132.12417	2944.4875
3134.47299	2948.1875
3136.82039	2986.9875
3139.16636	2995.0875
3141.51092	3006.8875
3143.85406	3026.1875
3146.19579	3032.4875
3148.53609	3055.6875
3150.87499	3083.3875
3153.21246	3106.7875
3155.54853	3124.4875
3157.88318	3129.8875
3160.21642	3154.3875
3162.54826	3153.7875
3164.87868	3137.9875
3167.2077	3148.5875
3169.5353	3163.9875
3171.86151	3159.6875
3174.18631	3139.0875
3176.5097	3154.6875
3178.83169	3159.5875
3181.15228	3153.9875
3183.47147	3175.8875
3185.78926	3171.2875
3188.10565	3191.8875
3190.42065	3220.5875
3192.73424	3233.6875
3195.04645	3275.5875
3197.35725	3293.9875
3199.66667	3344.3875
3201.97469	3379.1875
3204.28132	3422.0875
3206.58656	3469.2875
3208.8904	3508.2875
3211.19287	3554.6875
3213.49394	3583.9875
3215.79363	3625.1875
3218.09193	3659.0875
3220.38884	3678.8875
3222.68438	3702.2875
3224.97853	3731.5875
3227.2713	3750.6875
3229.56269	3766.9875
3231.8527	3779.0875
3234.14133	3768.9875
3236.42858	3785.7875
3238.71446	3782.2875
3240.99896	3797.9875
3243.28209	3803.3875
3245.56384	3809.4875
3247.84423	3815.7875
3250.12324	3821.5875
3252.40088	3827.8875
3254.67715	3819.5875
3256.95205	3846.4875
3259.22558	3855.4875
3261.49775	3851.8875
3263.76855	3864.6875
3266.03799	3866.3875
3268.30606	3877.5875
3270.57277	3878.4875
3272.83812	3895.6875
3275.10211	3894.0875
3277.36474	3916.0875
3279.62601	3920.4875
3281.88593	3916.7875
3284.14448	3955.1875
3286.40168	3944.5875
3288.65753	3979.6875
3290.91202	3990.1875
3293.16516	3989.4875
3295.41695	3969.9875
3297.66738	3968.4875
3299.91647	3939.0875
3302.16421	3886.5875
3304.4106	3825.8875
3306.65564	3758.3875
3308.89933	3692.0875
3311.14169	3638.0875
3313.38269	3580.6875
3315.62236	3522.4875
3317.86068	3467.0875
3320.09766	3423.3875
3322.3333	3364.1875
3324.5676	3317.0875
3326.80056	3241.7875
3329.03219	3200.9875
3331.26248	1.3875
3333.49143	0.1875
3335.71905	-2.5125
