Data from AgNPs_APTES_FTO_UA_100uM_CRN_0uM_R6G_10uM_Scan_RamanShift__23__16-09-32-953.txt Node

Date: Mon Jul 11 16:09:32 BST 2022
User: TCL
Spectrometer: QEP01345
Trigger mode: 4
Integration Time (sec): 7.000000E0
Scans to average: 10
Electric dark correction enabled: true
Nonlinearity correction enabled: false
Boxcar width: 0
XAxis mode: Raman Shifts
Number of Pixels in Spectrum: 1044
>>>>>Begin Spectral Data<<<<<
46.04893	-0.4625
50.45542	0.1375
54.85868	0.3375
59.25871	-2.9625
63.6555	33.3375
68.04907	38.7375
72.43941	42.7375
76.82654	41.1375
81.21044	49.7375
85.59113	47.6375
89.96862	50.2375
94.34289	50.2375
98.71396	53.5375
103.08183	51.5375
107.4465	52.8375
111.80798	56.4375
116.16626	55.5375
120.52136	59.9375
124.87327	63.8375
129.222	64.0375
133.56755	65.5375
137.90993	74.5375
142.24913	84.2375
146.58517	87.7375
150.91804	99.8375
155.24774	120.1375
159.57429	149.1375
163.89768	187.4375
168.21792	243.8375
172.53501	335.7375
176.84895	457.4375
181.15975	637.4375
185.46741	888.3375
189.77193	1223.9375
194.07331	1640.5375
198.37157	2097.3375
202.6667	2604.1375
206.9587	3095.3375
211.24758	3594.0375
215.53334	4081.6375
219.81599	4614.9375
224.09553	5199.2375
228.37195	5842.6375
232.64527	6560.2375
236.91549	7248.8375
241.18261	7944.9375
245.44663	8543.8375
249.70755	9009.1375
253.96539	9387.8375
258.22014	9695.1375
262.4718	9938.6375
266.72039	10106.6375
270.96589	10097.1375
275.20832	10047.9375
279.44768	9883.3375
283.68397	9671.1375
287.91719	9525.5375
292.14735	9512.7375
296.37445	9587.6375
300.59849	9735.2375
304.81948	9891.7375
309.03742	9957.5375
313.25231	9864.2375
317.46415	9551.9375
321.67296	9150.3375
325.87872	8838.1375
330.08145	8726.8375
334.28114	8770.4375
338.47781	8862.1375
342.67145	9007.5375
346.86207	9273.4375
351.04966	9606.6375
355.23424	9959.5375
359.4158	10273.2375
363.59435	10449.7375
367.76989	10624.0375
371.94243	10701.1375
376.11196	10795.8375
380.27849	10854.7375
384.44203	10877.9375
388.60257	10905.9375
392.76012	10934.7375
396.91468	11099.9375
401.06626	11267.1375
405.21485	11345.5375
409.36047	11198.6375
413.50311	10908.4375
417.64277	10699.0375
421.77947	10524.8375
425.9132	10317.1375
430.04396	10263.2375
434.17176	10340.0375
438.2966	10475.5375
442.41849	10684.2375
446.53742	10927.8375
450.6534	11159.6375
454.76644	11346.8375
458.87653	11378.0375
462.98368	11382.2375
467.08789	11266.8375
471.18916	11110.0375
475.2875	10981.4375
479.38291	10899.3375
483.4754	10835.0375
487.56496	10818.2375
491.6516	10840.7375
495.73531	10863.1375
499.81612	10835.5375
503.89401	10894.4375
507.96899	10947.8375
512.04106	11005.1375
516.11023	11083.2375
520.1765	11166.6375
524.23987	11171.5375
528.30034	11171.1375
532.35792	11171.2375
536.41261	11056.3375
540.46441	10910.8375
544.51333	10796.9375
548.55936	10774.3375
552.60252	10816.5375
556.64279	10868.4375
560.6802	10916.4375
564.71473	10971.2375
568.7464	11142.1375
572.7752	11179.2375
576.80114	11057.0375
580.82422	10952.1375
584.84444	10990.6375
588.86181	11132.5375
592.87633	11274.8375
596.888	11459.4375
600.89682	11768.2375
604.9028	12736.9375
608.90594	15104.9375
612.90624	17512.0375
616.90371	16118.4375
620.89834	12932.4375
624.89015	11836.4375
628.87913	11887.8375
632.86528	12228.5375
636.84862	12465.7375
640.82913	12300.1375
644.80683	11773.8375
648.78172	11357.7375
652.75379	11215.5375
656.72306	11348.4375
660.68952	11610.8375
664.65319	11542.8375
668.61405	11424.7375
672.57211	11572.8375
676.52738	11818.3375
680.47986	12095.8375
684.42955	12419.1375
688.37646	12629.2375
692.32058	12573.6375
696.26192	12296.1375
700.20048	12019.8375
704.13626	11804.0375
708.06928	11558.7375
711.99952	11299.9375
715.927	11125.9375
719.85171	11014.8375
723.77365	11013.7375
727.69284	10994.8375
731.60928	11028.8375
735.52295	10976.3375
739.43388	10901.0375
743.34206	10886.8375
747.24749	10859.7375
751.15017	10784.1375
755.05012	10860.3375
758.94733	11159.5375
762.8418	11931.5375
766.73354	13252.5375
770.62254	14656.6375
774.50882	15349.8375
778.39237	14801.9375
782.27321	13327.9375
786.15132	12020.7375
790.02671	11277.5375
793.89938	10934.6375
797.76935	10805.5375
801.6366	10765.6375
805.50115	10782.7375
809.36299	10813.5375
813.22213	10827.4375
817.07857	10752.9375
820.93231	10637.3375
824.78336	10543.5375
828.63172	10455.6375
832.47738	10460.0375
836.32036	10454.3375
840.16066	10456.2375
843.99827	10463.2375
847.8332	10453.9375
851.66546	10484.5375
855.49504	10503.9375
859.32195	10486.3375
863.1462	10498.8375
866.96777	10507.9375
870.78668	10540.6375
874.60293	10634.2375
878.41652	10672.6375
882.22745	10763.2375
886.03573	10845.1375
889.84136	10857.6375
893.64433	10743.0375
897.44466	10589.2375
901.24235	10412.2375
905.0374	10269.3375
908.8298	10138.6375
912.61957	10094.5375
916.40671	10088.7375
920.19121	10170.1375
923.97308	10220.5375
927.75233	10318.3375
931.52895	10363.2375
935.30295	10333.3375
939.07433	10176.7375
942.84309	10092.1375
946.60924	10081.4375
950.37278	10078.1375
954.13371	10057.5375
957.89203	10026.2375
961.64774	9984.0375
965.40086	9909.4375
969.15137	9802.8375
972.89929	9741.0375
976.64461	9710.2375
980.38733	9685.5375
984.12747	9724.7375
987.86502	9770.9375
991.59999	9840.4375
995.33237	9987.0375
999.06217	10228.3375
1002.78939	10501.8375
1006.51404	10708.1375
1010.23611	10907.9375
1013.95561	11091.0375
1017.67255	11170.6375
1021.38692	11071.5375
1025.09872	10958.8375
1028.80796	10904.3375
1032.51465	10972.7375
1036.21877	11073.0375
1039.92035	11040.3375
1043.61937	10971.2375
1047.31584	10797.4375
1051.00976	10638.7375
1054.70114	10570.6375
1058.38998	10561.1375
1062.07627	10590.4375
1065.76003	10634.5375
1069.44126	10705.1375
1073.11995	10775.0375
1076.79611	10859.0375
1080.46974	10936.5375
1084.14085	11006.6375
1087.80943	11120.8375
1091.47549	11167.7375
1095.13903	11062.9375
1098.80005	10880.6375
1102.45857	10750.1375
1106.11456	10697.0375
1109.76805	10791.2375
1113.41903	11028.3375
1117.06751	11305.9375
1120.71348	11691.9375
1124.35696	12165.7375
1127.99793	12626.0375
1131.63641	12888.3375
1135.2724	12794.5375
1138.90589	12500.7375
1142.5369	12193.1375
1146.16542	11767.5375
1149.79145	11440.6375
1153.415	11256.2375
1157.03607	11131.3375
1160.65467	11240.9375
1164.27079	11502.1375
1167.88443	11983.7375
1171.49561	12596.0375
1175.10432	13600.3375
1178.71056	14896.0375
1182.31434	16084.1375
1185.91565	16613.5375
1189.51451	16474.1375
1193.11091	15926.9375
1196.70485	15182.6375
1200.29634	14574.9375
1203.88538	14053.2375
1207.47197	13431.1375
1211.05612	12877.4375
1214.63782	12459.7375
1218.21708	12218.4375
1221.79391	12087.1375
1225.36829	12047.3375
1228.94024	12007.3375
1232.50976	11909.9375
1236.07685	11851.0375
1239.6415	11854.7375
1243.20374	11915.0375
1246.76355	12000.6375
1250.32093	12155.5375
1253.8759	12373.4375
1257.42845	12680.7375
1260.97859	12932.7375
1264.52631	13209.9375
1268.07163	13527.3375
1271.61453	13809.0375
1275.15503	14069.8375
1278.69312	14306.0375
1282.22882	14509.0375
1285.76211	14804.4375
1289.29301	15188.2375
1292.82151	15673.6375
1296.34761	16237.1375
1299.87133	16959.7375
1303.39266	18099.6375
1306.9116	19490.5375
1310.42815	20880.5375
1313.94233	21432.7375
1317.45412	20885.5375
1320.96354	19866.3375
1324.47058	18873.0375
1327.97525	17954.1375
1331.47754	17395.1375
1334.97747	17241.4375
1338.47502	17401.1375
1341.97022	17827.9375
1345.46305	18424.0375
1348.95352	19240.5375
1352.44163	20392.2375
1355.92738	21889.5375
1359.41078	23910.8375
1362.89183	25499.5375
1366.37053	24524.4375
1369.84688	21428.7375
1373.32088	18565.7375
1376.79254	16809.3375
1380.26186	15891.7375
1383.72883	15438.0375
1387.19347	15106.8375
1390.65578	14782.9375
1394.11575	14533.8375
1397.57339	14399.7375
1401.0287	14385.7375
1404.48168	14400.3375
1407.93234	14366.5375
1411.38068	14345.8375
1414.82669	14224.9375
1418.27039	14008.9375
1421.71177	13761.4375
1425.15083	13487.2375
1428.58758	13366.6375
1432.02203	13413.8375
1435.45416	13584.7375
1438.88399	13769.6375
1442.31151	13915.9375
1445.73673	14140.3375
1449.15965	14473.0375
1452.58027	14707.1375
1455.9986	14880.9375
1459.41463	15127.9375
1462.82837	15426.8375
1466.23982	15704.5375
1469.64898	15904.0375
1473.05586	16022.4375
1476.46045	15995.8375
1479.86276	15916.9375
1483.26279	15855.4375
1486.66054	15846.0375
1490.05602	15943.0375
1493.44922	16211.4375
1496.84016	16752.2375
1500.22882	17680.8375
1503.61521	19061.3375
1506.99934	20619.4375
1510.38121	21820.6375
1513.76081	21958.3375
1517.13816	20704.6375
1520.51324	18807.1375
1523.88607	17144.1375
1527.25665	16061.0375
1530.62498	15439.2375
1533.99105	15042.1375
1537.35488	14811.4375
1540.71647	14684.6375
1544.07581	14616.5375
1547.4329	14582.8375
1550.78776	14585.3375
1554.14038	14657.6375
1557.49077	14753.4375
1560.83892	14911.3375
1564.18484	15131.5375
1567.52853	15346.6375
1570.86999	15536.5375
1574.20922	15683.8375
1577.54624	15637.7375
1580.88103	15185.0375
1584.2136	14636.8375
1587.54395	14370.7375
1590.87208	14546.4375
1594.19801	15117.6375
1597.52172	15936.4375
1600.84321	16308.1375
1604.16251	16006.3375
1607.47959	15281.8375
1610.79447	14489.0375
1614.10715	13671.6375
1617.41763	13012.6375
1620.7259	12562.2375
1624.03199	12282.1375
1627.33587	12232.9375
1630.63757	12491.9375
1633.93707	12934.9375
1637.23439	13611.9375
1640.52951	14620.0375
1643.82246	15903.3375
1647.11321	17170.9375
1650.40179	17801.2375
1653.68819	17203.3375
1656.97241	15577.6375
1660.25446	13863.4375
1663.53433	12666.2375
1666.81203	11940.0375
1670.08756	11499.9375
1673.36092	11217.0375
1676.63211	10982.0375
1679.90115	10814.7375
1683.16801	10646.4375
1686.43272	10540.0375
1689.69527	10405.0375
1692.95567	10284.7375
1696.2139	10213.0375
1699.46999	10094.6375
1702.72392	9978.6375
1705.97571	9866.1375
1709.22535	9729.7375
1712.47284	9635.8375
1715.71819	9568.6375
1718.96139	9470.3375
1722.20246	9374.1375
1725.44139	9277.2375
1728.67818	9184.5375
1731.91284	9074.5375
1735.14537	9006.2375
1738.37576	8943.0375
1741.60403	8886.8375
1744.83017	8881.6375
1748.05418	8843.1375
1751.27607	8827.7375
1754.49584	8775.4375
1757.71349	8813.9375
1760.92903	8805.8375
1764.14244	8783.2375
1767.35375	8769.6375
1770.56294	8717.0375
1773.77002	8669.7375
1776.97499	8622.5375
1780.17785	8600.4375
1783.37861	8564.7375
1786.57727	8533.6375
1789.77382	8502.5375
1792.96828	8513.2375
1796.16064	8469.5375
1799.3509	8465.7375
1802.53907	8459.3375
1805.72514	8445.6375
1808.90913	8427.5375
1812.09102	8382.6375
1815.27083	8354.4375
1818.44856	8363.2375
1821.6242	8342.5375
1824.79776	8337.4375
1827.96924	8315.9375
1831.13864	8296.8375
1834.30597	8308.0375
1837.47122	8295.5375
1840.6344	8274.6375
1843.7955	8284.3375
1846.95454	8279.2375
1850.11151	8284.4375
1853.26642	8260.9375
1856.41926	8266.9375
1859.57004	8263.3375
1862.71876	8246.2375
1865.86542	8239.7375
1869.01003	8227.2375
1872.15258	8237.5375
1875.29308	8245.7375
1878.43152	8233.2375
1881.56792	8240.5375
1884.70227	8212.3375
1887.83457	8195.6375
1890.96482	8192.3375
1894.09304	8192.0375
1897.21921	8180.4375
1900.34335	8182.1375
1903.46544	8174.2375
1906.58551	8190.7375
1909.70353	8183.2375
1912.81953	8176.9375
1915.93349	8167.8375
1919.04543	8123.9375
1922.15534	8129.2375
1925.26322	8100.6375
1928.36908	8103.5375
1931.47292	8089.0375
1934.57473	8062.4375
1937.67453	8070.3375
1940.77232	8042.8375
1943.86808	8026.7375
1946.96184	8012.3375
1950.05358	7983.2375
1953.14331	7980.8375
1956.23103	7973.8375
1959.31675	7928.0375
1962.40046	7925.0375
1965.48217	7913.5375
1968.56188	7893.6375
1971.63959	7845.3375
1974.7153	7870.6375
1977.78901	7829.9375
1980.86073	7822.2375
1983.93046	7792.7375
1986.99819	7749.2375
1990.06394	7740.1375
1993.1277	7714.2375
1996.18947	7697.7375
1999.24925	7684.7375
2002.30706	7664.7375
2005.36288	7666.1375
2008.41672	7625.4375
2011.46859	7602.2375
2014.51848	7583.3375
2017.56639	7588.9375
2020.61233	7578.9375
2023.6563	7555.4375
2026.6983	7542.6375
2029.73833	7537.1375
2032.7764	7505.9375
2035.8125	7496.1375
2038.84664	7500.1375
2041.87881	7487.2375
2044.90903	7480.4375
2047.93729	7466.4375
2050.96359	7458.0375
2053.98794	7455.0375
2057.01034	7440.1375
2060.03078	7450.6375
2063.04927	7466.9375
2066.06582	7446.7375
2069.08042	7457.0375
2072.09307	7435.5375
2075.10378	7471.8375
2078.11255	7456.3375
2081.11938	7449.2375
2084.12426	7457.5375
2087.12722	7451.6375
2090.12824	7448.8375
2093.12732	7455.6375
2096.12447	7470.1375
2099.11969	7481.7375
2102.11299	7483.3375
2105.10435	7484.4375
2108.09379	7480.7375
2111.08131	7499.8375
2114.0669	7501.3375
2117.05057	7501.2375
2120.03233	7508.7375
2123.01216	7530.3375
2125.99008	7540.9375
2128.96609	7534.8375
2131.94018	7549.9375
2134.91236	7524.2375
2137.88263	7524.4375
2140.851	7517.7375
2143.81746	7527.3375
2146.78201	7541.8375
2149.74466	7534.9375
2152.7054	7531.8375
2155.66425	7520.3375
2158.6212	7525.3375
2161.57625	7545.1375
2164.52941	7519.8375
2167.48067	7528.9375
2170.43004	7534.0375
2173.37752	7552.1375
2176.32311	7549.0375
2179.26681	7552.5375
2182.20863	7543.7375
2185.14856	7543.3375
2188.08661	7565.6375
2191.02278	7544.2375
2193.95707	7562.9375
2196.88948	7540.7375
2199.82001	7543.3375
2202.74867	7545.8375
2205.67545	7524.2375
2208.60037	7545.6375
2211.52341	7539.2375
2214.44458	7522.1375
2217.36388	7511.5375
2220.28132	7509.0375
2223.1969	7498.9375
2226.11061	7487.8375
2229.02246	7496.2375
2231.93245	7467.2375
2234.84058	7435.5375
2237.74686	7458.4375
2240.65128	7451.8375
2243.55385	7449.1375
2246.45456	7439.9375
2249.35343	7427.8375
2252.25044	7438.2375
2255.14561	7427.2375
2258.03893	7435.3375
2260.93041	7408.5375
2263.82004	7419.9375
2266.70783	7407.7375
2269.59378	7379.7375
2272.4779	7370.3375
2275.36017	7336.3375
2278.24061	7342.5375
2281.11922	7340.3375
2283.996	7310.9375
2286.87094	7275.8375
2289.74405	7277.5375
2292.61534	7279.0375
2295.4848	7255.9375
2298.35243	7279.4375
2301.21824	7242.5375
2304.08223	7278.0375
2306.94439	7289.3375
2309.80474	7286.0375
2312.66327	7291.1375
2315.51999	7278.2375
2318.37489	7285.4375
2321.22797	7276.1375
2324.07925	7280.8375
2326.92871	7274.2375
2329.77637	7286.6375
2332.62222	7265.9375
2335.46626	7253.9375
2338.3085	7280.4375
2341.14893	7261.6375
2343.98756	7259.5375
2346.8244	7272.9375
2349.65943	7273.0375
2352.49267	7280.5375
2355.32411	7274.6375
2358.15376	7282.7375
2360.98161	7255.9375
2363.80768	7283.6375
2366.63195	7282.9375
2369.45444	7271.2375
2372.27514	7282.7375
2375.09405	7267.0375
2377.91118	7236.8375
2380.72652	7224.4375
2383.54009	7214.4375
2386.35187	7218.9375
2389.16188	7205.8375
2391.97011	7199.2375
2394.77657	7177.5375
2397.58125	7172.8375
2400.38416	7176.8375
2403.18529	7131.8375
2405.98466	7120.1375
2408.78226	7120.5375
2411.57809	7114.5375
2414.37216	7092.4375
2417.16446	7107.2375
2419.955	7123.1375
2422.74378	7102.6375
2425.5308	7095.4375
2428.31606	7093.7375
2431.09956	7090.6375
2433.88131	7083.3375
2436.6613	7091.8375
2439.43954	7084.7375
2442.21603	7088.5375
2444.99077	7070.5375
2447.76377	7083.5375
2450.53501	7083.4375
2453.30451	7068.0375
2456.07226	7052.4375
2458.83827	7072.0375
2461.60254	7070.7375
2464.36507	7070.3375
2467.12586	7069.2375
2469.88492	7060.9375
2472.64224	7088.2375
2475.39782	7074.7375
2478.15167	7090.4375
2480.90379	7087.0375
2483.65417	7110.5375
2486.40283	7109.7375
2489.14976	7115.2375
2491.89497	7121.7375
2494.63845	7130.1375
2497.3802	7118.4375
2500.12024	7136.9375
2502.85855	7118.0375
2505.59514	7115.0375
2508.33002	7113.1375
2511.06318	7082.3375
2513.79462	7056.2375
2516.52435	7040.9375
2519.25237	7056.7375
2521.97867	7027.9375
2524.70327	7033.2375
2527.42616	7037.8375
2530.14734	7044.2375
2532.86681	7013.3375
2535.58458	7029.5375
2538.30065	7036.4375
2541.01501	7041.7375
2543.72768	7021.5375
2546.43864	7025.1375
2549.14791	7027.0375
2551.85548	7034.7375
2554.56136	7015.1375
2557.26554	7018.3375
2559.96803	6995.4375
2562.66883	6992.5375
2565.36794	6988.5375
2568.06536	6967.4375
2570.7611	6981.3375
2573.45514	6972.7375
2576.14751	6980.6375
2578.83819	6976.7375
2581.52719	6941.0375
2584.21451	6962.1375
2586.90015	6940.3375
2589.58411	6936.0375
2592.2664	6945.6375
2594.94701	6934.8375
2597.62594	6918.1375
2600.30321	6929.7375
2602.9788	6932.8375
2605.65273	6899.8375
2608.32498	6931.7375
2610.99557	6903.6375
2613.66449	6904.7375
2616.33175	6917.2375
2618.99734	6944.0375
2621.66128	6910.3375
2624.32355	6901.6375
2626.98416	6904.1375
2629.64311	6902.8375
2632.30041	6905.3375
2634.95605	6899.3375
2637.61004	6893.6375
2640.26238	6894.5375
2642.91306	6887.2375
2645.56209	6866.9375
2648.20948	6863.7375
2650.85521	6881.5375
2653.4993	6859.1375
2656.14175	6860.9375
2658.78255	6882.5375
2661.42171	6886.3375
2664.05923	6891.0375
2666.6951	6907.0375
2669.32934	6911.0375
2671.96194	6919.6375
2674.59291	6929.2375
2677.22224	6933.5375
2679.84993	6930.0375
2682.476	6921.6375
2685.10043	6917.6375
2687.72324	6917.9375
2690.34441	6921.0375
2692.96396	6901.6375
2695.58188	6937.6375
2698.19818	6928.3375
2700.81285	6928.3375
2703.4259	6912.3375
2706.03733	6941.4375
2708.64714	6941.7375
2711.25533	6976.5375
2713.86191	6951.2375
2716.46687	6979.1375
2719.07021	6966.0375
2721.67194	6957.7375
2724.27206	6973.5375
2726.87057	6988.6375
2729.46747	6968.1375
2732.06276	7000.0375
2734.65644	6996.7375
2737.24852	7001.5375
2739.83899	6959.1375
2742.42786	6975.3375
2745.01513	6959.6375
2747.60079	6969.9375
2750.18486	6979.8375
2752.76733	6974.5375
2755.3482	6960.6375
2757.92747	6946.3375
2760.50515	6946.8375
2763.08123	6956.4375
2765.65573	6932.0375
2768.22863	6936.4375
2770.79994	6916.7375
2773.36967	6944.1375
2775.9378	6943.8375
2778.50435	6923.4375
2781.06932	6912.6375
2783.6327	6926.1375
2786.1945	6914.3375
2788.75471	6901.8375
2791.31335	6899.2375
2793.87041	6907.6375
2796.42589	6857.1375
2798.97979	6878.0375
2801.53212	6875.9375
2804.08288	6864.0375
2806.63206	6827.0375
2809.17967	6834.4375
2811.72571	6786.5375
2814.27018	6808.0375
2816.81308	6796.4375
2819.35442	6799.9375
2821.89419	6791.5375
2824.43239	6797.1375
2826.96904	6807.0375
2829.50412	6776.4375
2832.03763	6766.3375
2834.56959	6784.0375
2837.1	6773.4375
2839.62884	6796.2375
2842.15613	6780.1375
2844.68186	6793.0375
2847.20604	6798.5375
2849.72867	6790.0375
2852.24974	6780.9375
2854.76927	6785.7375
2857.28724	6778.5375
2859.80367	6786.9375
2862.31855	6774.3375
2864.83189	6755.4375
2867.34368	6763.2375
2869.85393	6756.2375
2872.36264	6767.7375
2874.8698	6767.4375
2877.37543	6754.0375
2879.87952	6778.9375
2882.38207	6769.8375
2884.88308	6778.5375
2887.38256	6776.1375
2889.88051	6788.8375
2892.37692	6784.0375
2894.8718	6765.4375
2897.36515	6801.3375
2899.85698	6814.9375
2902.34727	6823.0375
2904.83604	6838.2375
2907.32328	6843.2375
2909.809	6847.7375
2912.29319	6846.6375
2914.77587	6848.1375
2917.25702	6868.9375
2919.73665	6857.0375
2922.21476	6861.8375
2924.69136	6846.7375
2927.16644	6859.2375
2929.64	6842.9375
2932.11205	6843.5375
2934.58258	6815.7375
2937.05161	6826.1375
2939.51912	6794.7375
2941.98513	6805.1375
2944.44962	6822.8375
2946.91261	6808.1375
2949.37409	6820.0375
2951.83407	6805.9375
2954.29254	6800.6375
2956.74951	6800.1375
2959.20498	6799.2375
2961.65895	6786.3375
2964.11142	6791.2375
2966.56239	6781.6375
2969.01186	6780.0375
2971.45984	6760.5375
2973.90632	6753.2375
2976.35131	6729.0375
2978.7948	6745.0375
2981.23681	6734.7375
2983.67732	6725.3375
2986.11635	6698.3375
2988.55388	6681.6375
2990.98993	6683.2375
2993.4245	6686.9375
2995.85758	6652.0375
2998.28917	6641.6375
3000.71928	6656.8375
3003.14791	6600.3375
3005.57506	6624.0375
3008.00073	6611.8375
3010.42493	6607.1375
3012.84764	6585.8375
3015.26888	6577.5375
3017.68865	6561.4375
3020.10694	6572.3375
3022.52376	6550.0375
3024.9391	6543.0375
3027.35298	6534.4375
3029.76539	6566.8375
3032.17632	6521.5375
3034.5858	6532.7375
3036.9938	6537.1375
3039.40034	6500.9375
3041.80542	6541.9375
3044.20903	6520.3375
3046.61118	6514.0375
3049.01187	6505.6375
3051.4111	6497.3375
3053.80888	6491.4375
3056.20519	6483.9375
3058.60005	6478.7375
3060.99345	6475.0375
3063.3854	6463.9375
3065.7759	6435.5375
3068.16494	6416.7375
3070.55254	6397.2375
3072.93868	6390.5375
3075.32338	6404.3375
3077.70662	6375.0375
3080.08842	6372.8375
3082.46878	6355.5375
3084.84769	6321.0375
3087.22515	6335.9375
3089.60118	6340.7375
3091.97576	6361.0375
3094.3489	6353.8375
3096.72061	6383.0375
3099.09087	6373.6375
3101.4597	6373.3375
3103.82709	6382.8375
3106.19305	6379.3375
3108.55757	6412.3375
3110.92066	6403.6375
3113.28232	6379.1375
3115.64255	6367.0375
3118.00134	6334.3375
3120.35871	6343.5375
3122.71466	6347.7375
3125.06917	6330.3375
3127.42226	6305.7375
3129.77393	6323.3375
3132.12417	6293.2375
3134.47299	6312.1375
3136.82039	6318.1375
3139.16636	6330.9375
3141.51092	6328.1375
3143.85406	6322.2375
3146.19579	6319.4375
3148.53609	6316.9375
3150.87499	6330.1375
3153.21246	6325.7375
3155.54853	6365.3375
3157.88318	6349.2375
3160.21642	6363.0375
3162.54826	6377.7375
3164.87868	6382.5375
3167.2077	6375.9375
3169.5353	6391.2375
3171.86151	6395.8375
3174.18631	6372.8375
3176.5097	6378.4375
3178.83169	6362.8375
3181.15228	6369.9375
3183.47147	6375.2375
3185.78926	6357.4375
3188.10565	6330.3375
3190.42065	6358.6375
3192.73424	6350.7375
3195.04645	6352.0375
3197.35725	6377.8375
3199.66667	6361.8375
3201.97469	6368.9375
3204.28132	6375.6375
3206.58656	6407.5375
3208.8904	6394.8375
3211.19287	6378.0375
3213.49394	6400.3375
3215.79363	6388.8375
3218.09193	6396.2375
3220.38884	6409.1375
3222.68438	6434.1375
3224.97853	6421.8375
3227.2713	6401.8375
3229.56269	6414.6375
3231.8527	6418.5375
3234.14133	6403.4375
3236.42858	6393.8375
3238.71446	6403.2375
3240.99896	6368.9375
3243.28209	6385.7375
3245.56384	6370.6375
3247.84423	6358.4375
3250.12324	6387.3375
3252.40088	6351.7375
3254.67715	6360.5375
3256.95205	6337.0375
3259.22558	6369.0375
3261.49775	6351.6375
3263.76855	6373.5375
3266.03799	6360.8375
3268.30606	6370.3375
3270.57277	6358.6375
3272.83812	6338.6375
3275.10211	6330.8375
3277.36474	6307.5375
3279.62601	6323.4375
3281.88593	6289.2375
3284.14448	6330.4375
3286.40168	6313.0375
3288.65753	6329.7375
3290.91202	6310.8375
3293.16516	6303.2375
3295.41695	6288.6375
3297.66738	6276.9375
3299.91647	6241.0375
3302.16421	6202.3375
3304.4106	6176.2375
3306.65564	6165.0375
3308.89933	6119.1375
3311.14169	6098.7375
3313.38269	6040.5375
3315.62236	6013.9375
3317.86068	5969.6375
3320.09766	5951.3375
3322.3333	5914.2375
3324.5676	5892.2375
3326.80056	5825.4375
3329.03219	5801.7375
3331.26248	3.5375
3333.49143	-0.5625
3335.71905	0.0375
