Data from AgNPs_APTES_FTO_UA_100uM_CRN_0uM_R6G_10uM_Scan_RamanShift__20__16-06-02-949.txt Node

Date: Mon Jul 11 16:06:02 BST 2022
User: TCL
Spectrometer: QEP01345
Trigger mode: 4
Integration Time (sec): 7.000000E0
Scans to average: 10
Electric dark correction enabled: true
Nonlinearity correction enabled: false
Boxcar width: 0
XAxis mode: Raman Shifts
Number of Pixels in Spectrum: 1044
>>>>>Begin Spectral Data<<<<<
46.04893	0.1
50.45542	-0.6
54.85868	0.1
59.25871	-2.2
63.6555	34.1
68.04907	35.9
72.43941	37.5
76.82654	40
81.21044	43.8
85.59113	45.8
89.96862	49
94.34289	48.2
98.71396	50.8
103.08183	51
107.4465	50.8
111.80798	53.8
116.16626	54
120.52136	56.2
124.87327	60.8
129.222	65.4
133.56755	63.9
137.90993	71.6
142.24913	76.8
146.58517	81.8
150.91804	99.7
155.24774	119
159.57429	146.8
163.89768	185.9
168.21792	238.1
172.53501	323.8
176.84895	454.2
181.15975	627.2
185.46741	872.3
189.77193	1210.7
194.07331	1620.1
198.37157	2073.7
202.6667	2566.3
206.9587	3047.9
211.24758	3530.9
215.53334	4020.1
219.81599	4536.1
224.09553	5112
228.37195	5747.6
232.64527	6437
236.91549	7114.4
241.18261	7822.5
245.44663	8389.1
249.70755	8857.6
253.96539	9255.9
258.22014	9551.6
262.4718	9777.1
266.72039	9897.7
270.96589	9936.4
275.20832	9869.4
279.44768	9721.6
283.68397	9509.9
287.91719	9353.5
292.14735	9332.6
296.37445	9377.5
300.59849	9498.1
304.81948	9642.4
309.03742	9676.6
313.25231	9555.3
317.46415	9260.1
321.67296	8930.9
325.87872	8645.5
330.08145	8518.9
334.28114	8573
338.47781	8653.3
342.67145	8811.2
346.86207	9045
351.04966	9352.6
355.23424	9675.3
359.4158	9969.6
363.59435	10167.5
367.76989	10294.3
371.94243	10395
376.11196	10480
380.27849	10546.7
384.44203	10608.5
388.60257	10638
392.76012	10683.5
396.91468	10763.9
401.06626	10961.5
405.21485	11063.2
409.36047	10946.8
413.50311	10711.7
417.64277	10607.4
421.77947	10436.4
425.9132	10164.5
430.04396	10099.2
434.17176	10142.2
438.2966	10265.7
442.41849	10457.1
446.53742	10691.9
450.6534	10934.7
454.76644	11086.9
458.87653	11159
462.98368	11156.1
467.08789	11069.6
471.18916	10947.1
475.2875	10790.8
479.38291	10725.3
483.4754	10681.1
487.56496	10636.9
491.6516	10616.7
495.73531	10646.5
499.81612	10648.8
503.89401	10698.4
507.96899	10742.3
512.04106	10794
516.11023	10897.7
520.1765	10952
524.23987	10932.1
528.30034	10932.1
532.35792	10916.1
536.41261	10841.7
540.46441	10726.1
544.51333	10594
548.55936	10583.5
552.60252	10629.9
556.64279	10706.3
560.6802	10730.4
564.71473	10802.8
568.7464	10888.9
572.7752	10964.2
576.80114	10855.4
580.82422	10788.2
584.84444	10812.9
588.86181	10931.6
592.87633	11041.9
596.888	11202.1
600.89682	11486.3
604.9028	12428.8
608.90594	14638.1
612.90624	16808.7
616.90371	15492.4
620.89834	12528.5
624.89015	11466.4
628.87913	11463.7
632.86528	11783.1
636.84862	12020.3
640.82913	11856.5
644.80683	11403.2
648.78172	11077.8
652.75379	10957.3
656.72306	11126.1
660.68952	11332.9
664.65319	11284.1
668.61405	11232.5
672.57211	11399.2
676.52738	11675.2
680.47986	12018.6
684.42955	12372.7
688.37646	12643.7
692.32058	12600.7
696.26192	12301.7
700.20048	12007.9
704.13626	11804
708.06928	11548.7
711.99952	11282.5
715.927	11032.9
719.85171	10879.5
723.77365	10822.7
727.69284	10811
731.60928	10812.9
735.52295	10783.1
739.43388	10750.3
743.34206	10744.2
747.24749	10655.1
751.15017	10603.6
755.05012	10649
758.94733	10932.3
762.8418	11655.7
766.73354	12891.2
770.62254	14251.2
774.50882	14924.2
778.39237	14364.7
782.27321	12982
786.15132	11801.8
790.02671	11089.3
793.89938	10751.4
797.76935	10608.6
801.6366	10580.9
805.50115	10581.8
809.36299	10583.7
813.22213	10540
817.07857	10471.4
820.93231	10365.7
824.78336	10307.5
828.63172	10290.7
832.47738	10264.7
836.32036	10254.6
840.16066	10257.8
843.99827	10272.9
847.8332	10263.8
851.66546	10247
855.49504	10323.2
859.32195	10319.2
863.1462	10341.2
866.96777	10332.3
870.78668	10357.3
874.60293	10381.3
878.41652	10442.1
882.22745	10507.4
886.03573	10545.7
889.84136	10551.6
893.64433	10458.8
897.44466	10309.5
901.24235	10180.8
905.0374	10046
908.8298	9938.8
912.61957	9889.7
916.40671	9872.4
920.19121	9981
923.97308	10025.6
927.75233	10115.1
931.52895	10170.2
935.30295	10130.5
939.07433	10013.7
942.84309	9923.8
946.60924	9937.9
950.37278	9933.7
954.13371	9932.6
957.89203	9879.1
961.64774	9845.6
965.40086	9764.1
969.15137	9673.2
972.89929	9589.1
976.64461	9571.2
980.38733	9537.7
984.12747	9583.8
987.86502	9617.3
991.59999	9681.3
995.33237	9788
999.06217	10020.5
1002.78939	10261.3
1006.51404	10476
1010.23611	10666.8
1013.95561	10814.8
1017.67255	10920.4
1021.38692	10858.5
1025.09872	10693
1028.80796	10639.3
1032.51465	10694.4
1036.21877	10742.5
1039.92035	10768.8
1043.61937	10701.2
1047.31584	10563.1
1051.00976	10434.3
1054.70114	10377.6
1058.38998	10387.3
1062.07627	10408.9
1065.76003	10462.5
1069.44126	10520.6
1073.11995	10596.1
1076.79611	10680.1
1080.46974	10763.9
1084.14085	10818.9
1087.80943	10924.3
1091.47549	10987.1
1095.13903	10875.5
1098.80005	10717.6
1102.45857	10596.9
1106.11456	10548.9
1109.76805	10651.9
1113.41903	10825.1
1117.06751	11062.5
1120.71348	11412
1124.35696	11800.7
1127.99793	12215
1131.63641	12453.9
1135.2724	12336.4
1138.90589	12119.9
1142.5369	11802.6
1146.16542	11477.8
1149.79145	11178.3
1153.415	10989.5
1157.03607	10945
1160.65467	11066.9
1164.27079	11373.7
1167.88443	11810.5
1171.49561	12433.1
1175.10432	13350.4
1178.71056	14589.7
1182.31434	15699
1185.91565	16206.5
1189.51451	16149.3
1193.11091	15642.7
1196.70485	14944.2
1200.29634	14329.1
1203.88538	13788.9
1207.47197	13174.5
1211.05612	12621.7
1214.63782	12228.4
1218.21708	11961.5
1221.79391	11865.5
1225.36829	11852
1228.94024	11789.8
1232.50976	11712.8
1236.07685	11657.3
1239.6415	11675.1
1243.20374	11710.8
1246.76355	11832
1250.32093	11937.7
1253.8759	12159.8
1257.42845	12458.6
1260.97859	12721
1264.52631	12997.4
1268.07163	13304.6
1271.61453	13599.1
1275.15503	13880.9
1278.69312	14138.4
1282.22882	14318
1285.76211	14564.7
1289.29301	14926.5
1292.82151	15397.2
1296.34761	15967.1
1299.87133	16708.2
1303.39266	17723.9
1306.9116	19015.9
1310.42815	20254.2
1313.94233	20760.8
1317.45412	20322.4
1320.96354	19459.4
1324.47058	18497.1
1327.97525	17743.2
1331.47754	17196.6
1334.97747	17055.5
1338.47502	17231.3
1341.97022	17621.1
1345.46305	18119.4
1348.95352	18900.7
1352.44163	19966.5
1355.92738	21355.2
1359.41078	23151.1
1362.89183	24538.8
1366.37053	23627.7
1369.84688	20755.5
1373.32088	18094.7
1376.79254	16489.6
1380.26186	15623.9
1383.72883	15185.9
1387.19347	14877.6
1390.65578	14594.7
1394.11575	14341
1397.57339	14213.3
1401.0287	14188.5
1404.48168	14190.9
1407.93234	14164.7
1411.38068	14094.5
1414.82669	14011.9
1418.27039	13809.1
1421.71177	13569.1
1425.15083	13340.1
1428.58758	13178.9
1432.02203	13216.4
1435.45416	13377.5
1438.88399	13583.3
1442.31151	13789.8
1445.73673	14056.5
1449.15965	14333.4
1452.58027	14624.3
1455.9986	14868.3
1459.41463	15137.7
1462.82837	15431.8
1466.23982	15759.4
1469.64898	15959.5
1473.05586	16024.7
1476.46045	15983.2
1479.86276	15876.7
1483.26279	15769.7
1486.66054	15713.1
1490.05602	15796.2
1493.44922	15989.9
1496.84016	16467.6
1500.22882	17261
1503.61521	18566.9
1506.99934	19958
1510.38121	21036.7
1513.76081	21128.3
1517.13816	20058.3
1520.51324	18307.1
1523.88607	16784.4
1527.25665	15746.3
1530.62498	15162.9
1533.99105	14814.8
1537.35488	14595.7
1540.71647	14457.1
1544.07581	14389.3
1547.4329	14350.2
1550.78776	14348.4
1554.14038	14412.4
1557.49077	14497.4
1560.83892	14675.3
1564.18484	14870.7
1567.52853	15067.5
1570.86999	15239.4
1574.20922	15378.4
1577.54624	15291.9
1580.88103	14913.4
1584.2136	14402.2
1587.54395	14173.4
1590.87208	14332
1594.19801	14865.4
1597.52172	15591.3
1600.84321	15972.8
1604.16251	15649.6
1607.47959	14975.3
1610.79447	14205.6
1614.10715	13450.7
1617.41763	12791.8
1620.7259	12336.8
1624.03199	12077.8
1627.33587	12014
1630.63757	12219.5
1633.93707	12646.1
1637.23439	13296.7
1640.52951	14242.4
1643.82246	15452
1647.11321	16661
1650.40179	17287
1653.68819	16697.7
1656.97241	15156
1660.25446	13543.6
1663.53433	12415.3
1666.81203	11695.3
1670.08756	11260.4
1673.36092	10980.4
1676.63211	10774.2
1679.90115	10618.5
1683.16801	10447.6
1686.43272	10337.6
1689.69527	10226.1
1692.95567	10114.9
1696.2139	10035.6
1699.46999	9933.4
1702.72392	9803.9
1705.97571	9706.5
1709.22535	9595.7
1712.47284	9536
1715.71819	9454.6
1718.96139	9364.5
1722.20246	9256.8
1725.44139	9174.6
1728.67818	9063.9
1731.91284	8994.8
1735.14537	8905.7
1738.37576	8839.3
1741.60403	8787
1744.83017	8748
1748.05418	8713.3
1751.27607	8704.3
1754.49584	8687.7
1757.71349	8675.1
1760.92903	8679.5
1764.14244	8677.4
1767.35375	8656.5
1770.56294	8595.1
1773.77002	8557.4
1776.97499	8529.5
1780.17785	8501.7
1783.37861	8462.3
1786.57727	8447.6
1789.77382	8392.4
1792.96828	8357.3
1796.16064	8367.7
1799.3509	8365.9
1802.53907	8356.4
1805.72514	8320.1
1808.90913	8293.8
1812.09102	8282.4
1815.27083	8257.9
1818.44856	8238.9
1821.6242	8247.6
1824.79776	8207.6
1827.96924	8197.8
1831.13864	8204.2
1834.30597	8183.3
1837.47122	8187.2
1840.6344	8163.5
1843.7955	8177.9
1846.95454	8171.8
1850.11151	8162.9
1853.26642	8173.1
1856.41926	8150
1859.57004	8150.3
1862.71876	8130.5
1865.86542	8139.4
1869.01003	8148.2
1872.15258	8168.1
1875.29308	8131.2
1878.43152	8118.9
1881.56792	8123.2
1884.70227	8102.1
1887.83457	8110.7
1890.96482	8088.3
1894.09304	8074.2
1897.21921	8081.5
1900.34335	8084.3
1903.46544	8097.3
1906.58551	8091.6
1909.70353	8078
1912.81953	8065.3
1915.93349	8061.3
1919.04543	8041.2
1922.15534	8013.7
1925.26322	8020.8
1928.36908	8015
1931.47292	8004.7
1934.57473	7979
1937.67453	7969.4
1940.77232	7933.5
1943.86808	7921.7
1946.96184	7933.6
1950.05358	7904.8
1953.14331	7871.8
1956.23103	7856.4
1959.31675	7842.9
1962.40046	7820.9
1965.48217	7814.2
1968.56188	7802.6
1971.63959	7781.6
1974.7153	7752.1
1977.78901	7750.6
1980.86073	7753.2
1983.93046	7699.9
1986.99819	7667.9
1990.06394	7663.1
1993.1277	7627.3
1996.18947	7605.6
1999.24925	7596.3
2002.30706	7578.4
2005.36288	7541.1
2008.41672	7533.2
2011.46859	7504.3
2014.51848	7503.7
2017.56639	7475.1
2020.61233	7490
2023.6563	7471.8
2026.6983	7433.2
2029.73833	7448.1
2032.7764	7426.4
2035.8125	7412.9
2038.84664	7398.4
2041.87881	7406.6
2044.90903	7386.2
2047.93729	7358.6
2050.96359	7394
2053.98794	7361.8
2057.01034	7387.6
2060.03078	7360.8
2063.04927	7375.4
2066.06582	7361
2069.08042	7379.6
2072.09307	7385.3
2075.10378	7390.6
2078.11255	7376.5
2081.11938	7373.5
2084.12426	7364.8
2087.12722	7388.4
2090.12824	7371.4
2093.12732	7370.7
2096.12447	7399.9
2099.11969	7405.7
2102.11299	7423.7
2105.10435	7394.7
2108.09379	7425.3
2111.08131	7441
2114.0669	7428.3
2117.05057	7438.5
2120.03233	7443.7
2123.01216	7433.6
2125.99008	7447.1
2128.96609	7456.7
2131.94018	7463.2
2134.91236	7454.1
2137.88263	7451.5
2140.851	7439.6
2143.81746	7460.9
2146.78201	7447.1
2149.74466	7464
2152.7054	7460.7
2155.66425	7469.7
2158.6212	7443.7
2161.57625	7440.5
2164.52941	7455.3
2167.48067	7449.8
2170.43004	7462.1
2173.37752	7462.4
2176.32311	7458.5
2179.26681	7464.6
2182.20863	7469.5
2185.14856	7472.3
2188.08661	7484.6
2191.02278	7468.4
2193.95707	7452.9
2196.88948	7448.2
2199.82001	7471.7
2202.74867	7468.2
2205.67545	7480.8
2208.60037	7458.9
2211.52341	7455.7
2214.44458	7433.6
2217.36388	7430.4
2220.28132	7428
2223.1969	7406
2226.11061	7431.3
2229.02246	7409.7
2231.93245	7407.5
2234.84058	7380.9
2237.74686	7372.5
2240.65128	7368.1
2243.55385	7351.2
2246.45456	7359.4
2249.35343	7354.9
2252.25044	7341.8
2255.14561	7346.4
2258.03893	7356.3
2260.93041	7341.5
2263.82004	7332.1
2266.70783	7332.8
2269.59378	7320.8
2272.4779	7279.4
2275.36017	7247.2
2278.24061	7261.5
2281.11922	7240.2
2283.996	7213.6
2286.87094	7209
2289.74405	7204.5
2292.61534	7213.4
2295.4848	7187
2298.35243	7212.3
2301.21824	7208.7
2304.08223	7219.2
2306.94439	7214.8
2309.80474	7219.8
2312.66327	7206.9
2315.51999	7202.2
2318.37489	7220.9
2321.22797	7196.3
2324.07925	7210.9
2326.92871	7207
2329.77637	7200.5
2332.62222	7181.3
2335.46626	7187.7
2338.3085	7193.5
2341.14893	7192.8
2343.98756	7192.8
2346.8244	7205.5
2349.65943	7187.4
2352.49267	7190.6
2355.32411	7214.1
2358.15376	7211.9
2360.98161	7206
2363.80768	7218.8
2366.63195	7207.8
2369.45444	7205.9
2372.27514	7206.7
2375.09405	7211
2377.91118	7162.8
2380.72652	7170.8
2383.54009	7157.3
2386.35187	7153.4
2389.16188	7148
2391.97011	7127.7
2394.77657	7106.8
2397.58125	7087.7
2400.38416	7089.1
2403.18529	7063.8
2405.98466	7066.4
2408.78226	7044.8
2411.57809	7062.9
2414.37216	7038.6
2417.16446	7050.4
2419.955	7040.8
2422.74378	7022.4
2425.5308	7029.9
2428.31606	7036.8
2431.09956	7021.8
2433.88131	7029
2436.6613	7014.4
2439.43954	7033.7
2442.21603	7017.2
2444.99077	7025.1
2447.76377	7040.6
2450.53501	7032.7
2453.30451	7019
2456.07226	7037.4
2458.83827	7021
2461.60254	7018.8
2464.36507	7005.9
2467.12586	7015.3
2469.88492	6997.5
2472.64224	7014.4
2475.39782	7016.4
2478.15167	7019.2
2480.90379	7020.9
2483.65417	7044.8
2486.40283	7050.4
2489.14976	7064.5
2491.89497	7053.6
2494.63845	7053.3
2497.3802	7071.2
2500.12024	7065.4
2502.85855	7063.7
2505.59514	7050.6
2508.33002	7039
2511.06318	7036.2
2513.79462	7024.1
2516.52435	7016.4
2519.25237	6987.9
2521.97867	6980.4
2524.70327	6973.7
2527.42616	6982
2530.14734	6970.5
2532.86681	6968.9
2535.58458	6977
2538.30065	6980.1
2541.01501	6991.2
2543.72768	6953.7
2546.43864	6978.5
2549.14791	6972.2
2551.85548	6978
2554.56136	6966.3
2557.26554	6962
2559.96803	6942.9
2562.66883	6937.2
2565.36794	6946.5
2568.06536	6919
2570.7611	6917.7
2573.45514	6921.7
2576.14751	6935.9
2578.83819	6907.6
2581.52719	6902.8
2584.21451	6889.9
2586.90015	6899.9
2589.58411	6870.2
2592.2664	6899.8
2594.94701	6892.4
2597.62594	6884.4
2600.30321	6883.4
2602.9788	6868.2
2605.65273	6857.4
2608.32498	6862.6
2610.99557	6858.7
2613.66449	6864
2616.33175	6854.3
2618.99734	6862.4
2621.66128	6868.5
2624.32355	6851.4
2626.98416	6859.9
2629.64311	6845
2632.30041	6859.5
2634.95605	6842.9
2637.61004	6832.9
2640.26238	6822
2642.91306	6830.4
2645.56209	6849.1
2648.20948	6824.2
2650.85521	6840.9
2653.4993	6813.7
2656.14175	6814.2
2658.78255	6831.1
2661.42171	6835.1
2664.05923	6866.8
2666.6951	6841.7
2669.32934	6854.8
2671.96194	6864.4
2674.59291	6874.6
2677.22224	6876.6
2679.84993	6885.2
2682.476	6868.9
2685.10043	6873.8
2687.72324	6852.6
2690.34441	6858.1
2692.96396	6882.1
2695.58188	6878.2
2698.19818	6885.4
2700.81285	6889.8
2703.4259	6884.5
2706.03733	6894.8
2708.64714	6910.7
2711.25533	6925.7
2713.86191	6901.1
2716.46687	6947.9
2719.07021	6929.2
2721.67194	6938.4
2724.27206	6920.8
2726.87057	6928.6
2729.46747	6929.9
2732.06276	6950.5
2734.65644	6950.6
2737.24852	6942.3
2739.83899	6918.6
2742.42786	6938.9
2745.01513	6919.1
2747.60079	6933.9
2750.18486	6931.5
2752.76733	6911.4
2755.3482	6908.7
2757.92747	6923.5
2760.50515	6895.2
2763.08123	6918.5
2765.65573	6900.4
2768.22863	6892.1
2770.79994	6889.3
2773.36967	6904.5
2775.9378	6898.4
2778.50435	6876.9
2781.06932	6881.8
2783.6327	6872.8
2786.1945	6894
2788.75471	6853.1
2791.31335	6862.7
2793.87041	6861.6
2796.42589	6824
2798.97979	6835.9
2801.53212	6819.1
2804.08288	6800.7
2806.63206	6808.3
2809.17967	6790.7
2811.72571	6774.2
2814.27018	6758.5
2816.81308	6739.7
2819.35442	6756.6
2821.89419	6746.4
2824.43239	6765.4
2826.96904	6725.5
2829.50412	6755.3
2832.03763	6741.1
2834.56959	6751.6
2837.1	6731.5
2839.62884	6731.9
2842.15613	6715.8
2844.68186	6734.6
2847.20604	6720
2849.72867	6750.8
2852.24974	6745.5
2854.76927	6746
2857.28724	6740.6
2859.80367	6732.3
2862.31855	6718.3
2864.83189	6718.7
2867.34368	6721.7
2869.85393	6723
2872.36264	6715.9
2874.8698	6736.7
2877.37543	6743.4
2879.87952	6720.5
2882.38207	6737
2884.88308	6732.3
2887.38256	6754
2889.88051	6727.3
2892.37692	6732.3
2894.8718	6741.4
2897.36515	6763.9
2899.85698	6758.3
2902.34727	6774.4
2904.83604	6780.5
2907.32328	6808.3
2909.809	6801.5
2912.29319	6810.1
2914.77587	6814.2
2917.25702	6815.5
2919.73665	6832.3
2922.21476	6830.5
2924.69136	6821.1
2927.16644	6843.5
2929.64	6807.7
2932.11205	6806.9
2934.58258	6790.3
2937.05161	6798.5
2939.51912	6791.9
2941.98513	6784
2944.44962	6772.1
2946.91261	6761.8
2949.37409	6774.3
2951.83407	6781.1
2954.29254	6771.9
2956.74951	6770.1
2959.20498	6773.3
2961.65895	6749.2
2964.11142	6770.1
2966.56239	6730.9
2969.01186	6745.6
2971.45984	6729.9
2973.90632	6718.9
2976.35131	6709.8
2978.7948	6696.4
2981.23681	6696.5
2983.67732	6665
2986.11635	6667.8
2988.55388	6646.8
2990.98993	6641.9
2993.4245	6624
2995.85758	6621.8
2998.28917	6621.5
3000.71928	6615.6
3003.14791	6603.2
3005.57506	6592.8
3008.00073	6564.3
3010.42493	6581
3012.84764	6566.7
3015.26888	6581.6
3017.68865	6549.1
3020.10694	6554.9
3022.52376	6541.1
3024.9391	6528.6
3027.35298	6501.4
3029.76539	6533.6
3032.17632	6515.5
3034.5858	6507
3036.9938	6510.2
3039.40034	6488.3
3041.80542	6511.8
3044.20903	6498.1
3046.61118	6481.1
3049.01187	6472.5
3051.4111	6473.6
3053.80888	6468.7
3056.20519	6448
3058.60005	6439.1
3060.99345	6425.8
3063.3854	6423.4
3065.7759	6400.4
3068.16494	6399.7
3070.55254	6360.6
3072.93868	6375.3
3075.32338	6376.4
3077.70662	6354.3
3080.08842	6343.2
3082.46878	6334
3084.84769	6324
3087.22515	6305.6
3089.60118	6314.3
3091.97576	6324.2
3094.3489	6335.9
3096.72061	6344.8
3099.09087	6340.6
3101.4597	6338.1
3103.82709	6344.7
3106.19305	6365.2
3108.55757	6364.7
3110.92066	6359.2
3113.28232	6354.4
3115.64255	6321
3118.00134	6327.5
3120.35871	6301.6
3122.71466	6323.2
3125.06917	6316.4
3127.42226	6285.3
3129.77393	6275.8
3132.12417	6286.9
3134.47299	6286.6
3136.82039	6287.7
3139.16636	6288.3
3141.51092	6299.5
3143.85406	6308.4
3146.19579	6288
3148.53609	6308
3150.87499	6299.9
3153.21246	6290.7
3155.54853	6324.7
3157.88318	6318.6
3160.21642	6346.5
3162.54826	6351.5
3164.87868	6331.8
3167.2077	6347.6
3169.5353	6357.1
3171.86151	6350.3
3174.18631	6356.3
3176.5097	6345.5
3178.83169	6340.9
3181.15228	6352.6
3183.47147	6335.1
3185.78926	6323.1
3188.10565	6313.6
3190.42065	6302
3192.73424	6324.3
3195.04645	6334.4
3197.35725	6322.8
3199.66667	6329.3
3201.97469	6336.9
3204.28132	6342.4
3206.58656	6361.4
3208.8904	6348.1
3211.19287	6362.4
3213.49394	6356.7
3215.79363	6359.2
3218.09193	6367.1
3220.38884	6374.2
3222.68438	6391.6
3224.97853	6383.9
3227.2713	6374
3229.56269	6391.8
3231.8527	6393.2
3234.14133	6371.7
3236.42858	6361.8
3238.71446	6342.7
3240.99896	6329.1
3243.28209	6336.2
3245.56384	6328.5
3247.84423	6326
3250.12324	6320.7
3252.40088	6312.9
3254.67715	6321.5
3256.95205	6329.6
3259.22558	6321.6
3261.49775	6345.8
3263.76855	6337.4
3266.03799	6335.6
3268.30606	6320.1
3270.57277	6313.9
3272.83812	6318.6
3275.10211	6281.2
3277.36474	6272.8
3279.62601	6289.4
3281.88593	6273.6
3284.14448	6291.8
3286.40168	6277.2
3288.65753	6288.2
3290.91202	6273.5
3293.16516	6265.1
3295.41695	6252
3297.66738	6260.6
3299.91647	6207.2
3302.16421	6150.3
3304.4106	6139.9
3306.65564	6122.3
3308.89933	6086.1
3311.14169	6060.6
3313.38269	6017.1
3315.62236	5996
3317.86068	5946
3320.09766	5904.9
3322.3333	5883.1
3324.5676	5867.6
3326.80056	5802.4
3329.03219	5746.8
3331.26248	3.4
3333.49143	0.1
3335.71905	-1.2
