Data from AgNPs_APTES_FTO_UA_100uM_CRN_0uM_R6G_10uM_Scan_RamanShift__34__16-22-22-965.txt Node

Date: Mon Jul 11 16:22:22 BST 2022
User: TCL
Spectrometer: QEP01345
Trigger mode: 4
Integration Time (sec): 7.000000E0
Scans to average: 10
Electric dark correction enabled: true
Nonlinearity correction enabled: false
Boxcar width: 0
XAxis mode: Raman Shifts
Number of Pixels in Spectrum: 1044
>>>>>Begin Spectral Data<<<<<
46.04893	1.0375
50.45542	0.4375
54.85868	0.4375
59.25871	-1.8625
63.6555	37.9375
68.04907	42.2375
72.43941	40.6375
76.82654	41.4375
81.21044	49.0375
85.59113	50.0375
89.96862	53.4375
94.34289	52.7375
98.71396	55.8375
103.08183	58.3375
107.4465	54.3375
111.80798	56.7375
116.16626	61.0375
120.52136	63.8375
124.87327	67.5375
129.222	68.3375
133.56755	72.0375
137.90993	78.6375
142.24913	91.1375
146.58517	93.3375
150.91804	108.3375
155.24774	133.3375
159.57429	162.8375
163.89768	204.9375
168.21792	271.7375
172.53501	374.3375
176.84895	511.2375
181.15975	720.4375
185.46741	995.1375
189.77193	1379.7375
194.07331	1833.3375
198.37157	2379.4375
202.6667	2922.0375
206.9587	3488.7375
211.24758	4065.4375
215.53334	4660.3375
219.81599	5323.8375
224.09553	6075.4375
228.37195	6898.5375
232.64527	7772.5375
236.91549	8600.2375
241.18261	9335.6375
245.44663	9897.0375
249.70755	10323.2375
253.96539	10704.9375
258.22014	11021.7375
262.4718	11274.4375
266.72039	11387.2375
270.96589	11367.4375
275.20832	11220.9375
279.44768	10920.4375
283.68397	10653.2375
287.91719	10509.4375
292.14735	10606.7375
296.37445	10974.8375
300.59849	11596.9375
304.81948	12304.3375
309.03742	12721.9375
313.25231	12629.3375
317.46415	11883.6375
321.67296	10795.2375
325.87872	9949.0375
330.08145	9600.1375
334.28114	9619.7375
338.47781	9860.7375
342.67145	10215.2375
346.86207	10790.5375
351.04966	11657.3375
355.23424	12587.4375
359.4158	13197.8375
363.59435	13489.5375
367.76989	13570.3375
371.94243	13547.0375
376.11196	13500.9375
380.27849	13351.3375
384.44203	13173.8375
388.60257	12948.2375
392.76012	12810.4375
396.91468	12917.7375
401.06626	13238.7375
405.21485	13399.5375
409.36047	12910.4375
413.50311	12025.2375
417.64277	11255.1375
421.77947	10779.3375
425.9132	10468.0375
430.04396	10384.6375
434.17176	10468.0375
438.2966	10677.6375
442.41849	11000.8375
446.53742	11370.6375
450.6534	11663.7375
454.76644	11786.6375
458.87653	11774.8375
462.98368	11626.9375
467.08789	11404.3375
471.18916	11096.9375
475.2875	10818.8375
479.38291	10586.6375
483.4754	10519.3375
487.56496	10507.0375
491.6516	10521.7375
495.73531	10545.3375
499.81612	10556.0375
503.89401	10627.1375
507.96899	10792.8375
512.04106	11072.1375
516.11023	11419.8375
520.1765	11645.2375
524.23987	11720.2375
528.30034	11549.6375
532.35792	11319.8375
536.41261	11022.7375
540.46441	10692.1375
544.51333	10474.0375
548.55936	10460.6375
552.60252	10655.4375
556.64279	10861.6375
560.6802	10961.8375
564.71473	11235.9375
568.7464	11773.1375
572.7752	11862.0375
576.80114	11197.6375
580.82422	10628.0375
584.84444	10494.0375
588.86181	10598.0375
592.87633	10779.5375
596.888	11053.5375
600.89682	11714.2375
604.9028	13980.2375
608.90594	19558.1375
612.90624	25378.8375
616.90371	22591.2375
620.89834	15371.9375
624.89015	12739.1375
628.87913	12661.4375
632.86528	13225.0375
636.84862	13545.4375
640.82913	13090.1375
644.80683	12109.3375
648.78172	11360.8375
652.75379	11122.0375
656.72306	11479.2375
660.68952	11912.8375
664.65319	11454.2375
668.61405	10747.0375
672.57211	10490.8375
676.52738	10496.2375
680.47986	10505.2375
684.42955	10516.4375
688.37646	10571.4375
692.32058	10634.1375
696.26192	10696.4375
700.20048	10705.7375
704.13626	10637.6375
708.06928	10453.3375
711.99952	10285.6375
715.927	10313.5375
719.85171	10435.1375
723.77365	10608.4375
727.69284	10604.0375
731.60928	10544.3375
735.52295	10380.4375
739.43388	10334.7375
743.34206	10328.9375
747.24749	10342.1375
751.15017	10381.8375
755.05012	10604.4375
758.94733	11357.6375
762.8418	13151.3375
766.73354	15895.4375
770.62254	18487.0375
774.50882	19719.7375
778.39237	18528.2375
782.27321	15507.7375
786.15132	12758.9375
790.02671	11326.3375
793.89938	10741.6375
797.76935	10536.6375
801.6366	10540.3375
805.50115	10744.0375
809.36299	10976.3375
813.22213	11038.8375
817.07857	10912.5375
820.93231	10666.6375
824.78336	10476.7375
828.63172	10375.8375
832.47738	10289.4375
836.32036	10214.9375
840.16066	10124.5375
843.99827	10072.6375
847.8332	10014.4375
851.66546	10008.0375
855.49504	10013.3375
859.32195	10001.1375
863.1462	9954.8375
866.96777	9978.6375
870.78668	10081.6375
874.60293	10254.9375
878.41652	10544.9375
882.22745	10836.4375
886.03573	10960.6375
889.84136	10972.2375
893.64433	10775.7375
897.44466	10508.2375
901.24235	10303.5375
905.0374	10054.7375
908.8298	9842.7375
912.61957	9708.4375
916.40671	9673.7375
920.19121	9723.0375
923.97308	9821.0375
927.75233	10032.6375
931.52895	10230.5375
935.30295	10107.2375
939.07433	9764.8375
942.84309	9490.9375
946.60924	9320.5375
950.37278	9271.9375
954.13371	9232.1375
957.89203	9171.8375
961.64774	9126.0375
965.40086	9102.8375
969.15137	9070.2375
972.89929	9027.3375
976.64461	9014.0375
980.38733	9025.5375
984.12747	9064.6375
987.86502	9119.9375
991.59999	9201.0375
995.33237	9395.7375
999.06217	9710.4375
1002.78939	10067.4375
1006.51404	10373.5375
1010.23611	10670.1375
1013.95561	10845.2375
1017.67255	10903.9375
1021.38692	10799.7375
1025.09872	10623.6375
1028.80796	10539.6375
1032.51465	10587.8375
1036.21877	10648.0375
1039.92035	10575.8375
1043.61937	10492.4375
1047.31584	10294.2375
1051.00976	10107.4375
1054.70114	9993.0375
1058.38998	9975.6375
1062.07627	10053.3375
1065.76003	10079.7375
1069.44126	10168.6375
1073.11995	10264.3375
1076.79611	10421.3375
1080.46974	10689.4375
1084.14085	11062.5375
1087.80943	11365.9375
1091.47549	11376.8375
1095.13903	11049.6375
1098.80005	10563.3375
1102.45857	10283.3375
1106.11456	10294.8375
1109.76805	10573.7375
1113.41903	11037.9375
1117.06751	11758.8375
1120.71348	12714.6375
1124.35696	13794.6375
1127.99793	14590.8375
1131.63641	14527.9375
1135.2724	13824.6375
1138.90589	13109.9375
1142.5369	12481.7375
1146.16542	11876.2375
1149.79145	11366.9375
1153.415	11020.6375
1157.03607	10873.4375
1160.65467	10937.1375
1164.27079	11281.0375
1167.88443	11896.2375
1171.49561	12992.8375
1175.10432	14834.9375
1178.71056	17332.3375
1182.31434	19270.3375
1185.91565	19722.0375
1189.51451	18966.4375
1193.11091	17616.5375
1196.70485	16263.9375
1200.29634	15505.7375
1203.88538	14910.4375
1207.47197	13978.8375
1211.05612	13043.5375
1214.63782	12365.2375
1218.21708	11896.0375
1221.79391	11640.8375
1225.36829	11504.4375
1228.94024	11396.8375
1232.50976	11265.1375
1236.07685	11249.5375
1239.6415	11309.3375
1243.20374	11419.2375
1246.76355	11564.0375
1250.32093	11718.5375
1253.8759	11995.4375
1257.42845	12387.8375
1260.97859	12828.3375
1264.52631	13262.9375
1268.07163	13675.1375
1271.61453	13958.9375
1275.15503	14163.8375
1278.69312	14236.4375
1282.22882	14335.9375
1285.76211	14735.9375
1289.29301	15340.5375
1292.82151	15950.8375
1296.34761	16658.6375
1299.87133	17867.2375
1303.39266	19943.1375
1306.9116	23025.9375
1310.42815	25925.4375
1313.94233	26681.1375
1317.45412	24781.2375
1320.96354	22029.3375
1324.47058	19516.9375
1327.97525	17724.1375
1331.47754	16787.9375
1334.97747	16625.5375
1338.47502	17043.2375
1341.97022	18029.9375
1345.46305	19536.7375
1348.95352	21468.5375
1352.44163	23878.9375
1355.92738	27348.1375
1359.41078	32386.9375
1362.89183	36020.7375
1366.37053	33402.3375
1369.84688	26944.1375
1373.32088	21560.9375
1376.79254	18370.3375
1380.26186	16687.9375
1383.72883	15709.6375
1387.19347	14969.4375
1390.65578	14226.4375
1394.11575	13630.3375
1397.57339	13339.2375
1401.0287	13233.3375
1404.48168	13168.6375
1407.93234	13238.1375
1411.38068	13363.7375
1414.82669	13481.4375
1418.27039	13427.2375
1421.71177	13238.5375
1425.15083	13002.5375
1428.58758	12991.1375
1432.02203	13202.5375
1435.45416	13412.5375
1438.88399	13465.8375
1442.31151	13459.6375
1445.73673	13587.2375
1449.15965	13726.2375
1452.58027	13747.8375
1455.9986	13684.0375
1459.41463	13664.5375
1462.82837	13819.6375
1466.23982	14137.2375
1469.64898	14408.5375
1473.05586	14549.6375
1476.46045	14617.0375
1479.86276	14779.5375
1483.26279	15085.8375
1486.66054	15598.5375
1490.05602	16284.6375
1493.44922	17379.6375
1496.84016	19144.6375
1500.22882	21920.2375
1503.61521	25767.0375
1506.99934	29924.3375
1510.38121	32896.5375
1513.76081	32966.0375
1517.13816	29602.2375
1520.51324	24760.2375
1523.88607	20622.2375
1527.25665	18034.6375
1530.62498	16589.9375
1533.99105	15787.2375
1537.35488	15369.7375
1540.71647	15167.8375
1544.07581	15249.6375
1547.4329	15419.6375
1550.78776	15554.6375
1554.14038	15658.4375
1557.49077	15791.1375
1560.83892	16085.9375
1564.18484	16577.1375
1567.52853	17235.2375
1570.86999	17783.0375
1574.20922	18057.1375
1577.54624	17739.4375
1580.88103	16511.8375
1584.2136	15127.5375
1587.54395	14380.1375
1590.87208	14489.2375
1594.19801	15356.5375
1597.52172	16561.0375
1600.84321	17122.7375
1604.16251	16623.9375
1607.47959	15663.3375
1610.79447	14562.8375
1614.10715	13508.4375
1617.41763	12673.3375
1620.7259	12208.3375
1624.03199	11978.7375
1627.33587	12061.1375
1630.63757	12382.7375
1633.93707	13030.0375
1637.23439	14114.7375
1640.52951	15775.9375
1643.82246	18072.1375
1647.11321	20804.1375
1650.40179	22457.2375
1653.68819	21499.5375
1656.97241	18466.9375
1660.25446	15338.4375
1663.53433	13229.8375
1666.81203	11964.3375
1670.08756	11188.4375
1673.36092	10723.9375
1676.63211	10379.0375
1679.90115	10106.0375
1683.16801	9881.8375
1686.43272	9728.8375
1689.69527	9582.5375
1692.95567	9451.9375
1696.2139	9340.8375
1699.46999	9229.3375
1702.72392	9144.7375
1705.97571	9049.3375
1709.22535	8990.0375
1712.47284	8947.1375
1715.71819	8899.4375
1718.96139	8852.1375
1722.20246	8775.3375
1725.44139	8659.7375
1728.67818	8538.6375
1731.91284	8450.9375
1735.14537	8365.4375
1738.37576	8286.5375
1741.60403	8283.3375
1744.83017	8244.5375
1748.05418	8182.2375
1751.27607	8158.0375
1754.49584	8114.8375
1757.71349	8110.1375
1760.92903	8082.3375
1764.14244	8051.6375
1767.35375	8041.1375
1770.56294	7994.5375
1773.77002	7957.2375
1776.97499	7931.8375
1780.17785	7900.2375
1783.37861	7876.6375
1786.57727	7868.5375
1789.77382	7818.9375
1792.96828	7839.1375
1796.16064	7833.2375
1799.3509	7793.2375
1802.53907	7783.8375
1805.72514	7745.1375
1808.90913	7730.2375
1812.09102	7708.1375
1815.27083	7648.8375
1818.44856	7645.9375
1821.6242	7633.9375
1824.79776	7615.6375
1827.96924	7602.7375
1831.13864	7605.6375
1834.30597	7584.0375
1837.47122	7571.2375
1840.6344	7532.8375
1843.7955	7549.0375
1846.95454	7541.2375
1850.11151	7546.5375
1853.26642	7504.5375
1856.41926	7526.5375
1859.57004	7505.0375
1862.71876	7505.1375
1865.86542	7515.2375
1869.01003	7502.0375
1872.15258	7511.2375
1875.29308	7520.6375
1878.43152	7511.5375
1881.56792	7505.2375
1884.70227	7483.9375
1887.83457	7474.7375
1890.96482	7482.0375
1894.09304	7456.5375
1897.21921	7445.7375
1900.34335	7462.6375
1903.46544	7465.1375
1906.58551	7446.7375
1909.70353	7432.5375
1912.81953	7442.3375
1915.93349	7438.4375
1919.04543	7405.3375
1922.15534	7385.9375
1925.26322	7358.1375
1928.36908	7360.1375
1931.47292	7374.5375
1934.57473	7319.4375
1937.67453	7306.5375
1940.77232	7306.2375
1943.86808	7262.1375
1946.96184	7243.0375
1950.05358	7241.8375
1953.14331	7234.2375
1956.23103	7213.7375
1959.31675	7192.5375
1962.40046	7163.9375
1965.48217	7147.3375
1968.56188	7133.1375
1971.63959	7132.8375
1974.7153	7109.4375
1977.78901	7088.9375
1980.86073	7055.0375
1983.93046	7035.4375
1986.99819	6998.3375
1990.06394	6963.8375
1993.1277	6965.1375
1996.18947	6916.7375
1999.24925	6902.5375
2002.30706	6869.1375
2005.36288	6872.2375
2008.41672	6841.3375
2011.46859	6809.2375
2014.51848	6804.9375
2017.56639	6768.5375
2020.61233	6774.0375
2023.6563	6770.9375
2026.6983	6749.8375
2029.73833	6711.3375
2032.7764	6721.7375
2035.8125	6694.8375
2038.84664	6687.2375
2041.87881	6695.4375
2044.90903	6676.7375
2047.93729	6650.1375
2050.96359	6647.9375
2053.98794	6624.9375
2057.01034	6623.4375
2060.03078	6639.1375
2063.04927	6612.4375
2066.06582	6620.5375
2069.08042	6614.1375
2072.09307	6600.0375
2075.10378	6602.4375
2078.11255	6583.4375
2081.11938	6593.6375
2084.12426	6597.6375
2087.12722	6589.3375
2090.12824	6564.4375
2093.12732	6592.9375
2096.12447	6588.6375
2099.11969	6588.8375
2102.11299	6591.0375
2105.10435	6598.9375
2108.09379	6582.7375
2111.08131	6612.3375
2114.0669	6593.1375
2117.05057	6603.5375
2120.03233	6602.6375
2123.01216	6624.2375
2125.99008	6608.0375
2128.96609	6643.4375
2131.94018	6648.0375
2134.91236	6625.8375
2137.88263	6638.1375
2140.851	6608.4375
2143.81746	6621.6375
2146.78201	6619.9375
2149.74466	6623.7375
2152.7054	6609.9375
2155.66425	6603.7375
2158.6212	6591.9375
2161.57625	6594.9375
2164.52941	6581.2375
2167.48067	6594.2375
2170.43004	6600.3375
2173.37752	6602.2375
2176.32311	6600.4375
2179.26681	6611.9375
2182.20863	6580.0375
2185.14856	6600.9375
2188.08661	6602.1375
2191.02278	6601.0375
2193.95707	6587.7375
2196.88948	6584.5375
2199.82001	6556.0375
2202.74867	6575.8375
2205.67545	6569.3375
2208.60037	6576.0375
2211.52341	6559.0375
2214.44458	6553.1375
2217.36388	6543.7375
2220.28132	6518.2375
2223.1969	6500.5375
2226.11061	6508.2375
2229.02246	6483.3375
2231.93245	6505.8375
2234.84058	6473.9375
2237.74686	6459.1375
2240.65128	6449.9375
2243.55385	6438.0375
2246.45456	6446.8375
2249.35343	6447.1375
2252.25044	6425.1375
2255.14561	6433.2375
2258.03893	6459.8375
2260.93041	6449.0375
2263.82004	6445.0375
2266.70783	6445.1375
2269.59378	6406.2375
2272.4779	6385.5375
2275.36017	6363.9375
2278.24061	6355.2375
2281.11922	6340.0375
2283.996	6331.4375
2286.87094	6306.5375
2289.74405	6297.3375
2292.61534	6268.3375
2295.4848	6268.4375
2298.35243	6251.1375
2301.21824	6268.3375
2304.08223	6269.7375
2306.94439	6270.7375
2309.80474	6266.5375
2312.66327	6277.2375
2315.51999	6249.0375
2318.37489	6280.3375
2321.22797	6256.0375
2324.07925	6243.6375
2326.92871	6239.7375
2329.77637	6250.1375
2332.62222	6231.1375
2335.46626	6249.7375
2338.3085	6246.4375
2341.14893	6233.3375
2343.98756	6232.1375
2346.8244	6244.4375
2349.65943	6267.9375
2352.49267	6271.7375
2355.32411	6268.5375
2358.15376	6261.1375
2360.98161	6274.4375
2363.80768	6269.1375
2366.63195	6297.3375
2369.45444	6291.5375
2372.27514	6304.3375
2375.09405	6271.8375
2377.91118	6225.6375
2380.72652	6226.8375
2383.54009	6208.4375
2386.35187	6214.3375
2389.16188	6176.4375
2391.97011	6167.7375
2394.77657	6138.4375
2397.58125	6119.9375
2400.38416	6106.2375
2403.18529	6084.4375
2405.98466	6069.1375
2408.78226	6051.8375
2411.57809	6044.2375
2414.37216	6022.4375
2417.16446	6041.6375
2419.955	6020.2375
2422.74378	6019.4375
2425.5308	6003.8375
2428.31606	6015.9375
2431.09956	5993.0375
2433.88131	5994.1375
2436.6613	6005.7375
2439.43954	5985.2375
2442.21603	5997.0375
2444.99077	6004.7375
2447.76377	6027.2375
2450.53501	6000.3375
2453.30451	6004.2375
2456.07226	5996.6375
2458.83827	6011.3375
2461.60254	5965.7375
2464.36507	5981.2375
2467.12586	5983.3375
2469.88492	5983.2375
2472.64224	5984.2375
2475.39782	5988.5375
2478.15167	6012.3375
2480.90379	6008.6375
2483.65417	6030.3375
2486.40283	6048.8375
2489.14976	6047.7375
2491.89497	6055.8375
2494.63845	6077.0375
2497.3802	6059.6375
2500.12024	6064.5375
2502.85855	6042.2375
2505.59514	6024.5375
2508.33002	6001.9375
2511.06318	5966.2375
2513.79462	5972.4375
2516.52435	5915.3375
2519.25237	5902.2375
2521.97867	5880.3375
2524.70327	5872.4375
2527.42616	5870.2375
2530.14734	5844.1375
2532.86681	5847.0375
2535.58458	5852.6375
2538.30065	5864.5375
2541.01501	5884.3375
2543.72768	5870.9375
2546.43864	5865.4375
2549.14791	5854.2375
2551.85548	5864.6375
2554.56136	5834.1375
2557.26554	5837.3375
2559.96803	5826.6375
2562.66883	5807.5375
2565.36794	5814.3375
2568.06536	5809.8375
2570.7611	5795.0375
2573.45514	5796.5375
2576.14751	5795.8375
2578.83819	5765.4375
2581.52719	5765.9375
2584.21451	5750.4375
2586.90015	5737.5375
2589.58411	5722.4375
2592.2664	5741.4375
2594.94701	5742.4375
2597.62594	5744.5375
2600.30321	5722.5375
2602.9788	5714.7375
2605.65273	5720.2375
2608.32498	5725.7375
2610.99557	5701.6375
2613.66449	5707.1375
2616.33175	5705.9375
2618.99734	5709.7375
2621.66128	5706.8375
2624.32355	5714.3375
2626.98416	5718.3375
2629.64311	5699.8375
2632.30041	5697.6375
2634.95605	5680.2375
2637.61004	5673.5375
2640.26238	5651.4375
2642.91306	5658.4375
2645.56209	5618.4375
2648.20948	5651.5375
2650.85521	5626.5375
2653.4993	5629.9375
2656.14175	5621.5375
2658.78255	5624.2375
2661.42171	5649.2375
2664.05923	5644.5375
2666.6951	5651.2375
2669.32934	5668.3375
2671.96194	5675.0375
2674.59291	5677.4375
2677.22224	5690.7375
2679.84993	5683.1375
2682.476	5672.7375
2685.10043	5674.9375
2687.72324	5664.3375
2690.34441	5656.4375
2692.96396	5664.5375
2695.58188	5681.6375
2698.19818	5668.6375
2700.81285	5676.4375
2703.4259	5653.5375
2706.03733	5669.7375
2708.64714	5670.7375
2711.25533	5702.2375
2713.86191	5677.2375
2716.46687	5681.3375
2719.07021	5700.9375
2721.67194	5697.3375
2724.27206	5688.1375
2726.87057	5686.6375
2729.46747	5683.2375
2732.06276	5684.6375
2734.65644	5694.8375
2737.24852	5686.2375
2739.83899	5674.1375
2742.42786	5661.3375
2745.01513	5665.6375
2747.60079	5650.0375
2750.18486	5648.3375
2752.76733	5646.5375
2755.3482	5625.3375
2757.92747	5623.3375
2760.50515	5601.9375
2763.08123	5609.0375
2765.65573	5611.2375
2768.22863	5596.0375
2770.79994	5600.0375
2773.36967	5592.6375
2775.9378	5602.5375
2778.50435	5595.1375
2781.06932	5585.8375
2783.6327	5593.5375
2786.1945	5595.6375
2788.75471	5581.2375
2791.31335	5571.4375
2793.87041	5565.0375
2796.42589	5561.4375
2798.97979	5569.1375
2801.53212	5564.1375
2804.08288	5550.3375
2806.63206	5525.9375
2809.17967	5544.3375
2811.72571	5534.6375
2814.27018	5531.2375
2816.81308	5535.1375
2819.35442	5511.8375
2821.89419	5527.8375
2824.43239	5554.7375
2826.96904	5545.9375
2829.50412	5559.0375
2832.03763	5528.8375
2834.56959	5551.5375
2837.1	5543.7375
2839.62884	5561.9375
2842.15613	5556.3375
2844.68186	5561.6375
2847.20604	5576.5375
2849.72867	5587.4375
2852.24974	5609.4375
2854.76927	5597.5375
2857.28724	5600.8375
2859.80367	5590.1375
2862.31855	5595.2375
2864.83189	5580.7375
2867.34368	5587.0375
2869.85393	5583.5375
2872.36264	5588.6375
2874.8698	5604.3375
2877.37543	5581.0375
2879.87952	5593.8375
2882.38207	5591.5375
2884.88308	5596.9375
2887.38256	5595.3375
2889.88051	5567.4375
2892.37692	5575.2375
2894.8718	5579.5375
2897.36515	5587.2375
2899.85698	5589.5375
2902.34727	5600.6375
2904.83604	5602.8375
2907.32328	5642.2375
2909.809	5601.4375
2912.29319	5611.2375
2914.77587	5613.2375
2917.25702	5600.9375
2919.73665	5596.4375
2922.21476	5600.9375
2924.69136	5598.1375
2927.16644	5579.8375
2929.64	5577.9375
2932.11205	5555.8375
2934.58258	5528.8375
2937.05161	5530.9375
2939.51912	5534.1375
2941.98513	5529.2375
2944.44962	5511.8375
2946.91261	5471.4375
2949.37409	5500.1375
2951.83407	5480.5375
2954.29254	5482.1375
2956.74951	5467.4375
2959.20498	5457.2375
2961.65895	5465.2375
2964.11142	5465.2375
2966.56239	5439.3375
2969.01186	5441.4375
2971.45984	5439.2375
2973.90632	5417.6375
2976.35131	5385.8375
2978.7948	5384.7375
2981.23681	5383.4375
2983.67732	5379.5375
2986.11635	5371.3375
2988.55388	5355.7375
2990.98993	5355.0375
2993.4245	5341.0375
2995.85758	5341.3375
2998.28917	5347.4375
3000.71928	5333.4375
3003.14791	5315.0375
3005.57506	5309.6375
3008.00073	5296.8375
3010.42493	5286.6375
3012.84764	5310.8375
3015.26888	5285.9375
3017.68865	5273.5375
3020.10694	5268.0375
3022.52376	5254.4375
3024.9391	5245.0375
3027.35298	5246.5375
3029.76539	5248.5375
3032.17632	5241.9375
3034.5858	5219.6375
3036.9938	5208.2375
3039.40034	5219.7375
3041.80542	5210.8375
3044.20903	5200.8375
3046.61118	5193.2375
3049.01187	5165.4375
3051.4111	5191.0375
3053.80888	5174.1375
3056.20519	5165.2375
3058.60005	5144.2375
3060.99345	5140.5375
3063.3854	5142.2375
3065.7759	5125.1375
3068.16494	5125.1375
3070.55254	5093.0375
3072.93868	5104.6375
3075.32338	5089.1375
3077.70662	5080.1375
3080.08842	5077.3375
3082.46878	5057.1375
3084.84769	5052.2375
3087.22515	5042.7375
3089.60118	5043.6375
3091.97576	5034.3375
3094.3489	5057.8375
3096.72061	5073.8375
3099.09087	5076.8375
3101.4597	5064.0375
3103.82709	5083.8375
3106.19305	5092.4375
3108.55757	5085.6375
3110.92066	5081.5375
3113.28232	5065.5375
3115.64255	5058.6375
3118.00134	5042.9375
3120.35871	5053.6375
3122.71466	5064.3375
3125.06917	5033.6375
3127.42226	5032.8375
3129.77393	5033.6375
3132.12417	5034.0375
3134.47299	5037.5375
3136.82039	5028.2375
3139.16636	5052.4375
3141.51092	5036.9375
3143.85406	5051.7375
3146.19579	5057.8375
3148.53609	5063.0375
3150.87499	5064.3375
3153.21246	5057.7375
3155.54853	5082.2375
3157.88318	5089.2375
3160.21642	5115.3375
3162.54826	5109.9375
3164.87868	5115.6375
3167.2077	5102.1375
3169.5353	5110.5375
3171.86151	5117.3375
3174.18631	5114.8375
3176.5097	5100.8375
3178.83169	5097.8375
3181.15228	5108.2375
3183.47147	5117.6375
3185.78926	5089.2375
3188.10565	5108.6375
3190.42065	5104.4375
3192.73424	5105.8375
3195.04645	5102.3375
3197.35725	5125.6375
3199.66667	5110.8375
3201.97469	5119.1375
3204.28132	5129.0375
3206.58656	5144.8375
3208.8904	5152.7375
3211.19287	5168.1375
3213.49394	5159.7375
3215.79363	5162.6375
3218.09193	5170.6375
3220.38884	5178.8375
3222.68438	5173.5375
3224.97853	5181.2375
3227.2713	5165.6375
3229.56269	5175.1375
3231.8527	5167.1375
3234.14133	5170.6375
3236.42858	5182.1375
3238.71446	5180.5375
3240.99896	5185.5375
3243.28209	5162.7375
3245.56384	5147.6375
3247.84423	5145.1375
3250.12324	5145.8375
3252.40088	5143.0375
3254.67715	5151.4375
3256.95205	5136.3375
3259.22558	5143.5375
3261.49775	5138.1375
3263.76855	5140.3375
3266.03799	5133.1375
3268.30606	5154.9375
3270.57277	5139.9375
3272.83812	5123.0375
3275.10211	5117.8375
3277.36474	5122.1375
3279.62601	5100.0375
3281.88593	5099.0375
3284.14448	5119.5375
3286.40168	5123.9375
3288.65753	5113.4375
3290.91202	5097.5375
3293.16516	5096.7375
3295.41695	5085.2375
3297.66738	5080.9375
3299.91647	5063.2375
3302.16421	5008.4375
3304.4106	5019.6375
3306.65564	4981.9375
3308.89933	4943.7375
3311.14169	4918.0375
3313.38269	4866.3375
3315.62236	4862.4375
3317.86068	4802.4375
3320.09766	4784.0375
3322.3333	4778.8375
3324.5676	4750.9375
3326.80056	4691.8375
3329.03219	4659.6375
3331.26248	2.8375
3333.49143	-1.1625
3335.71905	-1.0625
