Data from AgNPs_APTES_FTO_UA_100uM_CRN_0uM_R6G_10uM_Scan_RamanShift__42__16-31-42-975.txt Node

Date: Mon Jul 11 16:31:42 BST 2022
User: TCL
Spectrometer: QEP01345
Trigger mode: 4
Integration Time (sec): 7.000000E0
Scans to average: 10
Electric dark correction enabled: true
Nonlinearity correction enabled: false
Boxcar width: 0
XAxis mode: Raman Shifts
Number of Pixels in Spectrum: 1044
>>>>>Begin Spectral Data<<<<<
46.04893	-1.2875
50.45542	-0.0875
54.85868	-0.1875
59.25871	-2.4875
63.6555	63.7125
68.04907	69.6125
72.43941	75.5125
76.82654	72.8125
81.21044	80.0125
85.59113	81.3125
89.96862	83.8125
94.34289	86.5125
98.71396	87.7125
103.08183	97.6125
107.4465	96.7125
111.80798	94.7125
116.16626	98.9125
120.52136	104.8125
124.87327	111.1125
129.222	114.6125
133.56755	122.4125
137.90993	132.9125
142.24913	147.9125
146.58517	169.1125
150.91804	184.0125
155.24774	229.4125
159.57429	289.0125
163.89768	373.4125
168.21792	485.5125
172.53501	669.1125
176.84895	931.5125
181.15975	1320.4125
185.46741	1833.4125
189.77193	2537.1125
194.07331	3427.4125
198.37157	4384.8125
202.6667	5423.2125
206.9587	6456.6125
211.24758	7485.7125
215.53334	8497.5125
219.81599	9591.8125
224.09553	10806.4125
228.37195	12181.0125
232.64527	13657.5125
236.91549	15158.6125
241.18261	16616.5125
245.44663	17940.9125
249.70755	19052.2125
253.96539	20019.9125
258.22014	20830.4125
262.4718	21401.3125
266.72039	21801.0125
270.96589	21933.1125
275.20832	21775.7125
279.44768	21427.3125
283.68397	20986.1125
287.91719	20661.9125
292.14735	20525.2125
296.37445	20499.8125
300.59849	20667.8125
304.81948	20954.2125
309.03742	21150.6125
313.25231	21063.5125
317.46415	20809.9125
321.67296	20377.4125
325.87872	20038.6125
330.08145	19933.4125
334.28114	19933.4125
338.47781	20113.0125
342.67145	20382.8125
346.86207	20827.4125
351.04966	21323.4125
355.23424	21884.5125
359.4158	22244.8125
363.59435	22548.6125
367.76989	22735.7125
371.94243	22820.9125
376.11196	22918.1125
380.27849	23010.3125
384.44203	23121.1125
388.60257	23205.8125
392.76012	23305.9125
396.91468	23541.3125
401.06626	23894.7125
405.21485	24079.6125
409.36047	23909.2125
413.50311	23471.0125
417.64277	23119.0125
421.77947	22975.8125
425.9132	22955.9125
430.04396	23057.6125
434.17176	23263.4125
438.2966	23521.2125
442.41849	24106.2125
446.53742	24828.9125
450.6534	25478.4125
454.76644	25760.3125
458.87653	25758.5125
462.98368	25493.7125
467.08789	25109.9125
471.18916	24668.5125
475.2875	24171.3125
479.38291	23752.3125
483.4754	23523.4125
487.56496	23432.6125
491.6516	23471.0125
495.73531	23648.7125
499.81612	23824.9125
503.89401	24092.7125
507.96899	24225.0125
512.04106	24239.5125
516.11023	24313.9125
520.1765	24370.4125
524.23987	24382.0125
528.30034	24342.6125
532.35792	24320.3125
536.41261	24009.1125
540.46441	23726.1125
544.51333	23541.1125
548.55936	23621.0125
552.60252	23975.2125
556.64279	24325.9125
560.6802	24649.9125
564.71473	24669.5125
568.7464	24889.6125
572.7752	25065.7125
576.80114	25055.7125
580.82422	25345.9125
584.84444	26123.4125
588.86181	27291.1125
592.87633	28535.6125
596.888	28939.4125
600.89682	28345.0125
604.9028	28917.7125
608.90594	32098.0125
612.90624	35218.6125
616.90371	32587.1125
620.89834	27357.2125
624.89015	25380.7125
628.87913	25245.2125
632.86528	25574.7125
636.84862	25809.3125
640.82913	25539.8125
644.80683	24944.1125
648.78172	24649.4125
652.75379	24674.2125
656.72306	25012.0125
660.68952	25350.7125
664.65319	25016.7125
668.61405	24510.3125
672.57211	24522.3125
676.52738	24585.2125
680.47986	24657.8125
684.42955	24583.8125
688.37646	24575.6125
692.32058	24664.9125
696.26192	24762.6125
700.20048	24888.8125
704.13626	24807.2125
708.06928	24606.6125
711.99952	24405.3125
715.927	24400.4125
719.85171	24542.0125
723.77365	24584.1125
727.69284	24373.6125
731.60928	24306.4125
735.52295	24378.7125
739.43388	24528.5125
743.34206	24602.1125
747.24749	24654.8125
751.15017	24727.9125
755.05012	24990.1125
758.94733	25589.8125
762.8418	26901.1125
766.73354	28953.8125
770.62254	30856.4125
774.50882	31317.7125
778.39237	30194.6125
782.27321	28244.6125
786.15132	26536.3125
790.02671	25471.9125
793.89938	24999.3125
797.76935	24742.7125
801.6366	24672.0125
805.50115	24654.6125
809.36299	24664.7125
813.22213	24618.6125
817.07857	24407.1125
820.93231	24284.1125
824.78336	24136.9125
828.63172	24107.4125
832.47738	24058.5125
836.32036	24051.6125
840.16066	24109.3125
843.99827	24123.0125
847.8332	24103.5125
851.66546	24141.2125
855.49504	24195.8125
859.32195	24208.3125
863.1462	24186.6125
866.96777	24130.5125
870.78668	24171.8125
874.60293	24287.3125
878.41652	24443.0125
882.22745	24607.2125
886.03573	24741.6125
889.84136	24752.2125
893.64433	24645.7125
897.44466	24500.3125
901.24235	24394.2125
905.0374	24265.7125
908.8298	24152.4125
912.61957	24037.6125
916.40671	24109.4125
920.19121	24193.6125
923.97308	24384.5125
927.75233	24549.1125
931.52895	24575.4125
935.30295	24365.1125
939.07433	24047.1125
942.84309	23825.7125
946.60924	23759.4125
950.37278	23725.5125
954.13371	23660.9125
957.89203	23669.8125
961.64774	23672.2125
965.40086	23642.3125
969.15137	23647.4125
972.89929	23658.4125
976.64461	23775.0125
980.38733	23819.8125
984.12747	23928.5125
987.86502	24035.9125
991.59999	24149.5125
995.33237	24435.6125
999.06217	24798.4125
1002.78939	25330.8125
1006.51404	25794.4125
1010.23611	26165.7125
1013.95561	26480.4125
1017.67255	26507.7125
1021.38692	26264.1125
1025.09872	25819.6125
1028.80796	25658.3125
1032.51465	25727.8125
1036.21877	25848.9125
1039.92035	25858.2125
1043.61937	25834.1125
1047.31584	25675.9125
1051.00976	25475.5125
1054.70114	25404.6125
1058.38998	25386.1125
1062.07627	25520.7125
1065.76003	25701.1125
1069.44126	25982.6125
1073.11995	26375.2125
1076.79611	26836.4125
1080.46974	27136.7125
1084.14085	27371.4125
1087.80943	27622.3125
1091.47549	27697.7125
1095.13903	27502.8125
1098.80005	27093.2125
1102.45857	26641.8125
1106.11456	26468.6125
1109.76805	26446.3125
1113.41903	26646.2125
1117.06751	26952.4125
1120.71348	27430.7125
1124.35696	28062.4125
1127.99793	28616.5125
1131.63641	28852.7125
1135.2724	28713.3125
1138.90589	28341.4125
1142.5369	28085.4125
1146.16542	27832.1125
1149.79145	27583.6125
1153.415	27304.0125
1157.03607	27147.3125
1160.65467	27251.7125
1164.27079	27822.9125
1167.88443	28678.7125
1171.49561	30053.6125
1175.10432	31872.8125
1178.71056	34313.3125
1182.31434	36373.7125
1185.91565	37068.8125
1189.51451	36591.7125
1193.11091	35470.6125
1196.70485	34196.4125
1200.29634	33242.0125
1203.88538	32571.4125
1207.47197	31798.5125
1211.05612	31150.7125
1214.63782	30597.6125
1218.21708	30270.1125
1221.79391	30186.3125
1225.36829	30355.7125
1228.94024	30296.6125
1232.50976	29976.3125
1236.07685	29482.7125
1239.6415	29209.2125
1243.20374	29166.5125
1246.76355	29355.0125
1250.32093	29680.9125
1253.8759	30111.9125
1257.42845	30716.2125
1260.97859	31477.9125
1264.52631	32320.0125
1268.07163	33194.9125
1271.61453	33942.6125
1275.15503	34440.8125
1278.69312	34772.0125
1282.22882	35067.8125
1285.76211	35548.5125
1289.29301	36430.3125
1292.82151	37390.3125
1296.34761	38594.1125
1299.87133	40197.2125
1303.39266	42364.8125
1306.9116	45005.1125
1310.42815	47803.0125
1313.94233	49165.1125
1317.45412	48338.8125
1320.96354	46078.7125
1324.47058	43728.4125
1327.97525	41718.0125
1331.47754	40373.2125
1334.97747	39817.5125
1338.47502	39735.3125
1341.97022	40112.4125
1345.46305	40835.6125
1348.95352	41803.2125
1352.44163	43335.0125
1355.92738	45752.9125
1359.41078	49011.2125
1362.89183	51828.0125
1366.37053	50881.5125
1369.84688	45962.0125
1373.32088	40640.5125
1376.79254	37412.2125
1380.26186	36051.4125
1383.72883	35467.2125
1387.19347	35066.9125
1390.65578	34376.1125
1394.11575	33767.3125
1397.57339	33430.5125
1401.0287	33202.9125
1404.48168	33036.4125
1407.93234	32984.3125
1411.38068	32930.3125
1414.82669	32699.8125
1418.27039	32377.0125
1421.71177	31937.8125
1425.15083	31729.7125
1428.58758	31748.6125
1432.02203	32173.0125
1435.45416	32832.6125
1438.88399	33248.7125
1442.31151	33343.9125
1445.73673	33324.0125
1449.15965	33256.2125
1452.58027	33134.7125
1455.9986	32939.8125
1459.41463	33059.8125
1462.82837	33521.4125
1466.23982	34157.7125
1469.64898	34801.8125
1473.05586	35219.1125
1476.46045	35406.5125
1479.86276	35452.8125
1483.26279	35452.2125
1486.66054	35623.0125
1490.05602	36003.7125
1493.44922	36574.6125
1496.84016	37373.7125
1500.22882	38722.7125
1503.61521	40655.2125
1506.99934	42668.1125
1510.38121	44106.4125
1513.76081	44234.3125
1517.13816	42513.1125
1520.51324	39768.5125
1523.88607	37552.6125
1527.25665	36178.0125
1530.62498	35666.0125
1533.99105	35419.4125
1537.35488	35112.5125
1540.71647	34764.5125
1544.07581	34382.8125
1547.4329	34078.7125
1550.78776	33804.4125
1554.14038	33604.4125
1557.49077	33462.6125
1560.83892	33592.5125
1564.18484	33877.3125
1567.52853	34232.9125
1570.86999	34573.8125
1574.20922	34862.4125
1577.54624	34715.6125
1580.88103	33955.8125
1584.2136	33299.1125
1587.54395	33411.2125
1590.87208	34438.2125
1594.19801	36219.4125
1597.52172	38203.5125
1600.84321	38945.2125
1604.16251	37824.9125
1607.47959	35529.6125
1610.79447	33164.5125
1614.10715	31053.9125
1617.41763	29452.4125
1620.7259	28568.2125
1624.03199	28176.5125
1627.33587	28235.5125
1630.63757	28825.9125
1633.93707	30053.6125
1637.23439	32128.2125
1640.52951	35188.5125
1643.82246	38812.1125
1647.11321	41809.7125
1650.40179	42278.8125
1653.68819	39618.9125
1656.97241	35247.8125
1660.25446	31258.6125
1663.53433	28576.6125
1666.81203	26963.5125
1670.08756	26062.5125
1673.36092	25513.1125
1676.63211	25083.8125
1679.90115	24771.0125
1683.16801	24422.1125
1686.43272	24145.7125
1689.69527	23863.3125
1692.95567	23619.7125
1696.2139	23486.6125
1699.46999	23367.7125
1702.72392	23257.5125
1705.97571	23148.5125
1709.22535	23069.4125
1712.47284	23066.9125
1715.71819	23045.2125
1718.96139	22943.2125
1722.20246	22844.6125
1725.44139	22767.9125
1728.67818	22645.9125
1731.91284	22521.7125
1735.14537	22424.6125
1738.37576	22363.3125
1741.60403	22275.8125
1744.83017	22180.5125
1748.05418	22146.7125
1751.27607	22047.1125
1754.49584	21994.7125
1757.71349	22000.2125
1760.92903	22003.9125
1764.14244	22029.3125
1767.35375	21967.7125
1770.56294	21922.6125
1773.77002	21876.9125
1776.97499	21869.4125
1780.17785	21813.2125
1783.37861	21795.4125
1786.57727	21791.5125
1789.77382	21738.3125
1792.96828	21715.1125
1796.16064	21660.2125
1799.3509	21632.4125
1802.53907	21625.5125
1805.72514	21594.2125
1808.90913	21480.0125
1812.09102	21472.1125
1815.27083	21417.4125
1818.44856	21398.0125
1821.6242	21388.4125
1824.79776	21338.9125
1827.96924	21348.0125
1831.13864	21319.3125
1834.30597	21282.1125
1837.47122	21246.7125
1840.6344	21232.5125
1843.7955	21212.2125
1846.95454	21223.2125
1850.11151	21199.9125
1853.26642	21174.2125
1856.41926	21164.6125
1859.57004	21136.2125
1862.71876	21109.4125
1865.86542	21135.9125
1869.01003	21139.0125
1872.15258	21075.4125
1875.29308	21066.4125
1878.43152	21055.0125
1881.56792	21035.8125
1884.70227	21004.2125
1887.83457	20951.5125
1890.96482	20967.0125
1894.09304	20924.7125
1897.21921	20937.0125
1900.34335	20900.6125
1903.46544	20882.9125
1906.58551	20898.7125
1909.70353	20892.7125
1912.81953	20857.8125
1915.93349	20815.2125
1919.04543	20758.6125
1922.15534	20690.2125
1925.26322	20690.6125
1928.36908	20682.1125
1931.47292	20645.2125
1934.57473	20593.2125
1937.67453	20563.4125
1940.77232	20487.8125
1943.86808	20422.7125
1946.96184	20391.6125
1950.05358	20350.0125
1953.14331	20309.9125
1956.23103	20277.8125
1959.31675	20223.7125
1962.40046	20169.7125
1965.48217	20109.6125
1968.56188	20071.8125
1971.63959	20001.3125
1974.7153	19953.8125
1977.78901	19950.5125
1980.86073	19869.2125
1983.93046	19786.0125
1986.99819	19705.6125
1990.06394	19655.8125
1993.1277	19631.2125
1996.18947	19578.0125
1999.24925	19486.6125
2002.30706	19433.0125
2005.36288	19413.1125
2008.41672	19350.2125
2011.46859	19283.6125
2014.51848	19238.4125
2017.56639	19178.3125
2020.61233	19173.1125
2023.6563	19181.3125
2026.6983	19105.1125
2029.73833	19029.0125
2032.7764	18973.3125
2035.8125	18949.8125
2038.84664	18922.9125
2041.87881	18900.2125
2044.90903	18859.8125
2047.93729	18791.5125
2050.96359	18809.9125
2053.98794	18759.4125
2057.01034	18744.8125
2060.03078	18783.7125
2063.04927	18703.5125
2066.06582	18759.8125
2069.08042	18735.0125
2072.09307	18710.0125
2075.10378	18705.7125
2078.11255	18695.3125
2081.11938	18686.9125
2084.12426	18675.6125
2087.12722	18672.2125
2090.12824	18671.4125
2093.12732	18668.6125
2096.12447	18700.1125
2099.11969	18720.3125
2102.11299	18740.5125
2105.10435	18745.4125
2108.09379	18728.6125
2111.08131	18732.1125
2114.0669	18730.8125
2117.05057	18739.3125
2120.03233	18798.2125
2123.01216	18784.0125
2125.99008	18774.2125
2128.96609	18833.4125
2131.94018	18847.3125
2134.91236	18830.1125
2137.88263	18842.0125
2140.851	18826.2125
2143.81746	18848.9125
2146.78201	18824.4125
2149.74466	18862.5125
2152.7054	18888.1125
2155.66425	18873.8125
2158.6212	18846.0125
2161.57625	18825.1125
2164.52941	18833.7125
2167.48067	18832.5125
2170.43004	18844.7125
2173.37752	18861.2125
2176.32311	18885.2125
2179.26681	18864.6125
2182.20863	18855.4125
2185.14856	18867.8125
2188.08661	18852.6125
2191.02278	18877.4125
2193.95707	18832.3125
2196.88948	18837.1125
2199.82001	18825.8125
2202.74867	18828.1125
2205.67545	18763.6125
2208.60037	18762.0125
2211.52341	18749.8125
2214.44458	18701.3125
2217.36388	18665.9125
2220.28132	18619.0125
2223.1969	18584.0125
2226.11061	18605.5125
2229.02246	18549.0125
2231.93245	18538.7125
2234.84058	18511.3125
2237.74686	18474.5125
2240.65128	18458.5125
2243.55385	18437.5125
2246.45456	18425.3125
2249.35343	18373.0125
2252.25044	18328.4125
2255.14561	18357.1125
2258.03893	18357.1125
2260.93041	18311.0125
2263.82004	18293.8125
2266.70783	18257.2125
2269.59378	18200.2125
2272.4779	18119.0125
2275.36017	18083.6125
2278.24061	18087.4125
2281.11922	18042.8125
2283.996	18033.0125
2286.87094	18017.5125
2289.74405	17950.6125
2292.61534	17918.0125
2295.4848	17897.9125
2298.35243	17905.0125
2301.21824	17916.2125
2304.08223	17899.8125
2306.94439	17929.5125
2309.80474	17866.9125
2312.66327	17875.9125
2315.51999	17876.4125
2318.37489	17874.0125
2321.22797	17810.0125
2324.07925	17788.6125
2326.92871	17760.4125
2329.77637	17782.3125
2332.62222	17714.9125
2335.46626	17729.6125
2338.3085	17711.4125
2341.14893	17665.8125
2343.98756	17710.2125
2346.8244	17712.4125
2349.65943	17679.8125
2352.49267	17634.0125
2355.32411	17627.2125
2358.15376	17644.8125
2360.98161	17607.5125
2363.80768	17639.0125
2366.63195	17620.0125
2369.45444	17604.4125
2372.27514	17595.7125
2375.09405	17564.7125
2377.91118	17504.7125
2380.72652	17508.5125
2383.54009	17487.8125
2386.35187	17479.3125
2389.16188	17432.7125
2391.97011	17386.7125
2394.77657	17346.8125
2397.58125	17336.0125
2400.38416	17291.2125
2403.18529	17257.7125
2405.98466	17224.5125
2408.78226	17174.4125
2411.57809	17180.0125
2414.37216	17182.9125
2417.16446	17199.0125
2419.955	17196.4125
2422.74378	17164.6125
2425.5308	17126.5125
2428.31606	17148.8125
2431.09956	17115.0125
2433.88131	17110.0125
2436.6613	17103.7125
2439.43954	17107.1125
2442.21603	17059.6125
2444.99077	17044.3125
2447.76377	17108.8125
2450.53501	17079.8125
2453.30451	17039.7125
2456.07226	17046.3125
2458.83827	17005.2125
2461.60254	16989.6125
2464.36507	17008.7125
2467.12586	16998.1125
2469.88492	16966.0125
2472.64224	16972.1125
2475.39782	17008.4125
2478.15167	16982.9125
2480.90379	16965.6125
2483.65417	16975.3125
2486.40283	16985.6125
2489.14976	16982.3125
2491.89497	16960.9125
2494.63845	16961.4125
2497.3802	16969.6125
2500.12024	16955.0125
2502.85855	16962.5125
2505.59514	16942.6125
2508.33002	16894.1125
2511.06318	16877.5125
2513.79462	16862.1125
2516.52435	16829.1125
2519.25237	16781.6125
2521.97867	16736.1125
2524.70327	16758.6125
2527.42616	16720.3125
2530.14734	16695.3125
2532.86681	16720.7125
2535.58458	16726.2125
2538.30065	16701.7125
2541.01501	16712.4125
2543.72768	16700.6125
2546.43864	16691.2125
2549.14791	16660.2125
2551.85548	16676.7125
2554.56136	16635.3125
2557.26554	16594.8125
2559.96803	16556.2125
2562.66883	16531.0125
2565.36794	16524.9125
2568.06536	16506.1125
2570.7611	16446.0125
2573.45514	16497.4125
2576.14751	16468.2125
2578.83819	16429.9125
2581.52719	16412.8125
2584.21451	16372.7125
2586.90015	16337.4125
2589.58411	16302.8125
2592.2664	16291.3125
2594.94701	16295.5125
2597.62594	16289.3125
2600.30321	16263.8125
2602.9788	16237.4125
2605.65273	16219.2125
2608.32498	16238.8125
2610.99557	16221.4125
2613.66449	16195.0125
2616.33175	16170.1125
2618.99734	16172.8125
2621.66128	16131.3125
2624.32355	16116.4125
2626.98416	16127.4125
2629.64311	16077.8125
2632.30041	16064.3125
2634.95605	16023.8125
2637.61004	15998.7125
2640.26238	16008.9125
2642.91306	15971.2125
2645.56209	15966.5125
2648.20948	15968.4125
2650.85521	15974.2125
2653.4993	15962.8125
2656.14175	15938.3125
2658.78255	15960.3125
2661.42171	15989.0125
2664.05923	16000.6125
2666.6951	15991.2125
2669.32934	15992.9125
2671.96194	16000.6125
2674.59291	16026.3125
2677.22224	16026.3125
2679.84993	16000.2125
2682.476	15970.5125
2685.10043	16000.1125
2687.72324	15939.3125
2690.34441	15959.7125
2692.96396	15947.1125
2695.58188	15994.5125
2698.19818	15965.1125
2700.81285	15987.3125
2703.4259	15948.5125
2706.03733	15979.0125
2708.64714	16008.9125
2711.25533	16042.9125
2713.86191	16009.7125
2716.46687	16015.3125
2719.07021	16037.6125
2721.67194	16039.8125
2724.27206	16001.1125
2726.87057	16031.2125
2729.46747	15994.7125
2732.06276	16051.7125
2734.65644	16057.6125
2737.24852	16055.2125
2739.83899	15975.0125
2742.42786	15960.7125
2745.01513	15960.2125
2747.60079	15960.6125
2750.18486	15962.8125
2752.76733	15925.0125
2755.3482	15901.8125
2757.92747	15899.3125
2760.50515	15893.9125
2763.08123	15878.7125
2765.65573	15848.5125
2768.22863	15822.3125
2770.79994	15821.9125
2773.36967	15800.8125
2775.9378	15808.3125
2778.50435	15789.1125
2781.06932	15754.9125
2783.6327	15762.2125
2786.1945	15749.6125
2788.75471	15713.8125
2791.31335	15671.1125
2793.87041	15663.6125
2796.42589	15587.2125
2798.97979	15599.2125
2801.53212	15579.7125
2804.08288	15549.2125
2806.63206	15502.9125
2809.17967	15478.9125
2811.72571	15393.0125
2814.27018	15400.7125
2816.81308	15368.3125
2819.35442	15331.3125
2821.89419	15319.1125
2824.43239	15338.9125
2826.96904	15332.5125
2829.50412	15297.8125
2832.03763	15275.5125
2834.56959	15259.9125
2837.1	15238.7125
2839.62884	15211.4125
2842.15613	15195.4125
2844.68186	15192.4125
2847.20604	15202.3125
2849.72867	15220.5125
2852.24974	15215.2125
2854.76927	15196.9125
2857.28724	15151.8125
2859.80367	15132.6125
2862.31855	15119.4125
2864.83189	15129.0125
2867.34368	15092.0125
2869.85393	15109.9125
2872.36264	15102.9125
2874.8698	15080.1125
2877.37543	15071.7125
2879.87952	15065.0125
2882.38207	15063.1125
2884.88308	15062.4125
2887.38256	15079.7125
2889.88051	15023.6125
2892.37692	15015.9125
2894.8718	15056.0125
2897.36515	15085.2125
2899.85698	15066.8125
2902.34727	15074.0125
2904.83604	15127.7125
2907.32328	15135.2125
2909.809	15135.9125
2912.29319	15119.4125
2914.77587	15125.5125
2917.25702	15152.4125
2919.73665	15130.4125
2922.21476	15137.0125
2924.69136	15118.4125
2927.16644	15132.9125
2929.64	15070.8125
2932.11205	15056.7125
2934.58258	15010.5125
2937.05161	15029.4125
2939.51912	14988.0125
2941.98513	15000.0125
2944.44962	14957.7125
2946.91261	14902.3125
2949.37409	14978.2125
2951.83407	14952.5125
2954.29254	14939.6125
2956.74951	14940.2125
2959.20498	14932.3125
2961.65895	14931.9125
2964.11142	14917.1125
2966.56239	14910.3125
2969.01186	14898.1125
2971.45984	14841.7125
2973.90632	14846.0125
2976.35131	14803.3125
2978.7948	14794.2125
2981.23681	14793.2125
2983.67732	14758.2125
2986.11635	14705.1125
2988.55388	14723.7125
2990.98993	14725.9125
2993.4245	14691.8125
2995.85758	14637.9125
2998.28917	14626.0125
3000.71928	14602.1125
3003.14791	14544.0125
3005.57506	14538.2125
3008.00073	14479.8125
3010.42493	14475.1125
3012.84764	14464.8125
3015.26888	14472.2125
3017.68865	14389.4125
3020.10694	14397.5125
3022.52376	14367.1125
3024.9391	14351.5125
3027.35298	14366.3125
3029.76539	14369.6125
3032.17632	14299.0125
3034.5858	14294.8125
3036.9938	14280.5125
3039.40034	14289.6125
3041.80542	14281.4125
3044.20903	14258.1125
3046.61118	14259.0125
3049.01187	14196.9125
3051.4111	14224.5125
3053.80888	14184.1125
3056.20519	14134.6125
3058.60005	14093.6125
3060.99345	14096.0125
3063.3854	14088.1125
3065.7759	14050.0125
3068.16494	14024.1125
3070.55254	13952.5125
3072.93868	13953.9125
3075.32338	13932.3125
3077.70662	13896.5125
3080.08842	13856.5125
3082.46878	13849.0125
3084.84769	13784.0125
3087.22515	13788.0125
3089.60118	13796.2125
3091.97576	13797.5125
3094.3489	13804.2125
3096.72061	13788.8125
3099.09087	13836.6125
3101.4597	13841.1125
3103.82709	13839.0125
3106.19305	13823.4125
3108.55757	13824.1125
3110.92066	13773.5125
3113.28232	13797.4125
3115.64255	13736.2125
3118.00134	13691.1125
3120.35871	13681.6125
3122.71466	13632.3125
3125.06917	13622.2125
3127.42226	13590.6125
3129.77393	13566.0125
3132.12417	13548.4125
3134.47299	13549.5125
3136.82039	13553.2125
3139.16636	13551.6125
3141.51092	13570.7125
3143.85406	13534.3125
3146.19579	13511.5125
3148.53609	13529.3125
3150.87499	13544.6125
3153.21246	13542.6125
3155.54853	13557.1125
3157.88318	13541.1125
3160.21642	13581.8125
3162.54826	13562.5125
3164.87868	13580.3125
3167.2077	13566.3125
3169.5353	13573.7125
3171.86151	13565.7125
3174.18631	13512.4125
3176.5097	13502.1125
3178.83169	13488.5125
3181.15228	13492.4125
3183.47147	13463.3125
3185.78926	13423.8125
3188.10565	13419.7125
3190.42065	13403.6125
3192.73424	13408.9125
3195.04645	13375.7125
3197.35725	13389.2125
3199.66667	13355.9125
3201.97469	13387.3125
3204.28132	13387.1125
3206.58656	13390.6125
3208.8904	13399.0125
3211.19287	13370.8125
3213.49394	13392.7125
3215.79363	13376.2125
3218.09193	13367.5125
3220.38884	13348.5125
3222.68438	13359.3125
3224.97853	13362.6125
3227.2713	13336.2125
3229.56269	13345.4125
3231.8527	13360.6125
3234.14133	13322.5125
3236.42858	13308.6125
3238.71446	13304.2125
3240.99896	13261.6125
3243.28209	13238.0125
3245.56384	13192.6125
3247.84423	13197.3125
3250.12324	13188.2125
3252.40088	13180.4125
3254.67715	13166.0125
3256.95205	13127.9125
3259.22558	13130.3125
3261.49775	13142.1125
3263.76855	13161.8125
3266.03799	13132.0125
3268.30606	13120.3125
3270.57277	13107.8125
3272.83812	13084.2125
3275.10211	13042.5125
3277.36474	13033.5125
3279.62601	13026.1125
3281.88593	13007.1125
3284.14448	13002.9125
3286.40168	12991.3125
3288.65753	12984.5125
3290.91202	12991.5125
3293.16516	12958.8125
3295.41695	12941.1125
3297.66738	12886.6125
3299.91647	12788.6125
3302.16421	12711.0125
3304.4106	12645.9125
3306.65564	12597.0125
3308.89933	12527.9125
3311.14169	12461.2125
3313.38269	12359.9125
3315.62236	12294.0125
3317.86068	12215.8125
3320.09766	12147.7125
3322.3333	12097.0125
3324.5676	12052.8125
3326.80056	11913.0125
3329.03219	11846.7125
3331.26248	3.8125
3333.49143	-0.0875
3335.71905	-0.2875
