Data from AgNPs_APTES_FTO_UA_100uM_CRN_0uM_R6G_10uM_Scan_RamanShift__4__15-47-22-931.txt Node

Date: Mon Jul 11 15:47:22 BST 2022
User: TCL
Spectrometer: QEP01345
Trigger mode: 4
Integration Time (sec): 7.000000E0
Scans to average: 10
Electric dark correction enabled: true
Nonlinearity correction enabled: false
Boxcar width: 0
XAxis mode: Raman Shifts
Number of Pixels in Spectrum: 1044
>>>>>Begin Spectral Data<<<<<
46.04893	-1.4625
50.45542	-0.8625
54.85868	0.1375
59.25871	-1.9625
63.6555	47.4375
68.04907	51.9375
72.43941	52.7375
76.82654	54.9375
81.21044	61.0375
85.59113	62.4375
89.96862	65.9375
94.34289	68.9375
98.71396	68.5375
103.08183	71.2375
107.4465	72.7375
111.80798	74.6375
116.16626	74.2375
120.52136	78.5375
124.87327	84.2375
129.222	89.3375
133.56755	90.7375
137.90993	100.0375
142.24913	112.8375
146.58517	120.6375
150.91804	141.9375
155.24774	168.7375
159.57429	211.5375
163.89768	270.5375
168.21792	358.1375
172.53501	482.6375
176.84895	666.2375
181.15975	939.3375
185.46741	1322.4375
189.77193	1820.8375
194.07331	2454.9375
198.37157	3151.0375
202.6667	3903.1375
206.9587	4661.0375
211.24758	5408.8375
215.53334	6135.9375
219.81599	6942.6375
224.09553	7834.4375
228.37195	8781.2375
232.64527	9815.6375
236.91549	10883.8375
241.18261	11960.1375
245.44663	12933.3375
249.70755	13747.9375
253.96539	14421.8375
258.22014	14920.1375
262.4718	15245.0375
266.72039	15408.4375
270.96589	15363.7375
275.20832	15180.7375
279.44768	14865.4375
283.68397	14486.4375
287.91719	14166.7375
292.14735	13968.3375
296.37445	13815.4375
300.59849	13799.0375
304.81948	13816.6375
309.03742	13755.4375
313.25231	13568.0375
317.46415	13242.7375
321.67296	12886.3375
325.87872	12631.6375
330.08145	12563.2375
334.28114	12561.1375
338.47781	12627.1375
342.67145	12812.5375
346.86207	13037.1375
351.04966	13350.7375
355.23424	13685.5375
359.4158	13986.5375
363.59435	14193.5375
367.76989	14403.3375
371.94243	14529.8375
376.11196	14629.4375
380.27849	14759.3375
384.44203	14848.4375
388.60257	14939.7375
392.76012	15055.0375
396.91468	15184.0375
401.06626	15357.4375
405.21485	15508.1375
409.36047	15391.8375
413.50311	15173.6375
417.64277	14950.2375
421.77947	14810.7375
425.9132	14743.0375
430.04396	14747.8375
434.17176	14792.7375
438.2966	14925.2375
442.41849	15127.4375
446.53742	15371.6375
450.6534	15627.1375
454.76644	15835.0375
458.87653	15917.0375
462.98368	15945.0375
467.08789	15890.2375
471.18916	15782.3375
475.2875	15674.7375
479.38291	15581.9375
483.4754	15536.6375
487.56496	15488.2375
491.6516	15459.5375
495.73531	15489.6375
499.81612	15483.0375
503.89401	15611.1375
507.96899	15672.7375
512.04106	15725.0375
516.11023	15723.5375
520.1765	15735.3375
524.23987	15741.9375
528.30034	15728.1375
532.35792	15706.7375
536.41261	15664.1375
540.46441	15570.3375
544.51333	15542.5375
548.55936	15566.4375
552.60252	15680.7375
556.64279	15831.9375
560.6802	15954.9375
564.71473	16064.8375
568.7464	16146.0375
572.7752	16110.8375
576.80114	16059.7375
580.82422	16060.3375
584.84444	16145.7375
588.86181	16203.3375
592.87633	16243.7375
596.888	16298.7375
600.89682	16596.5375
604.9028	17575.0375
608.90594	19778.8375
612.90624	21816.4375
616.90371	20428.5375
620.89834	17464.7375
624.89015	16229.1375
628.87913	16138.5375
632.86528	16406.7375
636.84862	16769.5375
640.82913	16679.6375
644.80683	16278.5375
648.78172	16053.9375
652.75379	16042.9375
656.72306	16312.7375
660.68952	16603.8375
664.65319	16623.4375
668.61405	16545.9375
672.57211	16789.1375
676.52738	17232.5375
680.47986	17827.4375
684.42955	18550.1375
688.37646	19066.1375
692.32058	19065.6375
696.26192	18629.0375
700.20048	18133.9375
704.13626	17933.1375
708.06928	17787.0375
711.99952	17559.9375
715.927	17228.3375
719.85171	16848.1375
723.77365	16539.3375
727.69284	16339.4375
731.60928	16268.8375
735.52295	16272.5375
739.43388	16226.4375
743.34206	16185.3375
747.24749	16102.9375
751.15017	16046.4375
755.05012	16087.3375
758.94733	16364.7375
762.8418	17042.2375
766.73354	18240.7375
770.62254	19530.8375
774.50882	20206.3375
778.39237	19756.4375
782.27321	18614.3375
786.15132	17473.7375
790.02671	16772.0375
793.89938	16365.6375
797.76935	16160.1375
801.6366	15976.7375
805.50115	15906.4375
809.36299	15775.5375
813.22213	15705.1375
817.07857	15663.1375
820.93231	15637.6375
824.78336	15637.3375
828.63172	15610.4375
832.47738	15586.6375
836.32036	15561.1375
840.16066	15526.0375
843.99827	15498.9375
847.8332	15558.4375
851.66546	15598.1375
855.49504	15609.7375
859.32195	15686.9375
863.1462	15712.1375
866.96777	15722.8375
870.78668	15714.5375
874.60293	15797.7375
878.41652	15801.3375
882.22745	15806.5375
886.03573	15836.4375
889.84136	15815.2375
893.64433	15777.2375
897.44466	15702.9375
901.24235	15671.3375
905.0374	15616.1375
908.8298	15554.5375
912.61957	15488.4375
916.40671	15535.6375
920.19121	15602.3375
923.97308	15635.1375
927.75233	15679.0375
931.52895	15703.3375
935.30295	15635.3375
939.07433	15547.6375
942.84309	15468.6375
946.60924	15425.0375
950.37278	15441.2375
954.13371	15465.1375
957.89203	15479.9375
961.64774	15461.3375
965.40086	15389.3375
969.15137	15287.0375
972.89929	15218.3375
976.64461	15204.2375
980.38733	15127.2375
984.12747	15183.7375
987.86502	15188.6375
991.59999	15213.9375
995.33237	15280.0375
999.06217	15403.8375
1002.78939	15564.4375
1006.51404	15761.3375
1010.23611	15957.5375
1013.95561	16172.3375
1017.67255	16222.9375
1021.38692	16174.0375
1025.09872	15948.2375
1028.80796	15756.4375
1032.51465	15683.8375
1036.21877	15706.7375
1039.92035	15732.6375
1043.61937	15833.3375
1047.31584	15879.8375
1051.00976	15925.8375
1054.70114	15963.6375
1058.38998	16003.7375
1062.07627	16092.8375
1065.76003	16202.8375
1069.44126	16365.5375
1073.11995	16610.9375
1076.79611	16854.5375
1080.46974	16960.3375
1084.14085	17000.1375
1087.80943	17090.7375
1091.47549	17185.3375
1095.13903	17186.5375
1098.80005	17061.6375
1102.45857	16894.9375
1106.11456	16770.5375
1109.76805	16748.2375
1113.41903	16803.6375
1117.06751	16932.9375
1120.71348	17168.3375
1124.35696	17433.4375
1127.99793	17744.9375
1131.63641	17912.2375
1135.2724	17829.5375
1138.90589	17653.2375
1142.5369	17530.7375
1146.16542	17386.9375
1149.79145	17136.9375
1153.415	17005.6375
1157.03607	16906.8375
1160.65467	17004.2375
1164.27079	17299.8375
1167.88443	17716.7375
1171.49561	18353.2375
1175.10432	19276.5375
1178.71056	20446.5375
1182.31434	21486.8375
1185.91565	22093.8375
1189.51451	22196.6375
1193.11091	21973.2375
1196.70485	21475.0375
1200.29634	20864.9375
1203.88538	20260.9375
1207.47197	19615.8375
1211.05612	19035.4375
1214.63782	18599.1375
1218.21708	18280.5375
1221.79391	18049.0375
1225.36829	17910.6375
1228.94024	17891.3375
1232.50976	17805.7375
1236.07685	17769.2375
1239.6415	17770.7375
1243.20374	17806.2375
1246.76355	17912.6375
1250.32093	18095.5375
1253.8759	18335.6375
1257.42845	18675.0375
1260.97859	19035.5375
1264.52631	19377.7375
1268.07163	19739.1375
1271.61453	20053.3375
1275.15503	20313.3375
1278.69312	20544.5375
1282.22882	20682.9375
1285.76211	20912.7375
1289.29301	21286.2375
1292.82151	21771.5375
1296.34761	22326.7375
1299.87133	23032.9375
1303.39266	23907.2375
1306.9116	25034.6375
1310.42815	26227.9375
1313.94233	26809.4375
1317.45412	26637.8375
1320.96354	25993.3375
1324.47058	25250.1375
1327.97525	24432.1375
1331.47754	23866.8375
1334.97747	23667.8375
1338.47502	23755.0375
1341.97022	24227.4375
1345.46305	24940.5375
1348.95352	25757.4375
1352.44163	26697.8375
1355.92738	27663.0375
1359.41078	28913.6375
1362.89183	29925.6375
1366.37053	29279.6375
1369.84688	26791.3375
1373.32088	24300.1375
1376.79254	22719.8375
1380.26186	21903.7375
1383.72883	21427.8375
1387.19347	21012.3375
1390.65578	20643.3375
1394.11575	20256.8375
1397.57339	20007.2375
1401.0287	19806.2375
1404.48168	19698.1375
1407.93234	19647.8375
1411.38068	19584.2375
1414.82669	19455.0375
1418.27039	19216.2375
1421.71177	19067.5375
1425.15083	18871.3375
1428.58758	18816.3375
1432.02203	18872.2375
1435.45416	19136.2375
1438.88399	19358.5375
1442.31151	19604.8375
1445.73673	19903.6375
1449.15965	20268.3375
1452.58027	20602.1375
1455.9986	20913.5375
1459.41463	21339.9375
1462.82837	21760.8375
1466.23982	22145.9375
1469.64898	22397.8375
1473.05586	22483.4375
1476.46045	22376.0375
1479.86276	22111.0375
1483.26279	21838.9375
1486.66054	21670.2375
1490.05602	21620.5375
1493.44922	21788.6375
1496.84016	22290.9375
1500.22882	23192.5375
1503.61521	24584.4375
1506.99934	26058.0375
1510.38121	27135.8375
1513.76081	27163.2375
1517.13816	26196.4375
1520.51324	24608.7375
1523.88607	23165.0375
1527.25665	22174.9375
1530.62498	21647.4375
1533.99105	21322.2375
1537.35488	21145.9375
1540.71647	20960.8375
1544.07581	20894.8375
1547.4329	20853.0375
1550.78776	20723.7375
1554.14038	20615.3375
1557.49077	20634.3375
1560.83892	20697.6375
1564.18484	20932.8375
1567.52853	21187.4375
1570.86999	21489.5375
1574.20922	21621.8375
1577.54624	21540.1375
1580.88103	21119.6375
1584.2136	20501.2375
1587.54395	20192.6375
1590.87208	20248.8375
1594.19801	20643.8375
1597.52172	21314.1375
1600.84321	21664.3375
1604.16251	21398.7375
1607.47959	20795.7375
1610.79447	20021.8375
1614.10715	19185.2375
1617.41763	18378.1375
1620.7259	17829.8375
1624.03199	17439.6375
1627.33587	17356.9375
1630.63757	17423.2375
1633.93707	17797.3375
1637.23439	18463.4375
1640.52951	19523.5375
1643.82246	20882.2375
1647.11321	22114.8375
1650.40179	22828.8375
1653.68819	22248.8375
1656.97241	20755.3375
1660.25446	19063.6375
1663.53433	17830.3375
1666.81203	17081.3375
1670.08756	16616.4375
1673.36092	16299.1375
1676.63211	16082.9375
1679.90115	15903.8375
1683.16801	15676.6375
1686.43272	15525.9375
1689.69527	15382.3375
1692.95567	15253.4375
1696.2139	15166.3375
1699.46999	15032.8375
1702.72392	14942.9375
1705.97571	14876.9375
1709.22535	14777.9375
1712.47284	14734.5375
1715.71819	14661.5375
1718.96139	14582.9375
1722.20246	14502.3375
1725.44139	14434.2375
1728.67818	14322.0375
1731.91284	14241.6375
1735.14537	14137.3375
1738.37576	14024.4375
1741.60403	13964.3375
1744.83017	13874.6375
1748.05418	13827.4375
1751.27607	13770.3375
1754.49584	13710.4375
1757.71349	13720.1375
1760.92903	13695.8375
1764.14244	13690.6375
1767.35375	13681.9375
1770.56294	13606.7375
1773.77002	13613.8375
1776.97499	13566.4375
1780.17785	13511.0375
1783.37861	13499.8375
1786.57727	13501.6375
1789.77382	13444.9375
1792.96828	13409.8375
1796.16064	13411.2375
1799.3509	13393.2375
1802.53907	13347.2375
1805.72514	13323.5375
1808.90913	13262.9375
1812.09102	13215.4375
1815.27083	13202.3375
1818.44856	13174.4375
1821.6242	13149.7375
1824.79776	13155.0375
1827.96924	13124.3375
1831.13864	13103.0375
1834.30597	13080.1375
1837.47122	13089.9375
1840.6344	13062.3375
1843.7955	13047.6375
1846.95454	13053.8375
1850.11151	13057.1375
1853.26642	13033.4375
1856.41926	13017.6375
1859.57004	12996.5375
1862.71876	13012.8375
1865.86542	12990.7375
1869.01003	12969.3375
1872.15258	12970.4375
1875.29308	13002.2375
1878.43152	12976.0375
1881.56792	12960.8375
1884.70227	12934.5375
1887.83457	12953.0375
1890.96482	12926.6375
1894.09304	12904.7375
1897.21921	12924.8375
1900.34335	12897.9375
1903.46544	12912.7375
1906.58551	12900.2375
1909.70353	12862.9375
1912.81953	12865.0375
1915.93349	12846.3375
1919.04543	12818.6375
1922.15534	12810.9375
1925.26322	12774.3375
1928.36908	12781.5375
1931.47292	12751.6375
1934.57473	12718.0375
1937.67453	12666.5375
1940.77232	12649.9375
1943.86808	12627.2375
1946.96184	12615.6375
1950.05358	12615.5375
1953.14331	12542.1375
1956.23103	12503.2375
1959.31675	12446.7375
1962.40046	12469.6375
1965.48217	12439.7375
1968.56188	12398.3375
1971.63959	12354.3375
1974.7153	12311.3375
1977.78901	12304.1375
1980.86073	12269.3375
1983.93046	12266.0375
1986.99819	12175.7375
1990.06394	12158.0375
1993.1277	12114.9375
1996.18947	12071.3375
1999.24925	12065.0375
2002.30706	12015.9375
2005.36288	11991.9375
2008.41672	11974.6375
2011.46859	11939.8375
2014.51848	11901.6375
2017.56639	11876.4375
2020.61233	11865.6375
2023.6563	11839.2375
2026.6983	11813.8375
2029.73833	11785.7375
2032.7764	11758.3375
2035.8125	11712.4375
2038.84664	11719.0375
2041.87881	11716.1375
2044.90903	11700.5375
2047.93729	11718.7375
2050.96359	11697.6375
2053.98794	11685.5375
2057.01034	11674.4375
2060.03078	11690.7375
2063.04927	11695.4375
2066.06582	11696.7375
2069.08042	11726.2375
2072.09307	11732.5375
2075.10378	11731.4375
2078.11255	11790.7375
2081.11938	11793.1375
2084.12426	11805.9375
2087.12722	11806.6375
2090.12824	11822.2375
2093.12732	11840.7375
2096.12447	11862.0375
2099.11969	11860.2375
2102.11299	11868.5375
2105.10435	11903.2375
2108.09379	11911.2375
2111.08131	11917.2375
2114.0669	11936.5375
2117.05057	11964.0375
2120.03233	11946.0375
2123.01216	11960.2375
2125.99008	11946.0375
2128.96609	11972.4375
2131.94018	11986.9375
2134.91236	11970.2375
2137.88263	11979.3375
2140.851	11945.0375
2143.81746	11937.7375
2146.78201	11921.1375
2149.74466	11906.2375
2152.7054	11880.0375
2155.66425	11849.0375
2158.6212	11819.3375
2161.57625	11785.0375
2164.52941	11774.4375
2167.48067	11778.8375
2170.43004	11768.1375
2173.37752	11788.4375
2176.32311	11778.2375
2179.26681	11777.0375
2182.20863	11723.7375
2185.14856	11748.4375
2188.08661	11734.4375
2191.02278	11764.2375
2193.95707	11739.5375
2196.88948	11724.0375
2199.82001	11750.4375
2202.74867	11731.8375
2205.67545	11717.8375
2208.60037	11735.2375
2211.52341	11716.2375
2214.44458	11682.8375
2217.36388	11641.4375
2220.28132	11637.5375
2223.1969	11591.0375
2226.11061	11616.7375
2229.02246	11571.9375
2231.93245	11561.1375
2234.84058	11550.8375
2237.74686	11557.0375
2240.65128	11533.8375
2243.55385	11490.9375
2246.45456	11484.8375
2249.35343	11476.2375
2252.25044	11464.6375
2255.14561	11478.9375
2258.03893	11476.4375
2260.93041	11464.9375
2263.82004	11472.1375
2266.70783	11444.1375
2269.59378	11407.0375
2272.4779	11355.1375
2275.36017	11331.1375
2278.24061	11345.7375
2281.11922	11338.2375
2283.996	11306.3375
2286.87094	11272.3375
2289.74405	11254.5375
2292.61534	11239.4375
2295.4848	11234.5375
2298.35243	11261.6375
2301.21824	11254.6375
2304.08223	11260.7375
2306.94439	11244.6375
2309.80474	11245.7375
2312.66327	11234.8375
2315.51999	11218.1375
2318.37489	11200.4375
2321.22797	11194.1375
2324.07925	11191.2375
2326.92871	11172.3375
2329.77637	11164.4375
2332.62222	11146.7375
2335.46626	11160.2375
2338.3085	11145.0375
2341.14893	11108.2375
2343.98756	11123.0375
2346.8244	11125.7375
2349.65943	11141.4375
2352.49267	11133.0375
2355.32411	11108.5375
2358.15376	11120.8375
2360.98161	11116.6375
2363.80768	11137.1375
2366.63195	11156.4375
2369.45444	11106.3375
2372.27514	11105.9375
2375.09405	11109.5375
2377.91118	11091.0375
2380.72652	11091.6375
2383.54009	11075.5375
2386.35187	11067.5375
2389.16188	11023.6375
2391.97011	10990.2375
2394.77657	10990.5375
2397.58125	10963.7375
2400.38416	10949.8375
2403.18529	10926.3375
2405.98466	10923.5375
2408.78226	10928.1375
2411.57809	10925.2375
2414.37216	10905.0375
2417.16446	10925.9375
2419.955	10897.2375
2422.74378	10909.3375
2425.5308	10884.1375
2428.31606	10902.5375
2431.09956	10867.3375
2433.88131	10868.8375
2436.6613	10887.8375
2439.43954	10895.3375
2442.21603	10860.5375
2444.99077	10860.3375
2447.76377	10853.5375
2450.53501	10851.1375
2453.30451	10854.8375
2456.07226	10864.9375
2458.83827	10836.5375
2461.60254	10795.2375
2464.36507	10806.3375
2467.12586	10809.4375
2469.88492	10803.3375
2472.64224	10800.1375
2475.39782	10806.3375
2478.15167	10804.7375
2480.90379	10789.6375
2483.65417	10823.5375
2486.40283	10815.3375
2489.14976	10817.2375
2491.89497	10802.5375
2494.63845	10820.9375
2497.3802	10818.5375
2500.12024	10835.4375
2502.85855	10793.1375
2505.59514	10766.1375
2508.33002	10765.6375
2511.06318	10747.3375
2513.79462	10730.4375
2516.52435	10720.0375
2519.25237	10732.2375
2521.97867	10699.6375
2524.70327	10726.1375
2527.42616	10710.6375
2530.14734	10717.8375
2532.86681	10712.9375
2535.58458	10724.7375
2538.30065	10678.2375
2541.01501	10680.9375
2543.72768	10670.4375
2546.43864	10653.6375
2549.14791	10659.7375
2551.85548	10671.1375
2554.56136	10653.4375
2557.26554	10620.3375
2559.96803	10620.1375
2562.66883	10590.2375
2565.36794	10593.9375
2568.06536	10584.6375
2570.7611	10562.2375
2573.45514	10552.2375
2576.14751	10543.8375
2578.83819	10543.4375
2581.52719	10534.3375
2584.21451	10503.9375
2586.90015	10469.7375
2589.58411	10454.8375
2592.2664	10467.4375
2594.94701	10436.5375
2597.62594	10449.5375
2600.30321	10441.1375
2602.9788	10434.1375
2605.65273	10410.9375
2608.32498	10414.3375
2610.99557	10391.3375
2613.66449	10389.3375
2616.33175	10372.8375
2618.99734	10407.3375
2621.66128	10400.0375
2624.32355	10350.2375
2626.98416	10336.8375
2629.64311	10325.4375
2632.30041	10340.3375
2634.95605	10350.3375
2637.61004	10307.5375
2640.26238	10327.7375
2642.91306	10290.7375
2645.56209	10276.8375
2648.20948	10305.9375
2650.85521	10284.6375
2653.4993	10322.5375
2656.14175	10279.4375
2658.78255	10280.5375
2661.42171	10295.3375
2664.05923	10334.0375
2666.6951	10327.7375
2669.32934	10349.5375
2671.96194	10325.3375
2674.59291	10343.3375
2677.22224	10365.7375
2679.84993	10352.0375
2682.476	10326.9375
2685.10043	10338.7375
2687.72324	10360.5375
2690.34441	10350.0375
2692.96396	10376.5375
2695.58188	10386.8375
2698.19818	10381.3375
2700.81285	10382.3375
2703.4259	10388.7375
2706.03733	10398.6375
2708.64714	10420.0375
2711.25533	10401.8375
2713.86191	10391.4375
2716.46687	10402.4375
2719.07021	10413.2375
2721.67194	10438.3375
2724.27206	10431.0375
2726.87057	10458.1375
2729.46747	10437.2375
2732.06276	10448.4375
2734.65644	10452.5375
2737.24852	10457.0375
2739.83899	10424.4375
2742.42786	10441.1375
2745.01513	10409.9375
2747.60079	10408.7375
2750.18486	10413.5375
2752.76733	10410.7375
2755.3482	10398.9375
2757.92747	10386.8375
2760.50515	10374.7375
2763.08123	10382.9375
2765.65573	10378.4375
2768.22863	10343.0375
2770.79994	10324.6375
2773.36967	10365.6375
2775.9378	10346.0375
2778.50435	10329.7375
2781.06932	10315.8375
2783.6327	10296.6375
2786.1945	10307.5375
2788.75471	10275.3375
2791.31335	10265.0375
2793.87041	10274.0375
2796.42589	10235.2375
2798.97979	10231.0375
2801.53212	10217.9375
2804.08288	10226.0375
2806.63206	10177.3375
2809.17967	10158.4375
2811.72571	10135.1375
2814.27018	10118.5375
2816.81308	10080.4375
2819.35442	10079.3375
2821.89419	10045.5375
2824.43239	10068.6375
2826.96904	10056.5375
2829.50412	10061.6375
2832.03763	10025.2375
2834.56959	10046.3375
2837.1	10020.1375
2839.62884	10038.3375
2842.15613	10021.5375
2844.68186	10038.6375
2847.20604	10024.5375
2849.72867	10033.6375
2852.24974	10026.0375
2854.76927	10011.6375
2857.28724	10005.2375
2859.80367	9986.2375
2862.31855	10014.8375
2864.83189	9994.3375
2867.34368	9990.0375
2869.85393	9982.5375
2872.36264	9981.3375
2874.8698	9992.9375
2877.37543	9975.6375
2879.87952	9995.8375
2882.38207	10023.3375
2884.88308	10002.5375
2887.38256	10014.9375
2889.88051	10015.7375
2892.37692	10014.5375
2894.8718	10018.0375
2897.36515	10063.7375
2899.85698	10028.3375
2902.34727	10059.3375
2904.83604	10104.2375
2907.32328	10117.7375
2909.809	10108.7375
2912.29319	10110.1375
2914.77587	10117.0375
2917.25702	10137.8375
2919.73665	10129.0375
2922.21476	10150.8375
2924.69136	10135.6375
2927.16644	10163.6375
2929.64	10166.8375
2932.11205	10127.9375
2934.58258	10099.7375
2937.05161	10121.8375
2939.51912	10092.1375
2941.98513	10090.0375
2944.44962	10061.3375
2946.91261	10040.5375
2949.37409	10074.4375
2951.83407	10069.9375
2954.29254	10087.7375
2956.74951	10061.7375
2959.20498	10061.6375
2961.65895	10069.9375
2964.11142	10084.4375
2966.56239	10064.2375
2969.01186	10079.1375
2971.45984	10053.1375
2973.90632	10034.9375
2976.35131	9998.9375
2978.7948	10006.7375
2981.23681	9989.8375
2983.67732	10006.2375
2986.11635	9977.3375
2988.55388	9959.2375
2990.98993	9948.8375
2993.4245	9941.3375
2995.85758	9918.0375
2998.28917	9915.3375
3000.71928	9898.8375
3003.14791	9861.2375
3005.57506	9865.9375
3008.00073	9817.1375
3010.42493	9849.9375
3012.84764	9812.0375
3015.26888	9819.5375
3017.68865	9817.5375
3020.10694	9803.7375
3022.52376	9771.3375
3024.9391	9799.6375
3027.35298	9778.7375
3029.76539	9770.9375
3032.17632	9775.9375
3034.5858	9753.2375
3036.9938	9756.1375
3039.40034	9738.3375
3041.80542	9754.6375
3044.20903	9726.6375
3046.61118	9753.8375
3049.01187	9701.7375
3051.4111	9701.5375
3053.80888	9700.5375
3056.20519	9700.2375
3058.60005	9683.3375
3060.99345	9672.5375
3063.3854	9652.2375
3065.7759	9628.0375
3068.16494	9636.3375
3070.55254	9607.8375
3072.93868	9596.0375
3075.32338	9569.5375
3077.70662	9574.6375
3080.08842	9549.1375
3082.46878	9543.6375
3084.84769	9536.8375
3087.22515	9506.9375
3089.60118	9533.0375
3091.97576	9512.6375
3094.3489	9553.4375
3096.72061	9570.1375
3099.09087	9571.5375
3101.4597	9578.1375
3103.82709	9607.8375
3106.19305	9571.0375
3108.55757	9579.4375
3110.92066	9568.2375
3113.28232	9574.2375
3115.64255	9531.7375
3118.00134	9520.6375
3120.35871	9513.4375
3122.71466	9496.5375
3125.06917	9486.0375
3127.42226	9437.6375
3129.77393	9465.5375
3132.12417	9447.2375
3134.47299	9448.7375
3136.82039	9486.8375
3139.16636	9487.6375
3141.51092	9501.3375
3143.85406	9501.5375
3146.19579	9478.4375
3148.53609	9483.4375
3150.87499	9489.0375
3153.21246	9520.4375
3155.54853	9559.9375
3157.88318	9553.4375
3160.21642	9580.8375
3162.54826	9579.6375
3164.87868	9584.0375
3167.2077	9580.0375
3169.5353	9555.3375
3171.86151	9563.3375
3174.18631	9573.8375
3176.5097	9566.0375
3178.83169	9540.9375
3181.15228	9568.3375
3183.47147	9526.9375
3185.78926	9526.8375
3188.10565	9524.2375
3190.42065	9513.5375
3192.73424	9530.3375
3195.04645	9533.2375
3197.35725	9539.3375
3199.66667	9523.0375
3201.97469	9563.0375
3204.28132	9560.4375
3206.58656	9587.3375
3208.8904	9579.9375
3211.19287	9593.5375
3213.49394	9604.6375
3215.79363	9604.7375
3218.09193	9623.6375
3220.38884	9606.9375
3222.68438	9592.4375
3224.97853	9660.5375
3227.2713	9618.4375
3229.56269	9610.3375
3231.8527	9630.5375
3234.14133	9580.2375
3236.42858	9590.0375
3238.71446	9567.5375
3240.99896	9563.8375
3243.28209	9541.9375
3245.56384	9520.5375
3247.84423	9543.1375
3250.12324	9523.1375
3252.40088	9546.2375
3254.67715	9532.7375
3256.95205	9513.2375
3259.22558	9528.5375
3261.49775	9546.2375
3263.76855	9553.8375
3266.03799	9543.9375
3268.30606	9552.9375
3270.57277	9541.2375
3272.83812	9519.7375
3275.10211	9497.6375
3277.36474	9466.7375
3279.62601	9473.0375
3281.88593	9474.4375
3284.14448	9487.4375
3286.40168	9484.5375
3288.65753	9502.6375
3290.91202	9487.4375
3293.16516	9498.4375
3295.41695	9467.3375
3297.66738	9421.5375
3299.91647	9397.1375
3302.16421	9300.0375
3304.4106	9313.5375
3306.65564	9282.5375
3308.89933	9210.7375
3311.14169	9180.3375
3313.38269	9119.4375
3315.62236	9080.1375
3317.86068	9011.8375
3320.09766	9002.7375
3322.3333	8957.4375
3324.5676	8958.2375
3326.80056	8821.2375
3329.03219	8774.5375
3331.26248	3.1375
3333.49143	1.1375
3335.71905	-1.0625
