Data from AgNPs_APTES_FTO_UA_100uM_CRN_0uM_R6G_10uM_Scan_RamanShift__67__17-00-53-004.txt Node

Date: Mon Jul 11 17:00:53 BST 2022
User: TCL
Spectrometer: QEP01345
Trigger mode: 4
Integration Time (sec): 7.000000E0
Scans to average: 10
Electric dark correction enabled: true
Nonlinearity correction enabled: false
Boxcar width: 0
XAxis mode: Raman Shifts
Number of Pixels in Spectrum: 1044
>>>>>Begin Spectral Data<<<<<
46.04893	-1.3125
50.45542	-0.3125
54.85868	-0.3125
59.25871	-3.1125
63.6555	49.3875
68.04907	52.1875
72.43941	55.6875
76.82654	56.5875
81.21044	61.4875
85.59113	60.8875
89.96862	65.8875
94.34289	66.2875
98.71396	66.1875
103.08183	66.5875
107.4465	71.0875
111.80798	70.5875
116.16626	73.3875
120.52136	75.9875
124.87327	80.0875
129.222	82.5875
133.56755	90.1875
137.90993	93.6875
142.24913	101.7875
146.58517	113.5875
150.91804	127.5875
155.24774	150.4875
159.57429	184.7875
163.89768	232.0875
168.21792	302.7875
172.53501	411.5875
176.84895	573.0875
181.15975	797.0875
185.46741	1125.1875
189.77193	1559.1875
194.07331	2097.7875
198.37157	2687.0875
202.6667	3339.3875
206.9587	3967.2875
211.24758	4582.8875
215.53334	5204.1875
219.81599	5828.7875
224.09553	6503.6875
228.37195	7286.3875
232.64527	8127.5875
236.91549	9058.3875
241.18261	10001.3875
245.44663	10993.5875
249.70755	11844.0875
253.96539	12643.0875
258.22014	13317.8875
262.4718	13825.6875
266.72039	14135.1875
270.96589	14253.1875
275.20832	14238.8875
279.44768	14067.2875
283.68397	13856.1875
287.91719	13649.3875
292.14735	13478.4875
296.37445	13298.7875
300.59849	13170.2875
304.81948	13067.5875
309.03742	13039.4875
313.25231	12978.6875
317.46415	12959.1875
321.67296	12939.9875
325.87872	12961.8875
330.08145	13068.7875
334.28114	13199.8875
338.47781	13353.8875
342.67145	13504.3875
346.86207	13688.9875
351.04966	13878.5875
355.23424	14094.7875
359.4158	14294.9875
363.59435	14477.8875
367.76989	14697.7875
371.94243	14856.4875
376.11196	15010.0875
380.27849	15192.6875
384.44203	15349.0875
388.60257	15518.9875
392.76012	15648.0875
396.91468	15788.2875
401.06626	15941.8875
405.21485	16068.4875
409.36047	16132.4875
413.50311	16166.6875
417.64277	16217.7875
421.77947	16231.0875
425.9132	16297.5875
430.04396	16435.7875
434.17176	16539.8875
438.2966	16676.8875
442.41849	16874.9875
446.53742	17033.1875
450.6534	17217.2875
454.76644	17389.1875
458.87653	17525.2875
462.98368	17645.6875
467.08789	17728.8875
471.18916	17763.8875
475.2875	17756.6875
479.38291	17720.4875
483.4754	17738.4875
487.56496	17760.9875
491.6516	17764.8875
495.73531	17825.3875
499.81612	17820.4875
503.89401	17972.1875
507.96899	18030.3875
512.04106	18095.4875
516.11023	18129.8875
520.1765	18163.7875
524.23987	18227.4875
528.30034	18302.5875
532.35792	18370.9875
536.41261	18380.7875
540.46441	18396.8875
544.51333	18406.8875
548.55936	18465.3875
552.60252	18597.9875
556.64279	18707.0875
560.6802	18843.6875
564.71473	18960.8875
568.7464	18920.9875
572.7752	18932.9875
576.80114	18892.8875
580.82422	18917.2875
584.84444	19037.4875
588.86181	19097.6875
592.87633	19203.3875
596.888	19303.0875
600.89682	19456.9875
604.9028	19807.6875
608.90594	20458.5875
612.90624	20980.1875
616.90371	20545.6875
620.89834	19876.9875
624.89015	19644.6875
628.87913	19689.5875
632.86528	19810.9875
636.84862	19915.1875
640.82913	19906.0875
644.80683	19874.5875
648.78172	19854.0875
652.75379	19883.3875
656.72306	20014.7875
660.68952	20177.4875
664.65319	20211.2875
668.61405	20270.9875
672.57211	20357.2875
676.52738	20424.2875
680.47986	20476.0875
684.42955	20526.0875
688.37646	20623.3875
692.32058	20758.4875
696.26192	20873.4875
700.20048	21005.4875
704.13626	21071.3875
708.06928	21009.1875
711.99952	20973.2875
715.927	20980.7875
719.85171	20981.2875
723.77365	20950.4875
727.69284	20906.6875
731.60928	20900.8875
735.52295	20896.9875
739.43388	20929.9875
743.34206	20980.2875
747.24749	20997.2875
751.15017	21045.4875
755.05012	21135.5875
758.94733	21223.6875
762.8418	21386.4875
766.73354	21716.5875
770.62254	22016.2875
774.50882	22265.6875
778.39237	22283.6875
782.27321	22112.6875
786.15132	21900.6875
790.02671	21723.0875
793.89938	21605.8875
797.76935	21491.0875
801.6366	21489.5875
805.50115	21465.2875
809.36299	21492.6875
813.22213	21497.8875
817.07857	21529.4875
820.93231	21525.1875
824.78336	21565.2875
828.63172	21611.0875
832.47738	21679.6875
836.32036	21664.8875
840.16066	21731.7875
843.99827	21747.8875
847.8332	21799.3875
851.66546	21837.3875
855.49504	21846.1875
859.32195	21909.4875
863.1462	21947.1875
866.96777	22011.4875
870.78668	22058.1875
874.60293	22111.7875
878.41652	22137.1875
882.22745	22164.0875
886.03573	22207.1875
889.84136	22266.1875
893.64433	22292.2875
897.44466	22293.1875
901.24235	22325.5875
905.0374	22311.7875
908.8298	22324.9875
912.61957	22372.3875
916.40671	22395.7875
920.19121	22362.8875
923.97308	22374.7875
927.75233	22340.5875
931.52895	22375.8875
935.30295	22369.2875
939.07433	22315.3875
942.84309	22281.5875
946.60924	22259.5875
950.37278	22232.2875
954.13371	22241.1875
957.89203	22216.5875
961.64774	22223.1875
965.40086	22229.2875
969.15137	22220.1875
972.89929	22186.5875
976.64461	22211.8875
980.38733	22206.9875
984.12747	22246.1875
987.86502	22266.7875
991.59999	22308.8875
995.33237	22418.3875
999.06217	22473.8875
1002.78939	22601.5875
1006.51404	22680.6875
1010.23611	22813.1875
1013.95561	22903.8875
1017.67255	22979.9875
1021.38692	22922.9875
1025.09872	22897.3875
1028.80796	22806.9875
1032.51465	22764.7875
1036.21877	22765.9875
1039.92035	22785.7875
1043.61937	22834.0875
1047.31584	22881.5875
1051.00976	22907.8875
1054.70114	22981.1875
1058.38998	22995.1875
1062.07627	22995.9875
1065.76003	23108.9875
1069.44126	23228.6875
1073.11995	23350.4875
1076.79611	23572.3875
1080.46974	23653.2875
1084.14085	23604.1875
1087.80943	23594.6875
1091.47549	23623.3875
1095.13903	23693.2875
1098.80005	23747.4875
1102.45857	23741.2875
1106.11456	23735.8875
1109.76805	23639.2875
1113.41903	23531.2875
1117.06751	23479.8875
1120.71348	23469.8875
1124.35696	23448.5875
1127.99793	23469.3875
1131.63641	23498.4875
1135.2724	23503.0875
1138.90589	23452.9875
1142.5369	23422.1875
1146.16542	23394.6875
1149.79145	23341.1875
1153.415	23248.4875
1157.03607	23152.5875
1160.65467	23157.9875
1164.27079	23192.1875
1167.88443	23310.4875
1171.49561	23487.5875
1175.10432	23731.7875
1178.71056	23998.6875
1182.31434	24313.1875
1185.91565	24538.7875
1189.51451	24757.1875
1193.11091	24920.9875
1196.70485	24929.8875
1200.29634	24904.9875
1203.88538	24770.5875
1207.47197	24603.7875
1211.05612	24471.2875
1214.63782	24368.8875
1218.21708	24155.8875
1221.79391	23959.5875
1225.36829	23903.2875
1228.94024	23790.3875
1232.50976	23812.0875
1236.07685	23759.6875
1239.6415	23800.9875
1243.20374	23848.9875
1246.76355	23948.3875
1250.32093	24038.2875
1253.8759	24134.6875
1257.42845	24313.1875
1260.97859	24497.0875
1264.52631	24594.1875
1268.07163	24668.7875
1271.61453	24746.8875
1275.15503	24760.2875
1278.69312	24736.4875
1282.22882	24658.5875
1285.76211	24669.0875
1289.29301	24648.5875
1292.82151	24701.1875
1296.34761	24838.4875
1299.87133	24921.9875
1303.39266	25110.3875
1306.9116	25385.4875
1310.42815	25638.4875
1313.94233	25860.4875
1317.45412	25930.1875
1320.96354	25920.0875
1324.47058	25826.3875
1327.97525	25536.8875
1331.47754	25337.5875
1334.97747	25220.6875
1338.47502	25339.9875
1341.97022	25677.6875
1345.46305	26158.0875
1348.95352	26556.6875
1352.44163	26756.2875
1355.92738	26697.9875
1359.41078	26650.5875
1362.89183	26481.8875
1366.37053	26053.9875
1369.84688	25435.0875
1373.32088	24900.7875
1376.79254	24474.8875
1380.26186	24194.6875
1383.72883	23998.0875
1387.19347	23814.1875
1390.65578	23636.3875
1394.11575	23458.9875
1397.57339	23311.0875
1401.0287	23208.9875
1404.48168	23133.4875
1407.93234	23166.1875
1411.38068	23191.5875
1414.82669	23185.4875
1418.27039	23091.8875
1421.71177	23016.0875
1425.15083	22948.7875
1428.58758	22896.6875
1432.02203	22867.6875
1435.45416	22848.6875
1438.88399	22846.1875
1442.31151	22813.1875
1445.73673	22843.5875
1449.15965	22852.1875
1452.58027	22855.8875
1455.9986	22787.6875
1459.41463	22852.1875
1462.82837	22965.0875
1466.23982	23120.0875
1469.64898	23278.2875
1473.05586	23442.3875
1476.46045	23476.7875
1479.86276	23456.9875
1483.26279	23516.5875
1486.66054	23558.8875
1490.05602	23641.9875
1493.44922	23742.6875
1496.84016	23935.5875
1500.22882	24246.5875
1503.61521	24609.3875
1506.99934	24840.0875
1510.38121	24914.5875
1513.76081	24748.7875
1517.13816	24547.6875
1520.51324	24324.2875
1523.88607	24091.6875
1527.25665	23978.5875
1530.62498	23883.5875
1533.99105	23843.4875
1537.35488	23877.9875
1540.71647	23890.8875
1544.07581	23970.5875
1547.4329	23950.5875
1550.78776	23883.8875
1554.14038	23814.5875
1557.49077	23767.6875
1560.83892	23764.8875
1564.18484	23808.7875
1567.52853	23866.0875
1570.86999	23922.9875
1574.20922	23936.5875
1577.54624	23953.3875
1580.88103	23829.6875
1584.2136	23714.6875
1587.54395	23643.6875
1590.87208	23682.7875
1594.19801	23843.7875
1597.52172	24062.5875
1600.84321	24237.0875
1604.16251	24315.8875
1607.47959	24204.3875
1610.79447	23908.7875
1614.10715	23531.8875
1617.41763	23148.5875
1620.7259	22902.5875
1624.03199	22682.3875
1627.33587	22586.7875
1630.63757	22582.8875
1633.93707	22616.0875
1637.23439	22795.8875
1640.52951	23099.0875
1643.82246	23456.1875
1647.11321	23717.1875
1650.40179	23753.6875
1653.68819	23487.0875
1656.97241	23047.4875
1660.25446	22584.4875
1663.53433	22241.3875
1666.81203	22048.1875
1670.08756	21897.8875
1673.36092	21807.0875
1676.63211	21676.9875
1679.90115	21620.3875
1683.16801	21579.9875
1686.43272	21516.0875
1689.69527	21474.1875
1692.95567	21435.3875
1696.2139	21441.0875
1699.46999	21431.7875
1702.72392	21402.3875
1705.97571	21455.2875
1709.22535	21404.6875
1712.47284	21407.0875
1715.71819	21413.1875
1718.96139	21396.2875
1722.20246	21360.6875
1725.44139	21304.7875
1728.67818	21233.6875
1731.91284	21204.4875
1735.14537	21128.3875
1738.37576	21110.9875
1741.60403	21020.7875
1744.83017	20967.2875
1748.05418	20968.9875
1751.27607	20910.2875
1754.49584	20851.5875
1757.71349	20854.2875
1760.92903	20825.4875
1764.14244	20819.5875
1767.35375	20804.0875
1770.56294	20783.2875
1773.77002	20764.0875
1776.97499	20746.1875
1780.17785	20752.5875
1783.37861	20727.1875
1786.57727	20714.4875
1789.77382	20669.8875
1792.96828	20679.5875
1796.16064	20631.6875
1799.3509	20613.5875
1802.53907	20602.7875
1805.72514	20552.8875
1808.90913	20481.1875
1812.09102	20450.5875
1815.27083	20413.4875
1818.44856	20375.4875
1821.6242	20381.5875
1824.79776	20327.9875
1827.96924	20326.6875
1831.13864	20306.8875
1834.30597	20253.7875
1837.47122	20243.5875
1840.6344	20231.5875
1843.7955	20231.6875
1846.95454	20218.0875
1850.11151	20214.5875
1853.26642	20196.2875
1856.41926	20179.6875
1859.57004	20197.4875
1862.71876	20177.7875
1865.86542	20151.1875
1869.01003	20146.4875
1872.15258	20065.5875
1875.29308	20098.7875
1878.43152	20042.2875
1881.56792	20042.9875
1884.70227	20009.8875
1887.83457	19951.5875
1890.96482	19945.5875
1894.09304	19876.4875
1897.21921	19884.5875
1900.34335	19839.1875
1903.46544	19879.6875
1906.58551	19825.2875
1909.70353	19786.2875
1912.81953	19779.8875
1915.93349	19735.3875
1919.04543	19704.0875
1922.15534	19660.4875
1925.26322	19636.4875
1928.36908	19612.6875
1931.47292	19567.8875
1934.57473	19519.8875
1937.67453	19485.7875
1940.77232	19414.3875
1943.86808	19395.1875
1946.96184	19364.8875
1950.05358	19310.1875
1953.14331	19261.7875
1956.23103	19203.6875
1959.31675	19154.7875
1962.40046	19068.5875
1965.48217	19032.3875
1968.56188	18960.7875
1971.63959	18916.5875
1974.7153	18866.6875
1977.78901	18824.2875
1980.86073	18731.3875
1983.93046	18701.2875
1986.99819	18662.4875
1990.06394	18580.9875
1993.1277	18534.6875
1996.18947	18515.5875
1999.24925	18434.3875
2002.30706	18360.0875
2005.36288	18317.2875
2008.41672	18288.4875
2011.46859	18201.7875
2014.51848	18194.7875
2017.56639	18134.0875
2020.61233	18054.6875
2023.6563	18018.6875
2026.6983	17970.1875
2029.73833	17931.3875
2032.7764	17860.3875
2035.8125	17846.5875
2038.84664	17780.6875
2041.87881	17767.4875
2044.90903	17724.7875
2047.93729	17647.7875
2050.96359	17660.0875
2053.98794	17593.4875
2057.01034	17600.7875
2060.03078	17600.5875
2063.04927	17620.2875
2066.06582	17585.2875
2069.08042	17545.9875
2072.09307	17548.6875
2075.10378	17532.6875
2078.11255	17544.9875
2081.11938	17527.1875
2084.12426	17499.3875
2087.12722	17494.5875
2090.12824	17491.2875
2093.12732	17498.3875
2096.12447	17484.5875
2099.11969	17484.1875
2102.11299	17485.6875
2105.10435	17473.0875
2108.09379	17481.1875
2111.08131	17490.8875
2114.0669	17490.3875
2117.05057	17540.3875
2120.03233	17513.7875
2123.01216	17521.8875
2125.99008	17536.5875
2128.96609	17558.4875
2131.94018	17548.1875
2134.91236	17588.2875
2137.88263	17563.2875
2140.851	17579.6875
2143.81746	17618.7875
2146.78201	17625.1875
2149.74466	17601.6875
2152.7054	17590.9875
2155.66425	17597.7875
2158.6212	17612.3875
2161.57625	17600.4875
2164.52941	17580.7875
2167.48067	17554.6875
2170.43004	17574.6875
2173.37752	17573.2875
2176.32311	17542.2875
2179.26681	17546.3875
2182.20863	17542.8875
2185.14856	17557.6875
2188.08661	17541.4875
2191.02278	17540.0875
2193.95707	17473.9875
2196.88948	17476.1875
2199.82001	17473.6875
2202.74867	17457.4875
2205.67545	17458.3875
2208.60037	17463.1875
2211.52341	17385.5875
2214.44458	17328.1875
2217.36388	17297.9875
2220.28132	17255.7875
2223.1969	17192.9875
2226.11061	17181.2875
2229.02246	17159.6875
2231.93245	17108.4875
2234.84058	17096.1875
2237.74686	17062.3875
2240.65128	17049.1875
2243.55385	17012.2875
2246.45456	17014.6875
2249.35343	16992.2875
2252.25044	16959.6875
2255.14561	16928.1875
2258.03893	16906.9875
2260.93041	16846.2875
2263.82004	16809.4875
2266.70783	16782.2875
2269.59378	16731.6875
2272.4779	16690.8875
2275.36017	16657.2875
2278.24061	16671.3875
2281.11922	16588.2875
2283.996	16585.0875
2286.87094	16513.9875
2289.74405	16459.5875
2292.61534	16437.3875
2295.4848	16450.6875
2298.35243	16442.8875
2301.21824	16450.9875
2304.08223	16441.8875
2306.94439	16385.7875
2309.80474	16355.7875
2312.66327	16324.8875
2315.51999	16320.2875
2318.37489	16326.0875
2321.22797	16274.6875
2324.07925	16228.7875
2326.92871	16209.3875
2329.77637	16180.5875
2332.62222	16126.9875
2335.46626	16098.7875
2338.3085	16057.1875
2341.14893	16062.4875
2343.98756	16008.0875
2346.8244	16003.7875
2349.65943	16024.3875
2352.49267	16006.1875
2355.32411	15976.1875
2358.15376	15923.8875
2360.98161	15942.7875
2363.80768	15916.7875
2366.63195	15889.5875
2369.45444	15909.0875
2372.27514	15829.1875
2375.09405	15831.2875
2377.91118	15840.2875
2380.72652	15763.2875
2383.54009	15752.4875
2386.35187	15762.9875
2389.16188	15701.6875
2391.97011	15660.2875
2394.77657	15629.3875
2397.58125	15606.1875
2400.38416	15566.5875
2403.18529	15551.0875
2405.98466	15507.3875
2408.78226	15481.6875
2411.57809	15485.8875
2414.37216	15418.6875
2417.16446	15443.1875
2419.955	15439.6875
2422.74378	15422.1875
2425.5308	15399.9875
2428.31606	15405.0875
2431.09956	15400.9875
2433.88131	15338.9875
2436.6613	15299.8875
2439.43954	15290.3875
2442.21603	15320.4875
2444.99077	15258.6875
2447.76377	15226.1875
2450.53501	15259.0875
2453.30451	15196.8875
2456.07226	15140.2875
2458.83827	15119.1875
2461.60254	15081.4875
2464.36507	15101.6875
2467.12586	15071.4875
2469.88492	15033.6875
2472.64224	15068.8875
2475.39782	15018.7875
2478.15167	15007.0875
2480.90379	14982.9875
2483.65417	14988.7875
2486.40283	14988.9875
2489.14976	14940.0875
2491.89497	14951.2875
2494.63845	14891.5875
2497.3802	14886.5875
2500.12024	14893.8875
2502.85855	14836.9875
2505.59514	14825.7875
2508.33002	14817.8875
2511.06318	14779.3875
2513.79462	14757.0875
2516.52435	14739.6875
2519.25237	14693.9875
2521.97867	14679.0875
2524.70327	14695.3875
2527.42616	14656.3875
2530.14734	14633.1875
2532.86681	14614.5875
2535.58458	14589.9875
2538.30065	14574.3875
2541.01501	14571.3875
2543.72768	14504.6875
2546.43864	14489.0875
2549.14791	14483.3875
2551.85548	14473.5875
2554.56136	14397.6875
2557.26554	14364.8875
2559.96803	14314.3875
2562.66883	14283.8875
2565.36794	14297.9875
2568.06536	14266.4875
2570.7611	14215.3875
2573.45514	14178.8875
2576.14751	14182.3875
2578.83819	14153.2875
2581.52719	14121.0875
2584.21451	14089.7875
2586.90015	14044.6875
2589.58411	14033.6875
2592.2664	13998.8875
2594.94701	13968.4875
2597.62594	13957.7875
2600.30321	13946.0875
2602.9788	13925.9875
2605.65273	13897.6875
2608.32498	13858.9875
2610.99557	13843.3875
2613.66449	13829.1875
2616.33175	13781.8875
2618.99734	13736.0875
2621.66128	13707.9875
2624.32355	13694.7875
2626.98416	13652.5875
2629.64311	13645.6875
2632.30041	13644.9875
2634.95605	13568.0875
2637.61004	13560.5875
2640.26238	13554.7875
2642.91306	13498.9875
2645.56209	13490.5875
2648.20948	13482.2875
2650.85521	13451.7875
2653.4993	13490.3875
2656.14175	13420.5875
2658.78255	13443.0875
2661.42171	13438.0875
2664.05923	13448.5875
2666.6951	13427.0875
2669.32934	13462.0875
2671.96194	13436.0875
2674.59291	13423.3875
2677.22224	13439.1875
2679.84993	13440.5875
2682.476	13388.2875
2685.10043	13402.3875
2687.72324	13356.9875
2690.34441	13370.9875
2692.96396	13345.1875
2695.58188	13368.5875
2698.19818	13352.2875
2700.81285	13350.7875
2703.4259	13342.7875
2706.03733	13343.2875
2708.64714	13299.7875
2711.25533	13318.1875
2713.86191	13319.2875
2716.46687	13338.3875
2719.07021	13278.3875
2721.67194	13314.6875
2724.27206	13286.8875
2726.87057	13290.2875
2729.46747	13282.2875
2732.06276	13288.4875
2734.65644	13333.0875
2737.24852	13325.6875
2739.83899	13258.1875
2742.42786	13225.0875
2745.01513	13219.8875
2747.60079	13216.9875
2750.18486	13155.4875
2752.76733	13142.8875
2755.3482	13134.6875
2757.92747	13122.9875
2760.50515	13071.0875
2763.08123	13110.0875
2765.65573	13028.7875
2768.22863	13028.9875
2770.79994	12997.9875
2773.36967	12995.9875
2775.9378	12967.6875
2778.50435	12938.3875
2781.06932	12933.2875
2783.6327	12886.3875
2786.1945	12860.1875
2788.75471	12826.8875
2791.31335	12814.2875
2793.87041	12791.0875
2796.42589	12739.3875
2798.97979	12707.6875
2801.53212	12691.7875
2804.08288	12651.7875
2806.63206	12614.8875
2809.17967	12571.0875
2811.72571	12536.3875
2814.27018	12545.8875
2816.81308	12481.9875
2819.35442	12474.8875
2821.89419	12406.6875
2824.43239	12413.8875
2826.96904	12384.0875
2829.50412	12363.1875
2832.03763	12317.7875
2834.56959	12314.8875
2837.1	12312.1875
2839.62884	12296.3875
2842.15613	12240.7875
2844.68186	12233.1875
2847.20604	12236.1875
2849.72867	12218.0875
2852.24974	12193.9875
2854.76927	12196.0875
2857.28724	12137.6875
2859.80367	12133.5875
2862.31855	12108.7875
2864.83189	12093.1875
2867.34368	12049.3875
2869.85393	12043.8875
2872.36264	12031.4875
2874.8698	11995.6875
2877.37543	11991.1875
2879.87952	12021.4875
2882.38207	11958.1875
2884.88308	11953.3875
2887.38256	11975.2875
2889.88051	11946.4875
2892.37692	11930.8875
2894.8718	11911.8875
2897.36515	11937.5875
2899.85698	11936.5875
2902.34727	11934.3875
2904.83604	11976.8875
2907.32328	11964.4875
2909.809	11934.2875
2912.29319	11930.3875
2914.77587	11924.4875
2917.25702	11927.0875
2919.73665	11902.6875
2922.21476	11917.1875
2924.69136	11873.1875
2927.16644	11862.6875
2929.64	11867.1875
2932.11205	11863.5875
2934.58258	11819.6875
2937.05161	11836.3875
2939.51912	11815.1875
2941.98513	11796.6875
2944.44962	11789.5875
2946.91261	11752.8875
2949.37409	11790.2875
2951.83407	11769.1875
2954.29254	11793.2875
2956.74951	11739.2875
2959.20498	11752.7875
2961.65895	11760.0875
2964.11142	11757.9875
2966.56239	11756.4875
2969.01186	11758.2875
2971.45984	11708.8875
2973.90632	11751.5875
2976.35131	11677.3875
2978.7948	11693.8875
2981.23681	11644.7875
2983.67732	11658.6875
2986.11635	11607.5875
2988.55388	11581.5875
2990.98993	11579.2875
2993.4245	11572.0875
2995.85758	11569.3875
2998.28917	11501.1875
3000.71928	11476.8875
3003.14791	11441.4875
3005.57506	11418.1875
3008.00073	11378.1875
3010.42493	11407.8875
3012.84764	11357.5875
3015.26888	11376.9875
3017.68865	11352.5875
3020.10694	11336.2875
3022.52376	11320.0875
3024.9391	11293.0875
3027.35298	11278.0875
3029.76539	11261.6875
3032.17632	11220.5875
3034.5858	11233.9875
3036.9938	11200.4875
3039.40034	11189.2875
3041.80542	11203.6875
3044.20903	11145.3875
3046.61118	11146.4875
3049.01187	11103.9875
3051.4111	11122.3875
3053.80888	11073.7875
3056.20519	11067.6875
3058.60005	11051.1875
3060.99345	11029.5875
3063.3854	11004.4875
3065.7759	10994.7875
3068.16494	10940.1875
3070.55254	10937.2875
3072.93868	10908.9875
3075.32338	10873.1875
3077.70662	10865.2875
3080.08842	10823.7875
3082.46878	10820.4875
3084.84769	10805.9875
3087.22515	10802.9875
3089.60118	10798.1875
3091.97576	10783.6875
3094.3489	10800.7875
3096.72061	10792.6875
3099.09087	10808.8875
3101.4597	10805.7875
3103.82709	10817.3875
3106.19305	10789.1875
3108.55757	10807.9875
3110.92066	10794.7875
3113.28232	10774.2875
3115.64255	10733.8875
3118.00134	10700.2875
3120.35871	10679.6875
3122.71466	10670.8875
3125.06917	10657.1875
3127.42226	10603.9875
3129.77393	10599.9875
3132.12417	10582.6875
3134.47299	10580.5875
3136.82039	10556.8875
3139.16636	10551.8875
3141.51092	10529.2875
3143.85406	10541.7875
3146.19579	10550.4875
3148.53609	10565.4875
3150.87499	10559.8875
3153.21246	10568.8875
3155.54853	10596.9875
3157.88318	10580.3875
3160.21642	10561.0875
3162.54826	10580.2875
3164.87868	10559.5875
3167.2077	10568.1875
3169.5353	10571.4875
3171.86151	10575.6875
3174.18631	10579.0875
3176.5097	10549.4875
3178.83169	10507.9875
3181.15228	10507.3875
3183.47147	10465.4875
3185.78926	10454.2875
3188.10565	10440.2875
3190.42065	10414.9875
3192.73424	10432.2875
3195.04645	10419.4875
3197.35725	10430.5875
3199.66667	10399.8875
3201.97469	10412.0875
3204.28132	10405.9875
3206.58656	10438.5875
3208.8904	10421.0875
3211.19287	10420.0875
3213.49394	10387.9875
3215.79363	10391.1875
3218.09193	10408.7875
3220.38884	10412.9875
3222.68438	10401.6875
3224.97853	10370.6875
3227.2713	10363.2875
3229.56269	10350.9875
3231.8527	10330.1875
3234.14133	10319.4875
3236.42858	10276.9875
3238.71446	10269.7875
3240.99896	10262.1875
3243.28209	10231.3875
3245.56384	10208.2875
3247.84423	10203.0875
3250.12324	10202.0875
3252.40088	10215.2875
3254.67715	10199.5875
3256.95205	10181.8875
3259.22558	10189.8875
3261.49775	10141.3875
3263.76855	10149.9875
3266.03799	10155.1875
3268.30606	10137.5875
3270.57277	10141.0875
3272.83812	10072.9875
3275.10211	10076.6875
3277.36474	10049.9875
3279.62601	10032.7875
3281.88593	9995.6875
3284.14448	10012.1875
3286.40168	10017.1875
3288.65753	9998.3875
3290.91202	9998.7875
3293.16516	9940.8875
3295.41695	9951.7875
3297.66738	9877.4875
3299.91647	9847.1875
3302.16421	9815.0875
3304.4106	9766.5875
3306.65564	9695.2875
3308.89933	9616.2875
3311.14169	9550.9875
3313.38269	9528.5875
3315.62236	9461.4875
3317.86068	9421.4875
3320.09766	9340.2875
3322.3333	9298.5875
3324.5676	9251.3875
3326.80056	9115.7875
3329.03219	9091.4875
3331.26248	4.9875
3333.49143	0.6875
3335.71905	-0.8125
