Data from AgNPs_APTES_FTO_UA_100uM_CRN_0uM_R6G_10uM_Scan_RamanShift__56__16-48-02-991.txt Node

Date: Mon Jul 11 16:48:02 BST 2022
User: TCL
Spectrometer: QEP01345
Trigger mode: 4
Integration Time (sec): 7.000000E0
Scans to average: 10
Electric dark correction enabled: true
Nonlinearity correction enabled: false
Boxcar width: 0
XAxis mode: Raman Shifts
Number of Pixels in Spectrum: 1044
>>>>>Begin Spectral Data<<<<<
46.04893	-0.6125
50.45542	0.1875
54.85868	-0.4125
59.25871	-3.0125
63.6555	70.3875
68.04907	70.8875
72.43941	74.2875
76.82654	74.5875
81.21044	83.0875
85.59113	84.3875
89.96862	86.5875
94.34289	90.9875
98.71396	94.3875
103.08183	98.4875
107.4465	96.7875
111.80798	101.4875
116.16626	105.1875
120.52136	111.1875
124.87327	118.1875
129.222	122.8875
133.56755	126.4875
137.90993	138.6875
142.24913	157.2875
146.58517	171.6875
150.91804	196.0875
155.24774	235.1875
159.57429	294.8875
163.89768	379.0875
168.21792	495.0875
172.53501	673.5875
176.84895	958.2875
181.15975	1352.3875
185.46741	1887.5875
189.77193	2617.5875
194.07331	3538.1875
198.37157	4555.9875
202.6667	5637.4875
206.9587	6723.9875
211.24758	7786.2875
215.53334	8833.9875
219.81599	9947.4875
224.09553	11178.4875
228.37195	12523.3875
232.64527	13997.0875
236.91549	15605.3875
241.18261	17244.6875
245.44663	18872.8875
249.70755	20288.6875
253.96539	21539.3875
258.22014	22539.8875
262.4718	23268.5875
266.72039	23584.7875
270.96589	23652.0875
275.20832	23453.2875
279.44768	23092.1875
283.68397	22594.0875
287.91719	22204.2875
292.14735	21846.3875
296.37445	21521.9875
300.59849	21331.3875
304.81948	21213.7875
309.03742	21093.4875
313.25231	21039.3875
317.46415	20928.5875
321.67296	20795.7875
325.87872	20727.4875
330.08145	20816.9875
334.28114	20964.4875
338.47781	21164.4875
342.67145	21426.0875
346.86207	21656.5875
351.04966	22003.3875
355.23424	22373.0875
359.4158	22681.7875
363.59435	23019.9875
367.76989	23259.3875
371.94243	23504.8875
376.11196	23720.3875
380.27849	23917.1875
384.44203	24099.8875
388.60257	24345.8875
392.76012	24553.7875
396.91468	24806.9875
401.06626	25086.5875
405.21485	25288.7875
409.36047	25354.4875
413.50311	25309.0875
417.64277	25253.7875
421.77947	25245.7875
425.9132	25306.7875
430.04396	25437.5875
434.17176	25625.4875
438.2966	25786.9875
442.41849	26024.7875
446.53742	26277.2875
450.6534	26565.0875
454.76644	26818.4875
458.87653	27010.9875
462.98368	27168.4875
467.08789	27224.3875
471.18916	27220.2875
475.2875	27183.2875
479.38291	27139.6875
483.4754	27128.6875
487.56496	27148.2875
491.6516	27195.4875
495.73531	27292.9875
499.81612	27431.7875
503.89401	27615.3875
507.96899	27750.3875
512.04106	27824.5875
516.11023	27881.1875
520.1765	27924.2875
524.23987	27909.4875
528.30034	27884.3875
532.35792	27913.2875
536.41261	27860.8875
540.46441	27824.2875
544.51333	27796.8875
548.55936	27950.1875
552.60252	28087.7875
556.64279	28271.4875
560.6802	28493.2875
564.71473	28586.4875
568.7464	28626.9875
572.7752	28573.9875
576.80114	28566.1875
580.82422	28649.7875
584.84444	28783.1875
588.86181	28899.0875
592.87633	29032.6875
596.888	29228.7875
600.89682	29539.8875
604.9028	30341.1875
608.90594	31800.4875
612.90624	33088.3875
616.90371	32193.1875
620.89834	30392.5875
624.89015	29642.9875
628.87913	29620.4875
632.86528	29808.1875
636.84862	29999.7875
640.82913	29933.6875
644.80683	29874.0875
648.78172	29786.9875
652.75379	29885.7875
656.72306	30109.0875
660.68952	30382.9875
664.65319	30404.9875
668.61405	30431.6875
672.57211	30592.9875
676.52738	30681.1875
680.47986	30731.8875
684.42955	30866.6875
688.37646	31008.9875
692.32058	31134.8875
696.26192	31264.6875
700.20048	31316.6875
704.13626	31329.3875
708.06928	31246.1875
711.99952	31082.9875
715.927	31027.2875
719.85171	31033.4875
723.77365	31049.0875
727.69284	30978.8875
731.60928	30888.0875
735.52295	30957.4875
739.43388	30987.0875
743.34206	31153.8875
747.24749	31210.8875
751.15017	31248.7875
755.05012	31347.3875
758.94733	31538.9875
762.8418	31984.6875
766.73354	32730.4875
770.62254	33493.5875
774.50882	33893.0875
778.39237	33706.9875
782.27321	33130.3875
786.15132	32520.0875
790.02671	32046.1875
793.89938	31779.5875
797.76935	31591.0875
801.6366	31613.2875
805.50115	31603.0875
809.36299	31575.2875
813.22213	31585.1875
817.07857	31577.0875
820.93231	31553.8875
824.78336	31546.5875
828.63172	31608.4875
832.47738	31620.0875
836.32036	31617.2875
840.16066	31670.1875
843.99827	31706.6875
847.8332	31797.4875
851.66546	31821.2875
855.49504	31845.9875
859.32195	31885.0875
863.1462	31956.3875
866.96777	32007.5875
870.78668	32062.6875
874.60293	32102.5875
878.41652	32194.8875
882.22745	32284.7875
886.03573	32326.1875
889.84136	32343.0875
893.64433	32408.8875
897.44466	32350.4875
901.24235	32366.2875
905.0374	32345.5875
908.8298	32337.7875
912.61957	32313.8875
916.40671	32285.3875
920.19121	32338.6875
923.97308	32301.1875
927.75233	32302.7875
931.52895	32342.8875
935.30295	32318.4875
939.07433	32210.0875
942.84309	32125.2875
946.60924	32073.4875
950.37278	32069.0875
954.13371	32014.2875
957.89203	32031.7875
961.64774	32032.0875
965.40086	31990.6875
969.15137	31978.4875
972.89929	31927.6875
976.64461	31940.5875
980.38733	31977.8875
984.12747	31983.5875
987.86502	32056.1875
991.59999	32078.5875
995.33237	32162.4875
999.06217	32288.1875
1002.78939	32465.5875
1006.51404	32636.3875
1010.23611	32744.5875
1013.95561	32884.2875
1017.67255	32915.6875
1021.38692	32965.0875
1025.09872	32880.3875
1028.80796	32726.9875
1032.51465	32661.7875
1036.21877	32637.8875
1039.92035	32697.3875
1043.61937	32793.4875
1047.31584	32836.0875
1051.00976	32927.7875
1054.70114	32988.5875
1058.38998	33026.8875
1062.07627	33095.5875
1065.76003	33181.4875
1069.44126	33352.1875
1073.11995	33599.4875
1076.79611	33907.4875
1080.46974	33996.2875
1084.14085	34016.2875
1087.80943	34045.5875
1091.47549	34084.0875
1095.13903	34103.9875
1098.80005	34096.3875
1102.45857	34131.2875
1106.11456	34102.8875
1109.76805	33979.3875
1113.41903	33864.0875
1117.06751	33872.9875
1120.71348	33912.9875
1124.35696	34017.1875
1127.99793	34139.0875
1131.63641	34214.3875
1135.2724	34157.4875
1138.90589	34061.8875
1142.5369	34027.8875
1146.16542	33881.6875
1149.79145	33748.5875
1153.415	33537.5875
1157.03607	33443.4875
1160.65467	33494.1875
1164.27079	33635.3875
1167.88443	33835.0875
1171.49561	34208.3875
1175.10432	34662.6875
1178.71056	35377.8875
1182.31434	36041.6875
1185.91565	36529.4875
1189.51451	36739.8875
1193.11091	36730.5875
1196.70485	36577.5875
1200.29634	36332.7875
1203.88538	36045.5875
1207.47197	35690.1875
1211.05612	35315.0875
1214.63782	35112.3875
1218.21708	34910.4875
1221.79391	34717.3875
1225.36829	34615.0875
1228.94024	34570.4875
1232.50976	34504.1875
1236.07685	34459.1875
1239.6415	34462.0875
1243.20374	34557.8875
1246.76355	34650.6875
1250.32093	34795.1875
1253.8759	34956.7875
1257.42845	35220.8875
1260.97859	35450.4875
1264.52631	35680.7875
1268.07163	35815.2875
1271.61453	35974.5875
1275.15503	36038.6875
1278.69312	36066.0875
1282.22882	36074.1875
1285.76211	36041.6875
1289.29301	36163.0875
1292.82151	36324.1875
1296.34761	36569.8875
1299.87133	36952.5875
1303.39266	37371.8875
1306.9116	38056.0875
1310.42815	38742.8875
1313.94233	39125.7875
1317.45412	39054.3875
1320.96354	38719.0875
1324.47058	38379.5875
1327.97525	37885.8875
1331.47754	37552.4875
1334.97747	37392.2875
1338.47502	37619.0875
1341.97022	38163.5875
1345.46305	38872.1875
1348.95352	39695.4875
1352.44163	40215.5875
1355.92738	40546.2875
1359.41078	40959.8875
1362.89183	41108.9875
1366.37053	40388.4875
1369.84688	38891.1875
1373.32088	37413.4875
1376.79254	36423.3875
1380.26186	35801.5875
1383.72883	35403.4875
1387.19347	35043.2875
1390.65578	34670.2875
1394.11575	34359.3875
1397.57339	34134.0875
1401.0287	33875.8875
1404.48168	33773.0875
1407.93234	33770.9875
1411.38068	33782.4875
1414.82669	33785.1875
1418.27039	33683.1875
1421.71177	33543.2875
1425.15083	33387.7875
1428.58758	33303.7875
1432.02203	33248.0875
1435.45416	33177.8875
1438.88399	33170.9875
1442.31151	33146.6875
1445.73673	33153.2875
1449.15965	33269.9875
1452.58027	33307.6875
1455.9986	33246.8875
1459.41463	33331.8875
1462.82837	33560.8875
1466.23982	33821.8875
1469.64898	34079.5875
1473.05586	34360.1875
1476.46045	34352.6875
1479.86276	34555.8875
1483.26279	34680.8875
1486.66054	34794.2875
1490.05602	34964.4875
1493.44922	35358.8875
1496.84016	35904.2875
1500.22882	36623.5875
1503.61521	37652.4875
1506.99934	38382.4875
1510.38121	38677.1875
1513.76081	38415.2875
1517.13816	37655.1875
1520.51324	36798.0875
1523.88607	36099.7875
1527.25665	35650.4875
1530.62498	35415.1875
1533.99105	35309.8875
1537.35488	35301.5875
1540.71647	35323.5875
1544.07581	35408.8875
1547.4329	35367.8875
1550.78776	35317.3875
1554.14038	35264.4875
1557.49077	35300.2875
1560.83892	35378.9875
1564.18484	35540.0875
1567.52853	35772.9875
1570.86999	35881.1875
1574.20922	35972.9875
1577.54624	35894.1875
1580.88103	35586.5875
1584.2136	35201.5875
1587.54395	34983.6875
1590.87208	35002.2875
1594.19801	35213.1875
1597.52172	35568.2875
1600.84321	35736.2875
1604.16251	35672.7875
1607.47959	35470.1875
1610.79447	34980.0875
1614.10715	34380.0875
1617.41763	33771.1875
1620.7259	33281.5875
1624.03199	32990.9875
1627.33587	32849.7875
1630.63757	32828.1875
1633.93707	32941.2875
1637.23439	33254.1875
1640.52951	33823.1875
1643.82246	34662.8875
1647.11321	35376.1875
1650.40179	35628.7875
1653.68819	35206.1875
1656.97241	34146.1875
1660.25446	33106.7875
1663.53433	32327.9875
1666.81203	31864.3875
1670.08756	31483.7875
1673.36092	31212.0875
1676.63211	31017.3875
1679.90115	30892.2875
1683.16801	30736.9875
1686.43272	30668.1875
1689.69527	30523.2875
1692.95567	30489.1875
1696.2139	30531.8875
1699.46999	30488.0875
1702.72392	30423.8875
1705.97571	30456.2875
1709.22535	30447.3875
1712.47284	30376.4875
1715.71819	30349.7875
1718.96139	30303.8875
1722.20246	30265.2875
1725.44139	30151.5875
1728.67818	30057.6875
1731.91284	29945.3875
1735.14537	29880.9875
1738.37576	29757.0875
1741.60403	29711.9875
1744.83017	29564.7875
1748.05418	29541.6875
1751.27607	29458.1875
1754.49584	29429.6875
1757.71349	29384.4875
1760.92903	29389.7875
1764.14244	29349.3875
1767.35375	29357.1875
1770.56294	29322.3875
1773.77002	29343.2875
1776.97499	29279.8875
1780.17785	29240.1875
1783.37861	29224.1875
1786.57727	29145.9875
1789.77382	29095.5875
1792.96828	29079.5875
1796.16064	29024.3875
1799.3509	28991.7875
1802.53907	28917.6875
1805.72514	28885.0875
1808.90913	28838.2875
1812.09102	28754.4875
1815.27083	28724.9875
1818.44856	28652.3875
1821.6242	28637.5875
1824.79776	28603.2875
1827.96924	28546.8875
1831.13864	28522.6875
1834.30597	28496.4875
1837.47122	28477.2875
1840.6344	28400.0875
1843.7955	28390.8875
1846.95454	28409.8875
1850.11151	28381.3875
1853.26642	28372.6875
1856.41926	28315.5875
1859.57004	28299.8875
1862.71876	28299.2875
1865.86542	28312.3875
1869.01003	28239.3875
1872.15258	28211.2875
1875.29308	28202.7875
1878.43152	28167.4875
1881.56792	28092.8875
1884.70227	28052.2875
1887.83457	28056.0875
1890.96482	28009.2875
1894.09304	27900.4875
1897.21921	27910.4875
1900.34335	27856.2875
1903.46544	27838.3875
1906.58551	27781.3875
1909.70353	27737.7875
1912.81953	27772.8875
1915.93349	27710.2875
1919.04543	27595.4875
1922.15534	27598.7875
1925.26322	27551.6875
1928.36908	27530.5875
1931.47292	27444.0875
1934.57473	27395.4875
1937.67453	27336.4875
1940.77232	27226.0875
1943.86808	27234.7875
1946.96184	27176.1875
1950.05358	27080.3875
1953.14331	27027.7875
1956.23103	26949.5875
1959.31675	26876.6875
1962.40046	26776.1875
1965.48217	26729.4875
1968.56188	26630.4875
1971.63959	26560.1875
1974.7153	26491.0875
1977.78901	26430.6875
1980.86073	26307.0875
1983.93046	26264.4875
1986.99819	26104.5875
1990.06394	26049.7875
1993.1277	25990.1875
1996.18947	25915.3875
1999.24925	25830.9875
2002.30706	25804.1875
2005.36288	25704.0875
2008.41672	25662.0875
2011.46859	25557.4875
2014.51848	25487.0875
2017.56639	25393.1875
2020.61233	25289.4875
2023.6563	25221.4875
2026.6983	25156.6875
2029.73833	25137.1875
2032.7764	25053.9875
2035.8125	24999.2875
2038.84664	24905.6875
2041.87881	24906.9875
2044.90903	24826.1875
2047.93729	24757.7875
2050.96359	24757.7875
2053.98794	24696.7875
2057.01034	24699.1875
2060.03078	24704.0875
2063.04927	24648.5875
2066.06582	24646.1875
2069.08042	24657.0875
2072.09307	24614.9875
2075.10378	24634.3875
2078.11255	24605.5875
2081.11938	24571.9875
2084.12426	24523.6875
2087.12722	24477.7875
2090.12824	24490.7875
2093.12732	24526.2875
2096.12447	24507.6875
2099.11969	24498.3875
2102.11299	24522.8875
2105.10435	24557.7875
2108.09379	24549.7875
2111.08131	24593.1875
2114.0669	24573.5875
2117.05057	24578.0875
2120.03233	24597.2875
2123.01216	24590.1875
2125.99008	24575.8875
2128.96609	24596.8875
2131.94018	24641.1875
2134.91236	24687.3875
2137.88263	24668.3875
2140.851	24669.8875
2143.81746	24688.4875
2146.78201	24746.3875
2149.74466	24735.9875
2152.7054	24749.9875
2155.66425	24703.2875
2158.6212	24708.5875
2161.57625	24674.8875
2164.52941	24624.3875
2167.48067	24616.7875
2170.43004	24641.3875
2173.37752	24588.1875
2176.32311	24588.0875
2179.26681	24579.4875
2182.20863	24568.6875
2185.14856	24599.6875
2188.08661	24622.3875
2191.02278	24579.8875
2193.95707	24568.2875
2196.88948	24521.2875
2199.82001	24505.9875
2202.74867	24450.9875
2205.67545	24522.4875
2208.60037	24461.6875
2211.52341	24401.3875
2214.44458	24355.5875
2217.36388	24252.5875
2220.28132	24215.8875
2223.1969	24116.4875
2226.11061	24076.8875
2229.02246	24036.0875
2231.93245	24000.6875
2234.84058	23958.8875
2237.74686	23920.1875
2240.65128	23921.2875
2243.55385	23878.6875
2246.45456	23873.1875
2249.35343	23845.2875
2252.25044	23766.1875
2255.14561	23709.8875
2258.03893	23683.5875
2260.93041	23659.0875
2263.82004	23601.8875
2266.70783	23547.2875
2269.59378	23454.0875
2272.4779	23406.2875
2275.36017	23360.2875
2278.24061	23340.6875
2281.11922	23253.2875
2283.996	23262.1875
2286.87094	23162.0875
2289.74405	23123.3875
2292.61534	23095.5875
2295.4848	23038.3875
2298.35243	23054.5875
2301.21824	23029.0875
2304.08223	23022.4875
2306.94439	22967.9875
2309.80474	22948.4875
2312.66327	22961.0875
2315.51999	22895.7875
2318.37489	22855.0875
2321.22797	22838.0875
2324.07925	22752.4875
2326.92871	22727.0875
2329.77637	22689.6875
2332.62222	22599.3875
2335.46626	22575.2875
2338.3085	22535.9875
2341.14893	22520.9875
2343.98756	22456.6875
2346.8244	22482.0875
2349.65943	22466.8875
2352.49267	22428.8875
2355.32411	22367.3875
2358.15376	22353.8875
2360.98161	22343.8875
2363.80768	22343.5875
2366.63195	22317.3875
2369.45444	22289.6875
2372.27514	22264.8875
2375.09405	22232.2875
2377.91118	22151.3875
2380.72652	22102.8875
2383.54009	22119.1875
2386.35187	22106.5875
2389.16188	22011.6875
2391.97011	21974.5875
2394.77657	21904.1875
2397.58125	21882.5875
2400.38416	21836.2875
2403.18529	21818.8875
2405.98466	21760.4875
2408.78226	21703.2875
2411.57809	21664.2875
2414.37216	21631.9875
2417.16446	21625.3875
2419.955	21618.9875
2422.74378	21651.3875
2425.5308	21599.4875
2428.31606	21580.1875
2431.09956	21568.9875
2433.88131	21497.5875
2436.6613	21467.0875
2439.43954	21454.3875
2442.21603	21454.8875
2444.99077	21431.1875
2447.76377	21401.8875
2450.53501	21354.4875
2453.30451	21339.5875
2456.07226	21246.7875
2458.83827	21206.8875
2461.60254	21182.5875
2464.36507	21200.4875
2467.12586	21137.5875
2469.88492	21117.5875
2472.64224	21138.6875
2475.39782	21068.6875
2478.15167	21080.9875
2480.90379	21033.8875
2483.65417	21051.8875
2486.40283	21033.2875
2489.14976	21001.7875
2491.89497	20990.5875
2494.63845	20972.8875
2497.3802	20916.2875
2500.12024	20897.7875
2502.85855	20855.9875
2505.59514	20837.9875
2508.33002	20792.0875
2511.06318	20736.5875
2513.79462	20692.2875
2516.52435	20657.4875
2519.25237	20669.6875
2521.97867	20608.2875
2524.70327	20598.7875
2527.42616	20528.0875
2530.14734	20534.5875
2532.86681	20507.4875
2535.58458	20494.7875
2538.30065	20415.8875
2541.01501	20458.0875
2543.72768	20398.8875
2546.43864	20366.5875
2549.14791	20287.0875
2551.85548	20272.5875
2554.56136	20219.0875
2557.26554	20156.9875
2559.96803	20144.7875
2562.66883	20069.9875
2565.36794	20047.4875
2568.06536	20029.5875
2570.7611	19966.2875
2573.45514	19903.7875
2576.14751	19885.7875
2578.83819	19868.5875
2581.52719	19831.4875
2584.21451	19797.5875
2586.90015	19769.3875
2589.58411	19677.2875
2592.2664	19658.7875
2594.94701	19603.2875
2597.62594	19609.8875
2600.30321	19557.9875
2602.9788	19539.0875
2605.65273	19530.1875
2608.32498	19476.3875
2610.99557	19430.2875
2613.66449	19423.5875
2616.33175	19369.9875
2618.99734	19341.9875
2621.66128	19271.1875
2624.32355	19290.9875
2626.98416	19247.7875
2629.64311	19179.9875
2632.30041	19203.1875
2634.95605	19105.9875
2637.61004	19075.6875
2640.26238	19021.7875
2642.91306	19022.2875
2645.56209	18955.3875
2648.20948	18960.8875
2650.85521	18917.5875
2653.4993	18905.0875
2656.14175	18903.1875
2658.78255	18929.5875
2661.42171	18892.3875
2664.05923	18929.8875
2666.6951	18877.0875
2669.32934	18921.6875
2671.96194	18929.6875
2674.59291	18896.2875
2677.22224	18866.3875
2679.84993	18877.9875
2682.476	18849.2875
2685.10043	18877.6875
2687.72324	18822.0875
2690.34441	18790.6875
2692.96396	18813.6875
2695.58188	18825.8875
2698.19818	18784.8875
2700.81285	18810.9875
2703.4259	18787.3875
2706.03733	18766.6875
2708.64714	18704.0875
2711.25533	18774.6875
2713.86191	18730.4875
2716.46687	18762.1875
2719.07021	18703.9875
2721.67194	18738.7875
2724.27206	18703.6875
2726.87057	18673.5875
2729.46747	18703.8875
2732.06276	18715.1875
2734.65644	18732.5875
2737.24852	18706.3875
2739.83899	18669.0875
2742.42786	18635.7875
2745.01513	18605.4875
2747.60079	18586.5875
2750.18486	18527.4875
2752.76733	18492.5875
2755.3482	18445.5875
2757.92747	18473.6875
2760.50515	18433.0875
2763.08123	18390.8875
2765.65573	18325.2875
2768.22863	18360.7875
2770.79994	18303.5875
2773.36967	18314.1875
2775.9378	18241.4875
2778.50435	18263.8875
2781.06932	18173.5875
2783.6327	18147.8875
2786.1945	18105.1875
2788.75471	18082.6875
2791.31335	17990.8875
2793.87041	17992.8875
2796.42589	17951.2875
2798.97979	17919.1875
2801.53212	17819.2875
2804.08288	17804.7875
2806.63206	17712.8875
2809.17967	17728.7875
2811.72571	17636.0875
2814.27018	17620.1875
2816.81308	17591.3875
2819.35442	17536.5875
2821.89419	17479.9875
2824.43239	17471.2875
2826.96904	17434.6875
2829.50412	17411.6875
2832.03763	17358.2875
2834.56959	17372.9875
2837.1	17326.8875
2839.62884	17310.3875
2842.15613	17288.9875
2844.68186	17305.5875
2847.20604	17241.4875
2849.72867	17241.7875
2852.24974	17179.2875
2854.76927	17184.5875
2857.28724	17148.3875
2859.80367	17126.7875
2862.31855	17078.2875
2864.83189	17043.7875
2867.34368	17032.5875
2869.85393	17022.8875
2872.36264	16982.7875
2874.8698	16962.9875
2877.37543	16932.7875
2879.87952	16896.6875
2882.38207	16855.9875
2884.88308	16904.3875
2887.38256	16904.4875
2889.88051	16836.7875
2892.37692	16854.4875
2894.8718	16848.0875
2897.36515	16849.8875
2899.85698	16831.0875
2902.34727	16864.7875
2904.83604	16856.5875
2907.32328	16906.5875
2909.809	16882.7875
2912.29319	16877.7875
2914.77587	16830.3875
2917.25702	16795.4875
2919.73665	16799.4875
2922.21476	16797.7875
2924.69136	16787.9875
2927.16644	16782.8875
2929.64	16747.9875
2932.11205	16737.3875
2934.58258	16663.4875
2937.05161	16704.2875
2939.51912	16658.7875
2941.98513	16639.8875
2944.44962	16622.1875
2946.91261	16600.0875
2949.37409	16631.2875
2951.83407	16630.8875
2954.29254	16616.3875
2956.74951	16604.2875
2959.20498	16585.2875
2961.65895	16552.4875
2964.11142	16578.1875
2966.56239	16579.3875
2969.01186	16607.6875
2971.45984	16527.8875
2973.90632	16521.8875
2976.35131	16483.4875
2978.7948	16439.8875
2981.23681	16440.7875
2983.67732	16447.0875
2986.11635	16385.9875
2988.55388	16326.7875
2990.98993	16351.7875
2993.4245	16308.3875
2995.85758	16246.4875
2998.28917	16244.6875
3000.71928	16210.3875
3003.14791	16144.1875
3005.57506	16090.3875
3008.00073	16041.1875
3010.42493	16065.9875
3012.84764	16072.7875
3015.26888	16009.9875
3017.68865	15974.0875
3020.10694	15974.0875
3022.52376	15926.9875
3024.9391	15915.2875
3027.35298	15863.7875
3029.76539	15854.4875
3032.17632	15803.7875
3034.5858	15787.0875
3036.9938	15798.2875
3039.40034	15746.0875
3041.80542	15740.6875
3044.20903	15733.2875
3046.61118	15702.0875
3049.01187	15683.0875
3051.4111	15640.7875
3053.80888	15604.1875
3056.20519	15602.4875
3058.60005	15556.3875
3060.99345	15540.6875
3063.3854	15483.9875
3065.7759	15456.2875
3068.16494	15393.8875
3070.55254	15386.1875
3072.93868	15361.0875
3075.32338	15307.3875
3077.70662	15291.7875
3080.08842	15219.4875
3082.46878	15225.0875
3084.84769	15148.1875
3087.22515	15199.0875
3089.60118	15211.1875
3091.97576	15210.9875
3094.3489	15185.5875
3096.72061	15212.0875
3099.09087	15192.8875
3101.4597	15203.6875
3103.82709	15203.4875
3106.19305	15168.2875
3108.55757	15181.8875
3110.92066	15116.7875
3113.28232	15125.5875
3115.64255	15062.1875
3118.00134	15005.6875
3120.35871	14981.9875
3122.71466	14970.9875
3125.06917	14949.8875
3127.42226	14890.4875
3129.77393	14878.6875
3132.12417	14837.2875
3134.47299	14825.6875
3136.82039	14838.0875
3139.16636	14801.1875
3141.51092	14755.9875
3143.85406	14776.6875
3146.19579	14776.9875
3148.53609	14797.6875
3150.87499	14818.5875
3153.21246	14799.0875
3155.54853	14848.0875
3157.88318	14831.5875
3160.21642	14819.1875
3162.54826	14786.9875
3164.87868	14797.8875
3167.2077	14794.1875
3169.5353	14815.2875
3171.86151	14770.5875
3174.18631	14778.3875
3176.5097	14752.7875
3178.83169	14707.6875
3181.15228	14712.6875
3183.47147	14638.4875
3185.78926	14619.2875
3188.10565	14577.3875
3190.42065	14591.9875
3192.73424	14573.5875
3195.04645	14552.2875
3197.35725	14572.1875
3199.66667	14562.6875
3201.97469	14542.1875
3204.28132	14504.8875
3206.58656	14522.0875
3208.8904	14528.5875
3211.19287	14519.3875
3213.49394	14538.9875
3215.79363	14490.2875
3218.09193	14539.5875
3220.38884	14534.4875
3222.68438	14503.9875
3224.97853	14473.5875
3227.2713	14490.6875
3229.56269	14424.5875
3231.8527	14425.7875
3234.14133	14430.3875
3236.42858	14382.0875
3238.71446	14310.3875
3240.99896	14294.0875
3243.28209	14248.1875
3245.56384	14230.5875
3247.84423	14228.0875
3250.12324	14194.1875
3252.40088	14231.9875
3254.67715	14221.5875
3256.95205	14189.4875
3259.22558	14220.6875
3261.49775	14180.3875
3263.76855	14167.2875
3266.03799	14153.0875
3268.30606	14124.3875
3270.57277	14138.6875
3272.83812	14086.0875
3275.10211	14034.8875
3277.36474	14002.4875
3279.62601	14033.2875
3281.88593	14007.0875
3284.14448	13998.3875
3286.40168	13960.2875
3288.65753	13952.4875
3290.91202	13932.7875
3293.16516	13897.3875
3295.41695	13848.4875
3297.66738	13814.5875
3299.91647	13772.8875
3302.16421	13659.1875
3304.4106	13615.0875
3306.65564	13556.6875
3308.89933	13453.7875
3311.14169	13362.2875
3313.38269	13257.9875
3315.62236	13230.6875
3317.86068	13140.5875
3320.09766	13040.3875
3322.3333	12934.1875
3324.5676	12914.5875
3326.80056	12730.5875
3329.03219	12663.3875
3331.26248	4.4875
3333.49143	0.2875
3335.71905	-1.8125
