Data from AgNPs_APTES_FTO_UA_100uM_CRN_0uM_R6G_10uM_Scan_RamanShift__11__15-55-32-939.txt Node

Date: Mon Jul 11 15:55:32 BST 2022
User: TCL
Spectrometer: QEP01345
Trigger mode: 4
Integration Time (sec): 7.000000E0
Scans to average: 10
Electric dark correction enabled: true
Nonlinearity correction enabled: false
Boxcar width: 0
XAxis mode: Raman Shifts
Number of Pixels in Spectrum: 1044
>>>>>Begin Spectral Data<<<<<
46.04893	0.0375
50.45542	0.5375
54.85868	-0.3625
59.25871	-1.6625
63.6555	37.7375
68.04907	41.4375
72.43941	42.3375
76.82654	43.9375
81.21044	54.1375
85.59113	52.2375
89.96862	56.9375
94.34289	53.3375
98.71396	57.9375
103.08183	60.3375
107.4465	60.9375
111.80798	63.3375
116.16626	64.7375
120.52136	68.6375
124.87327	71.4375
129.222	72.4375
133.56755	74.8375
137.90993	81.8375
142.24913	90.6375
146.58517	97.9375
150.91804	110.4375
155.24774	138.2375
159.57429	164.7375
163.89768	212.8375
168.21792	278.5375
172.53501	371.5375
176.84895	519.0375
181.15975	713.2375
185.46741	1009.0375
189.77193	1388.1375
194.07331	1851.9375
198.37157	2378.4375
202.6667	2946.1375
206.9587	3503.3375
211.24758	4058.7375
215.53334	4629.1375
219.81599	5224.3375
224.09553	5880.6375
228.37195	6591.9375
232.64527	7385.5375
236.91549	8198.3375
241.18261	8991.0375
245.44663	9671.5375
249.70755	10273.8375
253.96539	10720.2375
258.22014	11062.6375
262.4718	11271.8375
266.72039	11402.7375
270.96589	11370.3375
275.20832	11226.7375
279.44768	10996.8375
283.68397	10710.3375
287.91719	10496.2375
292.14735	10376.0375
296.37445	10323.1375
300.59849	10353.6375
304.81948	10376.1375
309.03742	10359.9375
313.25231	10237.0375
317.46415	9938.5375
321.67296	9625.7375
325.87872	9403.3375
330.08145	9280.5375
334.28114	9295.9375
338.47781	9371.3375
342.67145	9478.4375
346.86207	9662.8375
351.04966	9906.4375
355.23424	10173.4375
359.4158	10421.9375
363.59435	10612.7375
367.76989	10730.7375
371.94243	10881.8375
376.11196	10951.5375
380.27849	11067.4375
384.44203	11115.2375
388.60257	11200.9375
392.76012	11277.4375
396.91468	11399.5375
401.06626	11552.9375
405.21485	11629.2375
409.36047	11510.5375
413.50311	11285.8375
417.64277	11028.7375
421.77947	10933.3375
425.9132	10855.7375
430.04396	10871.3375
434.17176	10931.6375
438.2966	11036.0375
442.41849	11207.4375
446.53742	11438.9375
450.6534	11655.5375
454.76644	11829.4375
458.87653	11915.7375
462.98368	11924.4375
467.08789	11827.3375
471.18916	11728.7375
475.2875	11628.5375
479.38291	11542.2375
483.4754	11505.8375
487.56496	11472.6375
491.6516	11464.4375
495.73531	11471.4375
499.81612	11491.4375
503.89401	11538.7375
507.96899	11623.3375
512.04106	11632.9375
516.11023	11649.4375
520.1765	11683.2375
524.23987	11648.7375
528.30034	11599.0375
532.35792	11597.0375
536.41261	11555.4375
540.46441	11478.7375
544.51333	11421.1375
548.55936	11425.9375
552.60252	11488.2375
556.64279	11626.6375
560.6802	11675.3375
564.71473	11731.2375
568.7464	11832.2375
572.7752	11881.5375
576.80114	11827.7375
580.82422	11852.2375
584.84444	11929.3375
588.86181	12028.2375
592.87633	12057.7375
596.888	12132.3375
600.89682	12315.3375
604.9028	13158.7375
608.90594	15082.9375
612.90624	16844.1375
616.90371	15572.5375
620.89834	12935.6375
624.89015	11947.2375
628.87913	11851.1375
632.86528	12172.2375
636.84862	12443.4375
640.82913	12358.8375
644.80683	12004.5375
648.78172	11751.9375
652.75379	11699.6375
656.72306	11896.2375
660.68952	12125.0375
664.65319	12081.0375
668.61405	12033.9375
672.57211	12268.3375
676.52738	12714.3375
680.47986	13302.0375
684.42955	14042.9375
688.37646	14556.0375
692.32058	14473.0375
696.26192	13965.0375
700.20048	13458.0375
704.13626	13224.3375
708.06928	13096.7375
711.99952	12844.4375
715.927	12495.5375
719.85171	12189.2375
723.77365	11901.9375
727.69284	11759.2375
731.60928	11746.8375
735.52295	11725.6375
739.43388	11681.5375
743.34206	11601.3375
747.24749	11549.5375
751.15017	11453.8375
755.05012	11482.1375
758.94733	11733.1375
762.8418	12363.8375
766.73354	13478.2375
770.62254	14665.6375
774.50882	15303.8375
778.39237	14847.5375
782.27321	13682.8375
786.15132	12613.0375
790.02671	11980.5375
793.89938	11643.8375
797.76935	11479.1375
801.6366	11349.7375
805.50115	11308.8375
809.36299	11249.0375
813.22213	11156.8375
817.07857	11083.5375
820.93231	11028.8375
824.78336	10982.3375
828.63172	10948.8375
832.47738	10919.8375
836.32036	10898.4375
840.16066	10876.7375
843.99827	10909.9375
847.8332	10920.5375
851.66546	10949.4375
855.49504	10975.6375
859.32195	11011.6375
863.1462	11044.0375
866.96777	11063.4375
870.78668	11060.9375
874.60293	11095.9375
878.41652	11103.3375
882.22745	11125.2375
886.03573	11147.1375
889.84136	11128.3375
893.64433	11064.3375
897.44466	10990.8375
901.24235	10915.4375
905.0374	10809.0375
908.8298	10731.4375
912.61957	10687.1375
916.40671	10694.9375
920.19121	10764.9375
923.97308	10829.1375
927.75233	10874.1375
931.52895	10913.0375
935.30295	10849.7375
939.07433	10736.0375
942.84309	10694.2375
946.60924	10680.6375
950.37278	10722.1375
954.13371	10729.3375
957.89203	10721.8375
961.64774	10723.2375
965.40086	10613.0375
969.15137	10522.6375
972.89929	10460.7375
976.64461	10418.9375
980.38733	10363.7375
984.12747	10372.7375
987.86502	10399.2375
991.59999	10448.3375
995.33237	10539.5375
999.06217	10675.3375
1002.78939	10833.0375
1006.51404	11012.3375
1010.23611	11175.3375
1013.95561	11354.6375
1017.67255	11425.7375
1021.38692	11358.4375
1025.09872	11177.1375
1028.80796	11015.1375
1032.51465	10971.0375
1036.21877	11019.0375
1039.92035	11057.0375
1043.61937	11077.6375
1047.31584	11047.9375
1051.00976	11066.6375
1054.70114	11068.8375
1058.38998	11121.7375
1062.07627	11170.8375
1065.76003	11278.6375
1069.44126	11387.7375
1073.11995	11550.8375
1076.79611	11658.1375
1080.46974	11744.7375
1084.14085	11813.6375
1087.80943	11883.4375
1091.47549	11968.2375
1095.13903	11925.0375
1098.80005	11805.6375
1102.45857	11661.1375
1106.11456	11569.8375
1109.76805	11595.6375
1113.41903	11687.9375
1117.06751	11858.0375
1120.71348	12108.4375
1124.35696	12406.5375
1127.99793	12754.4375
1131.63641	12983.8375
1135.2724	12947.0375
1138.90589	12780.4375
1142.5369	12616.4375
1146.16542	12350.2375
1149.79145	12139.6375
1153.415	12021.7375
1157.03607	11984.2375
1160.65467	12133.3375
1164.27079	12444.4375
1167.88443	12875.5375
1171.49561	13502.9375
1175.10432	14364.4375
1178.71056	15485.4375
1182.31434	16540.7375
1185.91565	17062.8375
1189.51451	17129.8375
1193.11091	16796.3375
1196.70485	16169.0375
1200.29634	15531.8375
1203.88538	14958.0375
1207.47197	14341.7375
1211.05612	13769.4375
1214.63782	13389.7375
1218.21708	13087.1375
1221.79391	12964.7375
1225.36829	12882.6375
1228.94024	12823.3375
1232.50976	12758.6375
1236.07685	12717.4375
1239.6415	12715.4375
1243.20374	12755.0375
1246.76355	12852.1375
1250.32093	12986.3375
1253.8759	13193.8375
1257.42845	13458.7375
1260.97859	13795.5375
1264.52631	14131.1375
1268.07163	14478.4375
1271.61453	14788.2375
1275.15503	15062.6375
1278.69312	15317.5375
1282.22882	15508.2375
1285.76211	15784.1375
1289.29301	16150.1375
1292.82151	16663.2375
1296.34761	17231.4375
1299.87133	17964.3375
1303.39266	18865.7375
1306.9116	19923.3375
1310.42815	20972.2375
1313.94233	21488.3375
1317.45412	21264.1375
1320.96354	20622.0375
1324.47058	19926.6375
1327.97525	19226.9375
1331.47754	18738.6375
1334.97747	18549.2375
1338.47502	18630.7375
1341.97022	18931.3375
1345.46305	19420.8375
1348.95352	20076.7375
1352.44163	20971.2375
1355.92738	22117.4375
1359.41078	23403.5375
1362.89183	24426.3375
1366.37053	23711.8375
1369.84688	21335.7375
1373.32088	19019.9375
1376.79254	17551.2375
1380.26186	16776.9375
1383.72883	16410.2375
1387.19347	16140.6375
1390.65578	15791.5375
1394.11575	15505.0375
1397.57339	15311.7375
1401.0287	15221.3375
1404.48168	15154.7375
1407.93234	15091.4375
1411.38068	14978.6375
1414.82669	14796.6375
1418.27039	14597.2375
1421.71177	14359.2375
1425.15083	14155.3375
1428.58758	14055.1375
1432.02203	14158.4375
1435.45416	14365.7375
1438.88399	14636.1375
1442.31151	14921.6375
1445.73673	15289.0375
1449.15965	15652.5375
1452.58027	15993.3375
1455.9986	16346.8375
1459.41463	16754.0375
1462.82837	17198.9375
1466.23982	17522.6375
1469.64898	17765.0375
1473.05586	17801.2375
1476.46045	17675.4375
1479.86276	17353.1375
1483.26279	17117.3375
1486.66054	16890.2375
1490.05602	16821.9375
1493.44922	16899.2375
1496.84016	17227.9375
1500.22882	17956.3375
1503.61521	19047.9375
1506.99934	20240.3375
1510.38121	21109.5375
1513.76081	21220.3375
1517.13816	20345.5375
1520.51324	18955.4375
1523.88607	17685.3375
1527.25665	16885.3375
1530.62498	16376.2375
1533.99105	16117.5375
1537.35488	15943.1375
1540.71647	15809.3375
1544.07581	15677.7375
1547.4329	15613.6375
1550.78776	15514.4375
1554.14038	15457.0375
1557.49077	15521.8375
1560.83892	15659.7375
1564.18484	15890.1375
1567.52853	16057.9375
1570.86999	16256.6375
1574.20922	16380.4375
1577.54624	16371.3375
1580.88103	15971.4375
1584.2136	15512.7375
1587.54395	15236.4375
1590.87208	15352.2375
1594.19801	15765.1375
1597.52172	16403.1375
1600.84321	16696.3375
1604.16251	16346.8375
1607.47959	15726.0375
1610.79447	14988.9375
1614.10715	14235.5375
1617.41763	13564.6375
1620.7259	13085.9375
1624.03199	12779.9375
1627.33587	12709.2375
1630.63757	12846.9375
1633.93707	13222.9375
1637.23439	13929.8375
1640.52951	14960.5375
1643.82246	16214.5375
1647.11321	17434.1375
1650.40179	17962.1375
1653.68819	17394.6375
1656.97241	15929.9375
1660.25446	14396.7375
1663.53433	13257.3375
1666.81203	12537.6375
1670.08756	12091.8375
1673.36092	11802.9375
1676.63211	11593.3375
1679.90115	11405.3375
1683.16801	11238.5375
1686.43272	11109.9375
1689.69527	10970.7375
1692.95567	10822.1375
1696.2139	10739.4375
1699.46999	10608.9375
1702.72392	10515.4375
1705.97571	10403.0375
1709.22535	10313.4375
1712.47284	10246.8375
1715.71819	10199.6375
1718.96139	10065.6375
1722.20246	9987.6375
1725.44139	9896.3375
1728.67818	9810.5375
1731.91284	9719.3375
1735.14537	9608.1375
1738.37576	9532.5375
1741.60403	9440.4375
1744.83017	9404.7375
1748.05418	9363.0375
1751.27607	9306.9375
1754.49584	9258.3375
1757.71349	9284.1375
1760.92903	9269.3375
1764.14244	9261.8375
1767.35375	9243.9375
1770.56294	9178.0375
1773.77002	9169.0375
1776.97499	9142.3375
1780.17785	9101.6375
1783.37861	9077.6375
1786.57727	9060.9375
1789.77382	9039.2375
1792.96828	9010.2375
1796.16064	8986.4375
1799.3509	8929.0375
1802.53907	8961.2375
1805.72514	8925.7375
1808.90913	8911.8375
1812.09102	8874.3375
1815.27083	8845.5375
1818.44856	8835.1375
1821.6242	8821.5375
1824.79776	8816.3375
1827.96924	8794.7375
1831.13864	8776.4375
1834.30597	8776.6375
1837.47122	8760.8375
1840.6344	8749.7375
1843.7955	8764.6375
1846.95454	8763.4375
1850.11151	8774.7375
1853.26642	8758.7375
1856.41926	8722.9375
1859.57004	8750.8375
1862.71876	8714.8375
1865.86542	8698.8375
1869.01003	8693.9375
1872.15258	8697.7375
1875.29308	8713.9375
1878.43152	8719.0375
1881.56792	8688.0375
1884.70227	8657.2375
1887.83457	8685.1375
1890.96482	8669.5375
1894.09304	8662.8375
1897.21921	8680.2375
1900.34335	8670.4375
1903.46544	8672.0375
1906.58551	8658.0375
1909.70353	8633.8375
1912.81953	8620.1375
1915.93349	8614.7375
1919.04543	8620.9375
1922.15534	8580.0375
1925.26322	8577.8375
1928.36908	8575.0375
1931.47292	8561.1375
1934.57473	8533.0375
1937.67453	8542.6375
1940.77232	8515.1375
1943.86808	8470.3375
1946.96184	8451.9375
1950.05358	8455.0375
1953.14331	8429.2375
1956.23103	8402.1375
1959.31675	8353.4375
1962.40046	8347.3375
1965.48217	8344.9375
1968.56188	8319.8375
1971.63959	8297.7375
1974.7153	8283.2375
1977.78901	8263.2375
1980.86073	8248.8375
1983.93046	8230.2375
1986.99819	8175.1375
1990.06394	8154.2375
1993.1277	8144.1375
1996.18947	8140.7375
1999.24925	8126.5375
2002.30706	8084.1375
2005.36288	8066.2375
2008.41672	8042.5375
2011.46859	8022.5375
2014.51848	8018.5375
2017.56639	7992.7375
2020.61233	7988.2375
2023.6563	7993.3375
2026.6983	7974.9375
2029.73833	7941.9375
2032.7764	7915.7375
2035.8125	7925.2375
2038.84664	7896.2375
2041.87881	7914.4375
2044.90903	7916.2375
2047.93729	7895.2375
2050.96359	7875.9375
2053.98794	7879.5375
2057.01034	7888.8375
2060.03078	7893.5375
2063.04927	7874.1375
2066.06582	7922.3375
2069.08042	7934.1375
2072.09307	7930.7375
2075.10378	7941.8375
2078.11255	7949.0375
2081.11938	7983.3375
2084.12426	7984.6375
2087.12722	7977.6375
2090.12824	8000.7375
2093.12732	8002.3375
2096.12447	8034.1375
2099.11969	8029.8375
2102.11299	8032.7375
2105.10435	8053.9375
2108.09379	8062.8375
2111.08131	8072.1375
2114.0669	8062.7375
2117.05057	8067.7375
2120.03233	8058.9375
2123.01216	8057.7375
2125.99008	8063.0375
2128.96609	8071.8375
2131.94018	8078.3375
2134.91236	8070.4375
2137.88263	8060.8375
2140.851	8048.9375
2143.81746	8056.0375
2146.78201	8017.6375
2149.74466	8017.0375
2152.7054	8013.3375
2155.66425	8005.1375
2158.6212	7988.1375
2161.57625	7994.0375
2164.52941	7964.8375
2167.48067	7952.9375
2170.43004	7968.2375
2173.37752	7966.1375
2176.32311	7985.2375
2179.26681	7978.1375
2182.20863	7962.8375
2185.14856	7980.0375
2188.08661	7964.9375
2191.02278	7960.2375
2193.95707	7973.2375
2196.88948	7948.2375
2199.82001	7970.2375
2202.74867	7959.1375
2205.67545	7969.4375
2208.60037	7957.5375
2211.52341	7959.4375
2214.44458	7953.9375
2217.36388	7912.3375
2220.28132	7907.6375
2223.1969	7908.0375
2226.11061	7894.7375
2229.02246	7855.1375
2231.93245	7864.4375
2234.84058	7859.7375
2237.74686	7845.1375
2240.65128	7846.4375
2243.55385	7841.7375
2246.45456	7831.9375
2249.35343	7800.5375
2252.25044	7814.4375
2255.14561	7807.7375
2258.03893	7808.5375
2260.93041	7826.1375
2263.82004	7802.6375
2266.70783	7790.6375
2269.59378	7769.2375
2272.4779	7746.9375
2275.36017	7735.7375
2278.24061	7726.2375
2281.11922	7717.7375
2283.996	7716.9375
2286.87094	7680.0375
2289.74405	7678.4375
2292.61534	7680.3375
2295.4848	7648.8375
2298.35243	7670.8375
2301.21824	7674.6375
2304.08223	7674.7375
2306.94439	7663.0375
2309.80474	7683.8375
2312.66327	7667.1375
2315.51999	7655.7375
2318.37489	7643.3375
2321.22797	7660.4375
2324.07925	7645.5375
2326.92871	7657.3375
2329.77637	7635.6375
2332.62222	7630.2375
2335.46626	7640.5375
2338.3085	7640.5375
2341.14893	7621.1375
2343.98756	7634.4375
2346.8244	7635.8375
2349.65943	7629.2375
2352.49267	7640.1375
2355.32411	7610.5375
2358.15376	7653.0375
2360.98161	7648.7375
2363.80768	7645.4375
2366.63195	7655.0375
2369.45444	7630.9375
2372.27514	7642.9375
2375.09405	7632.5375
2377.91118	7612.0375
2380.72652	7609.5375
2383.54009	7612.0375
2386.35187	7605.7375
2389.16188	7578.2375
2391.97011	7569.9375
2394.77657	7553.4375
2397.58125	7546.4375
2400.38416	7526.0375
2403.18529	7526.2375
2405.98466	7506.8375
2408.78226	7511.7375
2411.57809	7510.6375
2414.37216	7512.7375
2417.16446	7514.7375
2419.955	7499.3375
2422.74378	7505.6375
2425.5308	7481.7375
2428.31606	7496.7375
2431.09956	7477.7375
2433.88131	7474.9375
2436.6613	7476.7375
2439.43954	7496.7375
2442.21603	7472.3375
2444.99077	7477.4375
2447.76377	7472.6375
2450.53501	7488.0375
2453.30451	7486.8375
2456.07226	7467.2375
2458.83827	7463.1375
2461.60254	7457.4375
2464.36507	7456.1375
2467.12586	7446.4375
2469.88492	7459.7375
2472.64224	7468.3375
2475.39782	7474.5375
2478.15167	7473.5375
2480.90379	7476.5375
2483.65417	7496.3375
2486.40283	7483.5375
2489.14976	7517.6375
2491.89497	7494.4375
2494.63845	7508.4375
2497.3802	7493.8375
2500.12024	7516.7375
2502.85855	7497.4375
2505.59514	7473.7375
2508.33002	7473.8375
2511.06318	7464.1375
2513.79462	7478.6375
2516.52435	7443.6375
2519.25237	7443.7375
2521.97867	7422.1375
2524.70327	7441.6375
2527.42616	7415.8375
2530.14734	7436.5375
2532.86681	7423.6375
2535.58458	7434.6375
2538.30065	7426.5375
2541.01501	7424.3375
2543.72768	7421.7375
2546.43864	7421.7375
2549.14791	7388.1375
2551.85548	7412.0375
2554.56136	7412.5375
2557.26554	7387.3375
2559.96803	7381.2375
2562.66883	7366.7375
2565.36794	7362.4375
2568.06536	7376.3375
2570.7611	7349.6375
2573.45514	7360.6375
2576.14751	7371.7375
2578.83819	7345.8375
2581.52719	7351.7375
2584.21451	7311.6375
2586.90015	7328.4375
2589.58411	7310.0375
2592.2664	7314.2375
2594.94701	7294.8375
2597.62594	7318.2375
2600.30321	7308.9375
2602.9788	7310.6375
2605.65273	7286.6375
2608.32498	7289.3375
2610.99557	7280.0375
2613.66449	7287.8375
2616.33175	7278.9375
2618.99734	7283.2375
2621.66128	7285.7375
2624.32355	7257.8375
2626.98416	7258.7375
2629.64311	7269.2375
2632.30041	7273.5375
2634.95605	7261.7375
2637.61004	7242.0375
2640.26238	7238.3375
2642.91306	7245.7375
2645.56209	7236.2375
2648.20948	7230.1375
2650.85521	7240.9375
2653.4993	7236.9375
2656.14175	7218.8375
2658.78255	7248.8375
2661.42171	7248.9375
2664.05923	7267.5375
2666.6951	7264.6375
2669.32934	7277.2375
2671.96194	7268.5375
2674.59291	7289.6375
2677.22224	7292.7375
2679.84993	7300.8375
2682.476	7272.2375
2685.10043	7285.2375
2687.72324	7290.0375
2690.34441	7298.4375
2692.96396	7290.1375
2695.58188	7321.6375
2698.19818	7317.5375
2700.81285	7315.5375
2703.4259	7323.9375
2706.03733	7332.8375
2708.64714	7320.5375
2711.25533	7366.8375
2713.86191	7347.7375
2716.46687	7354.7375
2719.07021	7358.7375
2721.67194	7373.8375
2724.27206	7372.6375
2726.87057	7385.6375
2729.46747	7371.8375
2732.06276	7397.6375
2734.65644	7387.2375
2737.24852	7393.3375
2739.83899	7376.2375
2742.42786	7371.4375
2745.01513	7358.0375
2747.60079	7390.7375
2750.18486	7364.4375
2752.76733	7361.7375
2755.3482	7364.1375
2757.92747	7348.4375
2760.50515	7338.0375
2763.08123	7352.3375
2765.65573	7336.2375
2768.22863	7341.2375
2770.79994	7339.6375
2773.36967	7343.4375
2775.9378	7332.3375
2778.50435	7334.4375
2781.06932	7339.3375
2783.6327	7314.0375
2786.1945	7296.5375
2788.75471	7313.6375
2791.31335	7295.1375
2793.87041	7277.2375
2796.42589	7263.2375
2798.97979	7263.3375
2801.53212	7248.8375
2804.08288	7255.6375
2806.63206	7232.4375
2809.17967	7237.4375
2811.72571	7201.7375
2814.27018	7214.7375
2816.81308	7183.1375
2819.35442	7182.8375
2821.89419	7170.8375
2824.43239	7183.3375
2826.96904	7155.2375
2829.50412	7153.8375
2832.03763	7143.9375
2834.56959	7139.8375
2837.1	7127.1375
2839.62884	7136.8375
2842.15613	7130.3375
2844.68186	7151.2375
2847.20604	7130.5375
2849.72867	7154.3375
2852.24974	7162.5375
2854.76927	7165.0375
2857.28724	7138.5375
2859.80367	7140.2375
2862.31855	7133.8375
2864.83189	7155.6375
2867.34368	7143.1375
2869.85393	7144.0375
2872.36264	7149.1375
2874.8698	7151.8375
2877.37543	7148.2375
2879.87952	7151.1375
2882.38207	7161.4375
2884.88308	7165.3375
2887.38256	7187.9375
2889.88051	7148.9375
2892.37692	7175.0375
2894.8718	7175.8375
2897.36515	7217.5375
2899.85698	7195.8375
2902.34727	7224.5375
2904.83604	7231.3375
2907.32328	7249.1375
2909.809	7261.0375
2912.29319	7274.5375
2914.77587	7285.8375
2917.25702	7288.8375
2919.73665	7292.2375
2922.21476	7287.2375
2924.69136	7288.7375
2927.16644	7286.9375
2929.64	7300.3375
2932.11205	7270.6375
2934.58258	7258.4375
2937.05161	7292.9375
2939.51912	7267.3375
2941.98513	7256.0375
2944.44962	7241.7375
2946.91261	7231.7375
2949.37409	7241.6375
2951.83407	7251.3375
2954.29254	7231.5375
2956.74951	7243.6375
2959.20498	7242.9375
2961.65895	7229.4375
2964.11142	7240.5375
2966.56239	7229.1375
2969.01186	7228.4375
2971.45984	7218.9375
2973.90632	7224.0375
2976.35131	7184.4375
2978.7948	7188.0375
2981.23681	7165.1375
2983.67732	7164.3375
2986.11635	7146.9375
2988.55388	7135.3375
2990.98993	7146.5375
2993.4245	7124.2375
2995.85758	7122.5375
2998.28917	7106.5375
3000.71928	7090.3375
3003.14791	7086.2375
3005.57506	7083.0375
3008.00073	7048.8375
3010.42493	7053.1375
3012.84764	7049.8375
3015.26888	7046.1375
3017.68865	7035.9375
3020.10694	7036.9375
3022.52376	6994.6375
3024.9391	7022.9375
3027.35298	7020.8375
3029.76539	7008.9375
3032.17632	7022.4375
3034.5858	7015.5375
3036.9938	7000.2375
3039.40034	6983.3375
3041.80542	7003.3375
3044.20903	6981.2375
3046.61118	6993.4375
3049.01187	6951.7375
3051.4111	6963.3375
3053.80888	6968.0375
3056.20519	6950.5375
3058.60005	6943.3375
3060.99345	6942.1375
3063.3854	6930.9375
3065.7759	6929.5375
3068.16494	6919.6375
3070.55254	6879.3375
3072.93868	6908.5375
3075.32338	6882.9375
3077.70662	6868.2375
3080.08842	6838.1375
3082.46878	6859.1375
3084.84769	6827.2375
3087.22515	6854.1375
3089.60118	6850.6375
3091.97576	6839.6375
3094.3489	6852.2375
3096.72061	6875.6375
3099.09087	6871.1375
3101.4597	6889.1375
3103.82709	6883.9375
3106.19305	6886.3375
3108.55757	6894.8375
3110.92066	6878.5375
3113.28232	6873.5375
3115.64255	6868.9375
3118.00134	6840.3375
3120.35871	6840.3375
3122.71466	6840.8375
3125.06917	6832.9375
3127.42226	6823.5375
3129.77393	6803.3375
3132.12417	6811.0375
3134.47299	6821.8375
3136.82039	6802.8375
3139.16636	6862.9375
3141.51092	6849.3375
3143.85406	6822.0375
3146.19579	6849.1375
3148.53609	6836.5375
3150.87499	6853.9375
3153.21246	6873.5375
3155.54853	6887.9375
3157.88318	6885.1375
3160.21642	6919.2375
3162.54826	6905.6375
3164.87868	6937.3375
3167.2077	6919.0375
3169.5353	6925.8375
3171.86151	6936.5375
3174.18631	6924.1375
3176.5097	6931.9375
3178.83169	6907.8375
3181.15228	6927.5375
3183.47147	6912.5375
3185.78926	6916.9375
3188.10565	6903.9375
3190.42065	6915.9375
3192.73424	6907.0375
3195.04645	6907.6375
3197.35725	6917.4375
3199.66667	6915.9375
3201.97469	6934.1375
3204.28132	6956.3375
3206.58656	6960.4375
3208.8904	6959.5375
3211.19287	6958.4375
3213.49394	6968.9375
3215.79363	6974.6375
3218.09193	6992.2375
3220.38884	6981.9375
3222.68438	6981.9375
3224.97853	6995.6375
3227.2713	6995.7375
3229.56269	6997.5375
3231.8527	6999.0375
3234.14133	6963.4375
3236.42858	6964.7375
3238.71446	6968.6375
3240.99896	6947.5375
3243.28209	6955.2375
3245.56384	6946.7375
3247.84423	6948.3375
3250.12324	6932.9375
3252.40088	6942.1375
3254.67715	6941.6375
3256.95205	6942.5375
3259.22558	6930.3375
3261.49775	6957.4375
3263.76855	6963.6375
3266.03799	6963.4375
3268.30606	6955.5375
3270.57277	6950.8375
3272.83812	6927.0375
3275.10211	6898.2375
3277.36474	6930.0375
3279.62601	6922.1375
3281.88593	6903.7375
3284.14448	6920.4375
3286.40168	6915.8375
3288.65753	6907.6375
3290.91202	6905.0375
3293.16516	6912.6375
3295.41695	6900.6375
3297.66738	6860.4375
3299.91647	6852.9375
3302.16421	6784.1375
3304.4106	6766.3375
3306.65564	6763.9375
3308.89933	6723.2375
3311.14169	6693.2375
3313.38269	6652.2375
3315.62236	6616.1375
3317.86068	6569.5375
3320.09766	6548.1375
3322.3333	6532.0375
3324.5676	6496.4375
3326.80056	6404.9375
3329.03219	6392.7375
3331.26248	2.7375
3333.49143	1.1375
3335.71905	-1.4625
