Data from AgNPs_APTES_FTO_UA_100uM_CRN_0uM_R6G_10uM_Scan_RamanShift__47__16-37-32-981.txt Node

Date: Mon Jul 11 16:37:32 BST 2022
User: TCL
Spectrometer: QEP01345
Trigger mode: 4
Integration Time (sec): 7.000000E0
Scans to average: 10
Electric dark correction enabled: true
Nonlinearity correction enabled: false
Boxcar width: 0
XAxis mode: Raman Shifts
Number of Pixels in Spectrum: 1044
>>>>>Begin Spectral Data<<<<<
46.04893	-0
50.45542	-1.2
54.85868	0.5
59.25871	-2.9
63.6555	60
68.04907	65
72.43941	66.9
76.82654	68.6
81.21044	76
85.59113	78.6
89.96862	85.6
94.34289	80.6
98.71396	84.5
103.08183	90
107.4465	91.7
111.80798	94
116.16626	93.8
120.52136	100.3
124.87327	105.7
129.222	110.5
133.56755	111.8
137.90993	127.5
142.24913	143.7
146.58517	157.8
150.91804	176.4
155.24774	216.2
159.57429	266.9
163.89768	345.5
168.21792	455.8
172.53501	624.9
176.84895	874.5
181.15975	1227.1
185.46741	1719
189.77193	2381
194.07331	3209.6
198.37157	4133.5
202.6667	5117.6
206.9587	6091.5
211.24758	7067.4
215.53334	8041.2
219.81599	9069.7
224.09553	10199.4
228.37195	11479.1
232.64527	12889.3
236.91549	14328.7
241.18261	15737
245.44663	17015.5
249.70755	18132.9
253.96539	19054.5
258.22014	19788.7
262.4718	20309.3
266.72039	20593.2
270.96589	20630.3
275.20832	20392.4
279.44768	20073.7
283.68397	19649.4
287.91719	19255.9
292.14735	19003.6
296.37445	18909.5
300.59849	18970.1
304.81948	19092.7
309.03742	19203.1
313.25231	19156.8
317.46415	18798.9
321.67296	18348.3
325.87872	18030.6
330.08145	17856.4
334.28114	17879.1
338.47781	18021.3
342.67145	18253.2
346.86207	18595.8
351.04966	19054.1
355.23424	19503.4
359.4158	19859.5
363.59435	20096.9
367.76989	20248.3
371.94243	20308.2
376.11196	20363.5
380.27849	20352.9
384.44203	20452
388.60257	20552.1
392.76012	20752.6
396.91468	20987.6
401.06626	21282.1
405.21485	21464.5
409.36047	21316.1
413.50311	20951.6
417.64277	20675.6
421.77947	20570
425.9132	20645.6
430.04396	20708.9
434.17176	20826.5
438.2966	20994
442.41849	21283.2
446.53742	21713.5
450.6534	22079
454.76644	22300
458.87653	22382
462.98368	22319.1
467.08789	22193.5
471.18916	21892.4
475.2875	21624.3
479.38291	21358.5
483.4754	21223.2
487.56496	21134.9
491.6516	21223
495.73531	21360.2
499.81612	21542.2
503.89401	21750.5
507.96899	21865.7
512.04106	21885.2
516.11023	21912.5
520.1765	21848.8
524.23987	21774
528.30034	21713.1
532.35792	21534.8
536.41261	21365.5
540.46441	21154
544.51333	21074.5
548.55936	21232.4
552.60252	21450.7
556.64279	21766.1
560.6802	21971.6
564.71473	22104.6
568.7464	22326.5
572.7752	22525
576.80114	22572.9
580.82422	22860.8
584.84444	23265.2
588.86181	23893.1
592.87633	24360.6
596.888	24465.6
600.89682	24396.3
604.9028	25378.4
608.90594	28103.5
612.90624	30572.9
616.90371	28389.6
620.89834	24220.2
624.89015	22496.2
628.87913	22424
632.86528	22729.9
636.84862	22972.5
640.82913	22791.2
644.80683	22392.7
648.78172	22093.1
652.75379	22159.1
656.72306	22461.3
660.68952	22786.7
664.65319	22508.4
668.61405	22160.7
672.57211	22171.9
676.52738	22296.6
680.47986	22395.4
684.42955	22430.2
688.37646	22466.8
692.32058	22515.5
696.26192	22483
700.20048	22468.7
704.13626	22430.1
708.06928	22247.8
711.99952	22093.2
715.927	22047.2
719.85171	22054
723.77365	22027.3
727.69284	21926.5
731.60928	21770.5
735.52295	21827.4
739.43388	21887.5
743.34206	22013.6
747.24749	22039.3
751.15017	22103.1
755.05012	22340.8
758.94733	22883
762.8418	24031.1
766.73354	25802.5
770.62254	27387.7
774.50882	27710.8
778.39237	26729.3
782.27321	25101.8
786.15132	23608.8
790.02671	22752.3
793.89938	22356.9
797.76935	22133.4
801.6366	22042.9
805.50115	22025.7
809.36299	21999
813.22213	21960.3
817.07857	21843.3
820.93231	21659.5
824.78336	21560.6
828.63172	21477.6
832.47738	21458.4
836.32036	21423.6
840.16066	21388.3
843.99827	21382.7
847.8332	21398.4
851.66546	21474.1
855.49504	21543.4
859.32195	21564.3
863.1462	21541.1
866.96777	21553.6
870.78668	21569.9
874.60293	21618.4
878.41652	21769.2
882.22745	21829.3
886.03573	21947.3
889.84136	21982.3
893.64433	21892.5
897.44466	21820.8
901.24235	21699.3
905.0374	21667.6
908.8298	21552.3
912.61957	21512
916.40671	21535.6
920.19121	21644.4
923.97308	21760.2
927.75233	21848.2
931.52895	21808.1
935.30295	21628.8
939.07433	21394.6
942.84309	21209.3
946.60924	21092.2
950.37278	21077.9
954.13371	21053
957.89203	21048.3
961.64774	21053.8
965.40086	21050.5
969.15137	21079.6
972.89929	21047.6
976.64461	21045.7
980.38733	21066.1
984.12747	21131.5
987.86502	21206.1
991.59999	21301.7
995.33237	21426
999.06217	21634
1002.78939	21953.5
1006.51404	22355.5
1010.23611	22742.3
1013.95561	22920.2
1017.67255	22918.9
1021.38692	22784.2
1025.09872	22461.2
1028.80796	22250.5
1032.51465	22107.3
1036.21877	22168.6
1039.92035	22233
1043.61937	22259.4
1047.31584	22238.8
1051.00976	22239.5
1054.70114	22299.6
1058.38998	22360
1062.07627	22511.9
1065.76003	22716.9
1069.44126	22991.3
1073.11995	23348.4
1076.79611	23765.5
1080.46974	24020.6
1084.14085	24190.3
1087.80943	24355.7
1091.47549	24505.4
1095.13903	24360.5
1098.80005	24039.5
1102.45857	23699.9
1106.11456	23490.7
1109.76805	23392.1
1113.41903	23500.8
1117.06751	23718.6
1120.71348	24095.2
1124.35696	24508.6
1127.99793	24994.6
1131.63641	25168.2
1135.2724	25028.3
1138.90589	24873.7
1142.5369	24643.3
1146.16542	24511.5
1149.79145	24333.1
1153.415	24116.7
1157.03607	23969.9
1160.65467	24143.3
1164.27079	24555.1
1167.88443	25244.8
1171.49561	26290.9
1175.10432	27697.5
1178.71056	29501.9
1182.31434	31082
1185.91565	31829.6
1189.51451	31782.3
1193.11091	31237.3
1196.70485	30399
1200.29634	29574.9
1203.88538	28899.3
1207.47197	28282.1
1211.05612	27655
1214.63782	27192.1
1218.21708	26732.1
1221.79391	26488.1
1225.36829	26341.7
1228.94024	26297.4
1232.50976	26128.6
1236.07685	25961.5
1239.6415	25821.8
1243.20374	25829.2
1246.76355	25934.6
1250.32093	26217.6
1253.8759	26511.8
1257.42845	27060
1260.97859	27690.1
1264.52631	28328.7
1268.07163	28907.4
1271.61453	29381
1275.15503	29742.9
1278.69312	29974.1
1282.22882	30214.7
1285.76211	30620
1289.29301	31205.4
1292.82151	31963.5
1296.34761	32849.9
1299.87133	34012.1
1303.39266	35461.9
1306.9116	37309.7
1310.42815	39146.6
1313.94233	40005.9
1317.45412	39400
1320.96354	38061.3
1324.47058	36747.8
1327.97525	35751.9
1331.47754	35076.1
1334.97747	34893
1338.47502	35117
1341.97022	35711.5
1345.46305	36542.2
1348.95352	37509.7
1352.44163	38622.8
1355.92738	39946.3
1359.41078	41911.5
1362.89183	43503.1
1366.37053	42428.5
1369.84688	38701.4
1373.32088	34832.6
1376.79254	32366.9
1380.26186	31176.5
1383.72883	30610
1387.19347	30170.4
1390.65578	29643.5
1394.11575	29109.5
1397.57339	28767.2
1401.0287	28608.4
1404.48168	28546.4
1407.93234	28513.8
1411.38068	28436
1414.82669	28155
1418.27039	27806.4
1421.71177	27479.2
1425.15083	27151.7
1428.58758	27156.6
1432.02203	27359.6
1435.45416	27728.3
1438.88399	28076.7
1442.31151	28237.3
1445.73673	28314.2
1449.15965	28406.5
1452.58027	28377.4
1455.9986	28369.4
1459.41463	28611.4
1462.82837	29063
1466.23982	29512.3
1469.64898	29949.4
1473.05586	30251.2
1476.46045	30365.6
1479.86276	30452.6
1483.26279	30520.8
1486.66054	30610.9
1490.05602	31061.7
1493.44922	31668.8
1496.84016	32538.6
1500.22882	33973.6
1503.61521	35875.3
1506.99934	37718.5
1510.38121	38869.5
1513.76081	38656
1517.13816	36962.5
1520.51324	34726.1
1523.88607	32802.6
1527.25665	31691.8
1530.62498	31187.8
1533.99105	30945.3
1537.35488	30739.3
1540.71647	30388.6
1544.07581	30066.6
1547.4329	29830
1550.78776	29567.8
1554.14038	29360.1
1557.49077	29414.6
1560.83892	29516.2
1564.18484	29770.1
1567.52853	30072.6
1570.86999	30372.6
1574.20922	30593.5
1577.54624	30493.3
1580.88103	29917.4
1584.2136	29274.4
1587.54395	29154.7
1590.87208	29655.5
1594.19801	30705.3
1597.52172	31915.9
1600.84321	32296.2
1604.16251	31637.6
1607.47959	30426.1
1610.79447	28907.1
1614.10715	27376.7
1617.41763	26148.9
1620.7259	25267.6
1624.03199	24805.3
1627.33587	24768.6
1630.63757	25107.2
1633.93707	25968.1
1637.23439	27484
1640.52951	29671.9
1643.82246	32314.3
1647.11321	34528.1
1650.40179	35094.9
1653.68819	33353.6
1656.97241	30177.1
1660.25446	27136.7
1663.53433	24973.5
1666.81203	23605.5
1670.08756	22757
1673.36092	22236.2
1676.63211	21842.4
1679.90115	21578.3
1683.16801	21281.4
1686.43272	21028.9
1689.69527	20801.2
1692.95567	20615.6
1696.2139	20487.2
1699.46999	20373.2
1702.72392	20267.7
1705.97571	20198.7
1709.22535	20079.9
1712.47284	20058.9
1715.71819	20026.3
1718.96139	19948.5
1722.20246	19897.4
1725.44139	19816.8
1728.67818	19681.2
1731.91284	19618.8
1735.14537	19519.9
1738.37576	19418.7
1741.60403	19368.1
1744.83017	19275.2
1748.05418	19236.4
1751.27607	19193.9
1754.49584	19104.5
1757.71349	19098.8
1760.92903	19062.9
1764.14244	19053.2
1767.35375	19054.9
1770.56294	18975.7
1773.77002	18939.3
1776.97499	18942.6
1780.17785	18889.9
1783.37861	18881.4
1786.57727	18862.2
1789.77382	18798.9
1792.96828	18779.2
1796.16064	18779.5
1799.3509	18719.3
1802.53907	18685.7
1805.72514	18632.6
1808.90913	18574.7
1812.09102	18556.8
1815.27083	18509.9
1818.44856	18501.3
1821.6242	18442.4
1824.79776	18450.3
1827.96924	18438.1
1831.13864	18436.4
1834.30597	18356.9
1837.47122	18373.5
1840.6344	18365.9
1843.7955	18317.5
1846.95454	18328.5
1850.11151	18324
1853.26642	18306.6
1856.41926	18285.9
1859.57004	18274.6
1862.71876	18290.4
1865.86542	18260.2
1869.01003	18199.7
1872.15258	18216.3
1875.29308	18198.3
1878.43152	18156.3
1881.56792	18138.6
1884.70227	18080.2
1887.83457	18095.4
1890.96482	18070.8
1894.09304	18048.5
1897.21921	17994.3
1900.34335	17964.7
1903.46544	17946.2
1906.58551	17940.2
1909.70353	17938.1
1912.81953	17911.2
1915.93349	17893.8
1919.04543	17876.9
1922.15534	17817.5
1925.26322	17774.4
1928.36908	17711.4
1931.47292	17740.8
1934.57473	17656.3
1937.67453	17640.3
1940.77232	17585.3
1943.86808	17545.7
1946.96184	17506.4
1950.05358	17445.6
1953.14331	17420.7
1956.23103	17342.9
1959.31675	17323.2
1962.40046	17273.9
1965.48217	17226.8
1968.56188	17154.6
1971.63959	17124.1
1974.7153	17077.7
1977.78901	17020
1980.86073	16964.7
1983.93046	16915.6
1986.99819	16874.3
1990.06394	16826.9
1993.1277	16801.7
1996.18947	16726.1
1999.24925	16699.3
2002.30706	16664.5
2005.36288	16612
2008.41672	16551.4
2011.46859	16507.3
2014.51848	16472.5
2017.56639	16460
2020.61233	16388.2
2023.6563	16359.1
2026.6983	16333.9
2029.73833	16278.2
2032.7764	16204.2
2035.8125	16156.8
2038.84664	16121.3
2041.87881	16124.2
2044.90903	16108.7
2047.93729	16066.3
2050.96359	16064.8
2053.98794	16027.3
2057.01034	16000
2060.03078	15972.6
2063.04927	15991.9
2066.06582	15985
2069.08042	15978.6
2072.09307	15959
2075.10378	15914.3
2078.11255	15940.8
2081.11938	15967.8
2084.12426	15929.2
2087.12722	15925.1
2090.12824	15942.9
2093.12732	15938.8
2096.12447	15939.8
2099.11969	15934.2
2102.11299	15950.1
2105.10435	15947.9
2108.09379	15912.7
2111.08131	15905.9
2114.0669	15915.3
2117.05057	15930.4
2120.03233	15947.2
2123.01216	15974.3
2125.99008	15986.9
2128.96609	16017.8
2131.94018	16010.8
2134.91236	16003
2137.88263	16017.1
2140.851	16017.8
2143.81746	16045.7
2146.78201	16009.2
2149.74466	16021.6
2152.7054	16029.7
2155.66425	16009
2158.6212	16010.6
2161.57625	15979.5
2164.52941	15989.7
2167.48067	16006.5
2170.43004	15994.4
2173.37752	15982.9
2176.32311	15951.7
2179.26681	15978.7
2182.20863	15970
2185.14856	15974.7
2188.08661	16003.8
2191.02278	15974.8
2193.95707	15958.7
2196.88948	15969.2
2199.82001	15958
2202.74867	15911.3
2205.67545	15919.3
2208.60037	15882.9
2211.52341	15866.1
2214.44458	15855.9
2217.36388	15821.6
2220.28132	15764.4
2223.1969	15717.9
2226.11061	15687.5
2229.02246	15658.7
2231.93245	15655.1
2234.84058	15600.6
2237.74686	15594.5
2240.65128	15562
2243.55385	15587.9
2246.45456	15571.7
2249.35343	15557.3
2252.25044	15496.1
2255.14561	15448.9
2258.03893	15445
2260.93041	15437.3
2263.82004	15404.4
2266.70783	15359.7
2269.59378	15332
2272.4779	15299.1
2275.36017	15263.8
2278.24061	15307.4
2281.11922	15243.2
2283.996	15235
2286.87094	15158.2
2289.74405	15136.5
2292.61534	15115.8
2295.4848	15120.3
2298.35243	15104.7
2301.21824	15096.2
2304.08223	15127
2306.94439	15089.6
2309.80474	15064.6
2312.66327	15063.4
2315.51999	15042.2
2318.37489	15025.5
2321.22797	15002.6
2324.07925	14963.7
2326.92871	14942.2
2329.77637	14889.2
2332.62222	14890.6
2335.46626	14840
2338.3085	14833.6
2341.14893	14819.2
2343.98756	14832.6
2346.8244	14833.2
2349.65943	14836.3
2352.49267	14800.3
2355.32411	14827.3
2358.15376	14815.4
2360.98161	14809.7
2363.80768	14806.4
2366.63195	14822.6
2369.45444	14781.2
2372.27514	14776.2
2375.09405	14775.6
2377.91118	14729.4
2380.72652	14723.4
2383.54009	14657.7
2386.35187	14621.5
2389.16188	14586.8
2391.97011	14576.2
2394.77657	14563
2397.58125	14529
2400.38416	14495.9
2403.18529	14451.3
2405.98466	14466.7
2408.78226	14452.7
2411.57809	14412.3
2414.37216	14382.6
2417.16446	14398.5
2419.955	14359.3
2422.74378	14389.4
2425.5308	14359.6
2428.31606	14339.5
2431.09956	14343.4
2433.88131	14330.6
2436.6613	14314
2439.43954	14301.3
2442.21603	14311.2
2444.99077	14292.6
2447.76377	14284.7
2450.53501	14290.4
2453.30451	14277.3
2456.07226	14259.6
2458.83827	14220.2
2461.60254	14224.8
2464.36507	14211.9
2467.12586	14195.4
2469.88492	14177.7
2472.64224	14199.8
2475.39782	14171.2
2478.15167	14185
2480.90379	14179.9
2483.65417	14187.8
2486.40283	14181.5
2489.14976	14187.6
2491.89497	14180.6
2494.63845	14134.4
2497.3802	14118.7
2500.12024	14123.8
2502.85855	14113.6
2505.59514	14110
2508.33002	14064
2511.06318	14035.6
2513.79462	13978.7
2516.52435	13983
2519.25237	13960.6
2521.97867	13902.8
2524.70327	13942.6
2527.42616	13916.8
2530.14734	13905.6
2532.86681	13876.8
2535.58458	13928.9
2538.30065	13905.7
2541.01501	13912
2543.72768	13882.3
2546.43864	13877.1
2549.14791	13840.8
2551.85548	13844
2554.56136	13813.7
2557.26554	13793.5
2559.96803	13766.5
2562.66883	13713.1
2565.36794	13695.7
2568.06536	13699.3
2570.7611	13677.2
2573.45514	13653.3
2576.14751	13664.4
2578.83819	13620.2
2581.52719	13591.4
2584.21451	13578.3
2586.90015	13563.1
2589.58411	13497.1
2592.2664	13497.4
2594.94701	13489.6
2597.62594	13480.4
2600.30321	13466
2602.9788	13451.5
2605.65273	13474.1
2608.32498	13435.3
2610.99557	13401.5
2613.66449	13392.4
2616.33175	13384.3
2618.99734	13379.9
2621.66128	13377.6
2624.32355	13334.3
2626.98416	13324.9
2629.64311	13284.2
2632.30041	13269.4
2634.95605	13287.3
2637.61004	13236.6
2640.26238	13212.6
2642.91306	13215.3
2645.56209	13145.5
2648.20948	13177.9
2650.85521	13170.5
2653.4993	13204.1
2656.14175	13204.5
2658.78255	13215.1
2661.42171	13207.9
2664.05923	13225.7
2666.6951	13241.4
2669.32934	13234.1
2671.96194	13237.3
2674.59291	13233.5
2677.22224	13224.4
2679.84993	13210
2682.476	13216
2685.10043	13226
2687.72324	13192.3
2690.34441	13160.6
2692.96396	13188.9
2695.58188	13195.7
2698.19818	13186.6
2700.81285	13201.6
2703.4259	13195.3
2706.03733	13199.3
2708.64714	13162.5
2711.25533	13215.7
2713.86191	13209.6
2716.46687	13242.2
2719.07021	13232.3
2721.67194	13241.3
2724.27206	13198.9
2726.87057	13213.6
2729.46747	13174.3
2732.06276	13220.7
2734.65644	13201.2
2737.24852	13230.3
2739.83899	13183.3
2742.42786	13189.1
2745.01513	13169
2747.60079	13124
2750.18486	13123.4
2752.76733	13133.8
2755.3482	13100.1
2757.92747	13098.5
2760.50515	13057.6
2763.08123	13030.9
2765.65573	13005.9
2768.22863	13001.6
2770.79994	12982.5
2773.36967	12985.3
2775.9378	12975
2778.50435	12943.9
2781.06932	12926
2783.6327	12936.8
2786.1945	12913.8
2788.75471	12873.7
2791.31335	12858.2
2793.87041	12842.3
2796.42589	12769.9
2798.97979	12800.5
2801.53212	12737.2
2804.08288	12743.9
2806.63206	12695.3
2809.17967	12679.6
2811.72571	12640
2814.27018	12617.5
2816.81308	12607.6
2819.35442	12544.4
2821.89419	12516.6
2824.43239	12512
2826.96904	12532.1
2829.50412	12517.2
2832.03763	12518.6
2834.56959	12516.6
2837.1	12457.1
2839.62884	12472.3
2842.15613	12409.3
2844.68186	12449.3
2847.20604	12438.4
2849.72867	12417.1
2852.24974	12413.4
2854.76927	12391.4
2857.28724	12392.2
2859.80367	12373.8
2862.31855	12352.8
2864.83189	12358.3
2867.34368	12331.3
2869.85393	12354.9
2872.36264	12327.3
2874.8698	12327.6
2877.37543	12299.7
2879.87952	12319.6
2882.38207	12293.5
2884.88308	12295.5
2887.38256	12278.6
2889.88051	12261.3
2892.37692	12278.4
2894.8718	12281.3
2897.36515	12309.8
2899.85698	12310.4
2902.34727	12310.7
2904.83604	12307.9
2907.32328	12323.5
2909.809	12334
2912.29319	12320.2
2914.77587	12313
2917.25702	12312.3
2919.73665	12318
2922.21476	12306.8
2924.69136	12299.2
2927.16644	12282.9
2929.64	12230.9
2932.11205	12236.3
2934.58258	12200.5
2937.05161	12222.7
2939.51912	12219.4
2941.98513	12185.4
2944.44962	12143.4
2946.91261	12137.7
2949.37409	12153.4
2951.83407	12147.4
2954.29254	12126.6
2956.74951	12135.6
2959.20498	12132.6
2961.65895	12146
2964.11142	12123
2966.56239	12095.3
2969.01186	12085.8
2971.45984	12038.4
2973.90632	12059.9
2976.35131	12033.7
2978.7948	12020.7
2981.23681	12014.8
2983.67732	11977.7
2986.11635	11954.5
2988.55388	11910.5
2990.98993	11893.5
2993.4245	11905.3
2995.85758	11863.2
2998.28917	11855.9
3000.71928	11821.4
3003.14791	11796.4
3005.57506	11762.2
3008.00073	11716.9
3010.42493	11727
3012.84764	11707.3
3015.26888	11731.8
3017.68865	11665.6
3020.10694	11665.9
3022.52376	11647.8
3024.9391	11619.6
3027.35298	11639.9
3029.76539	11582.1
3032.17632	11559.4
3034.5858	11558.3
3036.9938	11541.1
3039.40034	11551.6
3041.80542	11540.1
3044.20903	11515.8
3046.61118	11510.9
3049.01187	11468.1
3051.4111	11449
3053.80888	11452.6
3056.20519	11392.8
3058.60005	11393
3060.99345	11372.5
3063.3854	11376.9
3065.7759	11348.3
3068.16494	11299.5
3070.55254	11290
3072.93868	11236.1
3075.32338	11212.1
3077.70662	11231.5
3080.08842	11192.6
3082.46878	11194.3
3084.84769	11142.9
3087.22515	11141
3089.60118	11155.7
3091.97576	11144.9
3094.3489	11146.1
3096.72061	11144.5
3099.09087	11142.1
3101.4597	11149.3
3103.82709	11140
3106.19305	11121.2
3108.55757	11154.8
3110.92066	11100.8
3113.28232	11063.2
3115.64255	11074.6
3118.00134	11038
3120.35871	10997
3122.71466	10974
3125.06917	10984.9
3127.42226	10961.1
3129.77393	10943
3132.12417	10906.7
3134.47299	10922.6
3136.82039	10902.7
3139.16636	10891.2
3141.51092	10885.6
3143.85406	10896.8
3146.19579	10903.3
3148.53609	10891.9
3150.87499	10897
3153.21246	10893.6
3155.54853	10918.5
3157.88318	10888.7
3160.21642	10898.6
3162.54826	10911.2
3164.87868	10895
3167.2077	10899.6
3169.5353	10878.1
3171.86151	10909.5
3174.18631	10896.3
3176.5097	10897
3178.83169	10892.8
3181.15228	10853.9
3183.47147	10821.1
3185.78926	10809
3188.10565	10771.6
3190.42065	10797.3
3192.73424	10767.9
3195.04645	10755.4
3197.35725	10753.6
3199.66667	10728
3201.97469	10754
3204.28132	10716
3206.58656	10755.3
3208.8904	10753.7
3211.19287	10753.4
3213.49394	10734.9
3215.79363	10721.3
3218.09193	10736
3220.38884	10750.6
3222.68438	10742.2
3224.97853	10735.8
3227.2713	10733.6
3229.56269	10716.6
3231.8527	10713.5
3234.14133	10704.6
3236.42858	10671
3238.71446	10634.4
3240.99896	10589.5
3243.28209	10594.2
3245.56384	10579.1
3247.84423	10562.6
3250.12324	10550.3
3252.40088	10532.5
3254.67715	10525
3256.95205	10517
3259.22558	10523.7
3261.49775	10507
3263.76855	10534.7
3266.03799	10509.9
3268.30606	10487
3270.57277	10482
3272.83812	10451.1
3275.10211	10428.6
3277.36474	10386
3279.62601	10393.6
3281.88593	10374.7
3284.14448	10377.3
3286.40168	10374.7
3288.65753	10362.4
3290.91202	10369.7
3293.16516	10343.3
3295.41695	10328.3
3297.66738	10288.9
3299.91647	10247.1
3302.16421	10184.4
3304.4106	10138.8
3306.65564	10104.1
3308.89933	9996.5
3311.14169	9948.2
3313.38269	9884.5
3315.62236	9833.6
3317.86068	9768.4
3320.09766	9697.7
3322.3333	9636
3324.5676	9599.4
3326.80056	9453.9
3329.03219	9377.3
3331.26248	4.6
3333.49143	0.5
3335.71905	-1.2
