Data from AgNPs_APTES_FTO_UA_100uM_CRN_0uM_R6G_10uM_Scan_RamanShift__7__15-50-52-934.txt Node

Date: Mon Jul 11 15:50:52 BST 2022
User: TCL
Spectrometer: QEP01345
Trigger mode: 4
Integration Time (sec): 7.000000E0
Scans to average: 10
Electric dark correction enabled: true
Nonlinearity correction enabled: false
Boxcar width: 0
XAxis mode: Raman Shifts
Number of Pixels in Spectrum: 1044
>>>>>Begin Spectral Data<<<<<
46.04893	-1.4625
50.45542	-0.8625
54.85868	-0.2625
59.25871	-2.2625
63.6555	43.9375
68.04907	43.5375
72.43941	49.1375
76.82654	51.3375
81.21044	55.5375
85.59113	59.1375
89.96862	60.3375
94.34289	58.7375
98.71396	63.3375
103.08183	67.1375
107.4465	64.6375
111.80798	66.4375
116.16626	68.4375
120.52136	70.3375
124.87327	75.2375
129.222	78.5375
133.56755	80.6375
137.90993	90.8375
142.24913	99.3375
146.58517	109.7375
150.91804	127.1375
155.24774	149.2375
159.57429	189.0375
163.89768	236.8375
168.21792	306.2375
172.53501	413.0375
176.84895	575.2375
181.15975	806.5375
185.46741	1132.4375
189.77193	1556.6375
194.07331	2091.3375
198.37157	2693.0375
202.6667	3345.6375
206.9587	3965.2375
211.24758	4621.6375
215.53334	5240.2375
219.81599	5935.9375
224.09553	6676.0375
228.37195	7490.3375
232.64527	8386.3375
236.91549	9310.4375
241.18261	10244.3375
245.44663	11039.4375
249.70755	11718.0375
253.96539	12252.1375
258.22014	12663.1375
262.4718	12936.0375
266.72039	13044.4375
270.96589	12997.0375
275.20832	12839.2375
279.44768	12591.3375
283.68397	12254.4375
287.91719	11980.2375
292.14735	11814.5375
296.37445	11740.8375
300.59849	11697.6375
304.81948	11737.9375
309.03742	11664.8375
313.25231	11506.1375
317.46415	11216.4375
321.67296	10871.8375
325.87872	10663.5375
330.08145	10547.9375
334.28114	10544.4375
338.47781	10626.2375
342.67145	10758.6375
346.86207	10953.0375
351.04966	11209.0375
355.23424	11483.3375
359.4158	11757.3375
363.59435	11960.9375
367.76989	12127.1375
371.94243	12213.4375
376.11196	12315.4375
380.27849	12413.6375
384.44203	12504.7375
388.60257	12596.0375
392.76012	12693.3375
396.91468	12769.3375
401.06626	12975.9375
405.21485	13077.9375
409.36047	13003.2375
413.50311	12726.1375
417.64277	12554.5375
421.77947	12406.7375
425.9132	12348.0375
430.04396	12333.0375
434.17176	12410.5375
438.2966	12513.2375
442.41849	12706.4375
446.53742	12926.6375
450.6534	13175.7375
454.76644	13364.3375
458.87653	13489.0375
462.98368	13476.9375
467.08789	13423.4375
471.18916	13302.8375
475.2875	13181.7375
479.38291	13112.7375
483.4754	13062.0375
487.56496	13019.2375
491.6516	12997.5375
495.73531	13025.7375
499.81612	13013.2375
503.89401	13103.4375
507.96899	13164.7375
512.04106	13183.0375
516.11023	13229.1375
520.1765	13234.5375
524.23987	13188.8375
528.30034	13157.5375
532.35792	13159.5375
536.41261	13144.3375
540.46441	13057.1375
544.51333	13002.7375
548.55936	13016.0375
552.60252	13099.8375
556.64279	13237.2375
560.6802	13320.6375
564.71473	13394.1375
568.7464	13486.2375
572.7752	13517.2375
576.80114	13484.7375
580.82422	13515.6375
584.84444	13574.3375
588.86181	13673.8375
592.87633	13723.4375
596.888	13768.4375
600.89682	13984.5375
604.9028	14878.2375
608.90594	16832.3375
612.90624	18644.3375
616.90371	17406.3375
620.89834	14629.5375
624.89015	13564.2375
628.87913	13472.9375
632.86528	13749.2375
636.84862	14046.0375
640.82913	13966.9375
644.80683	13613.1375
648.78172	13379.3375
652.75379	13359.5375
656.72306	13568.3375
660.68952	13827.0375
664.65319	13795.4375
668.61405	13753.8375
672.57211	13990.2375
676.52738	14442.1375
680.47986	15083.3375
684.42955	15795.7375
688.37646	16370.0375
692.32058	16349.3375
696.26192	15845.0375
700.20048	15314.0375
704.13626	15080.0375
708.06928	14960.9375
711.99952	14723.9375
715.927	14381.8375
719.85171	14013.8375
723.77365	13744.2375
727.69284	13544.5375
731.60928	13455.9375
735.52295	13484.0375
739.43388	13464.0375
743.34206	13404.6375
747.24749	13286.0375
751.15017	13245.5375
755.05012	13271.5375
758.94733	13528.0375
762.8418	14185.7375
766.73354	15293.7375
770.62254	16502.5375
774.50882	17135.6375
778.39237	16685.0375
782.27321	15559.1375
786.15132	14489.8375
790.02671	13811.5375
793.89938	13465.4375
797.76935	13278.5375
801.6366	13167.9375
805.50115	13060.8375
809.36299	12963.5375
813.22213	12890.5375
817.07857	12853.8375
820.93231	12787.6375
824.78336	12781.3375
828.63172	12758.5375
832.47738	12731.7375
836.32036	12686.1375
840.16066	12679.1375
843.99827	12678.0375
847.8332	12680.5375
851.66546	12726.1375
855.49504	12772.8375
859.32195	12810.1375
863.1462	12841.2375
866.96777	12864.0375
870.78668	12865.5375
874.60293	12879.9375
878.41652	12906.1375
882.22745	12933.2375
886.03573	12956.4375
889.84136	12923.7375
893.64433	12884.8375
897.44466	12827.1375
901.24235	12737.1375
905.0374	12678.1375
908.8298	12605.4375
912.61957	12553.9375
916.40671	12566.0375
920.19121	12652.2375
923.97308	12674.6375
927.75233	12752.4375
931.52895	12777.7375
935.30295	12683.2375
939.07433	12572.2375
942.84309	12521.1375
946.60924	12517.0375
950.37278	12558.0375
954.13371	12593.5375
957.89203	12591.5375
961.64774	12545.9375
965.40086	12470.4375
969.15137	12392.8375
972.89929	12332.5375
976.64461	12259.5375
980.38733	12213.7375
984.12747	12204.8375
987.86502	12257.7375
991.59999	12301.9375
995.33237	12411.8375
999.06217	12528.3375
1002.78939	12681.2375
1006.51404	12840.5375
1010.23611	13032.4375
1013.95561	13246.0375
1017.67255	13301.5375
1021.38692	13193.4375
1025.09872	13040.9375
1028.80796	12859.6375
1032.51465	12799.0375
1036.21877	12807.5375
1039.92035	12871.9375
1043.61937	12908.4375
1047.31584	12904.0375
1051.00976	12951.3375
1054.70114	12990.6375
1058.38998	13028.8375
1062.07627	13109.8375
1065.76003	13214.3375
1069.44126	13343.4375
1073.11995	13545.1375
1076.79611	13692.4375
1080.46974	13828.0375
1084.14085	13878.0375
1087.80943	13954.7375
1091.47549	14024.2375
1095.13903	14003.1375
1098.80005	13897.4375
1102.45857	13724.3375
1106.11456	13647.8375
1109.76805	13617.0375
1113.41903	13688.5375
1117.06751	13842.8375
1120.71348	14091.7375
1124.35696	14356.4375
1127.99793	14697.9375
1131.63641	14888.4375
1135.2724	14855.6375
1138.90589	14705.2375
1142.5369	14565.0375
1146.16542	14348.5375
1149.79145	14136.7375
1153.415	13993.3375
1157.03607	13973.4375
1160.65467	14072.8375
1164.27079	14362.6375
1167.88443	14827.6375
1171.49561	15449.2375
1175.10432	16301.4375
1178.71056	17465.5375
1182.31434	18466.5375
1185.91565	19024.9375
1189.51451	19147.4375
1193.11091	18859.7375
1196.70485	18308.5375
1200.29634	17682.4375
1203.88538	17051.4375
1207.47197	16480.1375
1211.05612	15886.3375
1214.63782	15463.2375
1218.21708	15206.8375
1221.79391	15029.5375
1225.36829	14940.2375
1228.94024	14882.4375
1232.50976	14790.5375
1236.07685	14773.6375
1239.6415	14762.2375
1243.20374	14784.9375
1246.76355	14892.4375
1250.32093	15014.2375
1253.8759	15256.0375
1257.42845	15568.2375
1260.97859	15902.8375
1264.52631	16262.4375
1268.07163	16630.5375
1271.61453	16941.7375
1275.15503	17226.8375
1278.69312	17483.5375
1282.22882	17642.7375
1285.76211	17936.4375
1289.29301	18281.0375
1292.82151	18777.6375
1296.34761	19350.4375
1299.87133	20079.3375
1303.39266	20933.4375
1306.9116	22025.4375
1310.42815	23124.4375
1313.94233	23689.8375
1317.45412	23517.7375
1320.96354	22887.1375
1324.47058	22163.6375
1327.97525	21402.4375
1331.47754	20893.5375
1334.97747	20710.9375
1338.47502	20824.8375
1341.97022	21167.3375
1345.46305	21714.9375
1348.95352	22444.2375
1352.44163	23312.4375
1355.92738	24313.4375
1359.41078	25541.2375
1362.89183	26536.2375
1366.37053	25850.1375
1369.84688	23534.5375
1373.32088	21167.6375
1376.79254	19702.4375
1380.26186	18913.3375
1383.72883	18455.2375
1387.19347	18128.2375
1390.65578	17802.0375
1394.11575	17483.8375
1397.57339	17258.0375
1401.0287	17104.7375
1404.48168	17046.7375
1407.93234	16963.8375
1411.38068	16892.8375
1414.82669	16728.6375
1418.27039	16530.3375
1421.71177	16308.4375
1425.15083	16145.8375
1428.58758	16042.9375
1432.02203	16138.1375
1435.45416	16384.1375
1438.88399	16658.6375
1442.31151	16955.2375
1445.73673	17270.1375
1449.15965	17660.9375
1452.58027	18029.2375
1455.9986	18396.2375
1459.41463	18772.2375
1462.82837	19229.4375
1466.23982	19618.5375
1469.64898	19827.9375
1473.05586	19900.5375
1476.46045	19741.6375
1479.86276	19456.7375
1483.26279	19174.9375
1486.66054	18918.7375
1490.05602	18823.7375
1493.44922	18926.4375
1496.84016	19347.8375
1500.22882	20112.1375
1503.61521	21270.2375
1506.99934	22528.1375
1510.38121	23423.9375
1513.76081	23542.1375
1517.13816	22662.8375
1520.51324	21255.7375
1523.88607	19941.8375
1527.25665	19020.5375
1530.62498	18525.8375
1533.99105	18304.6375
1537.35488	18134.6375
1540.71647	17983.9375
1544.07581	17870.8375
1547.4329	17779.2375
1550.78776	17745.2375
1554.14038	17605.5375
1557.49077	17641.2375
1560.83892	17755.4375
1564.18484	17966.9375
1567.52853	18216.0375
1570.86999	18434.4375
1574.20922	18563.0375
1577.54624	18504.4375
1580.88103	18076.3375
1584.2136	17571.7375
1587.54395	17291.4375
1590.87208	17399.0375
1594.19801	17844.0375
1597.52172	18483.7375
1600.84321	18824.6375
1604.16251	18506.0375
1607.47959	17792.7375
1610.79447	17040.1375
1614.10715	16267.1375
1617.41763	15517.9375
1620.7259	14997.2375
1624.03199	14658.5375
1627.33587	14597.5375
1630.63757	14737.4375
1633.93707	15096.9375
1637.23439	15806.9375
1640.52951	16871.7375
1643.82246	18210.5375
1647.11321	19429.9375
1650.40179	19980.2375
1653.68819	19421.1375
1656.97241	17926.8375
1660.25446	16308.7375
1663.53433	15160.3375
1666.81203	14405.6375
1670.08756	13941.6375
1673.36092	13657.8375
1676.63211	13415.6375
1679.90115	13199.0375
1683.16801	13011.4375
1686.43272	12890.3375
1689.69527	12751.0375
1692.95567	12606.6375
1696.2139	12512.3375
1699.46999	12383.3375
1702.72392	12289.2375
1705.97571	12185.8375
1709.22535	12106.0375
1712.47284	12044.5375
1715.71819	11990.5375
1718.96139	11889.0375
1722.20246	11798.3375
1725.44139	11723.6375
1728.67818	11632.6375
1731.91284	11535.6375
1735.14537	11426.9375
1738.37576	11339.2375
1741.60403	11289.1375
1744.83017	11214.8375
1748.05418	11168.1375
1751.27607	11109.9375
1754.49584	11060.2375
1757.71349	11054.0375
1760.92903	11026.1375
1764.14244	11021.7375
1767.35375	11008.5375
1770.56294	10980.3375
1773.77002	10964.3375
1776.97499	10934.7375
1780.17785	10896.0375
1783.37861	10864.7375
1786.57727	10837.6375
1789.77382	10813.5375
1792.96828	10788.4375
1796.16064	10770.8375
1799.3509	10757.8375
1802.53907	10711.3375
1805.72514	10708.3375
1808.90913	10680.5375
1812.09102	10646.9375
1815.27083	10617.5375
1818.44856	10596.7375
1821.6242	10567.3375
1824.79776	10551.4375
1827.96924	10571.2375
1831.13864	10524.6375
1834.30597	10539.9375
1837.47122	10516.2375
1840.6344	10496.1375
1843.7955	10515.0375
1846.95454	10504.7375
1850.11151	10500.7375
1853.26642	10474.8375
1856.41926	10482.3375
1859.57004	10485.7375
1862.71876	10432.4375
1865.86542	10439.0375
1869.01003	10438.1375
1872.15258	10450.2375
1875.29308	10463.1375
1878.43152	10432.7375
1881.56792	10407.4375
1884.70227	10421.1375
1887.83457	10418.4375
1890.96482	10365.2375
1894.09304	10409.7375
1897.21921	10395.9375
1900.34335	10406.3375
1903.46544	10418.0375
1906.58551	10400.9375
1909.70353	10374.7375
1912.81953	10371.2375
1915.93349	10340.8375
1919.04543	10358.5375
1922.15534	10295.7375
1925.26322	10316.6375
1928.36908	10301.1375
1931.47292	10252.5375
1934.57473	10250.3375
1937.67453	10223.3375
1940.77232	10208.9375
1943.86808	10171.7375
1946.96184	10151.4375
1950.05358	10144.9375
1953.14331	10121.2375
1956.23103	10111.0375
1959.31675	10053.6375
1962.40046	10046.4375
1965.48217	10016.8375
1968.56188	9974.0375
1971.63959	9963.4375
1974.7153	9930.0375
1977.78901	9911.1375
1980.86073	9894.1375
1983.93046	9869.4375
1986.99819	9833.9375
1990.06394	9791.4375
1993.1277	9767.2375
1996.18947	9742.7375
1999.24925	9742.7375
2002.30706	9698.5375
2005.36288	9680.1375
2008.41672	9656.6375
2011.46859	9622.5375
2014.51848	9596.7375
2017.56639	9596.0375
2020.61233	9588.0375
2023.6563	9570.1375
2026.6983	9544.3375
2029.73833	9544.7375
2032.7764	9508.2375
2035.8125	9458.2375
2038.84664	9454.5375
2041.87881	9461.7375
2044.90903	9456.0375
2047.93729	9452.3375
2050.96359	9460.2375
2053.98794	9450.0375
2057.01034	9433.6375
2060.03078	9445.7375
2063.04927	9448.6375
2066.06582	9460.8375
2069.08042	9490.6375
2072.09307	9487.6375
2075.10378	9493.3375
2078.11255	9523.0375
2081.11938	9554.8375
2084.12426	9539.0375
2087.12722	9575.3375
2090.12824	9576.5375
2093.12732	9577.5375
2096.12447	9600.5375
2099.11969	9624.0375
2102.11299	9619.2375
2105.10435	9643.6375
2108.09379	9674.6375
2111.08131	9665.8375
2114.0669	9662.8375
2117.05057	9666.3375
2120.03233	9685.9375
2123.01216	9669.2375
2125.99008	9677.9375
2128.96609	9693.2375
2131.94018	9710.1375
2134.91236	9702.6375
2137.88263	9694.5375
2140.851	9651.0375
2143.81746	9680.3375
2146.78201	9632.9375
2149.74466	9635.9375
2152.7054	9619.4375
2155.66425	9589.0375
2158.6212	9567.2375
2161.57625	9556.6375
2164.52941	9507.0375
2167.48067	9532.2375
2170.43004	9544.1375
2173.37752	9565.6375
2176.32311	9528.4375
2179.26681	9545.1375
2182.20863	9518.4375
2185.14856	9525.7375
2188.08661	9526.7375
2191.02278	9536.6375
2193.95707	9536.3375
2196.88948	9515.3375
2199.82001	9521.4375
2202.74867	9534.8375
2205.67545	9519.3375
2208.60037	9500.4375
2211.52341	9485.3375
2214.44458	9495.8375
2217.36388	9468.1375
2220.28132	9441.1375
2223.1969	9430.5375
2226.11061	9412.2375
2229.02246	9396.4375
2231.93245	9393.0375
2234.84058	9381.4375
2237.74686	9366.2375
2240.65128	9379.7375
2243.55385	9357.9375
2246.45456	9343.7375
2249.35343	9323.9375
2252.25044	9337.7375
2255.14561	9322.0375
2258.03893	9336.3375
2260.93041	9314.0375
2263.82004	9312.8375
2266.70783	9298.8375
2269.59378	9280.9375
2272.4779	9238.0375
2275.36017	9209.4375
2278.24061	9226.9375
2281.11922	9208.7375
2283.996	9188.8375
2286.87094	9148.9375
2289.74405	9162.8375
2292.61534	9147.0375
2295.4848	9142.9375
2298.35243	9132.2375
2301.21824	9124.1375
2304.08223	9149.7375
2306.94439	9153.4375
2309.80474	9151.0375
2312.66327	9138.9375
2315.51999	9136.7375
2318.37489	9127.2375
2321.22797	9124.3375
2324.07925	9109.4375
2326.92871	9116.9375
2329.77637	9096.3375
2332.62222	9080.8375
2335.46626	9086.2375
2338.3085	9089.8375
2341.14893	9076.4375
2343.98756	9073.1375
2346.8244	9066.5375
2349.65943	9093.4375
2352.49267	9067.0375
2355.32411	9081.6375
2358.15376	9088.4375
2360.98161	9093.5375
2363.80768	9088.5375
2366.63195	9095.6375
2369.45444	9095.0375
2372.27514	9047.0375
2375.09405	9061.6375
2377.91118	9076.4375
2380.72652	9056.5375
2383.54009	9044.5375
2386.35187	9074.5375
2389.16188	8987.1375
2391.97011	9010.8375
2394.77657	8988.2375
2397.58125	8973.2375
2400.38416	8952.3375
2403.18529	8940.4375
2405.98466	8921.9375
2408.78226	8943.8375
2411.57809	8946.5375
2414.37216	8923.6375
2417.16446	8926.3375
2419.955	8911.6375
2422.74378	8917.4375
2425.5308	8909.8375
2428.31606	8898.5375
2431.09956	8889.5375
2433.88131	8886.0375
2436.6613	8907.8375
2439.43954	8906.2375
2442.21603	8874.5375
2444.99077	8874.4375
2447.76377	8872.2375
2450.53501	8869.5375
2453.30451	8887.9375
2456.07226	8896.4375
2458.83827	8860.0375
2461.60254	8844.4375
2464.36507	8850.2375
2467.12586	8826.2375
2469.88492	8831.8375
2472.64224	8849.7375
2475.39782	8872.2375
2478.15167	8875.3375
2480.90379	8854.1375
2483.65417	8873.7375
2486.40283	8882.0375
2489.14976	8885.5375
2491.89497	8886.2375
2494.63845	8869.0375
2497.3802	8881.2375
2500.12024	8888.4375
2502.85855	8863.8375
2505.59514	8856.6375
2508.33002	8855.0375
2511.06318	8829.5375
2513.79462	8814.6375
2516.52435	8796.2375
2519.25237	8818.9375
2521.97867	8789.7375
2524.70327	8804.6375
2527.42616	8794.3375
2530.14734	8819.4375
2532.86681	8803.4375
2535.58458	8781.1375
2538.30065	8783.1375
2541.01501	8785.6375
2543.72768	8777.7375
2546.43864	8783.6375
2549.14791	8756.2375
2551.85548	8770.8375
2554.56136	8760.1375
2557.26554	8749.3375
2559.96803	8735.3375
2562.66883	8725.0375
2565.36794	8715.9375
2568.06536	8711.1375
2570.7611	8695.5375
2573.45514	8690.6375
2576.14751	8710.9375
2578.83819	8668.0375
2581.52719	8661.1375
2584.21451	8671.4375
2586.90015	8637.5375
2589.58411	8612.7375
2592.2664	8623.2375
2594.94701	8606.1375
2597.62594	8633.7375
2600.30321	8623.5375
2602.9788	8627.6375
2605.65273	8617.2375
2608.32498	8622.7375
2610.99557	8580.5375
2613.66449	8575.4375
2616.33175	8571.1375
2618.99734	8585.5375
2621.66128	8586.7375
2624.32355	8572.6375
2626.98416	8565.4375
2629.64311	8579.3375
2632.30041	8577.1375
2634.95605	8557.7375
2637.61004	8533.2375
2640.26238	8543.8375
2642.91306	8527.8375
2645.56209	8545.6375
2648.20948	8535.9375
2650.85521	8548.0375
2653.4993	8544.4375
2656.14175	8507.4375
2658.78255	8516.4375
2661.42171	8561.6375
2664.05923	8554.0375
2666.6951	8557.9375
2669.32934	8589.8375
2671.96194	8600.2375
2674.59291	8593.1375
2677.22224	8598.4375
2679.84993	8603.5375
2682.476	8590.4375
2685.10043	8600.1375
2687.72324	8577.9375
2690.34441	8592.6375
2692.96396	8597.2375
2695.58188	8633.6375
2698.19818	8616.1375
2700.81285	8632.0375
2703.4259	8605.7375
2706.03733	8648.2375
2708.64714	8650.4375
2711.25533	8658.4375
2713.86191	8640.7375
2716.46687	8649.8375
2719.07021	8658.6375
2721.67194	8667.7375
2724.27206	8686.9375
2726.87057	8696.7375
2729.46747	8682.3375
2732.06276	8692.9375
2734.65644	8728.6375
2737.24852	8724.6375
2739.83899	8676.1375
2742.42786	8670.7375
2745.01513	8667.9375
2747.60079	8671.7375
2750.18486	8665.2375
2752.76733	8648.9375
2755.3482	8674.7375
2757.92747	8652.6375
2760.50515	8660.8375
2763.08123	8657.9375
2765.65573	8633.6375
2768.22863	8622.0375
2770.79994	8636.1375
2773.36967	8643.6375
2775.9378	8621.5375
2778.50435	8617.0375
2781.06932	8608.3375
2783.6327	8582.7375
2786.1945	8598.5375
2788.75471	8580.4375
2791.31335	8570.4375
2793.87041	8568.5375
2796.42589	8554.2375
2798.97979	8527.8375
2801.53212	8544.4375
2804.08288	8516.6375
2806.63206	8512.4375
2809.17967	8493.2375
2811.72571	8478.3375
2814.27018	8452.3375
2816.81308	8430.6375
2819.35442	8411.2375
2821.89419	8396.0375
2824.43239	8419.0375
2826.96904	8408.7375
2829.50412	8403.6375
2832.03763	8381.5375
2834.56959	8394.5375
2837.1	8376.1375
2839.62884	8404.7375
2842.15613	8380.9375
2844.68186	8401.4375
2847.20604	8414.2375
2849.72867	8401.2375
2852.24974	8395.1375
2854.76927	8401.1375
2857.28724	8388.3375
2859.80367	8370.5375
2862.31855	8390.4375
2864.83189	8375.4375
2867.34368	8349.6375
2869.85393	8379.4375
2872.36264	8368.0375
2874.8698	8383.4375
2877.37543	8385.3375
2879.87952	8378.9375
2882.38207	8397.4375
2884.88308	8415.5375
2887.38256	8404.4375
2889.88051	8388.5375
2892.37692	8414.7375
2894.8718	8418.0375
2897.36515	8462.2375
2899.85698	8462.6375
2902.34727	8461.3375
2904.83604	8501.0375
2907.32328	8522.2375
2909.809	8514.1375
2912.29319	8517.2375
2914.77587	8523.3375
2917.25702	8537.6375
2919.73665	8531.9375
2922.21476	8532.6375
2924.69136	8551.1375
2927.16644	8553.2375
2929.64	8568.2375
2932.11205	8545.9375
2934.58258	8527.1375
2937.05161	8526.8375
2939.51912	8521.5375
2941.98513	8494.3375
2944.44962	8486.2375
2946.91261	8459.4375
2949.37409	8489.4375
2951.83407	8504.4375
2954.29254	8476.3375
2956.74951	8496.5375
2959.20498	8487.6375
2961.65895	8492.2375
2964.11142	8486.0375
2966.56239	8467.2375
2969.01186	8466.9375
2971.45984	8451.1375
2973.90632	8443.2375
2976.35131	8439.0375
2978.7948	8413.1375
2981.23681	8406.1375
2983.67732	8412.8375
2986.11635	8378.1375
2988.55388	8360.7375
2990.98993	8364.9375
2993.4245	8361.4375
2995.85758	8344.0375
2998.28917	8324.1375
3000.71928	8327.8375
3003.14791	8307.0375
3005.57506	8296.7375
3008.00073	8280.7375
3010.42493	8277.7375
3012.84764	8271.0375
3015.26888	8275.7375
3017.68865	8264.8375
3020.10694	8251.7375
3022.52376	8225.7375
3024.9391	8232.5375
3027.35298	8242.9375
3029.76539	8248.0375
3032.17632	8241.7375
3034.5858	8217.6375
3036.9938	8214.0375
3039.40034	8206.4375
3041.80542	8232.0375
3044.20903	8226.8375
3046.61118	8229.0375
3049.01187	8191.9375
3051.4111	8182.3375
3053.80888	8181.5375
3056.20519	8168.2375
3058.60005	8173.2375
3060.99345	8159.5375
3063.3854	8163.1375
3065.7759	8108.2375
3068.16494	8118.7375
3070.55254	8115.0375
3072.93868	8094.5375
3075.32338	8073.9375
3077.70662	8084.6375
3080.08842	8048.8375
3082.46878	8058.8375
3084.84769	8038.4375
3087.22515	8043.1375
3089.60118	8059.1375
3091.97576	8062.7375
3094.3489	8060.5375
3096.72061	8079.9375
3099.09087	8089.5375
3101.4597	8082.6375
3103.82709	8117.4375
3106.19305	8097.5375
3108.55757	8120.7375
3110.92066	8088.4375
3113.28232	8081.8375
3115.64255	8066.2375
3118.00134	8043.4375
3120.35871	8039.3375
3122.71466	8049.0375
3125.06917	8031.4375
3127.42226	7985.0375
3129.77393	8003.3375
3132.12417	8018.4375
3134.47299	8000.9375
3136.82039	8031.0375
3139.16636	8044.1375
3141.51092	8023.7375
3143.85406	8029.5375
3146.19579	8027.5375
3148.53609	8038.0375
3150.87499	8074.7375
3153.21246	8074.3375
3155.54853	8086.5375
3157.88318	8089.1375
3160.21642	8105.2375
3162.54826	8118.1375
3164.87868	8116.9375
3167.2077	8123.7375
3169.5353	8114.5375
3171.86151	8131.6375
3174.18631	8096.8375
3176.5097	8125.6375
3178.83169	8097.7375
3181.15228	8119.6375
3183.47147	8104.6375
3185.78926	8103.6375
3188.10565	8090.7375
3190.42065	8085.1375
3192.73424	8102.7375
3195.04645	8101.9375
3197.35725	8115.4375
3199.66667	8108.8375
3201.97469	8125.2375
3204.28132	8139.7375
3206.58656	8157.5375
3208.8904	8147.7375
3211.19287	8175.6375
3213.49394	8179.4375
3215.79363	8180.9375
3218.09193	8176.1375
3220.38884	8177.9375
3222.68438	8194.3375
3224.97853	8192.4375
3227.2713	8196.7375
3229.56269	8182.2375
3231.8527	8202.0375
3234.14133	8183.6375
3236.42858	8154.4375
3238.71446	8166.4375
3240.99896	8157.0375
3243.28209	8137.6375
3245.56384	8116.3375
3247.84423	8121.2375
3250.12324	8135.4375
3252.40088	8147.5375
3254.67715	8118.7375
3256.95205	8099.0375
3259.22558	8110.5375
3261.49775	8125.2375
3263.76855	8141.6375
3266.03799	8141.2375
3268.30606	8159.2375
3270.57277	8138.5375
3272.83812	8112.9375
3275.10211	8108.8375
3277.36474	8071.8375
3279.62601	8098.8375
3281.88593	8092.0375
3284.14448	8115.7375
3286.40168	8078.1375
3288.65753	8120.6375
3290.91202	8118.4375
3293.16516	8085.5375
3295.41695	8090.4375
3297.66738	8052.2375
3299.91647	8014.5375
3302.16421	7972.3375
3304.4106	7947.1375
3306.65564	7926.2375
3308.89933	7876.8375
3311.14169	7852.8375
3313.38269	7774.0375
3315.62236	7750.8375
3317.86068	7713.9375
3320.09766	7678.7375
3322.3333	7641.9375
3324.5676	7640.5375
3326.80056	7554.2375
3329.03219	7507.3375
3331.26248	3.9375
3333.49143	1.0375
3335.71905	-0.9625
