Data from AgNPs_APTES_FTO_UA_100uM_CRN_0uM_R6G_10uM_Scan_RamanShift__39__16-28-12-972.txt Node

Date: Mon Jul 11 16:28:12 BST 2022
User: TCL
Spectrometer: QEP01345
Trigger mode: 4
Integration Time (sec): 7.000000E0
Scans to average: 10
Electric dark correction enabled: true
Nonlinearity correction enabled: false
Boxcar width: 0
XAxis mode: Raman Shifts
Number of Pixels in Spectrum: 1044
>>>>>Begin Spectral Data<<<<<
46.04893	0.875
50.45542	0.175
54.85868	0.575
59.25871	-1.625
63.6555	41.575
68.04907	42.075
72.43941	45.875
76.82654	48.275
81.21044	52.875
85.59113	55.875
89.96862	56.875
94.34289	55.075
98.71396	61.775
103.08183	60.775
107.4465	64.575
111.80798	64.275
116.16626	66.875
120.52136	67.675
124.87327	75.575
129.222	74.675
133.56755	77.475
137.90993	84.275
142.24913	96.975
146.58517	107.075
150.91804	125.575
155.24774	152.475
159.57429	182.375
163.89768	237.375
168.21792	312.775
172.53501	426.575
176.84895	595.275
181.15975	828.475
185.46741	1158.975
189.77193	1591.175
194.07331	2131.575
198.37157	2734.575
202.6667	3404.575
206.9587	4044.275
211.24758	4708.675
215.53334	5440.875
219.81599	6284.275
224.09553	7254.075
228.37195	8337.375
232.64527	9429.675
236.91549	10521.375
241.18261	11349.075
245.44663	11971.375
249.70755	12370.875
253.96539	12634.775
258.22014	12807.175
262.4718	12998.675
266.72039	13047.175
270.96589	13005.275
275.20832	12715.275
279.44768	12299.275
283.68397	11907.375
287.91719	11777.175
292.14735	12038.375
296.37445	12780.675
300.59849	13959.975
304.81948	15235.575
309.03742	16169.575
313.25231	16037.675
317.46415	14678.075
321.67296	12769.675
325.87872	11303.275
330.08145	10683.475
334.28114	10732.575
338.47781	11120.575
342.67145	11708.675
346.86207	12714.175
351.04966	14222.475
355.23424	15755.575
359.4158	16798.375
363.59435	17192.575
367.76989	17201.775
371.94243	17012.775
376.11196	16776.175
380.27849	16516.075
384.44203	16061.875
388.60257	15519.575
392.76012	15141.475
396.91468	15226.675
401.06626	15650.275
405.21485	15827.375
409.36047	14901.075
413.50311	13274.675
417.64277	11836.775
421.77947	10974.375
425.9132	10586.575
430.04396	10457.175
434.17176	10530.675
438.2966	10819.675
442.41849	11357.575
446.53742	11857.375
450.6534	12235.775
454.76644	12328.175
458.87653	12170.775
462.98368	11900.175
467.08789	11496.575
471.18916	11048.875
475.2875	10583.675
479.38291	10217.675
483.4754	10032.375
487.56496	9987.575
491.6516	9987.875
495.73531	10050.175
499.81612	10104.375
503.89401	10353.975
507.96899	10710.575
512.04106	11291.475
516.11023	11930.375
520.1765	12371.075
524.23987	12372.275
528.30034	12007.875
532.35792	11557.375
536.41261	11005.375
540.46441	10391.075
544.51333	10021.875
548.55936	9992.575
552.60252	10248.575
556.64279	10615.975
560.6802	10779.275
564.71473	11332.075
568.7464	12333.875
572.7752	12402.975
576.80114	11143.675
580.82422	10063.775
584.84444	9706.475
588.86181	9724.775
592.87633	9932.675
596.888	10326.975
600.89682	11406.575
604.9028	15254.875
608.90594	24718.975
612.90624	34780.775
616.90371	30068.275
620.89834	17326.975
624.89015	12557.875
628.87913	12121.875
632.86528	12871.475
636.84862	13494.575
640.82913	12866.175
644.80683	11464.775
648.78172	10446.675
652.75379	10368.375
656.72306	11139.675
660.68952	11843.275
664.65319	10986.175
668.61405	9703.175
672.57211	9199.875
676.52738	9194.075
680.47986	9151.475
684.42955	8994.775
688.37646	8975.075
692.32058	9013.075
696.26192	9172.075
700.20048	9386.375
704.13626	9406.775
708.06928	9211.975
711.99952	9045.475
715.927	9092.875
719.85171	9325.675
723.77365	9529.675
727.69284	9487.275
731.60928	9373.375
735.52295	9237.475
739.43388	9192.175
743.34206	9172.675
747.24749	9174.275
751.15017	9202.775
755.05012	9549.275
758.94733	10850.575
762.8418	13891.675
766.73354	18476.275
770.62254	22750.175
774.50882	25109.375
778.39237	23659.575
782.27321	18537.575
786.15132	13594.175
790.02671	10983.375
793.89938	9913.375
797.76935	9532.875
801.6366	9482.475
805.50115	9683.775
809.36299	9890.375
813.22213	9938.975
817.07857	9765.775
820.93231	9529.275
824.78336	9343.675
828.63172	9216.575
832.47738	9101.475
836.32036	8910.975
840.16066	8712.975
843.99827	8611.475
847.8332	8536.675
851.66546	8550.675
855.49504	8574.675
859.32195	8561.475
863.1462	8515.575
866.96777	8534.975
870.78668	8687.575
874.60293	8933.875
878.41652	9301.175
882.22745	9662.975
886.03573	9898.775
889.84136	9863.275
893.64433	9637.975
897.44466	9385.375
901.24235	9084.375
905.0374	8774.775
908.8298	8463.175
912.61957	8265.775
916.40671	8196.875
920.19121	8204.075
923.97308	8330.975
927.75233	8667.475
931.52895	9031.475
935.30295	8807.475
939.07433	8213.775
942.84309	7793.475
946.60924	7509.275
950.37278	7424.175
954.13371	7405.375
957.89203	7352.075
961.64774	7362.475
965.40086	7315.475
969.15137	7259.175
972.89929	7225.875
976.64461	7225.675
980.38733	7241.375
984.12747	7253.875
987.86502	7300.075
991.59999	7379.375
995.33237	7532.375
999.06217	7828.575
1002.78939	8116.275
1006.51404	8535.575
1010.23611	8938.675
1013.95561	9170.075
1017.67255	9162.375
1021.38692	8979.575
1025.09872	8667.275
1028.80796	8387.875
1032.51465	8285.475
1036.21877	8294.875
1039.92035	8348.975
1043.61937	8401.975
1047.31584	8397.575
1051.00976	8335.375
1054.70114	8279.275
1058.38998	8231.775
1062.07627	8303.675
1065.76003	8366.375
1069.44126	8447.275
1073.11995	8630.475
1076.79611	8995.575
1080.46974	9500.175
1084.14085	10197.375
1087.80943	10736.975
1091.47549	10740.675
1095.13903	10156.775
1098.80005	9391.875
1102.45857	8990.875
1106.11456	9000.075
1109.76805	9429.675
1113.41903	10234.975
1117.06751	11399.475
1120.71348	12972.775
1124.35696	14786.775
1127.99793	15906.475
1131.63641	15309.675
1135.2724	13800.975
1138.90589	12510.375
1142.5369	11574.575
1146.16542	10768.475
1149.79145	10122.475
1153.415	9742.575
1157.03607	9639.675
1160.65467	9812.575
1164.27079	10378.175
1167.88443	11354.975
1171.49561	13057.375
1175.10432	16105.975
1178.71056	20148.075
1182.31434	23196.475
1185.91565	23668.575
1189.51451	22238.975
1193.11091	19911.175
1196.70485	17692.775
1200.29634	16453.875
1203.88538	15307.875
1207.47197	13631.275
1211.05612	12186.575
1214.63782	11188.175
1218.21708	10529.075
1221.79391	10135.075
1225.36829	9918.075
1228.94024	9801.475
1232.50976	9749.875
1236.07685	9743.675
1239.6415	9915.675
1243.20374	10044.575
1246.76355	10176.575
1250.32093	10382.575
1253.8759	10680.875
1257.42845	11202.975
1260.97859	11831.375
1264.52631	12561.975
1268.07163	13234.775
1271.61453	13691.475
1275.15503	13805.975
1278.69312	13704.775
1282.22882	13735.475
1285.76211	14391.475
1289.29301	15313.275
1292.82151	16249.375
1296.34761	17360.975
1299.87133	19204.175
1303.39266	22515.575
1306.9116	27398.675
1310.42815	31804.075
1313.94233	32428.275
1317.45412	29127.675
1320.96354	24570.075
1324.47058	20499.775
1327.97525	17624.975
1331.47754	16112.275
1334.97747	15805.875
1338.47502	16442.675
1341.97022	18034.475
1345.46305	20729.575
1348.95352	24306.175
1352.44163	28701.675
1355.92738	34755.575
1359.41078	42894.375
1362.89183	47825.475
1366.37053	43138.675
1369.84688	33604.175
1373.32088	25608.575
1376.79254	20609.975
1380.26186	17807.375
1383.72883	16076.375
1387.19347	14701.475
1390.65578	13303.675
1394.11575	12297.775
1397.57339	11749.075
1401.0287	11476.175
1404.48168	11382.575
1407.93234	11374.075
1411.38068	11553.775
1414.82669	11781.975
1418.27039	11843.275
1421.71177	11687.975
1425.15083	11469.075
1428.58758	11471.075
1432.02203	11801.675
1435.45416	12044.375
1438.88399	12080.975
1442.31151	12130.275
1445.73673	12293.275
1449.15965	12494.475
1452.58027	12455.575
1455.9986	12351.275
1459.41463	12361.875
1462.82837	12625.675
1466.23982	13114.175
1469.64898	13495.475
1473.05586	13621.775
1476.46045	13693.975
1479.86276	14014.975
1483.26279	14583.475
1486.66054	15402.475
1490.05602	16649.875
1493.44922	18597.275
1496.84016	21816.175
1500.22882	26957.175
1503.61521	33885.675
1506.99934	40915.575
1510.38121	45414.875
1513.76081	44733.775
1517.13816	38688.275
1520.51324	30411.775
1523.88607	23601.075
1527.25665	19463.075
1530.62498	17324.175
1533.99105	16152.375
1537.35488	15497.675
1540.71647	15321.075
1544.07581	15585.575
1547.4329	15917.975
1550.78776	16250.075
1554.14038	16340.675
1557.49077	16385.375
1560.83892	16766.675
1564.18484	17633.575
1567.52853	18956.075
1570.86999	20150.875
1574.20922	20785.375
1577.54624	20237.875
1580.88103	18005.675
1584.2136	15415.075
1587.54395	13905.875
1590.87208	13710.775
1594.19801	14727.675
1597.52172	16239.975
1600.84321	16834.375
1604.16251	16150.975
1607.47959	14949.275
1610.79447	13547.875
1614.10715	12224.275
1617.41763	11179.175
1620.7259	10589.575
1624.03199	10341.275
1627.33587	10409.575
1630.63757	10790.175
1633.93707	11605.675
1637.23439	13045.275
1640.52951	15424.975
1643.82246	19020.275
1647.11321	23389.075
1650.40179	26210.875
1653.68819	24901.375
1656.97241	20358.175
1660.25446	15784.875
1663.53433	12653.875
1666.81203	10884.575
1670.08756	9791.075
1673.36092	9134.475
1676.63211	8657.775
1679.90115	8281.975
1683.16801	7993.575
1686.43272	7768.575
1689.69527	7607.475
1692.95567	7447.275
1696.2139	7357.875
1699.46999	7241.975
1702.72392	7164.575
1705.97571	7106.575
1709.22535	7084.475
1712.47284	7071.175
1715.71819	7040.475
1718.96139	6993.275
1722.20246	6905.475
1725.44139	6772.375
1728.67818	6669.775
1731.91284	6535.775
1735.14537	6414.075
1738.37576	6371.575
1741.60403	6317.775
1744.83017	6268.675
1748.05418	6233.375
1751.27607	6183.675
1754.49584	6130.175
1757.71349	6110.875
1760.92903	6101.375
1764.14244	6066.875
1767.35375	6033.875
1770.56294	5970.075
1773.77002	5930.575
1776.97499	5878.375
1780.17785	5832.575
1783.37861	5808.275
1786.57727	5789.775
1789.77382	5766.975
1792.96828	5736.975
1796.16064	5721.775
1799.3509	5722.275
1802.53907	5695.275
1805.72514	5663.675
1808.90913	5632.675
1812.09102	5590.575
1815.27083	5556.275
1818.44856	5558.875
1821.6242	5532.875
1824.79776	5497.475
1827.96924	5473.875
1831.13864	5471.275
1834.30597	5458.875
1837.47122	5459.275
1840.6344	5469.975
1843.7955	5420.275
1846.95454	5411.875
1850.11151	5375.075
1853.26642	5374.375
1856.41926	5358.075
1859.57004	5365.475
1862.71876	5356.575
1865.86542	5350.675
1869.01003	5349.975
1872.15258	5355.575
1875.29308	5356.675
1878.43152	5347.775
1881.56792	5339.675
1884.70227	5323.675
1887.83457	5323.775
1890.96482	5313.975
1894.09304	5320.875
1897.21921	5294.575
1900.34335	5303.975
1903.46544	5299.275
1906.58551	5305.175
1909.70353	5302.075
1912.81953	5296.875
1915.93349	5290.775
1919.04543	5275.675
1922.15534	5239.875
1925.26322	5204.775
1928.36908	5202.375
1931.47292	5182.175
1934.57473	5165.475
1937.67453	5137.375
1940.77232	5123.175
1943.86808	5100.175
1946.96184	5063.875
1950.05358	5063.775
1953.14331	5064.475
1956.23103	5035.875
1959.31675	5010.475
1962.40046	5018.275
1965.48217	5008.675
1968.56188	5024.975
1971.63959	4994.675
1974.7153	4996.275
1977.78901	4972.175
1980.86073	4959.575
1983.93046	4931.075
1986.99819	4890.575
1990.06394	4855.575
1993.1277	4839.975
1996.18947	4821.275
1999.24925	4802.575
2002.30706	4776.875
2005.36288	4758.775
2008.41672	4733.775
2011.46859	4728.375
2014.51848	4713.975
2017.56639	4684.275
2020.61233	4664.175
2023.6563	4674.575
2026.6983	4646.875
2029.73833	4634.575
2032.7764	4621.875
2035.8125	4623.675
2038.84664	4604.875
2041.87881	4601.675
2044.90903	4615.075
2047.93729	4579.375
2050.96359	4565.275
2053.98794	4554.375
2057.01034	4541.775
2060.03078	4549.875
2063.04927	4516.575
2066.06582	4524.275
2069.08042	4531.275
2072.09307	4503.675
2075.10378	4508.975
2078.11255	4511.175
2081.11938	4524.275
2084.12426	4511.375
2087.12722	4502.775
2090.12824	4502.575
2093.12732	4491.375
2096.12447	4500.375
2099.11969	4509.175
2102.11299	4516.575
2105.10435	4502.275
2108.09379	4493.375
2111.08131	4494.575
2114.0669	4501.475
2117.05057	4510.075
2120.03233	4516.275
2123.01216	4550.175
2125.99008	4534.175
2128.96609	4536.575
2131.94018	4550.975
2134.91236	4535.975
2137.88263	4535.875
2140.851	4525.775
2143.81746	4524.975
2146.78201	4501.375
2149.74466	4505.475
2152.7054	4479.275
2155.66425	4471.375
2158.6212	4459.775
2161.57625	4453.375
2164.52941	4454.375
2167.48067	4435.775
2170.43004	4441.375
2173.37752	4451.075
2176.32311	4451.075
2179.26681	4429.875
2182.20863	4455.075
2185.14856	4434.875
2188.08661	4436.675
2191.02278	4434.575
2193.95707	4416.375
2196.88948	4407.475
2199.82001	4389.175
2202.74867	4380.775
2205.67545	4387.275
2208.60037	4384.175
2211.52341	4392.575
2214.44458	4381.575
2217.36388	4354.675
2220.28132	4349.775
2223.1969	4322.075
2226.11061	4316.075
2229.02246	4294.675
2231.93245	4292.375
2234.84058	4281.775
2237.74686	4278.275
2240.65128	4266.275
2243.55385	4274.975
2246.45456	4282.675
2249.35343	4261.975
2252.25044	4276.675
2255.14561	4293.975
2258.03893	4295.475
2260.93041	4306.275
2263.82004	4306.375
2266.70783	4304.775
2269.59378	4287.375
2272.4779	4283.575
2275.36017	4267.375
2278.24061	4250.475
2281.11922	4247.775
2283.996	4224.775
2286.87094	4219.475
2289.74405	4180.975
2292.61534	4164.175
2295.4848	4149.175
2298.35243	4145.175
2301.21824	4134.375
2304.08223	4133.375
2306.94439	4137.675
2309.80474	4131.975
2312.66327	4120.475
2315.51999	4119.375
2318.37489	4123.275
2321.22797	4100.675
2324.07925	4104.875
2326.92871	4099.275
2329.77637	4091.475
2332.62222	4085.275
2335.46626	4079.475
2338.3085	4096.375
2341.14893	4090.375
2343.98756	4098.475
2346.8244	4092.975
2349.65943	4104.275
2352.49267	4110.775
2355.32411	4138.575
2358.15376	4151.375
2360.98161	4180.475
2363.80768	4206.475
2366.63195	4243.575
2369.45444	4235.175
2372.27514	4246.175
2375.09405	4236.775
2377.91118	4227.675
2380.72652	4207.575
2383.54009	4150.075
2386.35187	4150.275
2389.16188	4112.475
2391.97011	4084.475
2394.77657	4046.675
2397.58125	4034.075
2400.38416	3998.875
2403.18529	3996.475
2405.98466	3983.675
2408.78226	3966.975
2411.57809	3951.875
2414.37216	3955.775
2417.16446	3944.175
2419.955	3931.375
2422.74378	3937.275
2425.5308	3944.175
2428.31606	3939.475
2431.09956	3953.475
2433.88131	3941.075
2436.6613	3954.175
2439.43954	3952.675
2442.21603	3945.675
2444.99077	3947.275
2447.76377	3975.475
2450.53501	3976.475
2453.30451	3997.475
2456.07226	3989.975
2458.83827	3988.875
2461.60254	3982.575
2464.36507	3969.975
2467.12586	3966.975
2469.88492	3965.475
2472.64224	3970.375
2475.39782	3998.575
2478.15167	4011.375
2480.90379	4022.375
2483.65417	4059.875
2486.40283	4086.375
2489.14976	4086.775
2491.89497	4109.175
2494.63845	4109.675
2497.3802	4111.075
2500.12024	4087.675
2502.85855	4063.675
2505.59514	4058.675
2508.33002	3996.075
2511.06318	3954.075
2513.79462	3919.075
2516.52435	3874.475
2519.25237	3855.875
2521.97867	3822.775
2524.70327	3809.975
2527.42616	3803.475
2530.14734	3788.775
2532.86681	3797.075
2535.58458	3803.975
2538.30065	3792.675
2541.01501	3801.975
2543.72768	3799.975
2546.43864	3808.575
2549.14791	3818.575
2551.85548	3820.575
2554.56136	3815.775
2557.26554	3813.375
2559.96803	3812.375
2562.66883	3807.975
2565.36794	3787.375
2568.06536	3786.475
2570.7611	3781.275
2573.45514	3763.275
2576.14751	3770.075
2578.83819	3757.175
2581.52719	3744.175
2584.21451	3727.975
2586.90015	3734.375
2589.58411	3725.875
2592.2664	3707.675
2594.94701	3713.175
2597.62594	3702.875
2600.30321	3698.175
2602.9788	3706.175
2605.65273	3707.375
2608.32498	3698.075
2610.99557	3691.175
2613.66449	3705.275
2616.33175	3713.475
2618.99734	3709.075
2621.66128	3686.975
2624.32355	3707.775
2626.98416	3679.375
2629.64311	3660.875
2632.30041	3668.975
2634.95605	3640.875
2637.61004	3633.375
2640.26238	3624.275
2642.91306	3596.875
2645.56209	3597.575
2648.20948	3593.975
2650.85521	3614.475
2653.4993	3606.275
2656.14175	3599.975
2658.78255	3615.075
2661.42171	3628.675
2664.05923	3641.175
2666.6951	3643.975
2669.32934	3667.375
2671.96194	3672.275
2674.59291	3685.275
2677.22224	3665.775
2679.84993	3686.475
2682.476	3668.675
2685.10043	3683.275
2687.72324	3668.775
2690.34441	3676.475
2692.96396	3656.075
2695.58188	3676.775
2698.19818	3668.775
2700.81285	3667.875
2703.4259	3674.375
2706.03733	3675.775
2708.64714	3682.975
2711.25533	3703.975
2713.86191	3711.475
2716.46687	3718.275
2719.07021	3715.975
2721.67194	3728.275
2724.27206	3715.575
2726.87057	3718.375
2729.46747	3713.775
2732.06276	3693.375
2734.65644	3698.275
2737.24852	3701.575
2739.83899	3679.475
2742.42786	3653.875
2745.01513	3651.475
2747.60079	3654.475
2750.18486	3645.275
2752.76733	3629.075
2755.3482	3602.875
2757.92747	3615.875
2760.50515	3615.775
2763.08123	3600.775
2765.65573	3590.675
2768.22863	3603.375
2770.79994	3584.775
2773.36967	3590.575
2775.9378	3596.375
2778.50435	3586.275
2781.06932	3583.775
2783.6327	3596.575
2786.1945	3598.475
2788.75471	3596.975
2791.31335	3602.075
2793.87041	3601.675
2796.42589	3606.275
2798.97979	3602.675
2801.53212	3617.375
2804.08288	3635.275
2806.63206	3612.675
2809.17967	3625.375
2811.72571	3625.275
2814.27018	3653.575
2816.81308	3639.375
2819.35442	3659.075
2821.89419	3669.375
2824.43239	3694.875
2826.96904	3697.575
2829.50412	3713.275
2832.03763	3693.375
2834.56959	3696.775
2837.1	3720.375
2839.62884	3720.175
2842.15613	3740.075
2844.68186	3768.475
2847.20604	3791.075
2849.72867	3815.475
2852.24974	3840.975
2854.76927	3826.875
2857.28724	3849.875
2859.80367	3866.775
2862.31855	3866.475
2864.83189	3870.875
2867.34368	3876.775
2869.85393	3875.275
2872.36264	3876.075
2874.8698	3877.175
2877.37543	3872.375
2879.87952	3865.475
2882.38207	3849.275
2884.88308	3851.475
2887.38256	3840.475
2889.88051	3838.075
2892.37692	3836.675
2894.8718	3824.975
2897.36515	3838.275
2899.85698	3847.675
2902.34727	3854.975
2904.83604	3860.875
2907.32328	3873.475
2909.809	3855.275
2912.29319	3852.175
2914.77587	3838.675
2917.25702	3844.875
2919.73665	3830.575
2922.21476	3834.475
2924.69136	3815.075
2927.16644	3815.575
2929.64	3774.375
2932.11205	3790.275
2934.58258	3768.275
2937.05161	3759.175
2939.51912	3733.275
2941.98513	3731.075
2944.44962	3700.675
2946.91261	3684.075
2949.37409	3657.475
2951.83407	3643.075
2954.29254	3651.875
2956.74951	3629.475
2959.20498	3624.175
2961.65895	3605.775
2964.11142	3613.575
2966.56239	3610.775
2969.01186	3585.475
2971.45984	3574.375
2973.90632	3559.575
2976.35131	3554.675
2978.7948	3552.675
2981.23681	3552.875
2983.67732	3529.275
2986.11635	3509.375
2988.55388	3511.575
2990.98993	3506.975
2993.4245	3502.675
2995.85758	3497.675
2998.28917	3481.275
3000.71928	3483.775
3003.14791	3473.775
3005.57506	3476.075
3008.00073	3455.775
3010.42493	3464.175
3012.84764	3473.875
3015.26888	3468.175
3017.68865	3447.475
3020.10694	3438.075
3022.52376	3437.275
3024.9391	3432.375
3027.35298	3444.275
3029.76539	3424.375
3032.17632	3430.975
3034.5858	3405.375
3036.9938	3403.775
3039.40034	3401.475
3041.80542	3382.075
3044.20903	3383.975
3046.61118	3377.475
3049.01187	3369.375
3051.4111	3361.775
3053.80888	3373.075
3056.20519	3357.475
3058.60005	3346.175
3060.99345	3337.275
3063.3854	3336.375
3065.7759	3331.675
3068.16494	3313.275
3070.55254	3314.575
3072.93868	3322.175
3075.32338	3298.875
3077.70662	3306.275
3080.08842	3268.875
3082.46878	3279.875
3084.84769	3260.775
3087.22515	3260.575
3089.60118	3252.675
3091.97576	3260.675
3094.3489	3265.475
3096.72061	3256.575
3099.09087	3267.275
3101.4597	3272.975
3103.82709	3270.175
3106.19305	3273.175
3108.55757	3270.875
3110.92066	3253.575
3113.28232	3269.775
3115.64255	3248.375
3118.00134	3245.475
3120.35871	3255.175
3122.71466	3250.575
3125.06917	3259.475
3127.42226	3240.775
3129.77393	3248.075
3132.12417	3242.575
3134.47299	3259.375
3136.82039	3264.775
3139.16636	3280.575
3141.51092	3275.875
3143.85406	3263.975
3146.19579	3275.875
3148.53609	3285.475
3150.87499	3290.575
3153.21246	3292.375
3155.54853	3323.775
3157.88318	3314.075
3160.21642	3337.675
3162.54826	3325.075
3164.87868	3316.575
3167.2077	3333.275
3169.5353	3337.875
3171.86151	3348.075
3174.18631	3340.775
3176.5097	3340.675
3178.83169	3341.475
3181.15228	3351.375
3183.47147	3335.675
3185.78926	3342.375
3188.10565	3332.575
3190.42065	3353.675
3192.73424	3371.675
3195.04645	3364.475
3197.35725	3364.175
3199.66667	3381.775
3201.97469	3384.175
3204.28132	3403.375
3206.58656	3402.675
3208.8904	3403.675
3211.19287	3415.575
3213.49394	3424.375
3215.79363	3436.175
3218.09193	3434.075
3220.38884	3445.175
3222.68438	3455.675
3224.97853	3450.475
3227.2713	3442.775
3229.56269	3445.975
3231.8527	3468.675
3234.14133	3441.875
3236.42858	3443.775
3238.71446	3437.575
3240.99896	3425.975
3243.28209	3432.175
3245.56384	3427.575
3247.84423	3427.875
3250.12324	3426.775
3252.40088	3416.575
3254.67715	3428.475
3256.95205	3419.475
3259.22558	3418.575
3261.49775	3415.275
3263.76855	3419.675
3266.03799	3417.675
3268.30606	3432.775
3270.57277	3414.875
3272.83812	3401.175
3275.10211	3406.175
3277.36474	3404.675
3279.62601	3413.275
3281.88593	3408.775
3284.14448	3407.075
3286.40168	3409.075
3288.65753	3406.475
3290.91202	3397.775
3293.16516	3399.675
3295.41695	3388.375
3297.66738	3379.875
3299.91647	3368.375
3302.16421	3341.375
3304.4106	3337.475
3306.65564	3312.975
3308.89933	3289.475
3311.14169	3264.375
3313.38269	3251.575
3315.62236	3226.975
3317.86068	3206.275
3320.09766	3168.475
3322.3333	3155.375
3324.5676	3157.375
3326.80056	3100.975
3329.03219	3082.475
3331.26248	1.575
3333.49143	-0.225
3335.71905	-1.525
