Data from AgNPs_APTES_FTO_UA_100uM_CRN_0uM_R6G_10uM_Scan_RamanShift__30__16-17-42-961.txt Node

Date: Mon Jul 11 16:17:42 BST 2022
User: TCL
Spectrometer: QEP01345
Trigger mode: 4
Integration Time (sec): 7.000000E0
Scans to average: 10
Electric dark correction enabled: true
Nonlinearity correction enabled: false
Boxcar width: 0
XAxis mode: Raman Shifts
Number of Pixels in Spectrum: 1044
>>>>>Begin Spectral Data<<<<<
46.04893	-0
50.45542	-0.1
54.85868	-1.4
59.25871	-1.2
63.6555	36.9
68.04907	41
72.43941	42.5
76.82654	44.6
81.21044	50.1
85.59113	48.3
89.96862	52.2
94.34289	54.4
98.71396	53.5
103.08183	58.4
107.4465	57.2
111.80798	56.1
116.16626	56.7
120.52136	63.5
124.87327	65.3
129.222	71.6
133.56755	67.8
137.90993	76.9
142.24913	85.9
146.58517	94.5
150.91804	102.6
155.24774	128.2
159.57429	157.3
163.89768	194.9
168.21792	256
172.53501	351
176.84895	485.5
181.15975	676.8
185.46741	943.8
189.77193	1294.1
194.07331	1736.8
198.37157	2229.5
202.6667	2765.5
206.9587	3271.1
211.24758	3809.3
215.53334	4342.1
219.81599	4951.7
224.09553	5609.1
228.37195	6331.7
232.64527	7102
236.91549	7864
241.18261	8536.1
245.44663	9122.4
249.70755	9570.8
253.96539	9962.8
258.22014	10265.1
262.4718	10538.4
266.72039	10686.1
270.96589	10714.9
275.20832	10598.7
279.44768	10430.1
283.68397	10171.9
287.91719	10028.6
292.14735	10087.8
296.37445	10266
300.59849	10660.5
304.81948	11064
309.03742	11301.2
313.25231	11235.6
317.46415	10721.3
321.67296	9989.4
325.87872	9437.3
330.08145	9212.5
334.28114	9243.2
338.47781	9407.3
342.67145	9649
346.86207	10063
351.04966	10652.5
355.23424	11246
359.4158	11737.4
363.59435	11980.3
367.76989	12090.1
371.94243	12125.1
376.11196	12110.1
380.27849	12099.8
384.44203	12031.3
388.60257	11953.2
392.76012	11887.4
396.91468	12031.2
401.06626	12282.6
405.21485	12402.2
409.36047	12132.2
413.50311	11598
417.64277	11139.3
421.77947	10832.5
425.9132	10529.7
430.04396	10513.2
434.17176	10539.4
438.2966	10724.1
442.41849	10993.3
446.53742	11299.1
450.6534	11561.9
454.76644	11708.9
458.87653	11731.5
462.98368	11637.8
467.08789	11482.8
471.18916	11249.6
475.2875	11053.8
479.38291	10904.7
483.4754	10839.3
487.56496	10861.8
491.6516	10880.1
495.73531	10911
499.81612	10871.3
503.89401	10935.2
507.96899	10983.9
512.04106	11146.3
516.11023	11357.7
520.1765	11544
524.23987	11567
528.30034	11505.8
532.35792	11381.7
536.41261	11195.4
540.46441	10983.7
544.51333	10769.8
548.55936	10771.1
552.60252	10885
556.64279	11010.4
560.6802	11080.6
564.71473	11247.3
568.7464	11582.9
572.7752	11655.8
576.80114	11236.5
580.82422	10943.3
584.84444	10924.8
588.86181	11022.6
592.87633	11229.1
596.888	11485
600.89682	11921.1
604.9028	13476.4
608.90594	17275
612.90624	21197
616.90371	19299.7
620.89834	14334.5
624.89015	12618.8
628.87913	12662.1
632.86528	13118.5
636.84862	13380
640.82913	13040.8
644.80683	12276.4
648.78172	11673.1
652.75379	11441.4
656.72306	11669.4
660.68952	11959.2
664.65319	11686.2
668.61405	11309.5
672.57211	11193.3
676.52738	11257
680.47986	11327.9
684.42955	11412.7
688.37646	11523.2
692.32058	11558.4
696.26192	11469
700.20048	11427.7
704.13626	11291.8
708.06928	11107.8
711.99952	10899
715.927	10836.4
719.85171	10910.1
723.77365	10983.2
727.69284	11038.1
731.60928	11013.4
735.52295	10901.2
739.43388	10826.7
743.34206	10822.7
747.24749	10809.4
751.15017	10837.7
755.05012	10975.4
758.94733	11497
762.8418	12719.4
766.73354	14628.1
770.62254	16534
774.50882	17405.6
778.39237	16522.2
782.27321	14423.2
786.15132	12532.1
790.02671	11487.6
793.89938	11032.8
797.76935	10913.2
801.6366	10915.2
805.50115	11064.4
809.36299	11220.1
813.22213	11258.6
817.07857	11164.8
820.93231	10984.7
824.78336	10827
828.63172	10730.9
832.47738	10684.8
836.32036	10637.1
840.16066	10603.4
843.99827	10586.5
847.8332	10574.1
851.66546	10520.4
855.49504	10544
859.32195	10535.2
863.1462	10483.4
866.96777	10503
870.78668	10588.7
874.60293	10731.5
878.41652	10927.6
882.22745	11127.2
886.03573	11240
889.84136	11250.5
893.64433	11061.3
897.44466	10870.5
901.24235	10646.3
905.0374	10435
908.8298	10279.9
912.61957	10178.5
916.40671	10177.4
920.19121	10192.6
923.97308	10313.9
927.75233	10453
931.52895	10564.6
935.30295	10518.8
939.07433	10253.2
942.84309	10069.4
946.60924	10008.3
950.37278	9938
954.13371	9899.8
957.89203	9871.6
961.64774	9824.9
965.40086	9773.2
969.15137	9701.1
972.89929	9662.9
976.64461	9638.8
980.38733	9630.1
984.12747	9662.6
987.86502	9742.2
991.59999	9841.9
995.33237	10011.8
999.06217	10294.1
1002.78939	10641.8
1006.51404	10901.1
1010.23611	11147.6
1013.95561	11324.9
1017.67255	11390.5
1021.38692	11295.6
1025.09872	11172.2
1028.80796	11099
1032.51465	11198.9
1036.21877	11276.7
1039.92035	11205.7
1043.61937	11093.4
1047.31584	10848.7
1051.00976	10674
1054.70114	10575.8
1058.38998	10545.5
1062.07627	10587.2
1065.76003	10622
1069.44126	10714.2
1073.11995	10784.9
1076.79611	10890.5
1080.46974	11038.7
1084.14085	11252.9
1087.80943	11467.1
1091.47549	11456.9
1095.13903	11233.4
1098.80005	10905.5
1102.45857	10696.3
1106.11456	10695.7
1109.76805	10895.7
1113.41903	11243.6
1117.06751	11741.7
1120.71348	12388.3
1124.35696	13126.9
1127.99793	13808.6
1131.63641	13939.2
1135.2724	13600.2
1138.90589	13095.7
1142.5369	12631.5
1146.16542	12113.6
1149.79145	11668.6
1153.415	11337.3
1157.03607	11201
1160.65467	11236.9
1164.27079	11524.5
1167.88443	12005.9
1171.49561	12841.5
1175.10432	14194.3
1178.71056	16030.5
1182.31434	17557.6
1185.91565	18054.3
1189.51451	17681.8
1193.11091	16718.9
1196.70485	15727.2
1200.29634	15127.8
1203.88538	14587.7
1207.47197	13918.5
1211.05612	13210
1214.63782	12636.5
1218.21708	12283.7
1221.79391	12120.5
1225.36829	12005.9
1228.94024	11904.8
1232.50976	11787.8
1236.07685	11767.6
1239.6415	11835.8
1243.20374	11904.9
1246.76355	11971
1250.32093	12157.8
1253.8759	12394.9
1257.42845	12723.1
1260.97859	13071.2
1264.52631	13411.7
1268.07163	13734.7
1271.61453	13981.8
1275.15503	14218.8
1278.69312	14341.5
1282.22882	14520.3
1285.76211	14847.5
1289.29301	15281.9
1292.82151	15803.1
1296.34761	16403.5
1299.87133	17312
1303.39266	18838.9
1306.9116	20991.9
1310.42815	23164.2
1313.94233	23844.1
1317.45412	22723
1320.96354	20893.4
1324.47058	19146.1
1327.97525	17817.5
1331.47754	17078.1
1334.97747	16955.9
1338.47502	17264.1
1341.97022	17977
1345.46305	18930.4
1348.95352	20255.6
1352.44163	21931.9
1355.92738	24271.6
1359.41078	27632.6
1362.89183	30270.7
1366.37053	28695.6
1369.84688	24038.9
1373.32088	20008.8
1376.79254	17577
1380.26186	16321.3
1383.72883	15622.7
1387.19347	15094.1
1390.65578	14598.6
1394.11575	14217.1
1397.57339	14001.7
1401.0287	13969.6
1404.48168	13977.7
1407.93234	13985.5
1411.38068	14055.6
1414.82669	14048.9
1418.27039	13942.1
1421.71177	13670
1425.15083	13444.1
1428.58758	13349.2
1432.02203	13482.8
1435.45416	13614.2
1438.88399	13729.9
1442.31151	13777.3
1445.73673	13905.5
1449.15965	14091.7
1452.58027	14151.9
1455.9986	14140.5
1459.41463	14251.6
1462.82837	14459.7
1466.23982	14734.5
1469.64898	15024.2
1473.05586	15189.7
1476.46045	15250.5
1479.86276	15291.7
1483.26279	15431.4
1486.66054	15685.1
1490.05602	16098.9
1493.44922	16792.1
1496.84016	17908.6
1500.22882	19639
1503.61521	22119.4
1506.99934	24884.4
1510.38121	26921.7
1513.76081	27109.7
1517.13816	24945.1
1520.51324	21761.6
1523.88607	18927.9
1527.25665	17085.8
1530.62498	16075.5
1533.99105	15513.8
1537.35488	15197.6
1540.71647	15020.8
1544.07581	15049.7
1547.4329	15113.1
1550.78776	15184
1554.14038	15225.2
1557.49077	15379.4
1560.83892	15544.7
1564.18484	15895.2
1567.52853	16254.6
1570.86999	16630.6
1574.20922	16825.4
1577.54624	16669.1
1580.88103	15870.2
1584.2136	14951
1587.54395	14508
1590.87208	14674.6
1594.19801	15417.7
1597.52172	16447.5
1600.84321	16934.5
1604.16251	16578.1
1607.47959	15728.7
1610.79447	14771.2
1614.10715	13838.5
1617.41763	13090.4
1620.7259	12654.6
1624.03199	12446.9
1627.33587	12459.5
1630.63757	12742.6
1633.93707	13304.5
1637.23439	14163.1
1640.52951	15461.1
1643.82246	17139
1647.11321	19040.1
1650.40179	20123.1
1653.68819	19443.2
1656.97241	17163.7
1660.25446	14792.6
1663.53433	13190.4
1666.81203	12232.6
1670.08756	11612.6
1673.36092	11253.5
1676.63211	10968.2
1679.90115	10752.2
1683.16801	10511.7
1686.43272	10376.2
1689.69527	10229.5
1692.95567	10121.9
1696.2139	10032.1
1699.46999	9905.6
1702.72392	9785
1705.97571	9680.9
1709.22535	9584.3
1712.47284	9500.1
1715.71819	9450.3
1718.96139	9373.2
1722.20246	9319.3
1725.44139	9201.4
1728.67818	9093.9
1731.91284	9010.1
1735.14537	8925.5
1738.37576	8875.5
1741.60403	8824.2
1744.83017	8781.6
1748.05418	8766.8
1751.27607	8763
1754.49584	8701.9
1757.71349	8680.3
1760.92903	8692.6
1764.14244	8659.6
1767.35375	8621.2
1770.56294	8592.1
1773.77002	8559.4
1776.97499	8523.9
1780.17785	8480.8
1783.37861	8471
1786.57727	8476.9
1789.77382	8420.3
1792.96828	8426.9
1796.16064	8414.4
1799.3509	8406.4
1802.53907	8378.9
1805.72514	8328.4
1808.90913	8317.7
1812.09102	8311.2
1815.27083	8278.2
1818.44856	8263
1821.6242	8252.8
1824.79776	8246.4
1827.96924	8225.1
1831.13864	8215.1
1834.30597	8198.6
1837.47122	8203.7
1840.6344	8182.5
1843.7955	8181
1846.95454	8188
1850.11151	8175.4
1853.26642	8169.6
1856.41926	8150.5
1859.57004	8141.9
1862.71876	8173.4
1865.86542	8145
1869.01003	8153.4
1872.15258	8123.1
1875.29308	8139.1
1878.43152	8139.4
1881.56792	8126.2
1884.70227	8134.7
1887.83457	8120.7
1890.96482	8099.1
1894.09304	8093.1
1897.21921	8103.1
1900.34335	8089
1903.46544	8079
1906.58551	8091.3
1909.70353	8075.1
1912.81953	8066.2
1915.93349	8052.9
1919.04543	8025.1
1922.15534	8023.8
1925.26322	7991.6
1928.36908	8012.5
1931.47292	7987.2
1934.57473	7943.2
1937.67453	7956
1940.77232	7944.3
1943.86808	7926.6
1946.96184	7909.7
1950.05358	7866.5
1953.14331	7868.1
1956.23103	7839.2
1959.31675	7840
1962.40046	7824.9
1965.48217	7799.6
1968.56188	7762.5
1971.63959	7749
1974.7153	7743.7
1977.78901	7716.3
1980.86073	7701.5
1983.93046	7676.7
1986.99819	7628.9
1990.06394	7617
1993.1277	7593.8
1996.18947	7559.9
1999.24925	7552
2002.30706	7528.7
2005.36288	7484.8
2008.41672	7491
2011.46859	7463
2014.51848	7450.1
2017.56639	7429.8
2020.61233	7417.7
2023.6563	7420.8
2026.6983	7400.2
2029.73833	7366.7
2032.7764	7358.4
2035.8125	7361.6
2038.84664	7315.7
2041.87881	7335
2044.90903	7308.2
2047.93729	7299.7
2050.96359	7297.8
2053.98794	7282.2
2057.01034	7286.3
2060.03078	7266.8
2063.04927	7252.6
2066.06582	7284
2069.08042	7267.8
2072.09307	7284.5
2075.10378	7248.5
2078.11255	7266.4
2081.11938	7260.3
2084.12426	7251
2087.12722	7254.5
2090.12824	7238.3
2093.12732	7266.6
2096.12447	7275.4
2099.11969	7244.1
2102.11299	7260.5
2105.10435	7276.2
2108.09379	7255.9
2111.08131	7261.7
2114.0669	7289.1
2117.05057	7271.5
2120.03233	7296.1
2123.01216	7307.1
2125.99008	7292.2
2128.96609	7330.6
2131.94018	7323.8
2134.91236	7334.1
2137.88263	7293.7
2140.851	7303.7
2143.81746	7304.4
2146.78201	7314.6
2149.74466	7316.2
2152.7054	7321.3
2155.66425	7320.7
2158.6212	7319.5
2161.57625	7305.2
2164.52941	7311.7
2167.48067	7292.5
2170.43004	7313
2173.37752	7314.7
2176.32311	7323
2179.26681	7344.9
2182.20863	7313
2185.14856	7299.9
2188.08661	7317.1
2191.02278	7321.3
2193.95707	7302.7
2196.88948	7319.3
2199.82001	7291
2202.74867	7299.5
2205.67545	7310.7
2208.60037	7319.5
2211.52341	7296.3
2214.44458	7291.6
2217.36388	7282.4
2220.28132	7255.4
2223.1969	7245.9
2226.11061	7245
2229.02246	7256.8
2231.93245	7212.8
2234.84058	7215.8
2237.74686	7207.3
2240.65128	7195.6
2243.55385	7190.6
2246.45456	7184.2
2249.35343	7193.3
2252.25044	7171.5
2255.14561	7171.2
2258.03893	7199.9
2260.93041	7179.2
2263.82004	7155.2
2266.70783	7164.5
2269.59378	7132.2
2272.4779	7106.1
2275.36017	7099.5
2278.24061	7093.8
2281.11922	7090.2
2283.996	7059.3
2286.87094	7038.4
2289.74405	7018.9
2292.61534	7022.4
2295.4848	7004.7
2298.35243	7014.2
2301.21824	7003.5
2304.08223	7023.8
2306.94439	7009.5
2309.80474	7002.2
2312.66327	7009.3
2315.51999	7020.3
2318.37489	7012.4
2321.22797	7009.2
2324.07925	7009.3
2326.92871	7001.6
2329.77637	7007.6
2332.62222	6998.4
2335.46626	6990.4
2338.3085	6984.7
2341.14893	6994.1
2343.98756	6995.5
2346.8244	6996.2
2349.65943	7019.5
2352.49267	6998
2355.32411	7012.9
2358.15376	7015.4
2360.98161	7022
2363.80768	7033.7
2366.63195	7040.6
2369.45444	7014.9
2372.27514	7002.2
2375.09405	7005.4
2377.91118	6970.2
2380.72652	6948.2
2383.54009	6931.7
2386.35187	6945.4
2389.16188	6901.8
2391.97011	6918.5
2394.77657	6875.8
2397.58125	6895.9
2400.38416	6865.3
2403.18529	6859.2
2405.98466	6820.8
2408.78226	6814.2
2411.57809	6804.2
2414.37216	6804.8
2417.16446	6784
2419.955	6797.1
2422.74378	6792.4
2425.5308	6788.8
2428.31606	6770.1
2431.09956	6780.7
2433.88131	6771.9
2436.6613	6781.1
2439.43954	6769
2442.21603	6765.4
2444.99077	6766.1
2447.76377	6788.9
2450.53501	6764.5
2453.30451	6790.3
2456.07226	6765.1
2458.83827	6758.1
2461.60254	6745.5
2464.36507	6742.8
2467.12586	6753.6
2469.88492	6750.8
2472.64224	6743.6
2475.39782	6763.8
2478.15167	6766.2
2480.90379	6772.2
2483.65417	6793.2
2486.40283	6807.4
2489.14976	6808.7
2491.89497	6800.9
2494.63845	6799.2
2497.3802	6795.1
2500.12024	6803.8
2502.85855	6807.5
2505.59514	6795.1
2508.33002	6762.4
2511.06318	6738.9
2513.79462	6735.9
2516.52435	6719.3
2519.25237	6708.4
2521.97867	6690
2524.70327	6691.5
2527.42616	6660.6
2530.14734	6648.3
2532.86681	6663.5
2535.58458	6663.1
2538.30065	6670.7
2541.01501	6689.3
2543.72768	6672.2
2546.43864	6656.1
2549.14791	6667.8
2551.85548	6649.3
2554.56136	6646.8
2557.26554	6641.1
2559.96803	6631.9
2562.66883	6617.2
2565.36794	6612.2
2568.06536	6598.1
2570.7611	6593.7
2573.45514	6609.1
2576.14751	6604.1
2578.83819	6575.5
2581.52719	6565.5
2584.21451	6560.7
2586.90015	6543.3
2589.58411	6558.6
2592.2664	6569.6
2594.94701	6540
2597.62594	6543.7
2600.30321	6550.9
2602.9788	6522.2
2605.65273	6514.5
2608.32498	6532.9
2610.99557	6534.7
2613.66449	6521.7
2616.33175	6529.2
2618.99734	6552.5
2621.66128	6543.1
2624.32355	6504.1
2626.98416	6511
2629.64311	6514.2
2632.30041	6515.1
2634.95605	6483.4
2637.61004	6494.8
2640.26238	6487.4
2642.91306	6469.1
2645.56209	6469.2
2648.20948	6444
2650.85521	6452.5
2653.4993	6451.5
2656.14175	6455.5
2658.78255	6454.7
2661.42171	6465.2
2664.05923	6469.6
2666.6951	6499
2669.32934	6491.4
2671.96194	6511.8
2674.59291	6508.2
2677.22224	6503.6
2679.84993	6517.3
2682.476	6479.7
2685.10043	6513.2
2687.72324	6499.5
2690.34441	6493.9
2692.96396	6495.6
2695.58188	6499.7
2698.19818	6508.3
2700.81285	6496.4
2703.4259	6486.3
2706.03733	6493.3
2708.64714	6522.2
2711.25533	6541.2
2713.86191	6518.4
2716.46687	6542.7
2719.07021	6551.3
2721.67194	6537.3
2724.27206	6532.5
2726.87057	6517.8
2729.46747	6528.7
2732.06276	6550.6
2734.65644	6554.6
2737.24852	6539.7
2739.83899	6526.7
2742.42786	6511.2
2745.01513	6505.4
2747.60079	6522
2750.18486	6507.1
2752.76733	6496.8
2755.3482	6481.2
2757.92747	6485.5
2760.50515	6476.4
2763.08123	6482.6
2765.65573	6467.1
2768.22863	6433.2
2770.79994	6466.8
2773.36967	6450
2775.9378	6474.1
2778.50435	6470.1
2781.06932	6451.6
2783.6327	6466
2786.1945	6451.9
2788.75471	6455.8
2791.31335	6425.9
2793.87041	6410.8
2796.42589	6406.5
2798.97979	6411.2
2801.53212	6422.6
2804.08288	6400.6
2806.63206	6391.1
2809.17967	6371.4
2811.72571	6358.3
2814.27018	6373.8
2816.81308	6351.5
2819.35442	6354.8
2821.89419	6348
2824.43239	6361.9
2826.96904	6354.6
2829.50412	6364.1
2832.03763	6362.4
2834.56959	6358.5
2837.1	6343.6
2839.62884	6356.7
2842.15613	6341.7
2844.68186	6359.2
2847.20604	6357.8
2849.72867	6366.1
2852.24974	6375.6
2854.76927	6370.7
2857.28724	6373
2859.80367	6357.1
2862.31855	6363.1
2864.83189	6364.7
2867.34368	6338
2869.85393	6354.7
2872.36264	6364.2
2874.8698	6367.6
2877.37543	6355.9
2879.87952	6365.5
2882.38207	6348.9
2884.88308	6364.7
2887.38256	6359.8
2889.88051	6362.1
2892.37692	6352.5
2894.8718	6351
2897.36515	6373.9
2899.85698	6372.2
2902.34727	6388.2
2904.83604	6401.9
2907.32328	6409.8
2909.809	6406
2912.29319	6402.6
2914.77587	6398.9
2917.25702	6420.5
2919.73665	6397.3
2922.21476	6412.4
2924.69136	6397.9
2927.16644	6387.7
2929.64	6377.4
2932.11205	6364.1
2934.58258	6337.3
2937.05161	6368.9
2939.51912	6343.1
2941.98513	6340.4
2944.44962	6308.9
2946.91261	6310.7
2949.37409	6338.2
2951.83407	6323.3
2954.29254	6331
2956.74951	6299.4
2959.20498	6305.3
2961.65895	6298.9
2964.11142	6308.2
2966.56239	6290
2969.01186	6289.1
2971.45984	6259.6
2973.90632	6264.6
2976.35131	6223.8
2978.7948	6241
2981.23681	6235.9
2983.67732	6221.1
2986.11635	6190.8
2988.55388	6204.1
2990.98993	6203.3
2993.4245	6162.9
2995.85758	6158.8
2998.28917	6157.4
3000.71928	6155.6
3003.14791	6136.1
3005.57506	6140.4
3008.00073	6110.5
3010.42493	6130.9
3012.84764	6105.7
3015.26888	6100
3017.68865	6087.6
3020.10694	6100.5
3022.52376	6076.7
3024.9391	6055.1
3027.35298	6077.5
3029.76539	6073.3
3032.17632	6069.3
3034.5858	6055.5
3036.9938	6035.9
3039.40034	6049.9
3041.80542	6055
3044.20903	6024.8
3046.61118	6039.8
3049.01187	6019.2
3051.4111	6017.9
3053.80888	6003.8
3056.20519	6009.6
3058.60005	5983.9
3060.99345	5954.3
3063.3854	5981.5
3065.7759	5947.8
3068.16494	5940.2
3070.55254	5888.4
3072.93868	5909.7
3075.32338	5900.7
3077.70662	5910.7
3080.08842	5878.7
3082.46878	5874.2
3084.84769	5863
3087.22515	5856.5
3089.60118	5863.6
3091.97576	5860.4
3094.3489	5865.1
3096.72061	5881.4
3099.09087	5892.4
3101.4597	5887.9
3103.82709	5883.4
3106.19305	5909.3
3108.55757	5903.6
3110.92066	5900.6
3113.28232	5882
3115.64255	5883.8
3118.00134	5867.4
3120.35871	5861.8
3122.71466	5874.8
3125.06917	5853.1
3127.42226	5831.1
3129.77393	5834.3
3132.12417	5828.1
3134.47299	5835
3136.82039	5833.9
3139.16636	5851
3141.51092	5847.2
3143.85406	5842.7
3146.19579	5860
3148.53609	5858.9
3150.87499	5861.2
3153.21246	5862.4
3155.54853	5886.4
3157.88318	5881.5
3160.21642	5896.4
3162.54826	5899.9
3164.87868	5896.1
3167.2077	5894.2
3169.5353	5902.2
3171.86151	5903.5
3174.18631	5895.3
3176.5097	5909.2
3178.83169	5884.3
3181.15228	5902.7
3183.47147	5884.9
3185.78926	5890
3188.10565	5880
3190.42065	5874.5
3192.73424	5891.2
3195.04645	5897.8
3197.35725	5877.9
3199.66667	5887.2
3201.97469	5904.9
3204.28132	5903.5
3206.58656	5927.6
3208.8904	5931.3
3211.19287	5932.2
3213.49394	5930
3215.79363	5930.1
3218.09193	5947
3220.38884	5947.9
3222.68438	5950
3224.97853	5941.7
3227.2713	5960.4
3229.56269	5953.4
3231.8527	5946.2
3234.14133	5942.4
3236.42858	5948.1
3238.71446	5937.9
3240.99896	5929.3
3243.28209	5931.7
3245.56384	5904.7
3247.84423	5892.4
3250.12324	5894.2
3252.40088	5906.9
3254.67715	5916.9
3256.95205	5892
3259.22558	5895.4
3261.49775	5900.9
3263.76855	5914.4
3266.03799	5899.4
3268.30606	5902.3
3270.57277	5899.9
3272.83812	5890.9
3275.10211	5861.7
3277.36474	5857.3
3279.62601	5873.3
3281.88593	5849.8
3284.14448	5875.9
3286.40168	5880.9
3288.65753	5865.6
3290.91202	5858.7
3293.16516	5837.5
3295.41695	5832.7
3297.66738	5831.1
3299.91647	5800.9
3302.16421	5755.2
3304.4106	5737.8
3306.65564	5695.7
3308.89933	5662.5
3311.14169	5644.5
3313.38269	5602.3
3315.62236	5568.1
3317.86068	5535.1
3320.09766	5499.6
3322.3333	5458.3
3324.5676	5455.8
3326.80056	5376.1
3329.03219	5345.5
3331.26248	2.9
3333.49143	0.9
3335.71905	0.2
