Data from AgNPs_APTES_FTO_UA_100uM_CRN_0uM_R6G_10uM_Scan_RamanShift__12__15-56-42-940.txt Node

Date: Mon Jul 11 15:56:42 BST 2022
User: TCL
Spectrometer: QEP01345
Trigger mode: 4
Integration Time (sec): 7.000000E0
Scans to average: 10
Electric dark correction enabled: true
Nonlinearity correction enabled: false
Boxcar width: 0
XAxis mode: Raman Shifts
Number of Pixels in Spectrum: 1044
>>>>>Begin Spectral Data<<<<<
46.04893	-1.2
50.45542	-1.1
54.85868	0.6
59.25871	-1
63.6555	39
68.04907	41.8
72.43941	47.2
76.82654	49
81.21044	52.4
85.59113	52.2
89.96862	56.4
94.34289	53
98.71396	57.9
103.08183	59.4
107.4465	60.6
111.80798	61.2
116.16626	61.8
120.52136	68.4
124.87327	70.6
129.222	71.3
133.56755	73.9
137.90993	83
142.24913	91.3
146.58517	96.5
150.91804	109.6
155.24774	136.6
159.57429	167.4
163.89768	211.5
168.21792	267.9
172.53501	372.1
176.84895	520.9
181.15975	714.4
185.46741	998.9
189.77193	1376.5
194.07331	1838.7
198.37157	2377.2
202.6667	2939.2
206.9587	3499.7
211.24758	4048.1
215.53334	4590.7
219.81599	5204.9
224.09553	5835.3
228.37195	6582.3
232.64527	7347.4
236.91549	8164.5
241.18261	8971.5
245.44663	9627.1
249.70755	10192.6
253.96539	10640
258.22014	10972.3
262.4718	11175.6
266.72039	11306.4
270.96589	11271.6
275.20832	11144.1
279.44768	10941.7
283.68397	10663.1
287.91719	10475.8
292.14735	10352
296.37445	10359.1
300.59849	10406.9
304.81948	10458.2
309.03742	10439.2
313.25231	10268.5
317.46415	10006.6
321.67296	9690.4
325.87872	9447.4
330.08145	9313.7
334.28114	9329.8
338.47781	9387.3
342.67145	9529.8
346.86207	9734.5
351.04966	9985.4
355.23424	10264.7
359.4158	10526
363.59435	10732.3
367.76989	10868.5
371.94243	10977.9
376.11196	11092.8
380.27849	11196.2
384.44203	11270.2
388.60257	11321
392.76012	11400.8
396.91468	11503.2
401.06626	11655.6
405.21485	11751.5
409.36047	11622.4
413.50311	11350
417.64277	11132.3
421.77947	10985.9
425.9132	10937.2
430.04396	10912.1
434.17176	10990.6
438.2966	11099.8
442.41849	11292
446.53742	11517.4
450.6534	11768.4
454.76644	11949.3
458.87653	12002.7
462.98368	12035.6
467.08789	11943.6
471.18916	11823.8
475.2875	11717.6
479.38291	11633.1
483.4754	11574.8
487.56496	11546.1
491.6516	11491.8
495.73531	11538.6
499.81612	11564
503.89401	11625
507.96899	11676.4
512.04106	11701.6
516.11023	11748.5
520.1765	11739.3
524.23987	11750.9
528.30034	11695
532.35792	11712.9
536.41261	11687.7
540.46441	11573
544.51333	11516.1
548.55936	11525.9
552.60252	11582.7
556.64279	11692.1
560.6802	11757.8
564.71473	11784.4
568.7464	11872.5
572.7752	11918.2
576.80114	11920.2
580.82422	11936.1
584.84444	12004.9
588.86181	12075.5
592.87633	12118.5
596.888	12185.1
600.89682	12406.2
604.9028	13286.5
608.90594	15313.6
612.90624	17120.2
616.90371	15841.7
620.89834	13065.6
624.89015	12004
628.87913	11986.4
632.86528	12269.7
636.84862	12575.5
640.82913	12497.1
644.80683	12099.6
648.78172	11806.7
652.75379	11774.8
656.72306	11950.8
660.68952	12183.1
664.65319	12142.2
668.61405	12077.6
672.57211	12345.7
676.52738	12791.7
680.47986	13365.6
684.42955	14057.4
688.37646	14548.9
692.32058	14481.6
696.26192	13958.6
700.20048	13486.6
704.13626	13254.6
708.06928	13043.1
711.99952	12812.5
715.927	12472.2
719.85171	12141.1
723.77365	11914.7
727.69284	11780.7
731.60928	11758.9
735.52295	11731.7
739.43388	11697.1
743.34206	11647.7
747.24749	11566.8
751.15017	11462.7
755.05012	11519.2
758.94733	11764.4
762.8418	12421.1
766.73354	13584.2
770.62254	14871.6
774.50882	15509.3
778.39237	15025.9
782.27321	13790.8
786.15132	12660.1
790.02671	11991.2
793.89938	11687
797.76935	11466.5
801.6366	11379.1
805.50115	11348.7
809.36299	11284.2
813.22213	11193.8
817.07857	11106.7
820.93231	11035
824.78336	11010.4
828.63172	10960
832.47738	10919.3
836.32036	10896
840.16066	10896.1
843.99827	10899.6
847.8332	10931.4
851.66546	10963.7
855.49504	11026.6
859.32195	11040.4
863.1462	11073.1
866.96777	11049.4
870.78668	11071
874.60293	11115
878.41652	11111.4
882.22745	11178.3
886.03573	11168.4
889.84136	11149.6
893.64433	11096.9
897.44466	11047.3
901.24235	10926.4
905.0374	10806.2
908.8298	10727.2
912.61957	10674.9
916.40671	10678.3
920.19121	10746.2
923.97308	10794.6
927.75233	10858.1
931.52895	10877.9
935.30295	10870.3
939.07433	10721.8
942.84309	10667.2
946.60924	10678.9
950.37278	10707.3
954.13371	10732.4
957.89203	10692.4
961.64774	10675
965.40086	10599.7
969.15137	10508.4
972.89929	10393.5
976.64461	10378.9
980.38733	10322.2
984.12747	10339
987.86502	10354.5
991.59999	10415.9
995.33237	10503.3
999.06217	10677.9
1002.78939	10852.2
1006.51404	11033.7
1010.23611	11213
1013.95561	11385
1017.67255	11447.7
1021.38692	11414.9
1025.09872	11210.2
1028.80796	11060.1
1032.51465	11027.1
1036.21877	11047.1
1039.92035	11063.5
1043.61937	11097.1
1047.31584	11081.1
1051.00976	11071.3
1054.70114	11095.4
1058.38998	11112.1
1062.07627	11156.3
1065.76003	11252.3
1069.44126	11339.4
1073.11995	11514.4
1076.79611	11640.5
1080.46974	11722.5
1084.14085	11780.3
1087.80943	11879.8
1091.47549	11938.6
1095.13903	11909.9
1098.80005	11769.9
1102.45857	11628.2
1106.11456	11556.6
1109.76805	11570.2
1113.41903	11691.1
1117.06751	11880.5
1120.71348	12141.6
1124.35696	12485.3
1127.99793	12815.3
1131.63641	13061.3
1135.2724	13044.3
1138.90589	12868.1
1142.5369	12657.4
1146.16542	12368.2
1149.79145	12137.9
1153.415	11987.3
1157.03607	11964.2
1160.65467	12100
1164.27079	12428.4
1167.88443	12929
1171.49561	13555
1175.10432	14463
1178.71056	15610.5
1182.31434	16695.1
1185.91565	17239.1
1189.51451	17338.1
1193.11091	16895.7
1196.70485	16266.6
1200.29634	15629.8
1203.88538	15037.6
1207.47197	14354.9
1211.05612	13806
1214.63782	13358.3
1218.21708	13124
1221.79391	12974.6
1225.36829	12929.6
1228.94024	12851.1
1232.50976	12755.2
1236.07685	12701
1239.6415	12701.4
1243.20374	12728
1246.76355	12825
1250.32093	13001.1
1253.8759	13207.3
1257.42845	13507.1
1260.97859	13806.6
1264.52631	14143.8
1268.07163	14489.8
1271.61453	14837.5
1275.15503	15111
1278.69312	15414.9
1282.22882	15616.4
1285.76211	15889.8
1289.29301	16275.7
1292.82151	16767.8
1296.34761	17418.3
1299.87133	18149.9
1303.39266	19064.3
1306.9116	20160.3
1310.42815	21292.5
1313.94233	21799.8
1317.45412	21607.9
1320.96354	20919.5
1324.47058	20158.1
1327.97525	19436.7
1331.47754	18908.1
1334.97747	18726.9
1338.47502	18744.3
1341.97022	19101.7
1345.46305	19580.9
1348.95352	20257.7
1352.44163	21175.1
1355.92738	22416.6
1359.41078	23814.1
1362.89183	24899.3
1366.37053	24120.2
1369.84688	21637
1373.32088	19188.3
1376.79254	17651.1
1380.26186	16884.2
1383.72883	16492.6
1387.19347	16174.6
1390.65578	15880.1
1394.11575	15580.4
1397.57339	15392.1
1401.0287	15305.6
1404.48168	15212.1
1407.93234	15171.3
1411.38068	15068.4
1414.82669	14898.8
1418.27039	14638.3
1421.71177	14429.1
1425.15083	14196.8
1428.58758	14092.5
1432.02203	14153.1
1435.45416	14368.6
1438.88399	14648.5
1442.31151	14920.4
1445.73673	15251.6
1449.15965	15627.9
1452.58027	16029.5
1455.9986	16385.7
1459.41463	16773.8
1462.82837	17199.8
1466.23982	17550.7
1469.64898	17811.4
1473.05586	17864.5
1476.46045	17750.4
1479.86276	17483.8
1483.26279	17179.4
1486.66054	17002.3
1490.05602	16900.6
1493.44922	17013.9
1496.84016	17327
1500.22882	18076.7
1503.61521	19242.5
1506.99934	20510
1510.38121	21380.8
1513.76081	21498.7
1517.13816	20569.5
1520.51324	19127
1523.88607	17770.7
1527.25665	16902.9
1530.62498	16403.9
1533.99105	16147.1
1537.35488	15954.6
1540.71647	15782.1
1544.07581	15699.2
1547.4329	15609.8
1550.78776	15549.1
1554.14038	15508.5
1557.49077	15576.8
1560.83892	15725.9
1564.18484	15937.1
1567.52853	16149.6
1570.86999	16369.7
1574.20922	16476.2
1577.54624	16430.4
1580.88103	16062.3
1584.2136	15565.3
1587.54395	15288.8
1590.87208	15440.2
1594.19801	15857.3
1597.52172	16546.5
1600.84321	16839.4
1604.16251	16483.5
1607.47959	15827.8
1610.79447	15052.1
1614.10715	14283.2
1617.41763	13603.7
1620.7259	13082.4
1624.03199	12792.6
1627.33587	12740
1630.63757	12868.1
1633.93707	13257.9
1637.23439	14008
1640.52951	15058.3
1643.82246	16368.5
1647.11321	17615.1
1650.40179	18185.2
1653.68819	17632.7
1656.97241	16073.5
1660.25446	14459.5
1663.53433	13286
1666.81203	12580.2
1670.08756	12088.6
1673.36092	11797.1
1676.63211	11580
1679.90115	11401.7
1683.16801	11194.1
1686.43272	11055.9
1689.69527	10925.6
1692.95567	10808
1696.2139	10703.9
1699.46999	10606.5
1702.72392	10489.6
1705.97571	10370.5
1709.22535	10259.7
1712.47284	10217.3
1715.71819	10127.4
1718.96139	10041.7
1722.20246	9937.7
1725.44139	9836.9
1728.67818	9702.6
1731.91284	9658.2
1735.14537	9550.1
1738.37576	9460
1741.60403	9404.8
1744.83017	9305.3
1748.05418	9303.4
1751.27607	9250.3
1754.49584	9221.1
1757.71349	9219.4
1760.92903	9228.4
1764.14244	9220.8
1767.35375	9184.6
1770.56294	9164.7
1773.77002	9119.5
1776.97499	9087.4
1780.17785	9046.5
1783.37861	9034.7
1786.57727	9015.6
1789.77382	8977.5
1792.96828	8945.7
1796.16064	8909.3
1799.3509	8895.4
1802.53907	8902.3
1805.72514	8856.8
1808.90913	8834.6
1812.09102	8809.8
1815.27083	8805.5
1818.44856	8801.8
1821.6242	8757.8
1824.79776	8756.7
1827.96924	8755.6
1831.13864	8721.1
1834.30597	8726
1837.47122	8713.3
1840.6344	8697.3
1843.7955	8686.5
1846.95454	8684.4
1850.11151	8686.5
1853.26642	8687.4
1856.41926	8670.7
1859.57004	8658.3
1862.71876	8655.9
1865.86542	8659
1869.01003	8657.6
1872.15258	8656.5
1875.29308	8635
1878.43152	8619.8
1881.56792	8615
1884.70227	8617.2
1887.83457	8620.7
1890.96482	8602.1
1894.09304	8572.5
1897.21921	8589.6
1900.34335	8559.5
1903.46544	8566.3
1906.58551	8577.7
1909.70353	8571.6
1912.81953	8568.2
1915.93349	8551.3
1919.04543	8512.8
1922.15534	8515.7
1925.26322	8495.7
1928.36908	8512.3
1931.47292	8495.1
1934.57473	8464.5
1937.67453	8444.5
1940.77232	8457.4
1943.86808	8403.1
1946.96184	8386.3
1950.05358	8362
1953.14331	8370.8
1956.23103	8330.8
1959.31675	8315
1962.40046	8298.3
1965.48217	8264.2
1968.56188	8250.8
1971.63959	8231.6
1974.7153	8192.6
1977.78901	8180.5
1980.86073	8176.9
1983.93046	8141.8
1986.99819	8115.9
1990.06394	8094.4
1993.1277	8091.8
1996.18947	8048.4
1999.24925	8039.6
2002.30706	8022.7
2005.36288	8000.8
2008.41672	7989.8
2011.46859	7956.5
2014.51848	7930.5
2017.56639	7924.8
2020.61233	7943.7
2023.6563	7931.4
2026.6983	7887.4
2029.73833	7881.8
2032.7764	7864.8
2035.8125	7865.5
2038.84664	7836.4
2041.87881	7863.7
2044.90903	7935.8
2047.93729	7932.2
2050.96359	7846
2053.98794	7822.1
2057.01034	7809
2060.03078	7831.1
2063.04927	7833.4
2066.06582	7851.8
2069.08042	7843.3
2072.09307	7862.2
2075.10378	7866
2078.11255	7870.9
2081.11938	7882.3
2084.12426	7911.4
2087.12722	7906.4
2090.12824	7897.1
2093.12732	7933
2096.12447	7937.4
2099.11969	7960.7
2102.11299	7966.3
2105.10435	7962.9
2108.09379	7987.2
2111.08131	7978.7
2114.0669	7974.6
2117.05057	7974.8
2120.03233	7986
2123.01216	7998.9
2125.99008	7975.1
2128.96609	8005.3
2131.94018	7977.8
2134.91236	7986.7
2137.88263	7959.7
2140.851	7952.6
2143.81746	7954.1
2146.78201	7970.2
2149.74466	7958.3
2152.7054	7931.2
2155.66425	7920.9
2158.6212	7923.9
2161.57625	7946.2
2164.52941	7916.3
2167.48067	7913.8
2170.43004	7929.8
2173.37752	7926.4
2176.32311	7895.8
2179.26681	7931.2
2182.20863	7931.8
2185.14856	7911.2
2188.08661	7934.2
2191.02278	7919.9
2193.95707	7922.8
2196.88948	7916.4
2199.82001	7912.3
2202.74867	7929.1
2205.67545	7911.8
2208.60037	7917.9
2211.52341	7903
2214.44458	7902.2
2217.36388	7877
2220.28132	7858.2
2223.1969	7878.5
2226.11061	7855.6
2229.02246	7821.5
2231.93245	7827.7
2234.84058	7801.8
2237.74686	7789.8
2240.65128	7782.7
2243.55385	7776.3
2246.45456	7746.9
2249.35343	7787.3
2252.25044	7762.8
2255.14561	7777.1
2258.03893	7780.8
2260.93041	7765.9
2263.82004	7736.5
2266.70783	7755.5
2269.59378	7716.2
2272.4779	7696.5
2275.36017	7665.1
2278.24061	7665.5
2281.11922	7677.3
2283.996	7653.3
2286.87094	7648.9
2289.74405	7629
2292.61534	7614.7
2295.4848	7592
2298.35243	7608.1
2301.21824	7645.5
2304.08223	7638.8
2306.94439	7638.7
2309.80474	7624.1
2312.66327	7608.6
2315.51999	7610
2318.37489	7623.4
2321.22797	7597
2324.07925	7609.5
2326.92871	7618.4
2329.77637	7607
2332.62222	7590
2335.46626	7590.7
2338.3085	7581.9
2341.14893	7573.9
2343.98756	7600.7
2346.8244	7587.6
2349.65943	7600.9
2352.49267	7599.8
2355.32411	7600.1
2358.15376	7596.8
2360.98161	7599.1
2363.80768	7602.6
2366.63195	7621.1
2369.45444	7602.5
2372.27514	7606.5
2375.09405	7606.1
2377.91118	7585.3
2380.72652	7565.9
2383.54009	7560.2
2386.35187	7569.1
2389.16188	7532.2
2391.97011	7519.9
2394.77657	7525.2
2397.58125	7503.7
2400.38416	7487.8
2403.18529	7498.1
2405.98466	7463.5
2408.78226	7442.8
2411.57809	7466.2
2414.37216	7441.9
2417.16446	7450.3
2419.955	7445.5
2422.74378	7452.4
2425.5308	7446
2428.31606	7442.1
2431.09956	7430.5
2433.88131	7438
2436.6613	7453.5
2439.43954	7449.2
2442.21603	7434.7
2444.99077	7423.1
2447.76377	7441.8
2450.53501	7443.7
2453.30451	7463.6
2456.07226	7438.5
2458.83827	7422.3
2461.60254	7418
2464.36507	7414.9
2467.12586	7453.6
2469.88492	7429
2472.64224	7414
2475.39782	7427.1
2478.15167	7444.2
2480.90379	7440.1
2483.65417	7467.7
2486.40283	7468
2489.14976	7456.6
2491.89497	7447.9
2494.63845	7462.4
2497.3802	7443.3
2500.12024	7457.2
2502.85855	7457
2505.59514	7460.7
2508.33002	7450.4
2511.06318	7441.6
2513.79462	7446.2
2516.52435	7403.7
2519.25237	7423.5
2521.97867	7397.4
2524.70327	7387.7
2527.42616	7387.7
2530.14734	7385.8
2532.86681	7411.9
2535.58458	7401.8
2538.30065	7393.9
2541.01501	7408.2
2543.72768	7403.8
2546.43864	7390.9
2549.14791	7374.8
2551.85548	7400.8
2554.56136	7367.1
2557.26554	7368.2
2559.96803	7355.8
2562.66883	7346.8
2565.36794	7334.2
2568.06536	7328.1
2570.7611	7323.5
2573.45514	7347.4
2576.14751	7321.3
2578.83819	7313.7
2581.52719	7307.3
2584.21451	7281.4
2586.90015	7300.5
2589.58411	7289.1
2592.2664	7286.6
2594.94701	7293.7
2597.62594	7282.7
2600.30321	7253
2602.9788	7244
2605.65273	7246.2
2608.32498	7264.6
2610.99557	7252
2613.66449	7248.2
2616.33175	7232.8
2618.99734	7252.2
2621.66128	7239.6
2624.32355	7239.4
2626.98416	7246.1
2629.64311	7243.6
2632.30041	7246.1
2634.95605	7236.4
2637.61004	7212.5
2640.26238	7217.5
2642.91306	7231.5
2645.56209	7222.1
2648.20948	7217.2
2650.85521	7218.2
2653.4993	7205.3
2656.14175	7214.6
2658.78255	7222.6
2661.42171	7235.1
2664.05923	7252.5
2666.6951	7241.3
2669.32934	7255.4
2671.96194	7264.8
2674.59291	7269
2677.22224	7269.1
2679.84993	7282.8
2682.476	7264.7
2685.10043	7253.5
2687.72324	7252.8
2690.34441	7252
2692.96396	7262.5
2695.58188	7285.6
2698.19818	7300.8
2700.81285	7298.7
2703.4259	7271.5
2706.03733	7306.1
2708.64714	7311.5
2711.25533	7331.2
2713.86191	7319.3
2716.46687	7338.7
2719.07021	7319.7
2721.67194	7341.4
2724.27206	7355.7
2726.87057	7337.8
2729.46747	7322.7
2732.06276	7354.6
2734.65644	7355.5
2737.24852	7371.6
2739.83899	7340.3
2742.42786	7349.4
2745.01513	7330.2
2747.60079	7331.5
2750.18486	7354.8
2752.76733	7360.6
2755.3482	7327.3
2757.92747	7335.2
2760.50515	7322.2
2763.08123	7340.6
2765.65573	7322.8
2768.22863	7312
2770.79994	7280.4
2773.36967	7309.8
2775.9378	7305.4
2778.50435	7314
2781.06932	7296.3
2783.6327	7280.7
2786.1945	7292.1
2788.75471	7285.8
2791.31335	7268.9
2793.87041	7266.5
2796.42589	7226.6
2798.97979	7229.4
2801.53212	7236.9
2804.08288	7242.3
2806.63206	7206.8
2809.17967	7213.6
2811.72571	7159.4
2814.27018	7153
2816.81308	7148.4
2819.35442	7150.7
2821.89419	7130.6
2824.43239	7140.3
2826.96904	7138.7
2829.50412	7157.8
2832.03763	7119.9
2834.56959	7138.6
2837.1	7123.7
2839.62884	7098.4
2842.15613	7098.9
2844.68186	7127.8
2847.20604	7140.3
2849.72867	7136.9
2852.24974	7139.4
2854.76927	7141.8
2857.28724	7122.9
2859.80367	7122.9
2862.31855	7124.9
2864.83189	7103.8
2867.34368	7132.7
2869.85393	7106.6
2872.36264	7104.6
2874.8698	7137
2877.37543	7146.3
2879.87952	7125.4
2882.38207	7131.3
2884.88308	7139.6
2887.38256	7134.5
2889.88051	7151.3
2892.37692	7140.1
2894.8718	7151.9
2897.36515	7170.3
2899.85698	7177
2902.34727	7205.5
2904.83604	7206.4
2907.32328	7232
2909.809	7238.9
2912.29319	7253.3
2914.77587	7245.9
2917.25702	7260.5
2919.73665	7262.3
2922.21476	7249.3
2924.69136	7261.5
2927.16644	7273.9
2929.64	7269.1
2932.11205	7225
2934.58258	7212.9
2937.05161	7259.7
2939.51912	7228.9
2941.98513	7217.7
2944.44962	7213.5
2946.91261	7211.7
2949.37409	7204.2
2951.83407	7203.5
2954.29254	7211.7
2956.74951	7207.9
2959.20498	7202
2961.65895	7168.6
2964.11142	7187
2966.56239	7194
2969.01186	7184.3
2971.45984	7170.6
2973.90632	7161.1
2976.35131	7145.1
2978.7948	7154.8
2981.23681	7123.1
2983.67732	7133.4
2986.11635	7116.8
2988.55388	7101.5
2990.98993	7079.9
2993.4245	7090.6
2995.85758	7070.4
2998.28917	7061.1
3000.71928	7076.1
3003.14791	7025.4
3005.57506	7025.3
3008.00073	7007.7
3010.42493	7024.4
3012.84764	7006.1
3015.26888	7004.4
3017.68865	6999.3
3020.10694	6974.8
3022.52376	6980
3024.9391	6969.2
3027.35298	6970.6
3029.76539	6994.8
3032.17632	6974.4
3034.5858	6956.8
3036.9938	6962.5
3039.40034	6941.3
3041.80542	6958.6
3044.20903	6939.4
3046.61118	6939.2
3049.01187	6931.6
3051.4111	6935.8
3053.80888	6928.8
3056.20519	6931.3
3058.60005	6918.9
3060.99345	6879.5
3063.3854	6895.1
3065.7759	6884.9
3068.16494	6859.9
3070.55254	6845.3
3072.93868	6842.6
3075.32338	6823.9
3077.70662	6846.8
3080.08842	6813.8
3082.46878	6793
3084.84769	6787.8
3087.22515	6787.9
3089.60118	6810.9
3091.97576	6795.9
3094.3489	6809.1
3096.72061	6804.6
3099.09087	6823.3
3101.4597	6834.1
3103.82709	6840.7
3106.19305	6845.6
3108.55757	6846.1
3110.92066	6818.6
3113.28232	6829.9
3115.64255	6806.6
3118.00134	6822.1
3120.35871	6800.5
3122.71466	6811.6
3125.06917	6794.5
3127.42226	6764.7
3129.77393	6777.8
3132.12417	6754.6
3134.47299	6772.2
3136.82039	6767.7
3139.16636	6799
3141.51092	6777.8
3143.85406	6799.4
3146.19579	6795
3148.53609	6808.9
3150.87499	6814.8
3153.21246	6821.3
3155.54853	6839.2
3157.88318	6828.3
3160.21642	6864
3162.54826	6870.8
3164.87868	6863.8
3167.2077	6860.1
3169.5353	6870.5
3171.86151	6897.4
3174.18631	6868.9
3176.5097	6866.8
3178.83169	6856.6
3181.15228	6898.4
3183.47147	6841.3
3185.78926	6867.5
3188.10565	6840.1
3190.42065	6852.5
3192.73424	6872.7
3195.04645	6857.2
3197.35725	6861.7
3199.66667	6864
3201.97469	6865.4
3204.28132	6896.7
3206.58656	6891.8
3208.8904	6882.5
3211.19287	6914.3
3213.49394	6891.3
3215.79363	6918.3
3218.09193	6915
3220.38884	6911.3
3222.68438	6935.3
3224.97853	6905.7
3227.2713	6930.3
3229.56269	6901.4
3231.8527	6934
3234.14133	6917.3
3236.42858	6921.8
3238.71446	6904.6
3240.99896	6907.1
3243.28209	6899.9
3245.56384	6883.1
3247.84423	6878.8
3250.12324	6867.1
3252.40088	6884.7
3254.67715	6884.9
3256.95205	6880.4
3259.22558	6884.7
3261.49775	6901.4
3263.76855	6907.8
3266.03799	6872.7
3268.30606	6870.9
3270.57277	6888.1
3272.83812	6869.2
3275.10211	6853.6
3277.36474	6843
3279.62601	6864.2
3281.88593	6854.2
3284.14448	6863.2
3286.40168	6872.6
3288.65753	6854.9
3290.91202	6841.2
3293.16516	6846.3
3295.41695	6834.4
3297.66738	6801.2
3299.91647	6769.1
3302.16421	6737.2
3304.4106	6722.5
3306.65564	6704.4
3308.89933	6655.1
3311.14169	6626.8
3313.38269	6570.9
3315.62236	6557.4
3317.86068	6515.4
3320.09766	6481.6
3322.3333	6452.3
3324.5676	6436.3
3326.80056	6344.6
3329.03219	6321.7
3331.26248	3
3333.49143	0.4
3335.71905	-0.4
