Data from AgNPs_APTES_FTO_UA_100uM_CRN_0uM_R6G_10uM_Scan_RamanShift__66__16-59-43-003.txt Node

Date: Mon Jul 11 16:59:43 BST 2022
User: TCL
Spectrometer: QEP01345
Trigger mode: 4
Integration Time (sec): 7.000000E0
Scans to average: 10
Electric dark correction enabled: true
Nonlinearity correction enabled: false
Boxcar width: 0
XAxis mode: Raman Shifts
Number of Pixels in Spectrum: 1044
>>>>>Begin Spectral Data<<<<<
46.04893	-0.8625
50.45542	-0.5625
54.85868	-0.6625
59.25871	-0.6625
63.6555	45.2375
68.04907	49.0375
72.43941	50.4375
76.82654	52.6375
81.21044	58.6375
85.59113	60.8375
89.96862	61.9375
94.34289	62.7375
98.71396	63.3375
103.08183	69.5375
107.4465	66.7375
111.80798	69.6375
116.16626	71.0375
120.52136	74.6375
124.87327	79.4375
129.222	79.9375
133.56755	85.4375
137.90993	90.2375
142.24913	100.9375
146.58517	107.7375
150.91804	123.5375
155.24774	142.8375
159.57429	173.6375
163.89768	223.4375
168.21792	292.0375
172.53501	395.5375
176.84895	552.5375
181.15975	767.4375
185.46741	1080.7375
189.77193	1502.9375
194.07331	2023.5375
198.37157	2601.1375
202.6667	3232.5375
206.9587	3841.9375
211.24758	4415.7375
215.53334	5004.7375
219.81599	5608.0375
224.09553	6280.3375
228.37195	6999.1375
232.64527	7815.2375
236.91549	8705.7375
241.18261	9634.9375
245.44663	10545.6375
249.70755	11434.9375
253.96539	12179.2375
258.22014	12826.6375
262.4718	13318.2375
266.72039	13616.4375
270.96589	13730.8375
275.20832	13708.3375
279.44768	13550.5375
283.68397	13353.1375
287.91719	13169.2375
292.14735	12985.5375
296.37445	12786.2375
300.59849	12695.3375
304.81948	12606.5375
309.03742	12559.0375
313.25231	12519.0375
317.46415	12482.0375
321.67296	12502.4375
325.87872	12511.3375
330.08145	12603.7375
334.28114	12710.9375
338.47781	12869.1375
342.67145	13022.8375
346.86207	13185.2375
351.04966	13370.1375
355.23424	13602.9375
359.4158	13781.9375
363.59435	13980.6375
367.76989	14155.7375
371.94243	14341.8375
376.11196	14487.0375
380.27849	14623.0375
384.44203	14756.3375
388.60257	14924.2375
392.76012	15079.1375
396.91468	15235.3375
401.06626	15369.2375
405.21485	15490.9375
409.36047	15576.8375
413.50311	15589.3375
417.64277	15637.3375
421.77947	15674.2375
425.9132	15743.7375
430.04396	15846.9375
434.17176	15948.1375
438.2966	16111.2375
442.41849	16238.2375
446.53742	16464.2375
450.6534	16616.6375
454.76644	16783.9375
458.87653	16916.8375
462.98368	17040.2375
467.08789	17095.1375
471.18916	17099.9375
475.2875	17106.3375
479.38291	17083.4375
483.4754	17112.5375
487.56496	17148.5375
491.6516	17165.7375
495.73531	17180.2375
499.81612	17228.6375
503.89401	17361.3375
507.96899	17406.5375
512.04106	17471.2375
516.11023	17534.7375
520.1765	17586.0375
524.23987	17605.6375
528.30034	17687.9375
532.35792	17740.5375
536.41261	17769.0375
540.46441	17737.8375
544.51333	17749.7375
548.55936	17839.0375
552.60252	17936.3375
556.64279	18082.4375
560.6802	18191.1375
564.71473	18288.8375
568.7464	18288.5375
572.7752	18254.6375
576.80114	18235.0375
580.82422	18319.5375
584.84444	18376.7375
588.86181	18478.1375
592.87633	18548.5375
596.888	18642.4375
600.89682	18793.6375
604.9028	19116.1375
608.90594	19701.4375
612.90624	20179.7375
616.90371	19822.2375
620.89834	19177.6375
624.89015	18980.9375
628.87913	19005.6375
632.86528	19111.5375
636.84862	19252.3375
640.82913	19224.5375
644.80683	19210.3375
648.78172	19193.3375
652.75379	19193.4375
656.72306	19333.3375
660.68952	19477.2375
664.65319	19559.4375
668.61405	19597.5375
672.57211	19704.2375
676.52738	19754.0375
680.47986	19797.7375
684.42955	19831.5375
688.37646	19928.9375
692.32058	20066.0375
696.26192	20207.9375
700.20048	20311.3375
704.13626	20339.0375
708.06928	20330.5375
711.99952	20270.6375
715.927	20278.7375
719.85171	20288.2375
723.77365	20251.4375
727.69284	20215.6375
731.60928	20195.7375
735.52295	20213.7375
739.43388	20229.3375
743.34206	20298.5375
747.24749	20321.6375
751.15017	20402.1375
755.05012	20430.3375
758.94733	20509.2375
762.8418	20711.4375
766.73354	20963.5375
770.62254	21273.3375
774.50882	21472.1375
778.39237	21489.9375
782.27321	21355.6375
786.15132	21141.5375
790.02671	20958.3375
793.89938	20863.0375
797.76935	20822.6375
801.6366	20752.3375
805.50115	20816.7375
809.36299	20827.3375
813.22213	20792.9375
817.07857	20798.8375
820.93231	20816.3375
824.78336	20913.4375
828.63172	20916.3375
832.47738	20967.2375
836.32036	20954.0375
840.16066	21037.2375
843.99827	21070.9375
847.8332	21079.0375
851.66546	21130.5375
855.49504	21159.3375
859.32195	21192.9375
863.1462	21254.3375
866.96777	21292.3375
870.78668	21333.0375
874.60293	21425.3375
878.41652	21435.3375
882.22745	21460.5375
886.03573	21522.0375
889.84136	21550.0375
893.64433	21579.1375
897.44466	21571.7375
901.24235	21592.9375
905.0374	21572.5375
908.8298	21615.4375
912.61957	21628.1375
916.40671	21656.2375
920.19121	21661.0375
923.97308	21650.5375
927.75233	21624.1375
931.52895	21652.0375
935.30295	21657.2375
939.07433	21590.8375
942.84309	21549.4375
946.60924	21568.2375
950.37278	21525.4375
954.13371	21511.4375
957.89203	21492.7375
961.64774	21524.7375
965.40086	21513.3375
969.15137	21497.9375
972.89929	21497.7375
976.64461	21494.0375
980.38733	21495.1375
984.12747	21504.2375
987.86502	21584.7375
991.59999	21610.9375
995.33237	21666.1375
999.06217	21751.0375
1002.78939	21820.4375
1006.51404	21949.2375
1010.23611	22025.4375
1013.95561	22123.8375
1017.67255	22230.4375
1021.38692	22184.1375
1025.09872	22161.9375
1028.80796	22078.0375
1032.51465	22044.7375
1036.21877	22045.5375
1039.92035	22033.1375
1043.61937	22102.6375
1047.31584	22129.5375
1051.00976	22176.6375
1054.70114	22228.4375
1058.38998	22230.8375
1062.07627	22258.3375
1065.76003	22343.3375
1069.44126	22428.8375
1073.11995	22570.3375
1076.79611	22797.9375
1080.46974	22861.8375
1084.14085	22799.8375
1087.80943	22779.5375
1091.47549	22815.7375
1095.13903	22857.8375
1098.80005	22911.3375
1102.45857	22976.1375
1106.11456	22940.3375
1109.76805	22839.9375
1113.41903	22749.8375
1117.06751	22691.5375
1120.71348	22667.4375
1124.35696	22697.7375
1127.99793	22687.4375
1131.63641	22720.3375
1135.2724	22716.5375
1138.90589	22714.4375
1142.5369	22657.0375
1146.16542	22643.9375
1149.79145	22591.6375
1153.415	22460.1375
1157.03607	22400.2375
1160.65467	22375.3375
1164.27079	22445.1375
1167.88443	22530.5375
1171.49561	22683.1375
1175.10432	22919.0375
1178.71056	23147.4375
1182.31434	23444.3375
1185.91565	23684.5375
1189.51451	23895.2375
1193.11091	24047.4375
1196.70485	24078.5375
1200.29634	24008.3375
1203.88538	23918.1375
1207.47197	23753.3375
1211.05612	23630.9375
1214.63782	23534.9375
1218.21708	23367.6375
1221.79391	23175.2375
1225.36829	23099.2375
1228.94024	22998.3375
1232.50976	23007.0375
1236.07685	23010.8375
1239.6415	23024.8375
1243.20374	23067.5375
1246.76355	23147.5375
1250.32093	23237.6375
1253.8759	23308.4375
1257.42845	23521.5375
1260.97859	23657.9375
1264.52631	23775.4375
1268.07163	23837.0375
1271.61453	23881.1375
1275.15503	23887.0375
1278.69312	23891.7375
1282.22882	23865.2375
1285.76211	23814.1375
1289.29301	23831.4375
1292.82151	23845.7375
1296.34761	23989.1375
1299.87133	24089.5375
1303.39266	24248.3375
1306.9116	24506.1375
1310.42815	24759.0375
1313.94233	24931.3375
1317.45412	24997.9375
1320.96354	25039.9375
1324.47058	24885.0375
1327.97525	24615.9375
1331.47754	24478.1375
1334.97747	24342.9375
1338.47502	24437.3375
1341.97022	24791.5375
1345.46305	25221.1375
1348.95352	25600.4375
1352.44163	25757.8375
1355.92738	25714.6375
1359.41078	25639.6375
1362.89183	25444.0375
1366.37053	25103.7375
1369.84688	24561.1375
1373.32088	24063.1375
1376.79254	23642.8375
1380.26186	23357.7375
1383.72883	23185.8375
1387.19347	23018.1375
1390.65578	22851.2375
1394.11575	22652.7375
1397.57339	22533.3375
1401.0287	22438.3375
1404.48168	22408.8375
1407.93234	22360.1375
1411.38068	22420.8375
1414.82669	22400.6375
1418.27039	22316.0375
1421.71177	22255.9375
1425.15083	22189.2375
1428.58758	22156.0375
1432.02203	22116.0375
1435.45416	22093.6375
1438.88399	22069.4375
1442.31151	22077.8375
1445.73673	22084.9375
1449.15965	22090.9375
1452.58027	22099.3375
1455.9986	22069.2375
1459.41463	22094.9375
1462.82837	22232.3375
1466.23982	22359.9375
1469.64898	22502.4375
1473.05586	22647.1375
1476.46045	22660.4375
1479.86276	22695.8375
1483.26279	22755.7375
1486.66054	22738.0375
1490.05602	22822.1375
1493.44922	22920.3375
1496.84016	23121.2375
1500.22882	23409.9375
1503.61521	23714.4375
1506.99934	23945.6375
1510.38121	23989.0375
1513.76081	23897.4375
1517.13816	23667.6375
1520.51324	23438.2375
1523.88607	23279.2375
1527.25665	23168.3375
1530.62498	23087.3375
1533.99105	23024.0375
1537.35488	23081.9375
1540.71647	23109.7375
1544.07581	23114.3375
1547.4329	23157.9375
1550.78776	23138.2375
1554.14038	23053.6375
1557.49077	23033.3375
1560.83892	22981.1375
1564.18484	23021.0375
1567.52853	23077.5375
1570.86999	23098.8375
1574.20922	23099.7375
1577.54624	23148.2375
1580.88103	23053.2375
1584.2136	22905.4375
1587.54395	22886.5375
1590.87208	22953.8375
1594.19801	23044.8375
1597.52172	23253.9375
1600.84321	23429.7375
1604.16251	23490.3375
1607.47959	23393.5375
1610.79447	23137.7375
1614.10715	22743.0375
1617.41763	22372.5375
1620.7259	22146.2375
1624.03199	21978.5375
1627.33587	21900.0375
1630.63757	21871.1375
1633.93707	21886.5375
1637.23439	22081.1375
1640.52951	22303.8375
1643.82246	22692.5375
1647.11321	22915.7375
1650.40179	22942.6375
1653.68819	22706.3375
1656.97241	22267.1375
1660.25446	21859.9375
1663.53433	21559.2375
1666.81203	21361.2375
1670.08756	21224.8375
1673.36092	21092.4375
1676.63211	21004.2375
1679.90115	20938.9375
1683.16801	20862.9375
1686.43272	20859.2375
1689.69527	20765.3375
1692.95567	20743.3375
1696.2139	20770.2375
1699.46999	20798.5375
1702.72392	20764.5375
1705.97571	20755.5375
1709.22535	20774.7375
1712.47284	20774.2375
1715.71819	20744.4375
1718.96139	20713.7375
1722.20246	20725.9375
1725.44139	20664.1375
1728.67818	20607.0375
1731.91284	20546.9375
1735.14537	20479.8375
1738.37576	20412.7375
1741.60403	20378.3375
1744.83017	20336.6375
1748.05418	20292.5375
1751.27607	20263.7375
1754.49584	20201.8375
1757.71349	20239.5375
1760.92903	20225.4375
1764.14244	20194.9375
1767.35375	20199.9375
1770.56294	20144.6375
1773.77002	20173.0375
1776.97499	20103.5375
1780.17785	20138.7375
1783.37861	20084.6375
1786.57727	20074.7375
1789.77382	20035.9375
1792.96828	20056.3375
1796.16064	19992.8375
1799.3509	19968.3375
1802.53907	19959.8375
1805.72514	19883.6375
1808.90913	19847.3375
1812.09102	19806.8375
1815.27083	19770.6375
1818.44856	19779.5375
1821.6242	19745.7375
1824.79776	19716.6375
1827.96924	19709.4375
1831.13864	19694.2375
1834.30597	19666.6375
1837.47122	19624.0375
1840.6344	19611.1375
1843.7955	19588.7375
1846.95454	19588.8375
1850.11151	19625.2375
1853.26642	19564.4375
1856.41926	19574.9375
1859.57004	19585.6375
1862.71876	19563.4375
1865.86542	19537.5375
1869.01003	19513.1375
1872.15258	19480.9375
1875.29308	19472.7375
1878.43152	19465.3375
1881.56792	19432.2375
1884.70227	19382.6375
1887.83457	19380.1375
1890.96482	19326.8375
1894.09304	19317.0375
1897.21921	19274.3375
1900.34335	19257.6375
1903.46544	19233.1375
1906.58551	19195.0375
1909.70353	19203.1375
1912.81953	19172.9375
1915.93349	19135.0375
1919.04543	19073.4375
1922.15534	19072.8375
1925.26322	19044.4375
1928.36908	19010.5375
1931.47292	19001.2375
1934.57473	18914.1375
1937.67453	18878.9375
1940.77232	18839.6375
1943.86808	18772.3375
1946.96184	18774.2375
1950.05358	18744.1375
1953.14331	18689.2375
1956.23103	18623.8375
1959.31675	18572.8375
1962.40046	18508.4375
1965.48217	18453.5375
1968.56188	18415.5375
1971.63959	18370.3375
1974.7153	18296.0375
1977.78901	18241.8375
1980.86073	18203.7375
1983.93046	18142.4375
1986.99819	18078.4375
1990.06394	18041.3375
1993.1277	17994.5375
1996.18947	17931.3375
1999.24925	17888.8375
2002.30706	17844.3375
2005.36288	17779.2375
2008.41672	17737.0375
2011.46859	17708.4375
2014.51848	17638.6375
2017.56639	17568.2375
2020.61233	17518.3375
2023.6563	17441.8375
2026.6983	17418.4375
2029.73833	17360.6375
2032.7764	17315.5375
2035.8125	17276.3375
2038.84664	17236.6375
2041.87881	17226.9375
2044.90903	17203.4375
2047.93729	17133.8375
2050.96359	17126.0375
2053.98794	17091.5375
2057.01034	17063.1375
2060.03078	17103.9375
2063.04927	17046.7375
2066.06582	17074.5375
2069.08042	17030.2375
2072.09307	17040.0375
2075.10378	17026.1375
2078.11255	16996.4375
2081.11938	17016.2375
2084.12426	16996.6375
2087.12722	16969.7375
2090.12824	16975.5375
2093.12732	16950.6375
2096.12447	16949.2375
2099.11969	16923.8375
2102.11299	16947.6375
2105.10435	16940.6375
2108.09379	16985.2375
2111.08131	16976.9375
2114.0669	16994.0375
2117.05057	17037.3375
2120.03233	16997.9375
2123.01216	16970.8375
2125.99008	17003.8375
2128.96609	17042.6375
2131.94018	17045.6375
2134.91236	17071.4375
2137.88263	17038.6375
2140.851	17049.7375
2143.81746	17090.5375
2146.78201	17076.6375
2149.74466	17093.9375
2152.7054	17088.6375
2155.66425	17097.3375
2158.6212	17067.1375
2161.57625	17055.3375
2164.52941	17003.4375
2167.48067	17031.7375
2170.43004	17018.9375
2173.37752	17014.3375
2176.32311	17009.6375
2179.26681	17021.9375
2182.20863	16969.4375
2185.14856	16999.9375
2188.08661	17004.5375
2191.02278	17009.9375
2193.95707	16992.5375
2196.88948	16958.2375
2199.82001	16957.4375
2202.74867	16945.4375
2205.67545	16958.4375
2208.60037	16903.9375
2211.52341	16868.5375
2214.44458	16833.0375
2217.36388	16804.3375
2220.28132	16731.3375
2223.1969	16690.3375
2226.11061	16651.5375
2229.02246	16651.8375
2231.93245	16609.0375
2234.84058	16552.8375
2237.74686	16543.6375
2240.65128	16558.3375
2243.55385	16510.5375
2246.45456	16495.9375
2249.35343	16474.1375
2252.25044	16421.6375
2255.14561	16412.4375
2258.03893	16431.3375
2260.93041	16364.6375
2263.82004	16316.5375
2266.70783	16291.5375
2269.59378	16279.1375
2272.4779	16222.4375
2275.36017	16196.8375
2278.24061	16160.8375
2281.11922	16096.6375
2283.996	16085.3375
2286.87094	16031.7375
2289.74405	15989.9375
2292.61534	15982.6375
2295.4848	15959.9375
2298.35243	15982.0375
2301.21824	15934.6375
2304.08223	15943.0375
2306.94439	15907.2375
2309.80474	15863.8375
2312.66327	15844.7375
2315.51999	15858.3375
2318.37489	15852.1375
2321.22797	15797.7375
2324.07925	15755.2375
2326.92871	15712.2375
2329.77637	15696.8375
2332.62222	15640.1375
2335.46626	15605.1375
2338.3085	15560.3375
2341.14893	15587.8375
2343.98756	15574.1375
2346.8244	15543.8375
2349.65943	15524.8375
2352.49267	15541.1375
2355.32411	15477.3375
2358.15376	15460.9375
2360.98161	15456.5375
2363.80768	15453.1375
2366.63195	15421.3375
2369.45444	15405.6375
2372.27514	15362.2375
2375.09405	15353.2375
2377.91118	15356.2375
2380.72652	15307.0375
2383.54009	15277.3375
2386.35187	15303.4375
2389.16188	15225.6375
2391.97011	15210.4375
2394.77657	15171.9375
2397.58125	15141.4375
2400.38416	15104.7375
2403.18529	15063.8375
2405.98466	15053.4375
2408.78226	15038.9375
2411.57809	14984.0375
2414.37216	14975.7375
2417.16446	14980.1375
2419.955	14951.2375
2422.74378	14977.1375
2425.5308	14941.9375
2428.31606	14944.3375
2431.09956	14930.1375
2433.88131	14874.0375
2436.6613	14882.5375
2439.43954	14824.2375
2442.21603	14846.5375
2444.99077	14805.1375
2447.76377	14795.0375
2450.53501	14764.1375
2453.30451	14733.8375
2456.07226	14719.7375
2458.83827	14656.3375
2461.60254	14618.9375
2464.36507	14635.3375
2467.12586	14634.1375
2469.88492	14610.3375
2472.64224	14578.3375
2475.39782	14562.4375
2478.15167	14559.4375
2480.90379	14520.6375
2483.65417	14583.9375
2486.40283	14519.4375
2489.14976	14510.3375
2491.89497	14498.5375
2494.63845	14487.0375
2497.3802	14440.5375
2500.12024	14432.3375
2502.85855	14418.6375
2505.59514	14411.0375
2508.33002	14374.3375
2511.06318	14343.3375
2513.79462	14311.6375
2516.52435	14307.6375
2519.25237	14272.9375
2521.97867	14220.8375
2524.70327	14236.7375
2527.42616	14191.2375
2530.14734	14174.5375
2532.86681	14187.4375
2535.58458	14174.9375
2538.30065	14150.4375
2541.01501	14119.4375
2543.72768	14066.4375
2546.43864	14075.0375
2549.14791	14035.4375
2551.85548	14026.3375
2554.56136	13955.3375
2557.26554	13910.4375
2559.96803	13922.3375
2562.66883	13871.5375
2565.36794	13845.0375
2568.06536	13823.8375
2570.7611	13793.1375
2573.45514	13777.4375
2576.14751	13750.3375
2578.83819	13730.0375
2581.52719	13689.5375
2584.21451	13660.6375
2586.90015	13656.7375
2589.58411	13611.6375
2592.2664	13584.1375
2594.94701	13539.1375
2597.62594	13533.7375
2600.30321	13524.9375
2602.9788	13514.6375
2605.65273	13472.0375
2608.32498	13436.7375
2610.99557	13419.4375
2613.66449	13403.5375
2616.33175	13383.9375
2618.99734	13355.9375
2621.66128	13308.2375
2624.32355	13298.3375
2626.98416	13265.9375
2629.64311	13215.6375
2632.30041	13244.7375
2634.95605	13213.5375
2637.61004	13163.3375
2640.26238	13130.3375
2642.91306	13121.8375
2645.56209	13099.7375
2648.20948	13076.2375
2650.85521	13055.5375
2653.4993	13067.5375
2656.14175	13048.2375
2658.78255	13034.8375
2661.42171	13021.6375
2664.05923	13047.1375
2666.6951	13034.6375
2669.32934	13049.2375
2671.96194	13038.0375
2674.59291	13036.3375
2677.22224	13012.2375
2679.84993	13023.4375
2682.476	12987.0375
2685.10043	12994.3375
2687.72324	12964.7375
2690.34441	12977.4375
2692.96396	12950.3375
2695.58188	12984.1375
2698.19818	12943.3375
2700.81285	12930.6375
2703.4259	12933.8375
2706.03733	12933.3375
2708.64714	12891.0375
2711.25533	12930.4375
2713.86191	12898.4375
2716.46687	12923.5375
2719.07021	12914.5375
2721.67194	12934.4375
2724.27206	12885.8375
2726.87057	12910.9375
2729.46747	12876.5375
2732.06276	12897.5375
2734.65644	12901.5375
2737.24852	12924.8375
2739.83899	12862.7375
2742.42786	12837.3375
2745.01513	12797.0375
2747.60079	12803.0375
2750.18486	12785.9375
2752.76733	12753.8375
2755.3482	12721.2375
2757.92747	12725.3375
2760.50515	12682.4375
2763.08123	12673.7375
2765.65573	12666.7375
2768.22863	12632.7375
2770.79994	12578.6375
2773.36967	12596.6375
2775.9378	12548.8375
2778.50435	12518.2375
2781.06932	12491.7375
2783.6327	12511.2375
2786.1945	12469.3375
2788.75471	12432.4375
2791.31335	12414.4375
2793.87041	12399.3375
2796.42589	12346.6375
2798.97979	12358.9375
2801.53212	12305.0375
2804.08288	12280.1375
2806.63206	12229.7375
2809.17967	12193.1375
2811.72571	12159.1375
2814.27018	12120.6375
2816.81308	12132.8375
2819.35442	12091.4375
2821.89419	12049.5375
2824.43239	12035.0375
2826.96904	12000.2375
2829.50412	12006.7375
2832.03763	11940.0375
2834.56959	11960.1375
2837.1	11921.6375
2839.62884	11924.9375
2842.15613	11886.8375
2844.68186	11881.8375
2847.20604	11885.5375
2849.72867	11873.8375
2852.24974	11845.8375
2854.76927	11830.0375
2857.28724	11783.7375
2859.80367	11771.9375
2862.31855	11738.2375
2864.83189	11729.6375
2867.34368	11681.1375
2869.85393	11668.6375
2872.36264	11675.2375
2874.8698	11673.6375
2877.37543	11660.4375
2879.87952	11648.3375
2882.38207	11605.3375
2884.88308	11610.1375
2887.38256	11606.6375
2889.88051	11586.3375
2892.37692	11577.2375
2894.8718	11586.7375
2897.36515	11588.5375
2899.85698	11587.3375
2902.34727	11596.4375
2904.83604	11601.8375
2907.32328	11602.3375
2909.809	11603.1375
2912.29319	11597.8375
2914.77587	11569.8375
2917.25702	11580.0375
2919.73665	11565.7375
2922.21476	11542.0375
2924.69136	11525.4375
2927.16644	11495.5375
2929.64	11520.6375
2932.11205	11484.6375
2934.58258	11433.0375
2937.05161	11484.2375
2939.51912	11442.9375
2941.98513	11459.0375
2944.44962	11424.6375
2946.91261	11399.6375
2949.37409	11410.8375
2951.83407	11414.0375
2954.29254	11418.6375
2956.74951	11393.2375
2959.20498	11394.0375
2961.65895	11388.8375
2964.11142	11432.8375
2966.56239	11430.1375
2969.01186	11423.0375
2971.45984	11387.5375
2973.90632	11352.8375
2976.35131	11349.8375
2978.7948	11322.4375
2981.23681	11315.4375
2983.67732	11298.0375
2986.11635	11284.5375
2988.55388	11229.0375
2990.98993	11239.4375
2993.4245	11207.8375
2995.85758	11189.0375
2998.28917	11155.7375
3000.71928	11131.8375
3003.14791	11117.6375
3005.57506	11083.3375
3008.00073	11047.2375
3010.42493	11050.4375
3012.84764	11014.1375
3015.26888	11035.2375
3017.68865	10981.2375
3020.10694	10974.1375
3022.52376	10967.4375
3024.9391	10966.0375
3027.35298	10951.9375
3029.76539	10908.4375
3032.17632	10892.2375
3034.5858	10883.6375
3036.9938	10880.2375
3039.40034	10845.2375
3041.80542	10852.8375
3044.20903	10811.2375
3046.61118	10832.3375
3049.01187	10791.2375
3051.4111	10777.1375
3053.80888	10735.4375
3056.20519	10754.7375
3058.60005	10722.6375
3060.99345	10685.0375
3063.3854	10663.1375
3065.7759	10641.3375
3068.16494	10635.2375
3070.55254	10612.6375
3072.93868	10581.9375
3075.32338	10567.4375
3077.70662	10541.1375
3080.08842	10509.1375
3082.46878	10477.8375
3084.84769	10482.8375
3087.22515	10490.3375
3089.60118	10476.1375
3091.97576	10484.9375
3094.3489	10510.7375
3096.72061	10508.4375
3099.09087	10492.1375
3101.4597	10487.8375
3103.82709	10474.2375
3106.19305	10476.8375
3108.55757	10480.8375
3110.92066	10472.0375
3113.28232	10479.1375
3115.64255	10420.5375
3118.00134	10374.6375
3120.35871	10348.4375
3122.71466	10360.3375
3125.06917	10329.3375
3127.42226	10297.6375
3129.77393	10287.9375
3132.12417	10269.5375
3134.47299	10281.9375
3136.82039	10246.9375
3139.16636	10250.6375
3141.51092	10257.1375
3143.85406	10239.0375
3146.19579	10226.1375
3148.53609	10262.1375
3150.87499	10278.5375
3153.21246	10263.8375
3155.54853	10285.7375
3157.88318	10267.6375
3160.21642	10262.3375
3162.54826	10258.4375
3164.87868	10265.0375
3167.2077	10246.4375
3169.5353	10280.6375
3171.86151	10268.3375
3174.18631	10266.6375
3176.5097	10230.5375
3178.83169	10198.1375
3181.15228	10199.8375
3183.47147	10187.4375
3185.78926	10158.0375
3188.10565	10138.8375
3190.42065	10141.3375
3192.73424	10123.8375
3195.04645	10112.9375
3197.35725	10118.8375
3199.66667	10101.1375
3201.97469	10135.5375
3204.28132	10094.4375
3206.58656	10103.6375
3208.8904	10101.3375
3211.19287	10099.4375
3213.49394	10084.9375
3215.79363	10087.4375
3218.09193	10107.9375
3220.38884	10127.3375
3222.68438	10102.0375
3224.97853	10072.7375
3227.2713	10085.7375
3229.56269	10055.0375
3231.8527	10048.8375
3234.14133	10030.2375
3236.42858	10008.4375
3238.71446	9983.8375
3240.99896	9964.5375
3243.28209	9957.5375
3245.56384	9942.6375
3247.84423	9916.7375
3250.12324	9892.6375
3252.40088	9882.5375
3254.67715	9906.3375
3256.95205	9885.7375
3259.22558	9871.9375
3261.49775	9877.3375
3263.76855	9886.0375
3266.03799	9873.4375
3268.30606	9864.5375
3270.57277	9825.1375
3272.83812	9802.3375
3275.10211	9787.8375
3277.36474	9758.0375
3279.62601	9750.2375
3281.88593	9743.3375
3284.14448	9710.7375
3286.40168	9721.9375
3288.65753	9713.7375
3290.91202	9703.4375
3293.16516	9661.7375
3295.41695	9648.0375
3297.66738	9601.9375
3299.91647	9569.9375
3302.16421	9516.1375
3304.4106	9509.0375
3306.65564	9403.2375
3308.89933	9364.4375
3311.14169	9304.7375
3313.38269	9218.2375
3315.62236	9188.3375
3317.86068	9141.0375
3320.09766	9084.5375
3322.3333	9026.5375
3324.5676	8976.8375
3326.80056	8868.5375
3329.03219	8809.7375
3331.26248	4.6375
3333.49143	-0.4625
3335.71905	-1.8625
