Data from AgNPs_APTES_FTO_UA_100uM_CRN_0uM_R6G_10uM_Scan_RamanShift__48__16-38-42-982.txt Node

Date: Mon Jul 11 16:38:42 BST 2022
User: TCL
Spectrometer: QEP01345
Trigger mode: 4
Integration Time (sec): 7.000000E0
Scans to average: 10
Electric dark correction enabled: true
Nonlinearity correction enabled: false
Boxcar width: 0
XAxis mode: Raman Shifts
Number of Pixels in Spectrum: 1044
>>>>>Begin Spectral Data<<<<<
46.04893	-0.9
50.45542	-0.6
54.85868	-0.1
59.25871	-2.3
63.6555	61.1
68.04907	63.3
72.43941	67.1
76.82654	69.8
81.21044	72.5
85.59113	72.9
89.96862	79.5
94.34289	81.6
98.71396	82.6
103.08183	87.6
107.4465	88.2
111.80798	87.6
116.16626	91.9
120.52136	97.6
124.87327	102.6
129.222	109
133.56755	115.1
137.90993	127.4
142.24913	138
146.58517	153.5
150.91804	178.2
155.24774	216.6
159.57429	263.8
163.89768	339.4
168.21792	454.3
172.53501	617.6
176.84895	862.8
181.15975	1205.3
185.46741	1701
189.77193	2362.6
194.07331	3151.9
198.37157	4082.2
202.6667	5062.1
206.9587	6027.4
211.24758	6977.9
215.53334	7924.9
219.81599	8980.3
224.09553	10109.1
228.37195	11364.9
232.64527	12747.2
236.91549	14179.6
241.18261	15574.7
245.44663	16821.8
249.70755	17918.5
253.96539	18803
258.22014	19533.3
262.4718	20048.9
266.72039	20317.5
270.96589	20347.8
275.20832	20146.5
279.44768	19780.9
283.68397	19336
287.91719	18963.7
292.14735	18734.4
296.37445	18622.3
300.59849	18677.2
304.81948	18821.1
309.03742	18934.4
313.25231	18844.5
317.46415	18496.3
321.67296	18034
325.87872	17615
330.08145	17462.1
334.28114	17467.6
338.47781	17618.5
342.67145	17847.9
346.86207	18231.3
351.04966	18659.6
355.23424	19099.5
359.4158	19502.7
363.59435	19697.6
367.76989	19866.9
371.94243	19927.5
376.11196	19949.8
380.27849	19985.6
384.44203	20001.3
388.60257	20109.1
392.76012	20299.2
396.91468	20550.3
401.06626	20874.2
405.21485	21075.3
409.36047	20869.7
413.50311	20532.8
417.64277	20234.9
421.77947	20095.4
425.9132	20123.7
430.04396	20188.9
434.17176	20246.1
438.2966	20421.4
442.41849	20713.6
446.53742	21072.3
450.6534	21451
454.76644	21687.5
458.87653	21730.9
462.98368	21700.8
467.08789	21599.1
471.18916	21358.3
475.2875	21082.7
479.38291	20838.5
483.4754	20725
487.56496	20675.8
491.6516	20716.4
495.73531	20868.5
499.81612	21015.2
503.89401	21259.1
507.96899	21352.6
512.04106	21435.7
516.11023	21403.7
520.1765	21359.2
524.23987	21303.9
528.30034	21201.9
532.35792	21054
536.41261	20858.9
540.46441	20653.2
544.51333	20564.5
548.55936	20714.8
552.60252	20941.3
556.64279	21262.9
560.6802	21436
564.71473	21587.7
568.7464	21805.4
572.7752	21960.1
576.80114	21997.3
580.82422	22209.2
584.84444	22602.9
588.86181	23067
592.87633	23439.6
596.888	23547.6
600.89682	23627.5
604.9028	24658.3
608.90594	27560.8
612.90624	30184.2
616.90371	27971.2
620.89834	23656.2
624.89015	21978
628.87913	21829.6
632.86528	22213.2
636.84862	22446.1
640.82913	22275.7
644.80683	21903.4
648.78172	21550.2
652.75379	21615.5
656.72306	21946.8
660.68952	22261.2
664.65319	22018.1
668.61405	21664
672.57211	21621.6
676.52738	21823.4
680.47986	21840.6
684.42955	21883.8
688.37646	21951.7
692.32058	21987.3
696.26192	22005.9
700.20048	21946.6
704.13626	21906.2
708.06928	21750
711.99952	21526.7
715.927	21507.8
719.85171	21526.5
723.77365	21487.3
727.69284	21339.3
731.60928	21270.3
735.52295	21275.6
739.43388	21381.5
743.34206	21445.6
747.24749	21515.8
751.15017	21555.9
755.05012	21768.3
758.94733	22307.9
762.8418	23474.1
766.73354	25318.1
770.62254	26897.7
774.50882	27242
778.39237	26268
782.27321	24550.7
786.15132	23128.3
790.02671	22210.8
793.89938	21751
797.76935	21562.4
801.6366	21501
805.50115	21502.6
809.36299	21465.4
813.22213	21425.8
817.07857	21293.2
820.93231	21152.8
824.78336	21056.1
828.63172	20977
832.47738	20943.3
836.32036	20907.1
840.16066	20829.6
843.99827	20820.3
847.8332	20895.3
851.66546	20937.2
855.49504	20961.2
859.32195	21039.7
863.1462	20987.1
866.96777	21011.1
870.78668	21069.9
874.60293	21130.4
878.41652	21191.3
882.22745	21291.7
886.03573	21393.9
889.84136	21398.4
893.64433	21364.9
897.44466	21264
901.24235	21164.6
905.0374	21106.3
908.8298	21030.9
912.61957	20985.8
916.40671	21005.6
920.19121	21071.1
923.97308	21219.2
927.75233	21278.4
931.52895	21273.2
935.30295	21118.4
939.07433	20839.6
942.84309	20630.6
946.60924	20561.2
950.37278	20521
954.13371	20529.6
957.89203	20528.4
961.64774	20527.9
965.40086	20490.3
969.15137	20549.7
972.89929	20523.8
976.64461	20503.7
980.38733	20525.2
984.12747	20549.2
987.86502	20598.6
991.59999	20705.6
995.33237	20800.6
999.06217	21039.3
1002.78939	21313.4
1006.51404	21678.2
1010.23611	22063.6
1013.95561	22217.9
1017.67255	22228.3
1021.38692	22099.2
1025.09872	21812
1028.80796	21563.5
1032.51465	21521.7
1036.21877	21483.6
1039.92035	21580.2
1043.61937	21604.1
1047.31584	21656.4
1051.00976	21672.8
1054.70114	21710.4
1058.38998	21764.3
1062.07627	21874.8
1065.76003	22066.9
1069.44126	22345.8
1073.11995	22723.2
1076.79611	23102.8
1080.46974	23336.5
1084.14085	23537.7
1087.80943	23732.9
1091.47549	23773.5
1095.13903	23704.4
1098.80005	23389.1
1102.45857	23066.5
1106.11456	22874.6
1109.76805	22794.7
1113.41903	22832.5
1117.06751	23096.1
1120.71348	23441.7
1124.35696	23922.4
1127.99793	24421.2
1131.63641	24562.6
1135.2724	24395.1
1138.90589	24224.9
1142.5369	24044.2
1146.16542	23841.7
1149.79145	23673.6
1153.415	23448.7
1157.03607	23345.8
1160.65467	23446.7
1164.27079	23837.7
1167.88443	24521
1171.49561	25480.2
1175.10432	26881.6
1178.71056	28694.9
1182.31434	30289
1185.91565	30926.8
1189.51451	30940.3
1193.11091	30382.5
1196.70485	29575.3
1200.29634	28762.1
1203.88538	28060.5
1207.47197	27359.6
1211.05612	26767.7
1214.63782	26261.7
1218.21708	25846.8
1221.79391	25589.4
1225.36829	25476.3
1228.94024	25378.3
1232.50976	25261.3
1236.07685	25122.3
1239.6415	24992.4
1243.20374	25031.9
1246.76355	25114.3
1250.32093	25369.4
1253.8759	25707.2
1257.42845	26187.2
1260.97859	26792.8
1264.52631	27385.5
1268.07163	27937.2
1271.61453	28415.3
1275.15503	28706.2
1278.69312	28906.6
1282.22882	29117.4
1285.76211	29498.4
1289.29301	30055.1
1292.82151	30758.1
1296.34761	31613.9
1299.87133	32672.6
1303.39266	34099.3
1306.9116	35945.7
1310.42815	37710.8
1313.94233	38538.5
1317.45412	37887.3
1320.96354	36617.8
1324.47058	35364.9
1327.97525	34383.2
1331.47754	33727.1
1334.97747	33585.6
1338.47502	33835.1
1341.97022	34438.8
1345.46305	35365
1348.95352	36405.4
1352.44163	37527
1355.92738	38883.1
1359.41078	40826.1
1362.89183	42499.1
1366.37053	41404.6
1369.84688	37662.2
1373.32088	33777.4
1376.79254	31354.8
1380.26186	30167.4
1383.72883	29610.6
1387.19347	29070.4
1390.65578	28543.3
1394.11575	28022.5
1397.57339	27653.9
1401.0287	27479.7
1404.48168	27388.1
1407.93234	27339.6
1411.38068	27222.2
1414.82669	27037.7
1418.27039	26734.3
1421.71177	26411.7
1425.15083	26167.3
1428.58758	26080.1
1432.02203	26289.7
1435.45416	26601.7
1438.88399	26900.9
1442.31151	27079.4
1445.73673	27122.5
1449.15965	27239.2
1452.58027	27252.3
1455.9986	27272.3
1459.41463	27486.8
1462.82837	27889.7
1466.23982	28327.6
1469.64898	28740.4
1473.05586	29053.6
1476.46045	29197.6
1479.86276	29244.2
1483.26279	29312.7
1486.66054	29547.4
1490.05602	29957.5
1493.44922	30605.8
1496.84016	31568
1500.22882	33085.7
1503.61521	35081.4
1506.99934	37062.1
1510.38121	38306.5
1513.76081	38078.3
1517.13816	36345.5
1520.51324	33955.3
1523.88607	31911
1527.25665	30718.6
1530.62498	30157.8
1533.99105	29905.7
1537.35488	29699.2
1540.71647	29374.6
1544.07581	29047.3
1547.4329	28829.8
1550.78776	28552.8
1554.14038	28452.3
1557.49077	28421.3
1560.83892	28582.9
1564.18484	28841.1
1567.52853	29193.4
1570.86999	29512.6
1574.20922	29763.5
1577.54624	29664.8
1580.88103	29010
1584.2136	28305.8
1587.54395	28116
1590.87208	28509.5
1594.19801	29420.1
1597.52172	30534.4
1600.84321	30845.7
1604.16251	30287.6
1607.47959	29191.1
1610.79447	27881.1
1614.10715	26466.9
1617.41763	25301.6
1620.7259	24485.4
1624.03199	24028.9
1627.33587	23917.5
1630.63757	24251.9
1633.93707	25069
1637.23439	26441.6
1640.52951	28461.3
1643.82246	30978.8
1647.11321	33138.2
1650.40179	33832.9
1653.68819	32297.3
1656.97241	29267.2
1660.25446	26291.3
1663.53433	24176
1666.81203	22891.8
1670.08756	22057.2
1673.36092	21543.8
1676.63211	21170.8
1679.90115	20888.6
1683.16801	20584
1686.43272	20372.7
1689.69527	20135.3
1692.95567	19968.1
1696.2139	19829.5
1699.46999	19709.3
1702.72392	19601.4
1705.97571	19525
1709.22535	19490.3
1712.47284	19442.2
1715.71819	19377.2
1718.96139	19336
1722.20246	19265.3
1725.44139	19171
1728.67818	19062.2
1731.91284	18972.3
1735.14537	18861.8
1738.37576	18772.6
1741.60403	18692.2
1744.83017	18665
1748.05418	18633.2
1751.27607	18570.8
1754.49584	18502.5
1757.71349	18470.1
1760.92903	18432.8
1764.14244	18398.5
1767.35375	18386
1770.56294	18351.6
1773.77002	18331.2
1776.97499	18304.8
1780.17785	18226.8
1783.37861	18219.3
1786.57727	18225
1789.77382	18138.7
1792.96828	18125.4
1796.16064	18116.2
1799.3509	18109.5
1802.53907	18073.7
1805.72514	18030.1
1808.90913	17925.7
1812.09102	17874.6
1815.27083	17865.4
1818.44856	17861.9
1821.6242	17821.7
1824.79776	17835.8
1827.96924	17828.7
1831.13864	17782.7
1834.30597	17725.8
1837.47122	17741
1840.6344	17723
1843.7955	17728
1846.95454	17692.2
1850.11151	17698.7
1853.26642	17668.5
1856.41926	17704.9
1859.57004	17646.2
1862.71876	17688.5
1865.86542	17615.2
1869.01003	17591.6
1872.15258	17554.3
1875.29308	17569.5
1878.43152	17523.6
1881.56792	17507.7
1884.70227	17460.2
1887.83457	17455.7
1890.96482	17439.9
1894.09304	17400.1
1897.21921	17388.6
1900.34335	17336.7
1903.46544	17315.2
1906.58551	17327.8
1909.70353	17318.4
1912.81953	17282.5
1915.93349	17230.2
1919.04543	17218.1
1922.15534	17181.9
1925.26322	17168.3
1928.36908	17117.4
1931.47292	17101.6
1934.57473	17083.2
1937.67453	17008
1940.77232	16964.5
1943.86808	16927.7
1946.96184	16877.4
1950.05358	16839.4
1953.14331	16812.7
1956.23103	16754.6
1959.31675	16706
1962.40046	16657.7
1965.48217	16613.8
1968.56188	16558.5
1971.63959	16524.5
1974.7153	16485.2
1977.78901	16407.5
1980.86073	16351.8
1983.93046	16298.3
1986.99819	16261.5
1990.06394	16225.5
1993.1277	16202.6
1996.18947	16116.6
1999.24925	16079.1
2002.30706	16046.6
2005.36288	15980.3
2008.41672	15960.4
2011.46859	15911.2
2014.51848	15902.5
2017.56639	15824.9
2020.61233	15789.8
2023.6563	15771.5
2026.6983	15721.3
2029.73833	15693.8
2032.7764	15642.5
2035.8125	15595.5
2038.84664	15512.6
2041.87881	15526.5
2044.90903	15536
2047.93729	15468.1
2050.96359	15510.5
2053.98794	15426.4
2057.01034	15409.8
2060.03078	15391.5
2063.04927	15386
2066.06582	15378.6
2069.08042	15379.4
2072.09307	15377
2075.10378	15335.5
2078.11255	15355.4
2081.11938	15331.9
2084.12426	15338.5
2087.12722	15308.1
2090.12824	15329.2
2093.12732	15345.2
2096.12447	15363.6
2099.11969	15333.7
2102.11299	15369.9
2105.10435	15353.5
2108.09379	15327.3
2111.08131	15327.2
2114.0669	15354.1
2117.05057	15345
2120.03233	15386.6
2123.01216	15366.7
2125.99008	15397.7
2128.96609	15398.2
2131.94018	15437.6
2134.91236	15410.1
2137.88263	15444.2
2140.851	15449.6
2143.81746	15431.1
2146.78201	15431.7
2149.74466	15446.2
2152.7054	15451.6
2155.66425	15418.6
2158.6212	15408.9
2161.57625	15400.6
2164.52941	15388.6
2167.48067	15404.3
2170.43004	15387.4
2173.37752	15390.4
2176.32311	15365.2
2179.26681	15364.5
2182.20863	15373.1
2185.14856	15398.8
2188.08661	15399.4
2191.02278	15375.5
2193.95707	15350.4
2196.88948	15381
2199.82001	15356
2202.74867	15332.1
2205.67545	15294.6
2208.60037	15273.3
2211.52341	15243.3
2214.44458	15260.3
2217.36388	15216.2
2220.28132	15159.1
2223.1969	15121.3
2226.11061	15099.2
2229.02246	15071.7
2231.93245	15039.7
2234.84058	15004.3
2237.74686	14993.5
2240.65128	14975.6
2243.55385	14975.2
2246.45456	14960.4
2249.35343	14934.2
2252.25044	14878.8
2255.14561	14904.1
2258.03893	14897.3
2260.93041	14845.1
2263.82004	14823.3
2266.70783	14788.1
2269.59378	14743.1
2272.4779	14718.8
2275.36017	14700.8
2278.24061	14698.3
2281.11922	14639.9
2283.996	14650.2
2286.87094	14602
2289.74405	14569
2292.61534	14559.3
2295.4848	14519.9
2298.35243	14527.3
2301.21824	14491.8
2304.08223	14487.9
2306.94439	14501
2309.80474	14489.4
2312.66327	14492.3
2315.51999	14458.7
2318.37489	14445.5
2321.22797	14417.4
2324.07925	14380.8
2326.92871	14353.6
2329.77637	14353.7
2332.62222	14287.3
2335.46626	14278.8
2338.3085	14259.6
2341.14893	14241.2
2343.98756	14269.7
2346.8244	14265.9
2349.65943	14238.4
2352.49267	14219.5
2355.32411	14263.3
2358.15376	14236.9
2360.98161	14244.1
2363.80768	14248.1
2366.63195	14267.1
2369.45444	14214.5
2372.27514	14179.5
2375.09405	14187.1
2377.91118	14164.2
2380.72652	14159.2
2383.54009	14051.7
2386.35187	14064.8
2389.16188	14036.2
2391.97011	14018.5
2394.77657	13985.9
2397.58125	13967.1
2400.38416	13941.2
2403.18529	13917.2
2405.98466	13908.2
2408.78226	13877.7
2411.57809	13851.3
2414.37216	13815.6
2417.16446	13823.4
2419.955	13808.6
2422.74378	13804.1
2425.5308	13800.7
2428.31606	13802.9
2431.09956	13757.9
2433.88131	13754.2
2436.6613	13763.1
2439.43954	13739.9
2442.21603	13743.8
2444.99077	13726
2447.76377	13720.3
2450.53501	13706.9
2453.30451	13702.3
2456.07226	13680.8
2458.83827	13682.7
2461.60254	13641.3
2464.36507	13638.3
2467.12586	13613.9
2469.88492	13640.4
2472.64224	13628.4
2475.39782	13636
2478.15167	13623.1
2480.90379	13615
2483.65417	13622.9
2486.40283	13653.6
2489.14976	13606.5
2491.89497	13602.4
2494.63845	13558.8
2497.3802	13565.5
2500.12024	13555.4
2502.85855	13553.4
2505.59514	13562.7
2508.33002	13518.5
2511.06318	13476
2513.79462	13428.2
2516.52435	13438.7
2519.25237	13412.6
2521.97867	13372.9
2524.70327	13362.9
2527.42616	13383.1
2530.14734	13361.5
2532.86681	13334
2535.58458	13367.3
2538.30065	13295.9
2541.01501	13334.3
2543.72768	13274.8
2546.43864	13289
2549.14791	13294.7
2551.85548	13270.8
2554.56136	13226
2557.26554	13235.6
2559.96803	13198
2562.66883	13191.6
2565.36794	13161.4
2568.06536	13151.7
2570.7611	13107.5
2573.45514	13086.9
2576.14751	13069.5
2578.83819	13059
2581.52719	13029.5
2584.21451	13031.3
2586.90015	13000.9
2589.58411	12950.9
2592.2664	12956.2
2594.94701	12926.6
2597.62594	12927.7
2600.30321	12908.9
2602.9788	12891.1
2605.65273	12884.9
2608.32498	12880.5
2610.99557	12850.9
2613.66449	12836.6
2616.33175	12846.5
2618.99734	12830.2
2621.66128	12793.8
2624.32355	12804.3
2626.98416	12769.4
2629.64311	12721.9
2632.30041	12711.9
2634.95605	12726
2637.61004	12696.7
2640.26238	12671.2
2642.91306	12694.2
2645.56209	12644.2
2648.20948	12602.4
2650.85521	12616.8
2653.4993	12623.5
2656.14175	12632.1
2658.78255	12638.4
2661.42171	12601.5
2664.05923	12682.1
2666.6951	12643.2
2669.32934	12674.5
2671.96194	12670.8
2674.59291	12665.9
2677.22224	12675.6
2679.84993	12674.3
2682.476	12672.2
2685.10043	12685
2687.72324	12631.6
2690.34441	12608.2
2692.96396	12617.3
2695.58188	12639.9
2698.19818	12603.6
2700.81285	12633.5
2703.4259	12611.8
2706.03733	12661.6
2708.64714	12612.4
2711.25533	12659.2
2713.86191	12662
2716.46687	12694
2719.07021	12680.1
2721.67194	12679.2
2724.27206	12643.3
2726.87057	12628.3
2729.46747	12650.7
2732.06276	12646.3
2734.65644	12675.5
2737.24852	12649.9
2739.83899	12610.6
2742.42786	12621
2745.01513	12578.6
2747.60079	12569.6
2750.18486	12575.6
2752.76733	12573.1
2755.3482	12536.5
2757.92747	12532.1
2760.50515	12467.4
2763.08123	12457.8
2765.65573	12439.8
2768.22863	12462.6
2770.79994	12424.8
2773.36967	12445.6
2775.9378	12405.4
2778.50435	12389.1
2781.06932	12392.7
2783.6327	12385.4
2786.1945	12335.7
2788.75471	12322.4
2791.31335	12305.7
2793.87041	12280.8
2796.42589	12240.6
2798.97979	12236.7
2801.53212	12199.7
2804.08288	12183.9
2806.63206	12136.8
2809.17967	12126.7
2811.72571	12107.7
2814.27018	12075.5
2816.81308	12058.1
2819.35442	12023
2821.89419	12008.6
2824.43239	12012
2826.96904	11971.8
2829.50412	11982.8
2832.03763	11939.6
2834.56959	11946.9
2837.1	11908.2
2839.62884	11890.1
2842.15613	11884.1
2844.68186	11908.4
2847.20604	11915.3
2849.72867	11886.3
2852.24974	11864.4
2854.76927	11878.6
2857.28724	11842.6
2859.80367	11826.4
2862.31855	11824.5
2864.83189	11848.7
2867.34368	11779.4
2869.85393	11837.9
2872.36264	11774.8
2874.8698	11766.9
2877.37543	11786.3
2879.87952	11767.8
2882.38207	11767.4
2884.88308	11741.8
2887.38256	11744.7
2889.88051	11721.1
2892.37692	11736.3
2894.8718	11739.7
2897.36515	11748.1
2899.85698	11771.5
2902.34727	11772.1
2904.83604	11744.6
2907.32328	11795.2
2909.809	11780.9
2912.29319	11780.6
2914.77587	11772.3
2917.25702	11779.9
2919.73665	11755.5
2922.21476	11753.6
2924.69136	11732.2
2927.16644	11735.6
2929.64	11717.5
2932.11205	11699
2934.58258	11679.7
2937.05161	11684.9
2939.51912	11672.2
2941.98513	11663.7
2944.44962	11632.9
2946.91261	11575.8
2949.37409	11602.1
2951.83407	11595.9
2954.29254	11595
2956.74951	11610.2
2959.20498	11584.2
2961.65895	11619.7
2964.11142	11612.7
2966.56239	11560.6
2969.01186	11558.9
2971.45984	11535.2
2973.90632	11518.1
2976.35131	11500.9
2978.7948	11483.9
2981.23681	11452.2
2983.67732	11445.2
2986.11635	11394.3
2988.55388	11380
2990.98993	11396
2993.4245	11360.3
2995.85758	11346.7
2998.28917	11332.2
3000.71928	11280.6
3003.14791	11263.8
3005.57506	11266.5
3008.00073	11208.4
3010.42493	11210.2
3012.84764	11202.5
3015.26888	11221.2
3017.68865	11174
3020.10694	11168.3
3022.52376	11133.6
3024.9391	11151
3027.35298	11096.8
3029.76539	11081.3
3032.17632	11055
3034.5858	11052
3036.9938	11038.4
3039.40034	11024.1
3041.80542	11033.5
3044.20903	11012.7
3046.61118	10996.9
3049.01187	10965.1
3051.4111	10929.1
3053.80888	10920.1
3056.20519	10914.2
3058.60005	10884.2
3060.99345	10870.7
3063.3854	10873.5
3065.7759	10853
3068.16494	10821.7
3070.55254	10801.7
3072.93868	10744.8
3075.32338	10739.3
3077.70662	10719.4
3080.08842	10680.5
3082.46878	10690
3084.84769	10671.9
3087.22515	10675.2
3089.60118	10656.8
3091.97576	10652.5
3094.3489	10643.9
3096.72061	10645.6
3099.09087	10657.8
3101.4597	10661.3
3103.82709	10665.1
3106.19305	10630
3108.55757	10660.3
3110.92066	10617.4
3113.28232	10610.6
3115.64255	10584.8
3118.00134	10541.5
3120.35871	10550
3122.71466	10513.4
3125.06917	10505.3
3127.42226	10457.8
3129.77393	10465.7
3132.12417	10461.8
3134.47299	10428.6
3136.82039	10441.6
3139.16636	10431.3
3141.51092	10435.3
3143.85406	10431.3
3146.19579	10408.3
3148.53609	10430.1
3150.87499	10421.8
3153.21246	10419.8
3155.54853	10432
3157.88318	10406.4
3160.21642	10453.4
3162.54826	10443.8
3164.87868	10424.3
3167.2077	10422.9
3169.5353	10432.2
3171.86151	10435.6
3174.18631	10433
3176.5097	10433.2
3178.83169	10407.5
3181.15228	10382.7
3183.47147	10354.2
3185.78926	10324.6
3188.10565	10322.3
3190.42065	10294.7
3192.73424	10311.4
3195.04645	10278
3197.35725	10271.4
3199.66667	10284.9
3201.97469	10264.4
3204.28132	10246.8
3206.58656	10268.7
3208.8904	10276.4
3211.19287	10291.8
3213.49394	10290.6
3215.79363	10276.4
3218.09193	10292.1
3220.38884	10289.2
3222.68438	10313.9
3224.97853	10270.4
3227.2713	10260.5
3229.56269	10259.9
3231.8527	10255.8
3234.14133	10231.6
3236.42858	10205.8
3238.71446	10193.5
3240.99896	10143.5
3243.28209	10146.6
3245.56384	10119.5
3247.84423	10107.2
3250.12324	10082.9
3252.40088	10072.9
3254.67715	10071.4
3256.95205	10042.7
3259.22558	10055.9
3261.49775	10065.5
3263.76855	10044.2
3266.03799	10031.7
3268.30606	10041.9
3270.57277	10028
3272.83812	10011.8
3275.10211	9982.3
3277.36474	9960.8
3279.62601	9970.6
3281.88593	9946.3
3284.14448	9947
3286.40168	9950.4
3288.65753	9937.7
3290.91202	9918.9
3293.16516	9900.4
3295.41695	9881.4
3297.66738	9860.1
3299.91647	9803.9
3302.16421	9740.9
3304.4106	9705.7
3306.65564	9666.8
3308.89933	9594.7
3311.14169	9526.8
3313.38269	9477.1
3315.62236	9413
3317.86068	9334.1
3320.09766	9281.4
3322.3333	9237.4
3324.5676	9192
3326.80056	9054.6
3329.03219	8992.8
3331.26248	4.3
3333.49143	0.5
3335.71905	-1.1
