Data from AgNPs_APTES_FTO_UA_100uM_CRN_0uM_R6G_10uM_Scan_RamanShift__19__16-04-52-948.txt Node

Date: Mon Jul 11 16:04:52 BST 2022
User: TCL
Spectrometer: QEP01345
Trigger mode: 4
Integration Time (sec): 7.000000E0
Scans to average: 10
Electric dark correction enabled: true
Nonlinearity correction enabled: false
Boxcar width: 0
XAxis mode: Raman Shifts
Number of Pixels in Spectrum: 1044
>>>>>Begin Spectral Data<<<<<
46.04893	-0.0375
50.45542	-0.3375
54.85868	-0.5375
59.25871	-2.0375
63.6555	33.9625
68.04907	34.4625
72.43941	39.3625
76.82654	37.3625
81.21044	44.4625
85.59113	43.1625
89.96862	46.3625
94.34289	49.0625
98.71396	49.2625
103.08183	49.9625
107.4465	51.6625
111.80798	52.2625
116.16626	55.8625
120.52136	55.0625
124.87327	57.0625
129.222	59.7625
133.56755	63.5625
137.90993	67.8625
142.24913	75.9625
146.58517	80.4625
150.91804	92.9625
155.24774	111.9625
159.57429	139.2625
163.89768	176.6625
168.21792	226.3625
172.53501	309.5625
176.84895	431.9625
181.15975	594.9625
185.46741	827.0625
189.77193	1141.5625
194.07331	1522.1625
198.37157	1950.4625
202.6667	2417.0625
206.9587	2865.0625
211.24758	3335.8625
215.53334	3784.7625
219.81599	4262.2625
224.09553	4816.3625
228.37195	5414.3625
232.64527	6049.9625
236.91549	6728.6625
241.18261	7376.0625
245.44663	7918.2625
249.70755	8373.8625
253.96539	8739.4625
258.22014	9005.3625
262.4718	9224.0625
266.72039	9318.3625
270.96589	9339.3625
275.20832	9234.5625
279.44768	9067.2625
283.68397	8898.6625
287.91719	8755.1625
292.14735	8710.8625
296.37445	8740.9625
300.59849	8854.6625
304.81948	8952.4625
309.03742	8969.4625
313.25231	8870.6625
317.46415	8593.8625
321.67296	8283.5625
325.87872	8053.9625
330.08145	7956.4625
334.28114	7981.3625
338.47781	8065.9625
342.67145	8171.7625
346.86207	8374.1625
351.04966	8640.8625
355.23424	8925.1625
359.4158	9174.6625
363.59435	9339.2625
367.76989	9468.6625
371.94243	9539.9625
376.11196	9659.5625
380.27849	9737.1625
384.44203	9768.4625
388.60257	9800.1625
392.76012	9848.5625
396.91468	9952.2625
401.06626	10108.3625
405.21485	10191.7625
409.36047	10080.5625
413.50311	9929.8625
417.64277	9837.6625
421.77947	9734.5625
425.9132	9383.1625
430.04396	9325.4625
434.17176	9372.8625
438.2966	9474.4625
442.41849	9665.0625
446.53742	9870.9625
450.6534	10074.4625
454.76644	10236.9625
458.87653	10289.7625
462.98368	10289.0625
467.08789	10226.3625
471.18916	10101.9625
475.2875	9990.4625
479.38291	9907.9625
483.4754	9852.8625
487.56496	9842.3625
491.6516	9872.8625
495.73531	9853.6625
499.81612	9868.8625
503.89401	9939.3625
507.96899	9964.5625
512.04106	9972.2625
516.11023	10075.3625
520.1765	10118.9625
524.23987	10104.6625
528.30034	10077.7625
532.35792	10077.9625
536.41261	10020.3625
540.46441	9893.6625
544.51333	9835.1625
548.55936	9809.2625
552.60252	9851.6625
556.64279	9917.8625
560.6802	9937.4625
564.71473	9969.1625
568.7464	10090.4625
572.7752	10136.1625
576.80114	10074.1625
580.82422	10040.1625
584.84444	10092.6625
588.86181	10165.7625
592.87633	10306.9625
596.888	10420.9625
600.89682	10666.7625
604.9028	11488.9625
608.90594	13424.0625
612.90624	15338.8625
616.90371	14150.2625
620.89834	11461.6625
624.89015	10501.0625
628.87913	10546.0625
632.86528	10813.1625
636.84862	11077.0625
640.82913	10934.0625
644.80683	10524.1625
648.78172	10189.9625
652.75379	10128.7625
656.72306	10263.2625
660.68952	10451.0625
664.65319	10409.4625
668.61405	10338.6625
672.57211	10533.5625
676.52738	10847.7625
680.47986	11233.7625
684.42955	11663.9625
688.37646	11960.9625
692.32058	11897.8625
696.26192	11539.2625
700.20048	11207.3625
704.13626	10979.7625
708.06928	10741.6625
711.99952	10513.0625
715.927	10266.7625
719.85171	10098.0625
723.77365	10004.2625
727.69284	9984.2625
731.60928	9978.1625
735.52295	9948.6625
739.43388	9905.1625
743.34206	9870.1625
747.24749	9803.5625
751.15017	9754.0625
755.05012	9782.0625
758.94733	10023.4625
762.8418	10678.9625
766.73354	11825.1625
770.62254	13007.3625
774.50882	13669.1625
778.39237	13137.2625
782.27321	11894.5625
786.15132	10828.6625
790.02671	10180.4625
793.89938	9867.6625
797.76935	9759.1625
801.6366	9699.9625
805.50115	9691.8625
809.36299	9692.2625
813.22213	9649.3625
817.07857	9563.9625
820.93231	9493.6625
824.78336	9409.3625
828.63172	9378.1625
832.47738	9349.6625
836.32036	9347.9625
840.16066	9350.7625
843.99827	9362.4625
847.8332	9374.4625
851.66546	9378.6625
855.49504	9421.0625
859.32195	9444.7625
863.1462	9450.1625
866.96777	9448.7625
870.78668	9445.5625
874.60293	9481.7625
878.41652	9535.7625
882.22745	9589.6625
886.03573	9630.0625
889.84136	9645.5625
893.64433	9553.1625
897.44466	9418.5625
901.24235	9283.3625
905.0374	9183.3625
908.8298	9085.4625
912.61957	9022.2625
916.40671	9047.0625
920.19121	9078.4625
923.97308	9152.3625
927.75233	9215.6625
931.52895	9276.5625
935.30295	9239.5625
939.07433	9121.4625
942.84309	9060.3625
946.60924	9056.8625
950.37278	9077.3625
954.13371	9040.3625
957.89203	9048.0625
961.64774	9018.9625
965.40086	8911.8625
969.15137	8829.2625
972.89929	8796.4625
976.64461	8754.7625
980.38733	8724.0625
984.12747	8724.2625
987.86502	8769.9625
991.59999	8798.5625
995.33237	8929.5625
999.06217	9120.2625
1002.78939	9318.2625
1006.51404	9506.3625
1010.23611	9673.2625
1013.95561	9809.0625
1017.67255	9903.7625
1021.38692	9841.8625
1025.09872	9723.4625
1028.80796	9640.3625
1032.51465	9684.1625
1036.21877	9729.4625
1039.92035	9725.4625
1043.61937	9684.5625
1047.31584	9590.0625
1051.00976	9486.7625
1054.70114	9440.7625
1058.38998	9430.2625
1062.07627	9478.5625
1065.76003	9547.1625
1069.44126	9619.4625
1073.11995	9699.7625
1076.79611	9793.6625
1080.46974	9835.6625
1084.14085	9918.2625
1087.80943	9986.1625
1091.47549	10023.1625
1095.13903	9979.0625
1098.80005	9853.6625
1102.45857	9731.0625
1106.11456	9695.5625
1109.76805	9738.0625
1113.41903	9903.4625
1117.06751	10121.3625
1120.71348	10410.1625
1124.35696	10773.6625
1127.99793	11151.7625
1131.63641	11379.6625
1135.2724	11323.2625
1138.90589	11125.6625
1142.5369	10874.1625
1146.16542	10593.4625
1149.79145	10296.0625
1153.415	10117.8625
1157.03607	10070.4625
1160.65467	10164.7625
1164.27079	10444.4625
1167.88443	10893.8625
1171.49561	11478.1625
1175.10432	12334.2625
1178.71056	13479.5625
1182.31434	14468.0625
1185.91565	14989.0625
1189.51451	14930.6625
1193.11091	14473.3625
1196.70485	13822.3625
1200.29634	13257.7625
1203.88538	12737.9625
1207.47197	12165.8625
1211.05612	11655.0625
1214.63782	11277.2625
1218.21708	11020.7625
1221.79391	10925.0625
1225.36829	10910.1625
1228.94024	10860.5625
1232.50976	10759.0625
1236.07685	10717.7625
1239.6415	10701.9625
1243.20374	10729.0625
1246.76355	10811.7625
1250.32093	10950.6625
1253.8759	11130.9625
1257.42845	11417.0625
1260.97859	11673.0625
1264.52631	11948.5625
1268.07163	12238.2625
1271.61453	12506.2625
1275.15503	12829.1625
1278.69312	13021.5625
1282.22882	13225.2625
1285.76211	13459.5625
1289.29301	13821.7625
1292.82151	14239.5625
1296.34761	14805.6625
1299.87133	15533.2625
1303.39266	16473.8625
1306.9116	17619.4625
1310.42815	18722.3625
1313.94233	19200.9625
1317.45412	18837.9625
1320.96354	18075.3625
1324.47058	17261.8625
1327.97525	16546.1625
1331.47754	16045.2625
1334.97747	15854.0625
1338.47502	15926.4625
1341.97022	16239.1625
1345.46305	16665.8625
1348.95352	17365.0625
1352.44163	18331.6625
1355.92738	19603.6625
1359.41078	21194.8625
1362.89183	22456.1625
1366.37053	21693.0625
1369.84688	19178.4625
1373.32088	16708.4625
1376.79254	15212.0625
1380.26186	14477.2625
1383.72883	14048.6625
1387.19347	13810.3625
1390.65578	13501.5625
1394.11575	13276.0625
1397.57339	13136.6625
1401.0287	13101.0625
1404.48168	13068.9625
1407.93234	13029.9625
1411.38068	12931.1625
1414.82669	12806.3625
1418.27039	12581.1625
1421.71177	12364.7625
1425.15083	12155.0625
1428.58758	12013.0625
1432.02203	12060.1625
1435.45416	12234.4625
1438.88399	12439.9625
1442.31151	12637.6625
1445.73673	12892.7625
1449.15965	13200.9625
1452.58027	13454.3625
1455.9986	13710.1625
1459.41463	14023.9625
1462.82837	14291.1625
1466.23982	14598.0625
1469.64898	14769.1625
1473.05586	14822.4625
1476.46045	14752.5625
1479.86276	14658.1625
1483.26279	14491.2625
1486.66054	14431.5625
1490.05602	14408.4625
1493.44922	14539.8625
1496.84016	14944.6625
1500.22882	15684.4625
1503.61521	16856.1625
1506.99934	18084.4625
1510.38121	19040.5625
1513.76081	19141.0625
1517.13816	18187.9625
1520.51324	16663.9625
1523.88607	15321.7625
1527.25665	14420.3625
1530.62498	13962.3625
1533.99105	13642.5625
1537.35488	13450.4625
1540.71647	13346.2625
1544.07581	13237.4625
1547.4329	13167.4625
1550.78776	13190.4625
1554.14038	13160.5625
1557.49077	13261.7625
1560.83892	13438.4625
1564.18484	13604.4625
1567.52853	13804.9625
1570.86999	13969.0625
1574.20922	14119.8625
1577.54624	14088.3625
1580.88103	13723.6625
1584.2136	13237.3625
1587.54395	12998.9625
1590.87208	13125.6625
1594.19801	13597.4625
1597.52172	14274.7625
1600.84321	14589.6625
1604.16251	14273.3625
1607.47959	13623.1625
1610.79447	12954.6625
1614.10715	12270.8625
1617.41763	11644.6625
1620.7259	11215.0625
1624.03199	10985.9625
1627.33587	10936.1625
1630.63757	11103.7625
1633.93707	11457.1625
1637.23439	12103.4625
1640.52951	13006.4625
1643.82246	14179.2625
1647.11321	15332.0625
1650.40179	15912.7625
1653.68819	15406.8625
1656.97241	13996.9625
1660.25446	12467.5625
1663.53433	11409.3625
1666.81203	10750.4625
1670.08756	10323.1625
1673.36092	10076.6625
1676.63211	9884.0625
1679.90115	9711.4625
1683.16801	9576.6625
1686.43272	9456.8625
1689.69527	9326.6625
1692.95567	9215.7625
1696.2139	9159.1625
1699.46999	9070.6625
1702.72392	8943.0625
1705.97571	8821.0625
1709.22535	8700.4625
1712.47284	8638.1625
1715.71819	8577.7625
1718.96139	8457.8625
1722.20246	8384.6625
1725.44139	8292.5625
1728.67818	8189.7625
1731.91284	8123.2625
1735.14537	8034.7625
1738.37576	8004.9625
1741.60403	7920.0625
1744.83017	7901.6625
1748.05418	7865.3625
1751.27607	7846.2625
1754.49584	7826.4625
1757.71349	7798.8625
1760.92903	7823.0625
1764.14244	7813.1625
1767.35375	7793.4625
1770.56294	7748.5625
1773.77002	7709.2625
1776.97499	7684.4625
1780.17785	7656.3625
1783.37861	7602.6625
1786.57727	7611.2625
1789.77382	7550.1625
1792.96828	7529.2625
1796.16064	7528.4625
1799.3509	7503.1625
1802.53907	7493.0625
1805.72514	7483.0625
1808.90913	7475.2625
1812.09102	7429.3625
1815.27083	7413.5625
1818.44856	7416.8625
1821.6242	7380.8625
1824.79776	7387.4625
1827.96924	7372.5625
1831.13864	7374.0625
1834.30597	7358.4625
1837.47122	7360.8625
1840.6344	7334.7625
1843.7955	7327.7625
1846.95454	7343.9625
1850.11151	7325.0625
1853.26642	7320.1625
1856.41926	7298.0625
1859.57004	7311.5625
1862.71876	7315.4625
1865.86542	7298.7625
1869.01003	7304.5625
1872.15258	7299.9625
1875.29308	7304.9625
1878.43152	7304.5625
1881.56792	7275.3625
1884.70227	7276.0625
1887.83457	7261.8625
1890.96482	7244.5625
1894.09304	7236.1625
1897.21921	7241.4625
1900.34335	7234.0625
1903.46544	7234.8625
1906.58551	7239.4625
1909.70353	7234.3625
1912.81953	7223.1625
1915.93349	7229.7625
1919.04543	7196.9625
1922.15534	7186.5625
1925.26322	7193.5625
1928.36908	7181.3625
1931.47292	7163.6625
1934.57473	7142.4625
1937.67453	7138.0625
1940.77232	7105.9625
1943.86808	7083.4625
1946.96184	7082.8625
1950.05358	7070.2625
1953.14331	7080.3625
1956.23103	7056.1625
1959.31675	7016.9625
1962.40046	7015.4625
1965.48217	6992.9625
1968.56188	6959.5625
1971.63959	6948.1625
1974.7153	6949.5625
1977.78901	6928.2625
1980.86073	6915.9625
1983.93046	6893.8625
1986.99819	6866.5625
1990.06394	6868.4625
1993.1277	6845.5625
1996.18947	6815.2625
1999.24925	6807.6625
2002.30706	6797.4625
2005.36288	6772.8625
2008.41672	6759.6625
2011.46859	6733.0625
2014.51848	6722.4625
2017.56639	6712.6625
2020.61233	6717.1625
2023.6563	6702.9625
2026.6983	6696.8625
2029.73833	6690.5625
2032.7764	6649.1625
2035.8125	6636.1625
2038.84664	6629.0625
2041.87881	6645.1625
2044.90903	6621.4625
2047.93729	6612.5625
2050.96359	6614.7625
2053.98794	6607.7625
2057.01034	6616.1625
2060.03078	6623.2625
2063.04927	6600.7625
2066.06582	6610.6625
2069.08042	6628.6625
2072.09307	6610.8625
2075.10378	6620.4625
2078.11255	6624.8625
2081.11938	6644.2625
2084.12426	6632.4625
2087.12722	6635.9625
2090.12824	6622.9625
2093.12732	6642.3625
2096.12447	6634.5625
2099.11969	6657.6625
2102.11299	6654.7625
2105.10435	6678.6625
2108.09379	6690.9625
2111.08131	6677.9625
2114.0669	6667.8625
2117.05057	6678.5625
2120.03233	6683.9625
2123.01216	6702.7625
2125.99008	6706.5625
2128.96609	6706.6625
2131.94018	6702.4625
2134.91236	6713.3625
2137.88263	6715.9625
2140.851	6681.3625
2143.81746	6709.7625
2146.78201	6697.0625
2149.74466	6689.8625
2152.7054	6678.5625
2155.66425	6690.9625
2158.6212	6686.4625
2161.57625	6686.3625
2164.52941	6673.6625
2167.48067	6680.8625
2170.43004	6684.5625
2173.37752	6693.8625
2176.32311	6695.7625
2179.26681	6704.7625
2182.20863	6680.3625
2185.14856	6708.3625
2188.08661	6709.4625
2191.02278	6712.0625
2193.95707	6702.1625
2196.88948	6701.0625
2199.82001	6688.5625
2202.74867	6689.3625
2205.67545	6690.0625
2208.60037	6690.3625
2211.52341	6704.4625
2214.44458	6681.1625
2217.36388	6669.1625
2220.28132	6678.9625
2223.1969	6642.6625
2226.11061	6653.7625
2229.02246	6638.6625
2231.93245	6625.5625
2234.84058	6614.5625
2237.74686	6606.6625
2240.65128	6618.9625
2243.55385	6590.1625
2246.45456	6595.3625
2249.35343	6604.2625
2252.25044	6594.9625
2255.14561	6582.6625
2258.03893	6585.9625
2260.93041	6590.0625
2263.82004	6584.1625
2266.70783	6588.3625
2269.59378	6534.1625
2272.4779	6534.3625
2275.36017	6505.4625
2278.24061	6501.9625
2281.11922	6504.6625
2283.996	6483.0625
2286.87094	6476.1625
2289.74405	6474.5625
2292.61534	6452.1625
2295.4848	6458.4625
2298.35243	6452.9625
2301.21824	6465.8625
2304.08223	6471.4625
2306.94439	6476.6625
2309.80474	6475.8625
2312.66327	6451.5625
2315.51999	6475.2625
2318.37489	6472.6625
2321.22797	6438.6625
2324.07925	6458.0625
2326.92871	6464.3625
2329.77637	6464.3625
2332.62222	6447.9625
2335.46626	6449.3625
2338.3085	6458.9625
2341.14893	6460.5625
2343.98756	6457.1625
2346.8244	6469.5625
2349.65943	6459.6625
2352.49267	6466.2625
2355.32411	6466.1625
2358.15376	6453.1625
2360.98161	6473.4625
2363.80768	6475.0625
2366.63195	6492.2625
2369.45444	6473.6625
2372.27514	6456.8625
2375.09405	6461.5625
2377.91118	6440.5625
2380.72652	6422.6625
2383.54009	6412.4625
2386.35187	6429.4625
2389.16188	6403.6625
2391.97011	6395.8625
2394.77657	6382.9625
2397.58125	6361.6625
2400.38416	6377.3625
2403.18529	6345.2625
2405.98466	6353.3625
2408.78226	6315.9625
2411.57809	6334.8625
2414.37216	6332.2625
2417.16446	6338.5625
2419.955	6322.2625
2422.74378	6332.0625
2425.5308	6329.6625
2428.31606	6300.4625
2431.09956	6324.3625
2433.88131	6330.8625
2436.6613	6327.9625
2439.43954	6332.4625
2442.21603	6312.4625
2444.99077	6322.9625
2447.76377	6317.9625
2450.53501	6304.6625
2453.30451	6327.6625
2456.07226	6315.8625
2458.83827	6311.0625
2461.60254	6292.5625
2464.36507	6289.6625
2467.12586	6296.9625
2469.88492	6316.5625
2472.64224	6311.8625
2475.39782	6303.5625
2478.15167	6321.7625
2480.90379	6331.5625
2483.65417	6344.8625
2486.40283	6326.1625
2489.14976	6336.1625
2491.89497	6329.5625
2494.63845	6334.7625
2497.3802	6337.5625
2500.12024	6354.1625
2502.85855	6346.9625
2505.59514	6334.3625
2508.33002	6319.7625
2511.06318	6321.1625
2513.79462	6321.4625
2516.52435	6300.0625
2519.25237	6298.4625
2521.97867	6289.7625
2524.70327	6284.2625
2527.42616	6257.8625
2530.14734	6274.5625
2532.86681	6270.8625
2535.58458	6267.9625
2538.30065	6281.8625
2541.01501	6279.0625
2543.72768	6279.9625
2546.43864	6265.6625
2549.14791	6276.0625
2551.85548	6274.6625
2554.56136	6246.1625
2557.26554	6273.3625
2559.96803	6239.5625
2562.66883	6249.1625
2565.36794	6220.2625
2568.06536	6237.0625
2570.7611	6236.7625
2573.45514	6235.3625
2576.14751	6220.4625
2578.83819	6193.4625
2581.52719	6225.2625
2584.21451	6218.7625
2586.90015	6201.4625
2589.58411	6206.2625
2592.2664	6196.0625
2594.94701	6196.3625
2597.62594	6196.0625
2600.30321	6191.2625
2602.9788	6192.3625
2605.65273	6164.8625
2608.32498	6192.0625
2610.99557	6183.9625
2613.66449	6157.7625
2616.33175	6190.0625
2618.99734	6184.0625
2621.66128	6173.8625
2624.32355	6148.5625
2626.98416	6165.3625
2629.64311	6172.8625
2632.30041	6179.4625
2634.95605	6171.6625
2637.61004	6149.3625
2640.26238	6160.9625
2642.91306	6137.6625
2645.56209	6156.4625
2648.20948	6156.5625
2650.85521	6137.2625
2653.4993	6139.7625
2656.14175	6125.8625
2658.78255	6161.7625
2661.42171	6146.6625
2664.05923	6168.0625
2666.6951	6172.2625
2669.32934	6189.2625
2671.96194	6179.1625
2674.59291	6204.2625
2677.22224	6177.5625
2679.84993	6181.3625
2682.476	6164.7625
2685.10043	6183.9625
2687.72324	6164.2625
2690.34441	6177.4625
2692.96396	6174.7625
2695.58188	6190.4625
2698.19818	6201.7625
2700.81285	6200.8625
2703.4259	6177.6625
2706.03733	6199.6625
2708.64714	6201.3625
2711.25533	6227.8625
2713.86191	6217.3625
2716.46687	6242.3625
2719.07021	6237.6625
2721.67194	6232.2625
2724.27206	6218.9625
2726.87057	6258.1625
2729.46747	6225.8625
2732.06276	6270.2625
2734.65644	6256.3625
2737.24852	6255.2625
2739.83899	6242.3625
2742.42786	6239.3625
2745.01513	6240.0625
2747.60079	6243.5625
2750.18486	6218.3625
2752.76733	6234.2625
2755.3482	6219.1625
2757.92747	6225.8625
2760.50515	6213.8625
2763.08123	6238.2625
2765.65573	6202.5625
2768.22863	6218.2625
2770.79994	6191.3625
2773.36967	6216.3625
2775.9378	6215.9625
2778.50435	6198.7625
2781.06932	6190.8625
2783.6327	6198.8625
2786.1945	6187.0625
2788.75471	6167.8625
2791.31335	6168.8625
2793.87041	6166.7625
2796.42589	6145.3625
2798.97979	6132.9625
2801.53212	6149.1625
2804.08288	6151.1625
2806.63206	6110.6625
2809.17967	6109.8625
2811.72571	6093.4625
2814.27018	6087.5625
2816.81308	6076.9625
2819.35442	6081.4625
2821.89419	6068.1625
2824.43239	6075.0625
2826.96904	6069.7625
2829.50412	6090.6625
2832.03763	6078.8625
2834.56959	6056.9625
2837.1	6041.0625
2839.62884	6048.4625
2842.15613	6050.1625
2844.68186	6059.0625
2847.20604	6067.5625
2849.72867	6059.2625
2852.24974	6078.0625
2854.76927	6064.3625
2857.28724	6055.1625
2859.80367	6055.0625
2862.31855	6062.3625
2864.83189	6061.4625
2867.34368	6033.0625
2869.85393	6056.2625
2872.36264	6048.3625
2874.8698	6041.1625
2877.37543	6052.7625
2879.87952	6066.4625
2882.38207	6057.7625
2884.88308	6042.0625
2887.38256	6061.1625
2889.88051	6058.1625
2892.37692	6059.9625
2894.8718	6073.1625
2897.36515	6093.9625
2899.85698	6084.5625
2902.34727	6129.5625
2904.83604	6107.7625
2907.32328	6136.7625
2909.809	6138.2625
2912.29319	6150.0625
2914.77587	6136.7625
2917.25702	6158.5625
2919.73665	6158.1625
2922.21476	6175.2625
2924.69136	6151.5625
2927.16644	6173.9625
2929.64	6138.4625
2932.11205	6137.0625
2934.58258	6119.9625
2937.05161	6129.4625
2939.51912	6128.3625
2941.98513	6120.5625
2944.44962	6101.5625
2946.91261	6100.9625
2949.37409	6099.3625
2951.83407	6091.5625
2954.29254	6108.0625
2956.74951	6093.4625
2959.20498	6090.6625
2961.65895	6079.1625
2964.11142	6082.1625
2966.56239	6064.1625
2969.01186	6091.3625
2971.45984	6072.3625
2973.90632	6072.9625
2976.35131	6047.8625
2978.7948	6026.8625
2981.23681	6037.3625
2983.67732	6029.0625
2986.11635	6010.6625
2988.55388	6010.7625
2990.98993	5999.2625
2993.4245	5982.0625
2995.85758	5981.6625
2998.28917	5971.0625
3000.71928	5960.5625
3003.14791	5945.6625
3005.57506	5952.1625
3008.00073	5926.2625
3010.42493	5929.0625
3012.84764	5921.5625
3015.26888	5906.3625
3017.68865	5902.0625
3020.10694	5896.4625
3022.52376	5869.8625
3024.9391	5865.4625
3027.35298	5875.1625
3029.76539	5887.8625
3032.17632	5886.9625
3034.5858	5858.7625
3036.9938	5864.1625
3039.40034	5866.3625
3041.80542	5878.6625
3044.20903	5851.4625
3046.61118	5842.6625
3049.01187	5847.4625
3051.4111	5831.4625
3053.80888	5848.1625
3056.20519	5832.1625
3058.60005	5807.6625
3060.99345	5813.5625
3063.3854	5787.1625
3065.7759	5780.2625
3068.16494	5801.0625
3070.55254	5764.5625
3072.93868	5752.2625
3075.32338	5759.0625
3077.70662	5732.4625
3080.08842	5743.7625
3082.46878	5744.2625
3084.84769	5706.0625
3087.22515	5699.1625
3089.60118	5719.2625
3091.97576	5710.3625
3094.3489	5731.8625
3096.72061	5745.1625
3099.09087	5750.0625
3101.4597	5753.3625
3103.82709	5749.5625
3106.19305	5764.7625
3108.55757	5766.4625
3110.92066	5762.5625
3113.28232	5750.7625
3115.64255	5743.0625
3118.00134	5727.3625
3120.35871	5710.4625
3122.71466	5727.4625
3125.06917	5727.9625
3127.42226	5709.4625
3129.77393	5697.2625
3132.12417	5691.4625
3134.47299	5694.7625
3136.82039	5689.5625
3139.16636	5701.4625
3141.51092	5704.5625
3143.85406	5701.6625
3146.19579	5712.9625
3148.53609	5716.0625
3150.87499	5731.1625
3153.21246	5733.8625
3155.54853	5756.2625
3157.88318	5753.5625
3160.21642	5748.8625
3162.54826	5752.1625
3164.87868	5758.2625
3167.2077	5756.1625
3169.5353	5768.4625
3171.86151	5782.0625
3174.18631	5768.2625
3176.5097	5760.9625
3178.83169	5761.5625
3181.15228	5764.7625
3183.47147	5756.0625
3185.78926	5745.6625
3188.10565	5753.8625
3190.42065	5750.3625
3192.73424	5759.6625
3195.04645	5757.7625
3197.35725	5763.6625
3199.66667	5738.6625
3201.97469	5758.9625
3204.28132	5774.2625
3206.58656	5784.6625
3208.8904	5787.5625
3211.19287	5777.9625
3213.49394	5801.7625
3215.79363	5797.6625
3218.09193	5811.1625
3220.38884	5798.4625
3222.68438	5821.3625
3224.97853	5808.1625
3227.2713	5801.7625
3229.56269	5802.2625
3231.8527	5821.0625
3234.14133	5784.3625
3236.42858	5806.1625
3238.71446	5785.0625
3240.99896	5803.6625
3243.28209	5780.0625
3245.56384	5757.7625
3247.84423	5755.2625
3250.12324	5766.6625
3252.40088	5767.6625
3254.67715	5763.6625
3256.95205	5761.8625
3259.22558	5778.2625
3261.49775	5765.1625
3263.76855	5771.0625
3266.03799	5759.2625
3268.30606	5755.8625
3270.57277	5742.3625
3272.83812	5744.8625
3275.10211	5755.3625
3277.36474	5734.6625
3279.62601	5734.9625
3281.88593	5721.8625
3284.14448	5726.7625
3286.40168	5734.7625
3288.65753	5707.0625
3290.91202	5725.4625
3293.16516	5702.8625
3295.41695	5713.5625
3297.66738	5678.7625
3299.91647	5676.0625
3302.16421	5615.7625
3304.4106	5608.5625
3306.65564	5597.9625
3308.89933	5550.3625
3311.14169	5528.4625
3313.38269	5502.6625
3315.62236	5464.9625
3317.86068	5419.6625
3320.09766	5391.5625
3322.3333	5382.4625
3324.5676	5356.8625
3326.80056	5282.9625
3329.03219	5268.1625
3331.26248	2.8625
3333.49143	-0.1375
3335.71905	-0.7375
