Data from AgNPs_APTES_FTO_UA_100uM_CRN_0uM_R6G_10uM_Scan_RamanShift__40__16-29-22-973.txt Node

Date: Mon Jul 11 16:29:22 BST 2022
User: TCL
Spectrometer: QEP01345
Trigger mode: 4
Integration Time (sec): 7.000000E0
Scans to average: 10
Electric dark correction enabled: true
Nonlinearity correction enabled: false
Boxcar width: 0
XAxis mode: Raman Shifts
Number of Pixels in Spectrum: 1044
>>>>>Begin Spectral Data<<<<<
46.04893	-0.4125
50.45542	0.5875
54.85868	-0.1125
59.25871	-1.8125
63.6555	42.1875
68.04907	44.6875
72.43941	46.6875
76.82654	49.0875
81.21044	55.0875
85.59113	54.6875
89.96862	62.5875
94.34289	62.5875
98.71396	58.8875
103.08183	63.5875
107.4465	66.2875
111.80798	65.2875
116.16626	70.3875
120.52136	73.3875
124.87327	78.2875
129.222	76.5875
133.56755	81.2875
137.90993	92.2875
142.24913	99.4875
146.58517	112.4875
150.91804	127.5875
155.24774	157.9875
159.57429	193.2875
163.89768	253.5875
168.21792	336.6875
172.53501	454.6875
176.84895	626.1875
181.15975	881.6875
185.46741	1224.0875
189.77193	1697.9875
194.07331	2266.5875
198.37157	2916.1875
202.6667	3608.1875
206.9587	4299.2875
211.24758	5015.8875
215.53334	5786.8875
219.81599	6705.9875
224.09553	7719.3875
228.37195	8892.4875
232.64527	10093.1875
236.91549	11237.0875
241.18261	12170.9875
245.44663	12832.6875
249.70755	13224.0875
253.96539	13457.9875
258.22014	13639.3875
262.4718	13834.1875
266.72039	13913.0875
270.96589	13802.3875
275.20832	13506.1875
279.44768	13042.3875
283.68397	12652.1875
287.91719	12505.2875
292.14735	12822.5875
296.37445	13601.3875
300.59849	14915.8875
304.81948	16362.0875
309.03742	17364.0875
313.25231	17238.0875
317.46415	15742.7875
321.67296	13633.3875
325.87872	11986.3875
330.08145	11318.7875
334.28114	11353.3875
338.47781	11757.5875
342.67145	12432.8875
346.86207	13544.2875
351.04966	15202.5875
355.23424	16886.3875
359.4158	18021.5875
363.59435	18463.5875
367.76989	18478.1875
371.94243	18269.9875
376.11196	17983.1875
380.27849	17708.5875
384.44203	17174.6875
388.60257	16558.1875
392.76012	16140.1875
396.91468	16207.2875
401.06626	16732.7875
405.21485	16856.4875
409.36047	15850.4875
413.50311	13993.6875
417.64277	12438.3875
421.77947	11508.8875
425.9132	11026.2875
430.04396	10916.2875
434.17176	10987.2875
438.2966	11334.4875
442.41849	11876.7875
446.53742	12454.5875
450.6534	12853.3875
454.76644	12975.9875
458.87653	12782.9875
462.98368	12455.7875
467.08789	12042.2875
471.18916	11533.5875
475.2875	10982.1875
479.38291	10602.0875
483.4754	10390.5875
487.56496	10317.6875
491.6516	10328.8875
495.73531	10375.8875
499.81612	10469.6875
503.89401	10731.5875
507.96899	11147.5875
512.04106	11783.6875
516.11023	12496.4875
520.1765	13010.3875
524.23987	12967.2875
528.30034	12558.9875
532.35792	12049.7875
536.41261	11464.3875
540.46441	10782.8875
544.51333	10391.6875
548.55936	10331.7875
552.60252	10642.1875
556.64279	11047.9875
560.6802	11214.6875
564.71473	11802.8875
568.7464	12925.3875
572.7752	13008.8875
576.80114	11645.4875
580.82422	10402.5875
584.84444	9975.9875
588.86181	10010.8875
592.87633	10204.8875
596.888	10602.2875
600.89682	11852.1875
604.9028	16076.7875
608.90594	26602.3875
612.90624	37727.8875
616.90371	32510.3875
620.89834	18334.3875
624.89015	12944.1875
628.87913	12401.5875
632.86528	13208.7875
636.84862	13881.0875
640.82913	13228.3875
644.80683	11691.3875
648.78172	10646.2875
652.75379	10560.8875
656.72306	11487.6875
660.68952	12243.6875
664.65319	11336.0875
668.61405	9926.2875
672.57211	9368.7875
676.52738	9337.4875
680.47986	9310.8875
684.42955	9107.7875
688.37646	9051.7875
692.32058	9122.2875
696.26192	9298.3875
700.20048	9525.2875
704.13626	9561.9875
708.06928	9386.1875
711.99952	9205.1875
715.927	9260.0875
719.85171	9498.2875
723.77365	9707.0875
727.69284	9657.5875
731.60928	9564.0875
735.52295	9416.8875
739.43388	9352.7875
743.34206	9349.2875
747.24749	9346.2875
751.15017	9360.9875
755.05012	9778.3875
758.94733	11173.4875
762.8418	14493.1875
766.73354	19549.6875
770.62254	24348.2875
774.50882	26998.1875
778.39237	25426.1875
782.27321	19741.7875
786.15132	14286.6875
790.02671	11377.7875
793.89938	10188.2875
797.76935	9761.8875
801.6366	9697.5875
805.50115	9857.5875
809.36299	10077.0875
813.22213	10068.1875
817.07857	9923.8875
820.93231	9689.9875
824.78336	9515.5875
828.63172	9379.9875
832.47738	9241.5875
836.32036	9044.3875
840.16066	8837.4875
843.99827	8709.6875
847.8332	8633.9875
851.66546	8644.0875
855.49504	8712.2875
859.32195	8669.2875
863.1462	8615.8875
866.96777	8645.5875
870.78668	8781.4875
874.60293	9044.0875
878.41652	9397.0875
882.22745	9793.1875
886.03573	10006.4875
889.84136	9981.7875
893.64433	9770.6875
897.44466	9506.8875
901.24235	9245.7875
905.0374	8896.5875
908.8298	8567.9875
912.61957	8360.4875
916.40671	8281.0875
920.19121	8299.7875
923.97308	8450.3875
927.75233	8809.4875
931.52895	9174.2875
935.30295	8963.4875
939.07433	8345.5875
942.84309	7810.2875
946.60924	7552.8875
950.37278	7433.6875
954.13371	7380.4875
957.89203	7377.2875
961.64774	7365.9875
965.40086	7308.3875
969.15137	7280.0875
972.89929	7235.2875
976.64461	7226.7875
980.38733	7227.0875
984.12747	7241.5875
987.86502	7295.0875
991.59999	7365.8875
995.33237	7556.1875
999.06217	7824.6875
1002.78939	8171.8875
1006.51404	8595.3875
1010.23611	9002.1875
1013.95561	9253.2875
1017.67255	9242.3875
1021.38692	9021.6875
1025.09872	8698.5875
1028.80796	8414.9875
1032.51465	8265.1875
1036.21877	8277.5875
1039.92035	8350.6875
1043.61937	8452.6875
1047.31584	8452.8875
1051.00976	8412.5875
1054.70114	8323.0875
1058.38998	8300.4875
1062.07627	8353.2875
1065.76003	8425.2875
1069.44126	8497.2875
1073.11995	8691.3875
1076.79611	9066.8875
1080.46974	9671.0875
1084.14085	10425.9875
1087.80943	11045.2875
1091.47549	11043.6875
1095.13903	10436.4875
1098.80005	9581.2875
1102.45857	9131.0875
1106.11456	9139.4875
1109.76805	9594.0875
1113.41903	10476.3875
1117.06751	11801.6875
1120.71348	13520.4875
1124.35696	15440.3875
1127.99793	16624.0875
1131.63641	15966.5875
1135.2724	14226.9875
1138.90589	12810.8875
1142.5369	11790.1875
1146.16542	10933.5875
1149.79145	10243.7875
1153.415	9869.3875
1157.03607	9774.3875
1160.65467	10012.3875
1164.27079	10597.9875
1167.88443	11724.9875
1171.49561	13587.9875
1175.10432	16936.3875
1178.71056	21470.7875
1182.31434	24857.4875
1185.91565	25359.9875
1189.51451	23699.4875
1193.11091	21054.9875
1196.70485	18599.5875
1200.29634	17114.0875
1203.88538	15828.1875
1207.47197	14009.8875
1211.05612	12413.9875
1214.63782	11299.8875
1218.21708	10650.3875
1221.79391	10256.8875
1225.36829	10046.8875
1228.94024	9899.9875
1232.50976	9830.4875
1236.07685	9876.0875
1239.6415	10027.0875
1243.20374	10180.4875
1246.76355	10358.9875
1250.32093	10546.6875
1253.8759	10858.7875
1257.42845	11406.4875
1260.97859	12127.4875
1264.52631	12967.2875
1268.07163	13700.2875
1271.61453	14222.7875
1275.15503	14349.8875
1278.69312	14198.0875
1282.22882	14226.5875
1285.76211	14902.9875
1289.29301	15978.2875
1292.82151	17038.3875
1296.34761	18215.4875
1299.87133	20253.3875
1303.39266	23933.7875
1306.9116	29253.9875
1310.42815	34067.8875
1313.94233	34718.6875
1317.45412	31112.8875
1320.96354	26084.0875
1324.47058	21607.7875
1327.97525	18351.1875
1331.47754	16691.4875
1334.97747	16316.5875
1338.47502	16948.0875
1341.97022	18685.1875
1345.46305	21632.1875
1348.95352	25593.3875
1352.44163	30560.0875
1355.92738	37338.8875
1359.41078	46192.2875
1362.89183	51617.1875
1366.37053	46533.8875
1369.84688	36223.8875
1373.32088	27382.6875
1376.79254	21777.2875
1380.26186	18729.8875
1383.72883	16799.8875
1387.19347	15189.7875
1390.65578	13690.4875
1394.11575	12569.9875
1397.57339	11905.5875
1401.0287	11647.2875
1404.48168	11515.3875
1407.93234	11473.3875
1411.38068	11685.6875
1414.82669	11943.0875
1418.27039	12009.3875
1421.71177	11893.9875
1425.15083	11681.4875
1428.58758	11679.8875
1432.02203	12003.5875
1435.45416	12260.9875
1438.88399	12309.3875
1442.31151	12342.9875
1445.73673	12555.0875
1449.15965	12755.0875
1452.58027	12735.1875
1455.9986	12526.5875
1459.41463	12554.8875
1462.82837	12882.6875
1466.23982	13408.9875
1469.64898	13815.0875
1473.05586	13999.7875
1476.46045	14099.4875
1479.86276	14434.5875
1483.26279	15040.0875
1486.66054	16005.9875
1490.05602	17330.7875
1493.44922	19531.8875
1496.84016	23118.4875
1500.22882	28811.2875
1503.61521	36438.6875
1506.99934	44218.5875
1510.38121	49158.7875
1513.76081	48472.7875
1517.13816	41699.6875
1520.51324	32568.1875
1523.88607	25085.7875
1527.25665	20527.5875
1530.62498	18115.6875
1533.99105	16838.0875
1537.35488	16088.9875
1540.71647	15918.9875
1544.07581	16215.0875
1547.4329	16653.9875
1550.78776	16944.1875
1554.14038	17062.7875
1557.49077	17134.2875
1560.83892	17484.9875
1564.18484	18477.7875
1567.52853	19951.2875
1570.86999	21303.7875
1574.20922	22001.1875
1577.54624	21412.9875
1580.88103	18959.3875
1584.2136	16072.4875
1587.54395	14367.8875
1590.87208	14116.9875
1594.19801	15214.2875
1597.52172	16847.0875
1600.84321	17476.3875
1604.16251	16753.4875
1607.47959	15436.1875
1610.79447	13934.8875
1614.10715	12435.3875
1617.41763	11300.4875
1620.7259	10687.9875
1624.03199	10418.9875
1627.33587	10509.2875
1630.63757	10910.6875
1633.93707	11793.6875
1637.23439	13346.2875
1640.52951	15932.2875
1643.82246	19855.5875
1647.11321	24736.2875
1650.40179	27899.2875
1653.68819	26477.8875
1656.97241	21489.5875
1660.25446	16418.1875
1663.53433	13057.5875
1666.81203	11114.8875
1670.08756	9943.8875
1673.36092	9234.0875
1676.63211	8698.6875
1679.90115	8306.2875
1683.16801	7991.3875
1686.43272	7755.2875
1689.69527	7552.9875
1692.95567	7410.6875
1696.2139	7305.7875
1699.46999	7214.3875
1702.72392	7133.4875
1705.97571	7076.3875
1709.22535	7044.4875
1712.47284	7013.2875
1715.71819	7002.0875
1718.96139	6943.7875
1722.20246	6858.3875
1725.44139	6727.8875
1728.67818	6597.8875
1731.91284	6458.9875
1735.14537	6347.4875
1738.37576	6266.6875
1741.60403	6235.9875
1744.83017	6184.4875
1748.05418	6139.4875
1751.27607	6126.9875
1754.49584	6054.7875
1757.71349	6030.8875
1760.92903	6012.1875
1764.14244	5941.2875
1767.35375	5933.5875
1770.56294	5866.6875
1773.77002	5809.6875
1776.97499	5768.6875
1780.17785	5725.6875
1783.37861	5673.4875
1786.57727	5673.7875
1789.77382	5625.7875
1792.96828	5625.2875
1796.16064	5605.9875
1799.3509	5599.5875
1802.53907	5592.0875
1805.72514	5548.2875
1808.90913	5485.0875
1812.09102	5457.2875
1815.27083	5433.1875
1818.44856	5404.6875
1821.6242	5380.8875
1824.79776	5357.3875
1827.96924	5342.4875
1831.13864	5330.9875
1834.30597	5311.7875
1837.47122	5287.9875
1840.6344	5243.7875
1843.7955	5253.5875
1846.95454	5256.1875
1850.11151	5230.0875
1853.26642	5219.3875
1856.41926	5217.6875
1859.57004	5228.7875
1862.71876	5220.1875
1865.86542	5229.8875
1869.01003	5214.0875
1872.15258	5209.5875
1875.29308	5212.8875
1878.43152	5203.5875
1881.56792	5195.0875
1884.70227	5195.5875
1887.83457	5167.0875
1890.96482	5168.9875
1894.09304	5157.2875
1897.21921	5164.0875
1900.34335	5144.6875
1903.46544	5167.2875
1906.58551	5169.5875
1909.70353	5154.4875
1912.81953	5146.8875
1915.93349	5138.8875
1919.04543	5124.7875
1922.15534	5092.3875
1925.26322	5078.4875
1928.36908	5056.5875
1931.47292	5040.4875
1934.57473	5011.7875
1937.67453	4979.8875
1940.77232	4961.4875
1943.86808	4930.0875
1946.96184	4930.6875
1950.05358	4904.6875
1953.14331	4897.0875
1956.23103	4896.4875
1959.31675	4870.4875
1962.40046	4869.9875
1965.48217	4869.9875
1968.56188	4867.9875
1971.63959	4851.6875
1974.7153	4844.9875
1977.78901	4823.0875
1980.86073	4808.6875
1983.93046	4786.4875
1986.99819	4727.7875
1990.06394	4698.1875
1993.1277	4695.4875
1996.18947	4657.9875
1999.24925	4655.4875
2002.30706	4623.0875
2005.36288	4614.3875
2008.41672	4584.4875
2011.46859	4567.6875
2014.51848	4555.2875
2017.56639	4533.5875
2020.61233	4520.5875
2023.6563	4518.5875
2026.6983	4487.7875
2029.73833	4482.9875
2032.7764	4450.9875
2035.8125	4450.9875
2038.84664	4450.6875
2041.87881	4441.6875
2044.90903	4448.7875
2047.93729	4412.8875
2050.96359	4427.0875
2053.98794	4383.7875
2057.01034	4405.9875
2060.03078	4389.8875
2063.04927	4373.4875
2066.06582	4369.6875
2069.08042	4374.2875
2072.09307	4357.4875
2075.10378	4363.5875
2078.11255	4359.2875
2081.11938	4353.4875
2084.12426	4357.1875
2087.12722	4344.5875
2090.12824	4340.9875
2093.12732	4347.0875
2096.12447	4344.0875
2099.11969	4338.0875
2102.11299	4339.9875
2105.10435	4350.1875
2108.09379	4366.7875
2111.08131	4337.8875
2114.0669	4352.9875
2117.05057	4363.0875
2120.03233	4362.9875
2123.01216	4370.9875
2125.99008	4377.7875
2128.96609	4393.4875
2131.94018	4390.6875
2134.91236	4377.5875
2137.88263	4363.0875
2140.851	4349.3875
2143.81746	4359.5875
2146.78201	4348.7875
2149.74466	4328.3875
2152.7054	4323.6875
2155.66425	4298.9875
2158.6212	4297.9875
2161.57625	4277.9875
2164.52941	4280.0875
2167.48067	4269.6875
2170.43004	4274.0875
2173.37752	4282.1875
2176.32311	4289.0875
2179.26681	4277.4875
2182.20863	4278.5875
2185.14856	4275.3875
2188.08661	4264.6875
2191.02278	4261.9875
2193.95707	4247.8875
2196.88948	4252.9875
2199.82001	4210.8875
2202.74867	4205.1875
2205.67545	4207.5875
2208.60037	4207.7875
2211.52341	4208.3875
2214.44458	4188.0875
2217.36388	4185.6875
2220.28132	4174.6875
2223.1969	4147.7875
2226.11061	4143.3875
2229.02246	4130.3875
2231.93245	4115.8875
2234.84058	4129.0875
2237.74686	4099.2875
2240.65128	4097.3875
2243.55385	4106.3875
2246.45456	4107.5875
2249.35343	4104.6875
2252.25044	4106.9875
2255.14561	4111.2875
2258.03893	4143.7875
2260.93041	4151.3875
2263.82004	4156.8875
2266.70783	4147.1875
2269.59378	4126.8875
2272.4779	4112.5875
2275.36017	4105.5875
2278.24061	4104.8875
2281.11922	4086.4875
2283.996	4060.0875
2286.87094	4043.2875
2289.74405	4027.4875
2292.61534	4012.0875
2295.4848	3992.4875
2298.35243	3967.5875
2301.21824	3982.8875
2304.08223	3968.3875
2306.94439	3976.4875
2309.80474	3963.8875
2312.66327	3975.7875
2315.51999	3963.9875
2318.37489	3956.9875
2321.22797	3946.1875
2324.07925	3949.4875
2326.92871	3938.2875
2329.77637	3942.4875
2332.62222	3909.3875
2335.46626	3916.0875
2338.3085	3927.6875
2341.14893	3930.6875
2343.98756	3930.9875
2346.8244	3944.6875
2349.65943	3946.5875
2352.49267	3950.8875
2355.32411	3987.6875
2358.15376	4002.2875
2360.98161	4032.3875
2363.80768	4048.2875
2366.63195	4074.5875
2369.45444	4107.3875
2372.27514	4105.2875
2375.09405	4102.2875
2377.91118	4069.4875
2380.72652	4053.5875
2383.54009	4011.6875
2386.35187	4005.7875
2389.16188	3977.2875
2391.97011	3937.0875
2394.77657	3902.5875
2397.58125	3875.7875
2400.38416	3840.0875
2403.18529	3836.0875
2405.98466	3812.1875
2408.78226	3802.0875
2411.57809	3797.7875
2414.37216	3783.7875
2417.16446	3787.5875
2419.955	3784.8875
2422.74378	3787.4875
2425.5308	3793.6875
2428.31606	3782.4875
2431.09956	3784.2875
2433.88131	3798.7875
2436.6613	3797.1875
2439.43954	3796.3875
2442.21603	3806.0875
2444.99077	3821.4875
2447.76377	3832.7875
2450.53501	3827.0875
2453.30451	3840.2875
2456.07226	3851.6875
2458.83827	3841.7875
2461.60254	3831.7875
2464.36507	3818.8875
2467.12586	3844.5875
2469.88492	3822.7875
2472.64224	3837.5875
2475.39782	3855.6875
2478.15167	3874.2875
2480.90379	3886.3875
2483.65417	3921.0875
2486.40283	3936.3875
2489.14976	3982.5875
2491.89497	3986.5875
2494.63845	3992.2875
2497.3802	3980.1875
2500.12024	3979.9875
2502.85855	3954.9875
2505.59514	3910.7875
2508.33002	3859.6875
2511.06318	3829.9875
2513.79462	3782.0875
2516.52435	3731.0875
2519.25237	3715.3875
2521.97867	3680.0875
2524.70327	3664.4875
2527.42616	3657.5875
2530.14734	3651.8875
2532.86681	3630.6875
2535.58458	3641.2875
2538.30065	3653.7875
2541.01501	3651.9875
2543.72768	3663.5875
2546.43864	3679.6875
2549.14791	3667.0875
2551.85548	3673.2875
2554.56136	3681.0875
2557.26554	3673.1875
2559.96803	3659.3875
2562.66883	3662.7875
2565.36794	3643.4875
2568.06536	3657.6875
2570.7611	3655.8875
2573.45514	3637.6875
2576.14751	3638.4875
2578.83819	3608.5875
2581.52719	3595.5875
2584.21451	3581.1875
2586.90015	3577.0875
2589.58411	3557.2875
2592.2664	3560.0875
2594.94701	3568.3875
2597.62594	3543.9875
2600.30321	3549.9875
2602.9788	3566.2875
2605.65273	3559.5875
2608.32498	3565.7875
2610.99557	3556.7875
2613.66449	3557.7875
2616.33175	3570.9875
2618.99734	3572.8875
2621.66128	3550.1875
2624.32355	3550.4875
2626.98416	3533.6875
2629.64311	3518.5875
2632.30041	3513.9875
2634.95605	3497.6875
2637.61004	3484.6875
2640.26238	3472.0875
2642.91306	3465.6875
2645.56209	3472.7875
2648.20948	3460.3875
2650.85521	3453.8875
2653.4993	3464.7875
2656.14175	3462.1875
2658.78255	3475.7875
2661.42171	3489.0875
2664.05923	3508.2875
2666.6951	3502.7875
2669.32934	3525.0875
2671.96194	3535.0875
2674.59291	3537.5875
2677.22224	3531.4875
2679.84993	3547.9875
2682.476	3545.7875
2685.10043	3541.4875
2687.72324	3532.2875
2690.34441	3526.8875
2692.96396	3517.8875
2695.58188	3528.2875
2698.19818	3521.0875
2700.81285	3544.7875
2703.4259	3535.5875
2706.03733	3554.6875
2708.64714	3547.0875
2711.25533	3563.1875
2713.86191	3561.6875
2716.46687	3564.7875
2719.07021	3590.2875
2721.67194	3592.6875
2724.27206	3574.5875
2726.87057	3591.3875
2729.46747	3563.2875
2732.06276	3576.0875
2734.65644	3557.6875
2737.24852	3562.0875
2739.83899	3545.7875
2742.42786	3535.3875
2745.01513	3514.4875
2747.60079	3505.4875
2750.18486	3508.6875
2752.76733	3487.8875
2755.3482	3475.0875
2757.92747	3461.2875
2760.50515	3464.2875
2763.08123	3448.8875
2765.65573	3437.8875
2768.22863	3444.4875
2770.79994	3446.5875
2773.36967	3452.8875
2775.9378	3449.3875
2778.50435	3442.2875
2781.06932	3449.4875
2783.6327	3446.9875
2786.1945	3466.6875
2788.75471	3465.4875
2791.31335	3476.1875
2793.87041	3482.4875
2796.42589	3466.9875
2798.97979	3480.5875
2801.53212	3489.9875
2804.08288	3486.9875
2806.63206	3498.4875
2809.17967	3493.8875
2811.72571	3497.3875
2814.27018	3516.0875
2816.81308	3525.1875
2819.35442	3541.4875
2821.89419	3570.6875
2824.43239	3590.7875
2826.96904	3591.5875
2829.50412	3594.3875
2832.03763	3584.0875
2834.56959	3610.7875
2837.1	3605.0875
2839.62884	3623.0875
2842.15613	3632.6875
2844.68186	3666.9875
2847.20604	3686.8875
2849.72867	3719.9875
2852.24974	3744.8875
2854.76927	3738.6875
2857.28724	3757.2875
2859.80367	3761.3875
2862.31855	3765.7875
2864.83189	3780.9875
2867.34368	3785.2875
2869.85393	3794.3875
2872.36264	3800.8875
2874.8698	3790.7875
2877.37543	3794.8875
2879.87952	3783.4875
2882.38207	3766.0875
2884.88308	3762.4875
2887.38256	3745.2875
2889.88051	3740.8875
2892.37692	3729.0875
2894.8718	3741.2875
2897.36515	3757.5875
2899.85698	3732.8875
2902.34727	3766.8875
2904.83604	3771.6875
2907.32328	3775.4875
2909.809	3776.3875
2912.29319	3757.2875
2914.77587	3768.3875
2917.25702	3743.1875
2919.73665	3752.1875
2922.21476	3745.0875
2924.69136	3731.6875
2927.16644	3720.4875
2929.64	3706.8875
2932.11205	3675.3875
2934.58258	3677.1875
2937.05161	3659.9875
2939.51912	3653.1875
2941.98513	3627.1875
2944.44962	3596.1875
2946.91261	3565.5875
2949.37409	3568.6875
2951.83407	3541.5875
2954.29254	3520.7875
2956.74951	3536.3875
2959.20498	3514.3875
2961.65895	3509.6875
2964.11142	3506.5875
2966.56239	3507.2875
2969.01186	3486.5875
2971.45984	3465.7875
2973.90632	3469.5875
2976.35131	3452.1875
2978.7948	3440.8875
2981.23681	3431.1875
2983.67732	3418.8875
2986.11635	3426.0875
2988.55388	3396.9875
2990.98993	3391.3875
2993.4245	3386.8875
2995.85758	3377.0875
2998.28917	3383.7875
3000.71928	3377.4875
3003.14791	3361.5875
3005.57506	3360.4875
3008.00073	3353.8875
3010.42493	3348.1875
3012.84764	3350.3875
3015.26888	3354.4875
3017.68865	3349.6875
3020.10694	3345.3875
3022.52376	3331.3875
3024.9391	3335.3875
3027.35298	3316.4875
3029.76539	3317.6875
3032.17632	3306.3875
3034.5858	3296.1875
3036.9938	3302.8875
3039.40034	3276.9875
3041.80542	3278.2875
3044.20903	3276.6875
3046.61118	3258.4875
3049.01187	3253.5875
3051.4111	3250.5875
3053.80888	3250.6875
3056.20519	3239.4875
3058.60005	3226.3875
3060.99345	3234.5875
3063.3854	3223.0875
3065.7759	3206.4875
3068.16494	3193.6875
3070.55254	3197.4875
3072.93868	3195.8875
3075.32338	3190.6875
3077.70662	3189.8875
3080.08842	3167.9875
3082.46878	3161.7875
3084.84769	3146.3875
3087.22515	3144.0875
3089.60118	3133.1875
3091.97576	3140.7875
3094.3489	3147.3875
3096.72061	3144.9875
3099.09087	3153.1875
3101.4597	3147.6875
3103.82709	3147.0875
3106.19305	3143.2875
3108.55757	3144.4875
3110.92066	3149.3875
3113.28232	3151.1875
3115.64255	3141.1875
3118.00134	3129.7875
3120.35871	3127.3875
3122.71466	3120.6875
3125.06917	3143.0875
3127.42226	3116.1875
3129.77393	3140.2875
3132.12417	3125.7875
3134.47299	3125.4875
3136.82039	3150.0875
3139.16636	3152.8875
3141.51092	3152.0875
3143.85406	3159.2875
3146.19579	3175.8875
3148.53609	3172.9875
3150.87499	3180.7875
3153.21246	3186.7875
3155.54853	3194.3875
3157.88318	3197.9875
3160.21642	3203.5875
3162.54826	3201.5875
3164.87868	3211.7875
3167.2077	3211.4875
3169.5353	3229.3875
3171.86151	3223.5875
3174.18631	3219.4875
3176.5097	3217.6875
3178.83169	3216.5875
3181.15228	3231.6875
3183.47147	3228.5875
3185.78926	3220.6875
3188.10565	3217.0875
3190.42065	3233.9875
3192.73424	3249.7875
3195.04645	3234.9875
3197.35725	3241.6875
3199.66667	3254.5875
3201.97469	3266.6875
3204.28132	3285.6875
3206.58656	3291.5875
3208.8904	3286.7875
3211.19287	3293.9875
3213.49394	3306.8875
3215.79363	3320.8875
3218.09193	3317.6875
3220.38884	3342.7875
3222.68438	3337.4875
3224.97853	3327.8875
3227.2713	3341.6875
3229.56269	3329.1875
3231.8527	3333.9875
3234.14133	3333.8875
3236.42858	3335.7875
3238.71446	3332.3875
3240.99896	3325.2875
3243.28209	3329.1875
3245.56384	3299.8875
3247.84423	3307.5875
3250.12324	3319.5875
3252.40088	3299.6875
3254.67715	3308.5875
3256.95205	3301.7875
3259.22558	3296.5875
3261.49775	3310.7875
3263.76855	3312.4875
3266.03799	3300.5875
3268.30606	3306.3875
3270.57277	3305.5875
3272.83812	3289.7875
3275.10211	3296.4875
3277.36474	3289.5875
3279.62601	3292.3875
3281.88593	3278.5875
3284.14448	3287.2875
3286.40168	3292.8875
3288.65753	3295.2875
3290.91202	3292.7875
3293.16516	3290.2875
3295.41695	3287.3875
3297.66738	3282.6875
3299.91647	3261.0875
3302.16421	3233.9875
3304.4106	3235.4875
3306.65564	3211.8875
3308.89933	3193.6875
3311.14169	3172.1875
3313.38269	3134.0875
3315.62236	3113.9875
3317.86068	3100.0875
3320.09766	3071.5875
3322.3333	3040.3875
3324.5676	3044.7875
3326.80056	3002.0875
3329.03219	2983.5875
3331.26248	1.0875
3333.49143	0.1875
3335.71905	0.0875
