Data from AgNPs_APTES_FTO_UA_100uM_CRN_0uM_R6G_10uM_Scan_RamanShift__43__16-32-52-977.txt Node

Date: Mon Jul 11 16:32:52 BST 2022
User: TCL
Spectrometer: QEP01345
Trigger mode: 4
Integration Time (sec): 7.000000E0
Scans to average: 10
Electric dark correction enabled: true
Nonlinearity correction enabled: false
Boxcar width: 0
XAxis mode: Raman Shifts
Number of Pixels in Spectrum: 1044
>>>>>Begin Spectral Data<<<<<
46.04893	-0.4
50.45542	-0.3
54.85868	-0
59.25871	-2.5
63.6555	65.7
68.04907	73.9
72.43941	76.1
76.82654	76.4
81.21044	82.1
85.59113	86.6
89.96862	91.3
94.34289	93.9
98.71396	94.5
103.08183	97.5
107.4465	103.2
111.80798	102.9
116.16626	102.6
120.52136	107.7
124.87327	115
129.222	122.8
133.56755	129
137.90993	143.4
142.24913	158.2
146.58517	170.3
150.91804	197.1
155.24774	241.8
159.57429	301.3
163.89768	384.8
168.21792	509.9
172.53501	701.7
176.84895	982.6
181.15975	1379.5
185.46741	1947.4
189.77193	2669.7
194.07331	3607.6
198.37157	4638.7
202.6667	5711.7
206.9587	6780.3
211.24758	7861.7
215.53334	8928.1
219.81599	10088.2
224.09553	11347.6
228.37195	12746.8
232.64527	14308.2
236.91549	15876.7
241.18261	17444.8
245.44663	18856.8
249.70755	20053.3
253.96539	21121.5
258.22014	21938
262.4718	22560.3
266.72039	22935.2
270.96589	23066
275.20832	22896.5
279.44768	22539.8
283.68397	22086.5
287.91719	21724.1
292.14735	21491.7
296.37445	21412
300.59849	21571.4
304.81948	21840.8
309.03742	22003.1
313.25231	22014.3
317.46415	21678.9
321.67296	21265.6
325.87872	20937.7
330.08145	20800.2
334.28114	20824
338.47781	20985.3
342.67145	21291.6
346.86207	21742.8
351.04966	22261.1
355.23424	22826.9
359.4158	23197
363.59435	23514
367.76989	23688.7
371.94243	23826.9
376.11196	23859.9
380.27849	23850
384.44203	24003.4
388.60257	24150.7
392.76012	24332.4
396.91468	24546.1
401.06626	24874.1
405.21485	25101.5
409.36047	24916
413.50311	24540.8
417.64277	24196.3
421.77947	24054.4
425.9132	24084.3
430.04396	24202.5
434.17176	24393.8
438.2966	24651.7
442.41849	25227.3
446.53742	25884.1
450.6534	26520.1
454.76644	26882.1
458.87653	26859.3
462.98368	26655.7
467.08789	26312.6
471.18916	25852.6
475.2875	25341.9
479.38291	24891.6
483.4754	24658.6
487.56496	24594.7
491.6516	24593.9
495.73531	24777.4
499.81612	24969.4
503.89401	25240.7
507.96899	25364
512.04106	25373.6
516.11023	25375.2
520.1765	25427.7
524.23987	25472.6
528.30034	25492.4
532.35792	25391.1
536.41261	25115.3
540.46441	24774.4
544.51333	24641.3
548.55936	24735.7
552.60252	25043
556.64279	25457.5
560.6802	25744.6
564.71473	25845.2
568.7464	26078.7
572.7752	26282.3
576.80114	26456.5
580.82422	26781.6
584.84444	27570.5
588.86181	28748.4
592.87633	29804.5
596.888	30038
600.89682	29491.7
604.9028	30101.3
608.90594	33164.7
612.90624	36083.9
616.90371	33523.6
620.89834	28452.3
624.89015	26519.1
628.87913	26333
632.86528	26677.7
636.84862	26838.5
640.82913	26559.9
644.80683	26021.2
648.78172	25708.6
652.75379	25700
656.72306	26122.1
660.68952	26516.5
664.65319	26133.2
668.61405	25710.5
672.57211	25714.3
676.52738	25904.9
680.47986	25902.9
684.42955	25842.2
688.37646	25894.2
692.32058	25943.3
696.26192	26086.2
700.20048	26133.4
704.13626	26109.5
708.06928	25924.8
711.99952	25731.4
715.927	25689.8
719.85171	25779.8
723.77365	25806.5
727.69284	25539.7
731.60928	25457.8
735.52295	25507.2
739.43388	25641.7
743.34206	25830.4
747.24749	25882.3
751.15017	25942.5
755.05012	26160.5
758.94733	26817.5
762.8418	28094.6
766.73354	30179.2
770.62254	31988.5
774.50882	32457.2
778.39237	31387.3
782.27321	29433.2
786.15132	27745.9
790.02671	26719.3
793.89938	26174.5
797.76935	25985.2
801.6366	25910.8
805.50115	25907.3
809.36299	25870.9
813.22213	25744.7
817.07857	25591.1
820.93231	25424.1
824.78336	25303.1
828.63172	25282.8
832.47738	25250.6
836.32036	25247.3
840.16066	25203.4
843.99827	25253.6
847.8332	25266.6
851.66546	25301.8
855.49504	25376.6
859.32195	25394.3
863.1462	25402.1
866.96777	25385.3
870.78668	25407
874.60293	25498.5
878.41652	25614.8
882.22745	25807.5
886.03573	25916.5
889.84136	25888.1
893.64433	25765.7
897.44466	25653.8
901.24235	25524.8
905.0374	25394.5
908.8298	25299.2
912.61957	25245.8
916.40671	25312.6
920.19121	25435.2
923.97308	25594.4
927.75233	25713.9
931.52895	25757.8
935.30295	25563.3
939.07433	25251.9
942.84309	25009.1
946.60924	24962.3
950.37278	24897.3
954.13371	24896.9
957.89203	24846.9
961.64774	24842.9
965.40086	24868.5
969.15137	24879.4
972.89929	24906.1
976.64461	24963.8
980.38733	25034.3
984.12747	25099.3
987.86502	25243.5
991.59999	25375.8
995.33237	25592.1
999.06217	26013.3
1002.78939	26513.2
1006.51404	27024.9
1010.23611	27523.6
1013.95561	27800
1017.67255	27798.5
1021.38692	27508.4
1025.09872	27059
1028.80796	26810.5
1032.51465	26884.2
1036.21877	26993.4
1039.92035	27032.2
1043.61937	26993.3
1047.31584	26815.9
1051.00976	26639.4
1054.70114	26624.8
1058.38998	26615
1062.07627	26825.4
1065.76003	27029.9
1069.44126	27316
1073.11995	27769
1076.79611	28196.5
1080.46974	28538.5
1084.14085	28788.4
1087.80943	29032.9
1091.47549	29155.7
1095.13903	28936.6
1098.80005	28465.8
1102.45857	28048
1106.11456	27838
1109.76805	27807.3
1113.41903	27941.2
1117.06751	28177.7
1120.71348	28628.9
1124.35696	29161.2
1127.99793	29735.4
1131.63641	29947
1135.2724	29765.7
1138.90589	29492.6
1142.5369	29303
1146.16542	29052.9
1149.79145	28810.8
1153.415	28591.6
1157.03607	28487.3
1160.65467	28598.6
1164.27079	29152.5
1167.88443	30110.2
1171.49561	31422
1175.10432	33245.8
1178.71056	35670.4
1182.31434	37636.1
1185.91565	38433.9
1189.51451	38014.6
1193.11091	37050.6
1196.70485	35947.5
1200.29634	35013.1
1203.88538	34288.6
1207.47197	33585
1211.05612	32944.5
1214.63782	32378.2
1218.21708	31964.5
1221.79391	31757.4
1225.36829	31784.9
1228.94024	31759.2
1232.50976	31440.3
1236.07685	31014.6
1239.6415	30716.8
1243.20374	30742.1
1246.76355	30884.6
1250.32093	31291.9
1253.8759	31752.1
1257.42845	32408.6
1260.97859	33160.9
1264.52631	34049.6
1268.07163	34919.9
1271.61453	35731.5
1275.15503	36225.6
1278.69312	36581.1
1282.22882	36764.9
1285.76211	37276.5
1289.29301	38059
1292.82151	39137.4
1296.34761	40231.1
1299.87133	41863.5
1303.39266	43891.4
1306.9116	46520.7
1310.42815	49232.2
1313.94233	50643.4
1317.45412	49925.4
1320.96354	47805.2
1324.47058	45624.8
1327.97525	43809.5
1331.47754	42486.3
1334.97747	41995.8
1338.47502	42038.5
1341.97022	42555.2
1345.46305	43274.8
1348.95352	44230.9
1352.44163	45509.3
1355.92738	47527.6
1359.41078	50453.9
1362.89183	52857.2
1366.37053	51824
1369.84688	47152
1373.32088	42068.4
1376.79254	38955.3
1380.26186	37550
1383.72883	37001.7
1387.19347	36638
1390.65578	36023.8
1394.11575	35457.8
1397.57339	35171.3
1401.0287	35005.2
1404.48168	34890.5
1407.93234	34880.3
1411.38068	34723.7
1414.82669	34403.8
1418.27039	34032.1
1421.71177	33623.3
1425.15083	33366.9
1428.58758	33441.9
1432.02203	33891
1435.45416	34569
1438.88399	35083.5
1442.31151	35246.2
1445.73673	35239.3
1449.15965	35174.8
1452.58027	34992.5
1455.9986	34848.8
1459.41463	35051.1
1462.82837	35628.7
1466.23982	36318.1
1469.64898	36848.5
1473.05586	37248.4
1476.46045	37407.9
1479.86276	37410.5
1483.26279	37381.7
1486.66054	37447.4
1490.05602	37817.7
1493.44922	38485.2
1496.84016	39235.5
1500.22882	40466.2
1503.61521	42356.8
1506.99934	44272.1
1510.38121	45641.6
1513.76081	45535.2
1517.13816	43728.7
1520.51324	41144.9
1523.88607	38942.5
1527.25665	37666.6
1530.62498	37224.9
1533.99105	37005.2
1537.35488	36810.7
1540.71647	36452
1544.07581	36047.7
1547.4329	35733.9
1550.78776	35443.8
1554.14038	35235.9
1557.49077	35165.2
1560.83892	35299.8
1564.18484	35552.5
1567.52853	35895.8
1570.86999	36198.2
1574.20922	36466.7
1577.54624	36360
1580.88103	35704.7
1584.2136	35007.4
1587.54395	35182.4
1590.87208	36259.5
1594.19801	38048.4
1597.52172	40001.1
1600.84321	40749.9
1604.16251	39724.5
1607.47959	37468.6
1610.79447	34996.9
1614.10715	32804
1617.41763	31138.4
1620.7259	30094.2
1624.03199	29695.7
1627.33587	29725.2
1630.63757	30375.1
1633.93707	31605.7
1637.23439	33731.4
1640.52951	36844.3
1643.82246	40556.4
1647.11321	43483
1650.40179	43840.7
1653.68819	41092.8
1656.97241	36605.1
1660.25446	32589.5
1663.53433	29851.4
1666.81203	28216.4
1670.08756	27238
1673.36092	26629.8
1676.63211	26218.7
1679.90115	25860.4
1683.16801	25505.5
1686.43272	25252.3
1689.69527	24985.1
1692.95567	24798.7
1696.2139	24657.2
1699.46999	24525.7
1702.72392	24434.7
1705.97571	24327.8
1709.22535	24232.5
1712.47284	24198.1
1715.71819	24141.4
1718.96139	24105.8
1722.20246	24042.1
1725.44139	23937.2
1728.67818	23786.2
1731.91284	23690.2
1735.14537	23567.2
1738.37576	23482.4
1741.60403	23398.5
1744.83017	23355.1
1748.05418	23312.5
1751.27607	23240.7
1754.49584	23167.3
1757.71349	23124.6
1760.92903	23136.5
1764.14244	23119.7
1767.35375	23067.7
1770.56294	23042.5
1773.77002	23018.6
1776.97499	22997.4
1780.17785	22955.7
1783.37861	22934.8
1786.57727	22890
1789.77382	22850.8
1792.96828	22849.7
1796.16064	22795.5
1799.3509	22793.3
1802.53907	22715.7
1805.72514	22653.6
1808.90913	22620.1
1812.09102	22603.7
1815.27083	22550.6
1818.44856	22523.3
1821.6242	22466.9
1824.79776	22487.7
1827.96924	22465.3
1831.13864	22416.1
1834.30597	22372
1837.47122	22348.6
1840.6344	22350.4
1843.7955	22359.9
1846.95454	22309.4
1850.11151	22312.7
1853.26642	22335.2
1856.41926	22298.6
1859.57004	22275.9
1862.71876	22242.9
1865.86542	22269.4
1869.01003	22261.7
1872.15258	22228.4
1875.29308	22209.4
1878.43152	22238.3
1881.56792	22197.1
1884.70227	22173.5
1887.83457	22138.6
1890.96482	22119.2
1894.09304	22083.4
1897.21921	22024.4
1900.34335	22003.1
1903.46544	22020.6
1906.58551	21983.9
1909.70353	21966.6
1912.81953	21947.9
1915.93349	21921
1919.04543	21829.9
1922.15534	21835.3
1925.26322	21778
1928.36908	21777.3
1931.47292	21708.8
1934.57473	21658.5
1937.67453	21615
1940.77232	21541.1
1943.86808	21486.2
1946.96184	21468.1
1950.05358	21416.8
1953.14331	21376.5
1956.23103	21281.8
1959.31675	21241.7
1962.40046	21191
1965.48217	21114.3
1968.56188	21061.5
1971.63959	20965.5
1974.7153	20944.2
1977.78901	20892.2
1980.86073	20848.1
1983.93046	20770.7
1986.99819	20702.1
1990.06394	20675
1993.1277	20640.6
1996.18947	20539.8
1999.24925	20508.3
2002.30706	20458.1
2005.36288	20417.1
2008.41672	20371.4
2011.46859	20294.4
2014.51848	20271.5
2017.56639	20217.8
2020.61233	20173.3
2023.6563	20168
2026.6983	20127.3
2029.73833	20048.3
2032.7764	20023.2
2035.8125	19898.2
2038.84664	19873.6
2041.87881	19873.5
2044.90903	19864.1
2047.93729	19819.1
2050.96359	19815.9
2053.98794	19767.4
2057.01034	19745.7
2060.03078	19734.4
2063.04927	19701.3
2066.06582	19667.7
2069.08042	19683.8
2072.09307	19656.3
2075.10378	19651.6
2078.11255	19672.7
2081.11938	19680.5
2084.12426	19633.2
2087.12722	19644
2090.12824	19652.7
2093.12732	19658.1
2096.12447	19628.9
2099.11969	19644.9
2102.11299	19650.7
2105.10435	19653.7
2108.09379	19634.6
2111.08131	19676.2
2114.0669	19639.9
2117.05057	19641
2120.03233	19736.1
2123.01216	19707.8
2125.99008	19729.6
2128.96609	19754.5
2131.94018	19758.4
2134.91236	19779.8
2137.88263	19764.9
2140.851	19747.1
2143.81746	19806.7
2146.78201	19844.1
2149.74466	19846.7
2152.7054	19828.3
2155.66425	19829
2158.6212	19803.4
2161.57625	19774.3
2164.52941	19782.2
2167.48067	19780.1
2170.43004	19802.6
2173.37752	19810.3
2176.32311	19806.6
2179.26681	19775.5
2182.20863	19787.8
2185.14856	19824.8
2188.08661	19827.1
2191.02278	19806.8
2193.95707	19821.7
2196.88948	19800.2
2199.82001	19783.1
2202.74867	19751.5
2205.67545	19709.5
2208.60037	19724.4
2211.52341	19686.2
2214.44458	19661.4
2217.36388	19636.4
2220.28132	19570.3
2223.1969	19491.4
2226.11061	19486.6
2229.02246	19456.2
2231.93245	19460.9
2234.84058	19402.5
2237.74686	19330.8
2240.65128	19346.4
2243.55385	19305
2246.45456	19345.6
2249.35343	19316.6
2252.25044	19255.6
2255.14561	19210.6
2258.03893	19233.6
2260.93041	19172
2263.82004	19125.6
2266.70783	19106.5
2269.59378	19053.3
2272.4779	19034.5
2275.36017	18999.3
2278.24061	19019.8
2281.11922	18922.3
2283.996	18923.6
2286.87094	18887.6
2289.74405	18830
2292.61534	18853.5
2295.4848	18777.2
2298.35243	18802.6
2301.21824	18788.4
2304.08223	18823.9
2306.94439	18799.9
2309.80474	18795.1
2312.66327	18800
2315.51999	18771
2318.37489	18751
2321.22797	18738.4
2324.07925	18674.3
2326.92871	18649.2
2329.77637	18661.4
2332.62222	18592.9
2335.46626	18587
2338.3085	18596.1
2341.14893	18563
2343.98756	18598.1
2346.8244	18559
2349.65943	18526.1
2352.49267	18533.7
2355.32411	18506.2
2358.15376	18544
2360.98161	18507.2
2363.80768	18509.5
2366.63195	18547.7
2369.45444	18480.3
2372.27514	18476.6
2375.09405	18462.1
2377.91118	18446
2380.72652	18382.6
2383.54009	18311.5
2386.35187	18308.8
2389.16188	18260.4
2391.97011	18231.7
2394.77657	18206.2
2397.58125	18185.6
2400.38416	18145.9
2403.18529	18125.1
2405.98466	18087.2
2408.78226	18086.4
2411.57809	18043.7
2414.37216	18004.5
2417.16446	18025
2419.955	17978.8
2422.74378	18008
2425.5308	17971
2428.31606	17983.6
2431.09956	17987.4
2433.88131	17964.3
2436.6613	17960.6
2439.43954	17940.4
2442.21603	17916.5
2444.99077	17892.2
2447.76377	17906.2
2450.53501	17892.6
2453.30451	17898.9
2456.07226	17893.8
2458.83827	17872.6
2461.60254	17794.6
2464.36507	17831.7
2467.12586	17814.6
2469.88492	17810.7
2472.64224	17782.2
2475.39782	17796.7
2478.15167	17820.8
2480.90379	17808.3
2483.65417	17858.3
2486.40283	17835.2
2489.14976	17846.8
2491.89497	17835.1
2494.63845	17777.7
2497.3802	17747.2
2500.12024	17767.4
2502.85855	17787.7
2505.59514	17716.1
2508.33002	17689.9
2511.06318	17628.6
2513.79462	17628.7
2516.52435	17583.5
2519.25237	17576.8
2521.97867	17523.1
2524.70327	17552.8
2527.42616	17526.3
2530.14734	17544.9
2532.86681	17513.8
2535.58458	17535
2538.30065	17529.3
2541.01501	17529.8
2543.72768	17462.3
2546.43864	17484.4
2549.14791	17443.3
2551.85548	17447.5
2554.56136	17422.5
2557.26554	17360.4
2559.96803	17349.1
2562.66883	17300.8
2565.36794	17326.1
2568.06536	17335.1
2570.7611	17266.2
2573.45514	17240.1
2576.14751	17229.8
2578.83819	17239.2
2581.52719	17190.3
2584.21451	17150.5
2586.90015	17156
2589.58411	17114.9
2592.2664	17080.2
2594.94701	17085.7
2597.62594	17069.4
2600.30321	17070.8
2602.9788	17084.8
2605.65273	17004.8
2608.32498	17033.5
2610.99557	16998.8
2613.66449	16990.2
2616.33175	16975.4
2618.99734	16951.1
2621.66128	16971.3
2624.32355	16898.3
2626.98416	16873.5
2629.64311	16862.8
2632.30041	16851.9
2634.95605	16796.9
2637.61004	16775.4
2640.26238	16751.6
2642.91306	16749.8
2645.56209	16723.4
2648.20948	16750.8
2650.85521	16743.5
2653.4993	16758.6
2656.14175	16767.6
2658.78255	16764
2661.42171	16757.8
2664.05923	16761.4
2666.6951	16774.6
2669.32934	16813.9
2671.96194	16829.2
2674.59291	16800.4
2677.22224	16778.1
2679.84993	16772.3
2682.476	16793.3
2685.10043	16757.8
2687.72324	16737.8
2690.34441	16697
2692.96396	16706.7
2695.58188	16761.4
2698.19818	16728.5
2700.81285	16736.7
2703.4259	16755.8
2706.03733	16784.4
2708.64714	16759.5
2711.25533	16796.3
2713.86191	16811.8
2716.46687	16854.2
2719.07021	16827
2721.67194	16858.3
2724.27206	16792.5
2726.87057	16811
2729.46747	16800.8
2732.06276	16823.8
2734.65644	16779.6
2737.24852	16831.1
2739.83899	16805.3
2742.42786	16790.2
2745.01513	16739.2
2747.60079	16731.7
2750.18486	16716
2752.76733	16710.7
2755.3482	16708.6
2757.92747	16663
2760.50515	16600.6
2763.08123	16607.8
2765.65573	16594.9
2768.22863	16591.4
2770.79994	16568.3
2773.36967	16576.3
2775.9378	16568.7
2778.50435	16593.1
2781.06932	16530.3
2783.6327	16530.2
2786.1945	16500.3
2788.75471	16482.8
2791.31335	16418.8
2793.87041	16388.8
2796.42589	16365.4
2798.97979	16342.7
2801.53212	16292.3
2804.08288	16295.6
2806.63206	16253.7
2809.17967	16225.9
2811.72571	16172.6
2814.27018	16136.7
2816.81308	16104.2
2819.35442	16049.2
2821.89419	16009.1
2824.43239	16044.2
2826.96904	16011.8
2829.50412	16020
2832.03763	15956.9
2834.56959	15990.4
2837.1	15972.1
2839.62884	15953.3
2842.15613	15898.6
2844.68186	15917.6
2847.20604	15925.1
2849.72867	15899
2852.24974	15884.7
2854.76927	15865.7
2857.28724	15863.3
2859.80367	15855.1
2862.31855	15841.7
2864.83189	15843.6
2867.34368	15799.6
2869.85393	15833
2872.36264	15836
2874.8698	15772.4
2877.37543	15788.3
2879.87952	15768
2882.38207	15787.6
2884.88308	15750
2887.38256	15760.7
2889.88051	15741.7
2892.37692	15754.6
2894.8718	15781.7
2897.36515	15784
2899.85698	15783.2
2902.34727	15796.7
2904.83604	15819
2907.32328	15855.3
2909.809	15800.2
2912.29319	15820.9
2914.77587	15834.1
2917.25702	15829.7
2919.73665	15837.1
2922.21476	15823
2924.69136	15778.7
2927.16644	15781.9
2929.64	15748.6
2932.11205	15748.2
2934.58258	15710.7
2937.05161	15683.2
2939.51912	15685.2
2941.98513	15680.7
2944.44962	15636
2946.91261	15614.9
2949.37409	15615
2951.83407	15583.6
2954.29254	15611.3
2956.74951	15630.6
2959.20498	15579.3
2961.65895	15587.6
2964.11142	15599.7
2966.56239	15544.4
2969.01186	15600.6
2971.45984	15535.4
2973.90632	15544.2
2976.35131	15517.5
2978.7948	15457.1
2981.23681	15460.5
2983.67732	15432.3
2986.11635	15377.2
2988.55388	15350.8
2990.98993	15310.4
2993.4245	15326.3
2995.85758	15288.9
2998.28917	15255.2
3000.71928	15241.7
3003.14791	15204
3005.57506	15154.4
3008.00073	15097.8
3010.42493	15134.2
3012.84764	15113.5
3015.26888	15129.8
3017.68865	15070.6
3020.10694	15046.3
3022.52376	15000.4
3024.9391	15003.2
3027.35298	14999.9
3029.76539	14944.3
3032.17632	14938.9
3034.5858	14890.5
3036.9938	14894.9
3039.40034	14884.4
3041.80542	14898.6
3044.20903	14863.9
3046.61118	14842
3049.01187	14813.6
3051.4111	14792.6
3053.80888	14770.2
3056.20519	14736.9
3058.60005	14709.7
3060.99345	14662.2
3063.3854	14685.1
3065.7759	14648.8
3068.16494	14610.4
3070.55254	14561.4
3072.93868	14553.1
3075.32338	14500.8
3077.70662	14505.9
3080.08842	14455.3
3082.46878	14452.9
3084.84769	14406
3087.22515	14398.8
3089.60118	14419.3
3091.97576	14411.4
3094.3489	14410
3096.72061	14407.5
3099.09087	14424.5
3101.4597	14408.2
3103.82709	14391.6
3106.19305	14381.7
3108.55757	14412.3
3110.92066	14370.8
3113.28232	14344.5
3115.64255	14325.9
3118.00134	14274.4
3120.35871	14220.4
3122.71466	14221.9
3125.06917	14185.5
3127.42226	14154.3
3129.77393	14144.7
3132.12417	14114.2
3134.47299	14131.9
3136.82039	14088.4
3139.16636	14116.9
3141.51092	14046.4
3143.85406	14068.3
3146.19579	14109.1
3148.53609	14103.1
3150.87499	14104.9
3153.21246	14093.4
3155.54853	14144.3
3157.88318	14122.4
3160.21642	14116
3162.54826	14131.7
3164.87868	14095.7
3167.2077	14086.2
3169.5353	14090.3
3171.86151	14097.6
3174.18631	14090.7
3176.5097	14108.2
3178.83169	14057
3181.15228	14046.6
3183.47147	13985.7
3185.78926	13970.1
3188.10565	13944.7
3190.42065	13939.2
3192.73424	13930.7
3195.04645	13900.1
3197.35725	13896.1
3199.66667	13875
3201.97469	13895.5
3204.28132	13883.9
3206.58656	13896.9
3208.8904	13895.4
3211.19287	13871.2
3213.49394	13882.1
3215.79363	13894.1
3218.09193	13878.2
3220.38884	13907.4
3222.68438	13894.4
3224.97853	13879.2
3227.2713	13887.4
3229.56269	13875.2
3231.8527	13864.7
3234.14133	13834.7
3236.42858	13805.5
3238.71446	13769.6
3240.99896	13734.1
3243.28209	13731.9
3245.56384	13684.9
3247.84423	13682.3
3250.12324	13646.1
3252.40088	13656.2
3254.67715	13663
3256.95205	13618.9
3259.22558	13640.1
3261.49775	13618.6
3263.76855	13608.9
3266.03799	13610.7
3268.30606	13577.3
3270.57277	13553.5
3272.83812	13542.8
3275.10211	13513.6
3277.36474	13446.4
3279.62601	13475.2
3281.88593	13461.5
3284.14448	13504.2
3286.40168	13454.6
3288.65753	13480.6
3290.91202	13457.4
3293.16516	13391
3295.41695	13401.7
3297.66738	13340.5
3299.91647	13322.3
3302.16421	13214.1
3304.4106	13196.4
3306.65564	13108.4
3308.89933	13017
3311.14169	12912.9
3313.38269	12851.9
3315.62236	12778.3
3317.86068	12697.1
3320.09766	12579.8
3322.3333	12520
3324.5676	12489.7
3326.80056	12312
3329.03219	12241.4
3331.26248	3.6
3333.49143	1
3335.71905	-0.6
