Data from AgNPs_APTES_FTO_UA_100uM_CRN_0uM_R6G_10uM_Scan_RamanShift__41__16-30-32-974.txt Node

Date: Mon Jul 11 16:30:32 BST 2022
User: TCL
Spectrometer: QEP01345
Trigger mode: 4
Integration Time (sec): 7.000000E0
Scans to average: 10
Electric dark correction enabled: true
Nonlinearity correction enabled: false
Boxcar width: 0
XAxis mode: Raman Shifts
Number of Pixels in Spectrum: 1044
>>>>>Begin Spectral Data<<<<<
46.04893	-0.3
50.45542	1
54.85868	-0.2
59.25871	-1.3
63.6555	45.5
68.04907	47.3
72.43941	53.5
76.82654	54.5
81.21044	57.2
85.59113	57.1
89.96862	63.6
94.34289	64.9
98.71396	67.2
103.08183	68.4
107.4465	68.3
111.80798	68.6
116.16626	73.9
120.52136	79.4
124.87327	80.9
129.222	82.2
133.56755	85.3
137.90993	96
142.24913	106.2
146.58517	118.3
150.91804	133.5
155.24774	167.6
159.57429	207.3
163.89768	265
168.21792	350.9
172.53501	478.2
176.84895	662.7
181.15975	928.5
185.46741	1293.4
189.77193	1781.7
194.07331	2401.6
198.37157	3084.1
202.6667	3811.6
206.9587	4508.7
211.24758	5270.1
215.53334	6080.8
219.81599	7007
224.09553	8033.8
228.37195	9174.6
232.64527	10412.8
236.91549	11602
241.18261	12599.6
245.44663	13310.8
249.70755	13822.4
253.96539	14186.3
258.22014	14464.8
262.4718	14717.8
266.72039	14854.5
270.96589	14817.9
275.20832	14523.7
279.44768	14113.9
283.68397	13706.4
287.91719	13529.8
292.14735	13741.9
296.37445	14382.6
300.59849	15503.5
304.81948	16686.3
309.03742	17547.6
313.25231	17448.3
317.46415	16195.2
321.67296	14415.2
325.87872	13022.2
330.08145	12463
334.28114	12466.9
338.47781	12836.7
342.67145	13384.4
346.86207	14360.7
351.04966	15714.8
355.23424	17184.8
359.4158	18183.8
363.59435	18604.2
367.76989	18634.7
371.94243	18457.9
376.11196	18300.1
380.27849	18079.6
384.44203	17697.3
388.60257	17194.3
392.76012	16878.2
396.91468	16972.9
401.06626	17415
405.21485	17541.5
409.36047	16700.4
413.50311	15173.3
417.64277	13808
421.77947	12987.3
425.9132	12636.8
430.04396	12530.5
434.17176	12678.9
438.2966	12999.3
442.41849	13543.5
446.53742	14095.5
450.6534	14539
454.76644	14684.5
458.87653	14518.8
462.98368	14219.8
467.08789	13792.8
471.18916	13300
475.2875	12809.9
479.38291	12437.6
483.4754	12227
487.56496	12169.5
491.6516	12201.7
495.73531	12281.4
499.81612	12379.5
503.89401	12654.1
507.96899	13016.4
512.04106	13526.2
516.11023	14109.7
520.1765	14510.2
524.23987	14539.2
528.30034	14208.7
532.35792	13735.5
536.41261	13265.6
540.46441	12656.7
544.51333	12280.6
548.55936	12274.1
552.60252	12582.3
556.64279	12943.9
560.6802	13140.7
564.71473	13604.5
568.7464	14475.8
572.7752	14588.6
576.80114	13423.8
580.82422	12462.6
584.84444	12222.2
588.86181	12454.3
592.87633	12895.1
596.888	13363.4
600.89682	14251.6
604.9028	17735.5
608.90594	26782.3
612.90624	36351.1
616.90371	31720.4
620.89834	19288.6
624.89015	14570.5
628.87913	14086.1
632.86528	14817.3
636.84862	15456.7
640.82913	14900.3
644.80683	13616.9
648.78172	12697.3
652.75379	12623
656.72306	13419.2
660.68952	14075.5
664.65319	13259.1
668.61405	11999.2
672.57211	11522
676.52738	11544.7
680.47986	11487
684.42955	11330.6
688.37646	11245.4
692.32058	11287.3
696.26192	11407.2
700.20048	11616.5
704.13626	11657.1
708.06928	11497.4
711.99952	11315.1
715.927	11367.5
719.85171	11600
723.77365	11761.2
727.69284	11752.5
731.60928	11657.7
735.52295	11561.3
739.43388	11539.9
743.34206	11554
747.24749	11554.2
751.15017	11552
755.05012	11922.7
758.94733	13126.7
762.8418	16042.7
766.73354	20521.3
770.62254	24728.3
774.50882	26974.3
778.39237	25488.6
782.27321	20547.4
786.15132	15803.7
790.02671	13285.1
793.89938	12224
797.76935	11848.4
801.6366	11765.1
805.50115	11924.2
809.36299	12052.3
813.22213	12079
817.07857	11928.3
820.93231	11712.7
824.78336	11522.8
828.63172	11424.3
832.47738	11308.6
836.32036	11151
840.16066	10981.7
843.99827	10867.7
847.8332	10836.2
851.66546	10847.1
855.49504	10879.5
859.32195	10859.3
863.1462	10796.9
866.96777	10832.6
870.78668	10936.7
874.60293	11190.7
878.41652	11480.1
882.22745	11838
886.03573	12052.6
889.84136	12009.7
893.64433	11858.6
897.44466	11585.6
901.24235	11377.4
905.0374	11060.6
908.8298	10791.6
912.61957	10581.6
916.40671	10541.4
920.19121	10547.5
923.97308	10670.7
927.75233	11014
931.52895	11317.2
935.30295	11142.3
939.07433	10549.7
942.84309	10106.9
946.60924	9858.3
950.37278	9744.5
954.13371	9698
957.89203	9703.6
961.64774	9676.7
965.40086	9633.6
969.15137	9611.1
972.89929	9585.9
976.64461	9592.2
980.38733	9598.2
984.12747	9605.8
987.86502	9676.1
991.59999	9764.7
995.33237	9932.7
999.06217	10198.8
1002.78939	10524.5
1006.51404	10927.5
1010.23611	11326.4
1013.95561	11522.8
1017.67255	11538.5
1021.38692	11367.8
1025.09872	11027.3
1028.80796	10737.8
1032.51465	10640
1036.21877	10669.7
1039.92035	10726.2
1043.61937	10819.8
1047.31584	10816.5
1051.00976	10749.9
1054.70114	10671.3
1058.38998	10640.6
1062.07627	10696.9
1065.76003	10773.6
1069.44126	10908.3
1073.11995	11132.1
1076.79611	11466.1
1080.46974	12026.1
1084.14085	12681.2
1087.80943	13227.3
1091.47549	13240.3
1095.13903	12730
1098.80005	11952.8
1102.45857	11509.8
1106.11456	11515.2
1109.76805	11925
1113.41903	12646.7
1117.06751	13779.6
1120.71348	15262.7
1124.35696	16916.7
1127.99793	18045.5
1131.63641	17605.1
1135.2724	16177.3
1138.90589	14949.8
1142.5369	14082.5
1146.16542	13303.1
1149.79145	12655.7
1153.415	12292.8
1157.03607	12163.4
1160.65467	12359
1164.27079	12920.6
1167.88443	13949.7
1171.49561	15712.5
1175.10432	18744.7
1178.71056	22896.3
1182.31434	25937.4
1185.91565	26452.8
1189.51451	24972.5
1193.11091	22596.4
1196.70485	20305
1200.29634	18928.2
1203.88538	17742.4
1207.47197	16149.2
1211.05612	14731.8
1214.63782	13803.8
1218.21708	13250.9
1221.79391	12961.1
1225.36829	12867.4
1228.94024	12825.3
1232.50976	13256.2
1236.07685	12680.7
1239.6415	12679.2
1243.20374	12816.4
1246.76355	12944.5
1250.32093	13116.3
1253.8759	13473.9
1257.42845	13991.7
1260.97859	14660.1
1264.52631	15463.6
1268.07163	16196.4
1271.61453	16720.9
1275.15503	16921.4
1278.69312	16790.3
1282.22882	16890.8
1285.76211	17473.4
1289.29301	18482.2
1292.82151	19523.5
1296.34761	20724.1
1299.87133	22593
1303.39266	25898.8
1306.9116	30624.2
1310.42815	34956.2
1313.94233	35840.3
1317.45412	32833.6
1320.96354	28452.9
1324.47058	24320.3
1327.97525	21258
1331.47754	19563.8
1334.97747	19137.8
1338.47502	19585.6
1341.97022	20982.1
1345.46305	23387.7
1348.95352	26887.2
1352.44163	31337.4
1355.92738	37319.6
1359.41078	45206.6
1362.89183	50274.8
1366.37053	46267
1369.84688	36990.4
1373.32088	28795.9
1376.79254	23602.6
1380.26186	20835.4
1383.72883	19217.8
1387.19347	17835
1390.65578	16438.1
1394.11575	15375.5
1397.57339	14738
1401.0287	14445.3
1404.48168	14306.9
1407.93234	14243.9
1411.38068	14354.7
1414.82669	14509.7
1418.27039	14595.9
1421.71177	14446.9
1425.15083	14208.4
1428.58758	14205
1432.02203	14498.2
1435.45416	14816.1
1438.88399	14935.5
1442.31151	14942.9
1445.73673	15101
1449.15965	15273
1452.58027	15218
1455.9986	15022.1
1459.41463	15020.2
1462.82837	15325.8
1466.23982	15861
1469.64898	16296.9
1473.05586	16553.5
1476.46045	16706.2
1479.86276	17017.3
1483.26279	17587.2
1486.66054	18367.6
1490.05602	19564.5
1493.44922	21400.8
1496.84016	24445.7
1500.22882	29238.9
1503.61521	35760.5
1506.99934	42403.8
1510.38121	46750.5
1513.76081	46353.2
1517.13816	40752.4
1520.51324	32884.3
1523.88607	26368.8
1527.25665	22423
1530.62498	20354.5
1533.99105	19244.4
1537.35488	18621.6
1540.71647	18388
1544.07581	18569.4
1547.4329	18823.7
1550.78776	19009.1
1554.14038	19014.8
1557.49077	19054.4
1560.83892	19330.5
1564.18484	20164.6
1567.52853	21460.5
1570.86999	22572
1574.20922	23262
1577.54624	22746.3
1580.88103	20645.9
1584.2136	18099.8
1587.54395	16682.9
1590.87208	16635.8
1594.19801	17768.1
1597.52172	19386.6
1600.84321	20051.6
1604.16251	19309.4
1607.47959	17856.7
1610.79447	16271.5
1614.10715	14800
1617.41763	13667.4
1620.7259	12990
1624.03199	12759.2
1627.33587	12838.8
1630.63757	13244.7
1633.93707	14139.9
1637.23439	15700.5
1640.52951	18266.5
1643.82246	22082.6
1647.11321	26574.8
1650.40179	29321.2
1653.68819	27851.8
1656.97241	23098.8
1660.25446	18323
1663.53433	15132.7
1666.81203	13289.8
1670.08756	12211.2
1673.36092	11537.5
1676.63211	11034.1
1679.90115	10668.3
1683.16801	10344.4
1686.43272	10090.9
1689.69527	9870.7
1692.95567	9670.4
1696.2139	9550.4
1699.46999	9400.7
1702.72392	9329
1705.97571	9270.1
1709.22535	9217.3
1712.47284	9201.4
1715.71819	9160.4
1718.96139	9092.7
1722.20246	9023.7
1725.44139	8911.5
1728.67818	8765.4
1731.91284	8655.8
1735.14537	8525.5
1738.37576	8479.7
1741.60403	8419.2
1744.83017	8381.2
1748.05418	8345
1751.27607	8270.3
1754.49584	8225.8
1757.71349	8213
1760.92903	8207.4
1764.14244	8165.4
1767.35375	8136.2
1770.56294	8067.8
1773.77002	8025.9
1776.97499	7990.9
1780.17785	7948.1
1783.37861	7917
1786.57727	7886.2
1789.77382	7844.5
1792.96828	7811.6
1796.16064	7823.6
1799.3509	7792.1
1802.53907	7784.3
1805.72514	7746.2
1808.90913	7703.6
1812.09102	7654.4
1815.27083	7630.9
1818.44856	7610.1
1821.6242	7592.7
1824.79776	7566.5
1827.96924	7542.1
1831.13864	7525.1
1834.30597	7515.8
1837.47122	7494.1
1840.6344	7472
1843.7955	7461.4
1846.95454	7441.2
1850.11151	7428.3
1853.26642	7430.6
1856.41926	7407.3
1859.57004	7408.9
1862.71876	7385.6
1865.86542	7388
1869.01003	7403.5
1872.15258	7396.4
1875.29308	7388.7
1878.43152	7377.4
1881.56792	7366.4
1884.70227	7353.6
1887.83457	7360.9
1890.96482	7347.7
1894.09304	7314.8
1897.21921	7349.7
1900.34335	7322.6
1903.46544	7318.4
1906.58551	7322.3
1909.70353	7326.4
1912.81953	7299.6
1915.93349	7280.3
1919.04543	7274.1
1922.15534	7229.2
1925.26322	7220.3
1928.36908	7210.8
1931.47292	7170.8
1934.57473	7157.4
1937.67453	7117.6
1940.77232	7110.7
1943.86808	7060.3
1946.96184	7045.6
1950.05358	7048.3
1953.14331	7034.6
1956.23103	7002.8
1959.31675	6981
1962.40046	6973.8
1965.48217	6977.6
1968.56188	6958.9
1971.63959	6929.9
1974.7153	6918.7
1977.78901	6907
1980.86073	6881.6
1983.93046	6848.4
1986.99819	6800.9
1990.06394	6767.7
1993.1277	6760.9
1996.18947	6716.1
1999.24925	6698
2002.30706	6674.8
2005.36288	6634.1
2008.41672	6612.5
2011.46859	6587.8
2014.51848	6568.1
2017.56639	6547.9
2020.61233	6542.2
2023.6563	6522.5
2026.6983	6481.2
2029.73833	6476.3
2032.7764	6459.2
2035.8125	6442.3
2038.84664	6425
2041.87881	6435.5
2044.90903	6418.6
2047.93729	6398.5
2050.96359	6402.6
2053.98794	6370.2
2057.01034	6378.1
2060.03078	6345.6
2063.04927	6343.1
2066.06582	6342.4
2069.08042	6341.6
2072.09307	6327.6
2075.10378	6315.5
2078.11255	6346.6
2081.11938	6331.7
2084.12426	6335.1
2087.12722	6325.5
2090.12824	6313.3
2093.12732	6316.4
2096.12447	6328.5
2099.11969	6332.9
2102.11299	6338.3
2105.10435	6330.9
2108.09379	6311
2111.08131	6340.5
2114.0669	6336.7
2117.05057	6345.1
2120.03233	6341.5
2123.01216	6352.9
2125.99008	6337.2
2128.96609	6373.2
2131.94018	6378.8
2134.91236	6361.3
2137.88263	6355.6
2140.851	6348.8
2143.81746	6351.1
2146.78201	6341
2149.74466	6337.6
2152.7054	6321.6
2155.66425	6297.8
2158.6212	6298.7
2161.57625	6290.5
2164.52941	6288.4
2167.48067	6280.5
2170.43004	6278.3
2173.37752	6252
2176.32311	6296.2
2179.26681	6268.2
2182.20863	6271.6
2185.14856	6289.9
2188.08661	6270.3
2191.02278	6258.4
2193.95707	6259.4
2196.88948	6225.4
2199.82001	6228.3
2202.74867	6206.1
2205.67545	6221.5
2208.60037	6203
2211.52341	6201.3
2214.44458	6179.5
2217.36388	6170.7
2220.28132	6135.1
2223.1969	6125.1
2226.11061	6123.4
2229.02246	6102.5
2231.93245	6087.8
2234.84058	6071.1
2237.74686	6054.3
2240.65128	6066.3
2243.55385	6051.8
2246.45456	6062.1
2249.35343	6046.8
2252.25044	6055.6
2255.14561	6062.2
2258.03893	6077.6
2260.93041	6063.7
2263.82004	6078.6
2266.70783	6065.7
2269.59378	6050.5
2272.4779	6029
2275.36017	5996.3
2278.24061	5998.2
2281.11922	5990.2
2283.996	5972.6
2286.87094	5921.4
2289.74405	5918.1
2292.61534	5899.4
2295.4848	5873.8
2298.35243	5864.8
2301.21824	5857
2304.08223	5884.2
2306.94439	5849.5
2309.80474	5870.3
2312.66327	5850.2
2315.51999	5844
2318.37489	5836.2
2321.22797	5823.2
2324.07925	5818.2
2326.92871	5817.5
2329.77637	5827.1
2332.62222	5793
2335.46626	5784.1
2338.3085	5793.2
2341.14893	5786.7
2343.98756	5790.9
2346.8244	5800.5
2349.65943	5817.7
2352.49267	5818.9
2355.32411	5831
2358.15376	5836.2
2360.98161	5863
2363.80768	5880.2
2366.63195	5903.2
2369.45444	5911.5
2372.27514	5936.2
2375.09405	5920.4
2377.91118	5889.6
2380.72652	5854.6
2383.54009	5835
2386.35187	5801.5
2389.16188	5786.3
2391.97011	5761.3
2394.77657	5716.1
2397.58125	5697.1
2400.38416	5682.5
2403.18529	5648
2405.98466	5631.5
2408.78226	5621.4
2411.57809	5606
2414.37216	5592.5
2417.16446	5586.6
2419.955	5577.2
2422.74378	5587.4
2425.5308	5584.6
2428.31606	5597.4
2431.09956	5600.6
2433.88131	5572.5
2436.6613	5587.9
2439.43954	5594.3
2442.21603	5588.7
2444.99077	5608.7
2447.76377	5600.2
2450.53501	5625.9
2453.30451	5624.5
2456.07226	5606
2458.83827	5612.4
2461.60254	5593.4
2464.36507	5595.4
2467.12586	5594.7
2469.88492	5600.7
2472.64224	5602.6
2475.39782	5618
2478.15167	5639.8
2480.90379	5662.9
2483.65417	5678.5
2486.40283	5700.4
2489.14976	5706.8
2491.89497	5719.4
2494.63845	5739.7
2497.3802	5717.9
2500.12024	5714.6
2502.85855	5681.5
2505.59514	5646.6
2508.33002	5613.3
2511.06318	5575.3
2513.79462	5548.4
2516.52435	5484.7
2519.25237	5464.7
2521.97867	5441.4
2524.70327	5414.4
2527.42616	5403.8
2530.14734	5412
2532.86681	5388.9
2535.58458	5410.5
2538.30065	5405.9
2541.01501	5405
2543.72768	5409.1
2546.43864	5410.8
2549.14791	5411
2551.85548	5412.4
2554.56136	5415.2
2557.26554	5408
2559.96803	5381.6
2562.66883	5378.9
2565.36794	5368.3
2568.06536	5370.7
2570.7611	5362.2
2573.45514	5360.2
2576.14751	5347.4
2578.83819	5314.2
2581.52719	5316.8
2584.21451	5294.4
2586.90015	5271.7
2589.58411	5254
2592.2664	5259.8
2594.94701	5256.2
2597.62594	5257.2
2600.30321	5248.1
2602.9788	5235.7
2605.65273	5233.5
2608.32498	5242
2610.99557	5241.6
2613.66449	5229.3
2616.33175	5238.6
2618.99734	5254.5
2621.66128	5220.9
2624.32355	5207.2
2626.98416	5205.2
2629.64311	5186.1
2632.30041	5171.4
2634.95605	5172.8
2637.61004	5138.1
2640.26238	5118.9
2642.91306	5112.4
2645.56209	5118.2
2648.20948	5114.6
2650.85521	5118
2653.4993	5115
2656.14175	5122.8
2658.78255	5122.9
2661.42171	5139.8
2664.05923	5164.4
2666.6951	5161.5
2669.32934	5164.6
2671.96194	5197.1
2674.59291	5177.2
2677.22224	5179.2
2679.84993	5184.8
2682.476	5174.9
2685.10043	5176.6
2687.72324	5159.9
2690.34441	5162.5
2692.96396	5170
2695.58188	5179.6
2698.19818	5176.7
2700.81285	5190.9
2703.4259	5164.3
2706.03733	5197.6
2708.64714	5195.3
2711.25533	5203.9
2713.86191	5217.2
2716.46687	5234.4
2719.07021	5228.3
2721.67194	5233.2
2724.27206	5230.2
2726.87057	5217.3
2729.46747	5214.9
2732.06276	5200.9
2734.65644	5204.9
2737.24852	5209.8
2739.83899	5176
2742.42786	5182.4
2745.01513	5166.5
2747.60079	5156.4
2750.18486	5126.8
2752.76733	5116.6
2755.3482	5118.1
2757.92747	5107.8
2760.50515	5116.1
2763.08123	5110.9
2765.65573	5091.1
2768.22863	5077.5
2770.79994	5068.6
2773.36967	5064.8
2775.9378	5055.7
2778.50435	5072.3
2781.06932	5058.2
2783.6327	5057.3
2786.1945	5059.9
2788.75471	5071.5
2791.31335	5064
2793.87041	5071.5
2796.42589	5049.1
2798.97979	5055.3
2801.53212	5058.5
2804.08288	5057.9
2806.63206	5056.4
2809.17967	5065.9
2811.72571	5062.4
2814.27018	5076.1
2816.81308	5064.5
2819.35442	5076.5
2821.89419	5085.5
2824.43239	5109.9
2826.96904	5115.3
2829.50412	5107.5
2832.03763	5116.6
2834.56959	5116.7
2837.1	5107.4
2839.62884	5123.7
2842.15613	5143.4
2844.68186	5173.8
2847.20604	5182.7
2849.72867	5209.4
2852.24974	5218.8
2854.76927	5227.1
2857.28724	5223.3
2859.80367	5247.1
2862.31855	5233.8
2864.83189	5249.7
2867.34368	5239.3
2869.85393	5250.3
2872.36264	5260.1
2874.8698	5257
2877.37543	5239.1
2879.87952	5251.4
2882.38207	5227.6
2884.88308	5211.7
2887.38256	5202.5
2889.88051	5201.9
2892.37692	5198.3
2894.8718	5206.9
2897.36515	5215.8
2899.85698	5231.8
2902.34727	5226.4
2904.83604	5243.6
2907.32328	5255.2
2909.809	5237.9
2912.29319	5217
2914.77587	5221.4
2917.25702	5222.4
2919.73665	5217.6
2922.21476	5211.9
2924.69136	5200.7
2927.16644	5210.6
2929.64	5176
2932.11205	5157.7
2934.58258	5128.7
2937.05161	5127.5
2939.51912	5127.4
2941.98513	5093
2944.44962	5079.1
2946.91261	5047.4
2949.37409	5035.4
2951.83407	5023.9
2954.29254	5018.9
2956.74951	5012.1
2959.20498	5021.8
2961.65895	4993.3
2964.11142	4992.9
2966.56239	4979.7
2969.01186	4975.5
2971.45984	4959.4
2973.90632	4948.3
2976.35131	4920
2978.7948	4908.7
2981.23681	4930.8
2983.67732	4888.8
2986.11635	4882.4
2988.55388	4880.1
2990.98993	4855.2
2993.4245	4869.1
2995.85758	4845.4
2998.28917	4846.3
3000.71928	4832
3003.14791	4821.9
3005.57506	4820.1
3008.00073	4811.2
3010.42493	4801.6
3012.84764	4803.1
3015.26888	4782.4
3017.68865	4784.3
3020.10694	4773.4
3022.52376	4772.9
3024.9391	4760.3
3027.35298	4757
3029.76539	4760.5
3032.17632	4748.7
3034.5858	4739.1
3036.9938	4718.9
3039.40034	4706.3
3041.80542	4705.8
3044.20903	4693.5
3046.61118	4689.5
3049.01187	4678.1
3051.4111	4687
3053.80888	4678.6
3056.20519	4674.4
3058.60005	4655.8
3060.99345	4660.4
3063.3854	4653.8
3065.7759	4642.7
3068.16494	4618.2
3070.55254	4615.8
3072.93868	4609.7
3075.32338	4604.7
3077.70662	4602.4
3080.08842	4573.7
3082.46878	4571.8
3084.84769	4547.8
3087.22515	4550.9
3089.60118	4551.9
3091.97576	4548
3094.3489	4544.8
3096.72061	4541.8
3099.09087	4563.6
3101.4597	4545.6
3103.82709	4549.7
3106.19305	4543.9
3108.55757	4557.3
3110.92066	4537.1
3113.28232	4538.7
3115.64255	4511.7
3118.00134	4531.1
3120.35871	4524.8
3122.71466	4510.2
3125.06917	4509.3
3127.42226	4496.9
3129.77393	4498.4
3132.12417	4504.1
3134.47299	4496.4
3136.82039	4516.3
3139.16636	4513.8
3141.51092	4516
3143.85406	4516.1
3146.19579	4513.9
3148.53609	4526.6
3150.87499	4535.2
3153.21246	4542.5
3155.54853	4539.7
3157.88318	4546.3
3160.21642	4553.6
3162.54826	4556
3164.87868	4573.1
3167.2077	4567.2
3169.5353	4572.7
3171.86151	4576
3174.18631	4557.2
3176.5097	4570.5
3178.83169	4550.7
3181.15228	4593.8
3183.47147	4572.7
3185.78926	4558
3188.10565	4557.5
3190.42065	4565.2
3192.73424	4562.4
3195.04645	4562.3
3197.35725	4558.8
3199.66667	4567.1
3201.97469	4576.7
3204.28132	4582.4
3206.58656	4597.8
3208.8904	4603.2
3211.19287	4605
3213.49394	4611.4
3215.79363	4607.9
3218.09193	4621.5
3220.38884	4628.3
3222.68438	4639.8
3224.97853	4648.9
3227.2713	4629.2
3229.56269	4624.9
3231.8527	4621.5
3234.14133	4617.8
3236.42858	4615
3238.71446	4627.7
3240.99896	4598.3
3243.28209	4600.6
3245.56384	4588.9
3247.84423	4593.7
3250.12324	4589.7
3252.40088	4585.7
3254.67715	4587.1
3256.95205	4565.5
3259.22558	4582.3
3261.49775	4572
3263.76855	4588.1
3266.03799	4568.2
3268.30606	4574.9
3270.57277	4568.5
3272.83812	4564.1
3275.10211	4559.2
3277.36474	4548.7
3279.62601	4539.7
3281.88593	4553.9
3284.14448	4554.3
3286.40168	4541
3288.65753	4541.1
3290.91202	4558.7
3293.16516	4558.3
3295.41695	4538
3297.66738	4517.6
3299.91647	4502.7
3302.16421	4452.9
3304.4106	4437.8
3306.65564	4424.7
3308.89933	4389.1
3311.14169	4361.6
3313.38269	4333.7
3315.62236	4318.6
3317.86068	4267
3320.09766	4243.6
3322.3333	4227.6
3324.5676	4209.2
3326.80056	4153.2
3329.03219	4122
3331.26248	1.9
3333.49143	0.6
3335.71905	-0.9
