Data from AgNPs_APTES_FTO_UA_100uM_CRN_0uM_R6G_10uM_Scan_RamanShift__26__16-13-02-957.txt Node

Date: Mon Jul 11 16:13:02 BST 2022
User: TCL
Spectrometer: QEP01345
Trigger mode: 4
Integration Time (sec): 7.000000E0
Scans to average: 10
Electric dark correction enabled: true
Nonlinearity correction enabled: false
Boxcar width: 0
XAxis mode: Raman Shifts
Number of Pixels in Spectrum: 1044
>>>>>Begin Spectral Data<<<<<
46.04893	-0.6
50.45542	-0.2
54.85868	0.3
59.25871	-1.4
63.6555	32.1
68.04907	38.3
72.43941	41.2
76.82654	40.2
81.21044	45.2
85.59113	47.5
89.96862	49.3
94.34289	48.5
98.71396	49.9
103.08183	50.7
107.4465	54.9
111.80798	52.9
116.16626	56.1
120.52136	57.4
124.87327	60
129.222	62.5
133.56755	62.8
137.90993	74.8
142.24913	78.7
146.58517	86.8
150.91804	98.1
155.24774	116.2
159.57429	141.7
163.89768	180.1
168.21792	243.3
172.53501	331.1
176.84895	455.7
181.15975	635.4
185.46741	881.2
189.77193	1207
194.07331	1625.9
198.37157	2088.4
202.6667	2570.7
206.9587	3059.5
211.24758	3561.8
215.53334	4059
219.81599	4586.5
224.09553	5176.1
228.37195	5842.6
232.64527	6525.6
236.91549	7242
241.18261	7922.5
245.44663	8480.3
249.70755	8951.2
253.96539	9324.7
258.22014	9648
262.4718	9859.5
266.72039	10016.3
270.96589	10043.4
275.20832	9959.6
279.44768	9807.3
283.68397	9615.3
287.91719	9495.4
292.14735	9462.5
296.37445	9578.5
300.59849	9812.8
304.81948	10053.3
309.03742	10202.8
313.25231	10068.7
317.46415	9701.3
321.67296	9217.5
325.87872	8846
330.08145	8711.7
334.28114	8739.5
338.47781	8870.2
342.67145	9073.9
346.86207	9355.2
351.04966	9769.7
355.23424	10187.7
359.4158	10539.3
363.59435	10765.9
367.76989	10894.3
371.94243	10961.5
376.11196	11034.3
380.27849	11058.9
384.44203	11052.3
388.60257	11044.2
392.76012	11051.5
396.91468	11179.6
401.06626	11379
405.21485	11509.2
409.36047	11315.5
413.50311	10988
417.64277	10838.1
421.77947	10599.3
425.9132	10298.1
430.04396	10210.4
434.17176	10255.2
438.2966	10395.8
442.41849	10622.3
446.53742	10861.6
450.6534	11129.7
454.76644	11294.5
458.87653	11351
462.98368	11301.5
467.08789	11171.3
471.18916	11017.8
475.2875	10826
479.38291	10753.4
483.4754	10678.1
487.56496	10706.2
491.6516	10690.8
495.73531	10740.2
499.81612	10682.7
503.89401	10765.1
507.96899	10783.9
512.04106	10869.8
516.11023	11020.6
520.1765	11115.2
524.23987	11137.9
528.30034	11148.8
532.35792	11099.8
536.41261	11004
540.46441	10777.3
544.51333	10639.7
548.55936	10600.8
552.60252	10657
556.64279	10777.2
560.6802	10818.5
564.71473	10899.8
568.7464	11108.6
572.7752	11146.4
576.80114	10933.2
580.82422	10763.7
584.84444	10790
588.86181	10923.4
592.87633	11076.1
596.888	11280.7
600.89682	11622.3
604.9028	12726.6
608.90594	15507.8
612.90624	18330.4
616.90371	16857
620.89834	13206.5
624.89015	11961.7
628.87913	12016.2
632.86528	12389.5
636.84862	12656.2
640.82913	12421.7
644.80683	11849.1
648.78172	11320.2
652.75379	11166.8
656.72306	11329.7
660.68952	11560.3
664.65319	11420.8
668.61405	11252.6
672.57211	11312.2
676.52738	11484.8
680.47986	11663.3
684.42955	11807.3
688.37646	11975.3
692.32058	11911
696.26192	11770.4
700.20048	11599.9
704.13626	11419
708.06928	11211.6
711.99952	10966.2
715.927	10841.4
719.85171	10825
723.77365	10872
727.69284	10907.5
731.60928	10904.6
735.52295	10860.3
739.43388	10773.6
743.34206	10769.9
747.24749	10742
751.15017	10715.9
755.05012	10816.9
758.94733	11160.1
762.8418	12047.6
766.73354	13532.5
770.62254	15008.7
774.50882	15775.4
778.39237	15112
782.27321	13497.9
786.15132	12039
790.02671	11239.5
793.89938	10860.6
797.76935	10713.9
801.6366	10702.8
805.50115	10793.2
809.36299	10873.2
813.22213	10894.4
817.07857	10842
820.93231	10690
824.78336	10555.1
828.63172	10510.5
832.47738	10439.8
836.32036	10445.2
840.16066	10415.5
843.99827	10411.3
847.8332	10417.8
851.66546	10438.3
855.49504	10418.1
859.32195	10420.1
863.1462	10432.7
866.96777	10438.9
870.78668	10483
874.60293	10561.2
878.41652	10666
882.22745	10831.4
886.03573	10920.3
889.84136	10900.8
893.64433	10782.9
897.44466	10609.9
901.24235	10413.4
905.0374	10265.6
908.8298	10123
912.61957	10035.6
916.40671	10028.5
920.19121	10107.8
923.97308	10198.8
927.75233	10261.9
931.52895	10350.2
935.30295	10296.4
939.07433	10136.8
942.84309	10023.7
946.60924	9989
950.37278	9960
954.13371	9938.6
957.89203	9883.5
961.64774	9865.9
965.40086	9791.3
969.15137	9702
972.89929	9654.6
976.64461	9607.1
980.38733	9617.1
984.12747	9651.8
987.86502	9680.3
991.59999	9779
995.33237	9928.3
999.06217	10166
1002.78939	10481.2
1006.51404	10716.6
1010.23611	10906.7
1013.95561	11097.9
1017.67255	11176.7
1021.38692	11092.8
1025.09872	10955
1028.80796	10922.7
1032.51465	10982.1
1036.21877	11078.1
1039.92035	11029.4
1043.61937	10971.4
1047.31584	10741.4
1051.00976	10597.1
1054.70114	10511.5
1058.38998	10471.1
1062.07627	10521.1
1065.76003	10566
1069.44126	10627.2
1073.11995	10690.8
1076.79611	10755.6
1080.46974	10859.2
1084.14085	10954
1087.80943	11092.5
1091.47549	11150.9
1095.13903	10990.7
1098.80005	10751.7
1102.45857	10604.2
1106.11456	10561.7
1109.76805	10735.9
1113.41903	10974.4
1117.06751	11299.1
1120.71348	11802
1124.35696	12346.2
1127.99793	12886.5
1131.63641	13099.2
1135.2724	12944
1138.90589	12610.4
1142.5369	12223.7
1146.16542	11789.7
1149.79145	11399.8
1153.415	11130.1
1157.03607	11011.6
1160.65467	11083.3
1164.27079	11325.8
1167.88443	11795.2
1171.49561	12469.8
1175.10432	13497.4
1178.71056	14907.1
1182.31434	16161
1185.91565	16672.7
1189.51451	16510.4
1193.11091	15833.6
1196.70485	15009.3
1200.29634	14470.2
1203.88538	14005.6
1207.47197	13379.5
1211.05612	12781.8
1214.63782	12325.3
1218.21708	12085.6
1221.79391	11937.5
1225.36829	11852.7
1228.94024	11810.2
1232.50976	11706.5
1236.07685	11670.2
1239.6415	11702.8
1243.20374	11771.2
1246.76355	11861.1
1250.32093	12003.7
1253.8759	12223
1257.42845	12522.3
1260.97859	12798
1264.52631	13098.5
1268.07163	13367.8
1271.61453	13643.8
1275.15503	13857.1
1278.69312	14077.4
1282.22882	14266.6
1285.76211	14545.7
1289.29301	14941.8
1292.82151	15385.3
1296.34761	15925.8
1299.87133	16693
1303.39266	17869.1
1306.9116	19510.6
1310.42815	21044.7
1313.94233	21627.9
1317.45412	20934.7
1320.96354	19665.1
1324.47058	18454.4
1327.97525	17423.1
1331.47754	16855.1
1334.97747	16746.2
1338.47502	16978.8
1341.97022	17543.6
1345.46305	18219.7
1348.95352	19201.4
1352.44163	20503.7
1355.92738	22203.1
1359.41078	24586.7
1362.89183	26437.9
1366.37053	25274.8
1369.84688	21783.1
1373.32088	18607.6
1376.79254	16691.7
1380.26186	15714.3
1383.72883	15179.5
1387.19347	14799.9
1390.65578	14410.3
1394.11575	14150.5
1397.57339	14037.1
1401.0287	14001.5
1404.48168	13989.2
1407.93234	14001.9
1411.38068	13983.2
1414.82669	13974.3
1418.27039	13785.3
1421.71177	13544.7
1425.15083	13297.4
1428.58758	13174
1432.02203	13220.8
1435.45416	13381.1
1438.88399	13489.8
1442.31151	13632.3
1445.73673	13818.1
1449.15965	14027.1
1452.58027	14180.3
1455.9986	14337.3
1459.41463	14491.8
1462.82837	14753.2
1466.23982	15069
1469.64898	15293.9
1473.05586	15405
1476.46045	15418.7
1479.86276	15379.1
1483.26279	15390.3
1486.66054	15483.2
1490.05602	15700.4
1493.44922	16124.1
1496.84016	16804.9
1500.22882	17990.2
1503.61521	19677.2
1506.99934	21574.5
1510.38121	23056.3
1513.76081	23128.2
1517.13816	21664.1
1520.51324	19407.5
1523.88607	17393.3
1527.25665	16092.7
1530.62498	15357.5
1533.99105	14903.2
1537.35488	14653.4
1540.71647	14532.2
1544.07581	14499.4
1547.4329	14513.8
1550.78776	14586.9
1554.14038	14622.1
1557.49077	14708.6
1560.83892	14878.3
1564.18484	15118.2
1567.52853	15395.7
1570.86999	15615.5
1574.20922	15748.2
1577.54624	15643.6
1580.88103	15117.8
1584.2136	14483
1587.54395	14187.7
1590.87208	14361.8
1594.19801	14995.8
1597.52172	15832.1
1600.84321	16257.1
1604.16251	15962.2
1607.47959	15220.1
1610.79447	14375.1
1614.10715	13570.1
1617.41763	12897.1
1620.7259	12440.6
1624.03199	12209.2
1627.33587	12227.4
1630.63757	12433.3
1633.93707	12917.8
1637.23439	13649.9
1640.52951	14663.3
1643.82246	15996.7
1647.11321	17403.8
1650.40179	18190.9
1653.68819	17567.4
1656.97241	15817.8
1660.25446	13987.2
1663.53433	12679.4
1666.81203	11903
1670.08756	11437
1673.36092	11116.2
1676.63211	10906.1
1679.90115	10701.6
1683.16801	10528.2
1686.43272	10419.8
1689.69527	10288.9
1692.95567	10163.5
1696.2139	10097.6
1699.46999	9983.8
1702.72392	9854.2
1705.97571	9716.7
1709.22535	9606.8
1712.47284	9546.2
1715.71819	9475.2
1718.96139	9395.6
1722.20246	9298.2
1725.44139	9203.5
1728.67818	9112.4
1731.91284	9018.6
1735.14537	8924.5
1738.37576	8880.6
1741.60403	8850
1744.83017	8820.6
1748.05418	8814.7
1751.27607	8776.8
1754.49584	8749
1757.71349	8777
1760.92903	8752.9
1764.14244	8735
1767.35375	8699.5
1770.56294	8648.6
1773.77002	8603.5
1776.97499	8570.5
1780.17785	8522.8
1783.37861	8530.8
1786.57727	8508.7
1789.77382	8472.8
1792.96828	8450.9
1796.16064	8448.6
1799.3509	8454.6
1802.53907	8411.9
1805.72514	8396.3
1808.90913	8372.7
1812.09102	8366.5
1815.27083	8335.3
1818.44856	8313
1821.6242	8298.5
1824.79776	8294.3
1827.96924	8295.4
1831.13864	8263.5
1834.30597	8265.7
1837.47122	8255.5
1840.6344	8236
1843.7955	8240.6
1846.95454	8255.3
1850.11151	8245.1
1853.26642	8233.7
1856.41926	8226
1859.57004	8221.5
1862.71876	8208.6
1865.86542	8219
1869.01003	8210.5
1872.15258	8227
1875.29308	8220.8
1878.43152	8209.4
1881.56792	8204.5
1884.70227	8192.9
1887.83457	8186.1
1890.96482	8188.3
1894.09304	8169.5
1897.21921	8154.5
1900.34335	8164.9
1903.46544	8131
1906.58551	8144.8
1909.70353	8170.4
1912.81953	8145.8
1915.93349	8145.5
1919.04543	8107.1
1922.15534	8098.9
1925.26322	8085.3
1928.36908	8094.6
1931.47292	8086.1
1934.57473	8067.7
1937.67453	8029.6
1940.77232	8018.7
1943.86808	7996.1
1946.96184	7986.3
1950.05358	7985.1
1953.14331	7979
1956.23103	7947.7
1959.31675	7910.5
1962.40046	7903.8
1965.48217	7894.5
1968.56188	7871.4
1971.63959	7815.1
1974.7153	7827.4
1977.78901	7820.3
1980.86073	7784.9
1983.93046	7770.8
1986.99819	7747.6
1990.06394	7720.1
1993.1277	7699.1
1996.18947	7675
1999.24925	7658.1
2002.30706	7629.9
2005.36288	7600.8
2008.41672	7600.7
2011.46859	7554.8
2014.51848	7554.3
2017.56639	7527.8
2020.61233	7530.3
2023.6563	7520.9
2026.6983	7509.5
2029.73833	7485.6
2032.7764	7466.1
2035.8125	7476.7
2038.84664	7454.7
2041.87881	7452.6
2044.90903	7434.5
2047.93729	7405.5
2050.96359	7415.5
2053.98794	7404.5
2057.01034	7412.6
2060.03078	7415.9
2063.04927	7397
2066.06582	7409
2069.08042	7427.9
2072.09307	7404.6
2075.10378	7416
2078.11255	7392.7
2081.11938	7406.3
2084.12426	7401.8
2087.12722	7410.2
2090.12824	7407.2
2093.12732	7406
2096.12447	7413.7
2099.11969	7394.6
2102.11299	7411.9
2105.10435	7401.2
2108.09379	7420.8
2111.08131	7419.8
2114.0669	7426.7
2117.05057	7427.1
2120.03233	7460.2
2123.01216	7448.1
2125.99008	7464
2128.96609	7471
2131.94018	7470.4
2134.91236	7468.2
2137.88263	7469.5
2140.851	7478.4
2143.81746	7506.8
2146.78201	7485.6
2149.74466	7483.3
2152.7054	7511.6
2155.66425	7473.4
2158.6212	7464.5
2161.57625	7477.4
2164.52941	7481.1
2167.48067	7484.1
2170.43004	7491.2
2173.37752	7490.9
2176.32311	7504.8
2179.26681	7475.4
2182.20863	7499.3
2185.14856	7493.4
2188.08661	7526.5
2191.02278	7483.9
2193.95707	7499.5
2196.88948	7496
2199.82001	7499.7
2202.74867	7483.9
2205.67545	7494.4
2208.60037	7499.6
2211.52341	7478.7
2214.44458	7490.1
2217.36388	7468.5
2220.28132	7465.8
2223.1969	7445.2
2226.11061	7426.7
2229.02246	7417.9
2231.93245	7410.9
2234.84058	7410.7
2237.74686	7386.8
2240.65128	7404.2
2243.55385	7386.2
2246.45456	7365.9
2249.35343	7367.6
2252.25044	7351.4
2255.14561	7355.4
2258.03893	7374.3
2260.93041	7375.3
2263.82004	7357.8
2266.70783	7354.8
2269.59378	7332.3
2272.4779	7314.6
2275.36017	7281.3
2278.24061	7260.1
2281.11922	7302.7
2283.996	7280.3
2286.87094	7240.7
2289.74405	7239.4
2292.61534	7233.8
2295.4848	7218.8
2298.35243	7210.6
2301.21824	7205.8
2304.08223	7232.5
2306.94439	7240.3
2309.80474	7216.4
2312.66327	7217.5
2315.51999	7220.3
2318.37489	7252.1
2321.22797	7209.9
2324.07925	7217
2326.92871	7205.1
2329.77637	7218.7
2332.62222	7210.9
2335.46626	7195
2338.3085	7216.6
2341.14893	7201.8
2343.98756	7205.6
2346.8244	7222.2
2349.65943	7224.7
2352.49267	7211.4
2355.32411	7232.7
2358.15376	7219.7
2360.98161	7236.1
2363.80768	7241.3
2366.63195	7241.8
2369.45444	7211.3
2372.27514	7206.5
2375.09405	7193.8
2377.91118	7192.8
2380.72652	7163.8
2383.54009	7152.5
2386.35187	7174.1
2389.16188	7133.8
2391.97011	7143.6
2394.77657	7107.5
2397.58125	7113.1
2400.38416	7088.9
2403.18529	7067.3
2405.98466	7085.1
2408.78226	7032.1
2411.57809	7046.7
2414.37216	7031.9
2417.16446	7067.1
2419.955	7029.1
2422.74378	7032.9
2425.5308	7011.8
2428.31606	7028.7
2431.09956	7038.7
2433.88131	7027.5
2436.6613	7025
2439.43954	7017.6
2442.21603	7008.7
2444.99077	7009.6
2447.76377	7026.2
2450.53501	7029.9
2453.30451	7018.4
2456.07226	7010.4
2458.83827	7004.4
2461.60254	7001.2
2464.36507	7002.8
2467.12586	7012.7
2469.88492	6991.1
2472.64224	7002.1
2475.39782	6999.9
2478.15167	7016.7
2480.90379	7022.9
2483.65417	7031.6
2486.40283	7057.4
2489.14976	7043.9
2491.89497	7028.2
2494.63845	7049.8
2497.3802	7060.4
2500.12024	7051.8
2502.85855	7058.7
2505.59514	7043.3
2508.33002	7037.7
2511.06318	7020.8
2513.79462	7002
2516.52435	6965.9
2519.25237	6977.9
2521.97867	6964.7
2524.70327	6979.1
2527.42616	6966.6
2530.14734	6943.5
2532.86681	6932.2
2535.58458	6947.9
2538.30065	6944.3
2541.01501	6972.4
2543.72768	6953
2546.43864	6949.9
2549.14791	6954.7
2551.85548	6941.1
2554.56136	6921
2557.26554	6938.3
2559.96803	6905
2562.66883	6916.1
2565.36794	6902.3
2568.06536	6878.8
2570.7611	6886.9
2573.45514	6899.3
2576.14751	6874.7
2578.83819	6877.8
2581.52719	6858.1
2584.21451	6864.8
2586.90015	6844.6
2589.58411	6836.1
2592.2664	6846.7
2594.94701	6842.6
2597.62594	6858
2600.30321	6853.5
2602.9788	6821.7
2605.65273	6819.4
2608.32498	6833.6
2610.99557	6824.2
2613.66449	6815.6
2616.33175	6819.3
2618.99734	6832.7
2621.66128	6832.4
2624.32355	6815.1
2626.98416	6832.7
2629.64311	6829.7
2632.30041	6827.3
2634.95605	6812
2637.61004	6806.4
2640.26238	6795.5
2642.91306	6798.6
2645.56209	6781.8
2648.20948	6772.3
2650.85521	6768.5
2653.4993	6790.9
2656.14175	6759.3
2658.78255	6783.4
2661.42171	6789.3
2664.05923	6795.4
2666.6951	6818.9
2669.32934	6808.3
2671.96194	6826.8
2674.59291	6850.7
2677.22224	6833.8
2679.84993	6834.1
2682.476	6809
2685.10043	6829.7
2687.72324	6814
2690.34441	6808.4
2692.96396	6803.5
2695.58188	6840.2
2698.19818	6842.1
2700.81285	6838.6
2703.4259	6804.4
2706.03733	6839
2708.64714	6855.5
2711.25533	6854.1
2713.86191	6862.4
2716.46687	6890
2719.07021	6851.4
2721.67194	6879.9
2724.27206	6872.9
2726.87057	6883.8
2729.46747	6869.2
2732.06276	6883.9
2734.65644	6884.7
2737.24852	6886.8
2739.83899	6873.2
2742.42786	6865.1
2745.01513	6853.5
2747.60079	6855.8
2750.18486	6848.7
2752.76733	6844.3
2755.3482	6846.9
2757.92747	6829
2760.50515	6836
2763.08123	6847.2
2765.65573	6829.5
2768.22863	6825.9
2770.79994	6821.7
2773.36967	6822.1
2775.9378	6822.6
2778.50435	6817.6
2781.06932	6808.6
2783.6327	6793.7
2786.1945	6821.7
2788.75471	6800
2791.31335	6776.3
2793.87041	6790.6
2796.42589	6776.8
2798.97979	6767.8
2801.53212	6765
2804.08288	6749.7
2806.63206	6719.4
2809.17967	6717.3
2811.72571	6716.7
2814.27018	6693
2816.81308	6676.1
2819.35442	6686.9
2821.89419	6676.1
2824.43239	6701.4
2826.96904	6691.5
2829.50412	6709.8
2832.03763	6675.8
2834.56959	6690.6
2837.1	6666
2839.62884	6689.5
2842.15613	6670.8
2844.68186	6686.2
2847.20604	6660.6
2849.72867	6699.1
2852.24974	6691.5
2854.76927	6687
2857.28724	6679.7
2859.80367	6682.2
2862.31855	6689.5
2864.83189	6666.1
2867.34368	6676
2869.85393	6666.1
2872.36264	6674.9
2874.8698	6675.9
2877.37543	6672.7
2879.87952	6674.5
2882.38207	6681.8
2884.88308	6666.7
2887.38256	6659.3
2889.88051	6663.7
2892.37692	6648.1
2894.8718	6688.2
2897.36515	6690.8
2899.85698	6698.1
2902.34727	6704.9
2904.83604	6712.3
2907.32328	6737.5
2909.809	6732.8
2912.29319	6727.1
2914.77587	6728.6
2917.25702	6741.5
2919.73665	6731.1
2922.21476	6741.4
2924.69136	6732
2927.16644	6733.8
2929.64	6727.2
2932.11205	6707.6
2934.58258	6699.6
2937.05161	6702.4
2939.51912	6703.7
2941.98513	6704.7
2944.44962	6688.5
2946.91261	6657.1
2949.37409	6681
2951.83407	6668.4
2954.29254	6671.3
2956.74951	6656.5
2959.20498	6663.8
2961.65895	6651.7
2964.11142	6646.4
2966.56239	6647.3
2969.01186	6646.9
2971.45984	6642.4
2973.90632	6617
2976.35131	6601.7
2978.7948	6605.1
2981.23681	6593.9
2983.67732	6578.2
2986.11635	6558
2988.55388	6566
2990.98993	6533.8
2993.4245	6542.6
2995.85758	6538.6
2998.28917	6527.3
3000.71928	6526.6
3003.14791	6499.1
3005.57506	6493.6
3008.00073	6464.1
3010.42493	6468.7
3012.84764	6470.7
3015.26888	6467.3
3017.68865	6431.1
3020.10694	6441.6
3022.52376	6425.7
3024.9391	6426.8
3027.35298	6426.8
3029.76539	6444.7
3032.17632	6417.8
3034.5858	6407.4
3036.9938	6394
3039.40034	6400.6
3041.80542	6411.5
3044.20903	6383.2
3046.61118	6385.5
3049.01187	6357.5
3051.4111	6361.3
3053.80888	6366.2
3056.20519	6347.1
3058.60005	6326.1
3060.99345	6318
3063.3854	6308.4
3065.7759	6286.3
3068.16494	6300.4
3070.55254	6268
3072.93868	6270.8
3075.32338	6274.9
3077.70662	6271.5
3080.08842	6252
3082.46878	6239.5
3084.84769	6209.3
3087.22515	6201.3
3089.60118	6204.1
3091.97576	6219.6
3094.3489	6218.2
3096.72061	6222.4
3099.09087	6231
3101.4597	6240.4
3103.82709	6267.8
3106.19305	6240.1
3108.55757	6252.3
3110.92066	6235.1
3113.28232	6243.1
3115.64255	6235.8
3118.00134	6203.6
3120.35871	6207.5
3122.71466	6202
3125.06917	6196.2
3127.42226	6165.2
3129.77393	6175.2
3132.12417	6171.7
3134.47299	6181.1
3136.82039	6184.4
3139.16636	6187.9
3141.51092	6175.8
3143.85406	6178.8
3146.19579	6185.1
3148.53609	6194
3150.87499	6204.3
3153.21246	6218.7
3155.54853	6221.7
3157.88318	6217.7
3160.21642	6230.2
3162.54826	6228.9
3164.87868	6240.4
3167.2077	6249.7
3169.5353	6223.5
3171.86151	6238.9
3174.18631	6229.3
3176.5097	6241.4
3178.83169	6235.1
3181.15228	6238.2
3183.47147	6225.5
3185.78926	6221.5
3188.10565	6196
3190.42065	6218.2
3192.73424	6215.1
3195.04645	6213.8
3197.35725	6227.3
3199.66667	6202.6
3201.97469	6207.6
3204.28132	6244.5
3206.58656	6247.3
3208.8904	6254.7
3211.19287	6249.1
3213.49394	6239.7
3215.79363	6261.1
3218.09193	6254.9
3220.38884	6271.6
3222.68438	6273.4
3224.97853	6249.7
3227.2713	6262
3229.56269	6263.2
3231.8527	6266.6
3234.14133	6251.2
3236.42858	6261.5
3238.71446	6256.7
3240.99896	6223.9
3243.28209	6227.7
3245.56384	6208.5
3247.84423	6220.1
3250.12324	6213.6
3252.40088	6215.9
3254.67715	6227.4
3256.95205	6204
3259.22558	6217.6
3261.49775	6210
3263.76855	6229.5
3266.03799	6200
3268.30606	6214.6
3270.57277	6202.1
3272.83812	6206.9
3275.10211	6189.8
3277.36474	6164.9
3279.62601	6185.2
3281.88593	6156.6
3284.14448	6166.4
3286.40168	6169.1
3288.65753	6161.7
3290.91202	6169.6
3293.16516	6156.1
3295.41695	6152.4
3297.66738	6125.3
3299.91647	6107.6
3302.16421	6044.2
3304.4106	6018.5
3306.65564	5999.2
3308.89933	5971.1
3311.14169	5940.8
3313.38269	5905.9
3315.62236	5860.7
3317.86068	5817.7
3320.09766	5787
3322.3333	5768.2
3324.5676	5740
3326.80056	5663.9
3329.03219	5654.9
3331.26248	3.8
3333.49143	-1.5
3335.71905	-0.6
