Data from AgNPs_APTES_FTO_UA_100uM_CRN_0uM_R6G_10uM_Scan_RamanShift__22__16-08-22-952.txt Node

Date: Mon Jul 11 16:08:22 BST 2022
User: TCL
Spectrometer: QEP01345
Trigger mode: 4
Integration Time (sec): 7.000000E0
Scans to average: 10
Electric dark correction enabled: true
Nonlinearity correction enabled: false
Boxcar width: 0
XAxis mode: Raman Shifts
Number of Pixels in Spectrum: 1044
>>>>>Begin Spectral Data<<<<<
46.04893	-1.6
50.45542	0.4
54.85868	-0.5
59.25871	-1.2
63.6555	33.9
68.04907	35.1
72.43941	40.5
76.82654	40.4
81.21044	45.6
85.59113	48.4
89.96862	47.8
94.34289	46.9
98.71396	50.5
103.08183	49
107.4465	52.1
111.80798	51.5
116.16626	56
120.52136	56.8
124.87327	60.9
129.222	62.8
133.56755	63.8
137.90993	71.7
142.24913	76.3
146.58517	87.1
150.91804	96.1
155.24774	115.2
159.57429	145
163.89768	183.1
168.21792	238.8
172.53501	323.7
176.84895	445.5
181.15975	615.3
185.46741	862.3
189.77193	1196.9
194.07331	1595.9
198.37157	2057.8
202.6667	2529.4
206.9587	3002.3
211.24758	3479.8
215.53334	3962.2
219.81599	4491.4
224.09553	5048
228.37195	5691
232.64527	6359.8
236.91549	7062
241.18261	7720.8
245.44663	8314.4
249.70755	8763.7
253.96539	9149
258.22014	9452
262.4718	9674.7
266.72039	9833
270.96589	9859.1
275.20832	9765.2
279.44768	9604.6
283.68397	9426.5
287.91719	9299.7
292.14735	9272.4
296.37445	9306.7
300.59849	9472.4
304.81948	9643.6
309.03742	9699.5
313.25231	9583.8
317.46415	9289.3
321.67296	8901.3
325.87872	8599.6
330.08145	8516.1
334.28114	8516.4
338.47781	8624.1
342.67145	8761.7
346.86207	9018.8
351.04966	9328.7
355.23424	9688.1
359.4158	9999.1
363.59435	10171.2
367.76989	10306.3
371.94243	10394.1
376.11196	10477.1
380.27849	10579.1
384.44203	10580
388.60257	10603.3
392.76012	10618
396.91468	10752.2
401.06626	10926.5
405.21485	11065.4
409.36047	10896.7
413.50311	10667.6
417.64277	10540.1
421.77947	10384.4
425.9132	10074.9
430.04396	10018.3
434.17176	10086.1
438.2966	10197.2
442.41849	10393.7
446.53742	10637.9
450.6534	10862.4
454.76644	11051
458.87653	11096.2
462.98368	11074
467.08789	11003
471.18916	10818.4
475.2875	10734.3
479.38291	10595.7
483.4754	10572
487.56496	10542.7
491.6516	10552.4
495.73531	10551.8
499.81612	10569.3
503.89401	10629
507.96899	10653.3
512.04106	10705.4
516.11023	10800.7
520.1765	10865.1
524.23987	10923
528.30034	10865.2
532.35792	10855.2
536.41261	10770.6
540.46441	10636.4
544.51333	10515.2
548.55936	10479.1
552.60252	10507.7
556.64279	10613.9
560.6802	10646.4
564.71473	10709.2
568.7464	10821.3
572.7752	10900.7
576.80114	10753.9
580.82422	10680.9
584.84444	10720.3
588.86181	10802.7
592.87633	10965.9
596.888	11152.8
600.89682	11397.9
604.9028	12406.8
608.90594	14679.7
612.90624	16943.4
616.90371	15663.2
620.89834	12569.7
624.89015	11469.4
628.87913	11500.7
632.86528	11832.9
636.84862	12055.5
640.82913	11916.5
644.80683	11448.1
648.78172	11036.3
652.75379	10922.2
656.72306	11093.6
660.68952	11279.4
664.65319	11245.6
668.61405	11141.1
672.57211	11285.4
676.52738	11538.7
680.47986	11817
684.42955	12126.2
688.37646	12350.9
692.32058	12299.1
696.26192	12054.5
700.20048	11762.5
704.13626	11541.4
708.06928	11311.1
711.99952	11053.9
715.927	10857.9
719.85171	10755.4
723.77365	10731.5
727.69284	10723.1
731.60928	10712.9
735.52295	10681.8
739.43388	10643.8
743.34206	10642.7
747.24749	10588.6
751.15017	10516.1
755.05012	10599.2
758.94733	10902.7
762.8418	11654.4
766.73354	12902.1
770.62254	14230.8
774.50882	14934
778.39237	14378.6
782.27321	12973.8
786.15132	11717.3
790.02671	11006.8
793.89938	10673.6
797.76935	10518.2
801.6366	10477
805.50115	10541.5
809.36299	10548.9
813.22213	10512
817.07857	10473
820.93231	10339.9
824.78336	10239.2
828.63172	10229.6
832.47738	10194.4
836.32036	10175
840.16066	10162.1
843.99827	10196.1
847.8332	10193.3
851.66546	10198.3
855.49504	10209.5
859.32195	10204.9
863.1462	10240.5
866.96777	10245.2
870.78668	10284.2
874.60293	10317.5
878.41652	10385.6
882.22745	10472.8
886.03573	10525
889.84136	10528.2
893.64433	10427.3
897.44466	10293.9
901.24235	10130.6
905.0374	9982.6
908.8298	9883.8
912.61957	9818.7
916.40671	9819.2
920.19121	9913
923.97308	9979.2
927.75233	10045.4
931.52895	10123.3
935.30295	10042.9
939.07433	9929.1
942.84309	9860.6
946.60924	9817.1
950.37278	9825
954.13371	9800.9
957.89203	9793.7
961.64774	9748.2
965.40086	9649.3
969.15137	9564.2
972.89929	9502.6
976.64461	9468.8
980.38733	9451.5
984.12747	9468.1
987.86502	9519.6
991.59999	9591.5
995.33237	9705.3
999.06217	9963.5
1002.78939	10203.6
1006.51404	10441.3
1010.23611	10633.3
1013.95561	10779.3
1017.67255	10880.4
1021.38692	10813
1025.09872	10686.9
1028.80796	10592.6
1032.51465	10658.3
1036.21877	10753.5
1039.92035	10720.2
1043.61937	10647.5
1047.31584	10532.7
1051.00976	10397.1
1054.70114	10308.1
1058.38998	10261.7
1062.07627	10319
1065.76003	10381.7
1069.44126	10433.3
1073.11995	10507.1
1076.79611	10582.8
1080.46974	10663.6
1084.14085	10740.5
1087.80943	10832.4
1091.47549	10896.1
1095.13903	10767.7
1098.80005	10626.7
1102.45857	10469.8
1106.11456	10449.2
1109.76805	10542.3
1113.41903	10739.1
1117.06751	10986.2
1120.71348	11386.2
1124.35696	11820.7
1127.99793	12260.1
1131.63641	12499.1
1135.2724	12390.6
1138.90589	12142.6
1142.5369	11832.2
1146.16542	11463.2
1149.79145	11107.3
1153.415	10911.9
1157.03607	10836.7
1160.65467	10929.3
1164.27079	11208.7
1167.88443	11657.8
1171.49561	12254.5
1175.10432	13217.8
1178.71056	14497
1182.31434	15625.8
1185.91565	16143.7
1189.51451	16046.3
1193.11091	15531
1196.70485	14783.9
1200.29634	14201.9
1203.88538	13675.6
1207.47197	13062.6
1211.05612	12532.7
1214.63782	12146.5
1218.21708	11844.6
1221.79391	11753.9
1225.36829	11703.7
1228.94024	11668.1
1232.50976	11586.7
1236.07685	11541.9
1239.6415	11557.9
1243.20374	11596.3
1246.76355	11676.3
1250.32093	11825.6
1253.8759	12048.8
1257.42845	12329.4
1260.97859	12625.5
1264.52631	12905.5
1268.07163	13150.7
1271.61453	13465.3
1275.15503	13736.9
1278.69312	13932.4
1282.22882	14128
1285.76211	14415.3
1289.29301	14761.4
1292.82151	15238.9
1296.34761	15802.9
1299.87133	16549.6
1303.39266	17582.6
1306.9116	18932.4
1310.42815	20234.6
1313.94233	20784.4
1317.45412	20279.7
1320.96354	19326
1324.47058	18348.6
1327.97525	17468.7
1331.47754	16971.1
1334.97747	16789
1338.47502	16947
1341.97022	17385.9
1345.46305	17945.5
1348.95352	18737.3
1352.44163	19821.7
1355.92738	21314.1
1359.41078	23190.2
1362.89183	24701.5
1366.37053	23778.4
1369.84688	20785.3
1373.32088	18011.1
1376.79254	16358.5
1380.26186	15470.3
1383.72883	15022.2
1387.19347	14679.1
1390.65578	14398.5
1394.11575	14125.9
1397.57339	14021.1
1401.0287	14002.9
1404.48168	13999
1407.93234	13978.4
1411.38068	13963.6
1414.82669	13852.6
1418.27039	13648.2
1421.71177	13407.3
1425.15083	13144.7
1428.58758	13016.7
1432.02203	13091.3
1435.45416	13221.3
1438.88399	13393.7
1442.31151	13559.8
1445.73673	13815.9
1449.15965	14083.3
1452.58027	14372.1
1455.9986	14552.4
1459.41463	14782.5
1462.82837	15073
1466.23982	15370.5
1469.64898	15597.2
1473.05586	15653.7
1476.46045	15634.9
1479.86276	15513.5
1483.26279	15495.8
1486.66054	15448.5
1490.05602	15556.5
1493.44922	15787
1496.84016	16299.8
1500.22882	17203.2
1503.61521	18550.3
1506.99934	20018.6
1510.38121	21153.1
1513.76081	21299.1
1517.13816	20088.7
1520.51324	18283.7
1523.88607	16663.8
1527.25665	15609.9
1530.62498	15014.7
1533.99105	14649.9
1537.35488	14435.3
1540.71647	14298.5
1544.07581	14220.6
1547.4329	14188.8
1550.78776	14229.6
1554.14038	14230.7
1557.49077	14352
1560.83892	14528.4
1564.18484	14726.6
1567.52853	14939.5
1570.86999	15116.8
1574.20922	15252.7
1577.54624	15199.9
1580.88103	14779.6
1584.2136	14238.1
1587.54395	13966.4
1590.87208	14154
1594.19801	14743.8
1597.52172	15484.4
1600.84321	15872.4
1604.16251	15578.3
1607.47959	14871.1
1610.79447	14114.7
1614.10715	13328.3
1617.41763	12660
1620.7259	12212.4
1624.03199	11978
1627.33587	11917.2
1630.63757	12120.9
1633.93707	12548.5
1637.23439	13224.9
1640.52951	14179.8
1643.82246	15419.2
1647.11321	16643
1650.40179	17287.1
1653.68819	16679.8
1656.97241	15133.3
1660.25446	13495.2
1663.53433	12304.7
1666.81203	11601.3
1670.08756	11181.1
1673.36092	10895.2
1676.63211	10678.7
1679.90115	10512.8
1683.16801	10353.1
1686.43272	10223.5
1689.69527	10130.7
1692.95567	10048.6
1696.2139	9945.6
1699.46999	9844.2
1702.72392	9722.1
1705.97571	9582.2
1709.22535	9488.5
1712.47284	9399.4
1715.71819	9309.7
1718.96139	9239.7
1722.20246	9151.8
1725.44139	9043
1728.67818	8938.5
1731.91284	8856.6
1735.14537	8786.3
1738.37576	8706.8
1741.60403	8657
1744.83017	8667.5
1748.05418	8631.4
1751.27607	8604.3
1754.49584	8596.9
1757.71349	8581.7
1760.92903	8583.4
1764.14244	8582.2
1767.35375	8548.1
1770.56294	8488.7
1773.77002	8455.5
1776.97499	8432.5
1780.17785	8380.6
1783.37861	8352
1786.57727	8340.2
1789.77382	8305.6
1792.96828	8280.3
1796.16064	8273.1
1799.3509	8256.6
1802.53907	8248.7
1805.72514	8214.1
1808.90913	8202.9
1812.09102	8193.4
1815.27083	8150.4
1818.44856	8164.4
1821.6242	8151.9
1824.79776	8108.4
1827.96924	8110.2
1831.13864	8112
1834.30597	8109.8
1837.47122	8089.6
1840.6344	8054
1843.7955	8072.6
1846.95454	8060.9
1850.11151	8070.5
1853.26642	8051.5
1856.41926	8049.6
1859.57004	8042.3
1862.71876	8044.8
1865.86542	8061.9
1869.01003	8059.1
1872.15258	8043.6
1875.29308	8057.8
1878.43152	8010
1881.56792	8015.7
1884.70227	8011.6
1887.83457	7991.3
1890.96482	7996.3
1894.09304	7982.7
1897.21921	7994.8
1900.34335	7981.8
1903.46544	7986.6
1906.58551	7945.2
1909.70353	7982.9
1912.81953	7969.6
1915.93349	7955.9
1919.04543	7930.5
1922.15534	7927.2
1925.26322	7920
1928.36908	7922.1
1931.47292	7889.8
1934.57473	7861.4
1937.67453	7866.8
1940.77232	7852.8
1943.86808	7838.9
1946.96184	7815.3
1950.05358	7800.5
1953.14331	7775.1
1956.23103	7764.3
1959.31675	7740.2
1962.40046	7730.4
1965.48217	7734.6
1968.56188	7686.7
1971.63959	7673.4
1974.7153	7653.9
1977.78901	7652.1
1980.86073	7624.9
1983.93046	7618.4
1986.99819	7590
1990.06394	7570.2
1993.1277	7550.6
1996.18947	7507.7
1999.24925	7480.9
2002.30706	7465.8
2005.36288	7462
2008.41672	7442.5
2011.46859	7426
2014.51848	7406.5
2017.56639	7377.1
2020.61233	7380.1
2023.6563	7392.3
2026.6983	7354.2
2029.73833	7342.2
2032.7764	7333.6
2035.8125	7320
2038.84664	7295.2
2041.87881	7319.4
2044.90903	7295.4
2047.93729	7277.4
2050.96359	7281.7
2053.98794	7280.2
2057.01034	7264.5
2060.03078	7276.3
2063.04927	7260.9
2066.06582	7282.6
2069.08042	7256.8
2072.09307	7270.6
2075.10378	7266.2
2078.11255	7271.4
2081.11938	7279.2
2084.12426	7276.2
2087.12722	7248.8
2090.12824	7284.9
2093.12732	7269
2096.12447	7292.5
2099.11969	7270.2
2102.11299	7282.3
2105.10435	7299.5
2108.09379	7312
2111.08131	7312.1
2114.0669	7309.2
2117.05057	7322.2
2120.03233	7326.4
2123.01216	7346.4
2125.99008	7338.3
2128.96609	7340
2131.94018	7355.3
2134.91236	7355.2
2137.88263	7336.8
2140.851	7328
2143.81746	7348.8
2146.78201	7346.1
2149.74466	7377.8
2152.7054	7374.9
2155.66425	7351.2
2158.6212	7336.6
2161.57625	7355.5
2164.52941	7344.5
2167.48067	7347.5
2170.43004	7362.3
2173.37752	7377
2176.32311	7356.9
2179.26681	7348.5
2182.20863	7351.3
2185.14856	7366.4
2188.08661	7354.5
2191.02278	7366.2
2193.95707	7374.6
2196.88948	7371.4
2199.82001	7361.1
2202.74867	7370.7
2205.67545	7361
2208.60037	7355
2211.52341	7351.6
2214.44458	7343.3
2217.36388	7339.6
2220.28132	7340.9
2223.1969	7304
2226.11061	7305.8
2229.02246	7294.8
2231.93245	7290.3
2234.84058	7283.5
2237.74686	7290.7
2240.65128	7262.4
2243.55385	7267.8
2246.45456	7270
2249.35343	7246.3
2252.25044	7247.5
2255.14561	7241.9
2258.03893	7264.1
2260.93041	7250.9
2263.82004	7252.7
2266.70783	7221
2269.59378	7199.9
2272.4779	7176.5
2275.36017	7164.2
2278.24061	7164.5
2281.11922	7145.2
2283.996	7132.9
2286.87094	7101.6
2289.74405	7119.5
2292.61534	7090.1
2295.4848	7086.8
2298.35243	7101.4
2301.21824	7101.6
2304.08223	7109.3
2306.94439	7126.4
2309.80474	7104.6
2312.66327	7101.9
2315.51999	7110.1
2318.37489	7115.2
2321.22797	7106.6
2324.07925	7100.8
2326.92871	7102.9
2329.77637	7102.8
2332.62222	7082.4
2335.46626	7090.2
2338.3085	7091.7
2341.14893	7083.7
2343.98756	7077.1
2346.8244	7095.6
2349.65943	7102
2352.49267	7097.5
2355.32411	7102.1
2358.15376	7096.4
2360.98161	7106.7
2363.80768	7098.1
2366.63195	7100.1
2369.45444	7116.4
2372.27514	7108.6
2375.09405	7080.2
2377.91118	7066.4
2380.72652	7042.9
2383.54009	7062.3
2386.35187	7053.4
2389.16188	7032.1
2391.97011	7023.4
2394.77657	6992.5
2397.58125	6984.4
2400.38416	6978.6
2403.18529	6977.3
2405.98466	6964.2
2408.78226	6949.9
2411.57809	6952.2
2414.37216	6920.9
2417.16446	6947.7
2419.955	6923.4
2422.74378	6924.5
2425.5308	6913.5
2428.31606	6921.8
2431.09956	6887.9
2433.88131	6882.4
2436.6613	6943.4
2439.43954	6910.6
2442.21603	6917.8
2444.99077	6894
2447.76377	6928.2
2450.53501	6909.9
2453.30451	6926.6
2456.07226	6908.2
2458.83827	6903.3
2461.60254	6897
2464.36507	6901.8
2467.12586	6909.9
2469.88492	6897.3
2472.64224	6911.9
2475.39782	6903.8
2478.15167	6928.7
2480.90379	6918.8
2483.65417	6936.2
2486.40283	6925.2
2489.14976	6928.6
2491.89497	6949.6
2494.63845	6945
2497.3802	6958.8
2500.12024	6944.1
2502.85855	6956.7
2505.59514	6951.9
2508.33002	6912.5
2511.06318	6909
2513.79462	6908
2516.52435	6899
2519.25237	6888.5
2521.97867	6882.3
2524.70327	6877.1
2527.42616	6871.9
2530.14734	6872.2
2532.86681	6837.9
2535.58458	6886.8
2538.30065	6851.1
2541.01501	6869.9
2543.72768	6863.6
2546.43864	6876.8
2549.14791	6854.3
2551.85548	6850.2
2554.56136	6850.8
2557.26554	6843.3
2559.96803	6830.1
2562.66883	6835.6
2565.36794	6810.7
2568.06536	6823.4
2570.7611	6814.4
2573.45514	6815.1
2576.14751	6799.8
2578.83819	6798.7
2581.52719	6795.8
2584.21451	6787.1
2586.90015	6778.2
2589.58411	6774.1
2592.2664	6764.9
2594.94701	6762.9
2597.62594	6768.1
2600.30321	6759.8
2602.9788	6760.2
2605.65273	6745
2608.32498	6741.7
2610.99557	6735.1
2613.66449	6731.4
2616.33175	6733.8
2618.99734	6749.3
2621.66128	6751.9
2624.32355	6746.6
2626.98416	6761.7
2629.64311	6732.1
2632.30041	6743.6
2634.95605	6744
2637.61004	6723.8
2640.26238	6711.4
2642.91306	6722.7
2645.56209	6694.6
2648.20948	6705.8
2650.85521	6714.1
2653.4993	6709.9
2656.14175	6707.8
2658.78255	6707.2
2661.42171	6711.1
2664.05923	6722.6
2666.6951	6729.9
2669.32934	6737.8
2671.96194	6749.9
2674.59291	6772.9
2677.22224	6771.8
2679.84993	6742.1
2682.476	6737.2
2685.10043	6749.8
2687.72324	6739.3
2690.34441	6734.7
2692.96396	6754.5
2695.58188	6750.3
2698.19818	6762.4
2700.81285	6772.8
2703.4259	6771.1
2706.03733	6774.4
2708.64714	6796.8
2711.25533	6793.2
2713.86191	6798
2716.46687	6819.9
2719.07021	6782.7
2721.67194	6809.9
2724.27206	6807.9
2726.87057	6814.6
2729.46747	6796.1
2732.06276	6815.5
2734.65644	6841
2737.24852	6818.5
2739.83899	6803.3
2742.42786	6801.1
2745.01513	6788.3
2747.60079	6798.5
2750.18486	6796.7
2752.76733	6788.1
2755.3482	6785.6
2757.92747	6798.3
2760.50515	6796.7
2763.08123	6781.6
2765.65573	6778.7
2768.22863	6767.1
2770.79994	6729.8
2773.36967	6768.9
2775.9378	6783.4
2778.50435	6753.7
2781.06932	6752.3
2783.6327	6747.4
2786.1945	6746.2
2788.75471	6758.9
2791.31335	6730.9
2793.87041	6739.3
2796.42589	6715.1
2798.97979	6701.1
2801.53212	6711.1
2804.08288	6696.2
2806.63206	6683.3
2809.17967	6655.5
2811.72571	6639
2814.27018	6644.6
2816.81308	6622.4
2819.35442	6642.7
2821.89419	6630.2
2824.43239	6637.6
2826.96904	6646.9
2829.50412	6627
2832.03763	6630.2
2834.56959	6616.8
2837.1	6613.2
2839.62884	6602.9
2842.15613	6608
2844.68186	6602.3
2847.20604	6602.5
2849.72867	6637.6
2852.24974	6629.8
2854.76927	6622.6
2857.28724	6613.8
2859.80367	6605.2
2862.31855	6599.9
2864.83189	6602.7
2867.34368	6606.8
2869.85393	6623.7
2872.36264	6589.3
2874.8698	6607.5
2877.37543	6598
2879.87952	6630.7
2882.38207	6626.9
2884.88308	6617.3
2887.38256	6608.6
2889.88051	6625
2892.37692	6610.5
2894.8718	6611.4
2897.36515	6656.9
2899.85698	6635.2
2902.34727	6664.8
2904.83604	6663.2
2907.32328	6687.6
2909.809	6683.1
2912.29319	6687.1
2914.77587	6682.6
2917.25702	6699.6
2919.73665	6697.6
2922.21476	6709.1
2924.69136	6681.9
2927.16644	6698.2
2929.64	6694.9
2932.11205	6692.4
2934.58258	6642.6
2937.05161	6676.6
2939.51912	6673
2941.98513	6665.3
2944.44962	6654.3
2946.91261	6625.6
2949.37409	6633
2951.83407	6642.3
2954.29254	6637.5
2956.74951	6615.4
2959.20498	6641.2
2961.65895	6626.8
2964.11142	6632
2966.56239	6608
2969.01186	6618.4
2971.45984	6599.7
2973.90632	6579.4
2976.35131	6555.2
2978.7948	6569.9
2981.23681	6564.6
2983.67732	6543.7
2986.11635	6537.1
2988.55388	6543.6
2990.98993	6527.4
2993.4245	6505.3
2995.85758	6499.8
2998.28917	6501.4
3000.71928	6468.7
3003.14791	6464.6
3005.57506	6449.9
3008.00073	6437.8
3010.42493	6458.4
3012.84764	6423.4
3015.26888	6448.3
3017.68865	6418.3
3020.10694	6416.2
3022.52376	6398.2
3024.9391	6399.8
3027.35298	6392.8
3029.76539	6396.1
3032.17632	6380.4
3034.5858	6377.2
3036.9938	6362.2
3039.40034	6370.9
3041.80542	6379
3044.20903	6358.5
3046.61118	6346.4
3049.01187	6343.8
3051.4111	6353.2
3053.80888	6328.7
3056.20519	6329.2
3058.60005	6320.4
3060.99345	6304.3
3063.3854	6299.3
3065.7759	6256.2
3068.16494	6264.1
3070.55254	6231.8
3072.93868	6250.2
3075.32338	6235.2
3077.70662	6237.9
3080.08842	6217.8
3082.46878	6219
3084.84769	6187.3
3087.22515	6200.7
3089.60118	6207.9
3091.97576	6190.8
3094.3489	6195.4
3096.72061	6215.5
3099.09087	6227.3
3101.4597	6226.3
3103.82709	6245.2
3106.19305	6242
3108.55757	6233.2
3110.92066	6227
3113.28232	6218.4
3115.64255	6201.4
3118.00134	6177.8
3120.35871	6206.8
3122.71466	6205.2
3125.06917	6166.8
3127.42226	6163.8
3129.77393	6167.1
3132.12417	6164.7
3134.47299	6164.3
3136.82039	6157.7
3139.16636	6180.8
3141.51092	6178.5
3143.85406	6171.9
3146.19579	6181.5
3148.53609	6187
3150.87499	6182.3
3153.21246	6180.6
3155.54853	6192.3
3157.88318	6201.2
3160.21642	6224.1
3162.54826	6226.2
3164.87868	6217.5
3167.2077	6231.8
3169.5353	6240.9
3171.86151	6217.6
3174.18631	6225.9
3176.5097	6220.8
3178.83169	6215.2
3181.15228	6219.1
3183.47147	6195.3
3185.78926	6194.6
3188.10565	6201
3190.42065	6205.3
3192.73424	6197.9
3195.04645	6201.8
3197.35725	6213.3
3199.66667	6212.2
3201.97469	6212.5
3204.28132	6212.9
3206.58656	6234.3
3208.8904	6226.1
3211.19287	6248.5
3213.49394	6237.2
3215.79363	6220.5
3218.09193	6247.8
3220.38884	6250.1
3222.68438	6283.7
3224.97853	6235
3227.2713	6256.6
3229.56269	6264.8
3231.8527	6255.1
3234.14133	6251
3236.42858	6246.5
3238.71446	6239
3240.99896	6218.9
3243.28209	6219.9
3245.56384	6195.1
3247.84423	6208.2
3250.12324	6198.3
3252.40088	6201.3
3254.67715	6199.7
3256.95205	6191.3
3259.22558	6214.3
3261.49775	6194.9
3263.76855	6235
3266.03799	6203.9
3268.30606	6193.3
3270.57277	6213.1
3272.83812	6192.5
3275.10211	6181
3277.36474	6172.4
3279.62601	6167.5
3281.88593	6151.1
3284.14448	6178.6
3286.40168	6162
3288.65753	6150.4
3290.91202	6161
3293.16516	6150.5
3295.41695	6145.6
3297.66738	6094.6
3299.91647	6084.1
3302.16421	6048.4
3304.4106	6024.2
3306.65564	5998.3
3308.89933	5969.2
3311.14169	5950.5
3313.38269	5896.7
3315.62236	5863.7
3317.86068	5827.2
3320.09766	5801.7
3322.3333	5772.4
3324.5676	5764.6
3326.80056	5664.3
3329.03219	5644.6
3331.26248	4.2
3333.49143	-0.4
3335.71905	-1.4
