Data from AgNPs_APTES_FTO_UA_100uM_CRN_0uM_R6G_10uM_Scan_RamanShift__53__16-44-32-987.txt Node

Date: Mon Jul 11 16:44:32 BST 2022
User: TCL
Spectrometer: QEP01345
Trigger mode: 4
Integration Time (sec): 7.000000E0
Scans to average: 10
Electric dark correction enabled: true
Nonlinearity correction enabled: false
Boxcar width: 0
XAxis mode: Raman Shifts
Number of Pixels in Spectrum: 1044
>>>>>Begin Spectral Data<<<<<
46.04893	-1.2125
50.45542	-0.1125
54.85868	-0.5125
59.25871	-0.8125
63.6555	62.9875
68.04907	63.5875
72.43941	66.4875
76.82654	70.4875
81.21044	74.4875
85.59113	77.7875
89.96862	79.0875
94.34289	77.1875
98.71396	85.5875
103.08183	90.4875
107.4465	89.4875
111.80798	92.8875
116.16626	95.8875
120.52136	99.7875
124.87327	108.2875
129.222	109.1875
133.56755	116.7875
137.90993	131.4875
142.24913	146.5875
146.58517	162.3875
150.91804	187.2875
155.24774	225.9875
159.57429	281.2875
163.89768	370.8875
168.21792	483.2875
172.53501	664.0875
176.84895	930.5875
181.15975	1312.7875
185.46741	1859.3875
189.77193	2553.5875
194.07331	3456.7875
198.37157	4478.4875
202.6667	5522.7875
206.9587	6589.3875
211.24758	7666.4875
215.53334	8730.0875
219.81599	9890.8875
224.09553	11138.0875
228.37195	12520.8875
232.64527	14052.6875
236.91549	15629.2875
241.18261	17210.7875
245.44663	18666.4875
249.70755	19900.3875
253.96539	20954.2875
258.22014	21790.8875
262.4718	22357.8875
266.72039	22610.9875
270.96589	22493.0875
275.20832	22177.4875
279.44768	21700.6875
283.68397	21171.5875
287.91719	20688.0875
292.14735	20358.2875
296.37445	20171.2875
300.59849	20196.8875
304.81948	20275.1875
309.03742	20307.4875
313.25231	20197.8875
317.46415	19862.9875
321.67296	19332.4875
325.87872	18964.2875
330.08145	18815.9875
334.28114	18844.6875
338.47781	19044.9875
342.67145	19309.4875
346.86207	19626.2875
351.04966	20133.3875
355.23424	20603.8875
359.4158	20990.2875
363.59435	21240.2875
367.76989	21405.0875
371.94243	21486.9875
376.11196	21564.3875
380.27849	21616.4875
384.44203	21706.9875
388.60257	21764.3875
392.76012	21935.3875
396.91468	22179.6875
401.06626	22580.2875
405.21485	22763.3875
409.36047	22591.9875
413.50311	22262.7875
417.64277	21935.7875
421.77947	21720.0875
425.9132	21729.0875
430.04396	21782.9875
434.17176	21869.5875
438.2966	22030.2875
442.41849	22273.0875
446.53742	22515.1875
450.6534	22865.6875
454.76644	23102.1875
458.87653	23201.1875
462.98368	23223.7875
467.08789	23214.4875
471.18916	23010.4875
475.2875	22848.9875
479.38291	22696.5875
483.4754	22627.4875
487.56496	22597.2875
491.6516	22617.7875
495.73531	22766.6875
499.81612	22911.4875
503.89401	23137.1875
507.96899	23300.5875
512.04106	23371.2875
516.11023	23431.8875
520.1765	23383.4875
524.23987	23332.5875
528.30034	23221.2875
532.35792	23014.9875
536.41261	22857.0875
540.46441	22662.9875
544.51333	22683.8875
548.55936	22790.7875
552.60252	23000.2875
556.64279	23258.4875
560.6802	23416.5875
564.71473	23616.1875
568.7464	23789.5875
572.7752	23831.8875
576.80114	23723.9875
580.82422	23712.4875
584.84444	23841.4875
588.86181	23971.7875
592.87633	24146.7875
596.888	24334.8875
600.89682	24790.0875
604.9028	26232.9875
608.90594	29290.7875
612.90624	32049.6875
616.90371	30041.4875
620.89834	25845.2875
624.89015	24135.7875
628.87913	23952.6875
632.86528	24247.9875
636.84862	24495.1875
640.82913	24362.5875
644.80683	24010.0875
648.78172	23824.9875
652.75379	23863.4875
656.72306	24257.7875
660.68952	24578.3875
664.65319	24476.1875
668.61405	24203.0875
672.57211	24215.7875
676.52738	24320.0875
680.47986	24337.9875
684.42955	24412.2875
688.37646	24525.5875
692.32058	24536.9875
696.26192	24576.7875
700.20048	24555.2875
704.13626	24453.1875
708.06928	24256.3875
711.99952	24092.0875
715.927	23978.3875
719.85171	23959.7875
723.77365	23957.9875
727.69284	23836.1875
731.60928	23743.3875
735.52295	23789.3875
739.43388	23900.8875
743.34206	24033.5875
747.24749	24132.4875
751.15017	24159.4875
755.05012	24265.7875
758.94733	24685.9875
762.8418	25841.4875
766.73354	27607.8875
770.62254	29153.0875
774.50882	29574.0875
778.39237	28738.1875
782.27321	27191.5875
786.15132	25699.0875
790.02671	24775.1875
793.89938	24315.1875
797.76935	24091.2875
801.6366	24038.3875
805.50115	24056.2875
809.36299	24042.4875
813.22213	23988.4875
817.07857	23862.3875
820.93231	23761.4875
824.78336	23712.6875
828.63172	23626.9875
832.47738	23629.4875
836.32036	23573.7875
840.16066	23562.2875
843.99827	23577.2875
847.8332	23612.6875
851.66546	23638.7875
855.49504	23658.6875
859.32195	23683.6875
863.1462	23703.2875
866.96777	23733.0875
870.78668	23712.1875
874.60293	23750.4875
878.41652	23846.7875
882.22745	23985.5875
886.03573	24008.0875
889.84136	24027.6875
893.64433	24036.3875
897.44466	24006.8875
901.24235	23926.0875
905.0374	23895.2875
908.8298	23877.3875
912.61957	23803.7875
916.40671	23831.0875
920.19121	23854.8875
923.97308	23881.5875
927.75233	23983.6875
931.52895	23958.2875
935.30295	23932.0875
939.07433	23637.1875
942.84309	23473.4875
946.60924	23410.8875
950.37278	23335.7875
954.13371	23318.1875
957.89203	23324.9875
961.64774	23330.7875
965.40086	23310.2875
969.15137	23253.9875
972.89929	23253.8875
976.64461	23229.6875
980.38733	23252.8875
984.12747	23292.8875
987.86502	23312.7875
991.59999	23399.8875
995.33237	23508.1875
999.06217	23655.4875
1002.78939	23854.9875
1006.51404	24111.9875
1010.23611	24399.2875
1013.95561	24528.4875
1017.67255	24529.1875
1021.38692	24433.9875
1025.09872	24280.0875
1028.80796	24149.6875
1032.51465	24045.5875
1036.21877	24048.9875
1039.92035	24076.9875
1043.61937	24147.7875
1047.31584	24205.8875
1051.00976	24280.3875
1054.70114	24347.4875
1058.38998	24380.1875
1062.07627	24469.2875
1065.76003	24655.9875
1069.44126	24812.2875
1073.11995	25136.5875
1076.79611	25479.9875
1080.46974	25718.1875
1084.14085	25882.9875
1087.80943	26066.8875
1091.47549	26108.3875
1095.13903	26065.3875
1098.80005	25863.1875
1102.45857	25605.5875
1106.11456	25490.8875
1109.76805	25364.2875
1113.41903	25449.5875
1117.06751	25610.9875
1120.71348	25915.0875
1124.35696	26284.0875
1127.99793	26657.9875
1131.63641	26797.4875
1135.2724	26558.0875
1138.90589	26326.8875
1142.5369	26189.7875
1146.16542	26028.2875
1149.79145	25767.4875
1153.415	25532.5875
1157.03607	25418.1875
1160.65467	25488.0875
1164.27079	25786.5875
1167.88443	26284.9875
1171.49561	27094.3875
1175.10432	28315.2875
1178.71056	29835.4875
1182.31434	31213.1875
1185.91565	31829.5875
1189.51451	31831.5875
1193.11091	31385.8875
1196.70485	30695.3875
1200.29634	29962.5875
1203.88538	29327.0875
1207.47197	28657.5875
1211.05612	28051.2875
1214.63782	27591.5875
1218.21708	27315.4875
1221.79391	27117.0875
1225.36829	27010.3875
1228.94024	26935.8875
1232.50976	26826.4875
1236.07685	26761.6875
1239.6415	26727.5875
1243.20374	26799.2875
1246.76355	26866.7875
1250.32093	27090.9875
1253.8759	27274.7875
1257.42845	27696.9875
1260.97859	28135.9875
1264.52631	28593.6875
1268.07163	29014.0875
1271.61453	29325.7875
1275.15503	29479.9875
1278.69312	29581.6875
1282.22882	29647.9875
1285.76211	29869.8875
1289.29301	30244.1875
1292.82151	30754.9875
1296.34761	31330.6875
1299.87133	32102.0875
1303.39266	33239.9875
1306.9116	34806.8875
1310.42815	36457.7875
1313.94233	37167.6875
1317.45412	36492.0875
1320.96354	35415.2875
1324.47058	34310.7875
1327.97525	33419.5875
1331.47754	32945.3875
1334.97747	32781.3875
1338.47502	33098.8875
1341.97022	33808.6875
1345.46305	34886.9875
1348.95352	36178.0875
1352.44163	37386.0875
1355.92738	38654.2875
1359.41078	40429.9875
1362.89183	41975.8875
1366.37053	40913.0875
1369.84688	37363.8875
1373.32088	33898.9875
1376.79254	31689.8875
1380.26186	30537.5875
1383.72883	29871.7875
1387.19347	29332.0875
1390.65578	28745.5875
1394.11575	28198.0875
1397.57339	27834.1875
1401.0287	27553.2875
1404.48168	27444.6875
1407.93234	27371.0875
1411.38068	27353.1875
1414.82669	27329.5875
1418.27039	27178.9875
1421.71177	27008.8875
1425.15083	26791.5875
1428.58758	26667.0875
1432.02203	26673.2875
1435.45416	26842.9875
1438.88399	26914.1875
1442.31151	27028.0875
1445.73673	27070.0875
1449.15965	27239.3875
1452.58027	27305.7875
1455.9986	27328.9875
1459.41463	27493.8875
1462.82837	27778.1875
1466.23982	28207.0875
1469.64898	28619.9875
1473.05586	28882.6875
1476.46045	29045.8875
1479.86276	29274.9875
1483.26279	29492.7875
1486.66054	29753.7875
1490.05602	30125.9875
1493.44922	30848.1875
1496.84016	31993.4875
1500.22882	33679.5875
1503.61521	35845.6875
1506.99934	38065.7875
1510.38121	39296.7875
1513.76081	38897.9875
1517.13816	36969.1875
1520.51324	34503.6875
1523.88607	32392.5875
1527.25665	31076.1875
1530.62498	30452.7875
1533.99105	30095.7875
1537.35488	29924.3875
1540.71647	29713.0875
1544.07581	29601.9875
1547.4329	29482.2875
1550.78776	29385.7875
1554.14038	29353.0875
1557.49077	29475.3875
1560.83892	29641.9875
1564.18484	30036.1875
1567.52853	30433.3875
1570.86999	30775.1875
1574.20922	31033.0875
1577.54624	30879.8875
1580.88103	30131.3875
1584.2136	29208.3875
1587.54395	28763.1875
1590.87208	28779.4875
1594.19801	29296.8875
1597.52172	29979.3875
1600.84321	30291.6875
1604.16251	29937.7875
1607.47959	29280.1875
1610.79447	28432.6875
1614.10715	27473.5875
1617.41763	26587.1875
1620.7259	25937.5875
1624.03199	25525.3875
1627.33587	25388.8875
1630.63757	25506.9875
1633.93707	25909.4875
1637.23439	26765.7875
1640.52951	28141.4875
1643.82246	29975.6875
1647.11321	31823.6875
1650.40179	32732.7875
1653.68819	31917.9875
1656.97241	29634.5875
1660.25446	27272.4875
1663.53433	25495.4875
1666.81203	24407.3875
1670.08756	23696.5875
1673.36092	23272.1875
1676.63211	22913.9875
1679.90115	22661.9875
1683.16801	22403.9875
1686.43272	22220.5875
1689.69527	22050.4875
1692.95567	21936.4875
1696.2139	21862.7875
1699.46999	21795.6875
1702.72392	21735.6875
1705.97571	21663.6875
1709.22535	21620.0875
1712.47284	21588.6875
1715.71819	21531.4875
1718.96139	21502.2875
1722.20246	21430.6875
1725.44139	21305.5875
1728.67818	21255.5875
1731.91284	21134.8875
1735.14537	21041.6875
1738.37576	20941.2875
1741.60403	20849.2875
1744.83017	20743.0875
1748.05418	20691.7875
1751.27607	20677.7875
1754.49584	20616.9875
1757.71349	20559.8875
1760.92903	20570.2875
1764.14244	20551.9875
1767.35375	20507.8875
1770.56294	20461.4875
1773.77002	20453.9875
1776.97499	20408.3875
1780.17785	20344.8875
1783.37861	20341.8875
1786.57727	20287.2875
1789.77382	20256.9875
1792.96828	20236.1875
1796.16064	20194.6875
1799.3509	20151.1875
1802.53907	20130.8875
1805.72514	20023.5875
1808.90913	20016.4875
1812.09102	19912.7875
1815.27083	19873.3875
1818.44856	19842.7875
1821.6242	19821.6875
1824.79776	19807.8875
1827.96924	19767.6875
1831.13864	19759.3875
1834.30597	19737.6875
1837.47122	19717.9875
1840.6344	19705.5875
1843.7955	19658.4875
1846.95454	19636.5875
1850.11151	19676.4875
1853.26642	19634.9875
1856.41926	19603.6875
1859.57004	19592.5875
1862.71876	19586.8875
1865.86542	19589.2875
1869.01003	19535.5875
1872.15258	19504.9875
1875.29308	19508.1875
1878.43152	19439.8875
1881.56792	19462.9875
1884.70227	19381.1875
1887.83457	19371.9875
1890.96482	19342.3875
1894.09304	19295.5875
1897.21921	19269.3875
1900.34335	19288.8875
1903.46544	19232.8875
1906.58551	19197.8875
1909.70353	19178.7875
1912.81953	19163.0875
1915.93349	19122.8875
1919.04543	19061.9875
1922.15534	19021.6875
1925.26322	18997.4875
1928.36908	18990.4875
1931.47292	18938.0875
1934.57473	18889.7875
1937.67453	18854.7875
1940.77232	18812.0875
1943.86808	18745.2875
1946.96184	18741.6875
1950.05358	18674.3875
1953.14331	18600.3875
1956.23103	18592.4875
1959.31675	18502.0875
1962.40046	18445.7875
1965.48217	18424.8875
1968.56188	18347.5875
1971.63959	18283.8875
1974.7153	18274.5875
1977.78901	18192.2875
1980.86073	18146.9875
1983.93046	18065.5875
1986.99819	17955.1875
1990.06394	17941.5875
1993.1277	17903.8875
1996.18947	17866.9875
1999.24925	17778.8875
2002.30706	17745.7875
2005.36288	17669.0875
2008.41672	17647.6875
2011.46859	17594.5875
2014.51848	17566.7875
2017.56639	17459.8875
2020.61233	17384.7875
2023.6563	17365.9875
2026.6983	17325.6875
2029.73833	17323.2875
2032.7764	17223.2875
2035.8125	17214.5875
2038.84664	17144.5875
2041.87881	17150.0875
2044.90903	17117.0875
2047.93729	17060.3875
2050.96359	17042.9875
2053.98794	17007.3875
2057.01034	16978.5875
2060.03078	16991.8875
2063.04927	16984.2875
2066.06582	16967.0875
2069.08042	16954.3875
2072.09307	16923.3875
2075.10378	16951.9875
2078.11255	16928.9875
2081.11938	16925.1875
2084.12426	16906.5875
2087.12722	16896.3875
2090.12824	16872.9875
2093.12732	16887.4875
2096.12447	16896.4875
2099.11969	16872.6875
2102.11299	16875.5875
2105.10435	16905.0875
2108.09379	16916.6875
2111.08131	16890.6875
2114.0669	16942.0875
2117.05057	16932.2875
2120.03233	16936.4875
2123.01216	16943.5875
2125.99008	16954.8875
2128.96609	16955.1875
2131.94018	16998.3875
2134.91236	17006.8875
2137.88263	16991.7875
2140.851	16987.2875
2143.81746	17014.7875
2146.78201	17010.2875
2149.74466	17026.3875
2152.7054	17006.8875
2155.66425	16958.7875
2158.6212	16971.7875
2161.57625	16954.4875
2164.52941	16963.8875
2167.48067	16895.9875
2170.43004	16941.6875
2173.37752	16887.8875
2176.32311	16901.8875
2179.26681	16890.7875
2182.20863	16906.4875
2185.14856	16933.4875
2188.08661	16897.2875
2191.02278	16899.2875
2193.95707	16878.8875
2196.88948	16848.4875
2199.82001	16857.0875
2202.74867	16826.2875
2205.67545	16828.5875
2208.60037	16803.3875
2211.52341	16736.1875
2214.44458	16742.9875
2217.36388	16675.6875
2220.28132	16609.7875
2223.1969	16571.2875
2226.11061	16548.5875
2229.02246	16518.4875
2231.93245	16517.5875
2234.84058	16449.8875
2237.74686	16448.2875
2240.65128	16440.2875
2243.55385	16418.9875
2246.45456	16400.0875
2249.35343	16378.2875
2252.25044	16349.9875
2255.14561	16336.9875
2258.03893	16342.1875
2260.93041	16283.6875
2263.82004	16252.7875
2266.70783	16197.3875
2269.59378	16161.3875
2272.4779	16148.6875
2275.36017	16101.8875
2278.24061	16068.2875
2281.11922	16022.5875
2283.996	16013.7875
2286.87094	15944.9875
2289.74405	15901.6875
2292.61534	15887.8875
2295.4848	15868.9875
2298.35243	15854.6875
2301.21824	15860.4875
2304.08223	15812.1875
2306.94439	15836.3875
2309.80474	15802.3875
2312.66327	15804.0875
2315.51999	15778.4875
2318.37489	15781.6875
2321.22797	15738.4875
2324.07925	15680.1875
2326.92871	15673.4875
2329.77637	15622.5875
2332.62222	15600.3875
2335.46626	15583.5875
2338.3085	15531.0875
2341.14893	15533.5875
2343.98756	15501.7875
2346.8244	15495.4875
2349.65943	15519.3875
2352.49267	15508.9875
2355.32411	15482.5875
2358.15376	15442.0875
2360.98161	15473.2875
2363.80768	15450.9875
2366.63195	15489.4875
2369.45444	15462.3875
2372.27514	15457.2875
2375.09405	15406.2875
2377.91118	15358.8875
2380.72652	15344.0875
2383.54009	15334.7875
2386.35187	15320.1875
2389.16188	15256.0875
2391.97011	15223.6875
2394.77657	15166.4875
2397.58125	15120.9875
2400.38416	15123.9875
2403.18529	15055.2875
2405.98466	15053.3875
2408.78226	15038.2875
2411.57809	15047.5875
2414.37216	14987.1875
2417.16446	15002.0875
2419.955	14968.3875
2422.74378	14985.8875
2425.5308	14980.7875
2428.31606	15004.6875
2431.09956	14963.5875
2433.88131	14926.1875
2436.6613	14942.9875
2439.43954	14903.9875
2442.21603	14889.0875
2444.99077	14885.4875
2447.76377	14867.2875
2450.53501	14876.3875
2453.30451	14846.8875
2456.07226	14797.4875
2458.83827	14766.0875
2461.60254	14751.6875
2464.36507	14733.1875
2467.12586	14726.2875
2469.88492	14728.2875
2472.64224	14688.5875
2475.39782	14696.9875
2478.15167	14711.7875
2480.90379	14682.6875
2483.65417	14719.9875
2486.40283	14674.1875
2489.14976	14702.5875
2491.89497	14666.0875
2494.63845	14661.9875
2497.3802	14662.6875
2500.12024	14639.4875
2502.85855	14620.8875
2505.59514	14573.8875
2508.33002	14542.1875
2511.06318	14507.6875
2513.79462	14501.4875
2516.52435	14453.5875
2519.25237	14435.5875
2521.97867	14413.4875
2524.70327	14400.6875
2527.42616	14381.6875
2530.14734	14358.9875
2532.86681	14341.8875
2535.58458	14349.7875
2538.30065	14299.9875
2541.01501	14308.7875
2543.72768	14293.9875
2546.43864	14261.4875
2549.14791	14244.9875
2551.85548	14207.1875
2554.56136	14182.3875
2557.26554	14159.0875
2559.96803	14111.8875
2562.66883	14085.9875
2565.36794	14075.4875
2568.06536	14054.6875
2570.7611	14031.7875
2573.45514	13993.7875
2576.14751	13961.6875
2578.83819	13970.4875
2581.52719	13966.1875
2584.21451	13922.9875
2586.90015	13885.9875
2589.58411	13844.9875
2592.2664	13829.7875
2594.94701	13790.0875
2597.62594	13780.9875
2600.30321	13757.2875
2602.9788	13769.8875
2605.65273	13758.6875
2608.32498	13721.0875
2610.99557	13700.6875
2613.66449	13689.0875
2616.33175	13688.1875
2618.99734	13631.2875
2621.66128	13631.1875
2624.32355	13594.0875
2626.98416	13580.2875
2629.64311	13557.2875
2632.30041	13546.4875
2634.95605	13491.5875
2637.61004	13480.9875
2640.26238	13449.8875
2642.91306	13433.1875
2645.56209	13419.9875
2648.20948	13423.0875
2650.85521	13402.3875
2653.4993	13418.4875
2656.14175	13415.8875
2658.78255	13387.2875
2661.42171	13391.1875
2664.05923	13423.7875
2666.6951	13397.8875
2669.32934	13428.7875
2671.96194	13426.8875
2674.59291	13415.4875
2677.22224	13408.4875
2679.84993	13406.0875
2682.476	13393.5875
2685.10043	13389.5875
2687.72324	13376.8875
2690.34441	13351.3875
2692.96396	13364.2875
2695.58188	13388.4875
2698.19818	13335.0875
2700.81285	13372.4875
2703.4259	13338.4875
2706.03733	13374.4875
2708.64714	13317.6875
2711.25533	13340.8875
2713.86191	13352.8875
2716.46687	13354.9875
2719.07021	13346.2875
2721.67194	13340.6875
2724.27206	13326.9875
2726.87057	13341.1875
2729.46747	13324.6875
2732.06276	13337.3875
2734.65644	13372.9875
2737.24852	13359.2875
2739.83899	13315.8875
2742.42786	13278.6875
2745.01513	13264.2875
2747.60079	13258.7875
2750.18486	13218.5875
2752.76733	13220.9875
2755.3482	13200.7875
2757.92747	13173.1875
2760.50515	13128.3875
2763.08123	13142.2875
2765.65573	13132.4875
2768.22863	13083.1875
2770.79994	13082.6875
2773.36967	13066.7875
2775.9378	13042.9875
2778.50435	13036.5875
2781.06932	13025.5875
2783.6327	13011.5875
2786.1945	12963.0875
2788.75471	12931.4875
2791.31335	12890.0875
2793.87041	12881.1875
2796.42589	12867.7875
2798.97979	12868.0875
2801.53212	12789.5875
2804.08288	12767.4875
2806.63206	12758.3875
2809.17967	12703.1875
2811.72571	12683.8875
2814.27018	12663.4875
2816.81308	12640.7875
2819.35442	12630.2875
2821.89419	12580.2875
2824.43239	12590.9875
2826.96904	12550.6875
2829.50412	12554.3875
2832.03763	12495.3875
2834.56959	12514.1875
2837.1	12503.3875
2839.62884	12492.3875
2842.15613	12447.1875
2844.68186	12456.4875
2847.20604	12448.2875
2849.72867	12419.8875
2852.24974	12427.0875
2854.76927	12396.6875
2857.28724	12386.5875
2859.80367	12359.4875
2862.31855	12354.2875
2864.83189	12333.8875
2867.34368	12308.5875
2869.85393	12302.4875
2872.36264	12318.0875
2874.8698	12295.9875
2877.37543	12278.9875
2879.87952	12247.3875
2882.38207	12232.2875
2884.88308	12234.3875
2887.38256	12216.8875
2889.88051	12195.4875
2892.37692	12189.4875
2894.8718	12211.7875
2897.36515	12228.1875
2899.85698	12223.8875
2902.34727	12226.3875
2904.83604	12245.8875
2907.32328	12290.9875
2909.809	12246.7875
2912.29319	12263.5875
2914.77587	12245.5875
2917.25702	12235.2875
2919.73665	12244.4875
2922.21476	12226.0875
2924.69136	12215.4875
2927.16644	12207.7875
2929.64	12197.4875
2932.11205	12203.7875
2934.58258	12160.1875
2937.05161	12155.0875
2939.51912	12119.8875
2941.98513	12080.9875
2944.44962	12077.6875
2946.91261	12063.7875
2949.37409	12085.9875
2951.83407	12076.2875
2954.29254	12061.5875
2956.74951	12083.7875
2959.20498	12059.8875
2961.65895	12034.0875
2964.11142	12051.8875
2966.56239	12067.8875
2969.01186	12048.3875
2971.45984	12002.9875
2973.90632	12000.8875
2976.35131	11992.4875
2978.7948	11941.2875
2981.23681	11940.1875
2983.67732	11911.1875
2986.11635	11901.8875
2988.55388	11897.6875
2990.98993	11863.0875
2993.4245	11820.4875
2995.85758	11810.8875
2998.28917	11792.6875
3000.71928	11748.1875
3003.14791	11736.4875
3005.57506	11694.8875
3008.00073	11668.8875
3010.42493	11651.2875
3012.84764	11632.2875
3015.26888	11660.9875
3017.68865	11610.0875
3020.10694	11607.9875
3022.52376	11577.8875
3024.9391	11558.0875
3027.35298	11529.9875
3029.76539	11469.8875
3032.17632	11494.1875
3034.5858	11469.2875
3036.9938	11480.5875
3039.40034	11432.7875
3041.80542	11432.3875
3044.20903	11412.0875
3046.61118	11386.4875
3049.01187	11371.5875
3051.4111	11353.7875
3053.80888	11334.5875
3056.20519	11319.7875
3058.60005	11289.0875
3060.99345	11316.3875
3063.3854	11275.2875
3065.7759	11225.0875
3068.16494	11217.9875
3070.55254	11183.5875
3072.93868	11193.7875
3075.32338	11151.4875
3077.70662	11092.7875
3080.08842	11106.4875
3082.46878	11072.1875
3084.84769	11045.5875
3087.22515	11069.0875
3089.60118	11077.8875
3091.97576	11064.2875
3094.3489	11081.2875
3096.72061	11052.8875
3099.09087	11061.3875
3101.4597	11077.9875
3103.82709	11048.9875
3106.19305	11063.0875
3108.55757	11035.0875
3110.92066	11028.3875
3113.28232	11015.1875
3115.64255	10977.8875
3118.00134	10949.4875
3120.35871	10927.0875
3122.71466	10894.6875
3125.06917	10869.9875
3127.42226	10854.5875
3129.77393	10868.1875
3132.12417	10832.0875
3134.47299	10822.0875
3136.82039	10797.5875
3139.16636	10802.4875
3141.51092	10792.6875
3143.85406	10799.2875
3146.19579	10786.8875
3148.53609	10821.5875
3150.87499	10794.2875
3153.21246	10803.0875
3155.54853	10835.4875
3157.88318	10819.9875
3160.21642	10835.7875
3162.54826	10797.1875
3164.87868	10816.1875
3167.2077	10798.3875
3169.5353	10810.0875
3171.86151	10827.7875
3174.18631	10814.0875
3176.5097	10764.7875
3178.83169	10774.9875
3181.15228	10775.5875
3183.47147	10745.5875
3185.78926	10720.7875
3188.10565	10673.9875
3190.42065	10653.4875
3192.73424	10676.9875
3195.04645	10654.1875
3197.35725	10678.6875
3199.66667	10674.6875
3201.97469	10668.2875
3204.28132	10657.8875
3206.58656	10667.3875
3208.8904	10655.8875
3211.19287	10665.7875
3213.49394	10647.9875
3215.79363	10630.0875
3218.09193	10667.3875
3220.38884	10679.3875
3222.68438	10654.4875
3224.97853	10625.6875
3227.2713	10625.4875
3229.56269	10582.7875
3231.8527	10596.1875
3234.14133	10576.8875
3236.42858	10556.3875
3238.71446	10536.1875
3240.99896	10510.6875
3243.28209	10494.2875
3245.56384	10442.8875
3247.84423	10452.6875
3250.12324	10475.6875
3252.40088	10470.1875
3254.67715	10442.5875
3256.95205	10419.4875
3259.22558	10443.0875
3261.49775	10403.4875
3263.76855	10399.8875
3266.03799	10416.3875
3268.30606	10391.1875
3270.57277	10408.3875
3272.83812	10352.4875
3275.10211	10338.2875
3277.36474	10317.7875
3279.62601	10303.9875
3281.88593	10268.7875
3284.14448	10287.5875
3286.40168	10266.4875
3288.65753	10281.1875
3290.91202	10270.9875
3293.16516	10220.5875
3295.41695	10218.3875
3297.66738	10195.1875
3299.91647	10166.5875
3302.16421	10077.0875
3304.4106	10055.9875
3306.65564	9980.3875
3308.89933	9904.9875
3311.14169	9858.8875
3313.38269	9780.3875
3315.62236	9726.9875
3317.86068	9671.1875
3320.09766	9594.0875
3322.3333	9523.8875
3324.5676	9503.1875
3326.80056	9384.9875
3329.03219	9348.0875
3331.26248	2.3875
3333.49143	0.2875
3335.71905	-0.9125
