Data from AgNPs_APTES_FTO_UA_100uM_CRN_0uM_R6G_10uM_Scan_RamanShift__65__16-58-33-002.txt Node

Date: Mon Jul 11 16:58:33 BST 2022
User: TCL
Spectrometer: QEP01345
Trigger mode: 4
Integration Time (sec): 7.000000E0
Scans to average: 10
Electric dark correction enabled: true
Nonlinearity correction enabled: false
Boxcar width: 0
XAxis mode: Raman Shifts
Number of Pixels in Spectrum: 1044
>>>>>Begin Spectral Data<<<<<
46.04893	-0.2
50.45542	0.4
54.85868	-0.2
59.25871	-2.9
63.6555	47.8
68.04907	53.8
72.43941	54
76.82654	55.8
81.21044	60.1
85.59113	61.5
89.96862	63.4
94.34289	63.1
98.71396	70.6
103.08183	68.9
107.4465	69
111.80798	72.1
116.16626	75.5
120.52136	75.1
124.87327	82.2
129.222	81.1
133.56755	87.9
137.90993	88.4
142.24913	100.9
146.58517	106.5
150.91804	125.4
155.24774	144.6
159.57429	179.4
163.89768	226
168.21792	289
172.53501	393.2
176.84895	550.2
181.15975	772.6
185.46741	1089.4
189.77193	1495.2
194.07331	2010.2
198.37157	2597.1
202.6667	3205.7
206.9587	3807.5
211.24758	4384.7
215.53334	4980.5
219.81599	5595.3
224.09553	6250.7
228.37195	6982.9
232.64527	7774.5
236.91549	8677.9
241.18261	9588.2
245.44663	10489.7
249.70755	11361.6
253.96539	12126.8
258.22014	12757
262.4718	13260.4
266.72039	13528.6
270.96589	13662.6
275.20832	13661.9
279.44768	13507.5
283.68397	13313.9
287.91719	13103.6
292.14735	12904.3
296.37445	12747.6
300.59849	12636.9
304.81948	12533.6
309.03742	12461.1
313.25231	12477.9
317.46415	12423.7
321.67296	12429
325.87872	12465.6
330.08145	12559.5
334.28114	12680.8
338.47781	12814.3
342.67145	12958.5
346.86207	13142.8
351.04966	13303
355.23424	13518.3
359.4158	13696.3
363.59435	13905
367.76989	14075.3
371.94243	14262.6
376.11196	14400.9
380.27849	14555.4
384.44203	14712.4
388.60257	14874.6
392.76012	15010.9
396.91468	15136.3
401.06626	15266.3
405.21485	15441.8
409.36047	15499.3
413.50311	15552.3
417.64277	15570.3
421.77947	15601
425.9132	15659.1
430.04396	15788.1
434.17176	15907.8
438.2966	16065.9
442.41849	16222.8
446.53742	16392.4
450.6534	16566.6
454.76644	16712.4
458.87653	16863.6
462.98368	16956.4
467.08789	17012.3
471.18916	17033.5
475.2875	17039.9
479.38291	17049.6
483.4754	17080.4
487.56496	17074.9
491.6516	17129.7
495.73531	17144.6
499.81612	17177.6
503.89401	17280.8
507.96899	17326.7
512.04106	17392
516.11023	17460.2
520.1765	17484.7
524.23987	17547.7
528.30034	17632.4
532.35792	17680.7
536.41261	17705.7
540.46441	17672.7
544.51333	17735.7
548.55936	17801.8
552.60252	17888.4
556.64279	18002.7
560.6802	18117.9
564.71473	18210.8
568.7464	18219.3
572.7752	18197.3
576.80114	18207.8
580.82422	18244.3
584.84444	18359.6
588.86181	18407.4
592.87633	18505.8
596.888	18585.7
600.89682	18743.5
604.9028	19066.8
608.90594	19638.9
612.90624	20061.6
616.90371	19715.6
620.89834	19132.2
624.89015	18920.8
628.87913	18932.7
632.86528	19064
636.84862	19143.5
640.82913	19173.6
644.80683	19140
648.78172	19116.3
652.75379	19179.3
656.72306	19296.8
660.68952	19392.9
664.65319	19459.2
668.61405	19543.7
672.57211	19617.8
676.52738	19704.2
680.47986	19756.5
684.42955	19756.1
688.37646	19880
692.32058	20018
696.26192	20139.2
700.20048	20233
704.13626	20296.9
708.06928	20243.3
711.99952	20209.4
715.927	20231.7
719.85171	20232.6
723.77365	20208.5
727.69284	20193
731.60928	20141.1
735.52295	20146.4
739.43388	20158.7
743.34206	20226.8
747.24749	20302.9
751.15017	20322.3
755.05012	20382.1
758.94733	20458.1
762.8418	20628.6
766.73354	20904.5
770.62254	21172.4
774.50882	21352.7
778.39237	21399.1
782.27321	21266.2
786.15132	21062.5
790.02671	20911.8
793.89938	20786.1
797.76935	20751.7
801.6366	20721.4
805.50115	20729.7
809.36299	20755.7
813.22213	20752.5
817.07857	20759
820.93231	20794
824.78336	20850.5
828.63172	20839.9
832.47738	20894.4
836.32036	20912.3
840.16066	20956.1
843.99827	21021.9
847.8332	21061.5
851.66546	21073.6
855.49504	21101
859.32195	21170.7
863.1462	21196.7
866.96777	21237
870.78668	21299.7
874.60293	21386.3
878.41652	21398.7
882.22745	21443.9
886.03573	21510.9
889.84136	21493.8
893.64433	21504.8
897.44466	21538.1
901.24235	21580.5
905.0374	21555.8
908.8298	21579.1
912.61957	21609.6
916.40671	21649.6
920.19121	21613.4
923.97308	21584.5
927.75233	21566.9
931.52895	21600.3
935.30295	21591.8
939.07433	21536
942.84309	21527.5
946.60924	21512.1
950.37278	21458.1
954.13371	21464.7
957.89203	21466.9
961.64774	21487.5
965.40086	21466.7
969.15137	21451.1
972.89929	21451.3
976.64461	21467.1
980.38733	21450.4
984.12747	21472.4
987.86502	21528.8
991.59999	21567
995.33237	21640.3
999.06217	21695.2
1002.78939	21764.6
1006.51404	21897.6
1010.23611	21996.9
1013.95561	22043.2
1017.67255	22126.7
1021.38692	22174.3
1025.09872	22105.2
1028.80796	22025.6
1032.51465	21960.2
1036.21877	21980.3
1039.92035	21997.5
1043.61937	22046.1
1047.31584	22089.7
1051.00976	22161.4
1054.70114	22158.6
1058.38998	22176.4
1062.07627	22240.9
1065.76003	22305.8
1069.44126	22375
1073.11995	22527.6
1076.79611	22709.3
1080.46974	22787.1
1084.14085	22745.5
1087.80943	22701.5
1091.47549	22729.3
1095.13903	22786.3
1098.80005	22850.7
1102.45857	22881.8
1106.11456	22859.4
1109.76805	22746.3
1113.41903	22660.2
1117.06751	22604.1
1120.71348	22601
1124.35696	22610.8
1127.99793	22593
1131.63641	22659.6
1135.2724	22614.9
1138.90589	22589.2
1142.5369	22586.7
1146.16542	22579.8
1149.79145	22507.9
1153.415	22403.7
1157.03607	22325.6
1160.65467	22282.9
1164.27079	22398.3
1167.88443	22481.8
1171.49561	22642.9
1175.10432	22836.1
1178.71056	23102.7
1182.31434	23390.6
1185.91565	23596.9
1189.51451	23801.4
1193.11091	23915.1
1196.70485	23945.2
1200.29634	23911.9
1203.88538	23809.6
1207.47197	23649.9
1211.05612	23554.9
1214.63782	23432.7
1218.21708	23289.2
1221.79391	23117.1
1225.36829	22994.6
1228.94024	22985.9
1232.50976	22932
1236.07685	22950.7
1239.6415	22967.9
1243.20374	22989.8
1246.76355	23063.4
1250.32093	23171.5
1253.8759	23233.8
1257.42845	23426.7
1260.97859	23589.4
1264.52631	23693.2
1268.07163	23750
1271.61453	23766.7
1275.15503	23827.3
1278.69312	23805.7
1282.22882	23779
1285.76211	23734.2
1289.29301	23722
1292.82151	23784.9
1296.34761	23843.8
1299.87133	24008.7
1303.39266	24141.7
1306.9116	24375.8
1310.42815	24610.6
1313.94233	24848
1317.45412	24896.8
1320.96354	24865
1324.47058	24746.2
1327.97525	24496.6
1331.47754	24307.2
1334.97747	24251.3
1338.47502	24350.9
1341.97022	24664.6
1345.46305	25108.2
1348.95352	25449.9
1352.44163	25605.2
1355.92738	25555.3
1359.41078	25506.2
1362.89183	25360.7
1366.37053	24936.6
1369.84688	24409.3
1373.32088	23908.7
1376.79254	23564.3
1380.26186	23282.4
1383.72883	23088.7
1387.19347	22933.8
1390.65578	22774.4
1394.11575	22630.8
1397.57339	22477.7
1401.0287	22349.9
1404.48168	22346.1
1407.93234	22340.8
1411.38068	22350.2
1414.82669	22335
1418.27039	22269.3
1421.71177	22187.4
1425.15083	22114.7
1428.58758	22082.8
1432.02203	22101.1
1435.45416	22058.7
1438.88399	21989.2
1442.31151	21995.8
1445.73673	21973.7
1449.15965	22014.3
1452.58027	22020.2
1455.9986	22028.6
1459.41463	22023.6
1462.82837	22141.9
1466.23982	22309.4
1469.64898	22435.8
1473.05586	22551
1476.46045	22562.3
1479.86276	22609.9
1483.26279	22641.7
1486.66054	22642.8
1490.05602	22739.2
1493.44922	22850.3
1496.84016	23016.8
1500.22882	23320.1
1503.61521	23604.4
1506.99934	23786.7
1510.38121	23841.8
1513.76081	23736.2
1517.13816	23567.1
1520.51324	23336.5
1523.88607	23141.9
1527.25665	23019.1
1530.62498	23016.1
1533.99105	22970
1537.35488	23004.1
1540.71647	23003.7
1544.07581	23053.3
1547.4329	23037.3
1550.78776	23022.8
1554.14038	22966.9
1557.49077	22948.2
1560.83892	22919.1
1564.18484	22925
1567.52853	22995.8
1570.86999	23031
1574.20922	23071.8
1577.54624	23032.3
1580.88103	22975.4
1584.2136	22847.6
1587.54395	22798.3
1590.87208	22861.7
1594.19801	22997.6
1597.52172	23183.6
1600.84321	23343.9
1604.16251	23358.2
1607.47959	23306.3
1610.79447	23058.8
1614.10715	22679.1
1617.41763	22351.2
1620.7259	22100
1624.03199	21919.6
1627.33587	21883.2
1630.63757	21815.8
1633.93707	21855.3
1637.23439	22029.3
1640.52951	22274.8
1643.82246	22625.7
1647.11321	22839.8
1650.40179	22855.4
1653.68819	22624.3
1656.97241	22226.5
1660.25446	21828
1663.53433	21515.4
1666.81203	21301
1670.08756	21139.8
1673.36092	21095.9
1676.63211	20971.9
1679.90115	20927.4
1683.16801	20857.3
1686.43272	20791
1689.69527	20750.8
1692.95567	20719.3
1696.2139	20775.6
1699.46999	20761.8
1702.72392	20732.1
1705.97571	20745.1
1709.22535	20801.1
1712.47284	20726
1715.71819	20722
1718.96139	20721.4
1722.20246	20646
1725.44139	20618.6
1728.67818	20597.6
1731.91284	20548.2
1735.14537	20497.5
1738.37576	20413.3
1741.60403	20370.7
1744.83017	20281.7
1748.05418	20267.5
1751.27607	20253.2
1754.49584	20192.6
1757.71349	20195.6
1760.92903	20218
1764.14244	20192.4
1767.35375	20145
1770.56294	20145.6
1773.77002	20166.6
1776.97499	20119.4
1780.17785	20110.5
1783.37861	20102.7
1786.57727	20054.6
1789.77382	20021.3
1792.96828	20014.2
1796.16064	19995.3
1799.3509	19949.6
1802.53907	19945.6
1805.72514	19898.8
1808.90913	19855.2
1812.09102	19804.3
1815.27083	19805
1818.44856	19755.8
1821.6242	19754.3
1824.79776	19711.9
1827.96924	19688.4
1831.13864	19647.9
1834.30597	19634.7
1837.47122	19645.3
1840.6344	19596.3
1843.7955	19603
1846.95454	19578.5
1850.11151	19612.9
1853.26642	19571.8
1856.41926	19535.9
1859.57004	19546.1
1862.71876	19525.1
1865.86542	19555
1869.01003	19485.6
1872.15258	19477.2
1875.29308	19456.9
1878.43152	19424.4
1881.56792	19412.3
1884.70227	19358
1887.83457	19363.1
1890.96482	19337.4
1894.09304	19272.6
1897.21921	19258.5
1900.34335	19257.9
1903.46544	19218.2
1906.58551	19210.8
1909.70353	19193.4
1912.81953	19172.1
1915.93349	19130.3
1919.04543	19084.8
1922.15534	19071.8
1925.26322	19063.8
1928.36908	19007.8
1931.47292	18959.3
1934.57473	18885.1
1937.67453	18867.7
1940.77232	18810
1943.86808	18792.5
1946.96184	18767.7
1950.05358	18703.1
1953.14331	18672.3
1956.23103	18615.2
1959.31675	18579.4
1962.40046	18505.1
1965.48217	18455.7
1968.56188	18385.4
1971.63959	18323.5
1974.7153	18288
1977.78901	18222.3
1980.86073	18166.1
1983.93046	18119.2
1986.99819	18076.6
1990.06394	18003.8
1993.1277	17988.3
1996.18947	17923.5
1999.24925	17929.9
2002.30706	17829
2005.36288	17785.8
2008.41672	17743.5
2011.46859	17697.8
2014.51848	17632.1
2017.56639	17569.6
2020.61233	17470
2023.6563	17488.8
2026.6983	17411.4
2029.73833	17380.8
2032.7764	17321
2035.8125	17297.5
2038.84664	17258.6
2041.87881	17209.6
2044.90903	17162.5
2047.93729	17148.3
2050.96359	17121.4
2053.98794	17103.9
2057.01034	17051.5
2060.03078	17092.6
2063.04927	17045.3
2066.06582	17046.3
2069.08042	17015.5
2072.09307	17011.4
2075.10378	17030.9
2078.11255	17004.9
2081.11938	16969.7
2084.12426	16977.1
2087.12722	16976.9
2090.12824	16936.3
2093.12732	16955.5
2096.12447	16952.4
2099.11969	16948.5
2102.11299	16922.5
2105.10435	16952.8
2108.09379	16971.9
2111.08131	16971.2
2114.0669	16985.6
2117.05057	17017.4
2120.03233	17003.1
2123.01216	17001
2125.99008	16993.9
2128.96609	17015.7
2131.94018	17074.5
2134.91236	17074.9
2137.88263	17072.1
2140.851	17070.1
2143.81746	17082.8
2146.78201	17094.6
2149.74466	17067.9
2152.7054	17049.5
2155.66425	17067
2158.6212	17087.1
2161.57625	17088.4
2164.52941	17026.8
2167.48067	17038.1
2170.43004	17039.8
2173.37752	17068.6
2176.32311	16990.9
2179.26681	16994.9
2182.20863	17022.9
2185.14856	17039.7
2188.08661	17024.4
2191.02278	17001.7
2193.95707	17017.3
2196.88948	16964
2199.82001	16956.3
2202.74867	16954.3
2205.67545	16937.9
2208.60037	16924.6
2211.52341	16880.6
2214.44458	16815.8
2217.36388	16781.3
2220.28132	16766
2223.1969	16677.7
2226.11061	16683.7
2229.02246	16642.6
2231.93245	16627.8
2234.84058	16576.3
2237.74686	16548.9
2240.65128	16527.6
2243.55385	16540.7
2246.45456	16516.8
2249.35343	16477.4
2252.25044	16446
2255.14561	16401.9
2258.03893	16382.3
2260.93041	16385.9
2263.82004	16333.6
2266.70783	16293.2
2269.59378	16264.4
2272.4779	16244.1
2275.36017	16170.3
2278.24061	16153.9
2281.11922	16101.5
2283.996	16088.3
2286.87094	16050.9
2289.74405	15980.2
2292.61534	15976.8
2295.4848	15967.8
2298.35243	15961.6
2301.21824	15981.2
2304.08223	15944.3
2306.94439	15913.3
2309.80474	15881.3
2312.66327	15870.2
2315.51999	15829.2
2318.37489	15817.6
2321.22797	15815.6
2324.07925	15777.7
2326.92871	15712.4
2329.77637	15700.2
2332.62222	15679.5
2335.46626	15615
2338.3085	15582.6
2341.14893	15596.1
2343.98756	15562.8
2346.8244	15574.1
2349.65943	15521.6
2352.49267	15519.6
2355.32411	15488.1
2358.15376	15489.6
2360.98161	15452.7
2363.80768	15473.4
2366.63195	15444.3
2369.45444	15427
2372.27514	15408.2
2375.09405	15375.7
2377.91118	15340.5
2380.72652	15332
2383.54009	15320
2386.35187	15316.5
2389.16188	15222.2
2391.97011	15188.6
2394.77657	15152.1
2397.58125	15135.6
2400.38416	15126.7
2403.18529	15073.3
2405.98466	15091.4
2408.78226	15019.8
2411.57809	15001.1
2414.37216	14944.9
2417.16446	14982.4
2419.955	14968.1
2422.74378	14960
2425.5308	14945.4
2428.31606	14952.8
2431.09956	14927.1
2433.88131	14894.8
2436.6613	14847.3
2439.43954	14877.3
2442.21603	14844.4
2444.99077	14797.7
2447.76377	14796.5
2450.53501	14774.8
2453.30451	14775.9
2456.07226	14680.3
2458.83827	14650.7
2461.60254	14660.3
2464.36507	14637.6
2467.12586	14584
2469.88492	14609.5
2472.64224	14600.9
2475.39782	14569.1
2478.15167	14595.1
2480.90379	14511.6
2483.65417	14544
2486.40283	14515.1
2489.14976	14525.5
2491.89497	14474.4
2494.63845	14468.5
2497.3802	14442.7
2500.12024	14450
2502.85855	14390.3
2505.59514	14406.2
2508.33002	14361.4
2511.06318	14357.5
2513.79462	14345.1
2516.52435	14317.9
2519.25237	14276.8
2521.97867	14262.3
2524.70327	14236.4
2527.42616	14223.6
2530.14734	14184
2532.86681	14168.5
2535.58458	14172.8
2538.30065	14106.7
2541.01501	14118.9
2543.72768	14091.2
2546.43864	14076.3
2549.14791	14051.5
2551.85548	14026.5
2554.56136	13984.9
2557.26554	13962.6
2559.96803	13915.7
2562.66883	13875.3
2565.36794	13868.9
2568.06536	13849.3
2570.7611	13795.9
2573.45514	13757.5
2576.14751	13778.3
2578.83819	13725.6
2581.52719	13720.4
2584.21451	13689.3
2586.90015	13662.8
2589.58411	13587
2592.2664	13567
2594.94701	13555.4
2597.62594	13566.6
2600.30321	13518.4
2602.9788	13511.7
2605.65273	13475.2
2608.32498	13498.6
2610.99557	13412.3
2613.66449	13378.3
2616.33175	13393.1
2618.99734	13363.4
2621.66128	13298
2624.32355	13287.9
2626.98416	13257.6
2629.64311	13245.8
2632.30041	13241.9
2634.95605	13168.9
2637.61004	13184.3
2640.26238	13166.4
2642.91306	13115.8
2645.56209	13119.5
2648.20948	13075.6
2650.85521	13076.4
2653.4993	13072.7
2656.14175	13036.8
2658.78255	13058.6
2661.42171	13062.4
2664.05923	13055.7
2666.6951	13036.7
2669.32934	13041.7
2671.96194	13032.9
2674.59291	13033
2677.22224	13021
2679.84993	13017.1
2682.476	13017.6
2685.10043	12990.3
2687.72324	12998.2
2690.34441	12966.5
2692.96396	12958.1
2695.58188	12980.7
2698.19818	12947.8
2700.81285	12975
2703.4259	12944.8
2706.03733	12946.4
2708.64714	12883.1
2711.25533	12933.2
2713.86191	12890.3
2716.46687	12933.8
2719.07021	12924
2721.67194	12899.3
2724.27206	12912.2
2726.87057	12885.8
2729.46747	12887
2732.06276	12891
2734.65644	12885.4
2737.24852	12900.1
2739.83899	12865.6
2742.42786	12829
2745.01513	12805.6
2747.60079	12810.7
2750.18486	12790.5
2752.76733	12757.4
2755.3482	12720.5
2757.92747	12739.3
2760.50515	12704.4
2763.08123	12682.5
2765.65573	12666.3
2768.22863	12633.9
2770.79994	12604
2773.36967	12586.6
2775.9378	12581.2
2778.50435	12563
2781.06932	12521.5
2783.6327	12507.4
2786.1945	12499.7
2788.75471	12465
2791.31335	12398.6
2793.87041	12415.1
2796.42589	12355.1
2798.97979	12341
2801.53212	12285.5
2804.08288	12303.9
2806.63206	12231.7
2809.17967	12208.4
2811.72571	12168.3
2814.27018	12158.7
2816.81308	12123.7
2819.35442	12091.1
2821.89419	12050.4
2824.43239	12053.9
2826.96904	12033.1
2829.50412	11991.7
2832.03763	11968.3
2834.56959	11982
2837.1	11903.6
2839.62884	11926.6
2842.15613	11884.6
2844.68186	11902.8
2847.20604	11886
2849.72867	11855.6
2852.24974	11832.6
2854.76927	11809.9
2857.28724	11792.3
2859.80367	11783.8
2862.31855	11763.1
2864.83189	11725.4
2867.34368	11696.5
2869.85393	11697.1
2872.36264	11677.2
2874.8698	11662.1
2877.37543	11653.5
2879.87952	11634.9
2882.38207	11593.8
2884.88308	11601.9
2887.38256	11618.8
2889.88051	11589.1
2892.37692	11596
2894.8718	11570.2
2897.36515	11608.9
2899.85698	11607.7
2902.34727	11584.9
2904.83604	11614.5
2907.32328	11617.6
2909.809	11593.7
2912.29319	11603.8
2914.77587	11542
2917.25702	11551.1
2919.73665	11534.5
2922.21476	11582
2924.69136	11530.9
2927.16644	11521.5
2929.64	11514.7
2932.11205	11492.7
2934.58258	11470.4
2937.05161	11465
2939.51912	11452.2
2941.98513	11439
2944.44962	11452.4
2946.91261	11414.7
2949.37409	11444.4
2951.83407	11416.8
2954.29254	11418.1
2956.74951	11420.5
2959.20498	11426.1
2961.65895	11396.7
2964.11142	11410.6
2966.56239	11395.7
2969.01186	11404.1
2971.45984	11379.7
2973.90632	11410.2
2976.35131	11350.7
2978.7948	11332.2
2981.23681	11321.5
2983.67732	11306.7
2986.11635	11290.9
2988.55388	11263.2
2990.98993	11241.6
2993.4245	11227
2995.85758	11199.5
2998.28917	11166.5
3000.71928	11160.1
3003.14791	11099.5
3005.57506	11108
3008.00073	11058.1
3010.42493	11053.3
3012.84764	11030.9
3015.26888	11036
3017.68865	11017.8
3020.10694	10980.8
3022.52376	10972.5
3024.9391	10949.2
3027.35298	10934.7
3029.76539	10927
3032.17632	10887.5
3034.5858	10868.5
3036.9938	10864.6
3039.40034	10852.7
3041.80542	10865
3044.20903	10827.9
3046.61118	10832.8
3049.01187	10805.7
3051.4111	10778.8
3053.80888	10777.8
3056.20519	10734.2
3058.60005	10734.9
3060.99345	10710.9
3063.3854	10686.6
3065.7759	10673.7
3068.16494	10653.5
3070.55254	10620.4
3072.93868	10612.2
3075.32338	10565.1
3077.70662	10539.8
3080.08842	10509.1
3082.46878	10495.7
3084.84769	10461.7
3087.22515	10496.4
3089.60118	10492.9
3091.97576	10496.5
3094.3489	10490.7
3096.72061	10511.9
3099.09087	10520.1
3101.4597	10463.6
3103.82709	10509.8
3106.19305	10484.7
3108.55757	10499.4
3110.92066	10453.1
3113.28232	10447.9
3115.64255	10403.8
3118.00134	10376.4
3120.35871	10384.8
3122.71466	10350.3
3125.06917	10323.8
3127.42226	10324.1
3129.77393	10306.2
3132.12417	10304.9
3134.47299	10288.8
3136.82039	10274.9
3139.16636	10257.9
3141.51092	10239.9
3143.85406	10251.2
3146.19579	10250.7
3148.53609	10251.4
3150.87499	10261.2
3153.21246	10285.5
3155.54853	10263
3157.88318	10268.6
3160.21642	10279.8
3162.54826	10272.3
3164.87868	10256.2
3167.2077	10269
3169.5353	10271
3171.86151	10278.8
3174.18631	10271.7
3176.5097	10267.9
3178.83169	10219.7
3181.15228	10235.8
3183.47147	10202
3185.78926	10192.9
3188.10565	10151.2
3190.42065	10131.1
3192.73424	10139.6
3195.04645	10120.3
3197.35725	10116.8
3199.66667	10117.9
3201.97469	10132.8
3204.28132	10107.5
3206.58656	10123.4
3208.8904	10118.3
3211.19287	10088.9
3213.49394	10104.3
3215.79363	10113.2
3218.09193	10121.1
3220.38884	10117.7
3222.68438	10097.7
3224.97853	10085.8
3227.2713	10073.2
3229.56269	10063.4
3231.8527	10040.7
3234.14133	10052.7
3236.42858	10018.8
3238.71446	9978
3240.99896	9961
3243.28209	9955.6
3245.56384	9929.5
3247.84423	9902
3250.12324	9899.6
3252.40088	9921.8
3254.67715	9926.4
3256.95205	9897.4
3259.22558	9906.1
3261.49775	9874.6
3263.76855	9883.5
3266.03799	9883.6
3268.30606	9866.7
3270.57277	9825.7
3272.83812	9825.6
3275.10211	9778.4
3277.36474	9761.4
3279.62601	9771.5
3281.88593	9737.8
3284.14448	9736.5
3286.40168	9743.6
3288.65753	9729.1
3290.91202	9706.5
3293.16516	9684.3
3295.41695	9658
3297.66738	9628.7
3299.91647	9569.6
3302.16421	9494.7
3304.4106	9461.6
3306.65564	9434.4
3308.89933	9358.8
3311.14169	9313.5
3313.38269	9258
3315.62236	9196.1
3317.86068	9132.8
3320.09766	9070.1
3322.3333	9015.3
3324.5676	8997.1
3326.80056	8885.7
3329.03219	8846.3
3331.26248	4
3333.49143	-0.5
3335.71905	-0.6
