Data from AgNPs_FTO_APTES_UA_20uM_CRN_0uM_R6G_10uM_NaF_0.1M_Addition_RamanShift__45__11-42-11-986.txt Node

Date: Thu Feb 17 11:42:11 GMT 2022
User: TCL
Spectrometer: QEP01345
Trigger mode: 4
Integration Time (sec): 7.000000E0
Scans to average: 10
Electric dark correction enabled: true
Nonlinearity correction enabled: false
Boxcar width: 0
XAxis mode: Raman Shifts
Number of Pixels in Spectrum: 1044
>>>>>Begin Spectral Data<<<<<
46.04893	-0.1
50.45542	-0.6
54.85868	-3.1
59.25871	-1.9
63.6555	102.3
68.04907	99.5
72.43941	106
76.82654	107.8
81.21044	112.3
85.59113	117.6
89.96862	121.3
94.34289	124.3
98.71396	127.9
103.08183	129.9
107.4465	139.7
111.80798	138.8
116.16626	144.9
120.52136	154
124.87327	154.9
129.222	165.6
133.56755	176.8
137.90993	189.5
142.24913	210.1
146.58517	239.2
150.91804	282.5
155.24774	341.6
159.57429	425.2
163.89768	549.9
168.21792	741.6
172.53501	1020.6
176.84895	1429
181.15975	2022.2
185.46741	2850.6
189.77193	3956.3
194.07331	5275.6
198.37157	6802.9
202.6667	8407.5
206.9587	9985.5
211.24758	11570.8
215.53334	13151.8
219.81599	14845.8
224.09553	16683.1
228.37195	18751.8
232.64527	20999.2
236.91549	23375.5
241.18261	25803.1
245.44663	27980.7
249.70755	30017.7
253.96539	31777.1
258.22014	33240.2
262.4718	34504.1
266.72039	35391.3
270.96589	35867.2
275.20832	35873.5
279.44768	35605.1
283.68397	35307.9
287.91719	35006
292.14735	34833.7
296.37445	34775.2
300.59849	34880.3
304.81948	35053.5
309.03742	35102
313.25231	34899.3
317.46415	34404.5
321.67296	33608.3
325.87872	32989.9
330.08145	32719.1
334.28114	32658
338.47781	32959.3
342.67145	33424.8
346.86207	33988.7
351.04966	34709.6
355.23424	35488.3
359.4158	36090.4
363.59435	36583.9
367.76989	36901.4
371.94243	37146.6
376.11196	37359
380.27849	37502.2
384.44203	37753.1
388.60257	38012.7
392.76012	38229.1
396.91468	38663.7
401.06626	39126.3
405.21485	39574.4
409.36047	39548
413.50311	39151.9
417.64277	38885.6
421.77947	38836.7
425.9132	39059.2
430.04396	39320
434.17176	39520.4
438.2966	39802.1
442.41849	40413.5
446.53742	41416.6
450.6534	42532
454.76644	43264.3
458.87653	43572.5
462.98368	43306
467.08789	42716.5
471.18916	42066.1
475.2875	41432.9
479.38291	41023.8
483.4754	40777
487.56496	40489.1
491.6516	40116.9
495.73531	39888.6
499.81612	39790
503.89401	40084.2
507.96899	40268.8
512.04106	40211.8
516.11023	40000.7
520.1765	39677.8
524.23987	39466.6
528.30034	39250.7
532.35792	38931.9
536.41261	38558.6
540.46441	38172.8
544.51333	38098.4
548.55936	38446.2
552.60252	39097.1
556.64279	39996.9
560.6802	40621.1
564.71473	41065.9
568.7464	41652.3
572.7752	42684.2
576.80114	43569.8
580.82422	44428.8
584.84444	45299.3
588.86181	46203.8
592.87633	46835.3
596.888	46574.8
600.89682	45721.9
604.9028	46381.9
608.90594	49854.8
612.90624	53645.6
616.90371	50900.1
620.89834	43819.3
624.89015	40525.9
628.87913	40046.2
632.86528	40103.5
636.84862	39947.5
640.82913	39433.3
644.80683	38649.1
648.78172	38078.5
652.75379	38030.5
656.72306	38583.3
660.68952	39273.2
664.65319	39118.7
668.61405	38612.9
672.57211	38477.1
676.52738	38626.7
680.47986	38559.4
684.42955	38347.9
688.37646	38316.7
692.32058	38531.3
696.26192	39002.1
700.20048	39497.4
704.13626	39787.9
708.06928	39654.1
711.99952	39409.3
715.927	39309.8
719.85171	39512
723.77365	39510.7
727.69284	39149.9
731.60928	38741
735.52295	38564.2
739.43388	38645.5
743.34206	38760.1
747.24749	38907.6
751.15017	39221.6
755.05012	39743.1
758.94733	40683.9
762.8418	42357.2
766.73354	45074.6
770.62254	47570.6
774.50882	48088.6
778.39237	46421
782.27321	43700
786.15132	41389.7
790.02671	39919.1
793.89938	39210.9
797.76935	38936.9
801.6366	38897.1
805.50115	38808
809.36299	38668.8
813.22213	38378.4
817.07857	38213.6
820.93231	38071.4
824.78336	37943.4
828.63172	37824.8
832.47738	37852.8
836.32036	37938.5
840.16066	38022.3
843.99827	38129.5
847.8332	38159.8
851.66546	38113.7
855.49504	38107.4
859.32195	38088.9
863.1462	38095.8
866.96777	38053.1
870.78668	37983.7
874.60293	38030.9
878.41652	38093.9
882.22745	38189.8
886.03573	38288.7
889.84136	38265.7
893.64433	38119.2
897.44466	37959
901.24235	37833.4
905.0374	37705.6
908.8298	37577.3
912.61957	37593.7
916.40671	37849.9
920.19121	38260.8
923.97308	38651.6
927.75233	38771.9
931.52895	38559.3
935.30295	38184.2
939.07433	37671.9
942.84309	37311.7
946.60924	37207.9
950.37278	37136.8
954.13371	37151.6
957.89203	36970.7
961.64774	36845.4
965.40086	36843.9
969.15137	36830.6
972.89929	36672.9
976.64461	36598.7
980.38733	36654.2
984.12747	36810.4
987.86502	37127.1
991.59999	37615.2
995.33237	38213
999.06217	39106
1002.78939	40169.9
1006.51404	40921.5
1010.23611	41497.9
1013.95561	41796.6
1017.67255	41741.7
1021.38692	41309.8
1025.09872	40725.6
1028.80796	40598.8
1032.51465	41188.6
1036.21877	41819.5
1039.92035	41905.8
1043.61937	41546.8
1047.31584	40940.6
1051.00976	40242.4
1054.70114	39943.4
1058.38998	39957.3
1062.07627	40128.7
1065.76003	40406.6
1069.44126	40839.7
1073.11995	41375.1
1076.79611	41940.9
1080.46974	42260.7
1084.14085	42752.1
1087.80943	43267.5
1091.47549	43559
1095.13903	43459.4
1098.80005	42886.1
1102.45857	42164.8
1106.11456	41667.5
1109.76805	41463.4
1113.41903	41527.4
1117.06751	41783.6
1120.71348	42060
1124.35696	42484.7
1127.99793	42774.4
1131.63641	42913.4
1135.2724	42644.8
1138.90589	42353.6
1142.5369	42189
1146.16542	42192.5
1149.79145	42302
1153.415	42488.3
1157.03607	42885.1
1160.65467	43786.4
1164.27079	45290.2
1167.88443	47311.8
1171.49561	49872.6
1175.10432	53078.9
1178.71056	57113.7
1182.31434	60969.6
1185.91565	62815.3
1189.51451	62598.1
1193.11091	60909.2
1196.70485	58569.7
1200.29634	56309.8
1203.88538	54685.9
1207.47197	53498.4
1211.05612	52583.1
1214.63782	51774.6
1218.21708	51168
1221.79391	50954.7
1225.36829	50709.2
1228.94024	50180.8
1232.50976	49084.2
1236.07685	48086.2
1239.6415	47626.5
1243.20374	47505
1246.76355	47758.3
1250.32093	48447.1
1253.8759	49382.7
1257.42845	50597.7
1260.97859	51927.6
1264.52631	53356
1268.07163	54940.4
1271.61453	56484.6
1275.15503	57982.6
1278.69312	59414.1
1282.22882	60537.3
1285.76211	61697.7
1289.29301	63083
1292.82151	64830.1
1296.34761	67249.6
1299.87133	70514.6
1303.39266	74459
1306.9116	79039.9
1310.42815	83498.8
1313.94233	86356.5
1317.45412	86539.4
1320.96354	84864.6
1324.47058	83006.3
1327.97525	81420.2
1331.47754	80313.9
1334.97747	79561.1
1338.47502	79283.4
1341.97022	78894
1345.46305	77935.9
1348.95352	76768.2
1352.44163	76129.4
1355.92738	77174.5
1359.41078	80067
1362.89183	82843.3
1366.37053	81606.7
1369.84688	75475.7
1373.32088	68006.6
1376.79254	62913.8
1380.26186	60663.2
1383.72883	60163.1
1387.19347	59962
1390.65578	59418.4
1394.11575	59343.4
1397.57339	59930.3
1401.0287	61045.5
1404.48168	62157.5
1407.93234	62787.1
1411.38068	62402.3
1414.82669	61051.2
1418.27039	59023.7
1421.71177	56986.3
1425.15083	55252.3
1428.58758	54489.8
1432.02203	54883.5
1435.45416	56085.9
1438.88399	57528.7
1442.31151	58682
1445.73673	59414.2
1449.15965	59909.5
1452.58027	60119
1455.9986	60095.3
1459.41463	60541.9
1462.82837	61530.2
1466.23982	62851.3
1469.64898	64009.6
1473.05586	64704.3
1476.46045	64676.7
1479.86276	64183.3
1483.26279	63441.4
1486.66054	62959.3
1490.05602	63055.1
1493.44922	63303.1
1496.84016	63596.2
1500.22882	64413.7
1503.61521	65935.3
1506.99934	67936.9
1510.38121	69554.3
1513.76081	69864.8
1517.13816	68056.8
1520.51324	65247.8
1523.88607	62855.8
1527.25665	61625.2
1530.62498	61370.4
1533.99105	61238.5
1537.35488	61073.4
1540.71647	60577.8
1544.07581	59831.8
1547.4329	58872.6
1550.78776	57890.7
1554.14038	57122.4
1557.49077	56657
1560.83892	56371.5
1564.18484	56356.7
1567.52853	56417.8
1570.86999	56767.8
1574.20922	57278.5
1577.54624	57573.6
1580.88103	57394.6
1584.2136	57383.3
1587.54395	58815.3
1590.87208	61898.9
1594.19801	66249.5
1597.52172	70682.5
1600.84321	72483.4
1604.16251	69930.4
1607.47959	64795.4
1610.79447	59307.1
1614.10715	54352.5
1617.41763	50386.1
1620.7259	47676.1
1624.03199	46312.4
1627.33587	46220.9
1630.63757	47436.2
1633.93707	50073.8
1637.23439	54554.5
1640.52951	60947.6
1643.82246	68183
1647.11321	73531.5
1650.40179	73901.8
1653.68819	68688.9
1656.97241	60086.4
1660.25446	52103.9
1663.53433	46387.6
1666.81203	42746
1670.08756	40582.4
1673.36092	39111.5
1676.63211	38188.8
1679.90115	37532.4
1683.16801	37019.2
1686.43272	36669.3
1689.69527	36374
1692.95567	36176.9
1696.2139	36131.9
1699.46999	35983.8
1702.72392	35869.4
1705.97571	35831.8
1709.22535	35721.7
1712.47284	35730.8
1715.71819	35732
1718.96139	35656.4
1722.20246	35559.2
1725.44139	35384.7
1728.67818	35243.3
1731.91284	35023.1
1735.14537	34837.8
1738.37576	34708.6
1741.60403	34664
1744.83017	34536.2
1748.05418	34404.8
1751.27607	34342.1
1754.49584	34307.6
1757.71349	34302.2
1760.92903	34297.8
1764.14244	34190.6
1767.35375	34198.7
1770.56294	34151.7
1773.77002	34168.9
1776.97499	34082.9
1780.17785	34058.5
1783.37861	34022.8
1786.57727	33924.7
1789.77382	33870.4
1792.96828	33891.2
1796.16064	33817.5
1799.3509	33757.4
1802.53907	33728.4
1805.72514	33653.3
1808.90913	33548.7
1812.09102	33489.8
1815.27083	33481.5
1818.44856	33431.1
1821.6242	33349
1824.79776	33299.5
1827.96924	33295
1831.13864	33347.3
1834.30597	33325.2
1837.47122	33289.2
1840.6344	33254.6
1843.7955	33259
1846.95454	33288.7
1850.11151	33296.7
1853.26642	33273
1856.41926	33262.8
1859.57004	33270.6
1862.71876	33230.6
1865.86542	33192.5
1869.01003	33141.2
1872.15258	33076.3
1875.29308	33099.5
1878.43152	33050.5
1881.56792	33025.3
1884.70227	33067.2
1887.83457	33034.6
1890.96482	32969.5
1894.09304	32941.9
1897.21921	32881.3
1900.34335	32864
1903.46544	32806.5
1906.58551	32794.9
1909.70353	32748.6
1912.81953	32741
1915.93349	32725.8
1919.04543	32645.4
1922.15534	32529.4
1925.26322	32515.2
1928.36908	32447.6
1931.47292	32366.9
1934.57473	32273.6
1937.67453	32219.3
1940.77232	32158
1943.86808	32031.5
1946.96184	31955.1
1950.05358	31926.7
1953.14331	31768.1
1956.23103	31690.5
1959.31675	31631.9
1962.40046	31481
1965.48217	31405.8
1968.56188	31344.3
1971.63959	31277.8
1974.7153	31219
1977.78901	31097.4
1980.86073	31008.5
1983.93046	30937.1
1986.99819	30816.3
1990.06394	30775.1
1993.1277	30695.1
1996.18947	30582.7
1999.24925	30563.7
2002.30706	30436.5
2005.36288	30321.4
2008.41672	30264.8
2011.46859	30202.1
2014.51848	30114.6
2017.56639	30040.1
2020.61233	29963.9
2023.6563	29912.5
2026.6983	29829.6
2029.73833	29770.1
2032.7764	29705.5
2035.8125	29700.1
2038.84664	29645.1
2041.87881	29606.8
2044.90903	29535.7
2047.93729	29462.1
2050.96359	29455.5
2053.98794	29459.5
2057.01034	29497.6
2060.03078	29463.9
2063.04927	29443.5
2066.06582	29452
2069.08042	29404.8
2072.09307	29357.3
2075.10378	29345
2078.11255	29262.7
2081.11938	29256.3
2084.12426	29203.2
2087.12722	29210.8
2090.12824	29201.9
2093.12732	29261.9
2096.12447	29262.8
2099.11969	29211
2102.11299	29237.1
2105.10435	29283
2108.09379	29306.6
2111.08131	29310.7
2114.0669	29292.9
2117.05057	29298.6
2120.03233	29244
2123.01216	29334
2125.99008	29337.6
2128.96609	29370.1
2131.94018	29448.5
2134.91236	29514.6
2137.88263	29509.9
2140.851	29520.4
2143.81746	29546.3
2146.78201	29540.2
2149.74466	29608.6
2152.7054	29570.2
2155.66425	29599.8
2158.6212	29583
2161.57625	29557.7
2164.52941	29576.3
2167.48067	29537.7
2170.43004	29485.7
2173.37752	29537.1
2176.32311	29543.1
2179.26681	29604.9
2182.20863	29589
2185.14856	29600.2
2188.08661	29585.6
2191.02278	29617.3
2193.95707	29533.2
2196.88948	29529.6
2199.82001	29525.2
2202.74867	29497.4
2205.67545	29520.1
2208.60037	29420.6
2211.52341	29424.7
2214.44458	29436.4
2217.36388	29375.4
2220.28132	29355.1
2223.1969	29311.3
2226.11061	29268.5
2229.02246	29126.7
2231.93245	29068
2234.84058	29066.8
2237.74686	29017
2240.65128	28984.8
2243.55385	28918.5
2246.45456	28900.7
2249.35343	28844.5
2252.25044	28812.3
2255.14561	28778.3
2258.03893	28725.4
2260.93041	28713.2
2263.82004	28641.8
2266.70783	28618.3
2269.59378	28500.6
2272.4779	28475.3
2275.36017	28417.5
2278.24061	28402.8
2281.11922	28313.7
2283.996	28275.4
2286.87094	28256
2289.74405	28182.6
2292.61534	28195.9
2295.4848	28205.7
2298.35243	28233.4
2301.21824	28174.1
2304.08223	28216.3
2306.94439	28194.1
2309.80474	28212.4
2312.66327	28196.5
2315.51999	28187.7
2318.37489	28164.8
2321.22797	28115.4
2324.07925	28139.3
2326.92871	28083.9
2329.77637	28056.7
2332.62222	28029.5
2335.46626	28006.8
2338.3085	28050.7
2341.14893	28041.7
2343.98756	27987.6
2346.8244	28021.7
2349.65943	28043.4
2352.49267	28033.3
2355.32411	27982.9
2358.15376	28019.7
2360.98161	27984
2363.80768	27930.6
2366.63195	27903.6
2369.45444	27901.8
2372.27514	27856.1
2375.09405	27762.5
2377.91118	27727.5
2380.72652	27638.7
2383.54009	27559
2386.35187	27532.7
2389.16188	27431.3
2391.97011	27403.2
2394.77657	27383.8
2397.58125	27396.3
2400.38416	27380.6
2403.18529	27272
2405.98466	27229
2408.78226	27199.1
2411.57809	27200.1
2414.37216	27119.7
2417.16446	27136.5
2419.955	27064.3
2422.74378	27058.8
2425.5308	27014
2428.31606	27076.4
2431.09956	27056.6
2433.88131	27028.1
2436.6613	27085.2
2439.43954	27073.2
2442.21603	27014
2444.99077	27035.2
2447.76377	26978.2
2450.53501	26957.7
2453.30451	26985.5
2456.07226	26950.2
2458.83827	26925.7
2461.60254	26909
2464.36507	26936.2
2467.12586	26940.4
2469.88492	26927.1
2472.64224	26929.6
2475.39782	26927.5
2478.15167	26973
2480.90379	26928.9
2483.65417	26987.9
2486.40283	27002.8
2489.14976	26987.6
2491.89497	26972.3
2494.63845	27013.1
2497.3802	26981.5
2500.12024	27002.1
2502.85855	26932.7
2505.59514	26908.7
2508.33002	26858.9
2511.06318	26844
2513.79462	26829.8
2516.52435	26855.1
2519.25237	26766.5
2521.97867	26773.2
2524.70327	26775
2527.42616	26687.6
2530.14734	26728.4
2532.86681	26688
2535.58458	26669.9
2538.30065	26676.6
2541.01501	26693.1
2543.72768	26684.3
2546.43864	26642.3
2549.14791	26593.3
2551.85548	26575.4
2554.56136	26512.5
2557.26554	26484.9
2559.96803	26471.8
2562.66883	26396.8
2565.36794	26409.6
2568.06536	26406.4
2570.7611	26362
2573.45514	26355.7
2576.14751	26351.6
2578.83819	26272.7
2581.52719	26280.3
2584.21451	26242.4
2586.90015	26261.6
2589.58411	26234.8
2592.2664	26231.2
2594.94701	26186.7
2597.62594	26214.5
2600.30321	26188.5
2602.9788	26182.8
2605.65273	26192.6
2608.32498	26161.6
2610.99557	26126.7
2613.66449	26199.7
2616.33175	26144.1
2618.99734	26128.8
2621.66128	26071.2
2624.32355	26065
2626.98416	26067.9
2629.64311	26049.1
2632.30041	26068.3
2634.95605	26037.3
2637.61004	26001
2640.26238	26000
2642.91306	25996.8
2645.56209	25970.2
2648.20948	25952.2
2650.85521	25911.1
2653.4993	25947.1
2656.14175	25967.7
2658.78255	25979.9
2661.42171	25958.2
2664.05923	25998.7
2666.6951	26011
2669.32934	26016.3
2671.96194	26015.6
2674.59291	26016
2677.22224	26016.3
2679.84993	26060.6
2682.476	25993.7
2685.10043	25964
2687.72324	25939.2
2690.34441	25952.5
2692.96396	25906.8
2695.58188	25951.6
2698.19818	25894.5
2700.81285	25913.2
2703.4259	25928.8
2706.03733	25950.3
2708.64714	25905.7
2711.25533	25950.5
2713.86191	25905.7
2716.46687	26034.9
2719.07021	25988.8
2721.67194	26037.2
2724.27206	25982.3
2726.87057	26026.8
2729.46747	26015.6
2732.06276	26001.9
2734.65644	26014.3
2737.24852	26041.4
2739.83899	26024.1
2742.42786	26060.5
2745.01513	26021.2
2747.60079	25966.1
2750.18486	25942.6
2752.76733	25994.9
2755.3482	25960.8
2757.92747	25895.1
2760.50515	25859.4
2763.08123	25883.4
2765.65573	25850.1
2768.22863	25861.9
2770.79994	25802.4
2773.36967	25837.3
2775.9378	25813.7
2778.50435	25830.7
2781.06932	25808
2783.6327	25838.3
2786.1945	25794.2
2788.75471	25745.1
2791.31335	25699.1
2793.87041	25675.1
2796.42589	25597.8
2798.97979	25591.6
2801.53212	25530
2804.08288	25446.4
2806.63206	25455.8
2809.17967	25404.6
2811.72571	25332
2814.27018	25252.8
2816.81308	25199.5
2819.35442	25205.9
2821.89419	25172
2824.43239	25118.2
2826.96904	25095.3
2829.50412	25126.6
2832.03763	25028.3
2834.56959	25056.2
2837.1	24983
2839.62884	24993.8
2842.15613	24972.8
2844.68186	25003.7
2847.20604	24970.4
2849.72867	24978
2852.24974	24901.7
2854.76927	24901.2
2857.28724	24898.4
2859.80367	24864.7
2862.31855	24832.3
2864.83189	24814.3
2867.34368	24771.4
2869.85393	24781.9
2872.36264	24761.8
2874.8698	24726.7
2877.37543	24687.4
2879.87952	24677.3
2882.38207	24726.6
2884.88308	24719.4
2887.38256	24764.1
2889.88051	24696.3
2892.37692	24740.2
2894.8718	24745.3
2897.36515	24801
2899.85698	24795.5
2902.34727	24822.3
2904.83604	24786
2907.32328	24861
2909.809	24843.7
2912.29319	24911.2
2914.77587	24920.5
2917.25702	24928.6
2919.73665	24860.4
2922.21476	24874.4
2924.69136	24823.1
2927.16644	24811
2929.64	24779.5
2932.11205	24736.1
2934.58258	24678.4
2937.05161	24752.5
2939.51912	24719.5
2941.98513	24703.4
2944.44962	24604.4
2946.91261	24541
2949.37409	24624.3
2951.83407	24597.2
2954.29254	24563.9
2956.74951	24567.8
2959.20498	24555.9
2961.65895	24536.3
2964.11142	24519.5
2966.56239	24546.6
2969.01186	24484.5
2971.45984	24396.3
2973.90632	24362.7
2976.35131	24333.8
2978.7948	24315.3
2981.23681	24264.2
2983.67732	24203.5
2986.11635	24157.9
2988.55388	24078.6
2990.98993	24087.6
2993.4245	24026.1
2995.85758	23959.6
2998.28917	23892.4
3000.71928	23820.7
3003.14791	23784.5
3005.57506	23758.6
3008.00073	23680.9
3010.42493	23740.3
3012.84764	23657.7
3015.26888	23670.9
3017.68865	23624.9
3020.10694	23574.9
3022.52376	23519
3024.9391	23505.5
3027.35298	23451.3
3029.76539	23455.7
3032.17632	23432.8
3034.5858	23373.8
3036.9938	23336.5
3039.40034	23339.5
3041.80542	23330.8
3044.20903	23295.2
3046.61118	23316.5
3049.01187	23221.9
3051.4111	23213.6
3053.80888	23182.4
3056.20519	23125
3058.60005	23095.6
3060.99345	23020.7
3063.3854	22993.6
3065.7759	22935.7
3068.16494	22871
3070.55254	22794.8
3072.93868	22702
3075.32338	22653.6
3077.70662	22595.5
3080.08842	22542.4
3082.46878	22522.8
3084.84769	22477.7
3087.22515	22480.4
3089.60118	22429.4
3091.97576	22453.4
3094.3489	22433.7
3096.72061	22454.4
3099.09087	22465.9
3101.4597	22412.8
3103.82709	22432.2
3106.19305	22400.7
3108.55757	22382.3
3110.92066	22348
3113.28232	22321.4
3115.64255	22263
3118.00134	22201.8
3120.35871	22149.8
3122.71466	22071.3
3125.06917	22059.9
3127.42226	22041.9
3129.77393	22044.3
3132.12417	21976
3134.47299	21949.3
3136.82039	21950.7
3139.16636	21913.1
3141.51092	21888.6
3143.85406	21902.9
3146.19579	21885.9
3148.53609	21883.9
3150.87499	21921.1
3153.21246	21914.2
3155.54853	21937.7
3157.88318	21876.4
3160.21642	21878.8
3162.54826	21863.7
3164.87868	21853.2
3167.2077	21830.7
3169.5353	21812.3
3171.86151	21840
3174.18631	21858
3176.5097	21841.2
3178.83169	21809.7
3181.15228	21782.3
3183.47147	21722.9
3185.78926	21701.7
3188.10565	21657.1
3190.42065	21651.8
3192.73424	21613.5
3195.04645	21579.5
3197.35725	21592.2
3199.66667	21553.2
3201.97469	21596.1
3204.28132	21536.7
3206.58656	21589.8
3208.8904	21576.8
3211.19287	21558.3
3213.49394	21531.6
3215.79363	21563
3218.09193	21615.8
3220.38884	21609.7
3222.68438	21628.2
3224.97853	21548.7
3227.2713	21525.8
3229.56269	21514.8
3231.8527	21505.1
3234.14133	21473.1
3236.42858	21427.8
3238.71446	21405.2
3240.99896	21364.7
3243.28209	21369.3
3245.56384	21305.4
3247.84423	21275.8
3250.12324	21265.6
3252.40088	21299.8
3254.67715	21269.3
3256.95205	21222.8
3259.22558	21259.9
3261.49775	21202.3
3263.76855	21172.8
3266.03799	21116.8
3268.30606	21066.2
3270.57277	21053.5
3272.83812	21022.9
3275.10211	21010.8
3277.36474	20943.3
3279.62601	20956.2
3281.88593	20895.3
3284.14448	20926.7
3286.40168	20918.5
3288.65753	20891.8
3290.91202	20830
3293.16516	20874.2
3295.41695	20838.4
3297.66738	20718.3
3299.91647	20587.4
3302.16421	20468.7
3304.4106	20381.8
3306.65564	20239.5
3308.89933	20075.2
3311.14169	19976.2
3313.38269	19793.6
3315.62236	19723.8
3317.86068	19544.9
3320.09766	19366.7
3322.3333	19251.2
3324.5676	19155.2
3326.80056	18848.9
3329.03219	18751
3331.26248	6.4
3333.49143	0.9
3335.71905	-0.7
