Data from AgNPs_FTO_APTES_UA_20uM_CRN_1uM_R6G_10uM_NaF_0.1M_Addition_RamanShift__18__12-23-02-039.txt Node

Date: Thu Feb 17 12:23:02 GMT 2022
User: TCL
Spectrometer: QEP01345
Trigger mode: 4
Integration Time (sec): 7.000000E0
Scans to average: 10
Electric dark correction enabled: true
Nonlinearity correction enabled: false
Boxcar width: 0
XAxis mode: Raman Shifts
Number of Pixels in Spectrum: 1044
>>>>>Begin Spectral Data<<<<<
46.04893	0.2875
50.45542	-0.8125
54.85868	-3.5125
59.25871	-0.2125
63.6555	116.6875
68.04907	117.7875
72.43941	120.2875
76.82654	124.7875
81.21044	127.8875
85.59113	135.6875
89.96862	137.1875
94.34289	137.9875
98.71396	141.8875
103.08183	147.4875
107.4465	151.8875
111.80798	155.4875
116.16626	163.7875
120.52136	171.7875
124.87327	174.4875
129.222	190.0875
133.56755	203.1875
137.90993	214.5875
142.24913	240.8875
146.58517	278.4875
150.91804	326.3875
155.24774	390.8875
159.57429	491.7875
163.89768	642.7875
168.21792	867.1875
172.53501	1184.5875
176.84895	1655.2875
181.15975	2353.7875
185.46741	3311.5875
189.77193	4572.6875
194.07331	6129.3875
198.37157	7896.1875
202.6667	9762.0875
206.9587	11625.9875
211.24758	13455.7875
215.53334	15264.2875
219.81599	17218.2875
224.09553	19369.2875
228.37195	21780.3875
232.64527	24393.0875
236.91549	27128.8875
241.18261	29935.8875
245.44663	32546.8875
249.70755	34879.8875
253.96539	36949.1875
258.22014	38700.4875
262.4718	40130.5875
266.72039	41144.3875
270.96589	41795.0875
275.20832	41822.0875
279.44768	41629.1875
283.68397	41197.8875
287.91719	40898.2875
292.14735	40682.2875
296.37445	40608.9875
300.59849	40758.1875
304.81948	40855.0875
309.03742	40918.2875
313.25231	40632.2875
317.46415	40023.3875
321.67296	39186.2875
325.87872	38466.5875
330.08145	38145.9875
334.28114	38179.6875
338.47781	38476.9875
342.67145	39044.8875
346.86207	39603.8875
351.04966	40446.2875
355.23424	41242.6875
359.4158	41893.5875
363.59435	42442.9875
367.76989	42841.1875
371.94243	43152.5875
376.11196	43371.9875
380.27849	43643.2875
384.44203	43900.7875
388.60257	44140.3875
392.76012	44542.7875
396.91468	44977.6875
401.06626	45574.3875
405.21485	46019.0875
409.36047	45965.3875
413.50311	45477.0875
417.64277	45110.7875
421.77947	45082.5875
425.9132	45325.8875
430.04396	45637.9875
434.17176	45910.0875
438.2966	46309.0875
442.41849	47191.4875
446.53742	48480.7875
450.6534	49821.0875
454.76644	50884.3875
458.87653	51268.0875
462.98368	50945.7875
467.08789	50240.5875
471.18916	49499.2875
475.2875	48731.9875
479.38291	48359.3875
483.4754	48109.8875
487.56496	47634.7875
491.6516	47060.7875
495.73531	46529.9875
499.81612	46289.6875
503.89401	46530.8875
507.96899	46687.2875
512.04106	46666.2875
516.11023	46410.9875
520.1765	46080.3875
524.23987	45831.8875
528.30034	45619.1875
532.35792	45306.0875
536.41261	44818.9875
540.46441	44478.4875
544.51333	44467.7875
548.55936	44850.9875
552.60252	45705.2875
556.64279	46757.3875
560.6802	47601.0875
564.71473	48101.6875
568.7464	48830.3875
572.7752	49972.9875
576.80114	51064.7875
580.82422	51953.2875
584.84444	52813.0875
588.86181	53937.2875
592.87633	54859.9875
596.888	54801.0875
600.89682	53953.9875
604.9028	54610.7875
608.90594	58353.7875
612.90624	62176.8875
616.90371	58682.5875
620.89834	50636.2875
624.89015	47137.3875
628.87913	46666.6875
632.86528	46686.3875
636.84862	46530.6875
640.82913	45916.4875
644.80683	44967.4875
648.78172	44258.4875
652.75379	44204.1875
656.72306	44789.8875
660.68952	45535.7875
664.65319	45374.4875
668.61405	44682.5875
672.57211	44580.3875
676.52738	44703.6875
680.47986	44618.7875
684.42955	44445.9875
688.37646	44335.4875
692.32058	44649.8875
696.26192	45163.2875
700.20048	45676.6875
704.13626	46076.8875
708.06928	45938.6875
711.99952	45628.1875
715.927	45592.3875
719.85171	45835.6875
723.77365	45727.1875
727.69284	45358.4875
731.60928	44907.4875
735.52295	44765.1875
739.43388	44872.1875
743.34206	44965.1875
747.24749	45228.5875
751.15017	45579.0875
755.05012	46190.5875
758.94733	47328.2875
762.8418	49382.1875
766.73354	52497.5875
770.62254	55403.2875
774.50882	55890.6875
778.39237	53645.7875
782.27321	50454.3875
786.15132	47649.7875
790.02671	45988.7875
793.89938	45235.7875
797.76935	44921.0875
801.6366	44853.7875
805.50115	44790.4875
809.36299	44602.7875
813.22213	44382.4875
817.07857	44155.6875
820.93231	44019.6875
824.78336	43843.3875
828.63172	43766.6875
832.47738	43735.0875
836.32036	43810.8875
840.16066	43950.1875
843.99827	44060.1875
847.8332	44076.8875
851.66546	44024.7875
855.49504	43944.1875
859.32195	44010.9875
863.1462	43891.4875
866.96777	43881.1875
870.78668	43841.4875
874.60293	43850.7875
878.41652	43887.3875
882.22745	43998.2875
886.03573	44150.6875
889.84136	44077.4875
893.64433	43912.0875
897.44466	43780.3875
901.24235	43576.3875
905.0374	43478.5875
908.8298	43381.4875
912.61957	43388.6875
916.40671	43770.5875
920.19121	44227.8875
923.97308	44700.8875
927.75233	44821.1875
931.52895	44543.7875
935.30295	44034.6875
939.07433	43419.7875
942.84309	43006.8875
946.60924	42905.8875
950.37278	42891.1875
954.13371	42831.3875
957.89203	42685.6875
961.64774	42587.7875
965.40086	42542.3875
969.15137	42455.1875
972.89929	42332.0875
976.64461	42198.4875
980.38733	42234.4875
984.12747	42332.8875
987.86502	42797.4875
991.59999	43270.6875
995.33237	44074.9875
999.06217	45188.3875
1002.78939	46426.6875
1006.51404	47344.2875
1010.23611	48029.6875
1013.95561	48535.2875
1017.67255	48432.6875
1021.38692	47840.7875
1025.09872	47193.7875
1028.80796	47048.1875
1032.51465	47693.5875
1036.21877	48341.5875
1039.92035	48507.3875
1043.61937	48061.0875
1047.31584	47342.4875
1051.00976	46533.5875
1054.70114	46201.7875
1058.38998	46217.2875
1062.07627	46534.2875
1065.76003	46796.4875
1069.44126	47292.1875
1073.11995	47865.6875
1076.79611	48426.7875
1080.46974	48877.9875
1084.14085	49322.2875
1087.80943	49923.3875
1091.47549	50247.1875
1095.13903	50156.9875
1098.80005	49571.0875
1102.45857	48858.0875
1106.11456	48192.7875
1109.76805	47994.7875
1113.41903	48235.8875
1117.06751	48552.8875
1120.71348	48914.9875
1124.35696	49253.9875
1127.99793	49624.0875
1131.63641	49737.9875
1135.2724	49523.2875
1138.90589	49297.5875
1142.5369	49218.6875
1146.16542	49283.6875
1149.79145	49447.9875
1153.415	49835.4875
1157.03607	50488.2875
1160.65467	51667.5875
1164.27079	53509.6875
1167.88443	56044.8875
1171.49561	59167.6875
1175.10432	63110.4875
1178.71056	67995.0875
1182.31434	72534.9875
1185.91565	74636.4875
1189.51451	74203.9875
1193.11091	72143.2875
1196.70485	69292.2875
1200.29634	66750.4875
1203.88538	64941.0875
1207.47197	63626.4875
1211.05612	62573.7875
1214.63782	61568.0875
1218.21708	60853.7875
1221.79391	60500.4875
1225.36829	60208.4875
1228.94024	59498.4875
1232.50976	58174.0875
1236.07685	57009.2875
1239.6415	56393.3875
1243.20374	56326.5875
1246.76355	56685.6875
1250.32093	57443.4875
1253.8759	58582.5875
1257.42845	60068.8875
1260.97859	61596.5875
1264.52631	63164.0875
1268.07163	64867.6875
1271.61453	66667.1875
1275.15503	68443.1875
1278.69312	70180.9875
1282.22882	71703.1875
1285.76211	73321.8875
1289.29301	75127.2875
1292.82151	77587.5875
1296.34761	80709.9875
1299.87133	84993.2875
1303.39266	89828.0875
1306.9116	95240.9875
1310.42815	100399.8875
1313.94233	103756.0875
1317.45412	104247.7875
1320.96354	102701.7875
1324.47058	100770.8875
1327.97525	98926.3875
1331.47754	97555.6875
1334.97747	96639.4875
1338.47502	96381.0875
1341.97022	95924.5875
1345.46305	94804.8875
1348.95352	93329.0875
1352.44163	92233.8875
1355.92738	93137.9875
1359.41078	96244.1875
1362.89183	99009.0875
1366.37053	97153.9875
1369.84688	89927.8875
1373.32088	81415.6875
1376.79254	75510.6875
1380.26186	73140.4875
1383.72883	72858.5875
1387.19347	72944.6875
1390.65578	72500.4875
1394.11575	72502.5875
1397.57339	73472.9875
1401.0287	75027.1875
1404.48168	76578.5875
1407.93234	77221.1875
1411.38068	76509.7875
1414.82669	74574.6875
1418.27039	71895.9875
1421.71177	69009.1875
1425.15083	66681.2875
1428.58758	65582.0875
1432.02203	65937.5875
1435.45416	67434.7875
1438.88399	69319.6875
1442.31151	70893.9875
1445.73673	71951.2875
1449.15965	72707.8875
1452.58027	73126.6875
1455.9986	73192.6875
1459.41463	73702.5875
1462.82837	74805.2875
1466.23982	76166.2875
1469.64898	77487.7875
1473.05586	78264.0875
1476.46045	78238.2875
1479.86276	77558.7875
1483.26279	76577.6875
1486.66054	75808.8875
1490.05602	75696.8875
1493.44922	75760.6875
1496.84016	75947.2875
1500.22882	76701.5875
1503.61521	78331.4875
1506.99934	80515.7875
1510.38121	82198.2875
1513.76081	82414.1875
1517.13816	80318.3875
1520.51324	77461.6875
1523.88607	75143.1875
1527.25665	74157.1875
1530.62498	74135.7875
1533.99105	74310.2875
1537.35488	74179.4875
1540.71647	73649.4875
1544.07581	72699.4875
1547.4329	71369.4875
1550.78776	70105.5875
1554.14038	68987.3875
1557.49077	68296.4875
1560.83892	67837.9875
1564.18484	67647.5875
1567.52853	67689.5875
1570.86999	67975.3875
1574.20922	68777.5875
1577.54624	69375.2875
1580.88103	69353.3875
1584.2136	69635.5875
1587.54395	71615.2875
1590.87208	75311.2875
1594.19801	80467.2875
1597.52172	85617.1875
1600.84321	87581.7875
1604.16251	84459.8875
1607.47959	78346.9875
1610.79447	71796.3875
1614.10715	65799.0875
1617.41763	60838.5875
1620.7259	57339.7875
1624.03199	55688.3875
1627.33587	55518.9875
1630.63757	56966.2875
1633.93707	60402.0875
1637.23439	66019.3875
1640.52951	74079.9875
1643.82246	83068.5875
1647.11321	89370.3875
1650.40179	89493.6875
1653.68819	82777.4875
1656.97241	72235.3875
1660.25446	62449.9875
1663.53433	55356.6875
1666.81203	50807.1875
1670.08756	47970.9875
1673.36092	46260.1875
1676.63211	45061.1875
1679.90115	44210.9875
1683.16801	43516.3875
1686.43272	43034.8875
1689.69527	42647.5875
1692.95567	42401.7875
1696.2139	42234.3875
1699.46999	42171.0875
1702.72392	42042.6875
1705.97571	41951.4875
1709.22535	41801.2875
1712.47284	41792.1875
1715.71819	41742.8875
1718.96139	41668.2875
1722.20246	41577.8875
1725.44139	41389.2875
1728.67818	41159.8875
1731.91284	40949.3875
1735.14537	40737.6875
1738.37576	40567.4875
1741.60403	40492.6875
1744.83017	40289.2875
1748.05418	40186.6875
1751.27607	40102.3875
1754.49584	40040.0875
1757.71349	40055.1875
1760.92903	40027.6875
1764.14244	39965.8875
1767.35375	39953.4875
1770.56294	39893.3875
1773.77002	39863.2875
1776.97499	39850.6875
1780.17785	39763.4875
1783.37861	39742.8875
1786.57727	39627.0875
1789.77382	39497.9875
1792.96828	39521.7875
1796.16064	39438.2875
1799.3509	39376.9875
1802.53907	39305.0875
1805.72514	39224.2875
1808.90913	39170.0875
1812.09102	39070.9875
1815.27083	39022.9875
1818.44856	38961.4875
1821.6242	38870.8875
1824.79776	38895.5875
1827.96924	38876.7875
1831.13864	38874.4875
1834.30597	38845.0875
1837.47122	38750.5875
1840.6344	38739.7875
1843.7955	38811.9875
1846.95454	38757.2875
1850.11151	38754.8875
1853.26642	38742.9875
1856.41926	38700.3875
1859.57004	38695.8875
1862.71876	38626.5875
1865.86542	38609.7875
1869.01003	38618.8875
1872.15258	38564.5875
1875.29308	38535.1875
1878.43152	38486.9875
1881.56792	38552.7875
1884.70227	38542.2875
1887.83457	38569.6875
1890.96482	38534.1875
1894.09304	38476.7875
1897.21921	38399.3875
1900.34335	38325.5875
1903.46544	38296.5875
1906.58551	38302.9875
1909.70353	38366.8875
1912.81953	38259.0875
1915.93349	38194.5875
1919.04543	38075.3875
1922.15534	38025.7875
1925.26322	37965.8875
1928.36908	37906.3875
1931.47292	37860.5875
1934.57473	37726.4875
1937.67453	37637.8875
1940.77232	37543.8875
1943.86808	37428.1875
1946.96184	37278.8875
1950.05358	37163.5875
1953.14331	37131.3875
1956.23103	37007.1875
1959.31675	36885.5875
1962.40046	36756.4875
1965.48217	36608.3875
1968.56188	36532.6875
1971.63959	36452.3875
1974.7153	36389.1875
1977.78901	36265.3875
1980.86073	36156.7875
1983.93046	36121.5875
1986.99819	36005.3875
1990.06394	35909.3875
1993.1277	35859.4875
1996.18947	35684.7875
1999.24925	35646.6875
2002.30706	35541.7875
2005.36288	35417.8875
2008.41672	35328.5875
2011.46859	35265.3875
2014.51848	35111.3875
2017.56639	35058.4875
2020.61233	34989.3875
2023.6563	34909.6875
2026.6983	34817.7875
2029.73833	34744.6875
2032.7764	34672.9875
2035.8125	34600.9875
2038.84664	34579.7875
2041.87881	34562.6875
2044.90903	34470.9875
2047.93729	34396.9875
2050.96359	34411.1875
2053.98794	34365.9875
2057.01034	34382.0875
2060.03078	34367.4875
2063.04927	34365.1875
2066.06582	34315.6875
2069.08042	34300.0875
2072.09307	34236.5875
2075.10378	34212.8875
2078.11255	34132.8875
2081.11938	34198.9875
2084.12426	34177.3875
2087.12722	34132.9875
2090.12824	34131.2875
2093.12732	34145.4875
2096.12447	34088.9875
2099.11969	34108.8875
2102.11299	34125.9875
2105.10435	34147.6875
2108.09379	34122.8875
2111.08131	34192.5875
2114.0669	34157.1875
2117.05057	34130.9875
2120.03233	34131.2875
2123.01216	34185.0875
2125.99008	34278.5875
2128.96609	34286.6875
2131.94018	34337.9875
2134.91236	34402.1875
2137.88263	34425.5875
2140.851	34439.7875
2143.81746	34466.5875
2146.78201	34427.1875
2149.74466	34477.0875
2152.7054	34510.5875
2155.66425	34528.4875
2158.6212	34527.0875
2161.57625	34447.3875
2164.52941	34440.8875
2167.48067	34416.7875
2170.43004	34439.2875
2173.37752	34436.6875
2176.32311	34507.4875
2179.26681	34521.1875
2182.20863	34460.9875
2185.14856	34511.7875
2188.08661	34495.6875
2191.02278	34515.2875
2193.95707	34460.7875
2196.88948	34424.6875
2199.82001	34474.6875
2202.74867	34456.8875
2205.67545	34357.2875
2208.60037	34330.8875
2211.52341	34327.4875
2214.44458	34320.3875
2217.36388	34296.0875
2220.28132	34214.9875
2223.1969	34177.9875
2226.11061	34090.9875
2229.02246	33992.9875
2231.93245	33950.1875
2234.84058	33857.1875
2237.74686	33868.1875
2240.65128	33850.7875
2243.55385	33749.4875
2246.45456	33762.6875
2249.35343	33670.6875
2252.25044	33623.8875
2255.14561	33535.5875
2258.03893	33518.0875
2260.93041	33486.9875
2263.82004	33419.8875
2266.70783	33335.9875
2269.59378	33214.6875
2272.4779	33160.3875
2275.36017	33144.4875
2278.24061	33086.6875
2281.11922	33006.8875
2283.996	32973.1875
2286.87094	32911.8875
2289.74405	32911.8875
2292.61534	32922.6875
2295.4848	32837.2875
2298.35243	32871.9875
2301.21824	32904.8875
2304.08223	32851.6875
2306.94439	32829.8875
2309.80474	32893.1875
2312.66327	32877.9875
2315.51999	32886.8875
2318.37489	32833.7875
2321.22797	32785.4875
2324.07925	32784.2875
2326.92871	32778.1875
2329.77637	32695.6875
2332.62222	32647.0875
2335.46626	32654.3875
2338.3085	32666.7875
2341.14893	32676.2875
2343.98756	32651.1875
2346.8244	32681.4875
2349.65943	32690.5875
2352.49267	32649.8875
2355.32411	32666.5875
2358.15376	32664.7875
2360.98161	32606.3875
2363.80768	32592.2875
2366.63195	32541.8875
2369.45444	32544.3875
2372.27514	32498.2875
2375.09405	32445.7875
2377.91118	32392.3875
2380.72652	32278.1875
2383.54009	32189.4875
2386.35187	32154.4875
2389.16188	32078.7875
2391.97011	32024.0875
2394.77657	31985.3875
2397.58125	31993.6875
2400.38416	31903.3875
2403.18529	31871.8875
2405.98466	31804.5875
2408.78226	31759.0875
2411.57809	31730.0875
2414.37216	31600.6875
2417.16446	31642.0875
2419.955	31606.2875
2422.74378	31589.6875
2425.5308	31605.5875
2428.31606	31573.8875
2431.09956	31599.6875
2433.88131	31563.0875
2436.6613	31596.1875
2439.43954	31552.8875
2442.21603	31513.7875
2444.99077	31460.0875
2447.76377	31518.3875
2450.53501	31497.3875
2453.30451	31479.1875
2456.07226	31426.2875
2458.83827	31426.3875
2461.60254	31405.7875
2464.36507	31439.4875
2467.12586	31422.4875
2469.88492	31408.5875
2472.64224	31456.9875
2475.39782	31464.2875
2478.15167	31474.0875
2480.90379	31478.9875
2483.65417	31519.7875
2486.40283	31475.3875
2489.14976	31520.8875
2491.89497	31522.8875
2494.63845	31551.4875
2497.3802	31496.6875
2500.12024	31506.9875
2502.85855	31486.9875
2505.59514	31458.0875
2508.33002	31382.0875
2511.06318	31352.7875
2513.79462	31401.8875
2516.52435	31337.1875
2519.25237	31358.7875
2521.97867	31308.5875
2524.70327	31293.6875
2527.42616	31251.4875
2530.14734	31276.6875
2532.86681	31222.1875
2535.58458	31232.4875
2538.30065	31206.8875
2541.01501	31216.6875
2543.72768	31243.4875
2546.43864	31222.5875
2549.14791	31171.8875
2551.85548	31105.2875
2554.56136	31058.7875
2557.26554	31026.9875
2559.96803	30993.3875
2562.66883	30898.9875
2565.36794	30902.2875
2568.06536	30891.8875
2570.7611	30831.3875
2573.45514	30848.0875
2576.14751	30833.6875
2578.83819	30773.7875
2581.52719	30844.2875
2584.21451	30734.0875
2586.90015	30764.7875
2589.58411	30709.5875
2592.2664	30738.5875
2594.94701	30690.1875
2597.62594	30701.4875
2600.30321	30696.8875
2602.9788	30700.1875
2605.65273	30731.7875
2608.32498	30728.5875
2610.99557	30662.8875
2613.66449	30730.1875
2616.33175	30707.9875
2618.99734	30628.7875
2621.66128	30644.3875
2624.32355	30637.3875
2626.98416	30601.6875
2629.64311	30590.0875
2632.30041	30567.5875
2634.95605	30538.5875
2637.61004	30595.1875
2640.26238	30546.9875
2642.91306	30517.0875
2645.56209	30431.0875
2648.20948	30462.2875
2650.85521	30460.4875
2653.4993	30466.1875
2656.14175	30464.2875
2658.78255	30520.5875
2661.42171	30539.2875
2664.05923	30599.7875
2666.6951	30611.8875
2669.32934	30564.5875
2671.96194	30572.1875
2674.59291	30583.4875
2677.22224	30633.3875
2679.84993	30584.9875
2682.476	30561.5875
2685.10043	30539.9875
2687.72324	30501.5875
2690.34441	30499.6875
2692.96396	30479.7875
2695.58188	30543.3875
2698.19818	30439.9875
2700.81285	30418.3875
2703.4259	30480.9875
2706.03733	30483.4875
2708.64714	30486.4875
2711.25533	30492.3875
2713.86191	30514.2875
2716.46687	30575.2875
2719.07021	30565.3875
2721.67194	30610.1875
2724.27206	30542.8875
2726.87057	30581.5875
2729.46747	30641.1875
2732.06276	30604.4875
2734.65644	30626.0875
2737.24852	30617.8875
2739.83899	30612.4875
2742.42786	30644.5875
2745.01513	30615.9875
2747.60079	30548.9875
2750.18486	30566.5875
2752.76733	30512.2875
2755.3482	30529.8875
2757.92747	30509.0875
2760.50515	30473.8875
2763.08123	30442.9875
2765.65573	30450.0875
2768.22863	30456.8875
2770.79994	30406.4875
2773.36967	30431.7875
2775.9378	30412.5875
2778.50435	30418.3875
2781.06932	30429.6875
2783.6327	30432.4875
2786.1945	30409.6875
2788.75471	30347.1875
2791.31335	30295.8875
2793.87041	30277.9875
2796.42589	30213.4875
2798.97979	30183.7875
2801.53212	30068.1875
2804.08288	30045.6875
2806.63206	29981.8875
2809.17967	29937.3875
2811.72571	29863.7875
2814.27018	29813.1875
2816.81308	29699.3875
2819.35442	29639.9875
2821.89419	29635.8875
2824.43239	29593.4875
2826.96904	29621.9875
2829.50412	29613.2875
2832.03763	29519.5875
2834.56959	29496.0875
2837.1	29439.2875
2839.62884	29431.7875
2842.15613	29399.8875
2844.68186	29425.4875
2847.20604	29406.1875
2849.72867	29326.2875
2852.24974	29283.7875
2854.76927	29259.9875
2857.28724	29268.5875
2859.80367	29241.4875
2862.31855	29244.1875
2864.83189	29222.2875
2867.34368	29159.0875
2869.85393	29182.1875
2872.36264	29075.4875
2874.8698	29083.0875
2877.37543	29024.9875
2879.87952	29057.5875
2882.38207	29053.4875
2884.88308	29076.8875
2887.38256	29073.0875
2889.88051	29110.5875
2892.37692	29082.0875
2894.8718	29096.4875
2897.36515	29117.0875
2899.85698	29129.6875
2902.34727	29217.3875
2904.83604	29204.9875
2907.32328	29241.4875
2909.809	29260.3875
2912.29319	29283.1875
2914.77587	29272.7875
2917.25702	29296.5875
2919.73665	29273.9875
2922.21476	29262.3875
2924.69136	29232.8875
2927.16644	29222.8875
2929.64	29152.7875
2932.11205	29134.7875
2934.58258	29026.9875
2937.05161	29085.8875
2939.51912	29106.1875
2941.98513	29028.2875
2944.44962	29002.7875
2946.91261	28935.3875
2949.37409	28975.7875
2951.83407	28947.8875
2954.29254	28947.8875
2956.74951	28955.2875
2959.20498	28930.0875
2961.65895	28897.9875
2964.11142	28905.5875
2966.56239	28850.3875
2969.01186	28835.7875
2971.45984	28727.2875
2973.90632	28705.9875
2976.35131	28647.0875
2978.7948	28644.1875
2981.23681	28547.8875
2983.67732	28505.8875
2986.11635	28422.9875
2988.55388	28377.8875
2990.98993	28350.8875
2993.4245	28276.3875
2995.85758	28196.1875
2998.28917	28091.2875
3000.71928	28039.8875
3003.14791	27982.1875
3005.57506	27982.7875
3008.00073	27883.6875
3010.42493	27912.6875
3012.84764	27806.6875
3015.26888	27812.1875
3017.68865	27747.8875
3020.10694	27722.3875
3022.52376	27665.3875
3024.9391	27617.4875
3027.35298	27551.6875
3029.76539	27564.4875
3032.17632	27549.8875
3034.5858	27526.6875
3036.9938	27487.4875
3039.40034	27452.1875
3041.80542	27476.0875
3044.20903	27389.4875
3046.61118	27426.9875
3049.01187	27333.0875
3051.4111	27286.1875
3053.80888	27225.8875
3056.20519	27215.3875
3058.60005	27114.4875
3060.99345	27081.4875
3063.3854	26980.8875
3065.7759	26896.4875
3068.16494	26838.9875
3070.55254	26747.0875
3072.93868	26674.1875
3075.32338	26589.4875
3077.70662	26545.9875
3080.08842	26510.0875
3082.46878	26444.7875
3084.84769	26357.2875
3087.22515	26362.1875
3089.60118	26334.2875
3091.97576	26279.1875
3094.3489	26288.8875
3096.72061	26287.0875
3099.09087	26327.8875
3101.4597	26304.1875
3103.82709	26279.7875
3106.19305	26253.0875
3108.55757	26235.9875
3110.92066	26164.0875
3113.28232	26136.4875
3115.64255	26098.9875
3118.00134	25999.6875
3120.35871	25889.3875
3122.71466	25795.0875
3125.06917	25814.5875
3127.42226	25715.4875
3129.77393	25755.6875
3132.12417	25712.8875
3134.47299	25688.0875
3136.82039	25629.6875
3139.16636	25628.9875
3141.51092	25586.3875
3143.85406	25600.0875
3146.19579	25598.9875
3148.53609	25589.6875
3150.87499	25595.1875
3153.21246	25579.6875
3155.54853	25664.7875
3157.88318	25601.1875
3160.21642	25601.7875
3162.54826	25568.3875
3164.87868	25536.1875
3167.2077	25515.7875
3169.5353	25487.8875
3171.86151	25450.5875
3174.18631	25472.8875
3176.5097	25460.2875
3178.83169	25426.2875
3181.15228	25403.0875
3183.47147	25318.9875
3185.78926	25305.0875
3188.10565	25293.2875
3190.42065	25252.9875
3192.73424	25239.9875
3195.04645	25195.0875
3197.35725	25164.1875
3199.66667	25169.3875
3201.97469	25171.7875
3204.28132	25123.6875
3206.58656	25132.6875
3208.8904	25124.8875
3211.19287	25079.9875
3213.49394	25139.9875
3215.79363	25140.4875
3218.09193	25130.9875
3220.38884	25162.1875
3222.68438	25149.4875
3224.97853	25069.6875
3227.2713	25046.0875
3229.56269	25018.1875
3231.8527	25056.0875
3234.14133	25033.0875
3236.42858	24949.0875
3238.71446	24929.9875
3240.99896	24875.8875
3243.28209	24881.0875
3245.56384	24810.8875
3247.84423	24795.6875
3250.12324	24781.0875
3252.40088	24761.6875
3254.67715	24713.8875
3256.95205	24694.3875
3259.22558	24671.4875
3261.49775	24653.8875
3263.76855	24627.2875
3266.03799	24517.0875
3268.30606	24502.2875
3270.57277	24459.0875
3272.83812	24476.9875
3275.10211	24364.0875
3277.36474	24328.9875
3279.62601	24341.4875
3281.88593	24289.2875
3284.14448	24345.7875
3286.40168	24314.4875
3288.65753	24303.0875
3290.91202	24276.6875
3293.16516	24212.5875
3295.41695	24189.3875
3297.66738	24081.5875
3299.91647	23925.5875
3302.16421	23753.5875
3304.4106	23657.6875
3306.65564	23535.1875
3308.89933	23339.9875
3311.14169	23190.1875
3313.38269	23025.0875
3315.62236	22892.9875
3317.86068	22645.0875
3320.09766	22437.6875
3322.3333	22311.6875
3324.5676	22200.4875
3326.80056	21871.9875
3329.03219	21769.9875
3331.26248	6.3875
3333.49143	0.0875
3335.71905	-1.6125
