Data from AgNPs_FTO_APTES_UA_20uM_CRN_20uM_R6G_10uM_NaF_0.1M_Addition_RamanShift__18__15-11-02-259.txt Node

Date: Thu Feb 17 15:11:02 GMT 2022
User: TCL
Spectrometer: QEP01345
Trigger mode: 4
Integration Time (sec): 7.000000E0
Scans to average: 10
Electric dark correction enabled: true
Nonlinearity correction enabled: false
Boxcar width: 0
XAxis mode: Raman Shifts
Number of Pixels in Spectrum: 1044
>>>>>Begin Spectral Data<<<<<
46.04893	0.625
50.45542	-1.475
54.85868	-3.075
59.25871	-1.375
63.6555	98.625
68.04907	104.525
72.43941	109.525
76.82654	108.625
81.21044	114.225
85.59113	120.525
89.96862	122.325
94.34289	120.625
98.71396	126.825
103.08183	130.125
107.4465	135.225
111.80798	135.825
116.16626	145.225
120.52136	152.025
124.87327	154.325
129.222	162.125
133.56755	172.325
137.90993	187.425
142.24913	199.225
146.58517	231.825
150.91804	274.425
155.24774	321.225
159.57429	399.125
163.89768	519.525
168.21792	694.525
172.53501	953.725
176.84895	1341.425
181.15975	1888.825
185.46741	2672.025
189.77193	3715.525
194.07331	4993.225
198.37157	6462.025
202.6667	8021.825
206.9587	9546.125
211.24758	11046.625
215.53334	12564.025
219.81599	14050.525
224.09553	15729.525
228.37195	17604.425
232.64527	19677.825
236.91549	21910.725
241.18261	24265.225
245.44663	26514.325
249.70755	28614.625
253.96539	30471.225
258.22014	32011.225
262.4718	33284.425
266.72039	34134.425
270.96589	34638.325
275.20832	34692.125
279.44768	34472.725
283.68397	34051.125
287.91719	33721.625
292.14735	33355.025
296.37445	33125.825
300.59849	33066.525
304.81948	33071.925
309.03742	33027.125
313.25231	32840.125
317.46415	32537.425
321.67296	32182.025
325.87872	31911.125
330.08145	31768.325
334.28114	31911.725
338.47781	32197.925
342.67145	32586.925
346.86207	33000.225
351.04966	33524.125
355.23424	34143.725
359.4158	34681.925
363.59435	35162.525
367.76989	35536.025
371.94243	35910.525
376.11196	36185.425
380.27849	36473.725
384.44203	36703.725
388.60257	36922.125
392.76012	37189.425
396.91468	37509.625
401.06626	37879.225
405.21485	38210.125
409.36047	38251.325
413.50311	38046.325
417.64277	37771.525
421.77947	37661.525
425.9132	37734.225
430.04396	37846.525
434.17176	38120.725
438.2966	38407.325
442.41849	38861.725
446.53742	39478.025
450.6534	40169.025
454.76644	40684.525
458.87653	40989.925
462.98368	41006.925
467.08789	40762.925
471.18916	40443.725
475.2875	40135.025
479.38291	39837.325
483.4754	39656.725
487.56496	39439.025
491.6516	39320.325
495.73531	39261.625
499.81612	39282.025
503.89401	39413.225
507.96899	39574.825
512.04106	39660.025
516.11023	39670.625
520.1765	39783.125
524.23987	39804.625
528.30034	39741.625
532.35792	39646.725
536.41261	39432.725
540.46441	39291.125
544.51333	39318.425
548.55936	39452.525
552.60252	39814.025
556.64279	40074.625
560.6802	40229.525
564.71473	40239.625
568.7464	40407.625
572.7752	40644.725
576.80114	40854.325
580.82422	41089.725
584.84444	41409.625
588.86181	41640.525
592.87633	42038.125
596.888	42348.025
600.89682	42733.525
604.9028	43816.025
608.90594	46491.425
612.90624	49251.225
616.90371	47786.725
620.89834	43570.525
624.89015	41716.925
628.87913	41562.025
632.86528	41499.925
636.84862	41321.325
640.82913	41038.425
644.80683	40608.225
648.78172	40223.825
652.75379	40228.325
656.72306	40576.725
660.68952	41044.925
664.65319	41042.425
668.61405	40729.325
672.57211	40737.925
676.52738	40820.525
680.47986	40853.425
684.42955	40739.725
688.37646	40753.025
692.32058	40979.425
696.26192	41240.325
700.20048	41524.425
704.13626	41634.625
708.06928	41535.025
711.99952	41343.225
715.927	41299.925
719.85171	41339.325
723.77365	41344.425
727.69284	41210.525
731.60928	41110.725
735.52295	40981.425
739.43388	40992.525
743.34206	41056.425
747.24749	41202.725
751.15017	41314.025
755.05012	41528.125
758.94733	41986.125
762.8418	42857.025
766.73354	44342.025
770.62254	46020.625
774.50882	46812.025
778.39237	46032.325
782.27321	44303.525
786.15132	42757.425
790.02671	41801.325
793.89938	41382.925
797.76935	41215.225
801.6366	41158.525
805.50115	41083.625
809.36299	40982.925
813.22213	40886.725
817.07857	40809.025
820.93231	40826.525
824.78336	40873.625
828.63172	40919.425
832.47738	40951.925
836.32036	41118.725
840.16066	41217.625
843.99827	41424.725
847.8332	41397.925
851.66546	41324.825
855.49504	41331.625
859.32195	41390.625
863.1462	41471.825
866.96777	41344.625
870.78668	41344.725
874.60293	41372.325
878.41652	41370.325
882.22745	41510.625
886.03573	41579.125
889.84136	41513.625
893.64433	41348.925
897.44466	41217.725
901.24235	41145.225
905.0374	41068.725
908.8298	41073.425
912.61957	41115.825
916.40671	41171.425
920.19121	41440.225
923.97308	41633.825
927.75233	41781.325
931.52895	41733.825
935.30295	41606.525
939.07433	41314.825
942.84309	41049.925
946.60924	40990.925
950.37278	40899.225
954.13371	40834.325
957.89203	40598.025
961.64774	40580.325
965.40086	40424.625
969.15137	40366.925
972.89929	40362.225
976.64461	40374.625
980.38733	40428.225
984.12747	40612.025
987.86502	40899.725
991.59999	41268.325
995.33237	41751.025
999.06217	42497.925
1002.78939	43129.025
1006.51404	43444.125
1010.23611	43552.825
1013.95561	43721.925
1017.67255	43739.425
1021.38692	43662.225
1025.09872	43606.725
1028.80796	43944.125
1032.51465	44747.525
1036.21877	45417.825
1039.92035	45513.925
1043.61937	45043.025
1047.31584	44264.125
1051.00976	43614.225
1054.70114	43314.725
1058.38998	43120.925
1062.07627	43223.625
1065.76003	43275.625
1069.44126	43323.025
1073.11995	43566.525
1076.79611	43841.425
1080.46974	44054.225
1084.14085	44308.225
1087.80943	44518.025
1091.47549	44643.825
1095.13903	44506.125
1098.80005	44244.425
1102.45857	43897.325
1106.11456	43810.625
1109.76805	43899.325
1113.41903	44043.325
1117.06751	44230.325
1120.71348	44457.925
1124.35696	44549.725
1127.99793	44712.125
1131.63641	44756.625
1135.2724	44491.625
1138.90589	44213.625
1142.5369	43997.425
1146.16542	43780.125
1149.79145	43681.525
1153.415	43642.325
1157.03607	43728.325
1160.65467	44083.625
1164.27079	44768.825
1167.88443	45712.425
1171.49561	46956.225
1175.10432	48680.225
1178.71056	50884.425
1182.31434	53082.425
1185.91565	54231.025
1189.51451	54122.425
1193.11091	52974.625
1196.70485	51545.325
1200.29634	50176.425
1203.88538	49288.025
1207.47197	48642.525
1211.05612	47841.825
1214.63782	47382.225
1218.21708	47176.825
1221.79391	47239.225
1225.36829	47471.225
1228.94024	47335.925
1232.50976	46774.125
1236.07685	46296.325
1239.6415	46130.425
1243.20374	46204.325
1246.76355	46511.825
1250.32093	46878.625
1253.8759	47401.125
1257.42845	48138.225
1260.97859	48716.625
1264.52631	49275.125
1268.07163	49912.825
1271.61453	50706.125
1275.15503	51515.325
1278.69312	52318.525
1282.22882	52875.625
1285.76211	53295.325
1289.29301	53498.325
1292.82151	53800.725
1296.34761	54610.225
1299.87133	55908.125
1303.39266	57883.725
1306.9116	60309.225
1310.42815	62910.825
1313.94233	64524.925
1317.45412	64400.425
1320.96354	63063.325
1324.47058	61471.925
1327.97525	59807.725
1331.47754	58646.025
1334.97747	58059.425
1338.47502	58090.125
1341.97022	58489.425
1345.46305	58916.125
1348.95352	59254.125
1352.44163	59759.725
1355.92738	60940.725
1359.41078	63137.325
1362.89183	65007.325
1366.37053	64118.125
1369.84688	60309.325
1373.32088	55952.925
1376.79254	52951.525
1380.26186	51376.325
1383.72883	50656.325
1387.19347	50181.625
1390.65578	49517.525
1394.11575	48882.225
1397.57339	48682.225
1401.0287	48915.925
1404.48168	49173.325
1407.93234	49408.625
1411.38068	49471.525
1414.82669	49309.325
1418.27039	48919.525
1421.71177	48364.925
1425.15083	47851.425
1428.58758	47494.925
1432.02203	47540.525
1435.45416	47816.025
1438.88399	48244.025
1442.31151	48516.925
1445.73673	48744.825
1449.15965	48889.525
1452.58027	48959.825
1455.9986	48818.425
1459.41463	48898.625
1462.82837	49351.925
1466.23982	49951.125
1469.64898	50757.025
1473.05586	51443.125
1476.46045	51783.625
1479.86276	51889.125
1483.26279	51882.825
1486.66054	51808.225
1490.05602	51937.225
1493.44922	52259.325
1496.84016	52784.425
1500.22882	53616.925
1503.61521	54950.525
1506.99934	56559.325
1510.38121	57816.125
1513.76081	57984.825
1517.13816	56815.425
1520.51324	54960.425
1523.88607	53284.925
1527.25665	52156.625
1530.62498	51623.025
1533.99105	51285.525
1537.35488	51159.925
1540.71647	51053.925
1544.07581	50930.525
1547.4329	50741.025
1550.78776	50547.425
1554.14038	50341.325
1557.49077	50134.525
1560.83892	50023.925
1564.18484	50017.325
1567.52853	50073.425
1570.86999	50302.925
1574.20922	50501.225
1577.54624	50449.325
1580.88103	50051.125
1584.2136	49718.325
1587.54395	49937.025
1590.87208	51036.925
1594.19801	52933.825
1597.52172	55250.025
1600.84321	56348.825
1604.16251	55467.125
1607.47959	53422.025
1610.79447	51276.925
1614.10715	49096.725
1617.41763	47326.825
1620.7259	45992.025
1624.03199	45230.825
1627.33587	45221.525
1630.63757	45586.925
1633.93707	46657.225
1637.23439	48337.225
1640.52951	50619.925
1643.82246	53063.925
1647.11321	55020.225
1650.40179	55450.625
1653.68819	53633.825
1656.97241	50311.925
1660.25446	46975.125
1663.53433	44475.125
1666.81203	42942.925
1670.08756	41989.225
1673.36092	41331.925
1676.63211	40870.225
1679.90115	40505.125
1683.16801	40199.525
1686.43272	39963.425
1689.69527	39812.925
1692.95567	39670.725
1696.2139	39660.325
1699.46999	39643.725
1702.72392	39591.825
1705.97571	39567.325
1709.22535	39502.325
1712.47284	39550.725
1715.71819	39577.225
1718.96139	39542.025
1722.20246	39435.525
1725.44139	39336.725
1728.67818	39205.525
1731.91284	39077.725
1735.14537	38994.525
1738.37576	38917.125
1741.60403	38859.225
1744.83017	38792.125
1748.05418	38733.025
1751.27607	38630.825
1754.49584	38670.225
1757.71349	38712.625
1760.92903	38698.425
1764.14244	38625.525
1767.35375	38573.225
1770.56294	38501.825
1773.77002	38483.325
1776.97499	38462.425
1780.17785	38412.425
1783.37861	38397.525
1786.57727	38398.425
1789.77382	38336.925
1792.96828	38315.525
1796.16064	38256.725
1799.3509	38170.625
1802.53907	38172.325
1805.72514	38033.425
1808.90913	38005.025
1812.09102	37971.125
1815.27083	37916.425
1818.44856	37893.925
1821.6242	37849.925
1824.79776	37814.225
1827.96924	37782.725
1831.13864	37743.325
1834.30597	37731.125
1837.47122	37700.725
1840.6344	37648.125
1843.7955	37648.125
1846.95454	37638.925
1850.11151	37623.425
1853.26642	37616.425
1856.41926	37586.925
1859.57004	37568.625
1862.71876	37541.425
1865.86542	37513.225
1869.01003	37493.225
1872.15258	37456.425
1875.29308	37433.125
1878.43152	37431.625
1881.56792	37399.825
1884.70227	37305.725
1887.83457	37269.625
1890.96482	37279.725
1894.09304	37318.025
1897.21921	37242.525
1900.34335	37248.225
1903.46544	37122.425
1906.58551	37116.325
1909.70353	37068.625
1912.81953	37126.425
1915.93349	37051.425
1919.04543	36924.325
1922.15534	36920.325
1925.26322	36861.325
1928.36908	36799.125
1931.47292	36794.225
1934.57473	36788.725
1937.67453	36696.525
1940.77232	36673.025
1943.86808	36508.025
1946.96184	36482.625
1950.05358	36395.525
1953.14331	36314.425
1956.23103	36234.325
1959.31675	36122.325
1962.40046	36042.225
1965.48217	35928.025
1968.56188	35826.425
1971.63959	35744.025
1974.7153	35637.025
1977.78901	35535.725
1980.86073	35459.325
1983.93046	35433.625
1986.99819	35267.425
1990.06394	35223.025
1993.1277	35151.225
1996.18947	35038.325
1999.24925	34950.625
2002.30706	34859.025
2005.36288	34743.925
2008.41672	34645.225
2011.46859	34563.525
2014.51848	34510.625
2017.56639	34400.725
2020.61233	34313.125
2023.6563	34236.625
2026.6983	34195.925
2029.73833	34138.525
2032.7764	34088.125
2035.8125	34046.125
2038.84664	33939.525
2041.87881	33855.825
2044.90903	33885.125
2047.93729	33837.125
2050.96359	33814.025
2053.98794	33797.425
2057.01034	33810.925
2060.03078	33751.725
2063.04927	33769.725
2066.06582	33711.325
2069.08042	33702.025
2072.09307	33690.525
2075.10378	33598.125
2078.11255	33593.225
2081.11938	33631.225
2084.12426	33660.425
2087.12722	33638.625
2090.12824	33559.925
2093.12732	33566.925
2096.12447	33605.925
2099.11969	33614.625
2102.11299	33659.225
2105.10435	33687.525
2108.09379	33749.625
2111.08131	33734.425
2114.0669	33693.925
2117.05057	33799.725
2120.03233	33874.825
2123.01216	33907.525
2125.99008	33912.725
2128.96609	33906.325
2131.94018	33950.925
2134.91236	33994.125
2137.88263	34016.225
2140.851	33995.325
2143.81746	34104.225
2146.78201	34102.925
2149.74466	34174.725
2152.7054	34176.925
2155.66425	34148.225
2158.6212	34161.325
2161.57625	34108.325
2164.52941	34112.125
2167.48067	34082.725
2170.43004	34066.225
2173.37752	34111.025
2176.32311	34198.725
2179.26681	34171.625
2182.20863	34183.325
2185.14856	34209.925
2188.08661	34148.025
2191.02278	34177.025
2193.95707	34161.125
2196.88948	34131.625
2199.82001	34095.425
2202.74867	34135.525
2205.67545	34118.125
2208.60037	34084.625
2211.52341	34030.525
2214.44458	34007.625
2217.36388	34015.325
2220.28132	33892.525
2223.1969	33848.125
2226.11061	33874.125
2229.02246	33764.025
2231.93245	33707.425
2234.84058	33613.925
2237.74686	33564.425
2240.65128	33526.025
2243.55385	33504.525
2246.45456	33512.125
2249.35343	33467.325
2252.25044	33438.525
2255.14561	33404.525
2258.03893	33343.525
2260.93041	33380.025
2263.82004	33271.425
2266.70783	33228.025
2269.59378	33148.625
2272.4779	33066.625
2275.36017	32977.425
2278.24061	32919.025
2281.11922	32863.525
2283.996	32798.725
2286.87094	32817.825
2289.74405	32765.525
2292.61534	32771.025
2295.4848	32760.725
2298.35243	32786.525
2301.21824	32731.325
2304.08223	32731.525
2306.94439	32734.725
2309.80474	32747.125
2312.66327	32720.025
2315.51999	32658.625
2318.37489	32697.525
2321.22797	32742.025
2324.07925	32636.625
2326.92871	32577.725
2329.77637	32561.025
2332.62222	32520.725
2335.46626	32496.725
2338.3085	32494.825
2341.14893	32477.425
2343.98756	32496.625
2346.8244	32458.125
2349.65943	32444.325
2352.49267	32431.625
2355.32411	32417.825
2358.15376	32437.925
2360.98161	32415.425
2363.80768	32320.825
2366.63195	32277.825
2369.45444	32290.925
2372.27514	32217.725
2375.09405	32152.025
2377.91118	32055.825
2380.72652	31994.725
2383.54009	31986.925
2386.35187	31964.125
2389.16188	31887.325
2391.97011	31835.025
2394.77657	31808.125
2397.58125	31762.025
2400.38416	31720.325
2403.18529	31659.425
2405.98466	31607.525
2408.78226	31561.625
2411.57809	31507.225
2414.37216	31430.025
2417.16446	31429.725
2419.955	31404.025
2422.74378	31409.325
2425.5308	31384.125
2428.31606	31336.725
2431.09956	31325.525
2433.88131	31297.025
2436.6613	31325.425
2439.43954	31367.625
2442.21603	31295.025
2444.99077	31257.625
2447.76377	31243.625
2450.53501	31236.825
2453.30451	31206.925
2456.07226	31150.425
2458.83827	31162.925
2461.60254	31089.325
2464.36507	31054.825
2467.12586	31037.125
2469.88492	31046.225
2472.64224	31049.625
2475.39782	31032.125
2478.15167	31086.625
2480.90379	31069.925
2483.65417	31076.625
2486.40283	31045.125
2489.14976	31052.625
2491.89497	31054.525
2494.63845	31105.825
2497.3802	31054.525
2500.12024	31038.625
2502.85855	30952.325
2505.59514	30958.025
2508.33002	30919.125
2511.06318	30884.125
2513.79462	30810.725
2516.52435	30785.925
2519.25237	30785.525
2521.97867	30744.625
2524.70327	30718.025
2527.42616	30697.725
2530.14734	30659.325
2532.86681	30680.725
2535.58458	30665.625
2538.30065	30650.625
2541.01501	30598.325
2543.72768	30581.925
2546.43864	30523.625
2549.14791	30496.725
2551.85548	30468.425
2554.56136	30395.625
2557.26554	30338.025
2559.96803	30309.525
2562.66883	30267.025
2565.36794	30230.725
2568.06536	30239.925
2570.7611	30147.325
2573.45514	30133.425
2576.14751	30089.025
2578.83819	30076.425
2581.52719	30037.325
2584.21451	30009.925
2586.90015	29971.325
2589.58411	29893.025
2592.2664	29878.525
2594.94701	29850.025
2597.62594	29832.825
2600.30321	29808.325
2602.9788	29763.025
2605.65273	29718.625
2608.32498	29688.925
2610.99557	29679.825
2613.66449	29670.625
2616.33175	29659.325
2618.99734	29681.225
2621.66128	29597.925
2624.32355	29625.725
2626.98416	29591.125
2629.64311	29545.725
2632.30041	29530.725
2634.95605	29495.725
2637.61004	29514.125
2640.26238	29475.925
2642.91306	29453.625
2645.56209	29376.225
2648.20948	29374.725
2650.85521	29358.025
2653.4993	29363.525
2656.14175	29371.125
2658.78255	29353.125
2661.42171	29387.125
2664.05923	29393.225
2666.6951	29401.425
2669.32934	29386.225
2671.96194	29322.725
2674.59291	29343.425
2677.22224	29315.725
2679.84993	29357.525
2682.476	29324.525
2685.10043	29372.925
2687.72324	29285.525
2690.34441	29297.425
2692.96396	29234.425
2695.58188	29248.225
2698.19818	29197.125
2700.81285	29219.925
2703.4259	29228.825
2706.03733	29265.925
2708.64714	29235.025
2711.25533	29200.925
2713.86191	29237.425
2716.46687	29294.625
2719.07021	29298.925
2721.67194	29334.125
2724.27206	29322.925
2726.87057	29370.125
2729.46747	29375.425
2732.06276	29342.425
2734.65644	29320.725
2737.24852	29256.325
2739.83899	29210.925
2742.42786	29269.325
2745.01513	29228.325
2747.60079	29211.425
2750.18486	29145.325
2752.76733	29065.525
2755.3482	29084.125
2757.92747	29069.525
2760.50515	29023.225
2763.08123	29033.025
2765.65573	28995.325
2768.22863	28967.625
2770.79994	28887.625
2773.36967	28894.425
2775.9378	28908.825
2778.50435	28905.025
2781.06932	28860.025
2783.6327	28860.125
2786.1945	28765.425
2788.75471	28761.925
2791.31335	28700.825
2793.87041	28667.525
2796.42589	28582.625
2798.97979	28551.925
2801.53212	28475.125
2804.08288	28423.125
2806.63206	28347.125
2809.17967	28258.025
2811.72571	28199.025
2814.27018	28164.825
2816.81308	28109.825
2819.35442	28070.725
2821.89419	28060.725
2824.43239	28076.925
2826.96904	28040.125
2829.50412	27997.925
2832.03763	27953.525
2834.56959	27912.025
2837.1	27834.425
2839.62884	27886.325
2842.15613	27805.225
2844.68186	27860.725
2847.20604	27787.025
2849.72867	27719.925
2852.24974	27712.225
2854.76927	27688.325
2857.28724	27682.325
2859.80367	27624.125
2862.31855	27587.325
2864.83189	27589.025
2867.34368	27564.225
2869.85393	27564.625
2872.36264	27532.125
2874.8698	27514.425
2877.37543	27483.325
2879.87952	27443.225
2882.38207	27435.825
2884.88308	27437.325
2887.38256	27475.525
2889.88051	27430.325
2892.37692	27480.925
2894.8718	27459.125
2897.36515	27500.525
2899.85698	27473.225
2902.34727	27483.825
2904.83604	27537.825
2907.32328	27623.325
2909.809	27584.125
2912.29319	27654.025
2914.77587	27634.125
2917.25702	27634.225
2919.73665	27586.425
2922.21476	27604.525
2924.69136	27567.725
2927.16644	27557.425
2929.64	27526.025
2932.11205	27476.925
2934.58258	27415.925
2937.05161	27435.125
2939.51912	27416.225
2941.98513	27432.725
2944.44962	27445.425
2946.91261	27382.725
2949.37409	27424.525
2951.83407	27387.325
2954.29254	27413.925
2956.74951	27414.925
2959.20498	27443.925
2961.65895	27384.525
2964.11142	27380.225
2966.56239	27366.525
2969.01186	27391.325
2971.45984	27278.625
2973.90632	27300.525
2976.35131	27248.125
2978.7948	27229.425
2981.23681	27181.725
2983.67732	27193.625
2986.11635	27098.325
2988.55388	27060.025
2990.98993	27049.025
2993.4245	26941.325
2995.85758	26902.925
2998.28917	26841.125
3000.71928	26793.725
3003.14791	26742.925
3005.57506	26751.525
3008.00073	26630.025
3010.42493	26626.525
3012.84764	26603.725
3015.26888	26645.025
3017.68865	26577.725
3020.10694	26536.225
3022.52376	26532.525
3024.9391	26518.225
3027.35298	26451.925
3029.76539	26439.025
3032.17632	26425.025
3034.5858	26343.225
3036.9938	26394.925
3039.40034	26342.025
3041.80542	26376.025
3044.20903	26324.925
3046.61118	26284.825
3049.01187	26218.125
3051.4111	26155.525
3053.80888	26139.225
3056.20519	26085.925
3058.60005	26047.325
3060.99345	26043.825
3063.3854	26003.725
3065.7759	25899.325
3068.16494	25836.425
3070.55254	25785.525
3072.93868	25748.725
3075.32338	25707.625
3077.70662	25660.325
3080.08842	25589.025
3082.46878	25576.625
3084.84769	25555.525
3087.22515	25567.725
3089.60118	25580.625
3091.97576	25585.525
3094.3489	25523.525
3096.72061	25561.925
3099.09087	25611.325
3101.4597	25581.625
3103.82709	25580.225
3106.19305	25547.525
3108.55757	25552.225
3110.92066	25488.025
3113.28232	25466.225
3115.64255	25391.325
3118.00134	25373.625
3120.35871	25350.425
3122.71466	25293.825
3125.06917	25217.825
3127.42226	25200.825
3129.77393	25180.825
3132.12417	25112.725
3134.47299	25100.325
3136.82039	25105.225
3139.16636	25130.425
3141.51092	25056.725
3143.85406	25048.725
3146.19579	25094.625
3148.53609	25058.525
3150.87499	25090.225
3153.21246	25102.025
3155.54853	25188.725
3157.88318	25165.025
3160.21642	25172.125
3162.54826	25161.125
3164.87868	25156.825
3167.2077	25163.725
3169.5353	25208.825
3171.86151	25176.925
3174.18631	25138.425
3176.5097	25106.225
3178.83169	25031.325
3181.15228	25044.725
3183.47147	24994.325
3185.78926	24966.925
3188.10565	24978.325
3190.42065	24954.525
3192.73424	24921.625
3195.04645	24878.625
3197.35725	24887.225
3199.66667	24889.825
3201.97469	24942.225
3204.28132	24881.825
3206.58656	24907.125
3208.8904	24916.525
3211.19287	24959.125
3213.49394	24943.825
3215.79363	24926.725
3218.09193	25002.725
3220.38884	25019.025
3222.68438	25033.025
3224.97853	24969.325
3227.2713	24981.525
3229.56269	24946.825
3231.8527	24963.725
3234.14133	24891.625
3236.42858	24813.825
3238.71446	24840.725
3240.99896	24777.625
3243.28209	24696.525
3245.56384	24706.325
3247.84423	24715.425
3250.12324	24677.225
3252.40088	24590.925
3254.67715	24618.225
3256.95205	24599.825
3259.22558	24639.025
3261.49775	24581.125
3263.76855	24585.825
3266.03799	24530.325
3268.30606	24528.025
3270.57277	24500.325
3272.83812	24444.825
3275.10211	24383.025
3277.36474	24343.525
3279.62601	24357.425
3281.88593	24284.325
3284.14448	24365.425
3286.40168	24368.025
3288.65753	24343.025
3290.91202	24324.625
3293.16516	24284.825
3295.41695	24239.725
3297.66738	24109.225
3299.91647	23959.325
3302.16421	23822.825
3304.4106	23726.125
3306.65564	23597.625
3308.89933	23431.325
3311.14169	23267.225
3313.38269	23100.625
3315.62236	22938.125
3317.86068	22787.225
3320.09766	22653.425
3322.3333	22521.025
3324.5676	22401.025
3326.80056	22116.225
3329.03219	21961.825
3331.26248	6.625
3333.49143	0.525
3335.71905	0.025
