Data from AgNPs_FTO_APTES_UA_20uM_CRN_100uM_R6G_10uM_NaF_0.1M_Addition_RamanShift__14__17-34-54-881.txt Node

Date: Thu Feb 17 17:34:54 GMT 2022
User: TCL
Spectrometer: QEP01345
Trigger mode: 4
Integration Time (sec): 1.000000E1
Scans to average: 7
Electric dark correction enabled: true
Nonlinearity correction enabled: false
Boxcar width: 0
XAxis mode: Raman Shifts
Number of Pixels in Spectrum: 1044
>>>>>Begin Spectral Data<<<<<
46.04893	0.64286
50.45542	-0.92857
54.85868	-0.21429
59.25871	-2.21429
63.6555	73.07143
68.04907	70.64286
72.43941	81.35714
76.82654	84.64286
81.21044	87.07143
85.59113	88.92857
89.96862	94.5
94.34289	93.21429
98.71396	97.92857
103.08183	102.35714
107.4465	104.21429
111.80798	99.07143
116.16626	106.35714
120.52136	109.78571
124.87327	114.21429
129.222	119.64286
133.56755	115.64286
137.90993	133.5
142.24913	146.64286
146.58517	151.92857
150.91804	178.5
155.24774	214.21429
159.57429	256.07143
163.89768	329.35714
168.21792	428.64286
172.53501	582.64286
176.84895	812.07143
181.15975	1144.35714
185.46741	1616.78571
189.77193	2250.5
194.07331	3044.92857
198.37157	3925.35714
202.6667	4886.64286
206.9587	5821.64286
211.24758	6744.21429
215.53334	7668.07143
219.81599	8591.92857
224.09553	9628.92857
228.37195	10779.35714
232.64527	12073.21429
236.91549	13419.64286
241.18261	14829.35714
245.44663	16169.35714
249.70755	17398.5
253.96539	18419.07143
258.22014	19304.35714
262.4718	20007.92857
266.72039	20515.78571
270.96589	20723.35714
275.20832	20713.07143
279.44768	20532.21429
283.68397	20273.92857
287.91719	19978.35714
292.14735	19766.78571
296.37445	19623.78571
300.59849	19632.5
304.81948	19708.92857
309.03742	19708.21429
313.25231	19612.78571
317.46415	19351.07143
321.67296	19115.92857
325.87872	18859.35714
330.08145	18796.92857
334.28114	18875.07143
338.47781	19030.78571
342.67145	19309.21429
346.86207	19588.64286
351.04966	19955.5
355.23424	20369.21429
359.4158	20742.92857
363.59435	21090.07143
367.76989	21313.78571
371.94243	21524.5
376.11196	21669.64286
380.27849	21803.21429
384.44203	21931.21429
388.60257	22030.35714
392.76012	22120.35714
396.91468	22277.92857
401.06626	22524.35714
405.21485	22743.5
409.36047	22722.35714
413.50311	22505.78571
417.64277	22276.5
421.77947	22139.64286
425.9132	22233.64286
430.04396	22296.78571
434.17176	22434.21429
438.2966	22640.5
442.41849	22895.21429
446.53742	23313.78571
450.6534	23737.64286
454.76644	24089.07143
458.87653	24198.92857
462.98368	24217.5
467.08789	24051.5
471.18916	23873.78571
475.2875	23666.64286
479.38291	23473.64286
483.4754	23332.07143
487.56496	23200.92857
491.6516	23181.78571
495.73531	23163.07143
499.81612	23177.21429
503.89401	23302.21429
507.96899	23393.5
512.04106	23508.07143
516.11023	23570.5
520.1765	23636.35714
524.23987	23631.78571
528.30034	23612.78571
532.35792	23546.64286
536.41261	23486.35714
540.46441	23415.5
544.51333	23330.92857
548.55936	23351.07143
552.60252	23511.21429
556.64279	23712.64286
560.6802	23750.35714
564.71473	23777.78571
568.7464	23795.35714
572.7752	23980.64286
576.80114	23970.64286
580.82422	23973.07143
584.84444	24175.21429
588.86181	24384.92857
592.87633	24766.21429
596.888	25037.78571
600.89682	25163.35714
604.9028	25735.64286
608.90594	27534.92857
612.90624	29699.5
616.90371	28969.64286
620.89834	25852.35714
624.89015	24381.92857
628.87913	24242.21429
632.86528	24309.35714
636.84862	24242.21429
640.82913	24166.78571
644.80683	23816.07143
648.78172	23604.5
652.75379	23569.35714
656.72306	23806.35714
660.68952	24050.07143
664.65319	24051.78571
668.61405	23872.78571
672.57211	23927.92857
676.52738	24031.78571
680.47986	24137.78571
684.42955	24104.78571
688.37646	23972.21429
692.32058	23988.78571
696.26192	24005.92857
700.20048	24113.21429
704.13626	24191.5
708.06928	24112.21429
711.99952	23965.92857
715.927	23922.21429
719.85171	23897.21429
723.77365	23945.92857
727.69284	23895.92857
731.60928	23830.35714
735.52295	23853.78571
739.43388	23846.64286
743.34206	23900.5
747.24749	23942.64286
751.15017	23862.35714
755.05012	23971.35714
758.94733	24221.5
762.8418	24758.35714
766.73354	25834.07143
770.62254	27064.78571
774.50882	27794.5
778.39237	27395.78571
782.27321	26129.64286
786.15132	24943.64286
790.02671	24188.5
793.89938	23880.64286
797.76935	23740.35714
801.6366	23675.64286
805.50115	23648.35714
809.36299	23611.21429
813.22213	23480.07143
817.07857	23433.78571
820.93231	23404.35714
824.78336	23392.07143
828.63172	23434.35714
832.47738	23451.07143
836.32036	23465.35714
840.16066	23507.07143
843.99827	23626.21429
847.8332	23601.78571
851.66546	23560.64286
855.49504	23538.07143
859.32195	23640.21429
863.1462	23650.92857
866.96777	23630.78571
870.78668	23681.78571
874.60293	23678.07143
878.41652	23741.07143
882.22745	23731.78571
886.03573	23767.64286
889.84136	23763.21429
893.64433	23669.35714
897.44466	23574.07143
901.24235	23502.21429
905.0374	23421.21429
908.8298	23345.5
912.61957	23292.78571
916.40671	23371.64286
920.19121	23466.21429
923.97308	23584.5
927.75233	23703.92857
931.52895	23754.07143
935.30295	23719.64286
939.07433	23471.21429
942.84309	23290.92857
946.60924	23221.07143
950.37278	23138.07143
954.13371	23026.21429
957.89203	22928.07143
961.64774	22892.78571
965.40086	22819.78571
969.15137	22743.07143
972.89929	22695.5
976.64461	22683.5
980.38733	22768.5
984.12747	22807.92857
987.86502	22950.64286
991.59999	23172.35714
995.33237	23388.21429
999.06217	23772.21429
1002.78939	24152.07143
1006.51404	24346.07143
1010.23611	24402.92857
1013.95561	24479.21429
1017.67255	24582.07143
1021.38692	24488.07143
1025.09872	24363.5
1028.80796	24485.5
1032.51465	24918.35714
1036.21877	25339.78571
1039.92035	25402.5
1043.61937	25172.21429
1047.31584	24780.92857
1051.00976	24464.35714
1054.70114	24255.35714
1058.38998	24193.21429
1062.07627	24202.92857
1065.76003	24139.5
1069.44126	24125.78571
1073.11995	24217.92857
1076.79611	24372.5
1080.46974	24521.07143
1084.14085	24665.35714
1087.80943	24764.5
1091.47549	24798.21429
1095.13903	24728.07143
1098.80005	24535.78571
1102.45857	24381.35714
1106.11456	24303.5
1109.76805	24362.07143
1113.41903	24449.21429
1117.06751	24592.35714
1120.71348	24741.5
1124.35696	24958.07143
1127.99793	25147.78571
1131.63641	25235.21429
1135.2724	25072.64286
1138.90589	24835.21429
1142.5369	24610.21429
1146.16542	24434.07143
1149.79145	24299.78571
1153.415	24250.64286
1157.03607	24266.64286
1160.65467	24446.64286
1164.27079	24889.64286
1167.88443	25460.64286
1171.49561	26251.07143
1175.10432	27312.21429
1178.71056	28684.92857
1182.31434	30069.35714
1185.91565	30795.21429
1189.51451	30716.35714
1193.11091	29884.35714
1196.70485	28888.5
1200.29634	28057.92857
1203.88538	27463.35714
1207.47197	26802.5
1211.05612	26348.07143
1214.63782	26041.35714
1218.21708	25921.92857
1221.79391	25976.78571
1225.36829	26121.64286
1228.94024	26101.78571
1232.50976	25792.5
1236.07685	25540.92857
1239.6415	25414.21429
1243.20374	25451.35714
1246.76355	25615.92857
1250.32093	25867.64286
1253.8759	26140.35714
1257.42845	26484.64286
1260.97859	26856.64286
1264.52631	27145.35714
1268.07163	27575.35714
1271.61453	28009.78571
1275.15503	28490.92857
1278.69312	28972.21429
1282.22882	29298.92857
1285.76211	29561.78571
1289.29301	29699.21429
1292.82151	30044.5
1296.34761	30525.07143
1299.87133	31397.64286
1303.39266	32634.92857
1306.9116	34244.64286
1310.42815	35945.92857
1313.94233	37051.5
1317.45412	36720.92857
1320.96354	35543.35714
1324.47058	34191.07143
1327.97525	32973.92857
1331.47754	32157.5
1334.97747	31663.64286
1338.47502	31574.5
1341.97022	31771.5
1345.46305	32164.78571
1348.95352	32717.07143
1352.44163	33658.35714
1355.92738	35000.64286
1359.41078	36733.21429
1362.89183	38183.92857
1366.37053	37553.5
1369.84688	34817.5
1373.32088	31726.92857
1376.79254	29619.35714
1380.26186	28516.5
1383.72883	28091.5
1387.19347	27615.35714
1390.65578	27159.78571
1394.11575	26799.21429
1397.57339	26643.07143
1401.0287	26810.78571
1404.48168	26875.92857
1407.93234	26961.35714
1411.38068	27008.35714
1414.82669	26952.92857
1418.27039	26832.07143
1421.71177	26538.35714
1425.15083	26298.78571
1428.58758	26046.92857
1432.02203	26092.35714
1435.45416	26250.21429
1438.88399	26509.35714
1442.31151	26649.07143
1445.73673	26771.92857
1449.15965	26887.21429
1452.58027	26826.35714
1455.9986	26767.21429
1459.41463	26795.92857
1462.82837	26974.07143
1466.23982	27339.35714
1469.64898	27714.07143
1473.05586	28065.07143
1476.46045	28224.5
1479.86276	28377.07143
1483.26279	28338.21429
1486.66054	28378.92857
1490.05602	28578.78571
1493.44922	28746.07143
1496.84016	29145.35714
1500.22882	29732.78571
1503.61521	30720.78571
1506.99934	31960.78571
1510.38121	32886.07143
1513.76081	33109.64286
1517.13816	32352.78571
1520.51324	30930.92857
1523.88607	29553.64286
1527.25665	28639.35714
1530.62498	28211.07143
1533.99105	27887.07143
1537.35488	27775.64286
1540.71647	27682.21429
1544.07581	27562.35714
1547.4329	27540.21429
1550.78776	27427.92857
1554.14038	27332.35714
1557.49077	27292.21429
1560.83892	27329.35714
1564.18484	27432.07143
1567.52853	27567.92857
1570.86999	27693.5
1574.20922	27797.92857
1577.54624	27865.07143
1580.88103	27556.35714
1584.2136	27175.5
1587.54395	27142.64286
1590.87208	27607.64286
1594.19801	28575.07143
1597.52172	29903.07143
1600.84321	30619.07143
1604.16251	30240.21429
1607.47959	29092.92857
1610.79447	27763.64286
1614.10715	26594.5
1617.41763	25567.35714
1620.7259	24891.21429
1624.03199	24498.78571
1627.33587	24415.78571
1630.63757	24718.35714
1633.93707	25299.5
1637.23439	26204.35714
1640.52951	27428.21429
1643.82246	29046.92857
1647.11321	30440.5
1650.40179	30932.5
1653.68819	29894.64286
1656.97241	27897.07143
1660.25446	25776.78571
1663.53433	24322.78571
1666.81203	23383.64286
1670.08756	22823.92857
1673.36092	22464.35714
1676.63211	22243.21429
1679.90115	22001.07143
1683.16801	21842.21429
1686.43272	21755.92857
1689.69527	21647.21429
1692.95567	21551.35714
1696.2139	21500.07143
1699.46999	21474.5
1702.72392	21469.5
1705.97571	21416.35714
1709.22535	21421.64286
1712.47284	21356.21429
1715.71819	21372.92857
1718.96139	21371.07143
1722.20246	21296.92857
1725.44139	21229.5
1728.67818	21184.5
1731.91284	21121.07143
1735.14537	21094.64286
1738.37576	21010.21429
1741.60403	20957.21429
1744.83017	20942.64286
1748.05418	20917.21429
1751.27607	20945.78571
1754.49584	20886.92857
1757.71349	20929.35714
1760.92903	20926.21429
1764.14244	20887.07143
1767.35375	20858.35714
1770.56294	20783.35714
1773.77002	20773.21429
1776.97499	20710.21429
1780.17785	20718.35714
1783.37861	20705.64286
1786.57727	20640.5
1789.77382	20564.35714
1792.96828	20572.35714
1796.16064	20530.35714
1799.3509	20476.5
1802.53907	20457.78571
1805.72514	20475.78571
1808.90913	20419.21429
1812.09102	20346.78571
1815.27083	20304.78571
1818.44856	20294.64286
1821.6242	20273.5
1824.79776	20245.92857
1827.96924	20211.35714
1831.13864	20201.78571
1834.30597	20198.92857
1837.47122	20229.07143
1840.6344	20191.21429
1843.7955	20178.92857
1846.95454	20172.07143
1850.11151	20140.35714
1853.26642	20129.64286
1856.41926	20117.5
1859.57004	20076.78571
1862.71876	20107.78571
1865.86542	20103.92857
1869.01003	20096.35714
1872.15258	20064.92857
1875.29308	20042.5
1878.43152	20028.78571
1881.56792	20028.07143
1884.70227	20016.5
1887.83457	20011.07143
1890.96482	20010.5
1894.09304	19923.07143
1897.21921	19935.5
1900.34335	19938.92857
1903.46544	19874.78571
1906.58551	19841.07143
1909.70353	19892.21429
1912.81953	19825.35714
1915.93349	19787.78571
1919.04543	19787.64286
1922.15534	19760.21429
1925.26322	19717.35714
1928.36908	19684.21429
1931.47292	19743.21429
1934.57473	19662.21429
1937.67453	19644.5
1940.77232	19583.64286
1943.86808	19516.21429
1946.96184	19471.78571
1950.05358	19400.5
1953.14331	19396.78571
1956.23103	19382.64286
1959.31675	19320.64286
1962.40046	19277.64286
1965.48217	19180.35714
1968.56188	19152.07143
1971.63959	19104.92857
1974.7153	19091.64286
1977.78901	19015.07143
1980.86073	18981.21429
1983.93046	18912.64286
1986.99819	18868.35714
1990.06394	18787.21429
1993.1277	18765.35714
1996.18947	18686.07143
1999.24925	18604.35714
2002.30706	18599.21429
2005.36288	18535.64286
2008.41672	18497.07143
2011.46859	18448.35714
2014.51848	18445.5
2017.56639	18357.07143
2020.61233	18355.64286
2023.6563	18295.92857
2026.6983	18251.35714
2029.73833	18238.64286
2032.7764	18197.5
2035.8125	18163.5
2038.84664	18118.07143
2041.87881	18088.5
2044.90903	18070.35714
2047.93729	18051.35714
2050.96359	18019.78571
2053.98794	17991.64286
2057.01034	17999.21429
2060.03078	17948.64286
2063.04927	17958.21429
2066.06582	17975.64286
2069.08042	17927.07143
2072.09307	17925.07143
2075.10378	17925.92857
2078.11255	17935.92857
2081.11938	17919.07143
2084.12426	17909.92857
2087.12722	17916.78571
2090.12824	17921.21429
2093.12732	17907.35714
2096.12447	17915.92857
2099.11969	17876.35714
2102.11299	17947.21429
2105.10435	17957.78571
2108.09379	17927.21429
2111.08131	17954.07143
2114.0669	18021.07143
2117.05057	18008.07143
2120.03233	18035.64286
2123.01216	18060.35714
2125.99008	18053.92857
2128.96609	18071.78571
2131.94018	18155.64286
2134.91236	18123.92857
2137.88263	18129.64286
2140.851	18126.64286
2143.81746	18196.07143
2146.78201	18201.64286
2149.74466	18223.21429
2152.7054	18192.21429
2155.66425	18200.64286
2158.6212	18183.35714
2161.57625	18166.5
2164.52941	18155.5
2167.48067	18138.92857
2170.43004	18169.92857
2173.37752	18184.64286
2176.32311	18179.78571
2179.26681	18189.07143
2182.20863	18174.5
2185.14856	18205.5
2188.08661	18192.35714
2191.02278	18210.5
2193.95707	18245.07143
2196.88948	18188.07143
2199.82001	18193.07143
2202.74867	18163.21429
2205.67545	18197.07143
2208.60037	18125.78571
2211.52341	18090.64286
2214.44458	18098.92857
2217.36388	18084.07143
2220.28132	18033.64286
2223.1969	18002.92857
2226.11061	18000.35714
2229.02246	17953.5
2231.93245	17896.64286
2234.84058	17871.07143
2237.74686	17845.92857
2240.65128	17862.5
2243.55385	17818.07143
2246.45456	17835.92857
2249.35343	17797.64286
2252.25044	17789.21429
2255.14561	17738.64286
2258.03893	17711.78571
2260.93041	17709.64286
2263.82004	17683.64286
2266.70783	17620.35714
2269.59378	17551.64286
2272.4779	17613.35714
2275.36017	17547.35714
2278.24061	17507.5
2281.11922	17481.92857
2283.996	17457.21429
2286.87094	17468.07143
2289.74405	17445.35714
2292.61534	17447.5
2295.4848	17406.64286
2298.35243	17455.35714
2301.21824	17412.92857
2304.08223	17390.21429
2306.94439	17376.5
2309.80474	17412.92857
2312.66327	17458.64286
2315.51999	17405.92857
2318.37489	17399.35714
2321.22797	17388.5
2324.07925	17346.21429
2326.92871	17313.07143
2329.77637	17294.07143
2332.62222	17271.64286
2335.46626	17301.92857
2338.3085	17268.5
2341.14893	17249.35714
2343.98756	17230.35714
2346.8244	17228.64286
2349.65943	17218.21429
2352.49267	17175.64286
2355.32411	17223.21429
2358.15376	17194.07143
2360.98161	17189.92857
2363.80768	17156.35714
2366.63195	17142.92857
2369.45444	17079.92857
2372.27514	17088.5
2375.09405	17066.64286
2377.91118	17061.5
2380.72652	17019.78571
2383.54009	16959.92857
2386.35187	16937.78571
2389.16188	16937.64286
2391.97011	16896.21429
2394.77657	16872.92857
2397.58125	16854.5
2400.38416	16850.07143
2403.18529	16829.78571
2405.98466	16857.64286
2408.78226	16750.92857
2411.57809	16735.78571
2414.37216	16679.35714
2417.16446	16717.07143
2419.955	16717.5
2422.74378	16659.92857
2425.5308	16604.92857
2428.31606	16646.21429
2431.09956	16635.64286
2433.88131	16602.64286
2436.6613	16579.78571
2439.43954	16605.64286
2442.21603	16601.35714
2444.99077	16588.92857
2447.76377	16601.07143
2450.53501	16612.64286
2453.30451	16589.21429
2456.07226	16543.64286
2458.83827	16532.07143
2461.60254	16537.07143
2464.36507	16494.5
2467.12586	16458.35714
2469.88492	16454.07143
2472.64224	16477.64286
2475.39782	16470.21429
2478.15167	16473.78571
2480.90379	16498.07143
2483.65417	16489.21429
2486.40283	16506.5
2489.14976	16524.64286
2491.89497	16498.64286
2494.63845	16523.07143
2497.3802	16476.07143
2500.12024	16472.35714
2502.85855	16476.21429
2505.59514	16458.92857
2508.33002	16421.5
2511.06318	16398.5
2513.79462	16371.21429
2516.52435	16365.07143
2519.25237	16342.07143
2521.97867	16327.92857
2524.70327	16310.35714
2527.42616	16291.78571
2530.14734	16283.64286
2532.86681	16262.64286
2535.58458	16256.92857
2538.30065	16251.78571
2541.01501	16296.07143
2543.72768	16194.35714
2546.43864	16190.07143
2549.14791	16163.92857
2551.85548	16172.5
2554.56136	16137.64286
2557.26554	16108.21429
2559.96803	16108.92857
2562.66883	16063.21429
2565.36794	16061.21429
2568.06536	16026.5
2570.7611	15977.92857
2573.45514	15974.78571
2576.14751	15951.07143
2578.83819	16007.5
2581.52719	15955.35714
2584.21451	15902.78571
2586.90015	15899.64286
2589.58411	15859.92857
2592.2664	15861.21429
2594.94701	15830.21429
2597.62594	15820.78571
2600.30321	15789.64286
2602.9788	15778.07143
2605.65273	15713.78571
2608.32498	15747.07143
2610.99557	15743.78571
2613.66449	15720.5
2616.33175	15716.5
2618.99734	15703.92857
2621.66128	15703.21429
2624.32355	15688.92857
2626.98416	15657.92857
2629.64311	15679.5
2632.30041	15680.78571
2634.95605	15643.21429
2637.61004	15595.35714
2640.26238	15600.92857
2642.91306	15600.64286
2645.56209	15579.64286
2648.20948	15593.78571
2650.85521	15577.92857
2653.4993	15544.21429
2656.14175	15524.5
2658.78255	15530.78571
2661.42171	15553.64286
2664.05923	15569.21429
2666.6951	15573.35714
2669.32934	15552.5
2671.96194	15525.35714
2674.59291	15546.07143
2677.22224	15535.64286
2679.84993	15522.5
2682.476	15534.07143
2685.10043	15533.35714
2687.72324	15507.35714
2690.34441	15483.64286
2692.96396	15523.21429
2695.58188	15538.5
2698.19818	15455.21429
2700.81285	15467.21429
2703.4259	15478.5
2706.03733	15465.78571
2708.64714	15502.35714
2711.25533	15518.35714
2713.86191	15490.35714
2716.46687	15510.78571
2719.07021	15568.78571
2721.67194	15534.35714
2724.27206	15538.21429
2726.87057	15600.5
2729.46747	15563.35714
2732.06276	15486.21429
2734.65644	15538.5
2737.24852	15522.21429
2739.83899	15502.5
2742.42786	15519.78571
2745.01513	15465.64286
2747.60079	15457.5
2750.18486	15443.78571
2752.76733	15426.78571
2755.3482	15398.07143
2757.92747	15412.64286
2760.50515	15385.35714
2763.08123	15400.64286
2765.65573	15387.5
2768.22863	15377.07143
2770.79994	15352.64286
2773.36967	15337.35714
2775.9378	15340.92857
2778.50435	15317.92857
2781.06932	15302.64286
2783.6327	15271.92857
2786.1945	15278.64286
2788.75471	15258.35714
2791.31335	15224.78571
2793.87041	15246.21429
2796.42589	15172.07143
2798.97979	15149.64286
2801.53212	15088.64286
2804.08288	15113.78571
2806.63206	15093.21429
2809.17967	15061.78571
2811.72571	15060.07143
2814.27018	15023.64286
2816.81308	14997.78571
2819.35442	14936.92857
2821.89419	14894.5
2824.43239	14881.21429
2826.96904	14908.07143
2829.50412	14911.21429
2832.03763	14829.21429
2834.56959	14875.35714
2837.1	14865.92857
2839.62884	14847.35714
2842.15613	14801.5
2844.68186	14817.21429
2847.20604	14808.64286
2849.72867	14825.78571
2852.24974	14791.21429
2854.76927	14792.92857
2857.28724	14787.78571
2859.80367	14782.92857
2862.31855	14746.64286
2864.83189	14739.5
2867.34368	14706.78571
2869.85393	14693.78571
2872.36264	14699.5
2874.8698	14693.21429
2877.37543	14667.78571
2879.87952	14701.21429
2882.38207	14694.5
2884.88308	14681.21429
2887.38256	14709.78571
2889.88051	14750.92857
2892.37692	14705.92857
2894.8718	14711.35714
2897.36515	14748.35714
2899.85698	14754.07143
2902.34727	14781.92857
2904.83604	14793.35714
2907.32328	14774.92857
2909.809	14795.35714
2912.29319	14831.07143
2914.77587	14804.64286
2917.25702	14840.07143
2919.73665	14813.5
2922.21476	14830.64286
2924.69136	14830.07143
2927.16644	14828.92857
2929.64	14794.5
2932.11205	14772.21429
2934.58258	14752.07143
2937.05161	14762.92857
2939.51912	14767.5
2941.98513	14765.35714
2944.44962	14776.78571
2946.91261	14706.64286
2949.37409	14722.35714
2951.83407	14751.35714
2954.29254	14763.21429
2956.74951	14726.35714
2959.20498	14730.07143
2961.65895	14688.64286
2964.11142	14685.64286
2966.56239	14684.64286
2969.01186	14654.35714
2971.45984	14653.21429
2973.90632	14611.35714
2976.35131	14568.64286
2978.7948	14562.5
2981.23681	14552.35714
2983.67732	14553.78571
2986.11635	14521.07143
2988.55388	14486.5
2990.98993	14489.64286
2993.4245	14488.92857
2995.85758	14455.21429
2998.28917	14421.21429
3000.71928	14418.92857
3003.14791	14384.64286
3005.57506	14353.35714
3008.00073	14360.78571
3010.42493	14329.78571
3012.84764	14277.92857
3015.26888	14308.78571
3017.68865	14291.92857
3020.10694	14262.21429
3022.52376	14257.21429
3024.9391	14249.64286
3027.35298	14200.21429
3029.76539	14232.21429
3032.17632	14198.92857
3034.5858	14148.5
3036.9938	14156.21429
3039.40034	14168.35714
3041.80542	14159.07143
3044.20903	14128.92857
3046.61118	14127.21429
3049.01187	14094.21429
3051.4111	14063.64286
3053.80888	14066.92857
3056.20519	14045.92857
3058.60005	14030.78571
3060.99345	14030.21429
3063.3854	13943.92857
3065.7759	13922.64286
3068.16494	13932.5
3070.55254	13865.92857
3072.93868	13890.5
3075.32338	13833.92857
3077.70662	13861.07143
3080.08842	13819.07143
3082.46878	13809.64286
3084.84769	13802.35714
3087.22515	13800.78571
3089.60118	13825.21429
3091.97576	13799.92857
3094.3489	13861.35714
3096.72061	13868.21429
3099.09087	13844.07143
3101.4597	13829.5
3103.82709	13797.07143
3106.19305	13847.21429
3108.55757	13865.78571
3110.92066	13810.92857
3113.28232	13823.92857
3115.64255	13824.35714
3118.00134	13767.35714
3120.35871	13752.21429
3122.71466	13713.78571
3125.06917	13713.92857
3127.42226	13685.64286
3129.77393	13687.21429
3132.12417	13664.64286
3134.47299	13697.07143
3136.82039	13688.78571
3139.16636	13681.07143
3141.51092	13683.07143
3143.85406	13703.21429
3146.19579	13720.07143
3148.53609	13702.07143
3150.87499	13710.5
3153.21246	13744.35714
3155.54853	13748.5
3157.88318	13762.78571
3160.21642	13762.78571
3162.54826	13791.21429
3164.87868	13817.5
3167.2077	13799.21429
3169.5353	13825.64286
3171.86151	13803.64286
3174.18631	13802.5
3176.5097	13775.64286
3178.83169	13778.5
3181.15228	13795.78571
3183.47147	13776.5
3185.78926	13767.07143
3188.10565	13779.35714
3190.42065	13738.21429
3192.73424	13758.5
3195.04645	13737.92857
3197.35725	13770.5
3199.66667	13755.5
3201.97469	13767.21429
3204.28132	13731.5
3206.58656	13772.35714
3208.8904	13781.35714
3211.19287	13793.35714
3213.49394	13806.64286
3215.79363	13826.64286
3218.09193	13855.92857
3220.38884	13813.21429
3222.68438	13844.21429
3224.97853	13855.07143
3227.2713	13827.64286
3229.56269	13818.78571
3231.8527	13816.21429
3234.14133	13832.07143
3236.42858	13738.64286
3238.71446	13755.64286
3240.99896	13712.92857
3243.28209	13709.92857
3245.56384	13705.92857
3247.84423	13709.21429
3250.12324	13747.78571
3252.40088	13711.92857
3254.67715	13708.64286
3256.95205	13694.92857
3259.22558	13736.64286
3261.49775	13694.35714
3263.76855	13675.5
3266.03799	13674.64286
3268.30606	13654.5
3270.57277	13683.21429
3272.83812	13636.21429
3275.10211	13597.21429
3277.36474	13565.78571
3279.62601	13581.5
3281.88593	13551.5
3284.14448	13580.5
3286.40168	13565.64286
3288.65753	13525.07143
3290.91202	13553.21429
3293.16516	13503.78571
3295.41695	13506.21429
3297.66738	13390.64286
3299.91647	13354.92857
3302.16421	13295.5
3304.4106	13252.78571
3306.65564	13173.64286
3308.89933	13112.35714
3311.14169	13004.21429
3313.38269	12900.5
3315.62236	12877.35714
3317.86068	12756.78571
3320.09766	12652.07143
3322.3333	12617.64286
3324.5676	12524.64286
3326.80056	12383.5
3329.03219	12312.78571
3331.26248	1.78571
3333.49143	-1.07143
3335.71905	0.92857
