Data from AgNPs_FTO_APTES_UA_20uM_CRN_20uM_R6G_10uM_NaF_0.1M_Addition_RamanShift__10__15-01-42-247.txt Node

Date: Thu Feb 17 15:01:42 GMT 2022
User: TCL
Spectrometer: QEP01345
Trigger mode: 4
Integration Time (sec): 7.000000E0
Scans to average: 10
Electric dark correction enabled: true
Nonlinearity correction enabled: false
Boxcar width: 0
XAxis mode: Raman Shifts
Number of Pixels in Spectrum: 1044
>>>>>Begin Spectral Data<<<<<
46.04893	-0.3
50.45542	-1.1
54.85868	-3.8
59.25871	-0.8
63.6555	131.4
68.04907	130.7
72.43941	134.1
76.82654	140.9
81.21044	141.2
85.59113	150
89.96862	149
94.34289	154.6
98.71396	158.7
103.08183	166.5
107.4465	172.5
111.80798	170.8
116.16626	182.3
120.52136	190.8
124.87327	197.2
129.222	211.6
133.56755	226.4
137.90993	242
142.24913	267.3
146.58517	301.7
150.91804	362.2
155.24774	427.7
159.57429	541.1
163.89768	697.4
168.21792	936.4
172.53501	1287.2
176.84895	1810.7
181.15975	2563.8
185.46741	3608.2
189.77193	5021.3
194.07331	6759.9
198.37157	8740.2
202.6667	10822.5
206.9587	12916.9
211.24758	14906.9
215.53334	16966.9
219.81599	19062.4
224.09553	21296.3
228.37195	23811.2
232.64527	26589.7
236.91549	29633.6
241.18261	32778.8
245.44663	35780.7
249.70755	38567.6
253.96539	41110.9
258.22014	43248.9
262.4718	44855.4
266.72039	46020.9
270.96589	46711.9
275.20832	46903
279.44768	46695.9
283.68397	46351.9
287.91719	46012.4
292.14735	45781.1
296.37445	45607.3
300.59849	45604.1
304.81948	45668.9
309.03742	45575
313.25231	45379.7
317.46415	44966.3
321.67296	44482.2
325.87872	43969
330.08145	43781.1
334.28114	43936.6
338.47781	44346.8
342.67145	44799.4
346.86207	45357.4
351.04966	45996.3
355.23424	46618.1
359.4158	47189.5
363.59435	47635.5
367.76989	48087.4
371.94243	48420.4
376.11196	48751.2
380.27849	49044.5
384.44203	49330.3
388.60257	49707.5
392.76012	50179.1
396.91468	50707.4
401.06626	51315.2
405.21485	51710
409.36047	51820.6
413.50311	51546
417.64277	51338.4
421.77947	51343.9
425.9132	51590.2
430.04396	51881.3
434.17176	52213.3
438.2966	52574.4
442.41849	53048.9
446.53742	53844.4
450.6534	54661
454.76644	55441.9
458.87653	55786.4
462.98368	55916.3
467.08789	55814.9
471.18916	55593.3
475.2875	55158.2
479.38291	54873.7
483.4754	54587.2
487.56496	54305.9
491.6516	54058.5
495.73531	53861.5
499.81612	53658.6
503.89401	53930.1
507.96899	54158.4
512.04106	54247.1
516.11023	54243.9
520.1765	54182.1
524.23987	54078.2
528.30034	53908.1
532.35792	53856.7
536.41261	53681
540.46441	53482.5
544.51333	53515.1
548.55936	53920.1
552.60252	54575.6
556.64279	55239.4
560.6802	55739.6
564.71473	55923.5
568.7464	56228.7
572.7752	57029.6
576.80114	58008.6
580.82422	58940.3
584.84444	59727.7
588.86181	60420.3
592.87633	60923.8
596.888	60903.3
600.89682	60584.3
604.9028	61229.8
608.90594	63670.8
612.90624	66194.3
616.90371	63852.7
620.89834	58574.9
624.89015	56188.9
628.87913	55973.9
632.86528	56290.6
636.84862	56548.4
640.82913	56355.6
644.80683	55756.1
648.78172	55232.8
652.75379	55152
656.72306	55445.2
660.68952	56055
664.65319	55991.9
668.61405	55766.7
672.57211	55776.8
676.52738	56005.1
680.47986	56106.1
684.42955	55889.2
688.37646	55811.1
692.32058	56064.3
696.26192	56467.5
700.20048	57007.4
704.13626	57299.2
708.06928	57442.8
711.99952	57329.6
715.927	57171.4
719.85171	57083.9
723.77365	57074.3
727.69284	56842.1
731.60928	56512.8
735.52295	56339.3
739.43388	56364.1
743.34206	56430.5
747.24749	56566.5
751.15017	56867.1
755.05012	57380.9
758.94733	58188.1
762.8418	59637.5
766.73354	61969.6
770.62254	64116
774.50882	64705
778.39237	63228.1
782.27321	61014.1
786.15132	59072
790.02671	57750.1
793.89938	57100.3
797.76935	56777.4
801.6366	56654.8
805.50115	56482.5
809.36299	56458.1
813.22213	56302.9
817.07857	56272.1
820.93231	56335.4
824.78336	56379.8
828.63172	56323.1
832.47738	56304.8
836.32036	56396.8
840.16066	56417.9
843.99827	56518.7
847.8332	56605.9
851.66546	56697.9
855.49504	56891.8
859.32195	56956.8
863.1462	56985.7
866.96777	56902.8
870.78668	56945.1
874.60293	57016.8
878.41652	57123
882.22745	57266.3
886.03573	57381.7
889.84136	57372
893.64433	57202.7
897.44466	57085.8
901.24235	57000.1
905.0374	57012.3
908.8298	56939.8
912.61957	56972.4
916.40671	57334.6
920.19121	57635.9
923.97308	57856.3
927.75233	57708.3
931.52895	57368.9
935.30295	57160.5
939.07433	56752.2
942.84309	56454.6
946.60924	56285.3
950.37278	56187.4
954.13371	56230.1
957.89203	56159.3
961.64774	56124.4
965.40086	56076.9
969.15137	56067.8
972.89929	56042.5
976.64461	55992.1
980.38733	55946
984.12747	56032.4
987.86502	56258.7
991.59999	56387.9
995.33237	56673.2
999.06217	57066.4
1002.78939	57593.5
1006.51404	58156.7
1010.23611	58740.6
1013.95561	59197
1017.67255	59291.4
1021.38692	59169.2
1025.09872	58829
1028.80796	58314.1
1032.51465	58228.2
1036.21877	58325.8
1039.92035	58366.9
1043.61937	58562.5
1047.31584	58707
1051.00976	58739.8
1054.70114	58946.8
1058.38998	59196.1
1062.07627	59585.7
1065.76003	60049
1069.44126	60620.8
1073.11995	61206.8
1076.79611	61729.2
1080.46974	62041.9
1084.14085	62128.9
1087.80943	62377.8
1091.47549	62644.7
1095.13903	62793.3
1098.80005	62496.7
1102.45857	61962.7
1106.11456	61306.5
1109.76805	61003.1
1113.41903	60867.2
1117.06751	60967.5
1120.71348	61144.7
1124.35696	61443
1127.99793	61807.9
1131.63641	61893.5
1135.2724	61768.5
1138.90589	61627.5
1142.5369	61618.2
1146.16542	61683.8
1149.79145	61833.9
1153.415	61948
1157.03607	62149.6
1160.65467	62675.1
1164.27079	63847.7
1167.88443	65151
1171.49561	66891.9
1175.10432	68989.9
1178.71056	71605.5
1182.31434	74108.8
1185.91565	75704.9
1189.51451	76317.3
1193.11091	76166.3
1196.70485	75196.1
1200.29634	73788.5
1203.88538	72507.3
1207.47197	71601.8
1211.05612	70618.7
1214.63782	69673.9
1218.21708	68670.1
1221.79391	67694.4
1225.36829	67088.1
1228.94024	66663.7
1232.50976	66296.2
1236.07685	65997.9
1239.6415	65945.3
1243.20374	66093.6
1246.76355	66437
1250.32093	66932.6
1253.8759	67678.8
1257.42845	68727.1
1260.97859	69730.4
1264.52631	70701.8
1268.07163	71633.8
1271.61453	72480.9
1275.15503	73115
1278.69312	73997.6
1282.22882	74715
1285.76211	75627.9
1289.29301	76686.4
1292.82151	78018.8
1296.34761	79673.3
1299.87133	81771.4
1303.39266	83923.4
1306.9116	86054.2
1310.42815	88010.9
1313.94233	89071.6
1317.45412	89049.2
1320.96354	88471.6
1324.47058	87857.5
1327.97525	87306.3
1331.47754	86994.7
1334.97747	87142.6
1338.47502	87698.4
1341.97022	88715.2
1345.46305	89753.8
1348.95352	90506.6
1352.44163	90833.5
1355.92738	90871.4
1359.41078	91452.5
1362.89183	91760.4
1366.37053	90150.5
1369.84688	85804.5
1373.32088	80808
1376.79254	77149.4
1380.26186	75285.6
1383.72883	74703.5
1387.19347	74515.1
1390.65578	73958.6
1394.11575	73232.9
1397.57339	72861.2
1401.0287	72790.4
1404.48168	72982.6
1407.93234	72860.7
1411.38068	72441.3
1414.82669	71525.1
1418.27039	70410.6
1421.71177	69185
1425.15083	68190.9
1428.58758	67711.8
1432.02203	67859.3
1435.45416	68415.7
1438.88399	69209.4
1442.31151	69914.8
1445.73673	70401.5
1449.15965	70843
1452.58027	71027
1455.9986	71184.6
1459.41463	71508.6
1462.82837	72332.6
1466.23982	73205.6
1469.64898	74195.7
1473.05586	75008.8
1476.46045	75339.8
1479.86276	75426.8
1483.26279	75255.2
1486.66054	75114.5
1490.05602	75425.7
1493.44922	76109.5
1496.84016	77099.9
1500.22882	78690.4
1503.61521	80848.3
1506.99934	82952.5
1510.38121	84179.3
1513.76081	84050.7
1517.13816	82586.2
1520.51324	80820.6
1523.88607	79490.6
1527.25665	78707
1530.62498	78454.4
1533.99105	78159.8
1537.35488	77638.9
1540.71647	76881.2
1544.07581	75957.9
1547.4329	75038.9
1550.78776	74248.3
1554.14038	73474.8
1557.49077	73167.4
1560.83892	72898.8
1564.18484	72953.1
1567.52853	73026.4
1570.86999	73312
1574.20922	73819.5
1577.54624	74034.7
1580.88103	73631.7
1584.2136	73222.6
1587.54395	73553.8
1590.87208	74769.2
1594.19801	76735.3
1597.52172	78917.7
1600.84321	79777.6
1604.16251	78583.3
1607.47959	76435.8
1610.79447	73909.2
1614.10715	71035.6
1617.41763	68200.2
1620.7259	66057.1
1624.03199	64707.6
1627.33587	64314.3
1630.63757	64756.5
1633.93707	66212.6
1637.23439	69016.7
1640.52951	73122.5
1643.82246	77994
1647.11321	82210.3
1650.40179	83500.5
1653.68819	80840.4
1656.97241	75508.8
1660.25446	69883.6
1663.53433	65327.3
1666.81203	62280
1670.08756	60439.3
1673.36092	59128.1
1676.63211	58203.9
1679.90115	57581.7
1683.16801	57076.1
1686.43272	56628.5
1689.69527	56342.9
1692.95567	56239.7
1696.2139	56001
1699.46999	55966.6
1702.72392	55880.2
1705.97571	55841.5
1709.22535	55711.7
1712.47284	55720.7
1715.71819	55789.1
1718.96139	55684.9
1722.20246	55665.9
1725.44139	55397.5
1728.67818	55190.4
1731.91284	54968.1
1735.14537	54866.3
1738.37576	54725.3
1741.60403	54672
1744.83017	54608
1748.05418	54433.1
1751.27607	54331.8
1754.49584	54330
1757.71349	54316.2
1760.92903	54270.7
1764.14244	54230.1
1767.35375	54164.7
1770.56294	54061.7
1773.77002	54066.1
1776.97499	54014.5
1780.17785	53879.4
1783.37861	53852.4
1786.57727	53851.5
1789.77382	53773.8
1792.96828	53724.6
1796.16064	53629
1799.3509	53476.2
1802.53907	53475.7
1805.72514	53305.5
1808.90913	53181.1
1812.09102	53173
1815.27083	53094.4
1818.44856	52971.3
1821.6242	52931.7
1824.79776	52989
1827.96924	52911
1831.13864	52824.7
1834.30597	52887
1837.47122	52775.3
1840.6344	52773.5
1843.7955	52757.8
1846.95454	52747.8
1850.11151	52687.1
1853.26642	52633.6
1856.41926	52581.2
1859.57004	52544.1
1862.71876	52508.6
1865.86542	52508
1869.01003	52436.1
1872.15258	52455.4
1875.29308	52327.6
1878.43152	52283.3
1881.56792	52247.3
1884.70227	52164.4
1887.83457	52030
1890.96482	52006.2
1894.09304	52034.5
1897.21921	51973.9
1900.34335	51913.6
1903.46544	51823.6
1906.58551	51735.8
1909.70353	51696
1912.81953	51702.7
1915.93349	51579.3
1919.04543	51376
1922.15534	51395
1925.26322	51291.3
1928.36908	51286.3
1931.47292	51224.4
1934.57473	51170.6
1937.67453	51028
1940.77232	50909.1
1943.86808	50825.5
1946.96184	50714.7
1950.05358	50652
1953.14331	50520.8
1956.23103	50361.9
1959.31675	50196.7
1962.40046	50005.8
1965.48217	49910.8
1968.56188	49810.6
1971.63959	49672.5
1974.7153	49458.1
1977.78901	49333.5
1980.86073	49223.2
1983.93046	49150.3
1986.99819	49009.3
1990.06394	48939.6
1993.1277	48775.5
1996.18947	48612.3
1999.24925	48515.2
2002.30706	48353.7
2005.36288	48203.5
2008.41672	48072.5
2011.46859	47917
2014.51848	47842
2017.56639	47698.1
2020.61233	47552.2
2023.6563	47456
2026.6983	47407
2029.73833	47240.7
2032.7764	47179.1
2035.8125	47055
2038.84664	46947.8
2041.87881	46883.7
2044.90903	46715.6
2047.93729	46680.6
2050.96359	46681
2053.98794	46610.8
2057.01034	46569.5
2060.03078	46588.2
2063.04927	46532.7
2066.06582	46513.2
2069.08042	46474.9
2072.09307	46454.9
2075.10378	46417.6
2078.11255	46410.9
2081.11938	46363.5
2084.12426	46400.5
2087.12722	46379.2
2090.12824	46370.2
2093.12732	46342.1
2096.12447	46407.4
2099.11969	46449.6
2102.11299	46521.2
2105.10435	46515.6
2108.09379	46478.8
2111.08131	46554.7
2114.0669	46489.7
2117.05057	46629.4
2120.03233	46666.4
2123.01216	46726.4
2125.99008	46758.4
2128.96609	46697.8
2131.94018	46753.6
2134.91236	46803.6
2137.88263	46799.8
2140.851	46813.3
2143.81746	46893.5
2146.78201	46894.3
2149.74466	46913.4
2152.7054	46978.5
2155.66425	46971.7
2158.6212	46950
2161.57625	46879.5
2164.52941	46860.3
2167.48067	46831.1
2170.43004	46789
2173.37752	46832.4
2176.32311	46924.4
2179.26681	46925.5
2182.20863	46889.9
2185.14856	46900.3
2188.08661	46799.9
2191.02278	46816.6
2193.95707	46767.6
2196.88948	46735.3
2199.82001	46728.1
2202.74867	46659.1
2205.67545	46669.8
2208.60037	46611.6
2211.52341	46537.1
2214.44458	46491.8
2217.36388	46345.4
2220.28132	46283.7
2223.1969	46188.8
2226.11061	46132.2
2229.02246	46043.6
2231.93245	45922.3
2234.84058	45895.8
2237.74686	45798.1
2240.65128	45744.3
2243.55385	45761.7
2246.45456	45733.7
2249.35343	45624.6
2252.25044	45579.1
2255.14561	45517.2
2258.03893	45513.6
2260.93041	45379.7
2263.82004	45321.9
2266.70783	45242.1
2269.59378	45142.5
2272.4779	44991.6
2275.36017	44894
2278.24061	44759.3
2281.11922	44707.7
2283.996	44642.7
2286.87094	44609.5
2289.74405	44517.6
2292.61534	44576.1
2295.4848	44523.3
2298.35243	44482.1
2301.21824	44444
2304.08223	44364.2
2306.94439	44406.8
2309.80474	44360.4
2312.66327	44249.2
2315.51999	44157.3
2318.37489	44116.7
2321.22797	44146.1
2324.07925	44012
2326.92871	43952.9
2329.77637	43898.1
2332.62222	43792.4
2335.46626	43793
2338.3085	43756.9
2341.14893	43761.6
2343.98756	43748.6
2346.8244	43635.3
2349.65943	43589.8
2352.49267	43584
2355.32411	43598
2358.15376	43616.4
2360.98161	43599.5
2363.80768	43529.3
2366.63195	43463.6
2369.45444	43442.8
2372.27514	43316.6
2375.09405	43272.1
2377.91118	43175.6
2380.72652	43139.4
2383.54009	43048.7
2386.35187	43029
2389.16188	42891.2
2391.97011	42821.5
2394.77657	42733.5
2397.58125	42653.8
2400.38416	42573.1
2403.18529	42489.9
2405.98466	42483.8
2408.78226	42406.6
2411.57809	42367.5
2414.37216	42306.4
2417.16446	42292.3
2419.955	42272.9
2422.74378	42271.7
2425.5308	42230.7
2428.31606	42201.7
2431.09956	42138.1
2433.88131	42052.2
2436.6613	42117.3
2439.43954	42167.5
2442.21603	42079
2444.99077	41946.3
2447.76377	41943.1
2450.53501	41940.3
2453.30451	41888.2
2456.07226	41828.9
2458.83827	41812.4
2461.60254	41726
2464.36507	41675.1
2467.12586	41581.9
2469.88492	41596.6
2472.64224	41633.2
2475.39782	41615.4
2478.15167	41585
2480.90379	41636.8
2483.65417	41557.5
2486.40283	41561.2
2489.14976	41506.4
2491.89497	41449
2494.63845	41497.2
2497.3802	41438.9
2500.12024	41415.9
2502.85855	41340.8
2505.59514	41310.1
2508.33002	41270.5
2511.06318	41256.6
2513.79462	41138.9
2516.52435	41032.2
2519.25237	41065.1
2521.97867	41056.1
2524.70327	41050.5
2527.42616	40984
2530.14734	40884.6
2532.86681	40840.6
2535.58458	40790.4
2538.30065	40724.4
2541.01501	40762.3
2543.72768	40671.2
2546.43864	40709
2549.14791	40523.8
2551.85548	40475.4
2554.56136	40392.1
2557.26554	40305.2
2559.96803	40263.9
2562.66883	40193.2
2565.36794	40164.5
2568.06536	40141.2
2570.7611	40029.9
2573.45514	39974.9
2576.14751	39888.7
2578.83819	39841
2581.52719	39780.9
2584.21451	39666.6
2586.90015	39697.2
2589.58411	39509.2
2592.2664	39464.2
2594.94701	39397.7
2597.62594	39372.3
2600.30321	39309
2602.9788	39253.3
2605.65273	39238.3
2608.32498	39144.8
2610.99557	39111.6
2613.66449	39107.9
2616.33175	39048.4
2618.99734	39054.2
2621.66128	39021.4
2624.32355	38895.9
2626.98416	38860.8
2629.64311	38834.1
2632.30041	38729.7
2634.95605	38696.1
2637.61004	38663.6
2640.26238	38669.3
2642.91306	38628.4
2645.56209	38599.7
2648.20948	38599.1
2650.85521	38550.2
2653.4993	38617.9
2656.14175	38517.7
2658.78255	38581.2
2661.42171	38525.7
2664.05923	38541.4
2666.6951	38516.3
2669.32934	38565.7
2671.96194	38512.5
2674.59291	38481.2
2677.22224	38476.6
2679.84993	38470
2682.476	38453.4
2685.10043	38483.6
2687.72324	38404.3
2690.34441	38449.4
2692.96396	38437.5
2695.58188	38421.8
2698.19818	38377.7
2700.81285	38381
2703.4259	38337
2706.03733	38397.4
2708.64714	38400
2711.25533	38363
2713.86191	38337.1
2716.46687	38510.1
2719.07021	38474.2
2721.67194	38479.5
2724.27206	38481.9
2726.87057	38501.7
2729.46747	38526.7
2732.06276	38522.7
2734.65644	38429.1
2737.24852	38376.8
2739.83899	38294.4
2742.42786	38352.9
2745.01513	38308.3
2747.60079	38238.3
2750.18486	38136.9
2752.76733	38102.7
2755.3482	38021.8
2757.92747	38027.2
2760.50515	37949
2763.08123	37962.8
2765.65573	37868.4
2768.22863	37855.7
2770.79994	37745.4
2773.36967	37692.2
2775.9378	37713.6
2778.50435	37637.8
2781.06932	37635
2783.6327	37554.4
2786.1945	37491.5
2788.75471	37478.9
2791.31335	37401.6
2793.87041	37394.8
2796.42589	37267.2
2798.97979	37179.6
2801.53212	37099.1
2804.08288	37015
2806.63206	36900.7
2809.17967	36815.1
2811.72571	36713.7
2814.27018	36635.5
2816.81308	36535.9
2819.35442	36518.1
2821.89419	36461.5
2824.43239	36495.7
2826.96904	36405.3
2829.50412	36381.9
2832.03763	36247.8
2834.56959	36232.8
2837.1	36162.1
2839.62884	36134.3
2842.15613	36059.7
2844.68186	36091.9
2847.20604	35987
2849.72867	35978.7
2852.24974	35898.8
2854.76927	35884.2
2857.28724	35856.9
2859.80367	35781.1
2862.31855	35646.7
2864.83189	35643.8
2867.34368	35648.4
2869.85393	35622.6
2872.36264	35557.4
2874.8698	35522.3
2877.37543	35467.4
2879.87952	35424.6
2882.38207	35434.5
2884.88308	35371.1
2887.38256	35349.5
2889.88051	35336.7
2892.37692	35353.9
2894.8718	35320.9
2897.36515	35347.1
2899.85698	35312.1
2902.34727	35364.7
2904.83604	35324.5
2907.32328	35428.2
2909.809	35420.7
2912.29319	35443.7
2914.77587	35421.9
2917.25702	35423.7
2919.73665	35374
2922.21476	35365.5
2924.69136	35347.9
2927.16644	35311
2929.64	35286.2
2932.11205	35249.6
2934.58258	35161.9
2937.05161	35165.4
2939.51912	35165.4
2941.98513	35171.9
2944.44962	35072.9
2946.91261	35028.8
2949.37409	35136
2951.83407	35035.9
2954.29254	35032.4
2956.74951	35029.4
2959.20498	35035.4
2961.65895	34958.6
2964.11142	35014.9
2966.56239	34939.2
2969.01186	34939.1
2971.45984	34845.3
2973.90632	34822.8
2976.35131	34771.1
2978.7948	34733.1
2981.23681	34718.3
2983.67732	34679.2
2986.11635	34550.6
2988.55388	34508
2990.98993	34392.6
2993.4245	34357.7
2995.85758	34261.9
2998.28917	34122.4
3000.71928	34125.6
3003.14791	34038.9
3005.57506	34006.5
3008.00073	33907.6
3010.42493	33881.5
3012.84764	33813.9
3015.26888	33835.5
3017.68865	33749.9
3020.10694	33667
3022.52376	33617.7
3024.9391	33595.4
3027.35298	33517.4
3029.76539	33485.1
3032.17632	33486
3034.5858	33392.8
3036.9938	33374.3
3039.40034	33386.2
3041.80542	33354.6
3044.20903	33284.1
3046.61118	33289
3049.01187	33129.9
3051.4111	33052.3
3053.80888	32966.9
3056.20519	32932.3
3058.60005	32851.7
3060.99345	32849.1
3063.3854	32787.2
3065.7759	32682.5
3068.16494	32546
3070.55254	32491.6
3072.93868	32421.1
3075.32338	32326.7
3077.70662	32304.9
3080.08842	32200.6
3082.46878	32169.4
3084.84769	32120.9
3087.22515	32090.5
3089.60118	32072
3091.97576	32044.9
3094.3489	32008.7
3096.72061	32004.8
3099.09087	32036.7
3101.4597	32025.9
3103.82709	32019.5
3106.19305	31949.5
3108.55757	31974.4
3110.92066	31805.9
3113.28232	31751.2
3115.64255	31662.1
3118.00134	31607.7
3120.35871	31580.2
3122.71466	31527.2
3125.06917	31402.6
3127.42226	31348.8
3129.77393	31290.2
3132.12417	31240.4
3134.47299	31169.2
3136.82039	31166.4
3139.16636	31153.1
3141.51092	31035
3143.85406	31098.2
3146.19579	31066.2
3148.53609	31052.5
3150.87499	31095.5
3153.21246	31098.3
3155.54853	31204.9
3157.88318	31137.1
3160.21642	31154.3
3162.54826	31100.3
3164.87868	31121.1
3167.2077	31093.8
3169.5353	31096.6
3171.86151	31078.5
3174.18631	30984.1
3176.5097	30925.9
3178.83169	30850.1
3181.15228	30847.1
3183.47147	30731.6
3185.78926	30755.1
3188.10565	30659.5
3190.42065	30635.7
3192.73424	30585.3
3195.04645	30488.7
3197.35725	30512.1
3199.66667	30489
3201.97469	30498.9
3204.28132	30459.5
3206.58656	30503.5
3208.8904	30525.4
3211.19287	30499.3
3213.49394	30453.2
3215.79363	30454
3218.09193	30484.1
3220.38884	30504.7
3222.68438	30485.2
3224.97853	30432.8
3227.2713	30447.6
3229.56269	30408.4
3231.8527	30392.2
3234.14133	30326.1
3236.42858	30201.2
3238.71446	30151.8
3240.99896	30077.7
3243.28209	30028.7
3245.56384	30003.1
3247.84423	30037.3
3250.12324	29934.8
3252.40088	29848.3
3254.67715	29854.7
3256.95205	29823.4
3259.22558	29855.6
3261.49775	29801.2
3263.76855	29751
3266.03799	29642.9
3268.30606	29648.4
3270.57277	29612.8
3272.83812	29513
3275.10211	29460.2
3277.36474	29385
3279.62601	29372.9
3281.88593	29368
3284.14448	29327.4
3286.40168	29341.6
3288.65753	29319.2
3290.91202	29268.3
3293.16516	29203
3295.41695	29166.2
3297.66738	28988
3299.91647	28831
3302.16421	28601.7
3304.4106	28474.3
3306.65564	28288.1
3308.89933	28135.2
3311.14169	27940.1
3313.38269	27674.6
3315.62236	27530.8
3317.86068	27281.5
3320.09766	27088
3322.3333	26946.7
3324.5676	26789.7
3326.80056	26390.3
3329.03219	26216.6
3331.26248	6.4
3333.49143	0.9
3335.71905	-1.6
