Data from AgNPs_FTO_APTES_UA_20uM_CRN_1000uM_R6G_10uM_NaF_0.1M_Addition_RamanShift__14__19-28-05-023.txt Node

Date: Thu Feb 17 19:28:05 GMT 2022
User: TCL
Spectrometer: QEP01345
Trigger mode: 4
Integration Time (sec): 1.000000E1
Scans to average: 7
Electric dark correction enabled: true
Nonlinearity correction enabled: false
Boxcar width: 0
XAxis mode: Raman Shifts
Number of Pixels in Spectrum: 1044
>>>>>Begin Spectral Data<<<<<
46.04893	0.60714
50.45542	-0.96429
54.85868	-0.53571
59.25871	-1.10714
63.6555	49.32143
68.04907	47.60714
72.43941	52.46429
76.82654	53.46429
81.21044	58.17857
85.59113	58.60714
89.96862	63.46429
94.34289	64.03571
98.71396	65.17857
103.08183	66.60714
107.4465	72.46429
111.80798	71.17857
116.16626	69.60714
120.52136	73.89286
124.87327	75.75
129.222	76.46429
133.56755	79.60714
137.90993	81.32143
142.24913	89.03571
146.58517	94.75
150.91804	113.03571
155.24774	125.32143
159.57429	155.03571
163.89768	195.89286
168.21792	251.17857
172.53501	338.75
176.84895	467.03571
181.15975	662.75
185.46741	928.17857
189.77193	1286.46429
194.07331	1747.03571
198.37157	2263.17857
202.6667	2824.89286
206.9587	3362.46429
211.24758	3901.32143
215.53334	4438.60714
219.81599	4989.17857
224.09553	5573.32143
228.37195	6199.60714
232.64527	6939.60714
236.91549	7710.46429
241.18261	8511.46429
245.44663	9272.17857
249.70755	10004.46429
253.96539	10641.60714
258.22014	11166.60714
262.4718	11539.60714
266.72039	11750.17857
270.96589	11863.75
275.20832	11846.03571
279.44768	11712.75
283.68397	11524.75
287.91719	11365.89286
292.14735	11185.89286
296.37445	11101.03571
300.59849	10984.89286
304.81948	10968.32143
309.03742	10970.17857
313.25231	10923.60714
317.46415	10892.03571
321.67296	10793.60714
325.87872	10731.89286
330.08145	10731.89286
334.28114	10793.32143
338.47781	10892.75
342.67145	11003.32143
346.86207	11152.17857
351.04966	11328.46429
355.23424	11523.75
359.4158	11685.89286
363.59435	11855.89286
367.76989	11978.46429
371.94243	12096.75
376.11196	12211.75
380.27849	12308.32143
384.44203	12378.89286
388.60257	12487.46429
392.76012	12581.89286
396.91468	12699.75
401.06626	12834.89286
405.21485	12926.60714
409.36047	12962.17857
413.50311	12982.17857
417.64277	12894.03571
421.77947	12867.17857
425.9132	12877.75
430.04396	12960.03571
434.17176	13034.03571
438.2966	13153.03571
442.41849	13285.75
446.53742	13384.17857
450.6534	13543.89286
454.76644	13686.46429
458.87653	13753.89286
462.98368	13842.17857
467.08789	13867.89286
471.18916	13846.60714
475.2875	13821.46429
479.38291	13777.17857
483.4754	13733.46429
487.56496	13751.89286
491.6516	13744.03571
495.73531	13750.17857
499.81612	13784.17857
503.89401	13838.60714
507.96899	13896.75
512.04106	13952.46429
516.11023	13982.17857
520.1765	13996.46429
524.23987	14041.17857
528.30034	14024.17857
532.35792	14028.17857
536.41261	14041.46429
540.46441	14041.89286
544.51333	14019.17857
548.55936	14095.46429
552.60252	14164.60714
556.64279	14294.17857
560.6802	14303.17857
564.71473	14339.60714
568.7464	14368.89286
572.7752	14386.89286
576.80114	14392.32143
580.82422	14424.03571
584.84444	14482.46429
588.86181	14508.32143
592.87633	14532.89286
596.888	14646.03571
600.89682	14786.60714
604.9028	15089.75
608.90594	15785.32143
612.90624	16597.75
616.90371	16342.89286
620.89834	15278.75
624.89015	14758.60714
628.87913	14693.75
632.86528	14722.60714
636.84862	14807.17857
640.82913	14809.60714
644.80683	14758.60714
648.78172	14685.75
652.75379	14744.17857
656.72306	14825.75
660.68952	14975.60714
664.65319	14997.75
668.61405	14964.03571
672.57211	15021.60714
676.52738	15141.17857
680.47986	15269.17857
684.42955	15319.60714
688.37646	15290.60714
692.32058	15313.32143
696.26192	15383.17857
700.20048	15381.75
704.13626	15421.32143
708.06928	15342.75
711.99952	15277.60714
715.927	15231.75
719.85171	15205.17857
723.77365	15178.17857
727.69284	15210.46429
731.60928	15175.60714
735.52295	15175.75
739.43388	15154.03571
743.34206	15170.75
747.24749	15187.46429
751.15017	15225.46429
755.05012	15259.32143
758.94733	15349.60714
762.8418	15584.46429
766.73354	15961.60714
770.62254	16354.60714
774.50882	16612.17857
778.39237	16495.75
782.27321	16094.89286
786.15132	15748.89286
790.02671	15463.75
793.89938	15250.89286
797.76935	15249.60714
801.6366	15200.75
805.50115	15180.89286
809.36299	15173.60714
813.22213	15155.17857
817.07857	15165.60714
820.93231	15158.32143
824.78336	15151.03571
828.63172	15200.46429
832.47738	15224.60714
836.32036	15212.75
840.16066	15252.60714
843.99827	15240.17857
847.8332	15277.89286
851.66546	15299.03571
855.49504	15311.75
859.32195	15304.17857
863.1462	15323.32143
866.96777	15365.32143
870.78668	15388.03571
874.60293	15427.89286
878.41652	15454.46429
882.22745	15473.89286
886.03573	15484.17857
889.84136	15508.17857
893.64433	15503.17857
897.44466	15475.46429
901.24235	15457.75
905.0374	15442.03571
908.8298	15416.17857
912.61957	15389.46429
916.40671	15401.46429
920.19121	15451.03571
923.97308	15481.89286
927.75233	15463.89286
931.52895	15446.17857
935.30295	15416.17857
939.07433	15368.89286
942.84309	15338.89286
946.60924	15312.46429
950.37278	15239.60714
954.13371	15201.60714
957.89203	15209.46429
961.64774	15183.17857
965.40086	15188.17857
969.15137	15156.46429
972.89929	15155.89286
976.64461	15168.32143
980.38733	15170.46429
984.12747	15189.17857
987.86502	15199.60714
991.59999	15259.89286
995.33237	15252.03571
999.06217	15300.60714
1002.78939	15350.60714
1006.51404	15440.60714
1010.23611	15513.75
1013.95561	15559.17857
1017.67255	15611.46429
1021.38692	15598.75
1025.09872	15600.46429
1028.80796	15536.60714
1032.51465	15515.17857
1036.21877	15530.75
1039.92035	15530.60714
1043.61937	15556.03571
1047.31584	15621.03571
1051.00976	15670.60714
1054.70114	15690.89286
1058.38998	15715.75
1062.07627	15752.03571
1065.76003	15779.32143
1069.44126	15844.60714
1073.11995	15919.46429
1076.79611	15955.17857
1080.46974	16000.32143
1084.14085	16044.75
1087.80943	16067.60714
1091.47549	16081.46429
1095.13903	16065.17857
1098.80005	16050.89286
1102.45857	15993.60714
1106.11456	15999.89286
1109.76805	15952.75
1113.41903	15932.46429
1117.06751	15926.46429
1120.71348	15997.17857
1124.35696	16079.32143
1127.99793	16127.89286
1131.63641	16171.46429
1135.2724	16114.32143
1138.90589	16067.60714
1142.5369	15997.89286
1146.16542	15941.60714
1149.79145	15899.03571
1153.415	15824.60714
1157.03607	15855.89286
1160.65467	15895.03571
1164.27079	15979.32143
1167.88443	16134.89286
1171.49561	16362.03571
1175.10432	16639.60714
1178.71056	17042.60714
1182.31434	17383.89286
1185.91565	17634.60714
1189.51451	17712.60714
1193.11091	17657.89286
1196.70485	17529.03571
1200.29634	17367.32143
1203.88538	17172.75
1207.47197	16916.32143
1211.05612	16671.75
1214.63782	16500.46429
1218.21708	16354.03571
1221.79391	16322.46429
1225.36829	16262.32143
1228.94024	16306.75
1232.50976	16295.89286
1236.07685	16277.32143
1239.6415	16392.75
1243.20374	16415.75
1246.76355	16412.60714
1250.32093	16471.17857
1253.8759	16525.60714
1257.42845	16669.46429
1260.97859	16740.17857
1264.52631	16824.17857
1268.07163	16917.75
1271.61453	17018.89286
1275.15503	17073.75
1278.69312	17099.89286
1282.22882	17097.03571
1285.76211	17103.03571
1289.29301	17192.46429
1292.82151	17258.89286
1296.34761	17416.46429
1299.87133	17549.17857
1303.39266	17827.60714
1306.9116	18113.17857
1310.42815	18457.75
1313.94233	18694.60714
1317.45412	18630.32143
1320.96354	18455.03571
1324.47058	18194.17857
1327.97525	17984.46429
1331.47754	17802.89286
1334.97747	17764.46429
1338.47502	17815.75
1341.97022	17998.17857
1345.46305	18230.32143
1348.95352	18623.03571
1352.44163	18996.60714
1355.92738	19262.03571
1359.41078	19587.60714
1362.89183	19881.17857
1366.37053	19731.32143
1369.84688	18940.89286
1373.32088	18072.46429
1376.79254	17444.46429
1380.26186	17039.75
1383.72883	16766.60714
1387.19347	16577.17857
1390.65578	16402.32143
1394.11575	16159.32143
1397.57339	16052.75
1401.0287	15962.03571
1404.48168	15908.03571
1407.93234	15905.32143
1411.38068	15927.17857
1414.82669	15903.89286
1418.27039	15866.75
1421.71177	15847.03571
1425.15083	15785.75
1428.58758	15694.03571
1432.02203	15621.60714
1435.45416	15601.32143
1438.88399	15588.89286
1442.31151	15593.60714
1445.73673	15592.32143
1449.15965	15611.75
1452.58027	15620.03571
1455.9986	15602.17857
1459.41463	15617.17857
1462.82837	15673.89286
1466.23982	15823.75
1469.64898	15949.89286
1473.05586	16075.17857
1476.46045	16198.32143
1479.86276	16264.32143
1483.26279	16310.60714
1486.66054	16373.89286
1490.05602	16471.89286
1493.44922	16671.89286
1496.84016	16968.60714
1500.22882	17363.60714
1503.61521	17853.17857
1506.99934	18334.60714
1510.38121	18611.17857
1513.76081	18593.60714
1517.13816	18208.03571
1520.51324	17683.60714
1523.88607	17269.46429
1527.25665	16930.60714
1530.62498	16781.32143
1533.99105	16632.46429
1537.35488	16637.75
1540.71647	16612.60714
1544.07581	16600.89286
1547.4329	16543.75
1550.78776	16506.03571
1554.14038	16457.17857
1557.49077	16460.60714
1560.83892	16454.03571
1564.18484	16555.75
1567.52853	16597.03571
1570.86999	16673.75
1574.20922	16738.46429
1577.54624	16777.17857
1580.88103	16624.03571
1584.2136	16428.89286
1587.54395	16279.75
1590.87208	16257.60714
1594.19801	16371.46429
1597.52172	16605.17857
1600.84321	16725.03571
1604.16251	16688.75
1607.47959	16597.89286
1610.79447	16431.17857
1614.10715	16155.32143
1617.41763	15940.03571
1620.7259	15657.03571
1624.03199	15505.46429
1627.33587	15420.03571
1630.63757	15382.32143
1633.93707	15437.03571
1637.23439	15624.17857
1640.52951	15895.89286
1643.82246	16292.46429
1647.11321	16736.60714
1650.40179	17015.32143
1653.68819	16856.32143
1656.97241	16438.89286
1660.25446	15870.89286
1663.53433	15344.75
1666.81203	15083.03571
1670.08756	14882.46429
1673.36092	14718.03571
1676.63211	14636.89286
1679.90115	14537.75
1683.16801	14447.60714
1686.43272	14434.89286
1689.69527	14422.03571
1692.95567	14369.60714
1696.2139	14352.46429
1699.46999	14343.89286
1702.72392	14279.75
1705.97571	14329.89286
1709.22535	14308.75
1712.47284	14355.89286
1715.71819	14305.32143
1718.96139	14263.89286
1722.20246	14245.32143
1725.44139	14213.60714
1728.67818	14201.17857
1731.91284	14145.32143
1735.14537	14127.46429
1738.37576	14105.75
1741.60403	14033.60714
1744.83017	14005.17857
1748.05418	13961.75
1751.27607	13977.89286
1754.49584	13973.32143
1757.71349	13979.32143
1760.92903	13955.46429
1764.14244	13965.75
1767.35375	13957.17857
1770.56294	13876.46429
1773.77002	13903.17857
1776.97499	13835.60714
1780.17785	13792.75
1783.37861	13763.60714
1786.57727	13761.03571
1789.77382	13705.75
1792.96828	13672.89286
1796.16064	13652.89286
1799.3509	13610.17857
1802.53907	13578.46429
1805.72514	13540.03571
1808.90913	13552.89286
1812.09102	13514.03571
1815.27083	13474.89286
1818.44856	13482.60714
1821.6242	13447.89286
1824.79776	13456.32143
1827.96924	13435.60714
1831.13864	13397.03571
1834.30597	13397.17857
1837.47122	13370.89286
1840.6344	13393.32143
1843.7955	13362.32143
1846.95454	13346.46429
1850.11151	13321.03571
1853.26642	13296.03571
1856.41926	13306.32143
1859.57004	13281.75
1862.71876	13285.17857
1865.86542	13278.32143
1869.01003	13239.32143
1872.15258	13259.89286
1875.29308	13259.03571
1878.43152	13237.60714
1881.56792	13193.46429
1884.70227	13201.46429
1887.83457	13209.46429
1890.96482	13160.17857
1894.09304	13138.17857
1897.21921	13120.03571
1900.34335	13133.17857
1903.46544	13097.75
1906.58551	13072.60714
1909.70353	13051.03571
1912.81953	13032.17857
1915.93349	13050.89286
1919.04543	12982.75
1922.15534	12951.75
1925.26322	12960.46429
1928.36908	12918.89286
1931.47292	12913.60714
1934.57473	12913.75
1937.67453	12903.17857
1940.77232	12841.32143
1943.86808	12811.03571
1946.96184	12774.32143
1950.05358	12746.32143
1953.14331	12678.75
1956.23103	12702.75
1959.31675	12671.89286
1962.40046	12620.75
1965.48217	12598.03571
1968.56188	12538.46429
1971.63959	12510.75
1974.7153	12494.46429
1977.78901	12495.32143
1980.86073	12431.75
1983.93046	12395.17857
1986.99819	12333.17857
1990.06394	12321.75
1993.1277	12279.32143
1996.18947	12218.32143
1999.24925	12195.32143
2002.30706	12142.17857
2005.36288	12092.46429
2008.41672	12083.75
2011.46859	12025.46429
2014.51848	11999.75
2017.56639	11950.89286
2020.61233	11920.60714
2023.6563	11902.75
2026.6983	11873.32143
2029.73833	11827.89286
2032.7764	11804.60714
2035.8125	11806.89286
2038.84664	11754.32143
2041.87881	11726.32143
2044.90903	11733.32143
2047.93729	11698.89286
2050.96359	11697.75
2053.98794	11682.32143
2057.01034	11674.60714
2060.03078	11656.32143
2063.04927	11643.32143
2066.06582	11648.03571
2069.08042	11634.89286
2072.09307	11637.17857
2075.10378	11638.03571
2078.11255	11627.89286
2081.11938	11601.17857
2084.12426	11624.03571
2087.12722	11615.17857
2090.12824	11620.32143
2093.12732	11634.60714
2096.12447	11599.32143
2099.11969	11600.03571
2102.11299	11604.60714
2105.10435	11608.75
2108.09379	11620.17857
2111.08131	11637.03571
2114.0669	11648.03571
2117.05057	11632.03571
2120.03233	11675.46429
2123.01216	11692.17857
2125.99008	11677.75
2128.96609	11705.75
2131.94018	11708.32143
2134.91236	11716.89286
2137.88263	11733.46429
2140.851	11697.60714
2143.81746	11719.46429
2146.78201	11754.03571
2149.74466	11751.46429
2152.7054	11735.03571
2155.66425	11725.03571
2158.6212	11702.89286
2161.57625	11701.17857
2164.52941	11735.89286
2167.48067	11722.89286
2170.43004	11693.75
2173.37752	11692.89286
2176.32311	11696.75
2179.26681	11688.60714
2182.20863	11698.89286
2185.14856	11679.46429
2188.08661	11646.60714
2191.02278	11668.75
2193.95707	11657.46429
2196.88948	11632.03571
2199.82001	11649.03571
2202.74867	11595.60714
2205.67545	11627.17857
2208.60037	11613.89286
2211.52341	11573.32143
2214.44458	11575.03571
2217.36388	11558.75
2220.28132	11530.60714
2223.1969	11507.60714
2226.11061	11455.46429
2229.02246	11449.60714
2231.93245	11410.60714
2234.84058	11394.03571
2237.74686	11361.17857
2240.65128	11391.03571
2243.55385	11354.03571
2246.45456	11369.60714
2249.35343	11343.75
2252.25044	11355.89286
2255.14561	11314.89286
2258.03893	11331.89286
2260.93041	11286.03571
2263.82004	11261.89286
2266.70783	11233.32143
2269.59378	11210.75
2272.4779	11165.89286
2275.36017	11153.60714
2278.24061	11112.03571
2281.11922	11095.46429
2283.996	11092.75
2286.87094	11109.75
2289.74405	11073.75
2292.61534	11051.17857
2295.4848	11049.03571
2298.35243	11056.17857
2301.21824	11047.75
2304.08223	11033.17857
2306.94439	11007.03571
2309.80474	10955.46429
2312.66327	10986.46429
2315.51999	10960.03571
2318.37489	10966.89286
2321.22797	10909.32143
2324.07925	10883.46429
2326.92871	10880.89286
2329.77637	10853.03571
2332.62222	10851.32143
2335.46626	10812.75
2338.3085	10817.89286
2341.14893	10813.89286
2343.98756	10806.03571
2346.8244	10758.46429
2349.65943	10735.32143
2352.49267	10769.89286
2355.32411	10725.32143
2358.15376	10726.60714
2360.98161	10723.17857
2363.80768	10718.60714
2366.63195	10705.60714
2369.45444	10671.89286
2372.27514	10671.60714
2375.09405	10649.03571
2377.91118	10640.32143
2380.72652	10657.32143
2383.54009	10606.32143
2386.35187	10601.17857
2389.16188	10566.89286
2391.97011	10533.32143
2394.77657	10528.75
2397.58125	10537.32143
2400.38416	10522.75
2403.18529	10509.03571
2405.98466	10480.75
2408.78226	10454.60714
2411.57809	10432.75
2414.37216	10444.32143
2417.16446	10399.60714
2419.955	10395.60714
2422.74378	10361.46429
2425.5308	10361.89286
2428.31606	10372.89286
2431.09956	10381.46429
2433.88131	10347.32143
2436.6613	10332.32143
2439.43954	10315.03571
2442.21603	10327.03571
2444.99077	10275.60714
2447.76377	10295.46429
2450.53501	10292.46429
2453.30451	10290.32143
2456.07226	10240.32143
2458.83827	10246.32143
2461.60254	10198.17857
2464.36507	10202.32143
2467.12586	10178.32143
2469.88492	10178.03571
2472.64224	10155.75
2475.39782	10173.17857
2478.15167	10137.75
2480.90379	10128.89286
2483.65417	10158.32143
2486.40283	10170.32143
2489.14976	10117.46429
2491.89497	10142.60714
2494.63845	10139.32143
2497.3802	10128.75
2500.12024	10116.17857
2502.85855	10080.89286
2505.59514	10061.89286
2508.33002	10047.17857
2511.06318	10049.03571
2513.79462	10045.17857
2516.52435	10025.46429
2519.25237	10000.75
2521.97867	9976.17857
2524.70327	9972.60714
2527.42616	9976.32143
2530.14734	9969.32143
2532.86681	9937.46429
2535.58458	9934.17857
2538.30065	9887.60714
2541.01501	9895.60714
2543.72768	9887.03571
2546.43864	9877.60714
2549.14791	9844.60714
2551.85548	9848.89286
2554.56136	9806.89286
2557.26554	9794.60714
2559.96803	9788.17857
2562.66883	9741.03571
2565.36794	9718.03571
2568.06536	9730.89286
2570.7611	9666.60714
2573.45514	9689.17857
2576.14751	9667.60714
2578.83819	9629.46429
2581.52719	9624.32143
2584.21451	9612.46429
2586.90015	9590.75
2589.58411	9587.89286
2592.2664	9577.32143
2594.94701	9557.75
2597.62594	9508.03571
2600.30321	9485.32143
2602.9788	9460.60714
2605.65273	9439.46429
2608.32498	9446.32143
2610.99557	9437.03571
2613.66449	9425.32143
2616.33175	9418.32143
2618.99734	9394.32143
2621.66128	9361.75
2624.32355	9361.32143
2626.98416	9369.03571
2629.64311	9330.03571
2632.30041	9332.46429
2634.95605	9303.89286
2637.61004	9286.89286
2640.26238	9275.46429
2642.91306	9274.89286
2645.56209	9289.03571
2648.20948	9264.32143
2650.85521	9257.89286
2653.4993	9247.46429
2656.14175	9231.60714
2658.78255	9253.46429
2661.42171	9239.75
2664.05923	9253.46429
2666.6951	9221.03571
2669.32934	9244.75
2671.96194	9242.89286
2674.59291	9223.89286
2677.22224	9197.60714
2679.84993	9194.32143
2682.476	9230.46429
2685.10043	9216.46429
2687.72324	9214.60714
2690.34441	9207.03571
2692.96396	9202.03571
2695.58188	9237.46429
2698.19818	9188.32143
2700.81285	9209.32143
2703.4259	9185.75
2706.03733	9175.60714
2708.64714	9220.75
2711.25533	9194.46429
2713.86191	9193.89286
2716.46687	9184.03571
2719.07021	9205.60714
2721.67194	9199.75
2724.27206	9196.17857
2726.87057	9183.75
2729.46747	9168.89286
2732.06276	9151.17857
2734.65644	9163.17857
2737.24852	9155.46429
2739.83899	9160.60714
2742.42786	9133.60714
2745.01513	9130.32143
2747.60079	9112.46429
2750.18486	9074.75
2752.76733	9083.17857
2755.3482	9074.17857
2757.92747	9092.60714
2760.50515	9046.60714
2763.08123	9065.89286
2765.65573	9023.03571
2768.22863	9017.17857
2770.79994	9017.17857
2773.36967	9002.89286
2775.9378	9006.17857
2778.50435	8953.32143
2781.06932	8951.75
2783.6327	8937.60714
2786.1945	8916.46429
2788.75471	8912.03571
2791.31335	8860.17857
2793.87041	8863.89286
2796.42589	8852.46429
2798.97979	8862.03571
2801.53212	8821.03571
2804.08288	8794.46429
2806.63206	8771.89286
2809.17967	8758.75
2811.72571	8702.03571
2814.27018	8742.03571
2816.81308	8692.46429
2819.35442	8672.32143
2821.89419	8668.32143
2824.43239	8654.60714
2826.96904	8652.89286
2829.50412	8642.75
2832.03763	8627.75
2834.56959	8626.17857
2837.1	8628.46429
2839.62884	8609.17857
2842.15613	8583.46429
2844.68186	8589.46429
2847.20604	8594.46429
2849.72867	8569.46429
2852.24974	8536.60714
2854.76927	8509.17857
2857.28724	8493.89286
2859.80367	8489.75
2862.31855	8460.89286
2864.83189	8449.89286
2867.34368	8433.17857
2869.85393	8448.89286
2872.36264	8428.89286
2874.8698	8457.60714
2877.37543	8467.75
2879.87952	8431.03571
2882.38207	8436.46429
2884.88308	8395.89286
2887.38256	8416.32143
2889.88051	8414.89286
2892.37692	8408.03571
2894.8718	8408.89286
2897.36515	8436.75
2899.85698	8447.89286
2902.34727	8449.32143
2904.83604	8448.46429
2907.32328	8420.17857
2909.809	8448.46429
2912.29319	8458.17857
2914.77587	8446.89286
2917.25702	8474.46429
2919.73665	8442.17857
2922.21476	8449.03571
2924.69136	8429.46429
2927.16644	8447.32143
2929.64	8443.46429
2932.11205	8447.60714
2934.58258	8410.46429
2937.05161	8422.03571
2939.51912	8445.60714
2941.98513	8422.75
2944.44962	8420.75
2946.91261	8395.46429
2949.37409	8409.17857
2951.83407	8391.03571
2954.29254	8381.17857
2956.74951	8376.32143
2959.20498	8355.17857
2961.65895	8354.03571
2964.11142	8347.75
2966.56239	8354.46429
2969.01186	8348.46429
2971.45984	8329.89286
2973.90632	8313.60714
2976.35131	8300.89286
2978.7948	8281.89286
2981.23681	8282.03571
2983.67732	8262.03571
2986.11635	8234.60714
2988.55388	8221.60714
2990.98993	8225.89286
2993.4245	8206.60714
2995.85758	8184.32143
2998.28917	8173.17857
3000.71928	8166.60714
3003.14791	8125.03571
3005.57506	8132.89286
3008.00073	8119.17857
3010.42493	8099.89286
3012.84764	8119.32143
3015.26888	8099.03571
3017.68865	8096.32143
3020.10694	8084.32143
3022.52376	8063.60714
3024.9391	8054.03571
3027.35298	8050.03571
3029.76539	8064.03571
3032.17632	8027.75
3034.5858	8022.17857
3036.9938	8018.46429
3039.40034	8006.89286
3041.80542	7999.03571
3044.20903	7999.89286
3046.61118	7990.46429
3049.01187	7993.17857
3051.4111	7981.17857
3053.80888	7965.75
3056.20519	7929.60714
3058.60005	7891.17857
3060.99345	7907.89286
3063.3854	7889.03571
3065.7759	7870.32143
3068.16494	7891.46429
3070.55254	7847.60714
3072.93868	7840.89286
3075.32338	7811.17857
3077.70662	7810.89286
3080.08842	7793.46429
3082.46878	7764.89286
3084.84769	7786.60714
3087.22515	7780.89286
3089.60118	7773.17857
3091.97576	7798.89286
3094.3489	7784.46429
3096.72061	7793.89286
3099.09087	7808.75
3101.4597	7793.17857
3103.82709	7764.89286
3106.19305	7781.89286
3108.55757	7806.46429
3110.92066	7780.46429
3113.28232	7767.17857
3115.64255	7763.60714
3118.00134	7760.46429
3120.35871	7729.75
3122.71466	7737.89286
3125.06917	7733.32143
3127.42226	7745.17857
3129.77393	7742.17857
3132.12417	7740.03571
3134.47299	7704.17857
3136.82039	7723.89286
3139.16636	7729.75
3141.51092	7718.89286
3143.85406	7747.89286
3146.19579	7742.32143
3148.53609	7748.89286
3150.87499	7773.60714
3153.21246	7772.60714
3155.54853	7778.46429
3157.88318	7790.60714
3160.21642	7782.32143
3162.54826	7821.17857
3164.87868	7812.32143
3167.2077	7776.46429
3169.5353	7803.89286
3171.86151	7799.46429
3174.18631	7799.03571
3176.5097	7815.03571
3178.83169	7788.17857
3181.15228	7799.89286
3183.47147	7775.03571
3185.78926	7737.89286
3188.10565	7742.60714
3190.42065	7743.89286
3192.73424	7765.75
3195.04645	7749.75
3197.35725	7775.60714
3199.66667	7748.03571
3201.97469	7744.32143
3204.28132	7745.17857
3206.58656	7783.60714
3208.8904	7801.32143
3211.19287	7827.46429
3213.49394	7807.03571
3215.79363	7804.46429
3218.09193	7822.89286
3220.38884	7814.17857
3222.68438	7822.60714
3224.97853	7798.03571
3227.2713	7787.32143
3229.56269	7794.60714
3231.8527	7763.17857
3234.14133	7761.89286
3236.42858	7745.60714
3238.71446	7735.03571
3240.99896	7740.60714
3243.28209	7703.60714
3245.56384	7690.60714
3247.84423	7687.17857
3250.12324	7687.75
3252.40088	7677.17857
3254.67715	7686.60714
3256.95205	7673.32143
3259.22558	7674.89286
3261.49775	7671.46429
3263.76855	7648.32143
3266.03799	7634.60714
3268.30606	7643.17857
3270.57277	7620.89286
3272.83812	7602.17857
3275.10211	7611.03571
3277.36474	7587.32143
3279.62601	7580.17857
3281.88593	7559.03571
3284.14448	7563.89286
3286.40168	7567.46429
3288.65753	7528.03571
3290.91202	7545.03571
3293.16516	7509.32143
3295.41695	7525.17857
3297.66738	7460.32143
3299.91647	7443.46429
3302.16421	7405.32143
3304.4106	7393.89286
3306.65564	7302.46429
3308.89933	7260.75
3311.14169	7216.89286
3313.38269	7170.32143
3315.62236	7138.89286
3317.86068	7076.75
3320.09766	7015.46429
3322.3333	6986.75
3324.5676	6956.75
3326.80056	6848.60714
3329.03219	6808.32143
3331.26248	2.03571
3333.49143	-1.25
3335.71905	-0.10714
