Data from AgNPs_FTO_APTES_UA_10uM_CRN_50uM_R6G_10uM_NaF_0.1M_Addition_RamanShift__29__17-09-14-849.txt Node

Date: Thu Feb 17 17:09:14 GMT 2022
User: TCL
Spectrometer: QEP01345
Trigger mode: 4
Integration Time (sec): 1.000000E1
Scans to average: 7
Electric dark correction enabled: true
Nonlinearity correction enabled: false
Boxcar width: 0
XAxis mode: Raman Shifts
Number of Pixels in Spectrum: 1044
>>>>>Begin Spectral Data<<<<<
46.04893	-0.48214
50.45542	-0.33929
54.85868	1.08929
59.25871	-1.48214
63.6555	54.08929
68.04907	53.23214
72.43941	60.66071
76.82654	66.66071
81.21044	67.51786
85.59113	70.94643
89.96862	75.23214
94.34289	70.66071
98.71396	76.08929
103.08183	79.94643
107.4465	80.08929
111.80798	80.08929
116.16626	81.94643
120.52136	84.51786
124.87327	88.375
129.222	86.66071
133.56755	95.51786
137.90993	99.51786
142.24913	103.94643
146.58517	116.375
150.91804	127.66071
155.24774	150.51786
159.57429	180.80357
163.89768	233.23214
168.21792	301.80357
172.53501	404.375
176.84895	561.94643
181.15975	786.08929
185.46741	1106.80357
189.77193	1520.80357
194.07331	2047.375
198.37157	2639.51786
202.6667	3271.94643
206.9587	3925.51786
211.24758	4570.94643
215.53334	5250.08929
219.81599	6043.66071
224.09553	6940.375
228.37195	7960.23214
232.64527	9075.51786
236.91549	10142.23214
241.18261	11104.23214
245.44663	11883.66071
249.70755	12518.80357
253.96539	12961.80357
258.22014	13287.23214
262.4718	13439.66071
266.72039	13512.08929
270.96589	13482.08929
275.20832	13259.375
279.44768	12897.51786
283.68397	12502.51786
287.91719	12293.08929
292.14735	12376.51786
296.37445	12879.375
300.59849	13772.94643
304.81948	14886.23214
309.03742	15794.94643
313.25231	15900.80357
317.46415	14958.23214
321.67296	13330.23214
325.87872	11993.51786
330.08145	11340.94643
334.28114	11330.23214
338.47781	11675.23214
342.67145	12181.66071
346.86207	12984.23214
351.04966	14229.08929
355.23424	15612.08929
359.4158	16636.375
363.59435	17067.94643
367.76989	17069.08929
371.94243	16949.94643
376.11196	16683.94643
380.27849	16460.94643
384.44203	16085.51786
388.60257	15628.23214
392.76012	15309.80357
396.91468	15333.23214
401.06626	15777.66071
405.21485	16109.66071
409.36047	15590.08929
413.50311	14296.51786
417.64277	13052.23214
421.77947	12271.23214
425.9132	11952.375
430.04396	11847.375
434.17176	11870.94643
438.2966	12128.23214
442.41849	12519.66071
446.53742	12932.51786
450.6534	13335.80357
454.76644	13543.23214
458.87653	13481.23214
462.98368	13314.375
467.08789	12973.94643
471.18916	12579.51786
475.2875	12136.375
479.38291	11766.08929
483.4754	11486.23214
487.56496	11348.23214
491.6516	11278.375
495.73531	11238.375
499.81612	11329.23214
503.89401	11528.66071
507.96899	11874.66071
512.04106	12289.51786
516.11023	12795.80357
520.1765	13099.08929
524.23987	13139.66071
528.30034	12779.66071
532.35792	12380.94643
536.41261	11992.375
540.46441	11569.66071
544.51333	11286.51786
548.55936	11275.80357
552.60252	11520.66071
556.64279	11906.80357
560.6802	12133.66071
564.71473	12466.80357
568.7464	13343.66071
572.7752	13719.66071
576.80114	12862.23214
580.82422	11853.94643
584.84444	11422.66071
588.86181	11318.94643
592.87633	11383.23214
596.888	11624.80357
600.89682	12320.94643
604.9028	14666.80357
608.90594	21319.23214
612.90624	30586.80357
616.90371	29659.23214
620.89834	18511.80357
624.89015	13182.80357
628.87913	12142.66071
632.86528	12328.08929
636.84862	12711.66071
640.82913	12470.375
644.80683	11592.375
648.78172	11002.94643
652.75379	11034.08929
656.72306	11840.08929
660.68952	12754.23214
664.65319	12457.94643
668.61405	11445.94643
672.57211	10938.94643
676.52738	10942.08929
680.47986	10938.08929
684.42955	10785.375
688.37646	10695.94643
692.32058	10726.51786
696.26192	10870.80357
700.20048	11020.375
704.13626	11139.23214
708.06928	11059.80357
711.99952	10912.94643
715.927	10951.23214
719.85171	11055.80357
723.77365	11131.94643
727.69284	11069.80357
731.60928	10948.23214
735.52295	10941.23214
739.43388	10996.66071
743.34206	11024.80357
747.24749	11054.08929
751.15017	11088.08929
755.05012	11325.375
758.94733	12147.23214
762.8418	14198.375
766.73354	17636.66071
770.62254	21139.23214
774.50882	23452.375
778.39237	23014.08929
782.27321	19227.23214
786.15132	15057.66071
790.02671	12686.08929
793.89938	11677.94643
797.76935	11247.08929
801.6366	11108.23214
805.50115	11030.375
809.36299	11000.80357
813.22213	10953.23214
817.07857	10882.51786
820.93231	10888.66071
824.78336	10883.80357
828.63172	10999.375
832.47738	11043.23214
836.32036	10942.66071
840.16066	10834.94643
843.99827	10741.375
847.8332	10731.08929
851.66546	10748.80357
855.49504	10768.66071
859.32195	10727.08929
863.1462	10683.66071
866.96777	10652.51786
870.78668	10641.51786
874.60293	10753.80357
878.41652	10813.375
882.22745	10943.08929
886.03573	10999.94643
889.84136	10952.51786
893.64433	10865.08929
897.44466	10864.51786
901.24235	10876.375
905.0374	10807.66071
908.8298	10700.94643
912.61957	10575.94643
916.40671	10566.80357
920.19121	10637.80357
923.97308	10706.375
927.75233	11010.08929
931.52895	11305.23214
935.30295	11225.23214
939.07433	10771.23214
942.84309	10355.94643
946.60924	10058.66071
950.37278	9972.94643
954.13371	9936.23214
957.89203	9884.51786
961.64774	9876.08929
965.40086	9800.51786
969.15137	9795.08929
972.89929	9780.51786
976.64461	9813.80357
980.38733	9794.23214
984.12747	9811.08929
987.86502	9864.94643
991.59999	9917.51786
995.33237	10026.80357
999.06217	10211.23214
1002.78939	10472.08929
1006.51404	10714.66071
1010.23611	10982.08929
1013.95561	11133.80357
1017.67255	11125.375
1021.38692	10997.94643
1025.09872	10811.94643
1028.80796	10692.94643
1032.51465	10737.94643
1036.21877	10896.375
1039.92035	10998.80357
1043.61937	11046.80357
1047.31584	11021.66071
1051.00976	10959.375
1054.70114	10834.08929
1058.38998	10794.66071
1062.07627	10785.375
1065.76003	10777.08929
1069.44126	10794.23214
1073.11995	10940.80357
1076.79611	11188.94643
1080.46974	11619.08929
1084.14085	12166.80357
1087.80943	12656.66071
1091.47549	12817.08929
1095.13903	12415.08929
1098.80005	11774.94643
1102.45857	11398.375
1106.11456	11321.66071
1109.76805	11563.08929
1113.41903	12101.80357
1117.06751	12890.66071
1120.71348	13956.23214
1124.35696	15117.23214
1127.99793	15796.80357
1131.63641	15349.23214
1135.2724	14077.66071
1138.90589	12968.80357
1142.5369	12273.08929
1146.16542	11799.94643
1149.79145	11508.66071
1153.415	11448.375
1157.03607	11523.51786
1160.65467	11782.08929
1164.27079	12259.66071
1167.88443	13086.94643
1171.49561	14458.94643
1175.10432	16786.80357
1178.71056	19994.80357
1182.31434	22443.80357
1185.91565	22801.23214
1189.51451	21628.375
1193.11091	19677.51786
1196.70485	17670.94643
1200.29634	16417.94643
1203.88538	15417.375
1207.47197	14131.51786
1211.05612	13020.08929
1214.63782	12378.80357
1218.21708	12050.66071
1221.79391	11981.51786
1225.36829	12009.51786
1228.94024	12015.51786
1232.50976	12007.51786
1236.07685	12078.375
1239.6415	12179.80357
1243.20374	12380.23214
1246.76355	12525.375
1250.32093	12691.51786
1253.8759	13001.23214
1257.42845	13459.80357
1260.97859	14018.66071
1264.52631	14614.80357
1268.07163	15148.94643
1271.61453	15585.51786
1275.15503	15806.375
1278.69312	15758.23214
1282.22882	15812.375
1285.76211	16260.66071
1289.29301	16881.375
1292.82151	17511.23214
1296.34761	18262.80357
1299.87133	19528.94643
1303.39266	21863.94643
1306.9116	25630.80357
1310.42815	29468.80357
1313.94233	30881.23214
1317.45412	28762.80357
1320.96354	25093.80357
1324.47058	21560.80357
1327.97525	18859.80357
1331.47754	17441.51786
1334.97747	17066.375
1338.47502	17535.08929
1341.97022	18683.23214
1345.46305	20584.23214
1348.95352	23121.23214
1352.44163	26343.94643
1355.92738	30865.94643
1359.41078	37326.80357
1362.89183	42030.23214
1366.37053	39149.375
1369.84688	31407.51786
1373.32088	24725.08929
1376.79254	20447.08929
1380.26186	18084.23214
1383.72883	16672.94643
1387.19347	15584.23214
1390.65578	14524.80357
1394.11575	13757.80357
1397.57339	13297.66071
1401.0287	13146.375
1404.48168	13260.375
1407.93234	13334.08929
1411.38068	13624.80357
1414.82669	13871.375
1418.27039	13967.80357
1421.71177	13877.23214
1425.15083	13759.94643
1428.58758	13703.66071
1432.02203	13929.80357
1435.45416	14108.08929
1438.88399	14124.08929
1442.31151	14010.23214
1445.73673	14006.51786
1449.15965	14058.51786
1452.58027	13962.94643
1455.9986	13718.375
1459.41463	13645.94643
1462.82837	13802.375
1466.23982	14190.51786
1469.64898	14554.94643
1473.05586	14796.66071
1476.46045	14983.94643
1479.86276	15406.375
1483.26279	15959.66071
1486.66054	16701.08929
1490.05602	17653.08929
1493.44922	19133.08929
1496.84016	21380.66071
1500.22882	24946.66071
1503.61521	29833.375
1506.99934	35291.80357
1510.38121	39683.94643
1513.76081	40603.66071
1517.13816	36703.80357
1520.51324	30101.80357
1523.88607	24189.51786
1527.25665	20350.23214
1530.62498	18305.51786
1533.99105	17167.94643
1537.35488	16490.80357
1540.71647	16227.375
1544.07581	16249.94643
1547.4329	16466.80357
1550.78776	16625.375
1554.14038	16774.08929
1557.49077	16937.51786
1560.83892	17306.375
1564.18484	18036.08929
1567.52853	19090.375
1570.86999	19921.80357
1574.20922	20296.23214
1577.54624	20011.08929
1580.88103	18424.23214
1584.2136	16427.80357
1587.54395	15227.80357
1590.87208	15026.94643
1594.19801	15909.375
1597.52172	17227.375
1600.84321	17899.08929
1604.16251	17366.23214
1607.47959	16269.08929
1610.79447	15006.80357
1614.10715	13795.80357
1617.41763	12877.375
1620.7259	12328.94643
1624.03199	12123.375
1627.33587	12198.08929
1630.63757	12507.94643
1633.93707	13164.375
1637.23439	14264.80357
1640.52951	15996.08929
1643.82246	18764.51786
1647.11321	22347.23214
1650.40179	24954.51786
1653.68819	24254.94643
1656.97241	20431.23214
1660.25446	16417.51786
1663.53433	13730.08929
1666.81203	12212.23214
1670.08756	11391.375
1673.36092	10871.80357
1676.63211	10549.66071
1679.90115	10303.66071
1683.16801	10168.375
1686.43272	9980.08929
1689.69527	9887.08929
1692.95567	9837.66071
1696.2139	9770.80357
1699.46999	9789.94643
1702.72392	9732.51786
1705.97571	9746.375
1709.22535	9726.23214
1712.47284	9742.08929
1715.71819	9794.66071
1718.96139	9775.51786
1722.20246	9751.94643
1725.44139	9689.80357
1728.67818	9614.80357
1731.91284	9510.23214
1735.14537	9421.66071
1738.37576	9357.66071
1741.60403	9331.23214
1744.83017	9280.51786
1748.05418	9279.80357
1751.27607	9228.375
1754.49584	9212.23214
1757.71349	9211.08929
1760.92903	9164.08929
1764.14244	9135.08929
1767.35375	9101.375
1770.56294	9079.80357
1773.77002	9034.80357
1776.97499	8996.23214
1780.17785	8958.66071
1783.37861	8915.08929
1786.57727	8903.08929
1789.77382	8917.66071
1792.96828	8903.23214
1796.16064	8880.08929
1799.3509	8844.23214
1802.53907	8830.375
1805.72514	8819.375
1808.90913	8777.08929
1812.09102	8760.08929
1815.27083	8748.66071
1818.44856	8699.66071
1821.6242	8692.51786
1824.79776	8666.08929
1827.96924	8666.66071
1831.13864	8644.94643
1834.30597	8641.23214
1837.47122	8617.51786
1840.6344	8602.08929
1843.7955	8579.23214
1846.95454	8599.23214
1850.11151	8590.375
1853.26642	8588.94643
1856.41926	8547.66071
1859.57004	8563.51786
1862.71876	8556.66071
1865.86542	8590.23214
1869.01003	8558.08929
1872.15258	8594.375
1875.29308	8568.80357
1878.43152	8533.23214
1881.56792	8573.23214
1884.70227	8536.94643
1887.83457	8554.23214
1890.96482	8531.94643
1894.09304	8517.94643
1897.21921	8522.51786
1900.34335	8515.375
1903.46544	8502.80357
1906.58551	8527.375
1909.70353	8486.80357
1912.81953	8500.23214
1915.93349	8472.375
1919.04543	8464.94643
1922.15534	8445.375
1925.26322	8443.51786
1928.36908	8415.94643
1931.47292	8406.80357
1934.57473	8348.94643
1937.67453	8349.66071
1940.77232	8299.23214
1943.86808	8259.80357
1946.96184	8270.08929
1950.05358	8257.08929
1953.14331	8211.08929
1956.23103	8192.375
1959.31675	8199.23214
1962.40046	8182.80357
1965.48217	8139.08929
1968.56188	8141.66071
1971.63959	8134.23214
1974.7153	8112.375
1977.78901	8108.51786
1980.86073	8042.51786
1983.93046	8003.80357
1986.99819	7946.80357
1990.06394	7956.23214
1993.1277	7924.08929
1996.18947	7906.375
1999.24925	7881.66071
2002.30706	7812.51786
2005.36288	7792.66071
2008.41672	7771.51786
2011.46859	7785.375
2014.51848	7752.23214
2017.56639	7725.66071
2020.61233	7682.80357
2023.6563	7669.51786
2026.6983	7629.51786
2029.73833	7631.80357
2032.7764	7603.80357
2035.8125	7616.80357
2038.84664	7600.51786
2041.87881	7570.08929
2044.90903	7563.66071
2047.93729	7537.80357
2050.96359	7531.23214
2053.98794	7533.94643
2057.01034	7487.375
2060.03078	7514.94643
2063.04927	7488.23214
2066.06582	7490.66071
2069.08042	7508.23214
2072.09307	7487.23214
2075.10378	7476.23214
2078.11255	7455.66071
2081.11938	7442.80357
2084.12426	7465.23214
2087.12722	7455.375
2090.12824	7462.80357
2093.12732	7439.51786
2096.12447	7461.94643
2099.11969	7452.375
2102.11299	7451.80357
2105.10435	7465.375
2108.09379	7461.375
2111.08131	7486.94643
2114.0669	7464.08929
2117.05057	7492.66071
2120.03233	7474.80357
2123.01216	7485.23214
2125.99008	7501.51786
2128.96609	7498.94643
2131.94018	7516.375
2134.91236	7548.66071
2137.88263	7498.08929
2140.851	7513.51786
2143.81746	7522.375
2146.78201	7523.375
2149.74466	7509.23214
2152.7054	7507.08929
2155.66425	7463.94643
2158.6212	7475.94643
2161.57625	7463.23214
2164.52941	7449.94643
2167.48067	7442.51786
2170.43004	7460.94643
2173.37752	7447.08929
2176.32311	7478.23214
2179.26681	7460.375
2182.20863	7468.51786
2185.14856	7487.23214
2188.08661	7468.66071
2191.02278	7458.375
2193.95707	7459.51786
2196.88948	7416.51786
2199.82001	7404.51786
2202.74867	7404.51786
2205.67545	7388.375
2208.60037	7404.51786
2211.52341	7401.80357
2214.44458	7389.08929
2217.36388	7384.94643
2220.28132	7345.08929
2223.1969	7306.66071
2226.11061	7320.94643
2229.02246	7311.23214
2231.93245	7257.51786
2234.84058	7262.51786
2237.74686	7253.66071
2240.65128	7255.80357
2243.55385	7251.51786
2246.45456	7247.80357
2249.35343	7252.94643
2252.25044	7244.23214
2255.14561	7246.08929
2258.03893	7242.23214
2260.93041	7259.23214
2263.82004	7249.375
2266.70783	7232.80357
2269.59378	7214.23214
2272.4779	7189.23214
2275.36017	7178.66071
2278.24061	7151.94643
2281.11922	7146.08929
2283.996	7131.23214
2286.87094	7094.51786
2289.74405	7084.94643
2292.61534	7080.51786
2295.4848	7076.23214
2298.35243	7065.66071
2301.21824	7042.23214
2304.08223	7064.51786
2306.94439	7034.66071
2309.80474	7039.375
2312.66327	7059.51786
2315.51999	7017.23214
2318.37489	7023.08929
2321.22797	7009.51786
2324.07925	7013.94643
2326.92871	6988.80357
2329.77637	6977.66071
2332.62222	6965.08929
2335.46626	6956.08929
2338.3085	6945.51786
2341.14893	6965.08929
2343.98756	6982.66071
2346.8244	6953.375
2349.65943	6964.375
2352.49267	6986.375
2355.32411	6989.80357
2358.15376	7011.375
2360.98161	7028.08929
2363.80768	7034.08929
2366.63195	7075.94643
2369.45444	7047.80357
2372.27514	7057.08929
2375.09405	7052.51786
2377.91118	7014.23214
2380.72652	6976.08929
2383.54009	6929.80357
2386.35187	6919.66071
2389.16188	6856.51786
2391.97011	6834.08929
2394.77657	6814.66071
2397.58125	6813.08929
2400.38416	6806.66071
2403.18529	6760.80357
2405.98466	6747.94643
2408.78226	6725.66071
2411.57809	6721.80357
2414.37216	6725.66071
2417.16446	6710.375
2419.955	6712.80357
2422.74378	6695.375
2425.5308	6688.23214
2428.31606	6701.08929
2431.09956	6710.375
2433.88131	6692.66071
2436.6613	6691.80357
2439.43954	6704.80357
2442.21603	6707.66071
2444.99077	6685.80357
2447.76377	6706.80357
2450.53501	6713.51786
2453.30451	6698.51786
2456.07226	6699.80357
2458.83827	6684.23214
2461.60254	6704.66071
2464.36507	6666.375
2467.12586	6673.23214
2469.88492	6664.23214
2472.64224	6675.08929
2475.39782	6694.375
2478.15167	6686.94643
2480.90379	6715.23214
2483.65417	6734.23214
2486.40283	6783.51786
2489.14976	6778.08929
2491.89497	6789.80357
2494.63845	6777.08929
2497.3802	6788.66071
2500.12024	6772.08929
2502.85855	6733.08929
2505.59514	6698.94643
2508.33002	6661.23214
2511.06318	6626.66071
2513.79462	6586.375
2516.52435	6568.51786
2519.25237	6519.51786
2521.97867	6524.51786
2524.70327	6496.94643
2527.42616	6510.375
2530.14734	6475.94643
2532.86681	6435.51786
2535.58458	6466.375
2538.30065	6468.375
2541.01501	6465.66071
2543.72768	6472.94643
2546.43864	6458.51786
2549.14791	6464.08929
2551.85548	6464.23214
2554.56136	6462.66071
2557.26554	6445.23214
2559.96803	6470.66071
2562.66883	6432.94643
2565.36794	6423.08929
2568.06536	6396.94643
2570.7611	6406.08929
2573.45514	6374.80357
2576.14751	6381.51786
2578.83819	6356.80357
2581.52719	6353.08929
2584.21451	6313.80357
2586.90015	6306.08929
2589.58411	6302.08929
2592.2664	6292.375
2594.94701	6267.08929
2597.62594	6275.23214
2600.30321	6266.94643
2602.9788	6273.23214
2605.65273	6269.94643
2608.32498	6257.23214
2610.99557	6253.94643
2613.66449	6261.51786
2616.33175	6239.66071
2618.99734	6251.08929
2621.66128	6248.51786
2624.32355	6220.80357
2626.98416	6204.94643
2629.64311	6196.66071
2632.30041	6189.08929
2634.95605	6166.94643
2637.61004	6133.375
2640.26238	6149.375
2642.91306	6137.66071
2645.56209	6147.51786
2648.20948	6136.23214
2650.85521	6113.23214
2653.4993	6136.375
2656.14175	6108.66071
2658.78255	6139.66071
2661.42171	6137.08929
2664.05923	6176.23214
2666.6951	6158.51786
2669.32934	6188.51786
2671.96194	6187.66071
2674.59291	6204.66071
2677.22224	6203.51786
2679.84993	6187.08929
2682.476	6186.08929
2685.10043	6194.94643
2687.72324	6166.08929
2690.34441	6185.66071
2692.96396	6182.23214
2695.58188	6179.51786
2698.19818	6160.51786
2700.81285	6177.08929
2703.4259	6158.08929
2706.03733	6166.80357
2708.64714	6187.66071
2711.25533	6172.51786
2713.86191	6172.66071
2716.46687	6209.08929
2719.07021	6175.94643
2721.67194	6191.08929
2724.27206	6176.375
2726.87057	6192.66071
2729.46747	6192.375
2732.06276	6170.23214
2734.65644	6155.23214
2737.24852	6156.08929
2739.83899	6131.51786
2742.42786	6138.80357
2745.01513	6124.08929
2747.60079	6099.375
2750.18486	6090.94643
2752.76733	6107.94643
2755.3482	6082.375
2757.92747	6082.23214
2760.50515	6056.80357
2763.08123	6059.375
2765.65573	6045.375
2768.22863	6042.80357
2770.79994	6037.23214
2773.36967	6033.66071
2775.9378	6042.94643
2778.50435	6030.51786
2781.06932	6010.08929
2783.6327	6023.51786
2786.1945	6024.80357
2788.75471	6005.23214
2791.31335	6016.51786
2793.87041	6008.23214
2796.42589	6013.23214
2798.97979	6007.08929
2801.53212	6010.51786
2804.08288	6004.23214
2806.63206	5988.23214
2809.17967	6001.66071
2811.72571	6001.94643
2814.27018	6005.66071
2816.81308	6002.80357
2819.35442	5993.80357
2821.89419	5981.94643
2824.43239	5996.375
2826.96904	6018.66071
2829.50412	6002.375
2832.03763	6027.66071
2834.56959	6053.80357
2837.1	6050.80357
2839.62884	6054.80357
2842.15613	6045.66071
2844.68186	6091.375
2847.20604	6123.375
2849.72867	6164.80357
2852.24974	6193.80357
2854.76927	6182.23214
2857.28724	6184.66071
2859.80367	6204.80357
2862.31855	6188.80357
2864.83189	6167.94643
2867.34368	6134.375
2869.85393	6162.51786
2872.36264	6131.23214
2874.8698	6136.375
2877.37543	6151.51786
2879.87952	6121.80357
2882.38207	6077.08929
2884.88308	6104.66071
2887.38256	6102.51786
2889.88051	6094.08929
2892.37692	6071.51786
2894.8718	6063.08929
2897.36515	6098.66071
2899.85698	6086.80357
2902.34727	6094.08929
2904.83604	6075.66071
2907.32328	6107.23214
2909.809	6101.80357
2912.29319	6105.08929
2914.77587	6083.375
2917.25702	6077.375
2919.73665	6080.80357
2922.21476	6042.80357
2924.69136	6045.08929
2927.16644	6041.375
2929.64	6032.51786
2932.11205	6019.51786
2934.58258	5998.08929
2937.05161	6015.51786
2939.51912	5972.66071
2941.98513	5966.375
2944.44962	5932.80357
2946.91261	5908.375
2949.37409	5905.80357
2951.83407	5909.66071
2954.29254	5866.80357
2956.74951	5833.66071
2959.20498	5837.94643
2961.65895	5822.375
2964.11142	5822.80357
2966.56239	5812.66071
2969.01186	5804.23214
2971.45984	5769.375
2973.90632	5777.94643
2976.35131	5759.23214
2978.7948	5750.08929
2981.23681	5739.80357
2983.67732	5735.23214
2986.11635	5713.23214
2988.55388	5700.51786
2990.98993	5702.51786
2993.4245	5673.23214
2995.85758	5647.23214
2998.28917	5657.94643
3000.71928	5654.94643
3003.14791	5637.94643
3005.57506	5634.375
3008.00073	5636.66071
3010.42493	5617.94643
3012.84764	5591.375
3015.26888	5620.375
3017.68865	5594.23214
3020.10694	5608.80357
3022.52376	5596.66071
3024.9391	5549.94643
3027.35298	5577.08929
3029.76539	5564.08929
3032.17632	5549.08929
3034.5858	5540.23214
3036.9938	5528.51786
3039.40034	5506.80357
3041.80542	5513.08929
3044.20903	5486.23214
3046.61118	5487.66071
3049.01187	5479.08929
3051.4111	5483.66071
3053.80888	5471.66071
3056.20519	5468.51786
3058.60005	5446.80357
3060.99345	5455.80357
3063.3854	5411.66071
3065.7759	5399.08929
3068.16494	5407.23214
3070.55254	5388.375
3072.93868	5364.08929
3075.32338	5367.23214
3077.70662	5354.375
3080.08842	5336.66071
3082.46878	5334.375
3084.84769	5340.375
3087.22515	5316.80357
3089.60118	5321.51786
3091.97576	5333.51786
3094.3489	5319.66071
3096.72061	5342.66071
3099.09087	5326.80357
3101.4597	5314.375
3103.82709	5322.51786
3106.19305	5298.51786
3108.55757	5320.08929
3110.92066	5331.51786
3113.28232	5318.08929
3115.64255	5310.08929
3118.00134	5294.375
3120.35871	5275.51786
3122.71466	5294.51786
3125.06917	5300.94643
3127.42226	5280.80357
3129.77393	5268.66071
3132.12417	5271.23214
3134.47299	5295.94643
3136.82039	5316.51786
3139.16636	5294.08929
3141.51092	5318.08929
3143.85406	5318.08929
3146.19579	5330.375
3148.53609	5333.51786
3150.87499	5323.08929
3153.21246	5333.94643
3155.54853	5367.23214
3157.88318	5359.375
3160.21642	5358.80357
3162.54826	5374.80357
3164.87868	5375.80357
3167.2077	5390.23214
3169.5353	5400.375
3171.86151	5405.08929
3174.18631	5391.94643
3176.5097	5412.08929
3178.83169	5383.80357
3181.15228	5392.66071
3183.47147	5396.94643
3185.78926	5414.51786
3188.10565	5395.94643
3190.42065	5410.23214
3192.73424	5426.80357
3195.04645	5406.375
3197.35725	5416.51786
3199.66667	5416.51786
3201.97469	5429.08929
3204.28132	5447.08929
3206.58656	5433.94643
3208.8904	5460.80357
3211.19287	5459.66071
3213.49394	5493.23214
3215.79363	5491.08929
3218.09193	5487.94643
3220.38884	5502.66071
3222.68438	5526.66071
3224.97853	5495.375
3227.2713	5499.94643
3229.56269	5503.66071
3231.8527	5493.80357
3234.14133	5495.23214
3236.42858	5455.51786
3238.71446	5473.23214
3240.99896	5472.375
3243.28209	5455.80357
3245.56384	5433.51786
3247.84423	5454.23214
3250.12324	5453.375
3252.40088	5431.375
3254.67715	5421.66071
3256.95205	5433.66071
3259.22558	5443.23214
3261.49775	5439.66071
3263.76855	5433.66071
3266.03799	5414.66071
3268.30606	5430.51786
3270.57277	5437.66071
3272.83812	5408.23214
3275.10211	5374.66071
3277.36474	5379.66071
3279.62601	5396.51786
3281.88593	5366.80357
3284.14448	5363.94643
3286.40168	5365.80357
3288.65753	5383.23214
3290.91202	5357.08929
3293.16516	5369.08929
3295.41695	5347.51786
3297.66738	5326.80357
3299.91647	5306.51786
3302.16421	5266.375
3304.4106	5246.23214
3306.65564	5204.66071
3308.89933	5160.94643
3311.14169	5139.23214
3313.38269	5102.375
3315.62236	5061.23214
3317.86068	5010.94643
3320.09766	4977.23214
3322.3333	4939.23214
3324.5676	4936.375
3326.80056	4842.66071
3329.03219	4822.08929
3331.26248	1.375
3333.49143	-0.48214
3335.71905	-0.33929
