Data from AgNPs_FTO_APTES_UA_20uM_CRN_5uM_R6G_10uM_NaF_0.1M_Addition_RamanShift__13__13-47-02-148.txt Node

Date: Thu Feb 17 13:47:02 GMT 2022
User: TCL
Spectrometer: QEP01345
Trigger mode: 4
Integration Time (sec): 7.000000E0
Scans to average: 10
Electric dark correction enabled: true
Nonlinearity correction enabled: false
Boxcar width: 0
XAxis mode: Raman Shifts
Number of Pixels in Spectrum: 1044
>>>>>Begin Spectral Data<<<<<
46.04893	-0.2
50.45542	-1.8
54.85868	-2.2
59.25871	-1.6
63.6555	129
68.04907	131.5
72.43941	138.4
76.82654	138.5
81.21044	143.3
85.59113	151.9
89.96862	154
94.34289	157.6
98.71396	163.4
103.08183	167.1
107.4465	173.8
111.80798	178.1
116.16626	184.8
120.52136	191.5
124.87327	202.9
129.222	214.6
133.56755	229
137.90993	247.9
142.24913	277.7
146.58517	315
150.91804	366.2
155.24774	437.3
159.57429	553.2
163.89768	710.8
168.21792	952.5
172.53501	1311.9
176.84895	1848.5
181.15975	2613.8
185.46741	3681.2
189.77193	5123.2
194.07331	6894.3
198.37157	8915.3
202.6667	11099
206.9587	13234.9
211.24758	15313.1
215.53334	17319.9
219.81599	19417.8
224.09553	21777.2
228.37195	24327.4
232.64527	27139.4
236.91549	30172.5
241.18261	33342.5
245.44663	36457.4
249.70755	39329.3
253.96539	41946.1
258.22014	44069.3
262.4718	45763
266.72039	47016
270.96589	47666.2
275.20832	47834.1
279.44768	47656.8
283.68397	47348.8
287.91719	47005.7
292.14735	46744.1
296.37445	46565.5
300.59849	46501
304.81948	46496.1
309.03742	46442.4
313.25231	46205.7
317.46415	45734.4
321.67296	45201.5
325.87872	44817.5
330.08145	44730.9
334.28114	44857.2
338.47781	45169.2
342.67145	45678.3
346.86207	46241.3
351.04966	46812.2
355.23424	47434.9
359.4158	47916.7
363.59435	48393.9
367.76989	48762.1
371.94243	49052.8
376.11196	49358.2
380.27849	49615.8
384.44203	49918.2
388.60257	50383.9
392.76012	50873.7
396.91468	51441.4
401.06626	52112.9
405.21485	52545
409.36047	52703.3
413.50311	52546.5
417.64277	52411.8
421.77947	52436.4
425.9132	52752
430.04396	53154.7
434.17176	53456.2
438.2966	53804.8
442.41849	54316.4
446.53742	54999.1
450.6534	55779.1
454.76644	56430.1
458.87653	56874.6
462.98368	57137.5
467.08789	57038.5
471.18916	56916.6
475.2875	56614.2
479.38291	56461.1
483.4754	56318.8
487.56496	56166
491.6516	55935.5
495.73531	55605.9
499.81612	55374.2
503.89401	55564.4
507.96899	55770
512.04106	55841.4
516.11023	55812.7
520.1765	55707.9
524.23987	55555.1
528.30034	55363.2
532.35792	55179.6
536.41261	55021.6
540.46441	54825.1
544.51333	54898
548.55936	55262.2
552.60252	55920.4
556.64279	56593.2
560.6802	57168.7
564.71473	57558.4
568.7464	58152.9
572.7752	59142
576.80114	60527.4
580.82422	61913.4
584.84444	62719.4
588.86181	63187.5
592.87633	63586.8
596.888	63537.9
600.89682	63095
604.9028	63349.4
608.90594	65226.9
612.90624	66861.3
616.90371	64358.6
620.89834	59800.6
624.89015	57952.5
628.87913	57826
632.86528	58287
636.84862	58396.9
640.82913	58066.1
644.80683	57396.6
648.78172	56812.2
652.75379	56730.1
656.72306	57081.1
660.68952	57625.9
664.65319	57666.4
668.61405	57367.1
672.57211	57486.8
676.52738	57628.6
680.47986	57650.2
684.42955	57495.1
688.37646	57520.4
692.32058	57746.5
696.26192	58048.5
700.20048	58502.6
704.13626	58923.3
708.06928	59190.6
711.99952	59142.5
715.927	59003.3
719.85171	58938.5
723.77365	58810.7
727.69284	58572.4
731.60928	58204.5
735.52295	58070.9
739.43388	58055.3
743.34206	58254.5
747.24749	58453.8
751.15017	58731.4
755.05012	59245.3
758.94733	60047.8
762.8418	61353.7
766.73354	63559.1
770.62254	65585.9
774.50882	65841.3
778.39237	64348.5
782.27321	62301.8
786.15132	60642.3
790.02671	59518.4
793.89938	58929.4
797.76935	58522.1
801.6366	58365.9
805.50115	58243.5
809.36299	58276.9
813.22213	58110.3
817.07857	58139.4
820.93231	58250.4
824.78336	58277.1
828.63172	58294.8
832.47738	58238.2
836.32036	58273.9
840.16066	58270.2
843.99827	58309.1
847.8332	58445.2
851.66546	58493.9
855.49504	58606.4
859.32195	58715.1
863.1462	58714
866.96777	58831.5
870.78668	58835
874.60293	58948.4
878.41652	59034
882.22745	59154.2
886.03573	59185.2
889.84136	59284.6
893.64433	59147.4
897.44466	59063.7
901.24235	58982.6
905.0374	58971.9
908.8298	58951
912.61957	59037.8
916.40671	59337.3
920.19121	59714.2
923.97308	59993.7
927.75233	59822.7
931.52895	59462.3
935.30295	59080.8
939.07433	58641.9
942.84309	58329.6
946.60924	58104.5
950.37278	58029.8
954.13371	58138
957.89203	58181.6
961.64774	58143.6
965.40086	58021
969.15137	58033.6
972.89929	57942.8
976.64461	57879.8
980.38733	57809.5
984.12747	57812.1
987.86502	58021.3
991.59999	58194.8
995.33237	58436.9
999.06217	58818
1002.78939	59363
1006.51404	60016.5
1010.23611	60641.3
1013.95561	61070.8
1017.67255	61136.2
1021.38692	60897.9
1025.09872	60507.7
1028.80796	60066.9
1032.51465	59806.1
1036.21877	59795
1039.92035	59876.5
1043.61937	60059.3
1047.31584	60242
1051.00976	60402.6
1054.70114	60659
1058.38998	61018.3
1062.07627	61403.7
1065.76003	61947
1069.44126	62569.2
1073.11995	63232.5
1076.79611	63746.7
1080.46974	64058.2
1084.14085	64196.9
1087.80943	64401.1
1091.47549	64618.3
1095.13903	64823
1098.80005	64607.1
1102.45857	63965.1
1106.11456	63386.7
1109.76805	62859.1
1113.41903	62742.8
1117.06751	62720.5
1120.71348	63019.6
1124.35696	63295.2
1127.99793	63551.4
1131.63641	63673.3
1135.2724	63555
1138.90589	63557.2
1142.5369	63617.6
1146.16542	63745.2
1149.79145	64002.2
1153.415	64285.2
1157.03607	64574.2
1160.65467	65109.1
1164.27079	66149
1167.88443	67531.6
1171.49561	69227.9
1175.10432	71221.2
1178.71056	73664.2
1182.31434	75995.9
1185.91565	77564.5
1189.51451	78290.5
1193.11091	78234.5
1196.70485	77322.6
1200.29634	75983.7
1203.88538	74793.1
1207.47197	73892.3
1211.05612	73241.5
1214.63782	72467.5
1218.21708	71530.8
1221.79391	70426.6
1225.36829	69608.3
1228.94024	69208.5
1232.50976	68909
1236.07685	68653.7
1239.6415	68608.9
1243.20374	68702
1246.76355	68946.1
1250.32093	69399.8
1253.8759	70085.7
1257.42845	71065.5
1260.97859	72211.6
1264.52631	73232.1
1268.07163	74291.4
1271.61453	75094.4
1275.15503	75842.4
1278.69312	76653.1
1282.22882	77518.3
1285.76211	78580.6
1289.29301	79855.1
1292.82151	81298.3
1296.34761	83014.7
1299.87133	85125.2
1303.39266	87180.3
1306.9116	89275.4
1310.42815	91003.5
1313.94233	91926.4
1317.45412	91797.7
1320.96354	91388.4
1324.47058	91070.5
1327.97525	90837.7
1331.47754	90898.9
1334.97747	91140.8
1338.47502	91836.1
1341.97022	92867.6
1345.46305	93926
1348.95352	94509.4
1352.44163	94112.2
1355.92738	93491.5
1359.41078	92996.4
1362.89183	92588.4
1366.37053	90961.2
1369.84688	87429.4
1373.32088	83001.7
1376.79254	79851
1380.26186	78268.4
1383.72883	77725.5
1387.19347	77505.7
1390.65578	77067.4
1394.11575	76525
1397.57339	76263.5
1401.0287	76150.5
1404.48168	76170.2
1407.93234	75877.6
1411.38068	75319.1
1414.82669	74238.5
1418.27039	72995.4
1421.71177	71716.9
1425.15083	70671.4
1428.58758	70089.4
1432.02203	70246.4
1435.45416	70786.6
1438.88399	71673.9
1442.31151	72476.7
1445.73673	73093.1
1449.15965	73638.5
1452.58027	74102.9
1455.9986	74470.7
1459.41463	75022.1
1462.82837	75818.8
1466.23982	76658.8
1469.64898	77556.1
1473.05586	78187.9
1476.46045	78500.8
1479.86276	78526.6
1483.26279	78478.4
1486.66054	78391.2
1490.05602	78608.6
1493.44922	79294.7
1496.84016	80194.6
1500.22882	81580.9
1503.61521	83344.5
1506.99934	85075.6
1510.38121	86019.6
1513.76081	85738.1
1517.13816	84509.4
1520.51324	83163.6
1523.88607	82272.5
1527.25665	81886
1530.62498	81801.4
1533.99105	81579.3
1537.35488	80939.3
1540.71647	79954.5
1544.07581	78967.8
1547.4329	77985.4
1550.78776	77028.8
1554.14038	76453.6
1557.49077	76044.6
1560.83892	75836.6
1564.18484	75777.8
1567.52853	75852.1
1570.86999	76055.8
1574.20922	76472.8
1577.54624	76704.4
1580.88103	76402.8
1584.2136	76231.1
1587.54395	76696.7
1590.87208	78060.4
1594.19801	79956.2
1597.52172	81939.6
1600.84321	82546.5
1604.16251	81175.9
1607.47959	79087.2
1610.79447	76446.4
1614.10715	73638.6
1617.41763	70893.7
1620.7259	68627.2
1624.03199	67219.4
1627.33587	66699
1630.63757	67194.6
1633.93707	68726.5
1637.23439	71575.7
1640.52951	75965.1
1643.82246	81279.1
1647.11321	85748.4
1650.40179	87223.6
1653.68819	84719.8
1656.97241	79270.6
1660.25446	73338.1
1663.53433	68435.3
1666.81203	65069.6
1670.08756	62857.9
1673.36092	61416.2
1676.63211	60426.4
1679.90115	59713.4
1683.16801	59128.2
1686.43272	58799.2
1689.69527	58503.1
1692.95567	58218.7
1696.2139	58084.9
1699.46999	58064.8
1702.72392	57940.4
1705.97571	57851.6
1709.22535	57801.1
1712.47284	57783.5
1715.71819	57790.5
1718.96139	57703.2
1722.20246	57568
1725.44139	57423.4
1728.67818	57231.4
1731.91284	57046.6
1735.14537	56832
1738.37576	56733.9
1741.60403	56610.6
1744.83017	56410.4
1748.05418	56266.1
1751.27607	56231.8
1754.49584	56175.1
1757.71349	56144.9
1760.92903	56163.3
1764.14244	56088.7
1767.35375	56006.7
1770.56294	55963.9
1773.77002	55926.5
1776.97499	55910.2
1780.17785	55844.6
1783.37861	55746.3
1786.57727	55695.2
1789.77382	55538.9
1792.96828	55592.9
1796.16064	55491.2
1799.3509	55416.5
1802.53907	55312.5
1805.72514	55264.4
1808.90913	55102.6
1812.09102	55015.7
1815.27083	54897.4
1818.44856	54824.5
1821.6242	54817.9
1824.79776	54736.3
1827.96924	54769.3
1831.13864	54636.6
1834.30597	54634.4
1837.47122	54588.1
1840.6344	54515.3
1843.7955	54609.6
1846.95454	54539.6
1850.11151	54498.1
1853.26642	54492
1856.41926	54481.3
1859.57004	54402.4
1862.71876	54321.1
1865.86542	54326.4
1869.01003	54223.8
1872.15258	54136.2
1875.29308	54037.4
1878.43152	53926.3
1881.56792	53983.5
1884.70227	53915.4
1887.83457	53912.8
1890.96482	53847.6
1894.09304	53777.5
1897.21921	53679.1
1900.34335	53596.3
1903.46544	53506.8
1906.58551	53465.6
1909.70353	53440.9
1912.81953	53370.2
1915.93349	53315.3
1919.04543	53117
1922.15534	53132.8
1925.26322	53079.7
1928.36908	53042
1931.47292	52988.3
1934.57473	52769.3
1937.67453	52643.8
1940.77232	52558.2
1943.86808	52440.5
1946.96184	52325.6
1950.05358	52202.3
1953.14331	52015.8
1956.23103	51922.6
1959.31675	51745.2
1962.40046	51648.3
1965.48217	51411.7
1968.56188	51264.1
1971.63959	51089.7
1974.7153	50971.3
1977.78901	50810.9
1980.86073	50707.3
1983.93046	50573.1
1986.99819	50462.6
1990.06394	50368.1
1993.1277	50192.7
1996.18947	50058.7
1999.24925	49937.9
2002.30706	49778
2005.36288	49618.7
2008.41672	49440.8
2011.46859	49313.5
2014.51848	49226.3
2017.56639	49013.5
2020.61233	48989.4
2023.6563	48807.1
2026.6983	48643
2029.73833	48526.2
2032.7764	48455.5
2035.8125	48364.5
2038.84664	48290.4
2041.87881	48215.1
2044.90903	48149.1
2047.93729	48054.3
2050.96359	48027.1
2053.98794	47924.9
2057.01034	47889.4
2060.03078	47854.2
2063.04927	47828.2
2066.06582	47817.8
2069.08042	47757.9
2072.09307	47707.7
2075.10378	47642.5
2078.11255	47630.3
2081.11938	47646.2
2084.12426	47634.6
2087.12722	47592.9
2090.12824	47591.4
2093.12732	47584.5
2096.12447	47597.9
2099.11969	47546.5
2102.11299	47516.1
2105.10435	47579
2108.09379	47563.1
2111.08131	47594.1
2114.0669	47636.4
2117.05057	47622.4
2120.03233	47742.5
2123.01216	47788.9
2125.99008	47907.8
2128.96609	47900.6
2131.94018	47943
2134.91236	47986.8
2137.88263	48007.8
2140.851	47964.3
2143.81746	48086
2146.78201	48116.6
2149.74466	48147.9
2152.7054	48092.4
2155.66425	48066.5
2158.6212	48101.6
2161.57625	48073
2164.52941	48052.6
2167.48067	47964.8
2170.43004	47959.6
2173.37752	47938.6
2176.32311	48017.4
2179.26681	47920.6
2182.20863	47934.5
2185.14856	48015.5
2188.08661	47972.6
2191.02278	47908.7
2193.95707	47820.5
2196.88948	47787.9
2199.82001	47779.6
2202.74867	47674.6
2205.67545	47645.7
2208.60037	47584.8
2211.52341	47511.8
2214.44458	47545.5
2217.36388	47412
2220.28132	47363
2223.1969	47230.9
2226.11061	47068.8
2229.02246	46934.3
2231.93245	46898.6
2234.84058	46831.5
2237.74686	46771.6
2240.65128	46770.1
2243.55385	46678.6
2246.45456	46703.9
2249.35343	46619.4
2252.25044	46541
2255.14561	46406.3
2258.03893	46409.2
2260.93041	46268.1
2263.82004	46160.3
2266.70783	46078.2
2269.59378	45946.3
2272.4779	45917.7
2275.36017	45842.3
2278.24061	45795.6
2281.11922	45636.1
2283.996	45544.7
2286.87094	45560.1
2289.74405	45463.5
2292.61534	45356.3
2295.4848	45288.4
2298.35243	45271.3
2301.21824	45180.2
2304.08223	45157.4
2306.94439	45084.2
2309.80474	45157.6
2312.66327	45114
2315.51999	45041.1
2318.37489	44957.1
2321.22797	44969.4
2324.07925	44832
2326.92871	44692.9
2329.77637	44679.8
2332.62222	44548.1
2335.46626	44495.5
2338.3085	44497.8
2341.14893	44419.8
2343.98756	44362.4
2346.8244	44361.1
2349.65943	44316.8
2352.49267	44258.9
2355.32411	44252.3
2358.15376	44242.1
2360.98161	44242.4
2363.80768	44131.6
2366.63195	44177.2
2369.45444	44118.5
2372.27514	44084.9
2375.09405	44057.7
2377.91118	43968.5
2380.72652	43858.4
2383.54009	43788.7
2386.35187	43666.1
2389.16188	43541.4
2391.97011	43452.8
2394.77657	43354.8
2397.58125	43330.6
2400.38416	43207.1
2403.18529	43158.8
2405.98466	43105.4
2408.78226	43062.4
2411.57809	43043.1
2414.37216	42992.2
2417.16446	42945.8
2419.955	42901.6
2422.74378	42921.9
2425.5308	42825.3
2428.31606	42834.5
2431.09956	42745.7
2433.88131	42716.4
2436.6613	42681.3
2439.43954	42655.2
2442.21603	42614.3
2444.99077	42516.9
2447.76377	42490.4
2450.53501	42490
2453.30451	42420.9
2456.07226	42401.6
2458.83827	42344.2
2461.60254	42279.4
2464.36507	42293.9
2467.12586	42208.5
2469.88492	42188.2
2472.64224	42149.9
2475.39782	42112
2478.15167	42125.8
2480.90379	42122.8
2483.65417	42146.3
2486.40283	42096.6
2489.14976	42037
2491.89497	41955.7
2494.63845	42005.6
2497.3802	41877.6
2500.12024	41863.6
2502.85855	41854.9
2505.59514	41794.8
2508.33002	41720.9
2511.06318	41664.5
2513.79462	41652.6
2516.52435	41599.3
2519.25237	41546.5
2521.97867	41505.1
2524.70327	41510.4
2527.42616	41464.7
2530.14734	41381.5
2532.86681	41271
2535.58458	41228.8
2538.30065	41256.5
2541.01501	41203.3
2543.72768	41164.6
2546.43864	41081.7
2549.14791	41018.8
2551.85548	40929.8
2554.56136	40836.4
2557.26554	40736.2
2559.96803	40637.9
2562.66883	40601.7
2565.36794	40556.9
2568.06536	40509.3
2570.7611	40366.1
2573.45514	40299.9
2576.14751	40232.9
2578.83819	40176.3
2581.52719	40118.9
2584.21451	40000.6
2586.90015	39987.1
2589.58411	39918.2
2592.2664	39877.3
2594.94701	39818.4
2597.62594	39781.1
2600.30321	39723.3
2602.9788	39684.9
2605.65273	39615.7
2608.32498	39562.4
2610.99557	39529.1
2613.66449	39472.9
2616.33175	39413.8
2618.99734	39329.2
2621.66128	39230.8
2624.32355	39174.3
2626.98416	39073.4
2629.64311	39087.6
2632.30041	39102.2
2634.95605	39083.1
2637.61004	38989.9
2640.26238	38936.4
2642.91306	38877.5
2645.56209	38823.3
2648.20948	38813.8
2650.85521	38789.6
2653.4993	38782.3
2656.14175	38741.8
2658.78255	38784.7
2661.42171	38778.3
2664.05923	38802.1
2666.6951	38801.3
2669.32934	38750.9
2671.96194	38742.6
2674.59291	38758
2677.22224	38815.2
2679.84993	38807.9
2682.476	38754.1
2685.10043	38714
2687.72324	38642.4
2690.34441	38685.8
2692.96396	38651.7
2695.58188	38709.9
2698.19818	38633.5
2700.81285	38607.9
2703.4259	38577.6
2706.03733	38650.5
2708.64714	38630.4
2711.25533	38601.9
2713.86191	38600.9
2716.46687	38671.2
2719.07021	38637.3
2721.67194	38656.5
2724.27206	38593
2726.87057	38579.9
2729.46747	38595.3
2732.06276	38539
2734.65644	38516.9
2737.24852	38551.9
2739.83899	38510.6
2742.42786	38563.6
2745.01513	38490.1
2747.60079	38382.9
2750.18486	38353.7
2752.76733	38317.3
2755.3482	38210.5
2757.92747	38171.2
2760.50515	38102.8
2763.08123	38106.7
2765.65573	38074.8
2768.22863	38038.5
2770.79994	37919.1
2773.36967	37937.9
2775.9378	37937.3
2778.50435	37897.4
2781.06932	37790.9
2783.6327	37761.3
2786.1945	37743.6
2788.75471	37696.3
2791.31335	37587.1
2793.87041	37524.4
2796.42589	37430.8
2798.97979	37318.9
2801.53212	37232.8
2804.08288	37198.4
2806.63206	37114.2
2809.17967	37011.6
2811.72571	36924.4
2814.27018	36769
2816.81308	36648.1
2819.35442	36584.7
2821.89419	36504.2
2824.43239	36519
2826.96904	36470
2829.50412	36477.2
2832.03763	36339
2834.56959	36308.1
2837.1	36214.6
2839.62884	36150.4
2842.15613	36090.1
2844.68186	36138.3
2847.20604	36050.4
2849.72867	36012
2852.24974	35959.2
2854.76927	35886.6
2857.28724	35884.6
2859.80367	35848.4
2862.31855	35777.8
2864.83189	35723.1
2867.34368	35594.6
2869.85393	35606.1
2872.36264	35551.2
2874.8698	35511.3
2877.37543	35465.5
2879.87952	35415.7
2882.38207	35377.5
2884.88308	35348.9
2887.38256	35364.9
2889.88051	35360.7
2892.37692	35373.9
2894.8718	35399.7
2897.36515	35390.8
2899.85698	35348.6
2902.34727	35397.9
2904.83604	35352
2907.32328	35415.5
2909.809	35373.8
2912.29319	35391.5
2914.77587	35384.5
2917.25702	35360.2
2919.73665	35368.9
2922.21476	35343.3
2924.69136	35284
2927.16644	35258.5
2929.64	35163.2
2932.11205	35174.1
2934.58258	35133.6
2937.05161	35139.9
2939.51912	35173
2941.98513	35131.9
2944.44962	35041.6
2946.91261	35028.9
2949.37409	35098.6
2951.83407	34969.4
2954.29254	34947.3
2956.74951	34980.6
2959.20498	34963.1
2961.65895	34876.4
2964.11142	34979.6
2966.56239	34936.8
2969.01186	34894.4
2971.45984	34755.1
2973.90632	34756.5
2976.35131	34688.8
2978.7948	34672.3
2981.23681	34578.3
2983.67732	34569.2
2986.11635	34462.6
2988.55388	34380.7
2990.98993	34328.9
2993.4245	34241.5
2995.85758	34205.1
2998.28917	34093.7
3000.71928	34023.8
3003.14791	33946.9
3005.57506	33927.1
3008.00073	33802.9
3010.42493	33808.8
3012.84764	33720.7
3015.26888	33656.1
3017.68865	33609.2
3020.10694	33629.6
3022.52376	33498.7
3024.9391	33457.9
3027.35298	33444.8
3029.76539	33401.5
3032.17632	33348
3034.5858	33276.6
3036.9938	33256.1
3039.40034	33232
3041.80542	33165.4
3044.20903	33120.1
3046.61118	33019.3
3049.01187	32936.2
3051.4111	32848.3
3053.80888	32775
3056.20519	32735.8
3058.60005	32665.3
3060.99345	32652.7
3063.3854	32517.1
3065.7759	32433
3068.16494	32309
3070.55254	32238.8
3072.93868	32184.2
3075.32338	32067.2
3077.70662	32021.6
3080.08842	31922.4
3082.46878	31874.5
3084.84769	31810.4
3087.22515	31821.4
3089.60118	31803.1
3091.97576	31724.4
3094.3489	31717.8
3096.72061	31705.5
3099.09087	31738.3
3101.4597	31705.2
3103.82709	31692.2
3106.19305	31625.4
3108.55757	31638
3110.92066	31556.9
3113.28232	31514.1
3115.64255	31424.6
3118.00134	31321.2
3120.35871	31255.4
3122.71466	31118.6
3125.06917	31049.2
3127.42226	31019.4
3129.77393	31007.6
3132.12417	30939.9
3134.47299	30915.9
3136.82039	30905.5
3139.16636	30872.4
3141.51092	30838.9
3143.85406	30835.6
3146.19579	30773
3148.53609	30788.4
3150.87499	30837.2
3153.21246	30867.9
3155.54853	30865
3157.88318	30812.4
3160.21642	30847.1
3162.54826	30781.6
3164.87868	30768.6
3167.2077	30670.7
3169.5353	30621.9
3171.86151	30591.9
3174.18631	30612
3176.5097	30542.6
3178.83169	30490.3
3181.15228	30427
3183.47147	30371.3
3185.78926	30355.5
3188.10565	30295.7
3190.42065	30254.7
3192.73424	30186.5
3195.04645	30079.5
3197.35725	30059
3199.66667	30068.7
3201.97469	30034.8
3204.28132	29963.5
3206.58656	29976.5
3208.8904	30018.1
3211.19287	30038.4
3213.49394	30032.2
3215.79363	30016.9
3218.09193	29982.2
3220.38884	30045.9
3222.68438	30010.3
3224.97853	29862.9
3227.2713	29849.4
3229.56269	29839.4
3231.8527	29861.3
3234.14133	29774.7
3236.42858	29684.8
3238.71446	29615.8
3240.99896	29534.3
3243.28209	29516.5
3245.56384	29482.8
3247.84423	29418.8
3250.12324	29370
3252.40088	29354.9
3254.67715	29347.7
3256.95205	29319.8
3259.22558	29300
3261.49775	29280.5
3263.76855	29232.3
3266.03799	29125.4
3268.30606	29063.3
3270.57277	29029
3272.83812	28973.6
3275.10211	28860.5
3277.36474	28815.5
3279.62601	28820.7
3281.88593	28758.5
3284.14448	28764
3286.40168	28779.4
3288.65753	28636.8
3290.91202	28650.2
3293.16516	28545.1
3295.41695	28561.7
3297.66738	28362.7
3299.91647	28221.2
3302.16421	28030.7
3304.4106	27900.2
3306.65564	27683.4
3308.89933	27485.3
3311.14169	27340.4
3313.38269	27155.4
3315.62236	26991.3
3317.86068	26732.9
3320.09766	26464
3322.3333	26284.6
3324.5676	26195.6
3326.80056	25790.3
3329.03219	25644.6
3331.26248	7
3333.49143	0.6
3335.71905	-0.2
