Data from AgNPs_FTO_APTES_UA_20uM_CRN_0uM_R6G_10uM_NaF_0.1M_Addition_RamanShift__2__10-52-01-919.txt Node

Date: Thu Feb 17 10:52:01 GMT 2022
User: TCL
Spectrometer: QEP01345
Trigger mode: 4
Integration Time (sec): 7.000000E0
Scans to average: 10
Electric dark correction enabled: true
Nonlinearity correction enabled: false
Boxcar width: 0
XAxis mode: Raman Shifts
Number of Pixels in Spectrum: 1044
>>>>>Begin Spectral Data<<<<<
46.04893	2
50.45542	-0.9
54.85868	-1.8
59.25871	0
63.6555	39.3
68.04907	38.3
72.43941	42.9
76.82654	39.8
81.21044	45.2
85.59113	47.4
89.96862	48.1
94.34289	50.7
98.71396	50.5
103.08183	54
107.4465	55.4
111.80798	54
116.16626	58.2
120.52136	59.3
124.87327	63.3
129.222	64.2
133.56755	68.2
137.90993	74.7
142.24913	79.3
146.58517	90.3
150.91804	111.1
155.24774	129.1
159.57429	163.9
163.89768	209.3
168.21792	284.8
172.53501	391.1
176.84895	538.1
181.15975	762.2
185.46741	1088.7
189.77193	1495.3
194.07331	2013.5
198.37157	2592
202.6667	3218.7
206.9587	3832.6
211.24758	4464.8
215.53334	5093
219.81599	5791.9
224.09553	6550.9
228.37195	7425.3
232.64527	8289.7
236.91549	9234.9
241.18261	10076.3
245.44663	10787.8
249.70755	11338.4
253.96539	11754.8
258.22014	12121.9
262.4718	12434.5
266.72039	12700.7
270.96589	12775.4
275.20832	12691.2
279.44768	12465.8
283.68397	12215.3
287.91719	12020.1
292.14735	11971.5
296.37445	12132.1
300.59849	12507.6
304.81948	13041.6
309.03742	13552.3
313.25231	13809
317.46415	13581.2
321.67296	12870.9
325.87872	12098.2
330.08145	11552.7
334.28114	11350.1
338.47781	11404.8
342.67145	11662.9
346.86207	12094.7
351.04966	12702
355.23424	13335
359.4158	13735.4
363.59435	13818.6
367.76989	13673.6
371.94243	13460.6
376.11196	13277.1
380.27849	13112.7
384.44203	12997.7
388.60257	12917.3
392.76012	12982.6
396.91468	13167.4
401.06626	13453.2
405.21485	13610
409.36047	13315.9
413.50311	12620
417.64277	12076.1
421.77947	11796.7
425.9132	11743
430.04396	11731.1
434.17176	11693.1
438.2966	11694.6
442.41849	11899.7
446.53742	12259.2
450.6534	12542.9
454.76644	12645.6
458.87653	12527.7
462.98368	12326.8
467.08789	12085.8
471.18916	11788.7
475.2875	11395.8
479.38291	11062.4
483.4754	10818.1
487.56496	10701.9
491.6516	10635.5
495.73531	10614.5
499.81612	10651.5
503.89401	10796.6
507.96899	10976.3
512.04106	11106.3
516.11023	11222.9
520.1765	11295.7
524.23987	11292.5
528.30034	11265.3
532.35792	11122
536.41261	10888.1
540.46441	10591.7
544.51333	10390.1
548.55936	10385.8
552.60252	10647.4
556.64279	11020.4
560.6802	11274.9
564.71473	11438.2
568.7464	11757.9
572.7752	12107.2
576.80114	12046.4
580.82422	12004.1
584.84444	12400.5
588.86181	13194.7
592.87633	14158
596.888	14640
600.89682	14086.3
604.9028	14173.8
608.90594	17103.7
612.90624	21885.3
616.90371	21566.2
620.89834	14980.2
624.89015	11314.1
628.87913	10636.5
632.86528	10821.1
636.84862	11074.6
640.82913	10737.8
644.80683	10146.4
648.78172	9771.2
652.75379	9793.2
656.72306	10174.7
660.68952	10666.9
664.65319	10532.3
668.61405	9815
672.57211	9457.3
676.52738	9452.2
680.47986	9496.3
684.42955	9404.6
688.37646	9281.3
692.32058	9241
696.26192	9337.8
700.20048	9541.4
704.13626	9686.3
708.06928	9692.7
711.99952	9642.8
715.927	9603.3
719.85171	9670.5
723.77365	9696.3
727.69284	9565.1
731.60928	9393.8
735.52295	9324.1
739.43388	9348.7
743.34206	9390.8
747.24749	9451.2
751.15017	9528.8
755.05012	9744.5
758.94733	10281.4
762.8418	11619.9
766.73354	13984.5
770.62254	16271.2
774.50882	16986.9
778.39237	15868.8
782.27321	13832.2
786.15132	11742.4
790.02671	10344.7
793.89938	9656.2
797.76935	9347
801.6366	9197.9
805.50115	9107.9
809.36299	8995.5
813.22213	8877.1
817.07857	8809.4
820.93231	8726.2
824.78336	8703
828.63172	8706.8
832.47738	8709.1
836.32036	8688.8
840.16066	8643.7
843.99827	8575.5
847.8332	8588.6
851.66546	8573.6
855.49504	8591.6
859.32195	8559.9
863.1462	8513.7
866.96777	8484.3
870.78668	8494.8
874.60293	8466
878.41652	8510.8
882.22745	8562.8
886.03573	8636.4
889.84136	8622.9
893.64433	8622.4
897.44466	8652.7
901.24235	8676.1
905.0374	8615.2
908.8298	8534.5
912.61957	8481.8
916.40671	8487.9
920.19121	8585.7
923.97308	8757.9
927.75233	8980.1
931.52895	9070.5
935.30295	8871.6
939.07433	8475.5
942.84309	8123.5
946.60924	7932.4
950.37278	7821.2
954.13371	7784.9
957.89203	7761.1
961.64774	7709.8
965.40086	7652.5
969.15137	7648.5
972.89929	7580.8
976.64461	7537.1
980.38733	7485.4
984.12747	7463.5
987.86502	7491
991.59999	7514.3
995.33237	7627
999.06217	7785.1
1002.78939	8004.9
1006.51404	8289.3
1010.23611	8561.3
1013.95561	8725.4
1017.67255	8687.3
1021.38692	8555.1
1025.09872	8239.6
1028.80796	7969.8
1032.51465	7850
1036.21877	7815.1
1039.92035	7855.2
1043.61937	7901.8
1047.31584	7946.4
1051.00976	8032.6
1054.70114	8019
1058.38998	8022.7
1062.07627	8036.7
1065.76003	8056.9
1069.44126	8154.2
1073.11995	8315.9
1076.79611	8546
1080.46974	8803.3
1084.14085	9165.3
1087.80943	9611.2
1091.47549	9774.5
1095.13903	9535.5
1098.80005	9056.8
1102.45857	8584.4
1106.11456	8371.6
1109.76805	8372.6
1113.41903	8544.7
1117.06751	8859
1120.71348	9345.8
1124.35696	9866.6
1127.99793	10469.5
1131.63641	10530.7
1135.2724	10010.4
1138.90589	9435.7
1142.5369	9083.2
1146.16542	8920.9
1149.79145	8857.5
1153.415	8836.8
1157.03607	8954
1160.65467	9289.4
1164.27079	9961.4
1167.88443	10887.7
1171.49561	12092.4
1175.10432	13885.1
1178.71056	16258.1
1182.31434	18360.3
1185.91565	19047
1189.51451	18344.8
1193.11091	17069.3
1196.70485	15538.5
1200.29634	14128.3
1203.88538	12956.1
1207.47197	11943.1
1211.05612	11147
1214.63782	10597.5
1218.21708	10317.5
1221.79391	10175.5
1225.36829	10249.2
1228.94024	10353.1
1232.50976	10312.9
1236.07685	10145.2
1239.6415	9952.4
1243.20374	9855.4
1246.76355	9827.5
1250.32093	9875.8
1253.8759	10079.2
1257.42845	10536
1260.97859	11176.2
1264.52631	11890.5
1268.07163	12522.3
1271.61453	13082.2
1275.15503	13436.5
1278.69312	13698.8
1282.22882	14029.3
1285.76211	14704.5
1289.29301	15685.1
1292.82151	16706.7
1296.34761	17729.9
1299.87133	19065.5
1303.39266	20806.5
1306.9116	23166.8
1310.42815	25790.6
1313.94233	27489.9
1317.45412	26727.3
1320.96354	24380.1
1324.47058	21987.1
1327.97525	19915.8
1331.47754	18476.1
1334.97747	17543.9
1338.47502	17094.2
1341.97022	17164.5
1345.46305	17823
1348.95352	19212.3
1352.44163	21098.2
1355.92738	23491
1359.41078	27083.7
1362.89183	31063.3
1366.37053	31561.1
1369.84688	26706.9
1373.32088	20529
1376.79254	16537
1380.26186	14809.4
1383.72883	13969
1387.19347	13277
1390.65578	12543.6
1394.11575	12157.4
1397.57339	12163.6
1401.0287	12310.1
1404.48168	12461.7
1407.93234	12351.7
1411.38068	12105.8
1414.82669	11856.8
1418.27039	11641.8
1421.71177	11423.1
1425.15083	11108.2
1428.58758	10952.2
1432.02203	11127.6
1435.45416	11481.3
1438.88399	11733.2
1442.31151	11746.1
1445.73673	11687.3
1449.15965	11686.6
1452.58027	11593.1
1455.9986	11451
1459.41463	11445.6
1462.82837	11631.8
1466.23982	11962.5
1469.64898	12342.6
1473.05586	12626.6
1476.46045	12847.8
1479.86276	13061.1
1483.26279	13257.7
1486.66054	13656
1490.05602	14300.3
1493.44922	15316.1
1496.84016	16656.6
1500.22882	18478.4
1503.61521	20922.9
1506.99934	23786.7
1510.38121	26599.8
1513.76081	27837.8
1517.13816	26321.7
1520.51324	22985.4
1523.88607	19501.9
1527.25665	17108.9
1530.62498	15682.4
1533.99105	14694.8
1537.35488	13795.3
1540.71647	13005.3
1544.07581	12355.2
1547.4329	11949.7
1550.78776	11703
1554.14038	11663.3
1557.49077	11885
1560.83892	12240.1
1564.18484	12704.1
1567.52853	13352.8
1570.86999	13890.7
1574.20922	14278
1577.54624	14319.4
1580.88103	13587.9
1584.2136	12434
1587.54395	11900.7
1590.87208	12217.7
1594.19801	13163.9
1597.52172	14358.1
1600.84321	14701.9
1604.16251	13715.1
1607.47959	12270.7
1610.79447	10966.4
1614.10715	9820
1617.41763	8885.9
1620.7259	8245.7
1624.03199	7987.5
1627.33587	8082.9
1630.63757	8496.4
1633.93707	9461.8
1637.23439	11131.5
1640.52951	13778
1643.82246	17223.8
1647.11321	20658.9
1650.40179	22414.5
1653.68819	21044
1656.97241	17050.1
1660.25446	12799.9
1663.53433	9789
1666.81203	8015.3
1670.08756	7050.2
1673.36092	6475.4
1676.63211	6128.6
1679.90115	5885.2
1683.16801	5719.6
1686.43272	5603.5
1689.69527	5496.4
1692.95567	5427.7
1696.2139	5363
1699.46999	5340.1
1702.72392	5300.5
1705.97571	5281.3
1709.22535	5213.8
1712.47284	5218.3
1715.71819	5249.4
1718.96139	5216.1
1722.20246	5194.5
1725.44139	5131.9
1728.67818	5069.1
1731.91284	4993.7
1735.14537	4943.4
1738.37576	4841.7
1741.60403	4851.7
1744.83017	4834.2
1748.05418	4788.4
1751.27607	4782.3
1754.49584	4778.8
1757.71349	4739
1760.92903	4726.8
1764.14244	4735.6
1767.35375	4715.9
1770.56294	4702.5
1773.77002	4684
1776.97499	4659.2
1780.17785	4649.5
1783.37861	4616.6
1786.57727	4592
1789.77382	4576.7
1792.96828	4557.2
1796.16064	4525.1
1799.3509	4525.1
1802.53907	4495.6
1805.72514	4473.2
1808.90913	4434.6
1812.09102	4407.3
1815.27083	4375.3
1818.44856	4362
1821.6242	4342.7
1824.79776	4330
1827.96924	4332.1
1831.13864	4305.3
1834.30597	4310.9
1837.47122	4302.8
1840.6344	4300.3
1843.7955	4283.3
1846.95454	4264.6
1850.11151	4250.4
1853.26642	4226.9
1856.41926	4208.5
1859.57004	4185.2
1862.71876	4175.1
1865.86542	4139.3
1869.01003	4135.5
1872.15258	4117.2
1875.29308	4114.8
1878.43152	4084.6
1881.56792	4064.7
1884.70227	4073
1887.83457	4049.7
1890.96482	4035.9
1894.09304	4030.3
1897.21921	3999.1
1900.34335	3985.6
1903.46544	3974.4
1906.58551	3957.6
1909.70353	3940.5
1912.81953	3930.6
1915.93349	3890.2
1919.04543	3889.9
1922.15534	3855.4
1925.26322	3839.5
1928.36908	3824
1931.47292	3804.7
1934.57473	3782.7
1937.67453	3761.6
1940.77232	3720.1
1943.86808	3699.3
1946.96184	3703.5
1950.05358	3678.7
1953.14331	3673.8
1956.23103	3665.6
1959.31675	3635.7
1962.40046	3627.6
1965.48217	3599.8
1968.56188	3599.9
1971.63959	3588.2
1974.7153	3587.7
1977.78901	3563.5
1980.86073	3544.2
1983.93046	3510.3
1986.99819	3496.7
1990.06394	3478.4
1993.1277	3453.8
1996.18947	3435.6
1999.24925	3411.7
2002.30706	3385.5
2005.36288	3381.4
2008.41672	3350.4
2011.46859	3330.6
2014.51848	3322.2
2017.56639	3316.5
2020.61233	3283
2023.6563	3272.4
2026.6983	3259.3
2029.73833	3236.7
2032.7764	3231
2035.8125	3225
2038.84664	3210.4
2041.87881	3201.2
2044.90903	3198.1
2047.93729	3178.4
2050.96359	3169.4
2053.98794	3151.5
2057.01034	3165
2060.03078	3156.5
2063.04927	3129
2066.06582	3141.1
2069.08042	3139.3
2072.09307	3141.6
2075.10378	3116.4
2078.11255	3118.9
2081.11938	3123.3
2084.12426	3106.4
2087.12722	3110.8
2090.12824	3095
2093.12732	3118.1
2096.12447	3101.4
2099.11969	3096.8
2102.11299	3101.9
2105.10435	3094.7
2108.09379	3089.6
2111.08131	3092.2
2114.0669	3087.3
2117.05057	3087.7
2120.03233	3091.4
2123.01216	3088.6
2125.99008	3098.7
2128.96609	3091.3
2131.94018	3073.7
2134.91236	3072
2137.88263	3049.1
2140.851	3045.4
2143.81746	3035
2146.78201	3016.1
2149.74466	3000.3
2152.7054	3007.2
2155.66425	2988.3
2158.6212	2984.9
2161.57625	2966.2
2164.52941	2959.1
2167.48067	2948.5
2170.43004	2933.7
2173.37752	2944.9
2176.32311	2931.6
2179.26681	2930.6
2182.20863	2930.4
2185.14856	2913.8
2188.08661	2919.1
2191.02278	2902.7
2193.95707	2888.1
2196.88948	2877.8
2199.82001	2868.8
2202.74867	2865.1
2205.67545	2857.8
2208.60037	2858.2
2211.52341	2823.3
2214.44458	2836
2217.36388	2822.8
2220.28132	2805.8
2223.1969	2779.9
2226.11061	2784.9
2229.02246	2774.7
2231.93245	2781.3
2234.84058	2760.8
2237.74686	2767.2
2240.65128	2760.5
2243.55385	2760.8
2246.45456	2750.3
2249.35343	2733.2
2252.25044	2735.6
2255.14561	2734.7
2258.03893	2735.8
2260.93041	2716.6
2263.82004	2718.1
2266.70783	2703.6
2269.59378	2691.2
2272.4779	2690.8
2275.36017	2681.7
2278.24061	2668.4
2281.11922	2653.3
2283.996	2648.4
2286.87094	2628.5
2289.74405	2620.3
2292.61534	2613.4
2295.4848	2599.5
2298.35243	2596.8
2301.21824	2585.3
2304.08223	2575.5
2306.94439	2567.8
2309.80474	2577.2
2312.66327	2561.4
2315.51999	2553.2
2318.37489	2556.1
2321.22797	2533.1
2324.07925	2543.9
2326.92871	2539.7
2329.77637	2527.7
2332.62222	2532.5
2335.46626	2510.1
2338.3085	2512.2
2341.14893	2510.7
2343.98756	2507.6
2346.8244	2525.7
2349.65943	2512.4
2352.49267	2520
2355.32411	2533.6
2358.15376	2547.9
2360.98161	2549.2
2363.80768	2560.7
2366.63195	2550.2
2369.45444	2546.3
2372.27514	2550.8
2375.09405	2542.4
2377.91118	2531.8
2380.72652	2507.9
2383.54009	2491.6
2386.35187	2472.4
2389.16188	2455.6
2391.97011	2449.5
2394.77657	2424.7
2397.58125	2399.8
2400.38416	2402.9
2403.18529	2394.1
2405.98466	2378.7
2408.78226	2370.7
2411.57809	2365.6
2414.37216	2369
2417.16446	2358.7
2419.955	2354.1
2422.74378	2359.5
2425.5308	2357.5
2428.31606	2350.9
2431.09956	2355.3
2433.88131	2355.8
2436.6613	2360.6
2439.43954	2365.9
2442.21603	2377.5
2444.99077	2360.7
2447.76377	2362.8
2450.53501	2363.6
2453.30451	2376
2456.07226	2375.5
2458.83827	2363.3
2461.60254	2365
2464.36507	2369.6
2467.12586	2364.9
2469.88492	2352.9
2472.64224	2343.3
2475.39782	2339
2478.15167	2357.4
2480.90379	2357.1
2483.65417	2369.3
2486.40283	2371.5
2489.14976	2379.6
2491.89497	2385.5
2494.63845	2374.5
2497.3802	2372
2500.12024	2368.8
2502.85855	2361.5
2505.59514	2348.9
2508.33002	2338
2511.06318	2312.5
2513.79462	2298.4
2516.52435	2285.8
2519.25237	2257.5
2521.97867	2237.2
2524.70327	2242.5
2527.42616	2231.2
2530.14734	2228.7
2532.86681	2222.6
2535.58458	2220.9
2538.30065	2214.5
2541.01501	2211.7
2543.72768	2230.8
2546.43864	2218
2549.14791	2224.2
2551.85548	2224
2554.56136	2219.3
2557.26554	2205
2559.96803	2199.2
2562.66883	2190.8
2565.36794	2203.6
2568.06536	2195.6
2570.7611	2187.6
2573.45514	2194
2576.14751	2173.1
2578.83819	2172.8
2581.52719	2159.7
2584.21451	2157.7
2586.90015	2147.9
2589.58411	2150.4
2592.2664	2138.5
2594.94701	2134.6
2597.62594	2140.7
2600.30321	2129.6
2602.9788	2135.7
2605.65273	2142.5
2608.32498	2133.4
2610.99557	2132.4
2613.66449	2131
2616.33175	2125.8
2618.99734	2132.5
2621.66128	2121.1
2624.32355	2123
2626.98416	2110.8
2629.64311	2115.8
2632.30041	2117.9
2634.95605	2088.4
2637.61004	2089.2
2640.26238	2067.1
2642.91306	2079.8
2645.56209	2066.3
2648.20948	2062.9
2650.85521	2080
2653.4993	2080.9
2656.14175	2066.7
2658.78255	2085.3
2661.42171	2092.1
2664.05923	2089.7
2666.6951	2090.8
2669.32934	2101.3
2671.96194	2088.2
2674.59291	2095.4
2677.22224	2093.9
2679.84993	2091.7
2682.476	2082.5
2685.10043	2088.2
2687.72324	2083.2
2690.34441	2071.1
2692.96396	2057.8
2695.58188	2067.9
2698.19818	2057.4
2700.81285	2065.9
2703.4259	2060.3
2706.03733	2048.3
2708.64714	2052.8
2711.25533	2055.6
2713.86191	2063.7
2716.46687	2061.4
2719.07021	2069.4
2721.67194	2076.2
2724.27206	2060.3
2726.87057	2064.2
2729.46747	2069.2
2732.06276	2063.8
2734.65644	2045.5
2737.24852	2053
2739.83899	2040.5
2742.42786	2039.9
2745.01513	2022.5
2747.60079	2027.1
2750.18486	2016.5
2752.76733	2022.7
2755.3482	2019.7
2757.92747	2011.7
2760.50515	2001.4
2763.08123	1994.6
2765.65573	1996
2768.22863	1986
2770.79994	1993.5
2773.36967	1990.7
2775.9378	1978.6
2778.50435	1986.4
2781.06932	1993
2783.6327	1988.4
2786.1945	1991.8
2788.75471	1985.6
2791.31335	1975.8
2793.87041	1982.3
2796.42589	1979.3
2798.97979	1980.4
2801.53212	1973.6
2804.08288	1979.9
2806.63206	1980.2
2809.17967	1974.5
2811.72571	1979.9
2814.27018	1998.1
2816.81308	1979
2819.35442	1984.3
2821.89419	1974.4
2824.43239	1983
2826.96904	2000.2
2829.50412	1997.9
2832.03763	1994.1
2834.56959	1989.1
2837.1	1994.1
2839.62884	1999.2
2842.15613	1995.2
2844.68186	1993.9
2847.20604	2016.4
2849.72867	2026.8
2852.24974	2030.3
2854.76927	2035.4
2857.28724	2042.3
2859.80367	2038.3
2862.31855	2036.1
2864.83189	2045.5
2867.34368	2047.7
2869.85393	2064.2
2872.36264	2047.5
2874.8698	2048.9
2877.37543	2039.7
2879.87952	2049.9
2882.38207	2043
2884.88308	2045.6
2887.38256	2040.5
2889.88051	2032.7
2892.37692	2030.1
2894.8718	2034.7
2897.36515	2033.6
2899.85698	2039.5
2902.34727	2036
2904.83604	2037.1
2907.32328	2051.1
2909.809	2048.9
2912.29319	2062
2914.77587	2069
2917.25702	2067.3
2919.73665	2063.4
2922.21476	2058.7
2924.69136	2044.8
2927.16644	2046.6
2929.64	2033.9
2932.11205	2022.9
2934.58258	2016.1
2937.05161	2020.8
2939.51912	1999.2
2941.98513	1995.7
2944.44962	1971.6
2946.91261	1965.8
2949.37409	1957.3
2951.83407	1948.6
2954.29254	1946.8
2956.74951	1942.9
2959.20498	1932.4
2961.65895	1929.6
2964.11142	1919.6
2966.56239	1907.4
2969.01186	1896.3
2971.45984	1877.6
2973.90632	1866.8
2976.35131	1858.9
2978.7948	1855.8
2981.23681	1847.2
2983.67732	1847.1
2986.11635	1828.2
2988.55388	1814.6
2990.98993	1813.6
2993.4245	1815.2
2995.85758	1813.8
2998.28917	1799.8
3000.71928	1801.9
3003.14791	1796.7
3005.57506	1793.2
3008.00073	1788.5
3010.42493	1793.3
3012.84764	1778.6
3015.26888	1780.6
3017.68865	1762.1
3020.10694	1760.5
3022.52376	1758.5
3024.9391	1758.6
3027.35298	1732.4
3029.76539	1722.3
3032.17632	1732.8
3034.5858	1719.8
3036.9938	1717.2
3039.40034	1713.8
3041.80542	1726.5
3044.20903	1704.3
3046.61118	1703.1
3049.01187	1692.1
3051.4111	1702.9
3053.80888	1702.8
3056.20519	1678.7
3058.60005	1697.6
3060.99345	1682.5
3063.3854	1673.2
3065.7759	1675.8
3068.16494	1676.1
3070.55254	1668.7
3072.93868	1661
3075.32338	1657.3
3077.70662	1653.6
3080.08842	1643.7
3082.46878	1648.8
3084.84769	1639.8
3087.22515	1637.8
3089.60118	1641.4
3091.97576	1637
3094.3489	1647.1
3096.72061	1636.6
3099.09087	1647.1
3101.4597	1640.7
3103.82709	1650.1
3106.19305	1644.5
3108.55757	1638.7
3110.92066	1641.6
3113.28232	1643.1
3115.64255	1638
3118.00134	1640.1
3120.35871	1641.2
3122.71466	1634.3
3125.06917	1633.5
3127.42226	1632.4
3129.77393	1640.4
3132.12417	1642
3134.47299	1651.6
3136.82039	1648.7
3139.16636	1650.2
3141.51092	1645.1
3143.85406	1660.7
3146.19579	1659.6
3148.53609	1652.9
3150.87499	1668.4
3153.21246	1660.1
3155.54853	1676.7
3157.88318	1670.8
3160.21642	1686.6
3162.54826	1693
3164.87868	1688.8
3167.2077	1693.9
3169.5353	1684
3171.86151	1693.9
3174.18631	1692
3176.5097	1691.1
3178.83169	1690.4
3181.15228	1690.4
3183.47147	1684.8
3185.78926	1694.4
3188.10565	1687.4
3190.42065	1686.8
3192.73424	1688.9
3195.04645	1689.9
3197.35725	1683
3199.66667	1689.5
3201.97469	1684.6
3204.28132	1696.6
3206.58656	1688.6
3208.8904	1690.4
3211.19287	1699.9
3213.49394	1701.6
3215.79363	1715
3218.09193	1710.2
3220.38884	1726.3
3222.68438	1719.4
3224.97853	1722.8
3227.2713	1724.2
3229.56269	1717.3
3231.8527	1713.2
3234.14133	1710.3
3236.42858	1717.1
3238.71446	1713.6
3240.99896	1701.5
3243.28209	1706.7
3245.56384	1706.2
3247.84423	1692.8
3250.12324	1696
3252.40088	1691.9
3254.67715	1691.3
3256.95205	1688.1
3259.22558	1674.9
3261.49775	1677
3263.76855	1682
3266.03799	1666
3268.30606	1667.1
3270.57277	1659.2
3272.83812	1666.3
3275.10211	1668.4
3277.36474	1671.6
3279.62601	1668.9
3281.88593	1668.1
3284.14448	1674.8
3286.40168	1687.6
3288.65753	1677.5
3290.91202	1673.2
3293.16516	1677.7
3295.41695	1673.8
3297.66738	1672.9
3299.91647	1654.5
3302.16421	1652.7
3304.4106	1629.4
3306.65564	1614.6
3308.89933	1607.9
3311.14169	1598.6
3313.38269	1581.8
3315.62236	1559.5
3317.86068	1559.3
3320.09766	1533.7
3322.3333	1526.3
3324.5676	1525.1
3326.80056	1500.6
3329.03219	1495.5
3331.26248	1.4
3333.49143	0
3335.71905	-0.6
