Data from AgNPs_FTO_APTES_UA_20uM_CRN_2uM_R6G_10uM_NaF_0.1M_Addition_RamanShift__20__13-03-52-092.txt Node

Date: Thu Feb 17 13:03:52 GMT 2022
User: TCL
Spectrometer: QEP01345
Trigger mode: 4
Integration Time (sec): 7.000000E0
Scans to average: 10
Electric dark correction enabled: true
Nonlinearity correction enabled: false
Boxcar width: 0
XAxis mode: Raman Shifts
Number of Pixels in Spectrum: 1044
>>>>>Begin Spectral Data<<<<<
46.04893	-0.775
50.45542	-1.775
54.85868	-2.975
59.25871	-0.875
63.6555	122.725
68.04907	126.425
72.43941	134.825
76.82654	130.625
81.21044	140.625
85.59113	144.425
89.96862	143.625
94.34289	153.625
98.71396	151.625
103.08183	158.925
107.4465	166.725
111.80798	168.525
116.16626	175.225
120.52136	183.325
124.87327	194.425
129.222	206.125
133.56755	218.925
137.90993	237.025
142.24913	265.825
146.58517	303.525
150.91804	358.125
155.24774	427.625
159.57429	535.125
163.89768	694.025
168.21792	938.825
172.53501	1290.725
176.84895	1814.525
181.15975	2562.525
185.46741	3612.825
189.77193	4990.025
194.07331	6677.925
198.37157	8636.225
202.6667	10678.225
206.9587	12706.725
211.24758	14652.125
215.53334	16700.025
219.81599	18800.125
224.09553	21167.425
228.37195	23749.125
232.64527	26579.325
236.91549	29607.225
241.18261	32669.325
245.44663	35531.325
249.70755	38175.825
253.96539	40472.425
258.22014	42468.325
262.4718	44026.725
266.72039	45294.725
270.96589	45926.625
275.20832	46095.225
279.44768	45868.425
283.68397	45555.425
287.91719	45277.925
292.14735	45020.925
296.37445	45009.525
300.59849	45002.025
304.81948	45122.025
309.03742	45027.025
313.25231	44622.425
317.46415	43845.025
321.67296	42896.225
325.87872	42187.625
330.08145	41852.225
334.28114	41886.325
338.47781	42301.125
342.67145	42798.425
346.86207	43524.325
351.04966	44388.625
355.23424	45235.925
359.4158	46004.925
363.59435	46609.625
367.76989	47011.025
371.94243	47326.025
376.11196	47666.125
380.27849	47856.625
384.44203	48209.325
388.60257	48493.325
392.76012	48872.125
396.91468	49344.925
401.06626	50008.225
405.21485	50486.125
409.36047	50428.025
413.50311	49924.125
417.64277	49481.625
421.77947	49421.525
425.9132	49657.025
430.04396	50044.125
434.17176	50408.725
438.2966	50965.425
442.41849	51857.225
446.53742	53163.025
450.6534	54587.725
454.76644	55746.325
458.87653	56233.025
462.98368	56005.625
467.08789	55360.925
471.18916	54598.525
475.2875	53898.125
479.38291	53588.625
483.4754	53196.825
487.56496	52653.225
491.6516	51921.725
495.73531	51285.325
499.81612	50933.225
503.89401	51164.425
507.96899	51337.425
512.04106	51196.825
516.11023	50948.625
520.1765	50639.225
524.23987	50446.725
528.30034	50179.225
532.35792	49854.925
536.41261	49418.825
540.46441	49069.325
544.51333	49125.325
548.55936	49607.625
552.60252	50610.025
556.64279	51727.925
560.6802	52508.325
564.71473	52963.425
568.7464	53724.525
572.7752	54801.025
576.80114	55634.525
580.82422	56355.925
584.84444	56969.625
588.86181	57738.525
592.87633	58628.725
596.888	58883.325
600.89682	58460.125
604.9028	59651.125
608.90594	63859.425
612.90624	68041.025
616.90371	64279.425
620.89834	55746.125
624.89015	52015.325
628.87913	51571.925
632.86528	51567.525
636.84862	51445.425
640.82913	50764.125
644.80683	49698.025
648.78172	48856.525
652.75379	48835.225
656.72306	49447.725
660.68952	50282.625
664.65319	50100.925
668.61405	49396.125
672.57211	49261.025
676.52738	49318.725
680.47986	49336.525
684.42955	49082.225
688.37646	49075.425
692.32058	49343.825
696.26192	49919.725
700.20048	50460.825
704.13626	50788.825
708.06928	50685.625
711.99952	50336.425
715.927	50312.425
719.85171	50413.125
723.77365	50316.825
727.69284	49980.525
731.60928	49531.125
735.52295	49413.425
739.43388	49537.625
743.34206	49717.125
747.24749	49978.025
751.15017	50269.925
755.05012	50996.225
758.94733	52257.525
762.8418	54501.025
766.73354	57905.225
770.62254	61103.025
774.50882	61587.125
778.39237	59088.825
782.27321	55401.425
786.15132	52469.625
790.02671	50652.525
793.89938	49820.325
797.76935	49496.125
801.6366	49414.825
805.50115	49303.725
809.36299	49129.525
813.22213	48889.025
817.07857	48725.825
820.93231	48620.825
824.78336	48577.625
828.63172	48474.225
832.47738	48477.325
836.32036	48563.225
840.16066	48742.225
843.99827	48873.825
847.8332	48844.325
851.66546	48714.125
855.49504	48641.125
859.32195	48651.125
863.1462	48569.025
866.96777	48487.525
870.78668	48420.225
874.60293	48364.325
878.41652	48417.025
882.22745	48592.225
886.03573	48675.725
889.84136	48706.825
893.64433	48468.425
897.44466	48268.125
901.24235	48163.925
905.0374	47990.125
908.8298	47881.925
912.61957	47986.325
916.40671	48387.125
920.19121	48936.825
923.97308	49369.325
927.75233	49491.825
931.52895	49163.925
935.30295	48634.925
939.07433	48045.025
942.84309	47553.025
946.60924	47431.825
950.37278	47367.725
954.13371	47375.725
957.89203	47163.025
961.64774	47041.125
965.40086	46949.825
969.15137	46892.325
972.89929	46614.925
976.64461	46566.325
980.38733	46566.525
984.12747	46757.825
987.86502	47147.125
991.59999	47778.425
995.33237	48649.125
999.06217	49771.525
1002.78939	51223.325
1006.51404	52189.325
1010.23611	52846.325
1013.95561	53277.425
1017.67255	53338.325
1021.38692	52858.325
1025.09872	52301.325
1028.80796	52346.325
1032.51465	53146.225
1036.21877	54016.025
1039.92035	54111.225
1043.61937	53603.825
1047.31584	52742.025
1051.00976	51703.225
1054.70114	51226.025
1058.38998	51212.625
1062.07627	51428.825
1065.76003	51739.125
1069.44126	52137.225
1073.11995	52700.425
1076.79611	53122.425
1080.46974	53587.325
1084.14085	54024.325
1087.80943	54602.725
1091.47549	54900.925
1095.13903	54812.625
1098.80005	54189.825
1102.45857	53377.725
1106.11456	52898.725
1109.76805	52717.125
1113.41903	53086.825
1117.06751	53469.925
1120.71348	53937.425
1124.35696	54315.025
1127.99793	54617.325
1131.63641	54736.925
1135.2724	54453.225
1138.90589	54102.725
1142.5369	54016.525
1146.16542	54010.825
1149.79145	54209.425
1153.415	54655.625
1157.03607	55390.625
1160.65467	56654.325
1164.27079	58518.025
1167.88443	61041.925
1171.49561	64357.625
1175.10432	68641.925
1178.71056	73824.325
1182.31434	78699.725
1185.91565	81171.825
1189.51451	80891.125
1193.11091	78753.825
1196.70485	75809.225
1200.29634	72969.525
1203.88538	70815.725
1207.47197	69271.825
1211.05612	67956.425
1214.63782	66816.825
1218.21708	66161.825
1221.79391	65954.425
1225.36829	65724.725
1228.94024	64980.025
1232.50976	63790.425
1236.07685	62668.325
1239.6415	62230.725
1243.20374	62138.225
1246.76355	62594.225
1250.32093	63317.125
1253.8759	64536.925
1257.42845	66047.125
1260.97859	67620.325
1264.52631	69130.625
1268.07163	70747.325
1271.61453	72588.525
1275.15503	74458.225
1278.69312	76362.025
1282.22882	78065.325
1285.76211	79637.825
1289.29301	81465.025
1292.82151	83883.325
1296.34761	87263.625
1299.87133	91494.825
1303.39266	96428.525
1306.9116	101973.025
1310.42815	107424.125
1313.94233	111005.925
1317.45412	111651.025
1320.96354	110217.825
1324.47058	108277.525
1327.97525	106288.425
1331.47754	104923.225
1334.97747	104295.725
1338.47502	104487.625
1341.97022	104794.025
1345.46305	103984.025
1348.95352	102364.925
1352.44163	100907.225
1355.92738	101407.725
1359.41078	104200.225
1362.89183	106832.225
1366.37053	104718.925
1369.84688	97010.525
1373.32088	88188.125
1376.79254	82182.725
1380.26186	79789.325
1383.72883	79383.925
1387.19347	79470.225
1390.65578	79172.625
1394.11575	79330.425
1397.57339	80329.125
1401.0287	82014.425
1404.48168	83686.025
1407.93234	84525.425
1411.38068	84089.825
1414.82669	82321.825
1418.27039	79487.625
1421.71177	76316.025
1425.15083	73646.925
1428.58758	72184.525
1432.02203	72371.325
1435.45416	73648.425
1438.88399	75391.525
1442.31151	76960.225
1445.73673	78177.125
1449.15965	79092.425
1452.58027	79702.825
1455.9986	79854.725
1459.41463	80369.625
1462.82837	81469.725
1466.23982	82757.025
1469.64898	84120.425
1473.05586	84876.125
1476.46045	84932.125
1479.86276	84455.025
1483.26279	83606.025
1486.66054	82994.725
1490.05602	83094.125
1493.44922	83269.725
1496.84016	83524.025
1500.22882	84221.825
1503.61521	85922.725
1506.99934	88162.025
1510.38121	90059.725
1513.76081	90353.925
1517.13816	88410.025
1520.51324	85418.125
1523.88607	82992.225
1527.25665	81908.825
1530.62498	81690.825
1533.99105	81810.225
1537.35488	81760.725
1540.71647	81154.125
1544.07581	80239.225
1547.4329	78865.425
1550.78776	77458.925
1554.14038	76467.125
1557.49077	75748.325
1560.83892	75356.425
1564.18484	75185.025
1567.52853	75081.525
1570.86999	75202.525
1574.20922	75827.925
1577.54624	76451.625
1580.88103	76440.125
1584.2136	76786.825
1587.54395	78721.925
1590.87208	82415.625
1594.19801	87604.525
1597.52172	92981.825
1600.84321	94983.325
1604.16251	91871.925
1607.47959	85773.625
1610.79447	79056.625
1614.10715	72835.525
1617.41763	67583.425
1620.7259	63929.725
1624.03199	62031.225
1627.33587	61861.325
1630.63757	63349.725
1633.93707	66778.925
1637.23439	72345.125
1640.52951	80039.925
1643.82246	88440.725
1647.11321	94363.125
1650.40179	94522.425
1653.68819	88109.725
1656.97241	77787.525
1660.25446	67928.625
1663.53433	60736.025
1666.81203	56169.625
1670.08756	53176.825
1673.36092	51304.125
1676.63211	50023.025
1679.90115	49189.725
1683.16801	48417.025
1686.43272	47960.125
1689.69527	47509.225
1692.95567	47237.825
1696.2139	47051.825
1699.46999	46970.325
1702.72392	46862.425
1705.97571	46725.325
1709.22535	46625.025
1712.47284	46571.625
1715.71819	46510.525
1718.96139	46452.325
1722.20246	46285.425
1725.44139	46121.725
1728.67818	45889.525
1731.91284	45680.225
1735.14537	45508.525
1738.37576	45293.225
1741.60403	45182.925
1744.83017	45000.125
1748.05418	44873.825
1751.27607	44788.425
1754.49584	44727.025
1757.71349	44756.125
1760.92903	44717.525
1764.14244	44654.125
1767.35375	44569.225
1770.56294	44601.625
1773.77002	44555.925
1776.97499	44551.825
1780.17785	44418.125
1783.37861	44415.725
1786.57727	44265.225
1789.77382	44203.525
1792.96828	44179.125
1796.16064	44144.925
1799.3509	44097.325
1802.53907	44063.125
1805.72514	43903.825
1808.90913	43822.225
1812.09102	43752.525
1815.27083	43675.925
1818.44856	43622.125
1821.6242	43506.125
1824.79776	43529.325
1827.96924	43476.625
1831.13864	43456.125
1834.30597	43431.525
1837.47122	43417.625
1840.6344	43406.525
1843.7955	43389.025
1846.95454	43398.725
1850.11151	43396.125
1853.26642	43369.125
1856.41926	43385.525
1859.57004	43358.025
1862.71876	43295.925
1865.86542	43243.325
1869.01003	43264.225
1872.15258	43248.525
1875.29308	43179.325
1878.43152	43124.825
1881.56792	43120.225
1884.70227	43190.925
1887.83457	43191.625
1890.96482	43192.725
1894.09304	43145.925
1897.21921	43044.925
1900.34335	43009.925
1903.46544	43009.725
1906.58551	43000.525
1909.70353	42920.625
1912.81953	42901.225
1915.93349	42832.525
1919.04543	42716.225
1922.15534	42695.625
1925.26322	42618.725
1928.36908	42596.125
1931.47292	42495.125
1934.57473	42349.825
1937.67453	42306.125
1940.77232	42183.725
1943.86808	42010.525
1946.96184	41958.525
1950.05358	41742.825
1953.14331	41690.125
1956.23103	41539.225
1959.31675	41452.325
1962.40046	41323.125
1965.48217	41145.125
1968.56188	41067.025
1971.63959	40957.825
1974.7153	40900.525
1977.78901	40809.925
1980.86073	40659.025
1983.93046	40490.325
1986.99819	40410.725
1990.06394	40387.825
1993.1277	40238.125
1996.18947	40141.825
1999.24925	40021.125
2002.30706	39892.425
2005.36288	39793.925
2008.41672	39622.825
2011.46859	39546.825
2014.51848	39488.125
2017.56639	39349.825
2020.61233	39239.225
2023.6563	39152.725
2026.6983	39074.225
2029.73833	39013.825
2032.7764	38973.325
2035.8125	38920.125
2038.84664	38891.225
2041.87881	38803.325
2044.90903	38732.825
2047.93729	38675.525
2050.96359	38662.925
2053.98794	38574.525
2057.01034	38587.325
2060.03078	38627.325
2063.04927	38573.325
2066.06582	38576.925
2069.08042	38491.725
2072.09307	38469.825
2075.10378	38423.625
2078.11255	38391.925
2081.11938	38429.225
2084.12426	38399.225
2087.12722	38333.525
2090.12824	38309.225
2093.12732	38272.225
2096.12447	38288.825
2099.11969	38267.525
2102.11299	38247.225
2105.10435	38293.725
2108.09379	38257.425
2111.08131	38298.425
2114.0669	38293.925
2117.05057	38349.425
2120.03233	38392.825
2123.01216	38419.025
2125.99008	38477.525
2128.96609	38502.225
2131.94018	38537.425
2134.91236	38582.525
2137.88263	38654.225
2140.851	38663.925
2143.81746	38708.125
2146.78201	38725.725
2149.74466	38762.725
2152.7054	38729.925
2155.66425	38738.625
2158.6212	38730.525
2161.57625	38715.325
2164.52941	38675.925
2167.48067	38674.625
2170.43004	38666.725
2173.37752	38688.825
2176.32311	38722.025
2179.26681	38705.025
2182.20863	38725.425
2185.14856	38756.525
2188.08661	38700.325
2191.02278	38762.725
2193.95707	38728.225
2196.88948	38668.525
2199.82001	38680.925
2202.74867	38661.725
2205.67545	38633.225
2208.60037	38611.025
2211.52341	38550.925
2214.44458	38545.725
2217.36388	38534.025
2220.28132	38480.125
2223.1969	38434.225
2226.11061	38318.825
2229.02246	38175.425
2231.93245	38104.525
2234.84058	38011.625
2237.74686	38013.525
2240.65128	37991.125
2243.55385	37924.725
2246.45456	37907.625
2249.35343	37842.725
2252.25044	37809.025
2255.14561	37712.325
2258.03893	37667.425
2260.93041	37677.425
2263.82004	37537.725
2266.70783	37482.525
2269.59378	37366.025
2272.4779	37314.225
2275.36017	37252.925
2278.24061	37174.925
2281.11922	37084.125
2283.996	37059.825
2286.87094	36987.025
2289.74405	36983.825
2292.61534	36974.025
2295.4848	36922.725
2298.35243	36966.125
2301.21824	36957.025
2304.08223	36918.325
2306.94439	36901.625
2309.80474	36961.425
2312.66327	37031.325
2315.51999	36911.025
2318.37489	36917.025
2321.22797	36921.125
2324.07925	36877.925
2326.92871	36821.025
2329.77637	36745.625
2332.62222	36728.325
2335.46626	36724.425
2338.3085	36758.525
2341.14893	36756.725
2343.98756	36774.125
2346.8244	36758.825
2349.65943	36796.225
2352.49267	36793.925
2355.32411	36766.325
2358.15376	36743.625
2360.98161	36718.625
2363.80768	36639.525
2366.63195	36639.025
2369.45444	36582.125
2372.27514	36534.525
2375.09405	36495.625
2377.91118	36414.725
2380.72652	36285.325
2383.54009	36210.925
2386.35187	36171.825
2389.16188	36048.625
2391.97011	35995.525
2394.77657	35997.725
2397.58125	35962.425
2400.38416	35888.825
2403.18529	35769.425
2405.98466	35762.025
2408.78226	35722.325
2411.57809	35664.125
2414.37216	35592.525
2417.16446	35572.325
2419.955	35589.725
2422.74378	35557.025
2425.5308	35531.525
2428.31606	35509.325
2431.09956	35488.725
2433.88131	35458.625
2436.6613	35501.925
2439.43954	35479.925
2442.21603	35439.825
2444.99077	35428.725
2447.76377	35378.025
2450.53501	35357.425
2453.30451	35372.625
2456.07226	35368.625
2458.83827	35283.425
2461.60254	35321.125
2464.36507	35296.125
2467.12586	35316.125
2469.88492	35306.325
2472.64224	35300.025
2475.39782	35330.225
2478.15167	35380.025
2480.90379	35353.425
2483.65417	35453.225
2486.40283	35419.225
2489.14976	35415.225
2491.89497	35407.325
2494.63845	35450.525
2497.3802	35473.725
2500.12024	35412.825
2502.85855	35456.025
2505.59514	35363.725
2508.33002	35307.025
2511.06318	35319.325
2513.79462	35300.325
2516.52435	35256.425
2519.25237	35232.725
2521.97867	35217.525
2524.70327	35226.225
2527.42616	35153.425
2530.14734	35163.425
2532.86681	35100.525
2535.58458	35147.225
2538.30065	35108.625
2541.01501	35139.725
2543.72768	35115.525
2546.43864	35072.425
2549.14791	35057.425
2551.85548	34996.925
2554.56136	34942.725
2557.26554	34851.525
2559.96803	34802.225
2562.66883	34771.525
2565.36794	34745.125
2568.06536	34757.525
2570.7611	34687.825
2573.45514	34619.925
2576.14751	34664.525
2578.83819	34600.825
2581.52719	34653.925
2584.21451	34620.925
2586.90015	34582.525
2589.58411	34579.425
2592.2664	34574.925
2594.94701	34563.425
2597.62594	34542.825
2600.30321	34592.925
2602.9788	34567.825
2605.65273	34561.825
2608.32498	34519.625
2610.99557	34556.725
2613.66449	34567.325
2616.33175	34565.725
2618.99734	34520.525
2621.66128	34417.425
2624.32355	34458.425
2626.98416	34459.225
2629.64311	34441.725
2632.30041	34412.925
2634.95605	34409.125
2637.61004	34385.625
2640.26238	34345.225
2642.91306	34366.725
2645.56209	34306.325
2648.20948	34330.925
2650.85521	34281.325
2653.4993	34315.825
2656.14175	34280.525
2658.78255	34356.725
2661.42171	34343.425
2664.05923	34397.825
2666.6951	34356.825
2669.32934	34392.525
2671.96194	34367.625
2674.59291	34424.125
2677.22224	34408.325
2679.84993	34464.025
2682.476	34403.125
2685.10043	34364.325
2687.72324	34346.225
2690.34441	34323.825
2692.96396	34294.625
2695.58188	34364.325
2698.19818	34267.425
2700.81285	34243.825
2703.4259	34252.225
2706.03733	34323.925
2708.64714	34313.125
2711.25533	34298.825
2713.86191	34328.025
2716.46687	34386.425
2719.07021	34417.225
2721.67194	34456.925
2724.27206	34393.425
2726.87057	34430.725
2729.46747	34471.925
2732.06276	34450.925
2734.65644	34460.125
2737.24852	34540.225
2739.83899	34463.625
2742.42786	34474.925
2745.01513	34402.525
2747.60079	34409.425
2750.18486	34397.925
2752.76733	34400.925
2755.3482	34389.725
2757.92747	34384.425
2760.50515	34308.625
2763.08123	34366.725
2765.65573	34308.125
2768.22863	34327.125
2770.79994	34280.425
2773.36967	34276.325
2775.9378	34345.325
2778.50435	34317.625
2781.06932	34289.625
2783.6327	34261.525
2786.1945	34260.225
2788.75471	34174.425
2791.31335	34124.225
2793.87041	34104.925
2796.42589	34052.625
2798.97979	34004.325
2801.53212	33900.225
2804.08288	33841.625
2806.63206	33781.525
2809.17967	33753.725
2811.72571	33651.025
2814.27018	33551.425
2816.81308	33446.725
2819.35442	33405.025
2821.89419	33402.225
2824.43239	33401.625
2826.96904	33377.325
2829.50412	33369.225
2832.03763	33289.925
2834.56959	33255.425
2837.1	33218.325
2839.62884	33227.325
2842.15613	33157.425
2844.68186	33197.925
2847.20604	33161.225
2849.72867	33106.025
2852.24974	33050.425
2854.76927	32981.925
2857.28724	32962.825
2859.80367	33036.325
2862.31855	32976.425
2864.83189	32924.125
2867.34368	32868.525
2869.85393	32851.125
2872.36264	32843.425
2874.8698	32834.725
2877.37543	32743.725
2879.87952	32729.225
2882.38207	32789.425
2884.88308	32779.125
2887.38256	32788.525
2889.88051	32786.525
2892.37692	32774.725
2894.8718	32844.725
2897.36515	32822.925
2899.85698	32883.025
2902.34727	32953.125
2904.83604	32929.525
2907.32328	32985.525
2909.809	32996.825
2912.29319	33070.925
2914.77587	33053.925
2917.25702	33050.025
2919.73665	32995.025
2922.21476	32975.825
2924.69136	32956.025
2927.16644	32963.025
2929.64	32898.625
2932.11205	32877.325
2934.58258	32792.525
2937.05161	32875.725
2939.51912	32800.025
2941.98513	32759.525
2944.44962	32744.725
2946.91261	32630.725
2949.37409	32694.825
2951.83407	32673.425
2954.29254	32698.525
2956.74951	32652.525
2959.20498	32642.125
2961.65895	32621.025
2964.11142	32623.625
2966.56239	32581.125
2969.01186	32566.225
2971.45984	32439.725
2973.90632	32392.825
2976.35131	32343.725
2978.7948	32323.425
2981.23681	32236.225
2983.67732	32192.125
2986.11635	32112.425
2988.55388	32104.925
2990.98993	32011.925
2993.4245	31950.125
2995.85758	31901.225
2998.28917	31757.525
3000.71928	31702.525
3003.14791	31672.625
3005.57506	31625.125
3008.00073	31533.325
3010.42493	31545.225
3012.84764	31407.525
3015.26888	31395.925
3017.68865	31350.325
3020.10694	31301.025
3022.52376	31217.825
3024.9391	31180.225
3027.35298	31149.025
3029.76539	31167.425
3032.17632	31126.825
3034.5858	31101.425
3036.9938	31056.325
3039.40034	31039.925
3041.80542	31019.825
3044.20903	31004.825
3046.61118	30930.825
3049.01187	30862.325
3051.4111	30802.025
3053.80888	30753.725
3056.20519	30713.725
3058.60005	30658.425
3060.99345	30563.825
3063.3854	30490.625
3065.7759	30407.725
3068.16494	30289.925
3070.55254	30202.425
3072.93868	30113.925
3075.32338	30026.125
3077.70662	29992.825
3080.08842	29879.225
3082.46878	29841.025
3084.84769	29756.625
3087.22515	29770.425
3089.60118	29754.125
3091.97576	29748.125
3094.3489	29682.325
3096.72061	29669.225
3099.09087	29700.825
3101.4597	29671.525
3103.82709	29708.925
3106.19305	29639.425
3108.55757	29647.125
3110.92066	29574.125
3113.28232	29549.925
3115.64255	29439.225
3118.00134	29348.125
3120.35871	29263.125
3122.71466	29211.925
3125.06917	29134.925
3127.42226	29090.125
3129.77393	29081.425
3132.12417	29050.625
3134.47299	29015.625
3136.82039	28986.825
3139.16636	29007.225
3141.51092	28922.825
3143.85406	28985.925
3146.19579	28902.725
3148.53609	28898.725
3150.87499	28920.925
3153.21246	28927.625
3155.54853	28949.625
3157.88318	28862.225
3160.21642	28878.125
3162.54826	28918.625
3164.87868	28844.725
3167.2077	28790.425
3169.5353	28788.525
3171.86151	28792.225
3174.18631	28815.425
3176.5097	28760.825
3178.83169	28739.825
3181.15228	28669.725
3183.47147	28592.125
3185.78926	28607.825
3188.10565	28554.125
3190.42065	28557.925
3192.73424	28519.325
3195.04645	28477.125
3197.35725	28429.325
3199.66667	28385.825
3201.97469	28422.425
3204.28132	28390.225
3206.58656	28423.425
3208.8904	28424.725
3211.19287	28391.125
3213.49394	28396.525
3215.79363	28424.325
3218.09193	28431.125
3220.38884	28403.525
3222.68438	28472.425
3224.97853	28372.625
3227.2713	28346.925
3229.56269	28322.725
3231.8527	28347.025
3234.14133	28267.525
3236.42858	28228.625
3238.71446	28162.225
3240.99896	28130.125
3243.28209	28147.625
3245.56384	28075.925
3247.84423	28013.325
3250.12324	28010.625
3252.40088	27993.625
3254.67715	27965.325
3256.95205	27930.825
3259.22558	27946.425
3261.49775	27885.325
3263.76855	27841.525
3266.03799	27724.725
3268.30606	27755.325
3270.57277	27705.125
3272.83812	27661.325
3275.10211	27556.725
3277.36474	27511.925
3279.62601	27556.625
3281.88593	27469.125
3284.14448	27509.225
3286.40168	27515.125
3288.65753	27459.725
3290.91202	27430.025
3293.16516	27389.225
3295.41695	27332.025
3297.66738	27199.725
3299.91647	27020.825
3302.16421	26833.825
3304.4106	26766.025
3306.65564	26576.725
3308.89933	26430.825
3311.14169	26208.425
3313.38269	26030.025
3315.62236	25879.125
3317.86068	25628.425
3320.09766	25430.725
3322.3333	25260.625
3324.5676	25172.325
3326.80056	24774.925
3329.03219	24648.525
3331.26248	5.825
3333.49143	1.625
3335.71905	-0.375
