Data from AgNPs_FTO_APTES_UA_20uM_CRN_2uM_R6G_10uM_NaF_0.1M_Addition_RamanShift__40__13-27-12-122.txt Node

Date: Thu Feb 17 13:27:12 GMT 2022
User: TCL
Spectrometer: QEP01345
Trigger mode: 4
Integration Time (sec): 7.000000E0
Scans to average: 10
Electric dark correction enabled: true
Nonlinearity correction enabled: false
Boxcar width: 0
XAxis mode: Raman Shifts
Number of Pixels in Spectrum: 1044
>>>>>Begin Spectral Data<<<<<
46.04893	0.3875
50.45542	-1.9125
54.85868	-4.5125
59.25871	-1.3125
63.6555	134.7875
68.04907	141.9875
72.43941	144.2875
76.82654	150.2875
81.21044	154.6875
85.59113	155.8875
89.96862	161.2875
94.34289	168.6875
98.71396	170.6875
103.08183	179.0875
107.4465	179.4875
111.80798	185.7875
116.16626	192.1875
120.52136	205.5875
124.87327	212.5875
129.222	227.4875
133.56755	244.3875
137.90993	263.3875
142.24913	289.8875
146.58517	332.9875
150.91804	389.6875
155.24774	472.3875
159.57429	598.8875
163.89768	773.7875
168.21792	1038.8875
172.53501	1423.7875
176.84895	2015.6875
181.15975	2852.2875
185.46741	4018.5875
189.77193	5552.1875
194.07331	7447.7875
198.37157	9615.3875
202.6667	11926.8875
206.9587	14204.2875
211.24758	16408.8875
215.53334	18606.2875
219.81599	20947.0875
224.09553	23484.0875
228.37195	26343.5875
232.64527	29392.4875
236.91549	32679.7875
241.18261	36088.0875
245.44663	39276.2875
249.70755	42193.8875
253.96539	44807.4875
258.22014	46971.5875
262.4718	48685.4875
266.72039	50021.0875
270.96589	50738.5875
275.20832	50802.7875
279.44768	50503.4875
283.68397	50120.7875
287.91719	49718.9875
292.14735	49302.6875
296.37445	49134.7875
300.59849	49133.0875
304.81948	49279.6875
309.03742	49337.5875
313.25231	49206.6875
317.46415	48816.2875
321.67296	48370.0875
325.87872	47908.7875
330.08145	47777.8875
334.28114	47831.9875
338.47781	48160.8875
342.67145	48794.4875
346.86207	49429.0875
351.04966	50250.2875
355.23424	50968.7875
359.4158	51564.4875
363.59435	51994.8875
367.76989	52399.2875
371.94243	52761.4875
376.11196	53079.9875
380.27849	53412.2875
384.44203	53771.7875
388.60257	54172.5875
392.76012	54768.9875
396.91468	55366.3875
401.06626	55966.2875
405.21485	56400.4875
409.36047	56405.0875
413.50311	56085.9875
417.64277	56033.2875
421.77947	56224.4875
425.9132	56514.9875
430.04396	56907.8875
434.17176	57303.2875
438.2966	57844.2875
442.41849	58815.4875
446.53742	60205.5875
450.6534	61748.0875
454.76644	62890.2875
458.87653	63311.7875
462.98368	62983.6875
467.08789	62353.1875
471.18916	61596.8875
475.2875	60797.0875
479.38291	60374.4875
483.4754	60064.2875
487.56496	59620.5875
491.6516	59028.2875
495.73531	58380.3875
499.81612	57977.6875
503.89401	58136.5875
507.96899	58407.1875
512.04106	58434.5875
516.11023	58198.1875
520.1765	57927.4875
524.23987	57687.6875
528.30034	57514.0875
532.35792	57333.3875
536.41261	56927.8875
540.46441	56556.3875
544.51333	56533.1875
548.55936	56855.2875
552.60252	57834.5875
556.64279	59089.4875
560.6802	60073.4875
564.71473	60697.2875
568.7464	61428.3875
572.7752	62997.1875
576.80114	64852.1875
580.82422	66607.3875
584.84444	68445.9875
588.86181	71154.0875
592.87633	73981.5875
596.888	73955.0875
600.89682	71092.2875
604.9028	69322.6875
608.90594	70686.0875
612.90624	72467.1875
616.90371	68926.2875
620.89834	62351.9875
624.89015	59605.3875
628.87913	59327.0875
632.86528	59719.3875
636.84862	59578.6875
640.82913	58871.6875
644.80683	57951.1875
648.78172	57386.0875
652.75379	57354.5875
656.72306	57914.2875
660.68952	58604.4875
664.65319	58399.9875
668.61405	57763.9875
672.57211	57780.1875
676.52738	58068.3875
680.47986	58063.5875
684.42955	57845.9875
688.37646	57748.6875
692.32058	58011.4875
696.26192	58710.8875
700.20048	59479.7875
704.13626	59854.4875
708.06928	59990.2875
711.99952	59939.7875
715.927	59924.7875
719.85171	60095.1875
723.77365	59921.1875
727.69284	59318.7875
731.60928	58763.1875
735.52295	58582.9875
739.43388	58648.4875
743.34206	58902.6875
747.24749	59214.5875
751.15017	59612.5875
755.05012	60381.4875
758.94733	61437.9875
762.8418	63448.5875
766.73354	66265.3875
770.62254	68722.2875
774.50882	68801.6875
778.39237	66557.6875
782.27321	63672.2875
786.15132	61480.9875
790.02671	60020.1875
793.89938	59203.5875
797.76935	58880.1875
801.6366	58699.9875
805.50115	58633.7875
809.36299	58492.2875
813.22213	58238.1875
817.07857	58171.0875
820.93231	58158.5875
824.78336	57986.7875
828.63172	57853.6875
832.47738	57768.5875
836.32036	57836.6875
840.16066	57943.3875
843.99827	58118.6875
847.8332	58175.4875
851.66546	58204.4875
855.49504	58357.3875
859.32195	58410.7875
863.1462	58351.4875
866.96777	58311.3875
870.78668	58218.1875
874.60293	58289.8875
878.41652	58365.1875
882.22745	58515.5875
886.03573	58583.4875
889.84136	58526.4875
893.64433	58408.0875
897.44466	58188.4875
901.24235	58102.4875
905.0374	58063.6875
908.8298	57935.7875
912.61957	58080.4875
916.40671	58515.6875
920.19121	59247.5875
923.97308	59714.3875
927.75233	59598.0875
931.52895	59106.5875
935.30295	58358.0875
939.07433	57803.6875
942.84309	57374.2875
946.60924	57191.9875
950.37278	57131.8875
954.13371	57282.0875
957.89203	57265.4875
961.64774	57242.8875
965.40086	57170.6875
969.15137	57137.1875
972.89929	56949.7875
976.64461	56820.4875
980.38733	56868.6875
984.12747	56947.9875
987.86502	57268.6875
991.59999	57655.0875
995.33237	58090.7875
999.06217	58822.7875
1002.78939	59808.5875
1006.51404	60846.1875
1010.23611	61690.5875
1013.95561	62346.0875
1017.67255	62558.8875
1021.38692	62080.1875
1025.09872	61232.9875
1028.80796	60578.8875
1032.51465	60416.2875
1036.21877	60721.1875
1039.92035	60843.3875
1043.61937	60767.3875
1047.31584	60718.3875
1051.00976	60506.9875
1054.70114	60564.0875
1058.38998	60785.1875
1062.07627	61227.2875
1065.76003	61822.1875
1069.44126	62463.9875
1073.11995	63287.9875
1076.79611	63917.9875
1080.46974	64346.8875
1084.14085	64729.5875
1087.80943	65193.6875
1091.47549	65586.4875
1095.13903	65628.1875
1098.80005	65042.9875
1102.45857	64158.3875
1106.11456	63387.3875
1109.76805	63076.7875
1113.41903	63088.8875
1117.06751	63204.6875
1120.71348	63621.6875
1124.35696	63953.4875
1127.99793	64329.2875
1131.63641	64540.1875
1135.2724	64474.7875
1138.90589	64463.2875
1142.5369	64740.8875
1146.16542	65096.2875
1149.79145	65662.5875
1153.415	66262.6875
1157.03607	67000.4875
1160.65467	68337.1875
1164.27079	70466.6875
1167.88443	73146.0875
1171.49561	76043.0875
1175.10432	79516.8875
1178.71056	83730.4875
1182.31434	87628.6875
1185.91565	89327.5875
1189.51451	88552.9875
1193.11091	86767.8875
1196.70485	84845.1875
1200.29634	82926.1875
1203.88538	81751.1875
1207.47197	81411.7875
1211.05612	80968.6875
1214.63782	80031.7875
1218.21708	78436.1875
1221.79391	76970.1875
1225.36829	75968.2875
1228.94024	75230.3875
1232.50976	74377.8875
1236.07685	73229.0875
1239.6415	72541.5875
1243.20374	72442.0875
1246.76355	72868.1875
1250.32093	73789.1875
1253.8759	74847.4875
1257.42845	76237.8875
1260.97859	77841.1875
1264.52631	79524.6875
1268.07163	81344.5875
1271.61453	83054.5875
1275.15503	84784.1875
1278.69312	86661.8875
1282.22882	88725.5875
1285.76211	91357.4875
1289.29301	94432.8875
1292.82151	98303.1875
1296.34761	102814.8875
1299.87133	107901.1875
1303.39266	113045.6875
1306.9116	117598.1875
1310.42815	120853.5875
1313.94233	122398.6875
1317.45412	121753.9875
1320.96354	119894.2875
1324.47058	118160.1875
1327.97525	116784.7875
1331.47754	115654.1875
1334.97747	114625.9875
1338.47502	113657.9875
1341.97022	112753.5875
1345.46305	111462.6875
1348.95352	110321.6875
1352.44163	109795.1875
1355.92738	111012.7875
1359.41078	113839.5875
1362.89183	116248.3875
1366.37053	114846.7875
1369.84688	108159.7875
1373.32088	99346.0875
1376.79254	93123.8875
1380.26186	91018.8875
1383.72883	91600.1875
1387.19347	92278.9875
1390.65578	91892.9875
1394.11575	91783.8875
1397.57339	92331.8875
1401.0287	93426.1875
1404.48168	94194.4875
1407.93234	93938.8875
1411.38068	92366.2875
1414.82669	90071.1875
1418.27039	87216.1875
1421.71177	84436.9875
1425.15083	82056.1875
1428.58758	81140.5875
1432.02203	81764.9875
1435.45416	83547.0875
1438.88399	85775.5875
1442.31151	87479.6875
1445.73673	88298.6875
1449.15965	88668.0875
1452.58027	88686.9875
1455.9986	88399.9875
1459.41463	88717.2875
1462.82837	89626.1875
1466.23982	90956.4875
1469.64898	92232.8875
1473.05586	93282.9875
1476.46045	93629.0875
1479.86276	93311.8875
1483.26279	92474.4875
1486.66054	91938.0875
1490.05602	92004.0875
1493.44922	92579.5875
1496.84016	93043.1875
1500.22882	93844.2875
1503.61521	95058.5875
1506.99934	96378.5875
1510.38121	97399.6875
1513.76081	97112.0875
1517.13816	95789.7875
1520.51324	94493.9875
1523.88607	94015.6875
1527.25665	94635.3875
1530.62498	95550.0875
1533.99105	95957.7875
1537.35488	95085.3875
1540.71647	93291.2875
1544.07581	91029.6875
1547.4329	88789.5875
1550.78776	86778.3875
1554.14038	85369.2875
1557.49077	84528.3875
1560.83892	83986.2875
1564.18484	83772.5875
1567.52853	83808.2875
1570.86999	84426.9875
1574.20922	85695.8875
1577.54624	86875.6875
1580.88103	87462.4875
1584.2136	88430.6875
1587.54395	91003.4875
1590.87208	95111.7875
1594.19801	100126.4875
1597.52172	104810.2875
1600.84321	105762.1875
1604.16251	101821.0875
1607.47959	95050.5875
1610.79447	87981.7875
1614.10715	81767.6875
1617.41763	76885.4875
1620.7259	73659.7875
1624.03199	72117.6875
1627.33587	72204.3875
1630.63757	73822.2875
1633.93707	77680.2875
1637.23439	84115.3875
1640.52951	93706.5875
1643.82246	104997.0875
1647.11321	113472.2875
1650.40179	114132.2875
1653.68819	106074.4875
1656.97241	93635.0875
1660.25446	82071.3875
1663.53433	73774.7875
1666.81203	68421.2875
1670.08756	65106.3875
1673.36092	63082.5875
1676.63211	61656.6875
1679.90115	60622.1875
1683.16801	59845.9875
1686.43272	59362.2875
1689.69527	58976.5875
1692.95567	58602.3875
1696.2139	58516.3875
1699.46999	58359.3875
1702.72392	58221.0875
1705.97571	58113.8875
1709.22535	58003.6875
1712.47284	58019.2875
1715.71819	57968.0875
1718.96139	57848.2875
1722.20246	57666.3875
1725.44139	57499.6875
1728.67818	57236.4875
1731.91284	57038.3875
1735.14537	56768.0875
1738.37576	56621.0875
1741.60403	56436.3875
1744.83017	56274.9875
1748.05418	56176.4875
1751.27607	55982.2875
1754.49584	55905.6875
1757.71349	55984.9875
1760.92903	55881.0875
1764.14244	55864.3875
1767.35375	55765.5875
1770.56294	55804.4875
1773.77002	55752.7875
1776.97499	55682.0875
1780.17785	55674.6875
1783.37861	55548.5875
1786.57727	55431.2875
1789.77382	55323.1875
1792.96828	55354.0875
1796.16064	55247.0875
1799.3509	55147.7875
1802.53907	55064.1875
1805.72514	54923.9875
1808.90913	54903.9875
1812.09102	54747.9875
1815.27083	54654.3875
1818.44856	54592.4875
1821.6242	54582.3875
1824.79776	54553.1875
1827.96924	54459.5875
1831.13864	54445.5875
1834.30597	54428.9875
1837.47122	54383.4875
1840.6344	54322.0875
1843.7955	54367.3875
1846.95454	54374.3875
1850.11151	54370.5875
1853.26642	54244.1875
1856.41926	54206.0875
1859.57004	54214.2875
1862.71876	54105.4875
1865.86542	54057.2875
1869.01003	54031.3875
1872.15258	53978.2875
1875.29308	53919.3875
1878.43152	53824.4875
1881.56792	53791.1875
1884.70227	53829.4875
1887.83457	53878.5875
1890.96482	53881.5875
1894.09304	53758.7875
1897.21921	53709.4875
1900.34335	53600.3875
1903.46544	53598.9875
1906.58551	53543.1875
1909.70353	53548.2875
1912.81953	53468.6875
1915.93349	53392.4875
1919.04543	53262.6875
1922.15534	53197.6875
1925.26322	53136.0875
1928.36908	53082.0875
1931.47292	52981.8875
1934.57473	52843.8875
1937.67453	52840.8875
1940.77232	52705.6875
1943.86808	52488.0875
1946.96184	52388.0875
1950.05358	52214.8875
1953.14331	52154.4875
1956.23103	52008.7875
1959.31675	51912.5875
1962.40046	51746.9875
1965.48217	51522.5875
1968.56188	51398.2875
1971.63959	51274.3875
1974.7153	51153.5875
1977.78901	51021.5875
1980.86073	50868.1875
1983.93046	50761.3875
1986.99819	50661.4875
1990.06394	50544.4875
1993.1277	50453.2875
1996.18947	50324.6875
1999.24925	50248.0875
2002.30706	50078.5875
2005.36288	49886.8875
2008.41672	49726.8875
2011.46859	49543.5875
2014.51848	49429.4875
2017.56639	49308.5875
2020.61233	49178.2875
2023.6563	49063.8875
2026.6983	48973.3875
2029.73833	48890.2875
2032.7764	48798.5875
2035.8125	48717.5875
2038.84664	48654.1875
2041.87881	48535.6875
2044.90903	48494.1875
2047.93729	48406.1875
2050.96359	48377.8875
2053.98794	48319.8875
2057.01034	48320.7875
2060.03078	48276.0875
2063.04927	48300.7875
2066.06582	48240.6875
2069.08042	48254.9875
2072.09307	48171.5875
2075.10378	48112.1875
2078.11255	48099.0875
2081.11938	48191.9875
2084.12426	48162.1875
2087.12722	48125.1875
2090.12824	48085.5875
2093.12732	48046.6875
2096.12447	48093.6875
2099.11969	48034.9875
2102.11299	48066.9875
2105.10435	48088.2875
2108.09379	48060.1875
2111.08131	48148.6875
2114.0669	48141.9875
2117.05057	48121.1875
2120.03233	48198.1875
2123.01216	48318.6875
2125.99008	48316.1875
2128.96609	48460.4875
2131.94018	48473.2875
2134.91236	48498.5875
2137.88263	48511.2875
2140.851	48562.4875
2143.81746	48576.8875
2146.78201	48631.0875
2149.74466	48679.7875
2152.7054	48727.5875
2155.66425	48629.7875
2158.6212	48646.8875
2161.57625	48612.8875
2164.52941	48625.7875
2167.48067	48574.1875
2170.43004	48582.4875
2173.37752	48594.1875
2176.32311	48657.9875
2179.26681	48613.4875
2182.20863	48627.9875
2185.14856	48699.1875
2188.08661	48679.3875
2191.02278	48637.7875
2193.95707	48581.0875
2196.88948	48522.8875
2199.82001	48526.3875
2202.74867	48460.1875
2205.67545	48449.1875
2208.60037	48355.4875
2211.52341	48258.3875
2214.44458	48256.8875
2217.36388	48184.7875
2220.28132	48118.6875
2223.1969	48023.2875
2226.11061	47907.4875
2229.02246	47771.7875
2231.93245	47748.9875
2234.84058	47725.1875
2237.74686	47779.9875
2240.65128	47710.6875
2243.55385	47584.6875
2246.45456	47567.4875
2249.35343	47479.1875
2252.25044	47373.6875
2255.14561	47298.2875
2258.03893	47208.1875
2260.93041	47143.9875
2263.82004	46993.2875
2266.70783	46874.1875
2269.59378	46768.1875
2272.4779	46761.5875
2275.36017	46641.7875
2278.24061	46619.5875
2281.11922	46555.7875
2283.996	46416.2875
2286.87094	46393.8875
2289.74405	46397.5875
2292.61534	46307.0875
2295.4848	46260.5875
2298.35243	46305.0875
2301.21824	46188.9875
2304.08223	46206.3875
2306.94439	46156.2875
2309.80474	46199.0875
2312.66327	46195.0875
2315.51999	46101.7875
2318.37489	46037.7875
2321.22797	45913.7875
2324.07925	45920.8875
2326.92871	45809.6875
2329.77637	45707.3875
2332.62222	45708.6875
2335.46626	45652.4875
2338.3085	45646.1875
2341.14893	45630.9875
2343.98756	45600.1875
2346.8244	45579.4875
2349.65943	45624.0875
2352.49267	45591.1875
2355.32411	45541.5875
2358.15376	45472.8875
2360.98161	45508.1875
2363.80768	45484.9875
2366.63195	45425.2875
2369.45444	45436.8875
2372.27514	45351.3875
2375.09405	45342.8875
2377.91118	45234.6875
2380.72652	45062.9875
2383.54009	45057.9875
2386.35187	44961.8875
2389.16188	44836.6875
2391.97011	44777.0875
2394.77657	44688.0875
2397.58125	44746.6875
2400.38416	44663.4875
2403.18529	44474.0875
2405.98466	44487.8875
2408.78226	44446.0875
2411.57809	44402.0875
2414.37216	44295.6875
2417.16446	44319.8875
2419.955	44301.6875
2422.74378	44266.1875
2425.5308	44258.4875
2428.31606	44288.8875
2431.09956	44268.8875
2433.88131	44183.3875
2436.6613	44242.3875
2439.43954	44185.0875
2442.21603	44163.7875
2444.99077	44072.8875
2447.76377	44123.5875
2450.53501	44040.3875
2453.30451	44008.7875
2456.07226	43964.4875
2458.83827	43979.4875
2461.60254	43899.3875
2464.36507	43873.7875
2467.12586	43883.6875
2469.88492	43872.4875
2472.64224	43884.6875
2475.39782	43815.5875
2478.15167	43867.2875
2480.90379	43871.0875
2483.65417	43852.1875
2486.40283	43854.3875
2489.14976	43797.9875
2491.89497	43796.5875
2494.63845	43832.0875
2497.3802	43741.5875
2500.12024	43781.0875
2502.85855	43694.0875
2505.59514	43714.7875
2508.33002	43656.8875
2511.06318	43592.7875
2513.79462	43587.2875
2516.52435	43550.6875
2519.25237	43545.4875
2521.97867	43508.0875
2524.70327	43529.9875
2527.42616	43484.5875
2530.14734	43414.8875
2532.86681	43353.0875
2535.58458	43288.8875
2538.30065	43327.2875
2541.01501	43367.6875
2543.72768	43298.0875
2546.43864	43273.4875
2549.14791	43187.3875
2551.85548	43120.1875
2554.56136	43026.5875
2557.26554	42971.9875
2559.96803	42894.8875
2562.66883	42864.7875
2565.36794	42822.4875
2568.06536	42756.6875
2570.7611	42700.1875
2573.45514	42638.5875
2576.14751	42616.0875
2578.83819	42577.1875
2581.52719	42584.2875
2584.21451	42457.3875
2586.90015	42465.4875
2589.58411	42359.1875
2592.2664	42353.9875
2594.94701	42305.1875
2597.62594	42341.2875
2600.30321	42302.5875
2602.9788	42259.1875
2605.65273	42236.0875
2608.32498	42265.4875
2610.99557	42195.3875
2613.66449	42192.5875
2616.33175	42149.1875
2618.99734	42059.8875
2621.66128	41935.9875
2624.32355	41900.9875
2626.98416	41918.6875
2629.64311	41842.1875
2632.30041	41790.2875
2634.95605	41771.0875
2637.61004	41776.6875
2640.26238	41776.6875
2642.91306	41721.9875
2645.56209	41662.5875
2648.20948	41669.2875
2650.85521	41685.7875
2653.4993	41726.9875
2656.14175	41686.2875
2658.78255	41764.0875
2661.42171	41763.6875
2664.05923	41845.4875
2666.6951	41772.1875
2669.32934	41794.3875
2671.96194	41765.1875
2674.59291	41809.0875
2677.22224	41792.2875
2679.84993	41823.7875
2682.476	41783.8875
2685.10043	41784.2875
2687.72324	41750.4875
2690.34441	41733.4875
2692.96396	41694.5875
2695.58188	41798.8875
2698.19818	41684.7875
2700.81285	41656.1875
2703.4259	41643.6875
2706.03733	41777.8875
2708.64714	41734.9875
2711.25533	41776.9875
2713.86191	41728.9875
2716.46687	41841.0875
2719.07021	41836.9875
2721.67194	41873.6875
2724.27206	41844.3875
2726.87057	41885.1875
2729.46747	41970.7875
2732.06276	41883.5875
2734.65644	41890.2875
2737.24852	41958.6875
2739.83899	41867.8875
2742.42786	41906.4875
2745.01513	41864.3875
2747.60079	41803.3875
2750.18486	41778.7875
2752.76733	41747.1875
2755.3482	41687.0875
2757.92747	41683.0875
2760.50515	41631.3875
2763.08123	41571.0875
2765.65573	41582.9875
2768.22863	41603.5875
2770.79994	41494.3875
2773.36967	41517.0875
2775.9378	41522.8875
2778.50435	41558.8875
2781.06932	41472.0875
2783.6327	41438.4875
2786.1945	41386.9875
2788.75471	41361.3875
2791.31335	41288.9875
2793.87041	41220.3875
2796.42589	41094.1875
2798.97979	41088.6875
2801.53212	40956.5875
2804.08288	40874.6875
2806.63206	40810.9875
2809.17967	40784.6875
2811.72571	40603.8875
2814.27018	40458.8875
2816.81308	40296.0875
2819.35442	40237.3875
2821.89419	40216.6875
2824.43239	40203.2875
2826.96904	40192.1875
2829.50412	40186.4875
2832.03763	40028.3875
2834.56959	40083.6875
2837.1	39962.3875
2839.62884	40016.1875
2842.15613	39882.4875
2844.68186	39919.6875
2847.20604	39833.8875
2849.72867	39834.6875
2852.24974	39742.4875
2854.76927	39706.8875
2857.28724	39654.8875
2859.80367	39676.0875
2862.31855	39580.5875
2864.83189	39530.3875
2867.34368	39462.8875
2869.85393	39451.8875
2872.36264	39390.2875
2874.8698	39329.9875
2877.37543	39241.5875
2879.87952	39251.5875
2882.38207	39274.9875
2884.88308	39323.7875
2887.38256	39296.3875
2889.88051	39305.5875
2892.37692	39307.9875
2894.8718	39329.6875
2897.36515	39330.0875
2899.85698	39283.0875
2902.34727	39376.7875
2904.83604	39404.8875
2907.32328	39418.3875
2909.809	39446.0875
2912.29319	39431.1875
2914.77587	39469.8875
2917.25702	39459.5875
2919.73665	39350.6875
2922.21476	39405.5875
2924.69136	39319.3875
2927.16644	39311.5875
2929.64	39281.4875
2932.11205	39307.2875
2934.58258	39207.8875
2937.05161	39256.1875
2939.51912	39223.3875
2941.98513	39177.3875
2944.44962	39086.6875
2946.91261	39072.5875
2949.37409	39148.2875
2951.83407	39105.1875
2954.29254	39080.1875
2956.74951	39022.6875
2959.20498	39115.6875
2961.65895	39058.2875
2964.11142	39058.7875
2966.56239	39020.4875
2969.01186	38973.3875
2971.45984	38904.3875
2973.90632	38803.0875
2976.35131	38759.7875
2978.7948	38754.6875
2981.23681	38695.0875
2983.67732	38634.6875
2986.11635	38483.9875
2988.55388	38428.9875
2990.98993	38363.8875
2993.4245	38261.2875
2995.85758	38187.0875
2998.28917	38102.3875
3000.71928	37975.6875
3003.14791	37937.3875
3005.57506	37911.9875
3008.00073	37789.9875
3010.42493	37767.1875
3012.84764	37670.6875
3015.26888	37618.7875
3017.68865	37544.4875
3020.10694	37516.0875
3022.52376	37445.0875
3024.9391	37410.8875
3027.35298	37362.8875
3029.76539	37360.5875
3032.17632	37329.4875
3034.5858	37228.9875
3036.9938	37200.8875
3039.40034	37192.2875
3041.80542	37178.5875
3044.20903	37104.6875
3046.61118	37078.9875
3049.01187	36948.8875
3051.4111	36867.9875
3053.80888	36757.4875
3056.20519	36725.3875
3058.60005	36648.4875
3060.99345	36616.7875
3063.3854	36483.5875
3065.7759	36379.2875
3068.16494	36285.1875
3070.55254	36181.4875
3072.93868	36042.7875
3075.32338	35913.7875
3077.70662	35880.3875
3080.08842	35782.3875
3082.46878	35676.7875
3084.84769	35664.2875
3087.22515	35649.9875
3089.60118	35595.1875
3091.97576	35611.2875
3094.3489	35583.3875
3096.72061	35559.9875
3099.09087	35510.6875
3101.4597	35529.7875
3103.82709	35558.7875
3106.19305	35466.2875
3108.55757	35480.6875
3110.92066	35418.0875
3113.28232	35340.3875
3115.64255	35279.5875
3118.00134	35135.9875
3120.35871	35037.5875
3122.71466	34883.2875
3125.06917	34868.6875
3127.42226	34823.1875
3129.77393	34833.6875
3132.12417	34715.0875
3134.47299	34650.3875
3136.82039	34640.7875
3139.16636	34618.7875
3141.51092	34633.5875
3143.85406	34621.2875
3146.19579	34552.8875
3148.53609	34588.0875
3150.87499	34598.1875
3153.21246	34591.6875
3155.54853	34570.2875
3157.88318	34527.1875
3160.21642	34504.5875
3162.54826	34530.3875
3164.87868	34464.5875
3167.2077	34418.8875
3169.5353	34385.2875
3171.86151	34360.9875
3174.18631	34398.4875
3176.5097	34341.1875
3178.83169	34271.1875
3181.15228	34228.4875
3183.47147	34129.6875
3185.78926	34116.7875
3188.10565	34099.3875
3190.42065	34036.1875
3192.73424	33916.7875
3195.04645	33877.1875
3197.35725	33846.5875
3199.66667	33812.6875
3201.97469	33817.9875
3204.28132	33711.5875
3206.58656	33729.3875
3208.8904	33754.5875
3211.19287	33749.5875
3213.49394	33768.2875
3215.79363	33753.6875
3218.09193	33763.0875
3220.38884	33768.6875
3222.68438	33773.8875
3224.97853	33686.1875
3227.2713	33682.2875
3229.56269	33633.0875
3231.8527	33628.2875
3234.14133	33540.5875
3236.42858	33447.7875
3238.71446	33445.9875
3240.99896	33372.2875
3243.28209	33313.2875
3245.56384	33295.0875
3247.84423	33246.1875
3250.12324	33183.0875
3252.40088	33196.1875
3254.67715	33142.8875
3256.95205	33094.0875
3259.22558	33064.1875
3261.49775	32996.9875
3263.76855	32978.3875
3266.03799	32856.7875
3268.30606	32844.2875
3270.57277	32807.3875
3272.83812	32700.0875
3275.10211	32643.4875
3277.36474	32575.7875
3279.62601	32560.0875
3281.88593	32497.0875
3284.14448	32557.3875
3286.40168	32545.2875
3288.65753	32498.8875
3290.91202	32443.5875
3293.16516	32387.0875
3295.41695	32295.7875
3297.66738	32121.0875
3299.91647	31935.1875
3302.16421	31763.9875
3304.4106	31634.6875
3306.65564	31402.0875
3308.89933	31162.7875
3311.14169	30947.7875
3313.38269	30696.5875
3315.62236	30517.0875
3317.86068	30217.1875
3320.09766	29986.7875
3322.3333	29777.4875
3324.5676	29630.5875
3326.80056	29166.0875
3329.03219	29016.8875
3331.26248	6.8875
3333.49143	0.6875
3335.71905	-0.0125
