Data from AgNPs_FTO_APTES_UA_20uM_CRN_1000uM_R6G_10uM_NaF_0.1M_Addition_RamanShift__23__19-38-35-037.txt Node

Date: Thu Feb 17 19:38:35 GMT 2022
User: TCL
Spectrometer: QEP01345
Trigger mode: 4
Integration Time (sec): 1.000000E1
Scans to average: 7
Electric dark correction enabled: true
Nonlinearity correction enabled: false
Boxcar width: 0
XAxis mode: Raman Shifts
Number of Pixels in Spectrum: 1044
>>>>>Begin Spectral Data<<<<<
46.04893	0.39286
50.45542	-0.32143
54.85868	0.53571
59.25871	-0.17857
63.6555	62.39286
68.04907	58.67857
72.43941	67.53571
76.82654	70.82143
81.21044	72.96429
85.59113	73.67857
89.96862	79.82143
94.34289	75.39286
98.71396	83.82143
103.08183	82.53571
107.4465	89.67857
111.80798	88.10714
116.16626	91.25
120.52136	94.10714
124.87327	100.96429
129.222	101.39286
133.56755	107.53571
137.90993	119.67857
142.24913	124.96429
146.58517	136.25
150.91804	157.67857
155.24774	180.82143
159.57429	236.10714
163.89768	288.25
168.21792	380.67857
172.53501	521.82143
176.84895	734.67857
181.15975	1026.67857
185.46741	1451.67857
189.77193	2020.82143
194.07331	2724.67857
198.37157	3538.96429
202.6667	4402.67857
206.9587	5270.25
211.24758	6139.82143
215.53334	7022.96429
219.81599	7980.25
224.09553	9003.67857
228.37195	10176.39286
232.64527	11455.82143
236.91549	12753.96429
241.18261	13969.25
245.44663	15119.67857
249.70755	16028.25
253.96539	16781.39286
258.22014	17451.67857
262.4718	17906.39286
266.72039	18252.82143
270.96589	18346.25
275.20832	18250.96429
279.44768	17955.39286
283.68397	17597.82143
287.91719	17339.25
292.14735	17216.96429
296.37445	17261.25
300.59849	17440.53571
304.81948	17754.82143
309.03742	18020.25
313.25231	18018.25
317.46415	17647.10714
321.67296	17042.82143
325.87872	16523.67857
330.08145	16296.96429
334.28114	16314.96429
338.47781	16498.39286
342.67145	16779.96429
346.86207	17183.25
351.04966	17718.53571
355.23424	18350.96429
359.4158	18886.67857
363.59435	19299.39286
367.76989	19455.96429
371.94243	19612.96429
376.11196	19600.10714
380.27849	19627.82143
384.44203	19655.53571
388.60257	19595.96429
392.76012	19573.25
396.91468	19674.96429
401.06626	19892.10714
405.21485	20067.82143
409.36047	19978.96429
413.50311	19513.53571
417.64277	19079.25
421.77947	18808.96429
425.9132	18717.10714
430.04396	18744.67857
434.17176	18875.25
438.2966	19128.96429
442.41849	19504.67857
446.53742	19969.96429
450.6534	20455.39286
454.76644	20810.25
458.87653	20908.67857
462.98368	20781.25
467.08789	20483.10714
471.18916	20212.10714
475.2875	19858.96429
479.38291	19618.67857
483.4754	19450.67857
487.56496	19293.67857
491.6516	19137.82143
495.73531	19157.25
499.81612	19095.67857
503.89401	19257.96429
507.96899	19393.39286
512.04106	19491.53571
516.11023	19623.25
520.1765	19739.67857
524.23987	19869.39286
528.30034	19734.10714
532.35792	19711.53571
536.41261	19572.67857
540.46441	19386.25
544.51333	19276.25
548.55936	19280.10714
552.60252	19480.25
556.64279	19692.82143
560.6802	19889.39286
564.71473	20022.39286
568.7464	20255.82143
572.7752	20438.82143
576.80114	20221.25
580.82422	19996.10714
584.84444	20009.10714
588.86181	20299.67857
592.87633	20760.96429
596.888	21056.10714
600.89682	21237.53571
604.9028	22140.10714
608.90594	25040.67857
612.90624	28839.39286
616.90371	27960.25
620.89834	22967.96429
624.89015	20493.67857
628.87913	20035.53571
632.86528	20147.10714
636.84862	20322.39286
640.82913	20166.10714
644.80683	19703.39286
648.78172	19287.96429
652.75379	19220.10714
656.72306	19610.53571
660.68952	20022.25
664.65319	19943.82143
668.61405	19599.39286
672.57211	19531.67857
676.52738	19656.53571
680.47986	19762.39286
684.42955	19605.39286
688.37646	19442.53571
692.32058	19381.25
696.26192	19396.39286
700.20048	19516.53571
704.13626	19603.10714
708.06928	19523.82143
711.99952	19309.53571
715.927	19190.96429
719.85171	19210.39286
723.77365	19267.96429
727.69284	19237.53571
731.60928	19183.10714
735.52295	19189.67857
739.43388	19210.67857
743.34206	19212.82143
747.24749	19215.39286
751.15017	19243.82143
755.05012	19342.39286
758.94733	19701.25
762.8418	20705.25
766.73354	22373.25
770.62254	24226.25
774.50882	25198.53571
778.39237	24615.10714
782.27321	22740.67857
786.15132	20902.25
790.02671	19660.82143
793.89938	19040.53571
797.76935	18874.67857
801.6366	18800.67857
805.50115	18738.25
809.36299	18683.53571
813.22213	18665.53571
817.07857	18567.25
820.93231	18517.67857
824.78336	18503.25
828.63172	18492.39286
832.47738	18507.82143
836.32036	18486.82143
840.16066	18423.82143
843.99827	18463.53571
847.8332	18485.67857
851.66546	18477.96429
855.49504	18521.82143
859.32195	18569.96429
863.1462	18641.10714
866.96777	18640.67857
870.78668	18652.67857
874.60293	18562.67857
878.41652	18559.25
882.22745	18601.53571
886.03573	18657.53571
889.84136	18656.39286
893.64433	18581.10714
897.44466	18481.53571
901.24235	18379.53571
905.0374	18279.96429
908.8298	18182.53571
912.61957	18108.53571
916.40671	18100.10714
920.19121	18228.67857
923.97308	18342.39286
927.75233	18491.25
931.52895	18637.53571
935.30295	18555.39286
939.07433	18316.53571
942.84309	18086.67857
946.60924	17903.39286
950.37278	17764.82143
954.13371	17694.39286
957.89203	17600.10714
961.64774	17562.96429
965.40086	17481.39286
969.15137	17450.82143
972.89929	17393.25
976.64461	17350.67857
980.38733	17374.96429
984.12747	17426.10714
987.86502	17510.67857
991.59999	17635.96429
995.33237	17816.96429
999.06217	18082.96429
1002.78939	18424.82143
1006.51404	18657.39286
1010.23611	18856.25
1013.95561	18956.82143
1017.67255	18994.25
1021.38692	18939.10714
1025.09872	18797.25
1028.80796	18757.82143
1032.51465	18865.96429
1036.21877	19079.82143
1039.92035	19120.25
1043.61937	19025.96429
1047.31584	18901.67857
1051.00976	18683.82143
1054.70114	18559.39286
1058.38998	18469.53571
1062.07627	18496.82143
1065.76003	18455.82143
1069.44126	18477.39286
1073.11995	18582.25
1076.79611	18684.82143
1080.46974	18848.39286
1084.14085	19043.96429
1087.80943	19244.25
1091.47549	19333.82143
1095.13903	19200.53571
1098.80005	18926.82143
1102.45857	18712.10714
1106.11456	18668.67857
1109.76805	18798.67857
1113.41903	18991.82143
1117.06751	19345.67857
1120.71348	19772.67857
1124.35696	20181.10714
1127.99793	20607.25
1131.63641	20612.96429
1135.2724	20278.10714
1138.90589	19823.67857
1142.5369	19480.39286
1146.16542	19225.96429
1149.79145	19005.25
1153.415	18913.53571
1157.03607	18965.10714
1160.65467	19156.96429
1164.27079	19564.39286
1167.88443	20244.67857
1171.49561	21068.39286
1175.10432	22318.96429
1178.71056	24060.82143
1182.31434	25717.39286
1185.91565	26415.67857
1189.51451	26033.82143
1193.11091	24975.82143
1196.70485	23881.96429
1200.29634	23076.82143
1203.88538	22441.82143
1207.47197	21682.82143
1211.05612	21017.39286
1214.63782	20593.82143
1218.21708	20431.39286
1221.79391	20454.39286
1225.36829	20521.53571
1228.94024	20416.67857
1232.50976	20240.25
1236.07685	19988.53571
1239.6415	19985.10714
1243.20374	19986.10714
1246.76355	20117.96429
1250.32093	20311.53571
1253.8759	20552.96429
1257.42845	20967.67857
1260.97859	21289.67857
1264.52631	21665.25
1268.07163	22067.39286
1271.61453	22498.67857
1275.15503	22854.67857
1278.69312	23182.10714
1282.22882	23407.25
1285.76211	23748.96429
1289.29301	24217.53571
1292.82151	24776.53571
1296.34761	25462.53571
1299.87133	26464.10714
1303.39266	27964.67857
1306.9116	30103.82143
1310.42815	32330.39286
1313.94233	33320.25
1317.45412	32568.25
1320.96354	30830.25
1324.47058	29143.39286
1327.97525	27660.82143
1331.47754	26813.96429
1334.97747	26463.82143
1338.47502	26588.82143
1341.97022	27064.82143
1345.46305	27769.10714
1348.95352	28710.10714
1352.44163	30064.96429
1355.92738	31919.82143
1359.41078	34674.53571
1362.89183	37229.39286
1366.37053	36465.25
1369.84688	32247.53571
1373.32088	27985.82143
1376.79254	25350.96429
1380.26186	24016.39286
1383.72883	23268.10714
1387.19347	22768.25
1390.65578	22258.25
1394.11575	21846.82143
1397.57339	21762.67857
1401.0287	21946.25
1404.48168	22211.10714
1407.93234	22396.53571
1411.38068	22565.10714
1414.82669	22601.96429
1418.27039	22477.82143
1421.71177	22190.39286
1425.15083	21812.67857
1428.58758	21612.67857
1432.02203	21664.10714
1435.45416	21882.67857
1438.88399	22017.67857
1442.31151	22023.82143
1445.73673	22071.39286
1449.15965	22091.96429
1452.58027	22099.53571
1455.9986	22042.96429
1459.41463	21951.96429
1462.82837	22104.10714
1466.23982	22451.96429
1469.64898	22922.10714
1473.05586	23222.39286
1476.46045	23397.96429
1479.86276	23492.82143
1483.26279	23604.82143
1486.66054	23851.96429
1490.05602	24088.82143
1493.44922	24526.53571
1496.84016	25211.96429
1500.22882	26353.53571
1503.61521	28296.53571
1506.99934	30585.67857
1510.38121	32375.39286
1513.76081	32442.25
1517.13816	30633.39286
1520.51324	27978.96429
1523.88607	25680.25
1527.25665	24206.96429
1530.62498	23451.10714
1533.99105	23063.96429
1537.35488	22853.10714
1540.71647	22722.10714
1544.07581	22682.25
1547.4329	22567.82143
1550.78776	22545.25
1554.14038	22461.25
1557.49077	22537.96429
1560.83892	22666.96429
1564.18484	22892.53571
1567.52853	23178.53571
1570.86999	23564.53571
1574.20922	23732.82143
1577.54624	23643.25
1580.88103	23048.53571
1584.2136	22336.67857
1587.54395	22016.10714
1590.87208	22334.53571
1594.19801	23247.10714
1597.52172	24525.82143
1600.84321	25241.96429
1604.16251	24902.25
1607.47959	23830.67857
1610.79447	22488.82143
1614.10715	21193.67857
1617.41763	20228.25
1620.7259	19538.67857
1624.03199	19127.67857
1627.33587	19086.39286
1630.63757	19408.25
1633.93707	20030.53571
1637.23439	21080.67857
1640.52951	22580.67857
1643.82246	24601.25
1647.11321	26675.39286
1650.40179	27715.25
1653.68819	26659.67857
1656.97241	24009.67857
1660.25446	21274.82143
1663.53433	19457.82143
1666.81203	18337.96429
1670.08756	17637.39286
1673.36092	17192.82143
1676.63211	16917.25
1679.90115	16667.53571
1683.16801	16471.39286
1686.43272	16316.25
1689.69527	16215.96429
1692.95567	16089.10714
1696.2139	16042.53571
1699.46999	15986.25
1702.72392	15953.67857
1705.97571	15901.53571
1709.22535	15842.53571
1712.47284	15851.53571
1715.71819	15819.10714
1718.96139	15776.39286
1722.20246	15730.39286
1725.44139	15652.82143
1728.67818	15632.39286
1731.91284	15540.67857
1735.14537	15510.67857
1738.37576	15477.10714
1741.60403	15422.96429
1744.83017	15409.25
1748.05418	15368.96429
1751.27607	15381.10714
1754.49584	15356.82143
1757.71349	15319.67857
1760.92903	15319.10714
1764.14244	15247.10714
1767.35375	15222.39286
1770.56294	15159.53571
1773.77002	15130.82143
1776.97499	15053.39286
1780.17785	15003.96429
1783.37861	14949.10714
1786.57727	14952.10714
1789.77382	14926.53571
1792.96828	14852.25
1796.16064	14811.53571
1799.3509	14781.39286
1802.53907	14794.82143
1805.72514	14706.82143
1808.90913	14702.67857
1812.09102	14673.25
1815.27083	14636.82143
1818.44856	14625.96429
1821.6242	14643.39286
1824.79776	14578.53571
1827.96924	14566.10714
1831.13864	14557.39286
1834.30597	14534.39286
1837.47122	14551.39286
1840.6344	14507.25
1843.7955	14549.53571
1846.95454	14490.53571
1850.11151	14472.39286
1853.26642	14445.25
1856.41926	14430.96429
1859.57004	14403.82143
1862.71876	14399.82143
1865.86542	14394.96429
1869.01003	14453.25
1872.15258	14413.53571
1875.29308	14414.96429
1878.43152	14388.25
1881.56792	14367.96429
1884.70227	14367.39286
1887.83457	14355.67857
1890.96482	14345.10714
1894.09304	14332.10714
1897.21921	14295.53571
1900.34335	14332.39286
1903.46544	14305.39286
1906.58551	14297.96429
1909.70353	14233.96429
1912.81953	14219.10714
1915.93349	14207.53571
1919.04543	14204.25
1922.15534	14171.39286
1925.26322	14137.39286
1928.36908	14108.67857
1931.47292	14103.67857
1934.57473	14090.39286
1937.67453	14067.53571
1940.77232	14005.25
1943.86808	13965.96429
1946.96184	13919.96429
1950.05358	13906.39286
1953.14331	13881.25
1956.23103	13841.25
1959.31675	13823.53571
1962.40046	13796.10714
1965.48217	13739.10714
1968.56188	13685.67857
1971.63959	13670.53571
1974.7153	13648.53571
1977.78901	13627.82143
1980.86073	13604.67857
1983.93046	13539.67857
1986.99819	13464.25
1990.06394	13441.53571
1993.1277	13378.25
1996.18947	13338.82143
1999.24925	13302.67857
2002.30706	13246.82143
2005.36288	13222.53571
2008.41672	13175.25
2011.46859	13113.82143
2014.51848	13115.53571
2017.56639	13068.67857
2020.61233	13011.10714
2023.6563	13008.67857
2026.6983	12962.82143
2029.73833	12935.67857
2032.7764	12958.25
2035.8125	12889.67857
2038.84664	12879.10714
2041.87881	12868.25
2044.90903	12816.96429
2047.93729	12807.96429
2050.96359	12820.82143
2053.98794	12797.82143
2057.01034	12818.39286
2060.03078	12764.25
2063.04927	12748.53571
2066.06582	12743.96429
2069.08042	12735.82143
2072.09307	12731.67857
2075.10378	12734.67857
2078.11255	12717.39286
2081.11938	12724.10714
2084.12426	12724.39286
2087.12722	12712.10714
2090.12824	12715.39286
2093.12732	12703.25
2096.12447	12729.53571
2099.11969	12713.39286
2102.11299	12703.67857
2105.10435	12701.10714
2108.09379	12723.25
2111.08131	12734.82143
2114.0669	12738.96429
2117.05057	12790.10714
2120.03233	12762.96429
2123.01216	12776.67857
2125.99008	12806.82143
2128.96609	12822.53571
2131.94018	12812.25
2134.91236	12826.67857
2137.88263	12815.96429
2140.851	12810.25
2143.81746	12834.67857
2146.78201	12838.25
2149.74466	12858.39286
2152.7054	12851.10714
2155.66425	12865.10714
2158.6212	12838.82143
2161.57625	12811.25
2164.52941	12825.25
2167.48067	12799.82143
2170.43004	12821.39286
2173.37752	12818.53571
2176.32311	12822.10714
2179.26681	12815.82143
2182.20863	12849.53571
2185.14856	12807.25
2188.08661	12805.82143
2191.02278	12824.96429
2193.95707	12794.10714
2196.88948	12789.96429
2199.82001	12812.25
2202.74867	12773.67857
2205.67545	12769.67857
2208.60037	12772.96429
2211.52341	12745.82143
2214.44458	12736.53571
2217.36388	12722.25
2220.28132	12719.39286
2223.1969	12640.67857
2226.11061	12662.10714
2229.02246	12617.67857
2231.93245	12599.96429
2234.84058	12572.82143
2237.74686	12549.67857
2240.65128	12543.96429
2243.55385	12523.53571
2246.45456	12517.96429
2249.35343	12510.82143
2252.25044	12469.96429
2255.14561	12500.82143
2258.03893	12494.53571
2260.93041	12471.25
2263.82004	12428.10714
2266.70783	12409.96429
2269.59378	12371.39286
2272.4779	12374.39286
2275.36017	12318.82143
2278.24061	12287.67857
2281.11922	12235.96429
2283.996	12256.39286
2286.87094	12281.25
2289.74405	12215.10714
2292.61534	12202.53571
2295.4848	12195.53571
2298.35243	12210.82143
2301.21824	12197.53571
2304.08223	12218.82143
2306.94439	12173.96429
2309.80474	12182.96429
2312.66327	12176.82143
2315.51999	12173.39286
2318.37489	12167.25
2321.22797	12133.53571
2324.07925	12144.96429
2326.92871	12125.53571
2329.77637	12089.82143
2332.62222	12066.10714
2335.46626	12073.53571
2338.3085	12067.67857
2341.14893	12048.39286
2343.98756	12063.39286
2346.8244	12030.82143
2349.65943	12048.67857
2352.49267	12055.25
2355.32411	12019.67857
2358.15376	12035.96429
2360.98161	12028.96429
2363.80768	12038.67857
2366.63195	12037.39286
2369.45444	12031.39286
2372.27514	11986.25
2375.09405	11989.96429
2377.91118	11946.67857
2380.72652	11955.25
2383.54009	11880.25
2386.35187	11873.25
2389.16188	11813.10714
2391.97011	11816.39286
2394.77657	11794.96429
2397.58125	11792.96429
2400.38416	11792.53571
2403.18529	11765.10714
2405.98466	11749.39286
2408.78226	11706.25
2411.57809	11685.53571
2414.37216	11681.53571
2417.16446	11655.96429
2419.955	11642.96429
2422.74378	11635.53571
2425.5308	11637.96429
2428.31606	11616.82143
2431.09956	11638.53571
2433.88131	11605.96429
2436.6613	11627.10714
2439.43954	11642.25
2442.21603	11627.67857
2444.99077	11572.53571
2447.76377	11615.25
2450.53501	11574.96429
2453.30451	11571.25
2456.07226	11562.53571
2458.83827	11535.25
2461.60254	11575.67857
2464.36507	11553.25
2467.12586	11490.39286
2469.88492	11496.96429
2472.64224	11537.67857
2475.39782	11504.53571
2478.15167	11513.53571
2480.90379	11532.25
2483.65417	11529.96429
2486.40283	11534.53571
2489.14976	11526.25
2491.89497	11533.67857
2494.63845	11516.82143
2497.3802	11564.96429
2500.12024	11536.82143
2502.85855	11505.25
2505.59514	11464.82143
2508.33002	11452.82143
2511.06318	11460.53571
2513.79462	11445.53571
2516.52435	11399.39286
2519.25237	11396.10714
2521.97867	11358.25
2524.70327	11356.39286
2527.42616	11363.10714
2530.14734	11359.25
2532.86681	11329.82143
2535.58458	11336.96429
2538.30065	11305.25
2541.01501	11306.82143
2543.72768	11304.82143
2546.43864	11299.10714
2549.14791	11300.82143
2551.85548	11261.10714
2554.56136	11253.67857
2557.26554	11244.82143
2559.96803	11215.53571
2562.66883	11199.67857
2565.36794	11205.82143
2568.06536	11150.96429
2570.7611	11148.67857
2573.45514	11152.67857
2576.14751	11135.82143
2578.83819	11100.10714
2581.52719	11067.25
2584.21451	11085.25
2586.90015	11080.67857
2589.58411	11066.96429
2592.2664	11060.39286
2594.94701	11031.67857
2597.62594	11013.25
2600.30321	11003.25
2602.9788	10970.67857
2605.65273	10944.96429
2608.32498	10972.39286
2610.99557	10959.82143
2613.66449	10971.39286
2616.33175	10974.82143
2618.99734	10968.39286
2621.66128	10960.67857
2624.32355	10918.67857
2626.98416	10912.53571
2629.64311	10912.96429
2632.30041	10911.82143
2634.95605	10858.10714
2637.61004	10863.39286
2640.26238	10878.96429
2642.91306	10865.67857
2645.56209	10866.82143
2648.20948	10857.25
2650.85521	10826.25
2653.4993	10833.67857
2656.14175	10841.10714
2658.78255	10842.96429
2661.42171	10856.39286
2664.05923	10867.82143
2666.6951	10851.25
2669.32934	10862.39286
2671.96194	10844.96429
2674.59291	10882.82143
2677.22224	10845.25
2679.84993	10856.82143
2682.476	10841.96429
2685.10043	10835.96429
2687.72324	10854.96429
2690.34441	10865.10714
2692.96396	10854.10714
2695.58188	10859.53571
2698.19818	10862.10714
2700.81285	10831.82143
2703.4259	10840.96429
2706.03733	10850.39286
2708.64714	10855.25
2711.25533	10854.10714
2713.86191	10839.53571
2716.46687	10868.67857
2719.07021	10890.39286
2721.67194	10881.53571
2724.27206	10845.25
2726.87057	10892.25
2729.46747	10863.10714
2732.06276	10866.53571
2734.65644	10864.53571
2737.24852	10856.82143
2739.83899	10852.53571
2742.42786	10867.25
2745.01513	10813.53571
2747.60079	10819.67857
2750.18486	10818.25
2752.76733	10771.82143
2755.3482	10803.53571
2757.92747	10786.53571
2760.50515	10757.10714
2763.08123	10765.82143
2765.65573	10725.82143
2768.22863	10764.25
2770.79994	10731.25
2773.36967	10757.10714
2775.9378	10753.53571
2778.50435	10739.25
2781.06932	10723.39286
2783.6327	10713.10714
2786.1945	10688.53571
2788.75471	10696.25
2791.31335	10665.82143
2793.87041	10636.10714
2796.42589	10655.39286
2798.97979	10638.67857
2801.53212	10622.39286
2804.08288	10617.25
2806.63206	10558.25
2809.17967	10558.10714
2811.72571	10553.82143
2814.27018	10572.39286
2816.81308	10520.10714
2819.35442	10533.96429
2821.89419	10543.67857
2824.43239	10515.96429
2826.96904	10510.96429
2829.50412	10508.10714
2832.03763	10498.53571
2834.56959	10519.10714
2837.1	10529.10714
2839.62884	10491.53571
2842.15613	10486.10714
2844.68186	10475.10714
2847.20604	10465.39286
2849.72867	10474.39286
2852.24974	10449.10714
2854.76927	10416.67857
2857.28724	10449.25
2859.80367	10414.39286
2862.31855	10389.39286
2864.83189	10384.82143
2867.34368	10394.82143
2869.85393	10381.82143
2872.36264	10398.53571
2874.8698	10406.25
2877.37543	10401.53571
2879.87952	10408.82143
2882.38207	10438.10714
2884.88308	10427.67857
2887.38256	10434.10714
2889.88051	10469.67857
2892.37692	10470.10714
2894.8718	10475.39286
2897.36515	10505.25
2899.85698	10504.67857
2902.34727	10546.96429
2904.83604	10536.39286
2907.32328	10566.82143
2909.809	10551.39286
2912.29319	10596.82143
2914.77587	10601.25
2917.25702	10619.96429
2919.73665	10615.67857
2922.21476	10593.82143
2924.69136	10614.53571
2927.16644	10579.39286
2929.64	10616.96429
2932.11205	10600.82143
2934.58258	10571.82143
2937.05161	10602.67857
2939.51912	10577.10714
2941.98513	10543.53571
2944.44962	10542.82143
2946.91261	10551.82143
2949.37409	10518.96429
2951.83407	10502.10714
2954.29254	10491.39286
2956.74951	10482.96429
2959.20498	10497.82143
2961.65895	10449.82143
2964.11142	10434.25
2966.56239	10402.39286
2969.01186	10381.25
2971.45984	10337.10714
2973.90632	10353.39286
2976.35131	10332.39286
2978.7948	10286.53571
2981.23681	10265.25
2983.67732	10252.67857
2986.11635	10219.53571
2988.55388	10216.67857
2990.98993	10174.53571
2993.4245	10166.96429
2995.85758	10156.67857
2998.28917	10146.96429
3000.71928	10125.39286
3003.14791	10068.39286
3005.57506	10111.39286
3008.00073	10089.25
3010.42493	10069.39286
3012.84764	10041.25
3015.26888	10044.10714
3017.68865	10049.67857
3020.10694	10010.82143
3022.52376	10005.39286
3024.9391	9971.25
3027.35298	9950.82143
3029.76539	9962.10714
3032.17632	9945.67857
3034.5858	9917.39286
3036.9938	9918.53571
3039.40034	9943.53571
3041.80542	9901.96429
3044.20903	9905.96429
3046.61118	9882.25
3049.01187	9885.96429
3051.4111	9871.67857
3053.80888	9850.67857
3056.20519	9820.67857
3058.60005	9792.67857
3060.99345	9792.10714
3063.3854	9761.96429
3065.7759	9733.67857
3068.16494	9706.82143
3070.55254	9686.39286
3072.93868	9664.82143
3075.32338	9652.25
3077.70662	9632.53571
3080.08842	9622.25
3082.46878	9611.10714
3084.84769	9604.67857
3087.22515	9614.39286
3089.60118	9602.67857
3091.97576	9632.96429
3094.3489	9653.25
3096.72061	9621.10714
3099.09087	9633.39286
3101.4597	9646.53571
3103.82709	9644.53571
3106.19305	9635.10714
3108.55757	9644.82143
3110.92066	9609.96429
3113.28232	9608.96429
3115.64255	9622.96429
3118.00134	9581.53571
3120.35871	9565.25
3122.71466	9568.67857
3125.06917	9566.39286
3127.42226	9551.53571
3129.77393	9544.96429
3132.12417	9545.53571
3134.47299	9542.82143
3136.82039	9528.67857
3139.16636	9549.39286
3141.51092	9524.10714
3143.85406	9555.53571
3146.19579	9564.96429
3148.53609	9559.25
3150.87499	9558.67857
3153.21246	9591.53571
3155.54853	9600.67857
3157.88318	9647.53571
3160.21642	9657.82143
3162.54826	9685.96429
3164.87868	9655.82143
3167.2077	9637.25
3169.5353	9644.82143
3171.86151	9640.67857
3174.18631	9641.25
3176.5097	9645.39286
3178.83169	9627.25
3181.15228	9613.96429
3183.47147	9555.53571
3185.78926	9598.53571
3188.10565	9582.67857
3190.42065	9582.25
3192.73424	9597.53571
3195.04645	9591.53571
3197.35725	9620.10714
3199.66667	9588.53571
3201.97469	9610.67857
3204.28132	9598.67857
3206.58656	9637.53571
3208.8904	9652.67857
3211.19287	9664.25
3213.49394	9662.25
3215.79363	9672.25
3218.09193	9683.82143
3220.38884	9672.25
3222.68438	9657.82143
3224.97853	9686.25
3227.2713	9685.53571
3229.56269	9666.82143
3231.8527	9676.25
3234.14133	9630.96429
3236.42858	9628.53571
3238.71446	9631.53571
3240.99896	9622.39286
3243.28209	9610.53571
3245.56384	9587.39286
3247.84423	9556.82143
3250.12324	9604.25
3252.40088	9563.82143
3254.67715	9590.82143
3256.95205	9588.82143
3259.22558	9563.53571
3261.49775	9560.53571
3263.76855	9572.25
3266.03799	9530.53571
3268.30606	9553.96429
3270.57277	9526.10714
3272.83812	9514.53571
3275.10211	9487.25
3277.36474	9491.96429
3279.62601	9482.10714
3281.88593	9491.96429
3284.14448	9471.53571
3286.40168	9486.96429
3288.65753	9441.67857
3290.91202	9489.53571
3293.16516	9452.39286
3295.41695	9447.82143
3297.66738	9401.67857
3299.91647	9334.82143
3302.16421	9282.53571
3304.4106	9234.25
3306.65564	9212.10714
3308.89933	9138.67857
3311.14169	9095.25
3313.38269	9002.96429
3315.62236	8954.39286
3317.86068	8921.39286
3320.09766	8789.67857
3322.3333	8766.25
3324.5676	8730.25
3326.80056	8608.10714
3329.03219	8556.96429
3331.26248	0.67857
3333.49143	-0.75
3335.71905	-0.46429
