Data from AgNPs_FTO_APTES_UA_20uM_CRN_0uM_R6G_10uM_NaF_0.1M_Addition_RamanShift__16__11-08-21-941.txt Node

Date: Thu Feb 17 11:08:21 GMT 2022
User: TCL
Spectrometer: QEP01345
Trigger mode: 4
Integration Time (sec): 7.000000E0
Scans to average: 10
Electric dark correction enabled: true
Nonlinearity correction enabled: false
Boxcar width: 0
XAxis mode: Raman Shifts
Number of Pixels in Spectrum: 1044
>>>>>Begin Spectral Data<<<<<
46.04893	-0.7875
50.45542	-0.2875
54.85868	-1.4875
59.25871	1.2125
63.6555	41.9125
68.04907	43.2125
72.43941	45.5125
76.82654	44.7125
81.21044	47.6125
85.59113	53.7125
89.96862	57.4125
94.34289	55.5125
98.71396	58.3125
103.08183	61.5125
107.4465	63.3125
111.80798	62.6125
116.16626	62.0125
120.52136	67.9125
124.87327	68.2125
129.222	69.8125
133.56755	74.5125
137.90993	81.9125
142.24913	87.8125
146.58517	101.5125
150.91804	113.3125
155.24774	128.3125
159.57429	165.4125
163.89768	216.5125
168.21792	288.5125
172.53501	396.1125
176.84895	554.5125
181.15975	780.7125
185.46741	1096.9125
189.77193	1492.7125
194.07331	1998.5125
198.37157	2564.9125
202.6667	3176.3125
206.9587	3781.6125
211.24758	4396.0125
215.53334	5079.6125
219.81599	5818.7125
224.09553	6678.7125
228.37195	7616.4125
232.64527	8627.1125
236.91549	9604.2125
241.18261	10475.5125
245.44663	11095.1125
249.70755	11610.7125
253.96539	12008.6125
258.22014	12316.3125
262.4718	12663.3125
266.72039	12853.4125
270.96589	12923.7125
275.20832	12808.6125
279.44768	12520.9125
283.68397	12249.1125
287.91719	12105.6125
292.14735	12103.3125
296.37445	12390.7125
300.59849	12992.8125
304.81948	13762.3125
309.03742	14429.2125
313.25231	14612.1125
317.46415	14013.8125
321.67296	12849.9125
325.87872	11763.3125
330.08145	11204.1125
334.28114	11081.3125
338.47781	11275.5125
342.67145	11646.2125
346.86207	12187.9125
351.04966	13027.0125
355.23424	13993.6125
359.4158	14749.1125
363.59435	14971.0125
367.76989	14933.7125
371.94243	14778.3125
376.11196	14612.6125
380.27849	14452.4125
384.44203	14227.3125
388.60257	13996.1125
392.76012	13816.5125
396.91468	13932.4125
401.06626	14308.5125
405.21485	14543.3125
409.36047	14174.5125
413.50311	13246.0125
417.64277	12361.7125
421.77947	11870.9125
425.9132	11671.8125
430.04396	11640.9125
434.17176	11647.5125
438.2966	11804.5125
442.41849	12151.9125
446.53742	12640.8125
450.6534	13096.6125
454.76644	13242.6125
458.87653	13123.8125
462.98368	12772.2125
467.08789	12422.7125
471.18916	12112.8125
475.2875	11728.1125
479.38291	11415.5125
483.4754	11207.8125
487.56496	10992.7125
491.6516	10888.3125
495.73531	10845.8125
499.81612	10869.9125
503.89401	11048.3125
507.96899	11277.1125
512.04106	11515.8125
516.11023	11763.9125
520.1765	11893.6125
524.23987	11862.5125
528.30034	11681.3125
532.35792	11417.1125
536.41261	11111.1125
540.46441	10743.6125
544.51333	10516.6125
548.55936	10515.1125
552.60252	10854.7125
556.64279	11281.4125
560.6802	11583.3125
564.71473	11890.1125
568.7464	12615.9125
572.7752	13137.4125
576.80114	12695.7125
580.82422	12048.1125
584.84444	11803.0125
588.86181	11940.6125
592.87633	12335.9125
596.888	12599.7125
600.89682	12612.0125
604.9028	13891.4125
608.90594	18626.4125
612.90624	25443.6125
616.90371	24992.6125
620.89834	16260.9125
624.89015	11635.1125
628.87913	10712.3125
632.86528	10869.8125
636.84862	11197.2125
640.82913	11012.6125
644.80683	10326.3125
648.78172	9789.7125
652.75379	9756.2125
656.72306	10271.7125
660.68952	10990.6125
664.65319	10856.8125
668.61405	10070.2125
672.57211	9671.2125
676.52738	9647.7125
680.47986	9613.1125
684.42955	9449.1125
688.37646	9303.6125
692.32058	9290.5125
696.26192	9439.1125
700.20048	9639.6125
704.13626	9781.0125
708.06928	9767.4125
711.99952	9657.0125
715.927	9617.4125
719.85171	9689.0125
723.77365	9745.0125
727.69284	9611.6125
731.60928	9455.3125
735.52295	9465.3125
739.43388	9487.9125
743.34206	9551.4125
747.24749	9578.3125
751.15017	9644.5125
755.05012	9857.4125
758.94733	10503.2125
762.8418	12198.4125
766.73354	15175.8125
770.62254	18277.7125
774.50882	19784.8125
778.39237	18919.7125
782.27321	15929.0125
786.15132	12868.2125
790.02671	10913.3125
793.89938	10021.7125
797.76935	9607.9125
801.6366	9420.8125
805.50115	9289.9125
809.36299	9222.0125
813.22213	9115.6125
817.07857	9038.9125
820.93231	9004.7125
824.78336	9023.1125
828.63172	9068.8125
832.47738	9122.3125
836.32036	9055.7125
840.16066	8957.9125
843.99827	8925.9125
847.8332	8908.7125
851.66546	8858.6125
855.49504	8863.7125
859.32195	8830.3125
863.1462	8763.2125
866.96777	8737.0125
870.78668	8735.8125
874.60293	8731.0125
878.41652	8765.1125
882.22745	8833.4125
886.03573	8945.3125
889.84136	8924.8125
893.64433	8885.1125
897.44466	8858.3125
901.24235	8850.6125
905.0374	8743.9125
908.8298	8659.1125
912.61957	8582.6125
916.40671	8587.8125
920.19121	8657.1125
923.97308	8810.5125
927.75233	9017.1125
931.52895	9182.0125
935.30295	9054.5125
939.07433	8621.4125
942.84309	8243.9125
946.60924	8034.7125
950.37278	7916.0125
954.13371	7890.9125
957.89203	7857.6125
961.64774	7813.7125
965.40086	7784.5125
969.15137	7763.4125
972.89929	7710.2125
976.64461	7663.2125
980.38733	7660.0125
984.12747	7662.6125
987.86502	7694.6125
991.59999	7753.3125
995.33237	7888.6125
999.06217	8117.5125
1002.78939	8386.2125
1006.51404	8692.1125
1010.23611	8939.2125
1013.95561	9089.2125
1017.67255	9016.8125
1021.38692	8803.5125
1025.09872	8511.2125
1028.80796	8278.4125
1032.51465	8197.0125
1036.21877	8221.4125
1039.92035	8248.4125
1043.61937	8303.7125
1047.31584	8327.7125
1051.00976	8360.1125
1054.70114	8371.8125
1058.38998	8328.9125
1062.07627	8335.3125
1065.76003	8378.6125
1069.44126	8447.6125
1073.11995	8585.8125
1076.79611	8849.7125
1080.46974	9139.3125
1084.14085	9630.1125
1087.80943	10134.8125
1091.47549	10304.7125
1095.13903	10035.2125
1098.80005	9503.4125
1102.45857	9041.1125
1106.11456	8868.7125
1109.76805	8944.8125
1113.41903	9238.3125
1117.06751	9758.5125
1120.71348	10453.5125
1124.35696	11289.9125
1127.99793	11999.7125
1131.63641	11870.5125
1135.2724	10988.4125
1138.90589	10149.3125
1142.5369	9623.8125
1146.16542	9331.9125
1149.79145	9128.4125
1153.415	9083.4125
1157.03607	9185.9125
1160.65467	9463.2125
1164.27079	10043.7125
1167.88443	10965.0125
1171.49561	12448.8125
1175.10432	14783.9125
1178.71056	17850.4125
1182.31434	20178.1125
1185.91565	20785.1125
1189.51451	19907.2125
1193.11091	18366.3125
1196.70485	16679.1125
1200.29634	15233.9125
1203.88538	13955.0125
1207.47197	12594.5125
1211.05612	11496.7125
1214.63782	10887.6125
1218.21708	10779.9125
1221.79391	10902.4125
1225.36829	11003.3125
1228.94024	10930.2125
1232.50976	10671.5125
1236.07685	10453.2125
1239.6415	10362.3125
1243.20374	10348.6125
1246.76355	10323.1125
1250.32093	10405.0125
1253.8759	10662.8125
1257.42845	11097.0125
1260.97859	11720.5125
1264.52631	12491.4125
1268.07163	13194.9125
1271.61453	13830.7125
1275.15503	14299.8125
1278.69312	14493.9125
1282.22882	14627.5125
1285.76211	15080.5125
1289.29301	15817.0125
1292.82151	16651.2125
1296.34761	17641.8125
1299.87133	18976.6125
1303.39266	21122.0125
1306.9116	24413.7125
1310.42815	28206.6125
1313.94233	30503.8125
1317.45412	29623.2125
1320.96354	26784.6125
1324.47058	23667.7125
1327.97525	21027.3125
1331.47754	19335.0125
1334.97747	18509.1125
1338.47502	18445.8125
1341.97022	18948.9125
1345.46305	19947.7125
1348.95352	21584.3125
1352.44163	23829.9125
1355.92738	27111.9125
1359.41078	32147.4125
1362.89183	36887.5125
1366.37053	35719.6125
1369.84688	28963.2125
1373.32088	22446.0125
1376.79254	18487.0125
1380.26186	16489.2125
1383.72883	15347.4125
1387.19347	14481.5125
1390.65578	13764.7125
1394.11575	13388.3125
1397.57339	13331.8125
1401.0287	13472.5125
1404.48168	13613.1125
1407.93234	13660.8125
1411.38068	13527.8125
1414.82669	13303.8125
1418.27039	12957.4125
1421.71177	12588.1125
1425.15083	12185.0125
1428.58758	11969.9125
1432.02203	12122.0125
1435.45416	12371.7125
1438.88399	12528.5125
1442.31151	12574.4125
1445.73673	12666.9125
1449.15965	12834.9125
1452.58027	12882.1125
1455.9986	12865.3125
1459.41463	12944.1125
1462.82837	13240.2125
1466.23982	13639.9125
1469.64898	14044.3125
1473.05586	14261.2125
1476.46045	14324.9125
1479.86276	14369.1125
1483.26279	14565.0125
1486.66054	14964.3125
1490.05602	15589.7125
1493.44922	16568.3125
1496.84016	18086.5125
1500.22882	20562.1125
1503.61521	24072.1125
1506.99934	28223.8125
1510.38121	32187.7125
1513.76081	33837.7125
1517.13816	31528.1125
1520.51324	26400.6125
1523.88607	21442.8125
1527.25665	18214.9125
1530.62498	16438.7125
1533.99105	15432.1125
1537.35488	14716.5125
1540.71647	14136.4125
1544.07581	13812.0125
1547.4329	13630.2125
1550.78776	13591.7125
1554.14038	13704.5125
1557.49077	13943.6125
1560.83892	14367.6125
1564.18484	15005.7125
1567.52853	15715.3125
1570.86999	16373.1125
1574.20922	16769.0125
1577.54624	16611.1125
1580.88103	15462.8125
1584.2136	13893.2125
1587.54395	13006.9125
1590.87208	13147.1125
1594.19801	14202.9125
1597.52172	15719.9125
1600.84321	16455.7125
1604.16251	15709.8125
1607.47959	14234.5125
1610.79447	12742.3125
1614.10715	11316.6125
1617.41763	10215.5125
1620.7259	9469.2125
1624.03199	9093.9125
1627.33587	9099.5125
1630.63757	9481.1125
1633.93707	10353.2125
1637.23439	11890.9125
1640.52951	14314.0125
1643.82246	17670.7125
1647.11321	21349.6125
1650.40179	23651.8125
1653.68819	22563.6125
1656.97241	18478.5125
1660.25446	13956.8125
1663.53433	10784.5125
1666.81203	8963.0125
1670.08756	7966.1125
1673.36092	7381.1125
1676.63211	7029.2125
1679.90115	6766.2125
1683.16801	6587.2125
1686.43272	6479.2125
1689.69527	6376.7125
1692.95567	6309.4125
1696.2139	6291.3125
1699.46999	6252.4125
1702.72392	6212.9125
1705.97571	6183.7125
1709.22535	6120.5125
1712.47284	6126.9125
1715.71819	6155.2125
1718.96139	6145.0125
1722.20246	6103.7125
1725.44139	6069.3125
1728.67818	5978.1125
1731.91284	5902.8125
1735.14537	5828.7125
1738.37576	5731.5125
1741.60403	5743.4125
1744.83017	5714.5125
1748.05418	5683.9125
1751.27607	5665.9125
1754.49584	5629.2125
1757.71349	5639.3125
1760.92903	5602.2125
1764.14244	5589.5125
1767.35375	5565.0125
1770.56294	5551.8125
1773.77002	5501.9125
1776.97499	5476.6125
1780.17785	5446.3125
1783.37861	5422.0125
1786.57727	5405.5125
1789.77382	5382.2125
1792.96828	5367.0125
1796.16064	5365.7125
1799.3509	5353.9125
1802.53907	5329.6125
1805.72514	5297.8125
1808.90913	5277.6125
1812.09102	5285.7125
1815.27083	5262.1125
1818.44856	5233.6125
1821.6242	5215.9125
1824.79776	5195.4125
1827.96924	5192.7125
1831.13864	5201.6125
1834.30597	5194.4125
1837.47122	5169.0125
1840.6344	5162.4125
1843.7955	5168.3125
1846.95454	5175.2125
1850.11151	5147.1125
1853.26642	5144.3125
1856.41926	5152.6125
1859.57004	5161.7125
1862.71876	5149.1125
1865.86542	5139.7125
1869.01003	5145.9125
1872.15258	5139.5125
1875.29308	5119.8125
1878.43152	5133.7125
1881.56792	5138.8125
1884.70227	5130.2125
1887.83457	5141.3125
1890.96482	5130.5125
1894.09304	5109.3125
1897.21921	5130.9125
1900.34335	5114.1125
1903.46544	5129.8125
1906.58551	5115.4125
1909.70353	5133.6125
1912.81953	5104.8125
1915.93349	5095.1125
1919.04543	5059.7125
1922.15534	5048.4125
1925.26322	5004.2125
1928.36908	4981.2125
1931.47292	4953.3125
1934.57473	4902.5125
1937.67453	4876.7125
1940.77232	4870.2125
1943.86808	4817.4125
1946.96184	4830.4125
1950.05358	4806.6125
1953.14331	4786.2125
1956.23103	4759.8125
1959.31675	4730.3125
1962.40046	4750.1125
1965.48217	4729.0125
1968.56188	4721.9125
1971.63959	4718.9125
1974.7153	4734.2125
1977.78901	4710.9125
1980.86073	4682.3125
1983.93046	4663.4125
1986.99819	4637.4125
1990.06394	4609.7125
1993.1277	4590.4125
1996.18947	4569.2125
1999.24925	4557.6125
2002.30706	4533.2125
2005.36288	4507.6125
2008.41672	4497.2125
2011.46859	4477.5125
2014.51848	4490.4125
2017.56639	4444.2125
2020.61233	4446.7125
2023.6563	4428.2125
2026.6983	4404.6125
2029.73833	4391.6125
2032.7764	4384.7125
2035.8125	4385.4125
2038.84664	4354.4125
2041.87881	4353.5125
2044.90903	4342.4125
2047.93729	4335.0125
2050.96359	4337.2125
2053.98794	4316.3125
2057.01034	4309.7125
2060.03078	4324.5125
2063.04927	4304.4125
2066.06582	4312.4125
2069.08042	4297.4125
2072.09307	4287.6125
2075.10378	4275.1125
2078.11255	4285.7125
2081.11938	4272.3125
2084.12426	4280.6125
2087.12722	4271.5125
2090.12824	4272.6125
2093.12732	4281.9125
2096.12447	4275.7125
2099.11969	4260.8125
2102.11299	4274.6125
2105.10435	4274.2125
2108.09379	4286.9125
2111.08131	4279.1125
2114.0669	4282.0125
2117.05057	4281.5125
2120.03233	4285.8125
2123.01216	4294.2125
2125.99008	4313.9125
2128.96609	4316.4125
2131.94018	4298.8125
2134.91236	4322.1125
2137.88263	4320.4125
2140.851	4304.1125
2143.81746	4302.9125
2146.78201	4280.8125
2149.74466	4309.0125
2152.7054	4281.8125
2155.66425	4283.2125
2158.6212	4286.3125
2161.57625	4272.5125
2164.52941	4273.8125
2167.48067	4255.3125
2170.43004	4267.0125
2173.37752	4283.6125
2176.32311	4290.4125
2179.26681	4275.2125
2182.20863	4279.9125
2185.14856	4273.3125
2188.08661	4267.0125
2191.02278	4281.3125
2193.95707	4263.0125
2196.88948	4249.9125
2199.82001	4246.7125
2202.74867	4245.1125
2205.67545	4260.0125
2208.60037	4242.2125
2211.52341	4220.6125
2214.44458	4239.3125
2217.36388	4222.6125
2220.28132	4206.8125
2223.1969	4200.4125
2226.11061	4185.3125
2229.02246	4176.9125
2231.93245	4156.2125
2234.84058	4162.4125
2237.74686	4173.1125
2240.65128	4156.3125
2243.55385	4150.3125
2246.45456	4150.3125
2249.35343	4153.3125
2252.25044	4158.6125
2255.14561	4155.6125
2258.03893	4176.0125
2260.93041	4171.4125
2263.82004	4173.0125
2266.70783	4163.7125
2269.59378	4151.9125
2272.4779	4134.0125
2275.36017	4148.5125
2278.24061	4130.1125
2281.11922	4128.9125
2283.996	4115.0125
2286.87094	4089.7125
2289.74405	4081.7125
2292.61534	4074.6125
2295.4848	4056.1125
2298.35243	4066.2125
2301.21824	4069.4125
2304.08223	4051.0125
2306.94439	4052.9125
2309.80474	4060.2125
2312.66327	4066.5125
2315.51999	4056.7125
2318.37489	4050.5125
2321.22797	4043.6125
2324.07925	4052.3125
2326.92871	4036.8125
2329.77637	4036.7125
2332.62222	4037.9125
2335.46626	4030.3125
2338.3085	4030.7125
2341.14893	4041.5125
2343.98756	4034.6125
2346.8244	4046.9125
2349.65943	4058.4125
2352.49267	4078.0125
2355.32411	4084.2125
2358.15376	4097.6125
2360.98161	4132.9125
2363.80768	4137.2125
2366.63195	4151.4125
2369.45444	4165.6125
2372.27514	4159.0125
2375.09405	4152.6125
2377.91118	4157.4125
2380.72652	4131.3125
2383.54009	4093.8125
2386.35187	4072.8125
2389.16188	4044.6125
2391.97011	4010.2125
2394.77657	4017.8125
2397.58125	3995.6125
2400.38416	3974.4125
2403.18529	3961.1125
2405.98466	3957.8125
2408.78226	3945.0125
2411.57809	3938.3125
2414.37216	3935.5125
2417.16446	3953.2125
2419.955	3944.2125
2422.74378	3934.8125
2425.5308	3948.3125
2428.31606	3952.5125
2431.09956	3969.1125
2433.88131	3963.3125
2436.6613	3960.3125
2439.43954	3976.2125
2442.21603	3968.2125
2444.99077	3991.4125
2447.76377	3997.8125
2450.53501	4012.3125
2453.30451	4017.8125
2456.07226	4030.8125
2458.83827	4014.3125
2461.60254	4007.2125
2464.36507	4016.4125
2467.12586	4014.7125
2469.88492	4023.2125
2472.64224	4019.3125
2475.39782	4019.9125
2478.15167	4034.2125
2480.90379	4055.9125
2483.65417	4077.2125
2486.40283	4084.5125
2489.14976	4100.6125
2491.89497	4132.2125
2494.63845	4126.9125
2497.3802	4119.7125
2500.12024	4120.2125
2502.85855	4118.8125
2505.59514	4081.5125
2508.33002	4045.9125
2511.06318	4041.3125
2513.79462	4005.4125
2516.52435	3995.7125
2519.25237	3972.8125
2521.97867	3960.7125
2524.70327	3955.6125
2527.42616	3928.1125
2530.14734	3926.8125
2532.86681	3919.1125
2535.58458	3929.9125
2538.30065	3923.0125
2541.01501	3923.5125
2543.72768	3951.4125
2546.43864	3941.1125
2549.14791	3950.4125
2551.85548	3950.4125
2554.56136	3959.7125
2557.26554	3937.0125
2559.96803	3947.5125
2562.66883	3943.0125
2565.36794	3937.3125
2568.06536	3936.9125
2570.7611	3926.1125
2573.45514	3918.4125
2576.14751	3909.8125
2578.83819	3896.6125
2581.52719	3922.4125
2584.21451	3903.6125
2586.90015	3890.8125
2589.58411	3887.1125
2592.2664	3887.5125
2594.94701	3900.1125
2597.62594	3886.5125
2600.30321	3899.8125
2602.9788	3885.9125
2605.65273	3888.1125
2608.32498	3895.9125
2610.99557	3886.0125
2613.66449	3889.2125
2616.33175	3901.6125
2618.99734	3907.6125
2621.66128	3893.0125
2624.32355	3888.6125
2626.98416	3896.8125
2629.64311	3876.9125
2632.30041	3878.4125
2634.95605	3860.3125
2637.61004	3868.5125
2640.26238	3854.0125
2642.91306	3850.0125
2645.56209	3832.6125
2648.20948	3844.2125
2650.85521	3855.7125
2653.4993	3859.4125
2656.14175	3854.0125
2658.78255	3874.6125
2661.42171	3888.7125
2664.05923	3903.1125
2666.6951	3886.9125
2669.32934	3907.0125
2671.96194	3904.6125
2674.59291	3892.2125
2677.22224	3914.2125
2679.84993	3906.2125
2682.476	3907.0125
2685.10043	3901.1125
2687.72324	3906.0125
2690.34441	3896.9125
2692.96396	3893.7125
2695.58188	3909.0125
2698.19818	3895.7125
2700.81285	3890.7125
2703.4259	3915.3125
2706.03733	3903.7125
2708.64714	3907.4125
2711.25533	3930.6125
2713.86191	3938.4125
2716.46687	3935.0125
2719.07021	3934.9125
2721.67194	3944.2125
2724.27206	3949.3125
2726.87057	3935.9125
2729.46747	3946.6125
2732.06276	3936.1125
2734.65644	3933.2125
2737.24852	3930.7125
2739.83899	3919.9125
2742.42786	3917.0125
2745.01513	3909.1125
2747.60079	3912.7125
2750.18486	3889.8125
2752.76733	3896.8125
2755.3482	3886.0125
2757.92747	3883.7125
2760.50515	3868.3125
2763.08123	3879.9125
2765.65573	3854.7125
2768.22863	3860.2125
2770.79994	3850.0125
2773.36967	3863.4125
2775.9378	3854.3125
2778.50435	3865.9125
2781.06932	3861.4125
2783.6327	3875.4125
2786.1945	3874.2125
2788.75471	3881.4125
2791.31335	3864.1125
2793.87041	3867.4125
2796.42589	3863.2125
2798.97979	3884.2125
2801.53212	3877.5125
2804.08288	3877.6125
2806.63206	3879.8125
2809.17967	3874.2125
2811.72571	3874.9125
2814.27018	3871.8125
2816.81308	3881.1125
2819.35442	3894.1125
2821.89419	3881.9125
2824.43239	3902.3125
2826.96904	3904.6125
2829.50412	3918.5125
2832.03763	3893.6125
2834.56959	3910.5125
2837.1	3907.7125
2839.62884	3916.3125
2842.15613	3926.5125
2844.68186	3967.2125
2847.20604	3996.3125
2849.72867	4010.5125
2852.24974	4024.8125
2854.76927	4013.8125
2857.28724	4047.1125
2859.80367	4029.9125
2862.31855	4033.0125
2864.83189	4041.7125
2867.34368	4051.7125
2869.85393	4036.5125
2872.36264	4041.8125
2874.8698	4046.6125
2877.37543	4031.6125
2879.87952	4036.1125
2882.38207	4026.9125
2884.88308	4035.0125
2887.38256	4031.2125
2889.88051	4025.8125
2892.37692	4006.0125
2894.8718	4020.0125
2897.36515	4019.7125
2899.85698	4025.5125
2902.34727	4028.4125
2904.83604	4019.8125
2907.32328	4035.8125
2909.809	4051.2125
2912.29319	4030.3125
2914.77587	4047.9125
2917.25702	4033.8125
2919.73665	4028.6125
2922.21476	4029.1125
2924.69136	4002.2125
2927.16644	4010.5125
2929.64	3984.2125
2932.11205	3972.7125
2934.58258	3950.2125
2937.05161	3954.9125
2939.51912	3959.4125
2941.98513	3926.5125
2944.44962	3901.5125
2946.91261	3882.6125
2949.37409	3860.5125
2951.83407	3865.6125
2954.29254	3849.2125
2956.74951	3844.2125
2959.20498	3851.3125
2961.65895	3820.0125
2964.11142	3822.0125
2966.56239	3828.6125
2969.01186	3812.1125
2971.45984	3784.6125
2973.90632	3778.4125
2976.35131	3759.3125
2978.7948	3740.4125
2981.23681	3742.8125
2983.67732	3731.7125
2986.11635	3706.0125
2988.55388	3699.0125
2990.98993	3688.0125
2993.4245	3683.0125
2995.85758	3690.6125
2998.28917	3666.1125
3000.71928	3667.9125
3003.14791	3665.6125
3005.57506	3680.2125
3008.00073	3652.2125
3010.42493	3666.0125
3012.84764	3645.3125
3015.26888	3660.9125
3017.68865	3645.0125
3020.10694	3642.6125
3022.52376	3637.8125
3024.9391	3623.2125
3027.35298	3616.0125
3029.76539	3598.0125
3032.17632	3598.4125
3034.5858	3579.3125
3036.9938	3578.4125
3039.40034	3572.3125
3041.80542	3565.9125
3044.20903	3558.6125
3046.61118	3555.3125
3049.01187	3534.9125
3051.4111	3534.3125
3053.80888	3521.6125
3056.20519	3529.1125
3058.60005	3520.5125
3060.99345	3522.4125
3063.3854	3505.1125
3065.7759	3494.8125
3068.16494	3488.8125
3070.55254	3475.3125
3072.93868	3462.0125
3075.32338	3457.9125
3077.70662	3440.6125
3080.08842	3436.3125
3082.46878	3436.6125
3084.84769	3425.0125
3087.22515	3414.1125
3089.60118	3414.3125
3091.97576	3416.8125
3094.3489	3414.9125
3096.72061	3423.1125
3099.09087	3419.2125
3101.4597	3420.7125
3103.82709	3434.7125
3106.19305	3408.9125
3108.55757	3419.1125
3110.92066	3413.8125
3113.28232	3424.8125
3115.64255	3406.9125
3118.00134	3387.9125
3120.35871	3394.9125
3122.71466	3381.6125
3125.06917	3376.6125
3127.42226	3392.6125
3129.77393	3395.4125
3132.12417	3375.7125
3134.47299	3379.0125
3136.82039	3391.3125
3139.16636	3394.3125
3141.51092	3393.3125
3143.85406	3387.1125
3146.19579	3394.8125
3148.53609	3396.9125
3150.87499	3408.7125
3153.21246	3411.4125
3155.54853	3420.0125
3157.88318	3428.8125
3160.21642	3422.8125
3162.54826	3420.0125
3164.87868	3427.5125
3167.2077	3409.8125
3169.5353	3429.3125
3171.86151	3433.9125
3174.18631	3441.1125
3176.5097	3441.9125
3178.83169	3436.8125
3181.15228	3433.8125
3183.47147	3410.4125
3185.78926	3417.7125
3188.10565	3425.0125
3190.42065	3431.3125
3192.73424	3438.0125
3195.04645	3419.3125
3197.35725	3427.1125
3199.66667	3431.0125
3201.97469	3445.4125
3204.28132	3448.4125
3206.58656	3430.0125
3208.8904	3436.5125
3211.19287	3460.0125
3213.49394	3460.5125
3215.79363	3463.1125
3218.09193	3465.9125
3220.38884	3489.7125
3222.68438	3481.5125
3224.97853	3485.3125
3227.2713	3480.3125
3229.56269	3472.6125
3231.8527	3474.3125
3234.14133	3458.1125
3236.42858	3458.5125
3238.71446	3459.9125
3240.99896	3449.4125
3243.28209	3451.9125
3245.56384	3451.5125
3247.84423	3460.1125
3250.12324	3453.4125
3252.40088	3448.4125
3254.67715	3453.3125
3256.95205	3451.5125
3259.22558	3442.2125
3261.49775	3444.0125
3263.76855	3438.8125
3266.03799	3414.0125
3268.30606	3424.8125
3270.57277	3418.4125
3272.83812	3422.2125
3275.10211	3410.6125
3277.36474	3424.5125
3279.62601	3424.0125
3281.88593	3423.6125
3284.14448	3418.2125
3286.40168	3428.5125
3288.65753	3420.0125
3290.91202	3417.6125
3293.16516	3415.6125
3295.41695	3414.4125
3297.66738	3402.9125
3299.91647	3382.8125
3302.16421	3363.6125
3304.4106	3334.8125
3306.65564	3319.8125
3308.89933	3294.8125
3311.14169	3270.0125
3313.38269	3243.1125
3315.62236	3207.4125
3317.86068	3176.2125
3320.09766	3147.6125
3322.3333	3129.3125
3324.5676	3125.5125
3326.80056	3081.5125
3329.03219	3054.4125
3331.26248	1.7125
3333.49143	-0.1875
3335.71905	0.3125
