Data from AgNPs_FTO_APTES_UA_20uM_CRN_2uM_R6G_10uM_NaF_0.1M_Addition_RamanShift__24__13-08-32-098.txt Node

Date: Thu Feb 17 13:08:32 GMT 2022
User: TCL
Spectrometer: QEP01345
Trigger mode: 4
Integration Time (sec): 7.000000E0
Scans to average: 10
Electric dark correction enabled: true
Nonlinearity correction enabled: false
Boxcar width: 0
XAxis mode: Raman Shifts
Number of Pixels in Spectrum: 1044
>>>>>Begin Spectral Data<<<<<
46.04893	0.7375
50.45542	-1.0625
54.85868	-4.1625
59.25871	-1.6625
63.6555	121.6375
68.04907	126.8375
72.43941	128.5375
76.82654	133.2375
81.21044	137.7375
85.59113	141.2375
89.96862	146.9375
94.34289	150.0375
98.71396	151.8375
103.08183	161.2375
107.4465	167.5375
111.80798	167.8375
116.16626	177.2375
120.52136	181.0375
124.87327	187.8375
129.222	204.1375
133.56755	218.0375
137.90993	234.3375
142.24913	259.1375
146.58517	292.6375
150.91804	351.2375
155.24774	423.7375
159.57429	526.5375
163.89768	685.2375
168.21792	921.0375
172.53501	1254.7375
176.84895	1770.4375
181.15975	2499.5375
185.46741	3521.1375
189.77193	4857.2375
194.07331	6521.1375
198.37157	8413.1375
202.6667	10389.9375
206.9587	12388.8375
211.24758	14335.7375
215.53334	16293.9375
219.81599	18373.0375
224.09553	20693.8375
228.37195	23218.1375
232.64527	26095.4375
236.91549	29083.2375
241.18261	32106.9375
245.44663	34930.0375
249.70755	37419.7375
253.96539	39662.7375
258.22014	41563.6375
262.4718	43204.3375
266.72039	44358.7375
270.96589	45063.9375
275.20832	45239.6375
279.44768	45027.1375
283.68397	44688.4375
287.91719	44371.8375
292.14735	44215.5375
296.37445	44178.3375
300.59849	44378.8375
304.81948	44521.0375
309.03742	44517.7375
313.25231	44103.3375
317.46415	43272.0375
321.67296	42216.0375
325.87872	41361.0375
330.08145	41001.4375
334.28114	41033.6375
338.47781	41453.3375
342.67145	42070.3375
346.86207	42890.2375
351.04966	43854.0375
355.23424	44853.8375
359.4158	45739.5375
363.59435	46363.8375
367.76989	46775.5375
371.94243	47099.2375
376.11196	47431.6375
380.27849	47666.5375
384.44203	47886.6375
388.60257	48120.6375
392.76012	48431.6375
396.91468	48931.3375
401.06626	49684.6375
405.21485	50239.8375
409.36047	50122.1375
413.50311	49520.2375
417.64277	48997.7375
421.77947	48918.2375
425.9132	49109.8375
430.04396	49496.3375
434.17176	49938.5375
438.2966	50579.7375
442.41849	51509.1375
446.53742	52843.7375
450.6534	54372.6375
454.76644	55652.8375
458.87653	56121.2375
462.98368	55871.2375
467.08789	55123.1375
471.18916	54241.8375
475.2875	53362.0375
479.38291	52924.0375
483.4754	52483.7375
487.56496	51952.6375
491.6516	51248.5375
495.73531	50594.3375
499.81612	50216.9375
503.89401	50488.7375
507.96899	50589.2375
512.04106	50523.1375
516.11023	50315.5375
520.1765	50104.7375
524.23987	49953.9375
528.30034	49695.0375
532.35792	49389.5375
536.41261	48922.7375
540.46441	48528.0375
544.51333	48552.1375
548.55936	49026.5375
552.60252	49965.7375
556.64279	51152.5375
560.6802	51881.7375
564.71473	52331.4375
568.7464	53073.6375
572.7752	54101.5375
576.80114	54702.5375
580.82422	55109.7375
584.84444	55563.4375
588.86181	56302.4375
592.87633	57416.9375
596.888	57924.0375
600.89682	57786.6375
604.9028	59434.7375
608.90594	64557.5375
612.90624	69927.1375
616.90371	66255.5375
620.89834	56496.4375
624.89015	52262.9375
628.87913	51691.3375
632.86528	51573.0375
636.84862	51243.5375
640.82913	50541.3375
644.80683	49409.1375
648.78172	48507.4375
652.75379	48527.2375
656.72306	49135.4375
660.68952	50136.6375
664.65319	50076.9375
668.61405	49213.8375
672.57211	48956.7375
676.52738	48994.5375
680.47986	49050.4375
684.42955	48892.5375
688.37646	48870.9375
692.32058	49159.1375
696.26192	49654.5375
700.20048	50193.6375
704.13626	50527.6375
708.06928	50387.2375
711.99952	50050.1375
715.927	49983.6375
719.85171	50059.8375
723.77365	49977.6375
727.69284	49565.5375
731.60928	49224.1375
735.52295	49133.2375
739.43388	49301.2375
743.34206	49532.0375
747.24749	49848.5375
751.15017	50266.4375
755.05012	50951.7375
758.94733	52335.8375
762.8418	54821.4375
766.73354	58652.5375
770.62254	62293.4375
774.50882	63004.8375
778.39237	60330.5375
782.27321	56106.2375
786.15132	52719.7375
790.02671	50747.8375
793.89938	49835.4375
797.76935	49443.0375
801.6366	49397.0375
805.50115	49251.5375
809.36299	49112.3375
813.22213	48848.5375
817.07857	48767.0375
820.93231	48769.4375
824.78336	48684.9375
828.63172	48672.2375
832.47738	48747.0375
836.32036	48876.3375
840.16066	49026.0375
843.99827	49252.8375
847.8332	49146.7375
851.66546	48930.4375
855.49504	48842.0375
859.32195	48832.7375
863.1462	48696.8375
866.96777	48566.5375
870.78668	48505.8375
874.60293	48509.6375
878.41652	48569.6375
882.22745	48749.1375
886.03573	48849.9375
889.84136	48800.2375
893.64433	48611.9375
897.44466	48414.7375
901.24235	48263.9375
905.0374	48257.1375
908.8298	48156.3375
912.61957	48258.4375
916.40671	48621.2375
920.19121	49269.7375
923.97308	49805.5375
927.75233	50005.0375
931.52895	49712.1375
935.30295	49197.8375
939.07433	48540.6375
942.84309	48033.9375
946.60924	47871.7375
950.37278	47728.5375
954.13371	47611.6375
957.89203	47398.2375
961.64774	47270.8375
965.40086	47136.8375
969.15137	46973.1375
972.89929	46799.9375
976.64461	46742.9375
980.38733	46745.1375
984.12747	46955.4375
987.86502	47315.8375
991.59999	47965.1375
995.33237	48996.9375
999.06217	50469.3375
1002.78939	52243.5375
1006.51404	53442.3375
1010.23611	54078.9375
1013.95561	54539.2375
1017.67255	54551.3375
1021.38692	54172.2375
1025.09872	53680.5375
1028.80796	54138.4375
1032.51465	55422.5375
1036.21877	56673.2375
1039.92035	56807.0375
1043.61937	56016.9375
1047.31584	54646.6375
1051.00976	53082.0375
1054.70114	52279.0375
1058.38998	52071.0375
1062.07627	52212.4375
1065.76003	52404.3375
1069.44126	52721.2375
1073.11995	53124.5375
1076.79611	53528.0375
1080.46974	53945.7375
1084.14085	54373.6375
1087.80943	54995.0375
1091.47549	55229.8375
1095.13903	54982.7375
1098.80005	54246.8375
1102.45857	53513.6375
1106.11456	52981.3375
1109.76805	53001.5375
1113.41903	53457.2375
1117.06751	53995.6375
1120.71348	54586.2375
1124.35696	55079.3375
1127.99793	55475.0375
1131.63641	55490.6375
1135.2724	55104.3375
1138.90589	54544.0375
1142.5369	54370.1375
1146.16542	54216.5375
1149.79145	54400.4375
1153.415	54886.3375
1157.03607	55531.0375
1160.65467	56661.0375
1164.27079	58462.0375
1167.88443	60968.3375
1171.49561	64381.4375
1175.10432	68963.5375
1178.71056	74720.7375
1182.31434	80065.9375
1185.91565	82781.5375
1189.51451	82356.1375
1193.11091	79756.6375
1196.70485	76384.6375
1200.29634	73266.5375
1203.88538	70991.2375
1207.47197	69088.6375
1211.05612	67575.5375
1214.63782	66479.9375
1218.21708	66172.7375
1221.79391	66386.3375
1225.36829	66273.3375
1228.94024	65558.2375
1232.50976	64315.9375
1236.07685	63326.0375
1239.6415	62940.7375
1243.20374	63003.2375
1246.76355	63379.7375
1250.32093	64294.1375
1253.8759	65583.9375
1257.42845	67309.8375
1260.97859	68795.2375
1264.52631	70196.6375
1268.07163	71729.1375
1271.61453	73552.0375
1275.15503	75496.4375
1278.69312	77530.6375
1282.22882	79146.3375
1285.76211	80792.1375
1289.29301	82565.4375
1292.82151	84868.3375
1296.34761	87943.7375
1299.87133	92180.0375
1303.39266	97363.6375
1306.9116	103636.7375
1310.42815	109833.5375
1313.94233	113934.7375
1317.45412	114349.4375
1320.96354	112210.5375
1324.47058	109326.2375
1327.97525	106590.2375
1331.47754	104806.9375
1334.97747	104256.2375
1338.47502	104932.0375
1341.97022	105717.0375
1345.46305	105431.5375
1348.95352	104127.9375
1352.44163	102918.4375
1355.92738	104111.9375
1359.41078	108213.3375
1362.89183	111974.5375
1366.37053	109503.1375
1369.84688	100420.9375
1373.32088	90485.5375
1376.79254	83905.6375
1380.26186	80976.9375
1383.72883	80152.3375
1387.19347	79889.1375
1390.65578	79504.8375
1394.11575	79693.8375
1397.57339	80874.7375
1401.0287	82737.0375
1404.48168	84646.8375
1407.93234	85990.5375
1411.38068	86338.2375
1414.82669	85172.6375
1418.27039	82505.2375
1421.71177	79177.8375
1425.15083	76213.6375
1428.58758	74633.4375
1432.02203	74549.8375
1435.45416	75649.0375
1438.88399	77010.1375
1442.31151	78368.6375
1445.73673	79450.7375
1449.15965	80442.0375
1452.58027	81012.2375
1455.9986	81053.6375
1459.41463	81396.1375
1462.82837	82295.6375
1466.23982	83685.6375
1469.64898	85204.0375
1473.05586	86126.3375
1476.46045	86504.6375
1479.86276	86367.0375
1483.26279	85971.1375
1486.66054	85774.9375
1490.05602	86250.6375
1493.44922	86839.5375
1496.84016	87186.3375
1500.22882	88081.9375
1503.61521	89877.1375
1506.99934	92534.1375
1510.38121	95053.7375
1513.76081	95538.3375
1517.13816	93316.0375
1520.51324	89500.8375
1523.88607	86195.6375
1527.25665	84347.1375
1530.62498	83684.1375
1533.99105	83454.4375
1537.35488	83218.4375
1540.71647	82770.2375
1544.07581	82032.1375
1547.4329	80898.5375
1550.78776	79611.1375
1554.14038	78697.3375
1557.49077	78082.1375
1560.83892	77758.2375
1564.18484	77546.1375
1567.52853	77410.1375
1570.86999	77311.0375
1574.20922	77779.4375
1577.54624	78203.5375
1580.88103	77845.3375
1584.2136	78030.3375
1587.54395	79891.8375
1590.87208	83747.1375
1594.19801	89465.0375
1597.52172	95457.0375
1600.84321	98012.1375
1604.16251	95022.0375
1607.47959	88615.4375
1610.79447	81406.3375
1614.10715	74757.4375
1617.41763	69402.8375
1620.7259	65691.3375
1624.03199	63931.7375
1627.33587	63905.5375
1630.63757	65475.8375
1633.93707	68873.6375
1637.23439	74123.1375
1640.52951	81139.7375
1643.82246	88854.1375
1647.11321	94668.6375
1650.40179	95168.3375
1653.68819	89144.4375
1656.97241	79017.7375
1660.25446	69216.7375
1663.53433	62020.5375
1666.81203	57415.2375
1670.08756	54505.6375
1673.36092	52654.6375
1676.63211	51446.9375
1679.90115	50520.5375
1683.16801	49830.0375
1686.43272	49362.3375
1689.69527	48975.9375
1692.95567	48703.0375
1696.2139	48593.8375
1699.46999	48500.1375
1702.72392	48314.1375
1705.97571	48231.3375
1709.22535	48176.9375
1712.47284	48115.2375
1715.71819	48071.9375
1718.96139	48014.8375
1722.20246	47855.0375
1725.44139	47659.5375
1728.67818	47505.0375
1731.91284	47236.0375
1735.14537	47024.4375
1738.37576	46876.3375
1741.60403	46773.9375
1744.83017	46580.8375
1748.05418	46490.7375
1751.27607	46401.5375
1754.49584	46351.4375
1757.71349	46422.4375
1760.92903	46293.0375
1764.14244	46284.5375
1767.35375	46186.6375
1770.56294	46225.1375
1773.77002	46197.7375
1776.97499	46192.6375
1780.17785	46105.5375
1783.37861	46089.3375
1786.57727	45965.6375
1789.77382	45871.8375
1792.96828	45889.8375
1796.16064	45865.8375
1799.3509	45830.2375
1802.53907	45768.6375
1805.72514	45649.6375
1808.90913	45558.5375
1812.09102	45484.3375
1815.27083	45439.4375
1818.44856	45299.2375
1821.6242	45297.2375
1824.79776	45274.6375
1827.96924	45245.5375
1831.13864	45214.2375
1834.30597	45193.8375
1837.47122	45168.7375
1840.6344	45081.9375
1843.7955	45143.1375
1846.95454	45160.3375
1850.11151	45187.8375
1853.26642	45184.3375
1856.41926	45148.8375
1859.57004	45142.9375
1862.71876	45090.5375
1865.86542	45102.9375
1869.01003	45099.7375
1872.15258	45070.5375
1875.29308	45089.5375
1878.43152	45039.5375
1881.56792	45063.6375
1884.70227	45108.5375
1887.83457	45117.0375
1890.96482	45153.8375
1894.09304	45097.9375
1897.21921	45042.6375
1900.34335	45026.6375
1903.46544	44974.4375
1906.58551	44992.9375
1909.70353	45010.3375
1912.81953	45003.1375
1915.93349	44906.6375
1919.04543	44762.6375
1922.15534	44750.2375
1925.26322	44677.8375
1928.36908	44586.7375
1931.47292	44465.6375
1934.57473	44429.0375
1937.67453	44322.7375
1940.77232	44176.8375
1943.86808	44043.6375
1946.96184	43933.3375
1950.05358	43775.6375
1953.14331	43661.0375
1956.23103	43552.6375
1959.31675	43444.5375
1962.40046	43293.0375
1965.48217	43124.4375
1968.56188	43032.6375
1971.63959	42945.7375
1974.7153	42863.3375
1977.78901	42653.9375
1980.86073	42583.5375
1983.93046	42514.0375
1986.99819	42330.2375
1990.06394	42278.4375
1993.1277	42196.5375
1996.18947	42037.9375
1999.24925	41976.9375
2002.30706	41876.5375
2005.36288	41694.1375
2008.41672	41597.2375
2011.46859	41462.5375
2014.51848	41394.7375
2017.56639	41257.4375
2020.61233	41186.2375
2023.6563	41094.4375
2026.6983	40986.3375
2029.73833	40967.3375
2032.7764	40937.4375
2035.8125	40796.1375
2038.84664	40792.5375
2041.87881	40746.4375
2044.90903	40706.4375
2047.93729	40642.1375
2050.96359	40629.0375
2053.98794	40523.8375
2057.01034	40555.7375
2060.03078	40496.7375
2063.04927	40500.6375
2066.06582	40475.9375
2069.08042	40461.9375
2072.09307	40364.9375
2075.10378	40296.7375
2078.11255	40277.8375
2081.11938	40345.2375
2084.12426	40291.0375
2087.12722	40229.4375
2090.12824	40205.4375
2093.12732	40167.2375
2096.12447	40166.7375
2099.11969	40154.8375
2102.11299	40200.4375
2105.10435	40195.3375
2108.09379	40200.4375
2111.08131	40214.3375
2114.0669	40250.9375
2117.05057	40257.5375
2120.03233	40290.1375
2123.01216	40335.6375
2125.99008	40394.8375
2128.96609	40452.1375
2131.94018	40437.3375
2134.91236	40539.9375
2137.88263	40564.1375
2140.851	40600.1375
2143.81746	40620.7375
2146.78201	40648.6375
2149.74466	40672.1375
2152.7054	40680.9375
2155.66425	40676.5375
2158.6212	40681.1375
2161.57625	40649.4375
2164.52941	40654.0375
2167.48067	40576.1375
2170.43004	40631.5375
2173.37752	40598.4375
2176.32311	40626.7375
2179.26681	40647.5375
2182.20863	40706.5375
2185.14856	40745.7375
2188.08661	40681.0375
2191.02278	40676.4375
2193.95707	40673.1375
2196.88948	40678.9375
2199.82001	40703.6375
2202.74867	40690.6375
2205.67545	40618.4375
2208.60037	40600.5375
2211.52341	40614.1375
2214.44458	40556.9375
2217.36388	40508.1375
2220.28132	40491.9375
2223.1969	40435.8375
2226.11061	40327.5375
2229.02246	40215.3375
2231.93245	40161.1375
2234.84058	40063.0375
2237.74686	40087.4375
2240.65128	40021.9375
2243.55385	39956.1375
2246.45456	39917.1375
2249.35343	39863.9375
2252.25044	39813.7375
2255.14561	39735.7375
2258.03893	39771.8375
2260.93041	39671.0375
2263.82004	39574.6375
2266.70783	39470.1375
2269.59378	39346.8375
2272.4779	39292.6375
2275.36017	39194.7375
2278.24061	39146.3375
2281.11922	39085.8375
2283.996	39052.2375
2286.87094	39081.5375
2289.74405	39018.5375
2292.61534	38985.5375
2295.4848	38957.1375
2298.35243	39041.5375
2301.21824	38986.2375
2304.08223	39000.0375
2306.94439	38996.1375
2309.80474	39066.7375
2312.66327	39095.6375
2315.51999	39060.8375
2318.37489	39062.2375
2321.22797	39023.4375
2324.07925	39046.1375
2326.92871	38914.4375
2329.77637	38857.2375
2332.62222	38856.1375
2335.46626	38867.9375
2338.3085	38873.6375
2341.14893	38865.9375
2343.98756	38916.5375
2346.8244	38986.8375
2349.65943	38972.4375
2352.49267	38970.2375
2355.32411	38976.0375
2358.15376	38949.4375
2360.98161	38890.7375
2363.80768	38812.8375
2366.63195	38792.3375
2369.45444	38746.3375
2372.27514	38702.5375
2375.09405	38627.5375
2377.91118	38516.0375
2380.72652	38406.2375
2383.54009	38346.4375
2386.35187	38259.8375
2389.16188	38182.9375
2391.97011	38119.0375
2394.77657	38090.8375
2397.58125	38082.6375
2400.38416	38039.9375
2403.18529	37905.5375
2405.98466	37861.2375
2408.78226	37819.6375
2411.57809	37743.4375
2414.37216	37662.4375
2417.16446	37644.6375
2419.955	37587.7375
2422.74378	37566.5375
2425.5308	37540.7375
2428.31606	37591.2375
2431.09956	37551.7375
2433.88131	37535.1375
2436.6613	37555.6375
2439.43954	37491.8375
2442.21603	37493.0375
2444.99077	37475.3375
2447.76377	37463.0375
2450.53501	37384.4375
2453.30451	37450.4375
2456.07226	37404.2375
2458.83827	37354.7375
2461.60254	37305.5375
2464.36507	37336.5375
2467.12586	37321.7375
2469.88492	37324.1375
2472.64224	37383.4375
2475.39782	37378.3375
2478.15167	37403.3375
2480.90379	37468.3375
2483.65417	37518.8375
2486.40283	37494.3375
2489.14976	37547.0375
2491.89497	37501.4375
2494.63845	37610.1375
2497.3802	37584.2375
2500.12024	37593.9375
2502.85855	37507.8375
2505.59514	37560.3375
2508.33002	37449.5375
2511.06318	37439.8375
2513.79462	37408.2375
2516.52435	37413.4375
2519.25237	37333.8375
2521.97867	37324.2375
2524.70327	37316.1375
2527.42616	37285.9375
2530.14734	37306.9375
2532.86681	37221.9375
2535.58458	37230.9375
2538.30065	37262.6375
2541.01501	37297.8375
2543.72768	37217.4375
2546.43864	37238.7375
2549.14791	37153.7375
2551.85548	37127.1375
2554.56136	37054.4375
2557.26554	36916.8375
2559.96803	36924.5375
2562.66883	36941.0375
2565.36794	36876.8375
2568.06536	36832.1375
2570.7611	36849.8375
2573.45514	36792.5375
2576.14751	36825.7375
2578.83819	36741.7375
2581.52719	36811.7375
2584.21451	36742.7375
2586.90015	36719.2375
2589.58411	36707.1375
2592.2664	36714.7375
2594.94701	36706.2375
2597.62594	36778.0375
2600.30321	36717.6375
2602.9788	36778.4375
2605.65273	36713.4375
2608.32498	36766.4375
2610.99557	36709.8375
2613.66449	36790.7375
2616.33175	36765.4375
2618.99734	36739.8375
2621.66128	36714.2375
2624.32355	36720.4375
2626.98416	36714.5375
2629.64311	36686.6375
2632.30041	36708.4375
2634.95605	36680.7375
2637.61004	36657.0375
2640.26238	36645.4375
2642.91306	36645.9375
2645.56209	36538.9375
2648.20948	36536.4375
2650.85521	36495.2375
2653.4993	36459.9375
2656.14175	36520.5375
2658.78255	36518.6375
2661.42171	36575.8375
2664.05923	36593.1375
2666.6951	36632.1375
2669.32934	36614.1375
2671.96194	36638.0375
2674.59291	36674.1375
2677.22224	36699.6375
2679.84993	36762.2375
2682.476	36677.5375
2685.10043	36611.3375
2687.72324	36550.7375
2690.34441	36630.1375
2692.96396	36589.3375
2695.58188	36611.2375
2698.19818	36507.8375
2700.81285	36520.2375
2703.4259	36518.5375
2706.03733	36595.3375
2708.64714	36533.6375
2711.25533	36543.6375
2713.86191	36568.1375
2716.46687	36638.6375
2719.07021	36622.9375
2721.67194	36669.6375
2724.27206	36634.9375
2726.87057	36679.0375
2729.46747	36692.6375
2732.06276	36674.6375
2734.65644	36708.2375
2737.24852	36751.0375
2739.83899	36690.9375
2742.42786	36737.6375
2745.01513	36723.2375
2747.60079	36670.5375
2750.18486	36700.4375
2752.76733	36672.0375
2755.3482	36635.8375
2757.92747	36701.7375
2760.50515	36603.7375
2763.08123	36612.5375
2765.65573	36593.1375
2768.22863	36609.8375
2770.79994	36552.7375
2773.36967	36601.2375
2775.9378	36594.0375
2778.50435	36619.9375
2781.06932	36563.7375
2783.6327	36602.4375
2786.1945	36535.2375
2788.75471	36464.7375
2791.31335	36448.5375
2793.87041	36406.7375
2796.42589	36311.3375
2798.97979	36273.9375
2801.53212	36182.5375
2804.08288	36176.2375
2806.63206	36073.9375
2809.17967	36027.2375
2811.72571	35972.7375
2814.27018	35863.3375
2816.81308	35768.9375
2819.35442	35772.6375
2821.89419	35721.8375
2824.43239	35738.9375
2826.96904	35744.5375
2829.50412	35772.8375
2832.03763	35647.4375
2834.56959	35630.0375
2837.1	35590.1375
2839.62884	35547.6375
2842.15613	35545.6375
2844.68186	35533.2375
2847.20604	35462.1375
2849.72867	35418.1375
2852.24974	35377.2375
2854.76927	35318.5375
2857.28724	35319.8375
2859.80367	35292.4375
2862.31855	35288.5375
2864.83189	35256.7375
2867.34368	35166.4375
2869.85393	35216.8375
2872.36264	35154.2375
2874.8698	35164.8375
2877.37543	35113.7375
2879.87952	35072.0375
2882.38207	35140.2375
2884.88308	35133.7375
2887.38256	35177.6375
2889.88051	35120.3375
2892.37692	35193.9375
2894.8718	35152.6375
2897.36515	35249.3375
2899.85698	35230.0375
2902.34727	35289.3375
2904.83604	35351.7375
2907.32328	35341.6375
2909.809	35332.8375
2912.29319	35418.2375
2914.77587	35409.5375
2917.25702	35400.6375
2919.73665	35340.0375
2922.21476	35399.7375
2924.69136	35264.7375
2927.16644	35319.8375
2929.64	35223.9375
2932.11205	35215.3375
2934.58258	35138.0375
2937.05161	35140.7375
2939.51912	35176.9375
2941.98513	35080.9375
2944.44962	35072.3375
2946.91261	35014.0375
2949.37409	35079.7375
2951.83407	35048.7375
2954.29254	35047.5375
2956.74951	34986.1375
2959.20498	35011.5375
2961.65895	34919.2375
2964.11142	34994.2375
2966.56239	34956.5375
2969.01186	34920.9375
2971.45984	34764.4375
2973.90632	34688.8375
2976.35131	34656.5375
2978.7948	34615.9375
2981.23681	34569.7375
2983.67732	34476.5375
2986.11635	34404.0375
2988.55388	34421.7375
2990.98993	34310.1375
2993.4245	34230.1375
2995.85758	34198.5375
2998.28917	34066.3375
3000.71928	34032.2375
3003.14791	33927.4375
3005.57506	33921.1375
3008.00073	33787.2375
3010.42493	33813.3375
3012.84764	33724.0375
3015.26888	33678.8375
3017.68865	33607.6375
3020.10694	33579.4375
3022.52376	33503.3375
3024.9391	33432.5375
3027.35298	33376.1375
3029.76539	33398.5375
3032.17632	33347.7375
3034.5858	33313.9375
3036.9938	33317.4375
3039.40034	33294.5375
3041.80542	33267.7375
3044.20903	33175.8375
3046.61118	33191.3375
3049.01187	33080.0375
3051.4111	33049.6375
3053.80888	32961.6375
3056.20519	32942.9375
3058.60005	32851.8375
3060.99345	32792.6375
3063.3854	32676.2375
3065.7759	32543.5375
3068.16494	32476.3375
3070.55254	32345.8375
3072.93868	32291.4375
3075.32338	32128.5375
3077.70662	32127.0375
3080.08842	31987.5375
3082.46878	31922.4375
3084.84769	31876.5375
3087.22515	31907.9375
3089.60118	31895.0375
3091.97576	31850.3375
3094.3489	31813.4375
3096.72061	31812.6375
3099.09087	31814.5375
3101.4597	31794.9375
3103.82709	31804.1375
3106.19305	31769.3375
3108.55757	31754.1375
3110.92066	31689.9375
3113.28232	31640.0375
3115.64255	31544.1375
3118.00134	31476.9375
3120.35871	31405.6375
3122.71466	31288.3375
3125.06917	31215.5375
3127.42226	31185.4375
3129.77393	31143.0375
3132.12417	31116.7375
3134.47299	31051.4375
3136.82039	31031.4375
3139.16636	31012.3375
3141.51092	31029.4375
3143.85406	30988.8375
3146.19579	30980.8375
3148.53609	30975.4375
3150.87499	30972.1375
3153.21246	30988.4375
3155.54853	30987.4375
3157.88318	30958.6375
3160.21642	30968.8375
3162.54826	30915.0375
3164.87868	30922.6375
3167.2077	30842.4375
3169.5353	30814.2375
3171.86151	30802.1375
3174.18631	30816.7375
3176.5097	30847.1375
3178.83169	30763.9375
3181.15228	30738.2375
3183.47147	30635.1375
3185.78926	30679.1375
3188.10565	30626.8375
3190.42065	30582.6375
3192.73424	30515.5375
3195.04645	30507.0375
3197.35725	30457.2375
3199.66667	30450.6375
3201.97469	30490.5375
3204.28132	30406.0375
3206.58656	30459.1375
3208.8904	30426.3375
3211.19287	30474.4375
3213.49394	30417.3375
3215.79363	30471.9375
3218.09193	30500.7375
3220.38884	30499.9375
3222.68438	30503.7375
3224.97853	30433.9375
3227.2713	30402.1375
3229.56269	30380.0375
3231.8527	30383.6375
3234.14133	30334.7375
3236.42858	30269.7375
3238.71446	30212.7375
3240.99896	30197.2375
3243.28209	30130.9375
3245.56384	30132.7375
3247.84423	30111.9375
3250.12324	30047.2375
3252.40088	30045.7375
3254.67715	30022.7375
3256.95205	29931.5375
3259.22558	29972.6375
3261.49775	29910.5375
3263.76855	29867.6375
3266.03799	29816.8375
3268.30606	29797.0375
3270.57277	29714.8375
3272.83812	29690.7375
3275.10211	29612.3375
3277.36474	29570.6375
3279.62601	29573.5375
3281.88593	29513.6375
3284.14448	29534.9375
3286.40168	29600.8375
3288.65753	29507.1375
3290.91202	29468.2375
3293.16516	29438.9375
3295.41695	29432.7375
3297.66738	29208.8375
3299.91647	29061.7375
3302.16421	28879.0375
3304.4106	28737.1375
3306.65564	28578.7375
3308.89933	28403.9375
3311.14169	28196.5375
3313.38269	27998.4375
3315.62236	27837.2375
3317.86068	27564.0375
3320.09766	27365.6375
3322.3333	27180.8375
3324.5676	27098.7375
3326.80056	26662.6375
3329.03219	26476.0375
3331.26248	7.1375
3333.49143	0.5375
3335.71905	-0.0625
