Data from AgNPs_FTO_APTES_UA_20uM_CRN_0uM_R6G_10uM_NaF_0.1M_Addition_RamanShift__1__10-50-51-917.txt Node

Date: Thu Feb 17 10:50:51 GMT 2022
User: TCL
Spectrometer: QEP01345
Trigger mode: 4
Integration Time (sec): 7.000000E0
Scans to average: 10
Electric dark correction enabled: true
Nonlinearity correction enabled: false
Boxcar width: 0
XAxis mode: Raman Shifts
Number of Pixels in Spectrum: 1044
>>>>>Begin Spectral Data<<<<<
46.04893	0.7375
50.45542	0.2375
54.85868	-0.8625
59.25871	1.1375
63.6555	35.3375
68.04907	38.1375
72.43941	41.0375
76.82654	40.9375
81.21044	44.0375
85.59113	48.8375
89.96862	46.9375
94.34289	48.5375
98.71396	52.0375
103.08183	54.1375
107.4465	53.0375
111.80798	55.4375
116.16626	59.9375
120.52136	61.9375
124.87327	62.2375
129.222	67.5375
133.56755	73.9375
137.90993	74.5375
142.24913	78.4375
146.58517	91.9375
150.91804	110.3375
155.24774	123.0375
159.57429	163.3375
163.89768	215.0375
168.21792	283.7375
172.53501	397.7375
176.84895	544.3375
181.15975	770.4375
185.46741	1091.6375
189.77193	1500.7375
194.07331	2019.2375
198.37157	2615.7375
202.6667	3223.2375
206.9587	3855.0375
211.24758	4474.8375
215.53334	5122.3375
219.81599	5839.9375
224.09553	6658.4375
228.37195	7522.1375
232.64527	8461.3375
236.91549	9394.1375
241.18261	10248.5375
245.44663	10881.5375
249.70755	11373.9375
253.96539	11740.4375
258.22014	12094.2375
262.4718	12425.1375
266.72039	12677.6375
270.96589	12753.1375
275.20832	12629.1375
279.44768	12359.6375
283.68397	12069.9375
287.91719	11860.4375
292.14735	11859.4375
296.37445	12104.8375
300.59849	12605.6375
304.81948	13290.9375
309.03742	13990.7375
313.25231	14349.5375
317.46415	14103.8375
321.67296	13229.3375
325.87872	12232.5375
330.08145	11575.2375
334.28114	11331.5375
338.47781	11392.2375
342.67145	11705.3375
346.86207	12215.2375
351.04966	12945.3375
355.23424	13722.7375
359.4158	14256.4375
363.59435	14319.3375
367.76989	14103.4375
371.94243	13840.2375
376.11196	13601.8375
380.27849	13410.0375
384.44203	13220.1375
388.60257	13095.6375
392.76012	13138.7375
396.91468	13278.1375
401.06626	13604.6375
405.21485	13796.3375
409.36047	13451.5375
413.50311	12613.2375
417.64277	11902.3375
421.77947	11537.5375
425.9132	11361.9375
430.04396	11326.0375
434.17176	11277.5375
438.2966	11305.0375
442.41849	11568.5375
446.53742	11976.7375
450.6534	12305.6375
454.76644	12387.8375
458.87653	12256.8375
462.98368	12019.8375
467.08789	11708.8375
471.18916	11406.1375
475.2875	10976.0375
479.38291	10610.7375
483.4754	10386.1375
487.56496	10246.5375
491.6516	10200.7375
495.73531	10179.0375
499.81612	10263.6375
503.89401	10400.2375
507.96899	10619.8375
512.04106	10782.9375
516.11023	10963.5375
520.1765	11064.4375
524.23987	11102.1375
528.30034	11040.7375
532.35792	10873.8375
536.41261	10654.5375
540.46441	10310.5375
544.51333	10070.4375
548.55936	10045.0375
552.60252	10317.7375
556.64279	10731.5375
560.6802	11048.8375
564.71473	11255.9375
568.7464	11686.3375
572.7752	12048.8375
576.80114	11759.8375
580.82422	11463.1375
584.84444	11654.1375
588.86181	12280.4375
592.87633	13068.4375
596.888	13461.3375
600.89682	13095.0375
604.9028	13590.2375
608.90594	17406.8375
612.90624	23499.7375
616.90371	23370.3375
620.89834	15512.0375
624.89015	11076.3375
628.87913	10220.2375
632.86528	10476.0375
636.84862	10750.3375
640.82913	10470.7375
644.80683	9799.6375
648.78172	9368.2375
652.75379	9385.8375
656.72306	9831.4375
660.68952	10410.9375
664.65319	10298.2375
668.61405	9506.9375
672.57211	9026.3375
676.52738	9030.5375
680.47986	9095.3375
684.42955	8987.4375
688.37646	8822.7375
692.32058	8790.5375
696.26192	8907.5375
700.20048	9097.7375
704.13626	9251.6375
708.06928	9236.2375
711.99952	9171.5375
715.927	9131.1375
719.85171	9238.2375
723.77365	9300.4375
727.69284	9194.0375
731.60928	9014.5375
735.52295	8958.6375
739.43388	8984.8375
743.34206	9010.7375
747.24749	9038.7375
751.15017	9126.4375
755.05012	9315.2375
758.94733	9907.8375
762.8418	11518.6375
766.73354	14241.2375
770.62254	16956.3375
774.50882	17853.6375
778.39237	16623.1375
782.27321	14288.3375
786.15132	11819.9375
790.02671	10138.8375
793.89938	9352.6375
797.76935	9003.1375
801.6366	8827.7375
805.50115	8711.4375
809.36299	8618.0375
813.22213	8493.3375
817.07857	8405.2375
820.93231	8354.7375
824.78336	8347.1375
828.63172	8378.3375
832.47738	8406.4375
836.32036	8350.3375
840.16066	8296.7375
843.99827	8232.6375
847.8332	8195.5375
851.66546	8218.9375
855.49504	8232.8375
859.32195	8186.9375
863.1462	8127.2375
866.96777	8096.4375
870.78668	8063.7375
874.60293	8077.4375
878.41652	8138.6375
882.22745	8206.0375
886.03573	8246.9375
889.84136	8285.0375
893.64433	8239.3375
897.44466	8254.4375
901.24235	8273.8375
905.0374	8239.5375
908.8298	8131.7375
912.61957	8061.4375
916.40671	8048.6375
920.19121	8137.0375
923.97308	8306.6375
927.75233	8539.2375
931.52895	8705.7375
935.30295	8523.4375
939.07433	8114.5375
942.84309	7729.2375
946.60924	7519.1375
950.37278	7410.1375
954.13371	7356.6375
957.89203	7336.9375
961.64774	7289.7375
965.40086	7248.7375
969.15137	7227.7375
972.89929	7169.2375
976.64461	7123.5375
980.38733	7077.0375
984.12747	7050.8375
987.86502	7075.0375
991.59999	7123.0375
995.33237	7209.4375
999.06217	7366.5375
1002.78939	7591.1375
1006.51404	7876.7375
1010.23611	8174.9375
1013.95561	8309.3375
1017.67255	8309.6375
1021.38692	8170.6375
1025.09872	7877.8375
1028.80796	7585.0375
1032.51465	7440.5375
1036.21877	7433.1375
1039.92035	7427.2375
1043.61937	7481.5375
1047.31584	7553.2375
1051.00976	7629.7375
1054.70114	7623.0375
1058.38998	7621.4375
1062.07627	7597.8375
1065.76003	7632.1375
1069.44126	7689.6375
1073.11995	7863.5375
1076.79611	8090.3375
1080.46974	8368.4375
1084.14085	8814.8375
1087.80943	9285.2375
1091.47549	9505.9375
1095.13903	9194.6375
1098.80005	8652.5375
1102.45857	8203.6375
1106.11456	7987.5375
1109.76805	8004.9375
1113.41903	8235.9375
1117.06751	8615.7375
1120.71348	9176.6375
1124.35696	9833.9375
1127.99793	10497.6375
1131.63641	10576.0375
1135.2724	9903.1375
1138.90589	9175.7375
1142.5369	8743.9375
1146.16542	8482.8375
1149.79145	8357.3375
1153.415	8327.2375
1157.03607	8427.3375
1160.65467	8740.6375
1164.27079	9368.6375
1167.88443	10294.4375
1171.49561	11606.5375
1175.10432	13572.4375
1178.71056	16235.9375
1182.31434	18563.0375
1185.91565	19205.5375
1189.51451	18330.7375
1193.11091	16789.9375
1196.70485	15125.5375
1200.29634	13662.2375
1203.88538	12476.1375
1207.47197	11312.6375
1211.05612	10371.7375
1214.63782	9778.4375
1218.21708	9499.1375
1221.79391	9471.5375
1225.36829	9596.8375
1228.94024	9754.4375
1232.50976	9650.8375
1236.07685	9500.0375
1239.6415	9337.0375
1243.20374	9269.2375
1246.76355	9246.3375
1250.32093	9306.6375
1253.8759	9517.6375
1257.42845	9976.0375
1260.97859	10629.8375
1264.52631	11356.0375
1268.07163	12020.4375
1271.61453	12546.0375
1275.15503	12844.3375
1278.69312	13020.3375
1282.22882	13249.8375
1285.76211	13833.5375
1289.29301	14836.3375
1292.82151	15847.3375
1296.34761	16832.6375
1299.87133	18113.3375
1303.39266	19960.0375
1306.9116	22693.5375
1310.42815	25976.3375
1313.94233	28127.6375
1317.45412	27429.1375
1320.96354	24664.8375
1324.47058	21688.3375
1327.97525	19134.6375
1331.47754	17343.1375
1334.97747	16300.9375
1338.47502	15825.3375
1341.97022	15943.9375
1345.46305	16795.2375
1348.95352	18528.9375
1352.44163	20785.6375
1355.92738	23780.4375
1359.41078	28172.1375
1362.89183	33140.1375
1366.37053	33557.0375
1369.84688	27739.9375
1373.32088	20706.0375
1376.79254	16287.1375
1380.26186	14390.4375
1383.72883	13406.4375
1387.19347	12617.6375
1390.65578	11801.2375
1394.11575	11334.5375
1397.57339	11266.2375
1401.0287	11336.7375
1404.48168	11430.7375
1407.93234	11349.0375
1411.38068	11178.3375
1414.82669	11014.8375
1418.27039	10932.3375
1421.71177	10797.3375
1425.15083	10536.8375
1428.58758	10379.3375
1432.02203	10531.9375
1435.45416	10892.0375
1438.88399	11100.0375
1442.31151	11056.4375
1445.73673	10991.2375
1449.15965	10945.0375
1452.58027	10814.5375
1455.9986	10621.3375
1459.41463	10564.8375
1462.82837	10723.3375
1466.23982	11045.4375
1469.64898	11449.6375
1473.05586	11758.1375
1476.46045	11952.3375
1479.86276	12123.6375
1483.26279	12399.9375
1486.66054	12792.8375
1490.05602	13465.4375
1493.44922	14502.4375
1496.84016	15919.7375
1500.22882	18113.5375
1503.61521	21074.8375
1506.99934	24753.6375
1510.38121	28389.6375
1513.76081	30274.7375
1517.13816	28663.7375
1520.51324	24524.5375
1523.88607	20133.6375
1527.25665	17026.4375
1530.62498	15193.2375
1533.99105	13957.1375
1537.35488	13007.3375
1540.71647	12213.4375
1544.07581	11606.8375
1547.4329	11179.9375
1550.78776	10948.6375
1554.14038	10977.6375
1557.49077	11250.5375
1560.83892	11690.7375
1564.18484	12343.3375
1567.52853	13145.6375
1570.86999	13795.4375
1574.20922	14207.7375
1577.54624	14192.4375
1580.88103	13323.6375
1584.2136	11900.1375
1587.54395	11080.7375
1590.87208	11253.6375
1594.19801	12147.8375
1597.52172	13428.8375
1600.84321	13860.8375
1604.16251	13005.0375
1607.47959	11565.8375
1610.79447	10263.6375
1614.10715	9150.1375
1617.41763	8270.5375
1620.7259	7677.5375
1624.03199	7437.8375
1627.33587	7520.2375
1630.63757	7942.3375
1633.93707	8824.6375
1637.23439	10416.1375
1640.52951	12995.1375
1643.82246	16477.2375
1647.11321	20227.9375
1650.40179	22509.3375
1653.68819	21492.7375
1656.97241	17421.3375
1660.25446	12846.5375
1663.53433	9566.1375
1666.81203	7689.8375
1670.08756	6643.0375
1673.36092	6043.6375
1676.63211	5689.3375
1679.90115	5457.8375
1683.16801	5285.4375
1686.43272	5169.7375
1689.69527	5075.7375
1692.95567	4991.9375
1696.2139	4948.5375
1699.46999	4905.6375
1702.72392	4863.1375
1705.97571	4851.6375
1709.22535	4772.2375
1712.47284	4785.2375
1715.71819	4824.3375
1718.96139	4799.9375
1722.20246	4765.9375
1725.44139	4725.7375
1728.67818	4651.0375
1731.91284	4558.6375
1735.14537	4484.2375
1738.37576	4396.1375
1741.60403	4412.3375
1744.83017	4398.4375
1748.05418	4348.5375
1751.27607	4314.5375
1754.49584	4312.5375
1757.71349	4279.5375
1760.92903	4264.0375
1764.14244	4228.0375
1767.35375	4212.2375
1770.56294	4173.8375
1773.77002	4146.8375
1776.97499	4127.1375
1780.17785	4118.8375
1783.37861	4078.0375
1786.57727	4080.6375
1789.77382	4049.4375
1792.96828	4045.6375
1796.16064	4036.6375
1799.3509	4028.9375
1802.53907	4002.9375
1805.72514	3989.7375
1808.90913	3948.9375
1812.09102	3928.7375
1815.27083	3910.5375
1818.44856	3901.1375
1821.6242	3887.1375
1824.79776	3883.4375
1827.96924	3876.3375
1831.13864	3853.5375
1834.30597	3869.5375
1837.47122	3862.1375
1840.6344	3853.0375
1843.7955	3840.1375
1846.95454	3839.3375
1850.11151	3814.8375
1853.26642	3795.9375
1856.41926	3779.9375
1859.57004	3758.4375
1862.71876	3731.6375
1865.86542	3700.6375
1869.01003	3697.1375
1872.15258	3683.2375
1875.29308	3672.7375
1878.43152	3662.4375
1881.56792	3643.8375
1884.70227	3655.2375
1887.83457	3637.5375
1890.96482	3620.1375
1894.09304	3606.6375
1897.21921	3585.8375
1900.34335	3570.4375
1903.46544	3551.8375
1906.58551	3545.7375
1909.70353	3555.3375
1912.81953	3516.5375
1915.93349	3501.8375
1919.04543	3486.2375
1922.15534	3465.7375
1925.26322	3425.9375
1928.36908	3415.9375
1931.47292	3401.4375
1934.57473	3366.2375
1937.67453	3347.8375
1940.77232	3318.1375
1943.86808	3300.9375
1946.96184	3296.7375
1950.05358	3280.0375
1953.14331	3269.6375
1956.23103	3260.9375
1959.31675	3238.2375
1962.40046	3230.3375
1965.48217	3216.9375
1968.56188	3223.0375
1971.63959	3209.3375
1974.7153	3205.9375
1977.78901	3191.6375
1980.86073	3164.5375
1983.93046	3132.3375
1986.99819	3116.6375
1990.06394	3090.9375
1993.1277	3087.2375
1996.18947	3056.2375
1999.24925	3040.2375
2002.30706	3025.8375
2005.36288	2998.9375
2008.41672	2978.0375
2011.46859	2954.8375
2014.51848	2949.9375
2017.56639	2933.6375
2020.61233	2923.5375
2023.6563	2912.4375
2026.6983	2897.1375
2029.73833	2878.2375
2032.7764	2864.3375
2035.8125	2862.0375
2038.84664	2848.4375
2041.87881	2843.6375
2044.90903	2826.7375
2047.93729	2827.8375
2050.96359	2826.2375
2053.98794	2807.2375
2057.01034	2807.8375
2060.03078	2792.2375
2063.04927	2795.4375
2066.06582	2784.1375
2069.08042	2771.9375
2072.09307	2768.1375
2075.10378	2762.3375
2078.11255	2768.9375
2081.11938	2761.5375
2084.12426	2756.6375
2087.12722	2756.3375
2090.12824	2744.1375
2093.12732	2752.7375
2096.12447	2755.1375
2099.11969	2749.8375
2102.11299	2743.7375
2105.10435	2748.3375
2108.09379	2726.4375
2111.08131	2731.0375
2114.0669	2736.1375
2117.05057	2737.0375
2120.03233	2739.7375
2123.01216	2739.7375
2125.99008	2742.3375
2128.96609	2727.6375
2131.94018	2723.6375
2134.91236	2707.6375
2137.88263	2707.8375
2140.851	2690.6375
2143.81746	2691.2375
2146.78201	2664.0375
2149.74466	2653.0375
2152.7054	2640.9375
2155.66425	2628.2375
2158.6212	2625.4375
2161.57625	2614.4375
2164.52941	2604.1375
2167.48067	2596.8375
2170.43004	2590.1375
2173.37752	2581.6375
2176.32311	2591.9375
2179.26681	2583.4375
2182.20863	2584.0375
2185.14856	2588.1375
2188.08661	2581.8375
2191.02278	2570.5375
2193.95707	2560.6375
2196.88948	2550.8375
2199.82001	2536.7375
2202.74867	2524.7375
2205.67545	2523.0375
2208.60037	2519.2375
2211.52341	2496.4375
2214.44458	2489.5375
2217.36388	2494.2375
2220.28132	2479.9375
2223.1969	2459.6375
2226.11061	2459.2375
2229.02246	2447.2375
2231.93245	2437.8375
2234.84058	2447.3375
2237.74686	2440.1375
2240.65128	2431.6375
2243.55385	2430.2375
2246.45456	2425.1375
2249.35343	2412.4375
2252.25044	2416.1375
2255.14561	2412.6375
2258.03893	2423.0375
2260.93041	2405.4375
2263.82004	2405.6375
2266.70783	2405.0375
2269.59378	2384.2375
2272.4779	2390.0375
2275.36017	2377.1375
2278.24061	2371.4375
2281.11922	2354.1375
2283.996	2349.7375
2286.87094	2337.3375
2289.74405	2321.8375
2292.61534	2304.7375
2295.4848	2294.0375
2298.35243	2293.1375
2301.21824	2266.4375
2304.08223	2267.4375
2306.94439	2271.8375
2309.80474	2271.2375
2312.66327	2266.9375
2315.51999	2257.1375
2318.37489	2263.4375
2321.22797	2237.7375
2324.07925	2239.9375
2326.92871	2230.3375
2329.77637	2222.5375
2332.62222	2224.3375
2335.46626	2227.3375
2338.3085	2223.4375
2341.14893	2215.2375
2343.98756	2221.4375
2346.8244	2225.8375
2349.65943	2219.6375
2352.49267	2234.3375
2355.32411	2253.7375
2358.15376	2253.5375
2360.98161	2263.5375
2363.80768	2274.9375
2366.63195	2269.9375
2369.45444	2289.0375
2372.27514	2276.9375
2375.09405	2279.7375
2377.91118	2260.7375
2380.72652	2244.6375
2383.54009	2216.7375
2386.35187	2200.6375
2389.16188	2170.2375
2391.97011	2153.2375
2394.77657	2143.0375
2397.58125	2133.0375
2400.38416	2115.7375
2403.18529	2104.0375
2405.98466	2103.4375
2408.78226	2093.4375
2411.57809	2096.1375
2414.37216	2088.0375
2417.16446	2094.9375
2419.955	2082.4375
2422.74378	2070.8375
2425.5308	2076.2375
2428.31606	2077.4375
2431.09956	2087.4375
2433.88131	2081.4375
2436.6613	2094.0375
2439.43954	2090.5375
2442.21603	2093.1375
2444.99077	2092.9375
2447.76377	2101.2375
2450.53501	2104.3375
2453.30451	2107.4375
2456.07226	2113.9375
2458.83827	2111.3375
2461.60254	2108.3375
2464.36507	2095.9375
2467.12586	2093.8375
2469.88492	2089.8375
2472.64224	2090.3375
2475.39782	2093.3375
2478.15167	2102.7375
2480.90379	2100.0375
2483.65417	2112.3375
2486.40283	2125.2375
2489.14976	2126.5375
2491.89497	2140.8375
2494.63845	2130.6375
2497.3802	2118.5375
2500.12024	2123.2375
2502.85855	2118.6375
2505.59514	2110.4375
2508.33002	2078.8375
2511.06318	2068.9375
2513.79462	2032.0375
2516.52435	2013.2375
2519.25237	1987.4375
2521.97867	1981.2375
2524.70327	1971.0375
2527.42616	1966.2375
2530.14734	1957.9375
2532.86681	1958.3375
2535.58458	1952.1375
2538.30065	1952.7375
2541.01501	1951.5375
2543.72768	1960.0375
2546.43864	1962.2375
2549.14791	1962.4375
2551.85548	1956.6375
2554.56136	1964.1375
2557.26554	1956.7375
2559.96803	1942.6375
2562.66883	1957.1375
2565.36794	1941.1375
2568.06536	1948.0375
2570.7611	1947.6375
2573.45514	1943.4375
2576.14751	1930.1375
2578.83819	1922.6375
2581.52719	1919.8375
2584.21451	1896.8375
2586.90015	1908.1375
2589.58411	1903.3375
2592.2664	1898.3375
2594.94701	1888.6375
2597.62594	1891.9375
2600.30321	1893.9375
2602.9788	1893.6375
2605.65273	1883.7375
2608.32498	1894.7375
2610.99557	1882.2375
2613.66449	1888.0375
2616.33175	1885.9375
2618.99734	1885.3375
2621.66128	1866.8375
2624.32355	1866.3375
2626.98416	1871.0375
2629.64311	1862.9375
2632.30041	1859.5375
2634.95605	1831.7375
2637.61004	1841.1375
2640.26238	1830.0375
2642.91306	1829.9375
2645.56209	1823.2375
2648.20948	1808.3375
2650.85521	1822.9375
2653.4993	1819.6375
2656.14175	1828.9375
2658.78255	1829.9375
2661.42171	1837.3375
2664.05923	1844.7375
2666.6951	1836.2375
2669.32934	1845.1375
2671.96194	1853.0375
2674.59291	1840.8375
2677.22224	1844.6375
2679.84993	1841.5375
2682.476	1833.2375
2685.10043	1832.2375
2687.72324	1826.0375
2690.34441	1823.9375
2692.96396	1827.6375
2695.58188	1815.4375
2698.19818	1815.3375
2700.81285	1826.2375
2703.4259	1810.5375
2706.03733	1790.9375
2708.64714	1805.0375
2711.25533	1814.6375
2713.86191	1818.8375
2716.46687	1822.9375
2719.07021	1816.2375
2721.67194	1824.6375
2724.27206	1818.9375
2726.87057	1820.3375
2729.46747	1817.5375
2732.06276	1810.6375
2734.65644	1806.0375
2737.24852	1810.4375
2739.83899	1794.0375
2742.42786	1790.0375
2745.01513	1777.9375
2747.60079	1777.6375
2750.18486	1766.8375
2752.76733	1769.4375
2755.3482	1763.5375
2757.92747	1765.8375
2760.50515	1755.2375
2763.08123	1750.5375
2765.65573	1748.4375
2768.22863	1744.1375
2770.79994	1734.2375
2773.36967	1740.6375
2775.9378	1746.4375
2778.50435	1732.6375
2781.06932	1737.5375
2783.6327	1735.8375
2786.1945	1735.7375
2788.75471	1753.9375
2791.31335	1733.4375
2793.87041	1725.8375
2796.42589	1742.3375
2798.97979	1738.2375
2801.53212	1732.3375
2804.08288	1736.9375
2806.63206	1735.5375
2809.17967	1730.4375
2811.72571	1742.4375
2814.27018	1741.8375
2816.81308	1750.6375
2819.35442	1745.9375
2821.89419	1757.9375
2824.43239	1770.5375
2826.96904	1770.1375
2829.50412	1783.8375
2832.03763	1778.9375
2834.56959	1773.9375
2837.1	1764.3375
2839.62884	1777.3375
2842.15613	1773.3375
2844.68186	1780.3375
2847.20604	1798.9375
2849.72867	1805.0375
2852.24974	1817.7375
2854.76927	1814.4375
2857.28724	1824.2375
2859.80367	1831.0375
2862.31855	1832.8375
2864.83189	1850.5375
2867.34368	1851.3375
2869.85393	1854.2375
2872.36264	1852.2375
2874.8698	1858.3375
2877.37543	1854.5375
2879.87952	1862.8375
2882.38207	1844.7375
2884.88308	1848.6375
2887.38256	1842.1375
2889.88051	1832.4375
2892.37692	1830.5375
2894.8718	1831.6375
2897.36515	1824.1375
2899.85698	1827.8375
2902.34727	1834.4375
2904.83604	1837.8375
2907.32328	1852.4375
2909.809	1861.3375
2912.29319	1861.2375
2914.77587	1848.4375
2917.25702	1871.3375
2919.73665	1864.7375
2922.21476	1866.8375
2924.69136	1854.5375
2927.16644	1852.4375
2929.64	1836.1375
2932.11205	1825.0375
2934.58258	1809.5375
2937.05161	1811.3375
2939.51912	1791.9375
2941.98513	1787.7375
2944.44962	1776.5375
2946.91261	1760.2375
2949.37409	1752.8375
2951.83407	1742.8375
2954.29254	1740.1375
2956.74951	1733.8375
2959.20498	1726.3375
2961.65895	1716.9375
2964.11142	1711.6375
2966.56239	1697.3375
2969.01186	1684.0375
2971.45984	1670.5375
2973.90632	1661.6375
2976.35131	1645.3375
2978.7948	1646.4375
2981.23681	1640.3375
2983.67732	1627.7375
2986.11635	1629.4375
2988.55388	1604.4375
2990.98993	1611.5375
2993.4245	1606.0375
2995.85758	1595.9375
2998.28917	1604.3375
3000.71928	1595.0375
3003.14791	1590.4375
3005.57506	1585.9375
3008.00073	1586.5375
3010.42493	1590.7375
3012.84764	1591.1375
3015.26888	1588.3375
3017.68865	1575.4375
3020.10694	1566.3375
3022.52376	1566.5375
3024.9391	1568.4375
3027.35298	1540.2375
3029.76539	1543.6375
3032.17632	1539.0375
3034.5858	1525.0375
3036.9938	1522.7375
3039.40034	1520.6375
3041.80542	1522.0375
3044.20903	1503.0375
3046.61118	1515.8375
3049.01187	1497.0375
3051.4111	1502.6375
3053.80888	1495.4375
3056.20519	1501.5375
3058.60005	1499.0375
3060.99345	1490.5375
3063.3854	1494.6375
3065.7759	1485.5375
3068.16494	1481.9375
3070.55254	1478.2375
3072.93868	1478.2375
3075.32338	1477.5375
3077.70662	1464.8375
3080.08842	1464.0375
3082.46878	1456.0375
3084.84769	1450.0375
3087.22515	1452.8375
3089.60118	1448.8375
3091.97576	1454.1375
3094.3489	1452.5375
3096.72061	1447.7375
3099.09087	1456.6375
3101.4597	1458.3375
3103.82709	1455.3375
3106.19305	1449.8375
3108.55757	1451.0375
3110.92066	1450.1375
3113.28232	1462.7375
3115.64255	1455.4375
3118.00134	1448.6375
3120.35871	1454.2375
3122.71466	1450.5375
3125.06917	1460.8375
3127.42226	1449.4375
3129.77393	1453.5375
3132.12417	1464.8375
3134.47299	1470.1375
3136.82039	1472.3375
3139.16636	1466.5375
3141.51092	1476.2375
3143.85406	1465.2375
3146.19579	1487.3375
3148.53609	1485.3375
3150.87499	1478.4375
3153.21246	1489.7375
3155.54853	1500.9375
3157.88318	1502.6375
3160.21642	1509.4375
3162.54826	1515.5375
3164.87868	1509.1375
3167.2077	1510.6375
3169.5353	1522.2375
3171.86151	1522.6375
3174.18631	1521.5375
3176.5097	1521.7375
3178.83169	1521.5375
3181.15228	1525.5375
3183.47147	1514.0375
3185.78926	1518.5375
3188.10565	1516.8375
3190.42065	1504.9375
3192.73424	1522.0375
3195.04645	1521.8375
3197.35725	1519.8375
3199.66667	1522.2375
3201.97469	1527.3375
3204.28132	1535.0375
3206.58656	1530.1375
3208.8904	1533.6375
3211.19287	1540.3375
3213.49394	1542.3375
3215.79363	1549.6375
3218.09193	1545.5375
3220.38884	1550.2375
3222.68438	1552.8375
3224.97853	1544.2375
3227.2713	1554.1375
3229.56269	1556.9375
3231.8527	1558.7375
3234.14133	1563.1375
3236.42858	1556.8375
3238.71446	1554.6375
3240.99896	1543.0375
3243.28209	1553.2375
3245.56384	1541.8375
3247.84423	1539.2375
3250.12324	1541.1375
3252.40088	1542.7375
3254.67715	1535.7375
3256.95205	1531.4375
3259.22558	1534.9375
3261.49775	1530.2375
3263.76855	1533.7375
3266.03799	1524.5375
3268.30606	1520.5375
3270.57277	1524.4375
3272.83812	1534.8375
3275.10211	1522.5375
3277.36474	1524.1375
3279.62601	1530.5375
3281.88593	1535.1375
3284.14448	1535.2375
3286.40168	1528.5375
3288.65753	1538.1375
3290.91202	1540.2375
3293.16516	1532.3375
3295.41695	1528.7375
3297.66738	1534.5375
3299.91647	1515.0375
3302.16421	1520.2375
3304.4106	1504.1375
3306.65564	1498.4375
3308.89933	1474.9375
3311.14169	1467.5375
3313.38269	1456.5375
3315.62236	1449.1375
3317.86068	1425.1375
3320.09766	1412.9375
3322.3333	1418.6375
3324.5676	1402.8375
3326.80056	1374.2375
3329.03219	1374.5375
3331.26248	1.1375
3333.49143	-0.2625
3335.71905	-0.9625
