Data from AgNPs_FTO_APTES_UA_20uM_CRN_2uM_R6G_10uM_NaF_0.1M_Addition_RamanShift__13__12-55-42-081.txt Node

Date: Thu Feb 17 12:55:42 GMT 2022
User: TCL
Spectrometer: QEP01345
Trigger mode: 4
Integration Time (sec): 7.000000E0
Scans to average: 10
Electric dark correction enabled: true
Nonlinearity correction enabled: false
Boxcar width: 0
XAxis mode: Raman Shifts
Number of Pixels in Spectrum: 1044
>>>>>Begin Spectral Data<<<<<
46.04893	-1.1125
50.45542	-1.7125
54.85868	-3.9125
59.25871	-0.1125
63.6555	124.4875
68.04907	129.0875
72.43941	133.4875
76.82654	135.7875
81.21044	139.4875
85.59113	146.2875
89.96862	150.5875
94.34289	153.1875
98.71396	157.8875
103.08183	161.7875
107.4465	168.9875
111.80798	171.8875
116.16626	178.9875
120.52136	190.2875
124.87327	194.7875
129.222	209.4875
133.56755	225.4875
137.90993	245.5875
142.24913	270.5875
146.58517	309.4875
150.91804	361.2875
155.24774	436.0875
159.57429	548.7875
163.89768	713.5875
168.21792	950.8875
172.53501	1307.1875
176.84895	1837.5875
181.15975	2592.5875
185.46741	3677.9875
189.77193	5095.3875
194.07331	6833.5875
198.37157	8830.1875
202.6667	10949.9875
206.9587	13045.5875
211.24758	15086.6875
215.53334	17064.9875
219.81599	19181.6875
224.09553	21489.3875
228.37195	24037.4875
232.64527	26846.5875
236.91549	29878.3875
241.18261	32948.0875
245.44663	35990.7875
249.70755	38741.6875
253.96539	41194.8875
258.22014	43263.4875
262.4718	44865.2875
266.72039	45983.5875
270.96589	46694.2875
275.20832	46782.0875
279.44768	46577.9875
283.68397	46273.4875
287.91719	45923.9875
292.14735	45634.4875
296.37445	45545.5875
300.59849	45537.9875
304.81948	45521.9875
309.03742	45527.7875
313.25231	45318.4875
317.46415	44852.5875
321.67296	44241.1875
325.87872	43743.8875
330.08145	43576.5875
334.28114	43661.0875
338.47781	44029.7875
342.67145	44473.4875
346.86207	45043.3875
351.04966	45674.0875
355.23424	46219.0875
359.4158	46714.5875
363.59435	47153.0875
367.76989	47558.8875
371.94243	47799.6875
376.11196	48061.3875
380.27849	48325.5875
384.44203	48543.5875
388.60257	48942.8875
392.76012	49483.9875
396.91468	50116.9875
401.06626	50757.3875
405.21485	51251.4875
409.36047	51294.0875
413.50311	50999.0875
417.64277	50798.3875
421.77947	51007.9875
425.9132	51308.0875
430.04396	51649.7875
434.17176	51945.4875
438.2966	52315.0875
442.41849	52760.3875
446.53742	53579.3875
450.6534	54436.6875
454.76644	55254.5875
458.87653	55693.9875
462.98368	55836.4875
467.08789	55715.8875
471.18916	55462.8875
475.2875	55079.2875
479.38291	54862.7875
483.4754	54689.2875
487.56496	54503.6875
491.6516	54174.8875
495.73531	53744.8875
499.81612	53384.8875
503.89401	53454.9875
507.96899	53650.1875
512.04106	53774.2875
516.11023	53695.3875
520.1765	53493.4875
524.23987	53195.4875
528.30034	52953.1875
532.35792	52732.5875
536.41261	52402.3875
540.46441	52240.0875
544.51333	52261.8875
548.55936	52606.9875
552.60252	53390.3875
556.64279	54232.5875
560.6802	54890.6875
564.71473	55349.4875
568.7464	56241.0875
572.7752	57644.1875
576.80114	59486.9875
580.82422	61140.1875
584.84444	62156.8875
588.86181	63013.5875
592.87633	63801.5875
596.888	63648.9875
600.89682	62502.6875
604.9028	62236.2875
608.90594	63888.4875
612.90624	65535.9875
616.90371	62644.4875
620.89834	57372.7875
624.89015	55251.2875
628.87913	55247.2875
632.86528	55710.5875
636.84862	55792.2875
640.82913	55306.3875
644.80683	54474.4875
648.78172	53822.1875
652.75379	53655.8875
656.72306	53958.7875
660.68952	54521.9875
664.65319	54505.4875
668.61405	54189.0875
672.57211	54237.2875
676.52738	54376.3875
680.47986	54345.6875
684.42955	54232.7875
688.37646	54182.9875
692.32058	54334.3875
696.26192	54728.9875
700.20048	55313.8875
704.13626	55688.1875
708.06928	55981.5875
711.99952	55916.8875
715.927	55775.9875
719.85171	55719.6875
723.77365	55500.3875
727.69284	55121.2875
731.60928	54649.0875
735.52295	54446.4875
739.43388	54467.7875
743.34206	54617.7875
747.24749	54836.6875
751.15017	55201.4875
755.05012	55792.1875
758.94733	56810.5875
762.8418	58504.2875
766.73354	60900.1875
770.62254	63067.7875
774.50882	63180.4875
778.39237	61392.7875
782.27321	59017.5875
786.15132	57146.4875
790.02671	55960.3875
793.89938	55257.4875
797.76935	54919.5875
801.6366	54717.5875
805.50115	54557.7875
809.36299	54451.1875
813.22213	54332.4875
817.07857	54276.6875
820.93231	54379.9875
824.78336	54335.8875
828.63172	54196.6875
832.47738	54156.4875
836.32036	54137.9875
840.16066	54153.6875
843.99827	54256.2875
847.8332	54294.3875
851.66546	54476.9875
855.49504	54568.8875
859.32195	54687.2875
863.1462	54612.7875
866.96777	54723.4875
870.78668	54760.2875
874.60293	54702.9875
878.41652	54818.3875
882.22745	54885.1875
886.03573	54990.6875
889.84136	55054.9875
893.64433	54975.7875
897.44466	54886.5875
901.24235	54808.0875
905.0374	54757.0875
908.8298	54699.7875
912.61957	54804.6875
916.40671	55149.6875
920.19121	55629.8875
923.97308	56059.4875
927.75233	55893.1875
931.52895	55455.5875
935.30295	54961.6875
939.07433	54338.6875
942.84309	54030.5875
946.60924	53794.4875
950.37278	53701.0875
954.13371	53804.9875
957.89203	53811.2875
961.64774	53756.5875
965.40086	53766.2875
969.15137	53727.2875
972.89929	53532.7875
976.64461	53426.6875
980.38733	53425.1875
984.12747	53432.7875
987.86502	53604.2875
991.59999	53822.3875
995.33237	54143.3875
999.06217	54556.5875
1002.78939	55204.1875
1006.51404	56014.6875
1010.23611	56789.7875
1013.95561	57260.5875
1017.67255	57272.8875
1021.38692	56955.6875
1025.09872	56414.8875
1028.80796	55866.0875
1032.51465	55606.2875
1036.21877	55564.2875
1039.92035	55691.3875
1043.61937	55867.3875
1047.31584	56104.5875
1051.00976	56195.5875
1054.70114	56482.5875
1058.38998	56854.7875
1062.07627	57269.8875
1065.76003	57947.7875
1069.44126	58624.7875
1073.11995	59274.4875
1076.79611	59923.6875
1080.46974	60151.4875
1084.14085	60375.6875
1087.80943	60682.5875
1091.47549	61077.5875
1095.13903	61332.2875
1098.80005	60945.8875
1102.45857	60180.6875
1106.11456	59362.2875
1109.76805	58838.7875
1113.41903	58662.1875
1117.06751	58710.6875
1120.71348	58960.4875
1124.35696	59310.5875
1127.99793	59658.1875
1131.63641	59864.2875
1135.2724	59814.7875
1138.90589	59848.6875
1142.5369	59983.3875
1146.16542	60255.9875
1149.79145	60557.3875
1153.415	60933.9875
1157.03607	61415.3875
1160.65467	62201.9875
1164.27079	63493.5875
1167.88443	65087.3875
1171.49561	67190.9875
1175.10432	69574.9875
1178.71056	72447.2875
1182.31434	75074.3875
1185.91565	76732.7875
1189.51451	77465.4875
1193.11091	77246.0875
1196.70485	76299.0875
1200.29634	74744.1875
1203.88538	73348.4875
1207.47197	72666.9875
1211.05612	72136.8875
1214.63782	71335.0875
1218.21708	70161.1875
1221.79391	68751.9875
1225.36829	67702.5875
1228.94024	67134.4875
1232.50976	66690.3875
1236.07685	66266.0875
1239.6415	66089.7875
1243.20374	66126.3875
1246.76355	66427.4875
1250.32093	67085.8875
1253.8759	67875.8875
1257.42845	69028.1875
1260.97859	70373.2875
1264.52631	71757.1875
1268.07163	73008.3875
1271.61453	74188.9875
1275.15503	75262.0875
1278.69312	76435.7875
1282.22882	77711.2875
1285.76211	79142.8875
1289.29301	80946.2875
1292.82151	83051.6875
1296.34761	85501.3875
1299.87133	88344.3875
1303.39266	91051.9875
1306.9116	93574.0875
1310.42815	95515.2875
1313.94233	96458.3875
1317.45412	96181.1875
1320.96354	95577.1875
1324.47058	95141.4875
1327.97525	95031.3875
1331.47754	95189.3875
1334.97747	95360.7875
1338.47502	95863.5875
1341.97022	96732.7875
1345.46305	97397.6875
1348.95352	97642.2875
1352.44163	96749.7875
1355.92738	95945.0875
1359.41078	95551.9875
1362.89183	95255.9875
1366.37053	93516.9875
1369.84688	89289.7875
1373.32088	84364.4875
1376.79254	80514.5875
1380.26186	78876.1875
1383.72883	78623.5875
1387.19347	78495.6875
1390.65578	78176.7875
1394.11575	77756.1875
1397.57339	77679.1875
1401.0287	77772.1875
1404.48168	77871.8875
1407.93234	77488.9875
1411.38068	76485.6875
1414.82669	74931.1875
1418.27039	73257.7875
1421.71177	71615.1875
1425.15083	70271.9875
1428.58758	69682.5875
1432.02203	69968.2875
1435.45416	70929.7875
1438.88399	72132.1875
1442.31151	73241.3875
1445.73673	74103.3875
1449.15965	74741.0875
1452.58027	75279.7875
1455.9986	75692.4875
1459.41463	76322.6875
1462.82837	77338.1875
1466.23982	78109.6875
1469.64898	78939.4875
1473.05586	79579.6875
1476.46045	79736.6875
1479.86276	79750.4875
1483.26279	79469.9875
1486.66054	79226.8875
1490.05602	79371.8875
1493.44922	80068.7875
1496.84016	81136.2875
1500.22882	82548.1875
1503.61521	84287.3875
1506.99934	85941.0875
1510.38121	86914.9875
1513.76081	86565.1875
1517.13816	85445.1875
1520.51324	84206.6875
1523.88607	83630.7875
1527.25665	83572.3875
1530.62498	83620.6875
1533.99105	83364.9875
1537.35488	82567.5875
1540.71647	81192.2875
1544.07581	79794.5875
1547.4329	78372.2875
1550.78776	77182.9875
1554.14038	76365.3875
1557.49077	75928.1875
1560.83892	75580.5875
1564.18484	75451.2875
1567.52853	75401.1875
1570.86999	75634.9875
1574.20922	76253.9875
1577.54624	76782.4875
1580.88103	76861.4875
1584.2136	76974.3875
1587.54395	78033.0875
1590.87208	79975.1875
1594.19801	82471.1875
1597.52172	84858.9875
1600.84321	85350.3875
1604.16251	83303.0875
1607.47959	80034.6875
1610.79447	76499.5875
1614.10715	72828.3875
1617.41763	69340.1875
1620.7259	66671.7875
1624.03199	65191.8875
1627.33587	64768.6875
1630.63757	65547.7875
1633.93707	67764.2875
1637.23439	71821.6875
1640.52951	77793.8875
1643.82246	84901.7875
1647.11321	90462.4875
1650.40179	91789.6875
1653.68819	87771.6875
1656.97241	80439.9875
1660.25446	72735.2875
1663.53433	66700.8875
1666.81203	62562.0875
1670.08756	59910.6875
1673.36092	58290.2875
1676.63211	57100.9875
1679.90115	56307.9875
1683.16801	55601.8875
1686.43272	55224.1875
1689.69527	54846.2875
1692.95567	54498.6875
1696.2139	54380.4875
1699.46999	54350.8875
1702.72392	54201.2875
1705.97571	54076.8875
1709.22535	54041.8875
1712.47284	53928.0875
1715.71819	53935.0875
1718.96139	53823.8875
1722.20246	53694.9875
1725.44139	53529.6875
1728.67818	53409.7875
1731.91284	53153.9875
1735.14537	52962.5875
1738.37576	52765.8875
1741.60403	52723.6875
1744.83017	52508.2875
1748.05418	52384.7875
1751.27607	52332.2875
1754.49584	52274.0875
1757.71349	52265.8875
1760.92903	52247.3875
1764.14244	52108.1875
1767.35375	52111.6875
1770.56294	52116.4875
1773.77002	52074.6875
1776.97499	52024.5875
1780.17785	51917.3875
1783.37861	51835.4875
1786.57727	51714.0875
1789.77382	51691.0875
1792.96828	51631.0875
1796.16064	51574.1875
1799.3509	51567.1875
1802.53907	51462.8875
1805.72514	51349.0875
1808.90913	51169.8875
1812.09102	51138.8875
1815.27083	51079.0875
1818.44856	50977.4875
1821.6242	50934.5875
1824.79776	50907.6875
1827.96924	50834.2875
1831.13864	50839.6875
1834.30597	50838.5875
1837.47122	50745.1875
1840.6344	50661.1875
1843.7955	50708.3875
1846.95454	50734.3875
1850.11151	50731.8875
1853.26642	50674.9875
1856.41926	50661.7875
1859.57004	50632.2875
1862.71876	50513.9875
1865.86542	50478.6875
1869.01003	50458.0875
1872.15258	50339.9875
1875.29308	50313.0875
1878.43152	50199.3875
1881.56792	50136.0875
1884.70227	50194.0875
1887.83457	50201.0875
1890.96482	50134.4875
1894.09304	50036.3875
1897.21921	49931.7875
1900.34335	49831.4875
1903.46544	49749.2875
1906.58551	49780.8875
1909.70353	49748.9875
1912.81953	49673.0875
1915.93349	49575.9875
1919.04543	49445.4875
1922.15534	49452.2875
1925.26322	49385.3875
1928.36908	49303.5875
1931.47292	49233.9875
1934.57473	49115.2875
1937.67453	49049.8875
1940.77232	48929.1875
1943.86808	48829.6875
1946.96184	48626.2875
1950.05358	48540.8875
1953.14331	48445.3875
1956.23103	48264.2875
1959.31675	48085.9875
1962.40046	47963.0875
1965.48217	47799.5875
1968.56188	47650.1875
1971.63959	47593.3875
1974.7153	47446.7875
1977.78901	47292.4875
1980.86073	47149.2875
1983.93046	46998.3875
1986.99819	46897.4875
1990.06394	46827.9875
1993.1277	46755.6875
1996.18947	46577.9875
1999.24925	46448.0875
2002.30706	46320.7875
2005.36288	46132.9875
2008.41672	46042.2875
2011.46859	45945.9875
2014.51848	45756.9875
2017.56639	45678.5875
2020.61233	45513.6875
2023.6563	45421.4875
2026.6983	45275.5875
2029.73833	45189.2875
2032.7764	45088.7875
2035.8125	45022.7875
2038.84664	44919.9875
2041.87881	44913.8875
2044.90903	44768.0875
2047.93729	44658.5875
2050.96359	44659.5875
2053.98794	44534.9875
2057.01034	44588.3875
2060.03078	44615.1875
2063.04927	44565.7875
2066.06582	44503.7875
2069.08042	44503.4875
2072.09307	44442.5875
2075.10378	44414.8875
2078.11255	44336.1875
2081.11938	44396.9875
2084.12426	44420.4875
2087.12722	44386.4875
2090.12824	44333.2875
2093.12732	44304.4875
2096.12447	44339.2875
2099.11969	44279.2875
2102.11299	44269.3875
2105.10435	44336.7875
2108.09379	44301.3875
2111.08131	44364.7875
2114.0669	44342.4875
2117.05057	44369.9875
2120.03233	44411.9875
2123.01216	44501.2875
2125.99008	44570.7875
2128.96609	44631.2875
2131.94018	44640.9875
2134.91236	44678.8875
2137.88263	44761.7875
2140.851	44714.8875
2143.81746	44764.5875
2146.78201	44744.5875
2149.74466	44855.3875
2152.7054	44839.1875
2155.66425	44842.8875
2158.6212	44828.8875
2161.57625	44787.7875
2164.52941	44731.3875
2167.48067	44691.2875
2170.43004	44704.8875
2173.37752	44699.6875
2176.32311	44758.7875
2179.26681	44723.7875
2182.20863	44696.2875
2185.14856	44797.1875
2188.08661	44731.2875
2191.02278	44707.4875
2193.95707	44596.4875
2196.88948	44570.1875
2199.82001	44573.4875
2202.74867	44467.6875
2205.67545	44464.0875
2208.60037	44392.4875
2211.52341	44335.0875
2214.44458	44297.0875
2217.36388	44221.7875
2220.28132	44174.2875
2223.1969	44083.4875
2226.11061	44004.0875
2229.02246	43821.8875
2231.93245	43754.0875
2234.84058	43738.7875
2237.74686	43695.9875
2240.65128	43712.3875
2243.55385	43626.3875
2246.45456	43566.8875
2249.35343	43443.7875
2252.25044	43431.4875
2255.14561	43319.4875
2258.03893	43276.1875
2260.93041	43262.2875
2263.82004	43070.2875
2266.70783	42976.9875
2269.59378	42906.8875
2272.4779	42831.3875
2275.36017	42809.8875
2278.24061	42683.5875
2281.11922	42555.5875
2283.996	42509.8875
2286.87094	42502.6875
2289.74405	42386.6875
2292.61534	42433.8875
2295.4848	42292.3875
2298.35243	42343.2875
2301.21824	42248.3875
2304.08223	42181.4875
2306.94439	42120.9875
2309.80474	42157.5875
2312.66327	42128.4875
2315.51999	42019.5875
2318.37489	41967.4875
2321.22797	41926.8875
2324.07925	41894.0875
2326.92871	41775.3875
2329.77637	41657.7875
2332.62222	41631.7875
2335.46626	41604.0875
2338.3085	41565.8875
2341.14893	41516.6875
2343.98756	41459.4875
2346.8244	41500.0875
2349.65943	41496.6875
2352.49267	41461.2875
2355.32411	41462.6875
2358.15376	41376.9875
2360.98161	41367.6875
2363.80768	41361.9875
2366.63195	41339.9875
2369.45444	41318.1875
2372.27514	41300.1875
2375.09405	41229.6875
2377.91118	41095.8875
2380.72652	41090.0875
2383.54009	40957.4875
2386.35187	40920.1875
2389.16188	40769.1875
2391.97011	40705.8875
2394.77657	40635.8875
2397.58125	40616.4875
2400.38416	40551.2875
2403.18529	40450.6875
2405.98466	40488.5875
2408.78226	40348.3875
2411.57809	40323.0875
2414.37216	40258.6875
2417.16446	40257.6875
2419.955	40223.8875
2422.74378	40206.2875
2425.5308	40152.7875
2428.31606	40115.2875
2431.09956	40128.8875
2433.88131	40061.7875
2436.6613	40081.3875
2439.43954	40033.3875
2442.21603	40003.2875
2444.99077	39934.9875
2447.76377	39945.5875
2450.53501	39886.6875
2453.30451	39907.5875
2456.07226	39830.0875
2458.83827	39779.6875
2461.60254	39698.5875
2464.36507	39707.1875
2467.12586	39719.1875
2469.88492	39709.4875
2472.64224	39664.6875
2475.39782	39636.0875
2478.15167	39625.1875
2480.90379	39624.2875
2483.65417	39625.4875
2486.40283	39593.6875
2489.14976	39530.2875
2491.89497	39498.1875
2494.63845	39593.6875
2497.3802	39496.4875
2500.12024	39425.9875
2502.85855	39417.4875
2505.59514	39415.3875
2508.33002	39336.4875
2511.06318	39300.7875
2513.79462	39288.4875
2516.52435	39259.2875
2519.25237	39190.3875
2521.97867	39189.2875
2524.70327	39222.8875
2527.42616	39099.0875
2530.14734	39087.3875
2532.86681	39017.6875
2535.58458	38978.8875
2538.30065	39009.5875
2541.01501	38978.4875
2543.72768	38962.0875
2546.43864	38876.8875
2549.14791	38798.6875
2551.85548	38742.2875
2554.56136	38655.1875
2557.26554	38541.4875
2559.96803	38437.8875
2562.66883	38418.6875
2565.36794	38429.7875
2568.06536	38356.3875
2570.7611	38230.4875
2573.45514	38182.2875
2576.14751	38101.7875
2578.83819	38077.8875
2581.52719	38060.0875
2584.21451	37956.5875
2586.90015	37893.1875
2589.58411	37836.2875
2592.2664	37798.5875
2594.94701	37767.6875
2597.62594	37768.9875
2600.30321	37712.9875
2602.9788	37693.9875
2605.65273	37686.9875
2608.32498	37627.8875
2610.99557	37547.6875
2613.66449	37579.5875
2616.33175	37505.3875
2618.99734	37423.9875
2621.66128	37336.6875
2624.32355	37294.5875
2626.98416	37229.4875
2629.64311	37208.3875
2632.30041	37155.3875
2634.95605	37104.1875
2637.61004	37038.7875
2640.26238	37091.2875
2642.91306	37016.0875
2645.56209	36998.7875
2648.20948	37031.5875
2650.85521	37025.1875
2653.4993	37001.7875
2656.14175	36990.9875
2658.78255	37041.6875
2661.42171	37035.0875
2664.05923	37038.2875
2666.6951	36983.7875
2669.32934	36995.9875
2671.96194	37012.1875
2674.59291	37062.7875
2677.22224	37032.8875
2679.84993	37055.1875
2682.476	37011.5875
2685.10043	36969.2875
2687.72324	36965.4875
2690.34441	36997.9875
2692.96396	36945.5875
2695.58188	37048.8875
2698.19818	36928.7875
2700.81285	36955.5875
2703.4259	36899.6875
2706.03733	37007.3875
2708.64714	36921.0875
2711.25533	36986.5875
2713.86191	36931.6875
2716.46687	37014.4875
2719.07021	36958.2875
2721.67194	36988.7875
2724.27206	36913.2875
2726.87057	37029.7875
2729.46747	36978.4875
2732.06276	36988.0875
2734.65644	36949.0875
2737.24852	36965.1875
2739.83899	36983.0875
2742.42786	36940.7875
2745.01513	36869.3875
2747.60079	36870.2875
2750.18486	36767.5875
2752.76733	36798.5875
2755.3482	36748.4875
2757.92747	36676.0875
2760.50515	36637.6875
2763.08123	36597.7875
2765.65573	36581.8875
2768.22863	36557.7875
2770.79994	36459.3875
2773.36967	36469.1875
2775.9378	36496.8875
2778.50435	36457.8875
2781.06932	36410.1875
2783.6327	36363.8875
2786.1945	36315.2875
2788.75471	36188.3875
2791.31335	36156.5875
2793.87041	36132.6875
2796.42589	36043.0875
2798.97979	35993.4875
2801.53212	35836.0875
2804.08288	35833.8875
2806.63206	35711.8875
2809.17967	35692.7875
2811.72571	35595.7875
2814.27018	35456.6875
2816.81308	35378.2875
2819.35442	35253.6875
2821.89419	35169.9875
2824.43239	35192.9875
2826.96904	35166.7875
2829.50412	35144.7875
2832.03763	35036.7875
2834.56959	35025.1875
2837.1	34939.9875
2839.62884	34949.0875
2842.15613	34872.1875
2844.68186	34868.2875
2847.20604	34800.4875
2849.72867	34798.8875
2852.24974	34712.7875
2854.76927	34635.9875
2857.28724	34608.9875
2859.80367	34621.1875
2862.31855	34545.2875
2864.83189	34522.7875
2867.34368	34426.1875
2869.85393	34374.7875
2872.36264	34328.3875
2874.8698	34232.5875
2877.37543	34226.4875
2879.87952	34229.0875
2882.38207	34221.2875
2884.88308	34212.8875
2887.38256	34254.5875
2889.88051	34222.3875
2892.37692	34151.2875
2894.8718	34165.6875
2897.36515	34214.8875
2899.85698	34197.7875
2902.34727	34262.5875
2904.83604	34199.3875
2907.32328	34223.0875
2909.809	34184.4875
2912.29319	34296.4875
2914.77587	34264.6875
2917.25702	34256.2875
2919.73665	34200.7875
2922.21476	34198.7875
2924.69136	34153.5875
2927.16644	34142.1875
2929.64	34113.0875
2932.11205	34059.2875
2934.58258	33962.6875
2937.05161	34048.3875
2939.51912	34017.5875
2941.98513	33979.7875
2944.44962	33891.7875
2946.91261	33866.0875
2949.37409	33925.7875
2951.83407	33922.2875
2954.29254	33852.6875
2956.74951	33853.2875
2959.20498	33851.0875
2961.65895	33772.7875
2964.11142	33823.4875
2966.56239	33767.2875
2969.01186	33740.2875
2971.45984	33583.5875
2973.90632	33616.1875
2976.35131	33566.1875
2978.7948	33518.4875
2981.23681	33486.3875
2983.67732	33467.6875
2986.11635	33329.3875
2988.55388	33295.2875
2990.98993	33247.8875
2993.4245	33203.6875
2995.85758	33070.0875
2998.28917	32986.0875
3000.71928	32927.1875
3003.14791	32849.4875
3005.57506	32823.3875
3008.00073	32707.7875
3010.42493	32714.0875
3012.84764	32570.7875
3015.26888	32583.5875
3017.68865	32501.5875
3020.10694	32404.9875
3022.52376	32356.2875
3024.9391	32341.3875
3027.35298	32266.9875
3029.76539	32272.0875
3032.17632	32256.2875
3034.5858	32215.8875
3036.9938	32173.5875
3039.40034	32098.2875
3041.80542	32081.8875
3044.20903	32006.2875
3046.61118	31992.5875
3049.01187	31855.9875
3051.4111	31830.4875
3053.80888	31741.7875
3056.20519	31677.3875
3058.60005	31605.8875
3060.99345	31586.0875
3063.3854	31474.0875
3065.7759	31407.2875
3068.16494	31311.0875
3070.55254	31238.6875
3072.93868	31141.9875
3075.32338	31036.3875
3077.70662	30987.8875
3080.08842	30894.0875
3082.46878	30825.3875
3084.84769	30751.7875
3087.22515	30743.9875
3089.60118	30734.5875
3091.97576	30725.3875
3094.3489	30677.0875
3096.72061	30669.9875
3099.09087	30650.0875
3101.4597	30642.3875
3103.82709	30655.6875
3106.19305	30585.0875
3108.55757	30602.6875
3110.92066	30560.9875
3113.28232	30476.9875
3115.64255	30411.4875
3118.00134	30269.3875
3120.35871	30202.2875
3122.71466	30070.5875
3125.06917	30048.0875
3127.42226	29959.7875
3129.77393	29947.9875
3132.12417	29854.0875
3134.47299	29855.6875
3136.82039	29806.6875
3139.16636	29797.4875
3141.51092	29792.7875
3143.85406	29829.6875
3146.19579	29797.0875
3148.53609	29763.5875
3150.87499	29739.4875
3153.21246	29749.2875
3155.54853	29786.6875
3157.88318	29696.5875
3160.21642	29779.9875
3162.54826	29686.2875
3164.87868	29605.2875
3167.2077	29603.4875
3169.5353	29561.3875
3171.86151	29537.8875
3174.18631	29561.2875
3176.5097	29553.0875
3178.83169	29479.1875
3181.15228	29424.0875
3183.47147	29304.0875
3185.78926	29288.1875
3188.10565	29228.4875
3190.42065	29176.8875
3192.73424	29157.5875
3195.04645	29070.6875
3197.35725	29030.7875
3199.66667	28981.5875
3201.97469	29029.9875
3204.28132	28915.1875
3206.58656	28930.1875
3208.8904	28962.0875
3211.19287	28945.3875
3213.49394	28949.2875
3215.79363	28916.3875
3218.09193	28945.1875
3220.38884	28962.5875
3222.68438	28992.4875
3224.97853	28854.9875
3227.2713	28864.9875
3229.56269	28833.6875
3231.8527	28793.1875
3234.14133	28755.9875
3236.42858	28651.6875
3238.71446	28604.8875
3240.99896	28529.5875
3243.28209	28520.9875
3245.56384	28482.7875
3247.84423	28448.4875
3250.12324	28377.8875
3252.40088	28358.9875
3254.67715	28357.7875
3256.95205	28318.5875
3259.22558	28265.6875
3261.49775	28247.7875
3263.76855	28232.9875
3266.03799	28106.5875
3268.30606	28074.5875
3270.57277	27970.1875
3272.83812	27948.7875
3275.10211	27891.5875
3277.36474	27829.3875
3279.62601	27842.4875
3281.88593	27763.5875
3284.14448	27784.6875
3286.40168	27748.0875
3288.65753	27738.0875
3290.91202	27635.1875
3293.16516	27627.3875
3295.41695	27572.1875
3297.66738	27406.6875
3299.91647	27197.9875
3302.16421	27039.1875
3304.4106	26935.3875
3306.65564	26725.7875
3308.89933	26555.3875
3311.14169	26395.8875
3313.38269	26187.2875
3315.62236	26025.6875
3317.86068	25760.4875
3320.09766	25545.4875
3322.3333	25345.5875
3324.5676	25277.9875
3326.80056	24884.2875
3329.03219	24713.6875
3331.26248	6.6875
3333.49143	1.6875
3335.71905	-0.8125
