Data from AgNPs_FTO_APTES_UA_20uM_CRN_2uM_R6G_10uM_NaF_0.1M_Addition_RamanShift__12__12-54-32-080.txt Node

Date: Thu Feb 17 12:54:32 GMT 2022
User: TCL
Spectrometer: QEP01345
Trigger mode: 4
Integration Time (sec): 7.000000E0
Scans to average: 10
Electric dark correction enabled: true
Nonlinearity correction enabled: false
Boxcar width: 0
XAxis mode: Raman Shifts
Number of Pixels in Spectrum: 1044
>>>>>Begin Spectral Data<<<<<
46.04893	-1.2125
50.45542	-1.5125
54.85868	-2.4125
59.25871	-0.7125
63.6555	125.3875
68.04907	130.5875
72.43941	135.1875
76.82654	134.8875
81.21044	139.5875
85.59113	147.5875
89.96862	149.6875
94.34289	154.9875
98.71396	160.2875
103.08183	163.2875
107.4465	169.0875
111.80798	173.9875
116.16626	181.1875
120.52136	190.2875
124.87327	196.5875
129.222	211.3875
133.56755	227.1875
137.90993	241.5875
142.24913	276.2875
146.58517	310.7875
150.91804	365.8875
155.24774	437.2875
159.57429	550.3875
163.89768	716.8875
168.21792	958.9875
172.53501	1331.1875
176.84895	1855.6875
181.15975	2637.4875
185.46741	3701.4875
189.77193	5131.8875
194.07331	6885.7875
198.37157	8920.5875
202.6667	11032.5875
206.9587	13163.9875
211.24758	15204.1875
215.53334	17250.6875
219.81599	19333.1875
224.09553	21676.7875
228.37195	24260.8875
232.64527	27120.5875
236.91549	30134.4875
241.18261	33310.3875
245.44663	36267.9875
249.70755	39081.7875
253.96539	41540.3875
258.22014	43592.1875
262.4718	45191.3875
266.72039	46383.5875
270.96589	46974.0875
275.20832	47032.1875
279.44768	46853.6875
283.68397	46574.3875
287.91719	46292.4875
292.14735	45999.5875
296.37445	45843.9875
300.59849	45888.8875
304.81948	45969.6875
309.03742	45958.3875
313.25231	45748.9875
317.46415	45253.5875
321.67296	44657.4875
325.87872	44168.0875
330.08145	43931.0875
334.28114	44027.5875
338.47781	44358.5875
342.67145	44840.6875
346.86207	45364.1875
351.04966	46028.0875
355.23424	46561.8875
359.4158	47114.5875
363.59435	47547.4875
367.76989	47924.4875
371.94243	48221.5875
376.11196	48459.8875
380.27849	48667.7875
384.44203	48944.7875
388.60257	49282.0875
392.76012	49802.9875
396.91468	50516.2875
401.06626	51215.8875
405.21485	51707.3875
409.36047	51733.6875
413.50311	51400.5875
417.64277	51248.0875
421.77947	51439.2875
425.9132	51713.9875
430.04396	52085.6875
434.17176	52392.5875
438.2966	52693.8875
442.41849	53291.7875
446.53742	54068.2875
450.6534	55051.2875
454.76644	55852.1875
458.87653	56286.5875
462.98368	56400.5875
467.08789	56309.9875
471.18916	55942.7875
475.2875	55585.1875
479.38291	55319.8875
483.4754	55135.0875
487.56496	54957.1875
491.6516	54555.0875
495.73531	54050.6875
499.81612	53663.3875
503.89401	53770.3875
507.96899	53992.2875
512.04106	54025.0875
516.11023	53940.3875
520.1765	53745.1875
524.23987	53495.3875
528.30034	53251.2875
532.35792	52912.8875
536.41261	52655.3875
540.46441	52438.7875
544.51333	52466.8875
548.55936	52886.1875
552.60252	53550.0875
556.64279	54490.8875
560.6802	55119.5875
564.71473	55707.3875
568.7464	56543.6875
572.7752	58116.5875
576.80114	60093.3875
580.82422	61878.8875
584.84444	63044.8875
588.86181	64027.8875
592.87633	65013.7875
596.888	64924.6875
600.89682	63498.4875
604.9028	62956.0875
608.90594	64594.7875
612.90624	66252.8875
616.90371	63174.5875
620.89834	57703.2875
624.89015	55528.6875
628.87913	55529.6875
632.86528	56004.5875
636.84862	56105.6875
640.82913	55481.0875
644.80683	54594.6875
648.78172	53918.9875
652.75379	53713.6875
656.72306	54135.0875
660.68952	54709.8875
664.65319	54711.5875
668.61405	54343.2875
672.57211	54317.3875
676.52738	54470.8875
680.47986	54539.8875
684.42955	54381.6875
688.37646	54305.6875
692.32058	54470.2875
696.26192	54879.8875
700.20048	55415.5875
704.13626	55878.7875
708.06928	56169.2875
711.99952	56194.2875
715.927	56078.7875
719.85171	55949.1875
723.77365	55748.2875
727.69284	55295.6875
731.60928	54883.9875
735.52295	54534.5875
739.43388	54626.3875
743.34206	54740.4875
747.24749	55086.5875
751.15017	55394.3875
755.05012	56068.3875
758.94733	57072.7875
762.8418	58790.5875
766.73354	61308.4875
770.62254	63570.2875
774.50882	63673.4875
778.39237	61765.4875
782.27321	59362.6875
786.15132	57415.8875
790.02671	56151.4875
793.89938	55390.9875
797.76935	55003.5875
801.6366	54805.3875
805.50115	54698.0875
809.36299	54629.9875
813.22213	54424.4875
817.07857	54417.2875
820.93231	54489.6875
824.78336	54350.7875
828.63172	54266.8875
832.47738	54209.4875
836.32036	54190.2875
840.16066	54268.8875
843.99827	54325.5875
847.8332	54443.7875
851.66546	54545.2875
855.49504	54643.4875
859.32195	54778.4875
863.1462	54752.8875
866.96777	54760.4875
870.78668	54800.6875
874.60293	54804.7875
878.41652	54887.9875
882.22745	55026.0875
886.03573	55087.3875
889.84136	55134.2875
893.64433	55006.2875
897.44466	54912.3875
901.24235	54913.0875
905.0374	54794.2875
908.8298	54752.1875
912.61957	54802.1875
916.40671	55254.3875
920.19121	55846.3875
923.97308	56233.6875
927.75233	56063.6875
931.52895	55596.5875
935.30295	55024.6875
939.07433	54445.5875
942.84309	54068.4875
946.60924	53838.0875
950.37278	53769.8875
954.13371	53828.1875
957.89203	53840.1875
961.64774	53816.2875
965.40086	53849.1875
969.15137	53819.9875
972.89929	53626.4875
976.64461	53547.1875
980.38733	53516.4875
984.12747	53502.9875
987.86502	53680.9875
991.59999	53904.7875
995.33237	54246.1875
999.06217	54751.9875
1002.78939	55391.7875
1006.51404	56205.4875
1010.23611	57002.5875
1013.95561	57559.8875
1017.67255	57627.3875
1021.38692	57312.7875
1025.09872	56651.8875
1028.80796	56055.2875
1032.51465	55803.0875
1036.21877	55847.5875
1039.92035	55934.3875
1043.61937	56144.8875
1047.31584	56273.6875
1051.00976	56422.5875
1054.70114	56659.1875
1058.38998	57065.9875
1062.07627	57603.3875
1065.76003	58218.7875
1069.44126	58897.2875
1073.11995	59664.2875
1076.79611	60322.4875
1080.46974	60619.5875
1084.14085	60864.7875
1087.80943	61215.5875
1091.47549	61615.3875
1095.13903	61817.2875
1098.80005	61418.6875
1102.45857	60560.3875
1106.11456	59750.7875
1109.76805	59132.7875
1113.41903	58965.3875
1117.06751	58999.3875
1120.71348	59305.7875
1124.35696	59695.2875
1127.99793	60063.5875
1131.63641	60218.9875
1135.2724	60223.0875
1138.90589	60210.8875
1142.5369	60383.9875
1146.16542	60710.7875
1149.79145	60991.9875
1153.415	61499.0875
1157.03607	62031.1875
1160.65467	62883.6875
1164.27079	64264.9875
1167.88443	66037.0875
1171.49561	68246.5875
1175.10432	70728.7875
1178.71056	73756.0875
1182.31434	76599.5875
1185.91565	78282.2875
1189.51451	78881.7875
1193.11091	78669.0875
1196.70485	77577.1875
1200.29634	75932.8875
1203.88538	74574.2875
1207.47197	73922.5875
1211.05612	73530.4875
1214.63782	72773.7875
1218.21708	71405.6875
1221.79391	69918.8875
1225.36829	68763.5875
1228.94024	68040.6875
1232.50976	67554.7875
1236.07685	67131.5875
1239.6415	66891.1875
1243.20374	66865.5875
1246.76355	67314.5875
1250.32093	67896.6875
1253.8759	68757.9875
1257.42845	70027.2875
1260.97859	71512.3875
1264.52631	72927.3875
1268.07163	74339.0875
1271.61453	75618.3875
1275.15503	76756.8875
1278.69312	78037.4875
1282.22882	79421.0875
1285.76211	81164.2875
1289.29301	83037.0875
1292.82151	85431.3875
1296.34761	88013.8875
1299.87133	91156.0875
1303.39266	94164.5875
1306.9116	96877.4875
1310.42815	98859.7875
1313.94233	99718.2875
1317.45412	99512.4875
1320.96354	98770.7875
1324.47058	98397.3875
1327.97525	98212.3875
1331.47754	98327.7875
1334.97747	98431.9875
1338.47502	98809.8875
1341.97022	99576.3875
1345.46305	100044.5875
1348.95352	100106.4875
1352.44163	99264.6875
1355.92738	98451.1875
1359.41078	98244.6875
1362.89183	98086.8875
1366.37053	96305.9875
1369.84688	92061.1875
1373.32088	86418.1875
1376.79254	82390.6875
1380.26186	80648.8875
1383.72883	80539.5875
1387.19347	80545.4875
1390.65578	80173.9875
1394.11575	79782.7875
1397.57339	79773.5875
1401.0287	79926.5875
1404.48168	80056.5875
1407.93234	79746.6875
1411.38068	78585.1875
1414.82669	76954.5875
1418.27039	75012.7875
1421.71177	73192.1875
1425.15083	71809.4875
1428.58758	71167.0875
1432.02203	71500.3875
1435.45416	72629.7875
1438.88399	73960.6875
1442.31151	75155.1875
1445.73673	75994.8875
1449.15965	76654.4875
1452.58027	77184.5875
1455.9986	77589.0875
1459.41463	78312.9875
1462.82837	79226.5875
1466.23982	80146.2875
1469.64898	81146.4875
1473.05586	81701.5875
1476.46045	81880.6875
1479.86276	81802.2875
1483.26279	81464.5875
1486.66054	81082.7875
1490.05602	81381.3875
1493.44922	82008.6875
1496.84016	83033.4875
1500.22882	84543.8875
1503.61521	86271.6875
1506.99934	87959.6875
1510.38121	88879.5875
1513.76081	88553.3875
1517.13816	87434.8875
1520.51324	86229.2875
1523.88607	85654.4875
1527.25665	85723.5875
1530.62498	85921.4875
1533.99105	85633.0875
1537.35488	84658.8875
1540.71647	83303.3875
1544.07581	81714.4875
1547.4329	80205.8875
1550.78776	78859.6875
1554.14038	77953.7875
1557.49077	77417.2875
1560.83892	77089.9875
1564.18484	76943.2875
1567.52853	76799.4875
1570.86999	77010.3875
1574.20922	77757.1875
1577.54624	78425.5875
1580.88103	78530.6875
1584.2136	78819.9875
1587.54395	79937.8875
1590.87208	82175.2875
1594.19801	84967.1875
1597.52172	87661.9875
1600.84321	88127.0875
1604.16251	85787.6875
1607.47959	82165.9875
1610.79447	78246.5875
1614.10715	74210.9875
1617.41763	70469.5875
1620.7259	67688.8875
1624.03199	66118.5875
1627.33587	65787.2875
1630.63757	66686.2875
1633.93707	69156.5875
1637.23439	73472.6875
1640.52951	79984.6875
1643.82246	87738.0875
1647.11321	93771.5875
1650.40179	95130.7875
1653.68819	90698.9875
1656.97241	82550.4875
1660.25446	74312.9875
1663.53433	67807.5875
1666.81203	63397.8875
1670.08756	60635.7875
1673.36092	58860.8875
1676.63211	57689.8875
1679.90115	56792.3875
1683.16801	56174.2875
1686.43272	55680.0875
1689.69527	55344.0875
1692.95567	55013.1875
1696.2139	54885.2875
1699.46999	54758.8875
1702.72392	54598.4875
1705.97571	54558.4875
1709.22535	54427.9875
1712.47284	54374.8875
1715.71819	54352.2875
1718.96139	54250.9875
1722.20246	54136.7875
1725.44139	53964.2875
1728.67818	53789.9875
1731.91284	53590.8875
1735.14537	53348.4875
1738.37576	53186.9875
1741.60403	53068.3875
1744.83017	52852.2875
1748.05418	52781.7875
1751.27607	52634.0875
1754.49584	52553.4875
1757.71349	52612.3875
1760.92903	52569.2875
1764.14244	52502.8875
1767.35375	52447.8875
1770.56294	52389.4875
1773.77002	52389.2875
1776.97499	52407.4875
1780.17785	52272.5875
1783.37861	52253.5875
1786.57727	52075.3875
1789.77382	52024.3875
1792.96828	52058.2875
1796.16064	51962.0875
1799.3509	51894.4875
1802.53907	51807.5875
1805.72514	51721.5875
1808.90913	51520.1875
1812.09102	51457.4875
1815.27083	51355.2875
1818.44856	51366.3875
1821.6242	51279.2875
1824.79776	51248.0875
1827.96924	51192.4875
1831.13864	51200.5875
1834.30597	51129.8875
1837.47122	51154.3875
1840.6344	51010.1875
1843.7955	51114.3875
1846.95454	51119.8875
1850.11151	51030.4875
1853.26642	51013.6875
1856.41926	50998.6875
1859.57004	51004.4875
1862.71876	50901.2875
1865.86542	50805.9875
1869.01003	50752.4875
1872.15258	50698.2875
1875.29308	50672.0875
1878.43152	50577.9875
1881.56792	50538.7875
1884.70227	50549.0875
1887.83457	50517.7875
1890.96482	50458.1875
1894.09304	50371.1875
1897.21921	50293.4875
1900.34335	50248.2875
1903.46544	50157.3875
1906.58551	50103.7875
1909.70353	50112.9875
1912.81953	50097.2875
1915.93349	49970.0875
1919.04543	49837.5875
1922.15534	49810.6875
1925.26322	49759.6875
1928.36908	49645.7875
1931.47292	49584.2875
1934.57473	49513.0875
1937.67453	49402.5875
1940.77232	49304.3875
1943.86808	49141.2875
1946.96184	49070.8875
1950.05358	48839.5875
1953.14331	48775.0875
1956.23103	48604.7875
1959.31675	48469.4875
1962.40046	48370.4875
1965.48217	48150.2875
1968.56188	48038.2875
1971.63959	47926.6875
1974.7153	47863.0875
1977.78901	47699.6875
1980.86073	47476.3875
1983.93046	47462.2875
1986.99819	47245.3875
1990.06394	47202.3875
1993.1277	47139.1875
1996.18947	46933.3875
1999.24925	46871.2875
2002.30706	46725.1875
2005.36288	46574.8875
2008.41672	46410.1875
2011.46859	46267.6875
2014.51848	46106.0875
2017.56639	46016.2875
2020.61233	45978.1875
2023.6563	45746.7875
2026.6983	45700.0875
2029.73833	45538.9875
2032.7764	45486.5875
2035.8125	45398.5875
2038.84664	45312.6875
2041.87881	45274.0875
2044.90903	45192.1875
2047.93729	45114.8875
2050.96359	45021.4875
2053.98794	44921.6875
2057.01034	44963.3875
2060.03078	45000.0875
2063.04927	44957.5875
2066.06582	44924.8875
2069.08042	44864.0875
2072.09307	44901.0875
2075.10378	44798.0875
2078.11255	44788.4875
2081.11938	44817.2875
2084.12426	44791.9875
2087.12722	44730.2875
2090.12824	44717.8875
2093.12732	44760.6875
2096.12447	44761.2875
2099.11969	44689.5875
2102.11299	44724.7875
2105.10435	44777.1875
2108.09379	44771.6875
2111.08131	44846.9875
2114.0669	44781.0875
2117.05057	44768.0875
2120.03233	44854.9875
2123.01216	44916.2875
2125.99008	44958.3875
2128.96609	44994.8875
2131.94018	45050.1875
2134.91236	45126.9875
2137.88263	45158.3875
2140.851	45234.7875
2143.81746	45233.6875
2146.78201	45176.8875
2149.74466	45211.0875
2152.7054	45233.5875
2155.66425	45222.8875
2158.6212	45248.0875
2161.57625	45235.2875
2164.52941	45211.3875
2167.48067	45164.1875
2170.43004	45140.5875
2173.37752	45155.3875
2176.32311	45183.2875
2179.26681	45199.1875
2182.20863	45165.6875
2185.14856	45218.9875
2188.08661	45156.6875
2191.02278	45121.9875
2193.95707	45043.3875
2196.88948	45025.9875
2199.82001	44978.0875
2202.74867	44917.3875
2205.67545	44911.9875
2208.60037	44800.1875
2211.52341	44746.5875
2214.44458	44781.8875
2217.36388	44671.9875
2220.28132	44628.0875
2223.1969	44592.8875
2226.11061	44427.1875
2229.02246	44293.9875
2231.93245	44190.5875
2234.84058	44163.5875
2237.74686	44179.3875
2240.65128	44076.3875
2243.55385	44062.9875
2246.45456	44028.0875
2249.35343	43964.7875
2252.25044	43941.8875
2255.14561	43786.1875
2258.03893	43764.8875
2260.93041	43674.8875
2263.82004	43492.7875
2266.70783	43426.8875
2269.59378	43405.8875
2272.4779	43268.6875
2275.36017	43241.0875
2278.24061	43143.7875
2281.11922	43053.2875
2283.996	42980.5875
2286.87094	42963.6875
2289.74405	42917.8875
2292.61534	42859.5875
2295.4848	42822.5875
2298.35243	42777.1875
2301.21824	42744.4875
2304.08223	42664.2875
2306.94439	42622.5875
2309.80474	42627.5875
2312.66327	42631.1875
2315.51999	42478.2875
2318.37489	42458.0875
2321.22797	42402.2875
2324.07925	42402.0875
2326.92871	42248.3875
2329.77637	42189.0875
2332.62222	42126.3875
2335.46626	42058.8875
2338.3085	42050.3875
2341.14893	42061.8875
2343.98756	42026.9875
2346.8244	42005.3875
2349.65943	41978.8875
2352.49267	41964.0875
2355.32411	41945.8875
2358.15376	41906.0875
2360.98161	41854.3875
2363.80768	41846.9875
2366.63195	41829.1875
2369.45444	41786.1875
2372.27514	41763.2875
2375.09405	41727.2875
2377.91118	41640.3875
2380.72652	41601.1875
2383.54009	41439.9875
2386.35187	41430.4875
2389.16188	41256.1875
2391.97011	41175.3875
2394.77657	41133.2875
2397.58125	41099.1875
2400.38416	41073.9875
2403.18529	40951.2875
2405.98466	40979.4875
2408.78226	40843.1875
2411.57809	40810.8875
2414.37216	40730.6875
2417.16446	40749.3875
2419.955	40758.0875
2422.74378	40731.6875
2425.5308	40672.9875
2428.31606	40655.9875
2431.09956	40635.6875
2433.88131	40600.8875
2436.6613	40595.3875
2439.43954	40587.4875
2442.21603	40539.9875
2444.99077	40428.4875
2447.76377	40468.1875
2450.53501	40432.2875
2453.30451	40392.9875
2456.07226	40386.6875
2458.83827	40312.3875
2461.60254	40232.7875
2464.36507	40230.9875
2467.12586	40253.2875
2469.88492	40209.6875
2472.64224	40205.5875
2475.39782	40169.6875
2478.15167	40150.1875
2480.90379	40140.9875
2483.65417	40189.7875
2486.40283	40104.0875
2489.14976	40080.2875
2491.89497	40065.7875
2494.63845	40116.8875
2497.3802	40041.9875
2500.12024	40030.0875
2502.85855	39965.7875
2505.59514	39962.5875
2508.33002	39896.4875
2511.06318	39893.8875
2513.79462	39817.8875
2516.52435	39843.2875
2519.25237	39789.5875
2521.97867	39777.4875
2524.70327	39745.9875
2527.42616	39661.8875
2530.14734	39627.5875
2532.86681	39567.1875
2535.58458	39589.9875
2538.30065	39489.0875
2541.01501	39540.0875
2543.72768	39519.2875
2546.43864	39401.7875
2549.14791	39372.0875
2551.85548	39320.7875
2554.56136	39213.8875
2557.26554	39090.3875
2559.96803	39047.9875
2562.66883	39024.5875
2565.36794	38967.4875
2568.06536	38939.5875
2570.7611	38850.1875
2573.45514	38797.0875
2576.14751	38710.7875
2578.83819	38696.1875
2581.52719	38647.8875
2584.21451	38591.2875
2586.90015	38512.8875
2589.58411	38429.9875
2592.2664	38425.2875
2594.94701	38345.7875
2597.62594	38368.1875
2600.30321	38313.9875
2602.9788	38332.1875
2605.65273	38285.3875
2608.32498	38233.7875
2610.99557	38211.7875
2613.66449	38220.7875
2616.33175	38108.6875
2618.99734	38069.0875
2621.66128	37938.0875
2624.32355	37916.9875
2626.98416	37862.3875
2629.64311	37752.2875
2632.30041	37768.3875
2634.95605	37717.5875
2637.61004	37653.8875
2640.26238	37697.2875
2642.91306	37635.1875
2645.56209	37640.4875
2648.20948	37633.6875
2650.85521	37639.5875
2653.4993	37642.3875
2656.14175	37636.7875
2658.78255	37651.3875
2661.42171	37704.8875
2664.05923	37731.1875
2666.6951	37653.1875
2669.32934	37666.8875
2671.96194	37690.0875
2674.59291	37681.7875
2677.22224	37707.2875
2679.84993	37692.8875
2682.476	37685.0875
2685.10043	37660.6875
2687.72324	37582.2875
2690.34441	37609.2875
2692.96396	37614.1875
2695.58188	37646.4875
2698.19818	37566.2875
2700.81285	37577.7875
2703.4259	37537.7875
2706.03733	37618.3875
2708.64714	37573.2875
2711.25533	37617.5875
2713.86191	37631.2875
2716.46687	37656.7875
2719.07021	37633.7875
2721.67194	37675.8875
2724.27206	37631.2875
2726.87057	37629.8875
2729.46747	37690.3875
2732.06276	37668.1875
2734.65644	37688.9875
2737.24852	37673.9875
2739.83899	37618.7875
2742.42786	37604.8875
2745.01513	37554.6875
2747.60079	37548.8875
2750.18486	37522.2875
2752.76733	37511.2875
2755.3482	37440.7875
2757.92747	37377.9875
2760.50515	37304.2875
2763.08123	37290.3875
2765.65573	37281.3875
2768.22863	37280.0875
2770.79994	37175.9875
2773.36967	37209.4875
2775.9378	37195.6875
2778.50435	37160.5875
2781.06932	37046.0875
2783.6327	37037.8875
2786.1945	36983.2875
2788.75471	36935.7875
2791.31335	36865.4875
2793.87041	36799.2875
2796.42589	36753.2875
2798.97979	36716.8875
2801.53212	36535.4875
2804.08288	36489.0875
2806.63206	36441.5875
2809.17967	36367.5875
2811.72571	36283.6875
2814.27018	36144.1875
2816.81308	36021.1875
2819.35442	35962.6875
2821.89419	35940.9875
2824.43239	35881.5875
2826.96904	35818.5875
2829.50412	35824.7875
2832.03763	35699.4875
2834.56959	35673.6875
2837.1	35629.7875
2839.62884	35593.3875
2842.15613	35561.0875
2844.68186	35538.7875
2847.20604	35495.9875
2849.72867	35439.5875
2852.24974	35404.7875
2854.76927	35373.1875
2857.28724	35291.3875
2859.80367	35343.3875
2862.31855	35256.7875
2864.83189	35211.5875
2867.34368	35079.2875
2869.85393	35067.7875
2872.36264	35022.2875
2874.8698	34976.5875
2877.37543	34939.5875
2879.87952	34895.4875
2882.38207	34931.5875
2884.88308	34921.6875
2887.38256	34916.5875
2889.88051	34909.6875
2892.37692	34872.3875
2894.8718	34909.4875
2897.36515	34905.1875
2899.85698	34870.5875
2902.34727	34930.0875
2904.83604	34912.6875
2907.32328	34985.7875
2909.809	34972.1875
2912.29319	34993.5875
2914.77587	34976.8875
2917.25702	34995.4875
2919.73665	34938.4875
2922.21476	34875.5875
2924.69136	34863.2875
2927.16644	34855.4875
2929.64	34865.2875
2932.11205	34800.3875
2934.58258	34697.6875
2937.05161	34809.2875
2939.51912	34759.2875
2941.98513	34694.9875
2944.44962	34639.7875
2946.91261	34628.8875
2949.37409	34645.6875
2951.83407	34610.9875
2954.29254	34541.3875
2956.74951	34549.3875
2959.20498	34560.1875
2961.65895	34533.4875
2964.11142	34505.3875
2966.56239	34542.4875
2969.01186	34499.8875
2971.45984	34353.7875
2973.90632	34298.5875
2976.35131	34278.3875
2978.7948	34253.1875
2981.23681	34159.6875
2983.67732	34153.9875
2986.11635	34076.1875
2988.55388	33997.2875
2990.98993	33946.0875
2993.4245	33926.4875
2995.85758	33822.0875
2998.28917	33648.6875
3000.71928	33600.9875
3003.14791	33521.9875
3005.57506	33492.6875
3008.00073	33426.3875
3010.42493	33353.6875
3012.84764	33302.2875
3015.26888	33264.4875
3017.68865	33173.1875
3020.10694	33146.3875
3022.52376	33043.2875
3024.9391	33028.1875
3027.35298	32968.6875
3029.76539	32978.0875
3032.17632	32962.1875
3034.5858	32889.6875
3036.9938	32884.1875
3039.40034	32802.9875
3041.80542	32802.4875
3044.20903	32707.7875
3046.61118	32664.2875
3049.01187	32629.1875
3051.4111	32525.3875
3053.80888	32479.4875
3056.20519	32438.8875
3058.60005	32349.3875
3060.99345	32265.3875
3063.3854	32145.4875
3065.7759	32080.7875
3068.16494	32001.3875
3070.55254	31888.4875
3072.93868	31846.5875
3075.32338	31748.9875
3077.70662	31668.9875
3080.08842	31550.3875
3082.46878	31478.8875
3084.84769	31442.0875
3087.22515	31411.9875
3089.60118	31410.4875
3091.97576	31361.7875
3094.3489	31368.2875
3096.72061	31344.5875
3099.09087	31352.2875
3101.4597	31319.2875
3103.82709	31324.6875
3106.19305	31276.4875
3108.55757	31267.1875
3110.92066	31183.5875
3113.28232	31153.6875
3115.64255	31084.2875
3118.00134	30946.9875
3120.35871	30847.4875
3122.71466	30735.8875
3125.06917	30696.9875
3127.42226	30602.6875
3129.77393	30630.4875
3132.12417	30542.5875
3134.47299	30529.1875
3136.82039	30478.5875
3139.16636	30479.4875
3141.51092	30442.8875
3143.85406	30448.8875
3146.19579	30411.3875
3148.53609	30390.5875
3150.87499	30375.3875
3153.21246	30420.3875
3155.54853	30433.8875
3157.88318	30368.7875
3160.21642	30380.6875
3162.54826	30374.0875
3164.87868	30329.7875
3167.2077	30305.3875
3169.5353	30225.5875
3171.86151	30189.1875
3174.18631	30183.1875
3176.5097	30154.9875
3178.83169	30127.2875
3181.15228	30051.5875
3183.47147	29937.0875
3185.78926	29932.7875
3188.10565	29879.5875
3190.42065	29847.1875
3192.73424	29773.8875
3195.04645	29755.8875
3197.35725	29703.3875
3199.66667	29658.5875
3201.97469	29672.4875
3204.28132	29572.5875
3206.58656	29620.5875
3208.8904	29574.5875
3211.19287	29646.5875
3213.49394	29597.3875
3215.79363	29589.7875
3218.09193	29628.0875
3220.38884	29581.0875
3222.68438	29641.3875
3224.97853	29532.2875
3227.2713	29467.8875
3229.56269	29417.4875
3231.8527	29420.1875
3234.14133	29364.7875
3236.42858	29295.8875
3238.71446	29217.9875
3240.99896	29174.2875
3243.28209	29160.1875
3245.56384	29105.3875
3247.84423	29048.9875
3250.12324	29026.3875
3252.40088	29028.8875
3254.67715	28979.9875
3256.95205	28946.0875
3259.22558	28944.5875
3261.49775	28899.6875
3263.76855	28842.4875
3266.03799	28746.9875
3268.30606	28715.2875
3270.57277	28660.1875
3272.83812	28596.9875
3275.10211	28507.3875
3277.36474	28456.2875
3279.62601	28465.4875
3281.88593	28380.6875
3284.14448	28407.8875
3286.40168	28396.6875
3288.65753	28359.4875
3290.91202	28257.9875
3293.16516	28250.1875
3295.41695	28200.5875
3297.66738	28014.0875
3299.91647	27831.0875
3302.16421	27663.9875
3304.4106	27522.5875
3306.65564	27313.5875
3308.89933	27188.3875
3311.14169	26951.5875
3313.38269	26773.1875
3315.62236	26595.5875
3317.86068	26342.0875
3320.09766	26095.4875
3322.3333	25961.5875
3324.5676	25815.1875
3326.80056	25447.1875
3329.03219	25255.9875
3331.26248	7.1875
3333.49143	0.7875
3335.71905	-1.0125
