Data from AgNPs_FTO_APTES_UA_20uM_CRN_20uM_R6G_10uM_NaF_0.1M_Addition_RamanShift__31__15-26-12-279.txt Node

Date: Thu Feb 17 15:26:12 GMT 2022
User: TCL
Spectrometer: QEP01345
Trigger mode: 4
Integration Time (sec): 7.000000E0
Scans to average: 10
Electric dark correction enabled: true
Nonlinearity correction enabled: false
Boxcar width: 0
XAxis mode: Raman Shifts
Number of Pixels in Spectrum: 1044
>>>>>Begin Spectral Data<<<<<
46.04893	-0.4625
50.45542	0.3375
54.85868	-2.3625
59.25871	0.1375
63.6555	56.0375
68.04907	55.7375
72.43941	61.8375
76.82654	62.8375
81.21044	69.2375
85.59113	68.5375
89.96862	75.0375
94.34289	70.6375
98.71396	75.2375
103.08183	76.4375
107.4465	82.3375
111.80798	78.9375
116.16626	83.6375
120.52136	83.3375
124.87327	86.7375
129.222	92.3375
133.56755	94.7375
137.90993	96.9375
142.24913	103.4375
146.58517	117.5375
150.91804	139.2375
155.24774	155.9375
159.57429	192.5375
163.89768	242.5375
168.21792	313.2375
172.53501	435.7375
176.84895	595.6375
181.15975	840.8375
185.46741	1172.3375
189.77193	1625.2375
194.07331	2176.9375
198.37157	2807.7375
202.6667	3489.2375
206.9587	4152.3375
211.24758	4805.4375
215.53334	5504.4375
219.81599	6242.5375
224.09553	7066.9375
228.37195	8001.7375
232.64527	9036.3375
236.91549	10133.5375
241.18261	11151.6375
245.44663	12078.8375
249.70755	12828.2375
253.96539	13511.6375
258.22014	14103.1375
262.4718	14574.3375
266.72039	14946.2375
270.96589	15130.8375
275.20832	15145.5375
279.44768	14969.8375
283.68397	14708.3375
287.91719	14497.5375
292.14735	14466.3375
296.37445	14661.9375
300.59849	15076.3375
304.81948	15597.0375
309.03742	15931.7375
313.25231	15866.5375
317.46415	15318.8375
321.67296	14457.0375
325.87872	13744.0375
330.08145	13458.1375
334.28114	13472.2375
338.47781	13660.9375
342.67145	14005.1375
346.86207	14505.7375
351.04966	15193.9375
355.23424	16001.0375
359.4158	16633.1375
363.59435	17036.0375
367.76989	17285.0375
371.94243	17395.8375
376.11196	17506.8375
380.27849	17536.5375
384.44203	17459.9375
388.60257	17354.5375
392.76012	17280.5375
396.91468	17384.4375
401.06626	17709.0375
405.21485	17971.7375
409.36047	17824.0375
413.50311	17136.8375
417.64277	16491.5375
421.77947	16132.2375
425.9132	15989.5375
430.04396	16013.2375
434.17176	16089.7375
438.2966	16301.9375
442.41849	16628.4375
446.53742	17012.7375
450.6534	17394.1375
454.76644	17693.7375
458.87653	17794.8375
462.98368	17738.2375
467.08789	17489.0375
471.18916	17213.1375
475.2875	16827.1375
479.38291	16540.9375
483.4754	16354.8375
487.56496	16201.3375
491.6516	16107.0375
495.73531	16072.8375
499.81612	16066.7375
503.89401	16206.5375
507.96899	16413.5375
512.04106	16681.9375
516.11023	16985.3375
520.1765	17194.4375
524.23987	17241.8375
528.30034	16988.4375
532.35792	16772.0375
536.41261	16569.4375
540.46441	16344.8375
544.51333	16210.9375
548.55936	16248.0375
552.60252	16456.1375
556.64279	16728.0375
560.6802	16783.2375
564.71473	16921.5375
568.7464	17345.8375
572.7752	17652.6375
576.80114	17327.1375
580.82422	16932.7375
584.84444	16811.4375
588.86181	16834.3375
592.87633	16899.8375
596.888	17078.2375
600.89682	17546.7375
604.9028	19094.0375
608.90594	23227.9375
612.90624	28693.8375
616.90371	27943.0375
620.89834	21220.6375
624.89015	18006.1375
628.87913	17406.4375
632.86528	17414.6375
636.84862	17592.4375
640.82913	17458.0375
644.80683	16944.7375
648.78172	16575.3375
652.75379	16665.0375
656.72306	17194.9375
660.68952	17767.1375
664.65319	17670.5375
668.61405	17077.9375
672.57211	16781.2375
676.52738	16792.4375
680.47986	16803.4375
684.42955	16746.0375
688.37646	16778.5375
692.32058	16821.1375
696.26192	16978.9375
700.20048	17099.9375
704.13626	17217.7375
708.06928	17208.3375
711.99952	17098.8375
715.927	17128.9375
719.85171	17186.1375
723.77365	17166.6375
727.69284	17136.1375
731.60928	17085.4375
735.52295	17098.6375
739.43388	17158.7375
743.34206	17277.8375
747.24749	17326.3375
751.15017	17432.1375
755.05012	17684.7375
758.94733	18234.5375
762.8418	19410.6375
766.73354	21500.9375
770.62254	23850.5375
774.50882	25373.4375
778.39237	24691.0375
782.27321	22089.4375
786.15132	19658.8375
790.02671	18317.4375
793.89938	17754.4375
797.76935	17529.3375
801.6366	17405.8375
805.50115	17370.9375
809.36299	17306.6375
813.22213	17270.6375
817.07857	17286.3375
820.93231	17323.9375
824.78336	17406.3375
828.63172	17461.8375
832.47738	17512.4375
836.32036	17541.8375
840.16066	17491.2375
843.99827	17495.2375
847.8332	17495.9375
851.66546	17437.5375
855.49504	17501.5375
859.32195	17482.3375
863.1462	17463.2375
866.96777	17439.0375
870.78668	17478.8375
874.60293	17495.1375
878.41652	17566.2375
882.22745	17624.2375
886.03573	17673.1375
889.84136	17687.6375
893.64433	17609.7375
897.44466	17593.2375
901.24235	17578.8375
905.0374	17584.7375
908.8298	17549.6375
912.61957	17523.0375
916.40671	17619.0375
920.19121	17618.2375
923.97308	17762.4375
927.75233	17878.8375
931.52895	18006.3375
935.30295	17950.4375
939.07433	17669.4375
942.84309	17432.5375
946.60924	17269.4375
950.37278	17194.4375
954.13371	17158.0375
957.89203	17082.6375
961.64774	17054.1375
965.40086	17001.2375
969.15137	16993.7375
972.89929	16953.8375
976.64461	16925.7375
980.38733	16958.5375
984.12747	17002.4375
987.86502	17101.7375
991.59999	17200.9375
995.33237	17371.3375
999.06217	17704.3375
1002.78939	18053.0375
1006.51404	18299.8375
1010.23611	18600.2375
1013.95561	18779.1375
1017.67255	18823.2375
1021.38692	18728.4375
1025.09872	18585.8375
1028.80796	18598.9375
1032.51465	18845.6375
1036.21877	19097.9375
1039.92035	19143.1375
1043.61937	19050.0375
1047.31584	18817.7375
1051.00976	18613.9375
1054.70114	18455.8375
1058.38998	18416.8375
1062.07627	18447.1375
1065.76003	18490.1375
1069.44126	18495.8375
1073.11995	18584.1375
1076.79611	18691.2375
1080.46974	18895.3375
1084.14085	19202.1375
1087.80943	19521.4375
1091.47549	19625.1375
1095.13903	19409.0375
1098.80005	18993.1375
1102.45857	18721.1375
1106.11456	18655.4375
1109.76805	18825.3375
1113.41903	19181.3375
1117.06751	19581.7375
1120.71348	20089.9375
1124.35696	20559.2375
1127.99793	20967.0375
1131.63641	20851.9375
1135.2724	20229.8375
1138.90589	19657.5375
1142.5369	19246.2375
1146.16542	18972.1375
1149.79145	18806.8375
1153.415	18794.1375
1157.03607	18858.8375
1160.65467	19075.0375
1164.27079	19448.7375
1167.88443	19996.9375
1171.49561	21005.2375
1175.10432	22616.1375
1178.71056	24920.4375
1182.31434	26811.4375
1185.91565	27392.4375
1189.51451	26765.9375
1193.11091	25291.2375
1196.70485	23682.0375
1200.29634	22579.1375
1203.88538	21890.5375
1207.47197	21193.5375
1211.05612	20503.6375
1214.63782	20117.4375
1218.21708	20020.5375
1221.79391	20063.3375
1225.36829	20151.4375
1228.94024	20252.5375
1232.50976	20215.7375
1236.07685	20221.4375
1239.6415	20359.3375
1243.20374	20571.6375
1246.76355	20719.1375
1250.32093	20964.7375
1253.8759	21354.0375
1257.42845	21865.5375
1260.97859	22230.2375
1264.52631	22493.5375
1268.07163	22752.5375
1271.61453	23119.4375
1275.15503	23423.0375
1278.69312	23635.0375
1282.22882	23793.5375
1285.76211	24104.7375
1289.29301	24477.0375
1292.82151	24921.8375
1296.34761	25422.7375
1299.87133	26293.0375
1303.39266	27853.6375
1306.9116	30217.5375
1310.42815	32749.0375
1313.94233	33836.4375
1317.45412	32926.3375
1320.96354	30814.2375
1324.47058	28767.3375
1327.97525	26982.1375
1331.47754	26052.0375
1334.97747	25983.9375
1338.47502	26605.7375
1341.97022	27526.6375
1345.46305	28649.5375
1348.95352	29838.9375
1352.44163	31318.4375
1355.92738	33502.9375
1359.41078	37275.8375
1362.89183	40910.7375
1366.37053	39767.8375
1369.84688	34552.7375
1373.32088	29519.4375
1376.79254	26266.7375
1380.26186	24573.8375
1383.72883	23719.6375
1387.19347	23167.5375
1390.65578	22633.1375
1394.11575	22145.4375
1397.57339	21891.6375
1401.0287	21928.8375
1404.48168	22222.9375
1407.93234	22707.7375
1411.38068	23311.3375
1414.82669	23702.2375
1418.27039	23682.1375
1421.71177	23306.6375
1425.15083	22891.1375
1428.58758	22746.7375
1432.02203	22845.3375
1435.45416	22936.9375
1438.88399	22951.3375
1442.31151	22956.0375
1445.73673	22993.0375
1449.15965	23087.3375
1452.58027	22968.0375
1455.9986	22708.8375
1459.41463	22572.8375
1462.82837	22663.8375
1466.23982	22895.1375
1469.64898	23357.8375
1473.05586	23682.3375
1476.46045	24002.9375
1479.86276	24454.5375
1483.26279	25068.2375
1486.66054	25690.2375
1490.05602	26474.7375
1493.44922	27454.5375
1496.84016	28724.7375
1500.22882	30635.3375
1503.61521	33255.9375
1506.99934	36352.2375
1510.38121	38882.4375
1513.76081	39431.4375
1517.13816	37239.6375
1520.51324	33359.4375
1523.88607	29872.6375
1527.25665	27496.5375
1530.62498	26122.3375
1533.99105	25316.1375
1537.35488	24896.1375
1540.71647	24718.7375
1544.07581	24729.3375
1547.4329	24856.2375
1550.78776	24901.8375
1554.14038	24877.0375
1557.49077	25019.2375
1560.83892	25239.4375
1564.18484	25606.2375
1567.52853	25932.5375
1570.86999	26309.5375
1574.20922	26485.9375
1577.54624	26284.3375
1580.88103	25408.5375
1584.2136	24400.0375
1587.54395	23862.5375
1590.87208	24223.9375
1594.19801	25315.6375
1597.52172	26817.9375
1600.84321	27651.4375
1604.16251	27109.0375
1607.47959	25920.1375
1610.79447	24502.2375
1614.10715	23154.7375
1617.41763	22091.4375
1620.7259	21424.7375
1624.03199	21105.0375
1627.33587	21149.0375
1630.63757	21472.8375
1633.93707	22161.4375
1637.23439	23141.9375
1640.52951	24362.9375
1643.82246	26018.1375
1647.11321	28049.0375
1650.40179	29491.4375
1653.68819	28868.7375
1656.97241	26212.3375
1660.25446	23299.7375
1663.53433	21291.9375
1666.81203	20108.3375
1670.08756	19423.1375
1673.36092	19045.6375
1676.63211	18735.4375
1679.90115	18550.9375
1683.16801	18360.4375
1686.43272	18251.5375
1689.69527	18176.6375
1692.95567	18116.6375
1696.2139	18114.5375
1699.46999	18129.5375
1702.72392	18145.9375
1705.97571	18121.2375
1709.22535	18039.3375
1712.47284	18076.4375
1715.71819	18142.7375
1718.96139	18109.6375
1722.20246	18080.6375
1725.44139	18004.7375
1728.67818	17946.3375
1731.91284	17864.6375
1735.14537	17795.7375
1738.37576	17705.5375
1741.60403	17696.0375
1744.83017	17713.7375
1748.05418	17630.6375
1751.27607	17632.8375
1754.49584	17667.7375
1757.71349	17669.2375
1760.92903	17667.7375
1764.14244	17629.0375
1767.35375	17610.8375
1770.56294	17597.9375
1773.77002	17589.1375
1776.97499	17539.6375
1780.17785	17513.2375
1783.37861	17519.9375
1786.57727	17484.0375
1789.77382	17480.7375
1792.96828	17475.9375
1796.16064	17442.5375
1799.3509	17435.5375
1802.53907	17389.9375
1805.72514	17365.0375
1808.90913	17348.3375
1812.09102	17306.0375
1815.27083	17278.6375
1818.44856	17306.9375
1821.6242	17268.0375
1824.79776	17252.1375
1827.96924	17256.1375
1831.13864	17258.1375
1834.30597	17249.6375
1837.47122	17220.3375
1840.6344	17195.7375
1843.7955	17230.9375
1846.95454	17198.9375
1850.11151	17184.8375
1853.26642	17173.7375
1856.41926	17177.7375
1859.57004	17191.9375
1862.71876	17199.1375
1865.86542	17187.9375
1869.01003	17207.3375
1872.15258	17208.1375
1875.29308	17204.6375
1878.43152	17194.0375
1881.56792	17189.0375
1884.70227	17158.2375
1887.83457	17137.2375
1890.96482	17138.7375
1894.09304	17166.8375
1897.21921	17164.0375
1900.34335	17156.7375
1903.46544	17112.9375
1906.58551	17093.5375
1909.70353	17099.8375
1912.81953	17105.6375
1915.93349	17085.7375
1919.04543	17065.0375
1922.15534	17031.9375
1925.26322	17018.4375
1928.36908	17010.6375
1931.47292	16995.7375
1934.57473	16966.3375
1937.67453	16957.3375
1940.77232	16913.9375
1943.86808	16857.5375
1946.96184	16837.7375
1950.05358	16758.2375
1953.14331	16769.5375
1956.23103	16674.1375
1959.31675	16660.5375
1962.40046	16623.6375
1965.48217	16593.6375
1968.56188	16537.3375
1971.63959	16499.6375
1974.7153	16423.1375
1977.78901	16396.5375
1980.86073	16367.4375
1983.93046	16329.3375
1986.99819	16279.3375
1990.06394	16227.7375
1993.1277	16204.8375
1996.18947	16160.4375
1999.24925	16118.9375
2002.30706	16070.6375
2005.36288	16030.1375
2008.41672	15965.8375
2011.46859	15936.1375
2014.51848	15892.8375
2017.56639	15859.3375
2020.61233	15834.2375
2023.6563	15798.8375
2026.6983	15754.6375
2029.73833	15695.7375
2032.7764	15701.8375
2035.8125	15677.8375
2038.84664	15650.0375
2041.87881	15619.5375
2044.90903	15575.0375
2047.93729	15556.1375
2050.96359	15568.0375
2053.98794	15547.1375
2057.01034	15562.2375
2060.03078	15510.4375
2063.04927	15535.1375
2066.06582	15507.6375
2069.08042	15498.9375
2072.09307	15493.1375
2075.10378	15484.5375
2078.11255	15470.7375
2081.11938	15431.2375
2084.12426	15446.3375
2087.12722	15432.9375
2090.12824	15420.9375
2093.12732	15437.4375
2096.12447	15441.8375
2099.11969	15445.3375
2102.11299	15466.2375
2105.10435	15442.9375
2108.09379	15482.1375
2111.08131	15474.7375
2114.0669	15493.7375
2117.05057	15501.4375
2120.03233	15513.2375
2123.01216	15526.9375
2125.99008	15573.0375
2128.96609	15573.2375
2131.94018	15552.2375
2134.91236	15586.2375
2137.88263	15582.3375
2140.851	15596.6375
2143.81746	15599.9375
2146.78201	15581.5375
2149.74466	15614.9375
2152.7054	15637.4375
2155.66425	15590.3375
2158.6212	15609.1375
2161.57625	15612.3375
2164.52941	15611.9375
2167.48067	15597.5375
2170.43004	15618.2375
2173.37752	15614.4375
2176.32311	15625.5375
2179.26681	15657.7375
2182.20863	15630.9375
2185.14856	15651.4375
2188.08661	15621.3375
2191.02278	15622.2375
2193.95707	15627.7375
2196.88948	15593.0375
2199.82001	15583.2375
2202.74867	15594.0375
2205.67545	15586.6375
2208.60037	15571.7375
2211.52341	15548.3375
2214.44458	15533.8375
2217.36388	15499.0375
2220.28132	15475.4375
2223.1969	15438.3375
2226.11061	15438.3375
2229.02246	15409.1375
2231.93245	15348.5375
2234.84058	15348.5375
2237.74686	15307.4375
2240.65128	15291.8375
2243.55385	15294.5375
2246.45456	15322.7375
2249.35343	15254.6375
2252.25044	15267.6375
2255.14561	15254.1375
2258.03893	15255.0375
2260.93041	15236.6375
2263.82004	15215.5375
2266.70783	15164.6375
2269.59378	15102.9375
2272.4779	15087.0375
2275.36017	15050.2375
2278.24061	15044.4375
2281.11922	14991.7375
2283.996	15005.7375
2286.87094	14949.6375
2289.74405	14921.6375
2292.61534	14920.4375
2295.4848	14926.0375
2298.35243	14931.9375
2301.21824	14874.9375
2304.08223	14896.4375
2306.94439	14854.4375
2309.80474	14903.5375
2312.66327	14871.6375
2315.51999	14861.4375
2318.37489	14847.5375
2321.22797	14852.4375
2324.07925	14837.9375
2326.92871	14809.8375
2329.77637	14801.6375
2332.62222	14787.8375
2335.46626	14787.5375
2338.3085	14819.0375
2341.14893	14770.9375
2343.98756	14757.8375
2346.8244	14783.9375
2349.65943	14756.6375
2352.49267	14763.3375
2355.32411	14805.9375
2358.15376	14777.9375
2360.98161	14779.2375
2363.80768	14746.7375
2366.63195	14773.6375
2369.45444	14742.5375
2372.27514	14694.4375
2375.09405	14649.4375
2377.91118	14648.6375
2380.72652	14589.8375
2383.54009	14575.3375
2386.35187	14536.4375
2389.16188	14479.5375
2391.97011	14463.8375
2394.77657	14437.4375
2397.58125	14411.4375
2400.38416	14389.4375
2403.18529	14338.2375
2405.98466	14345.9375
2408.78226	14319.4375
2411.57809	14286.4375
2414.37216	14253.0375
2417.16446	14256.8375
2419.955	14235.2375
2422.74378	14243.3375
2425.5308	14204.2375
2428.31606	14206.0375
2431.09956	14201.3375
2433.88131	14189.7375
2436.6613	14193.7375
2439.43954	14210.9375
2442.21603	14177.8375
2444.99077	14173.1375
2447.76377	14173.6375
2450.53501	14164.9375
2453.30451	14131.1375
2456.07226	14100.4375
2458.83827	14125.8375
2461.60254	14096.3375
2464.36507	14090.2375
2467.12586	14075.5375
2469.88492	14062.3375
2472.64224	14072.4375
2475.39782	14059.7375
2478.15167	14080.3375
2480.90379	14091.3375
2483.65417	14110.4375
2486.40283	14109.6375
2489.14976	14075.6375
2491.89497	14105.4375
2494.63845	14119.1375
2497.3802	14101.0375
2500.12024	14069.1375
2502.85855	14068.6375
2505.59514	14031.1375
2508.33002	13990.9375
2511.06318	13978.3375
2513.79462	13933.8375
2516.52435	13919.5375
2519.25237	13890.8375
2521.97867	13869.3375
2524.70327	13866.2375
2527.42616	13848.8375
2530.14734	13849.0375
2532.86681	13829.1375
2535.58458	13787.0375
2538.30065	13794.6375
2541.01501	13800.4375
2543.72768	13773.9375
2546.43864	13781.6375
2549.14791	13738.2375
2551.85548	13735.0375
2554.56136	13698.1375
2557.26554	13685.1375
2559.96803	13669.3375
2562.66883	13648.0375
2565.36794	13602.4375
2568.06536	13595.0375
2570.7611	13587.6375
2573.45514	13570.0375
2576.14751	13529.8375
2578.83819	13520.1375
2581.52719	13513.5375
2584.21451	13481.6375
2586.90015	13494.2375
2589.58411	13424.2375
2592.2664	13448.4375
2594.94701	13404.2375
2597.62594	13412.6375
2600.30321	13395.8375
2602.9788	13378.1375
2605.65273	13367.3375
2608.32498	13357.3375
2610.99557	13366.4375
2613.66449	13370.0375
2616.33175	13374.1375
2618.99734	13365.2375
2621.66128	13340.7375
2624.32355	13326.2375
2626.98416	13319.9375
2629.64311	13282.9375
2632.30041	13279.9375
2634.95605	13264.3375
2637.61004	13267.2375
2640.26238	13212.8375
2642.91306	13223.9375
2645.56209	13209.2375
2648.20948	13188.7375
2650.85521	13182.0375
2653.4993	13166.2375
2656.14175	13155.2375
2658.78255	13196.8375
2661.42171	13177.4375
2664.05923	13177.8375
2666.6951	13191.2375
2669.32934	13230.5375
2671.96194	13191.6375
2674.59291	13193.5375
2677.22224	13225.2375
2679.84993	13250.6375
2682.476	13192.9375
2685.10043	13220.7375
2687.72324	13218.6375
2690.34441	13192.2375
2692.96396	13198.5375
2695.58188	13187.6375
2698.19818	13186.8375
2700.81285	13215.7375
2703.4259	13178.7375
2706.03733	13219.7375
2708.64714	13189.6375
2711.25533	13193.2375
2713.86191	13196.4375
2716.46687	13207.6375
2719.07021	13207.1375
2721.67194	13246.5375
2724.27206	13241.1375
2726.87057	13205.7375
2729.46747	13233.7375
2732.06276	13234.0375
2734.65644	13217.1375
2737.24852	13183.0375
2739.83899	13169.0375
2742.42786	13175.1375
2745.01513	13184.2375
2747.60079	13157.9375
2750.18486	13149.3375
2752.76733	13104.4375
2755.3482	13106.5375
2757.92747	13111.0375
2760.50515	13088.2375
2763.08123	13077.9375
2765.65573	13039.8375
2768.22863	13060.4375
2770.79994	13008.2375
2773.36967	13011.9375
2775.9378	13009.0375
2778.50435	12998.3375
2781.06932	12977.4375
2783.6327	12965.9375
2786.1945	12960.4375
2788.75471	12966.9375
2791.31335	12910.3375
2793.87041	12911.2375
2796.42589	12872.2375
2798.97979	12875.3375
2801.53212	12830.2375
2804.08288	12808.5375
2806.63206	12786.5375
2809.17967	12754.7375
2811.72571	12738.0375
2814.27018	12712.2375
2816.81308	12682.5375
2819.35442	12687.6375
2821.89419	12684.0375
2824.43239	12706.0375
2826.96904	12705.0375
2829.50412	12710.0375
2832.03763	12667.1375
2834.56959	12660.3375
2837.1	12630.8375
2839.62884	12650.8375
2842.15613	12603.6375
2844.68186	12646.5375
2847.20604	12607.6375
2849.72867	12623.1375
2852.24974	12600.8375
2854.76927	12592.8375
2857.28724	12574.0375
2859.80367	12551.4375
2862.31855	12509.0375
2864.83189	12539.9375
2867.34368	12500.1375
2869.85393	12517.9375
2872.36264	12509.4375
2874.8698	12489.1375
2877.37543	12477.6375
2879.87952	12472.7375
2882.38207	12432.9375
2884.88308	12428.0375
2887.38256	12435.8375
2889.88051	12438.3375
2892.37692	12452.7375
2894.8718	12440.1375
2897.36515	12440.2375
2899.85698	12424.3375
2902.34727	12460.1375
2904.83604	12459.6375
2907.32328	12481.1375
2909.809	12457.8375
2912.29319	12453.2375
2914.77587	12471.8375
2917.25702	12468.0375
2919.73665	12418.9375
2922.21476	12448.7375
2924.69136	12427.3375
2927.16644	12428.1375
2929.64	12405.7375
2932.11205	12362.5375
2934.58258	12374.9375
2937.05161	12375.0375
2939.51912	12386.7375
2941.98513	12374.3375
2944.44962	12396.4375
2946.91261	12344.8375
2949.37409	12353.9375
2951.83407	12332.3375
2954.29254	12333.5375
2956.74951	12315.6375
2959.20498	12330.2375
2961.65895	12308.3375
2964.11142	12287.9375
2966.56239	12282.7375
2969.01186	12274.6375
2971.45984	12218.7375
2973.90632	12233.5375
2976.35131	12229.6375
2978.7948	12212.7375
2981.23681	12190.3375
2983.67732	12158.4375
2986.11635	12148.8375
2988.55388	12110.6375
2990.98993	12080.9375
2993.4245	12050.6375
2995.85758	12042.3375
2998.28917	12004.3375
3000.71928	11988.2375
3003.14791	11980.0375
3005.57506	11945.2375
3008.00073	11941.2375
3010.42493	11899.3375
3012.84764	11874.9375
3015.26888	11904.4375
3017.68865	11901.4375
3020.10694	11853.2375
3022.52376	11837.5375
3024.9391	11824.2375
3027.35298	11800.4375
3029.76539	11784.8375
3032.17632	11783.2375
3034.5858	11757.6375
3036.9938	11745.5375
3039.40034	11755.3375
3041.80542	11770.3375
3044.20903	11728.9375
3046.61118	11724.1375
3049.01187	11686.3375
3051.4111	11667.8375
3053.80888	11643.2375
3056.20519	11619.6375
3058.60005	11563.8375
3060.99345	11583.2375
3063.3854	11559.4375
3065.7759	11497.3375
3068.16494	11487.8375
3070.55254	11426.2375
3072.93868	11407.5375
3075.32338	11375.7375
3077.70662	11359.3375
3080.08842	11331.9375
3082.46878	11318.6375
3084.84769	11300.9375
3087.22515	11302.7375
3089.60118	11291.1375
3091.97576	11270.5375
3094.3489	11246.5375
3096.72061	11265.3375
3099.09087	11276.6375
3101.4597	11291.4375
3103.82709	11284.5375
3106.19305	11281.1375
3108.55757	11266.4375
3110.92066	11228.3375
3113.28232	11217.6375
3115.64255	11165.8375
3118.00134	11149.3375
3120.35871	11145.6375
3122.71466	11139.0375
3125.06917	11124.9375
3127.42226	11078.0375
3129.77393	11093.5375
3132.12417	11075.8375
3134.47299	11055.1375
3136.82039	11044.4375
3139.16636	11045.9375
3141.51092	11032.5375
3143.85406	11016.1375
3146.19579	11017.6375
3148.53609	11015.0375
3150.87499	11030.7375
3153.21246	11080.4375
3155.54853	11111.9375
3157.88318	11081.3375
3160.21642	11069.1375
3162.54826	11079.3375
3164.87868	11085.4375
3167.2077	11074.0375
3169.5353	11063.3375
3171.86151	11078.5375
3174.18631	11063.8375
3176.5097	11050.9375
3178.83169	11010.5375
3181.15228	10997.1375
3183.47147	10983.8375
3185.78926	10972.9375
3188.10565	10973.8375
3190.42065	10962.6375
3192.73424	10942.7375
3195.04645	10956.8375
3197.35725	10928.9375
3199.66667	10910.5375
3201.97469	10947.1375
3204.28132	10947.6375
3206.58656	10964.7375
3208.8904	10984.1375
3211.19287	10981.8375
3213.49394	10977.3375
3215.79363	10982.9375
3218.09193	10970.9375
3220.38884	10970.3375
3222.68438	11032.2375
3224.97853	11002.3375
3227.2713	11013.1375
3229.56269	10970.0375
3231.8527	10951.5375
3234.14133	10927.4375
3236.42858	10890.9375
3238.71446	10903.3375
3240.99896	10867.6375
3243.28209	10854.3375
3245.56384	10829.8375
3247.84423	10838.7375
3250.12324	10829.3375
3252.40088	10784.9375
3254.67715	10805.0375
3256.95205	10791.6375
3259.22558	10811.1375
3261.49775	10764.9375
3263.76855	10764.4375
3266.03799	10748.7375
3268.30606	10747.1375
3270.57277	10749.0375
3272.83812	10730.7375
3275.10211	10674.3375
3277.36474	10663.8375
3279.62601	10669.8375
3281.88593	10651.6375
3284.14448	10619.4375
3286.40168	10641.3375
3288.65753	10641.7375
3290.91202	10620.9375
3293.16516	10612.6375
3295.41695	10563.5375
3297.66738	10532.5375
3299.91647	10479.7375
3302.16421	10413.3375
3304.4106	10372.1375
3306.65564	10316.7375
3308.89933	10234.5375
3311.14169	10162.1375
3313.38269	10068.6375
3315.62236	10011.1375
3317.86068	9938.1375
3320.09766	9860.1375
3322.3333	9830.0375
3324.5676	9781.1375
3326.80056	9611.0375
3329.03219	9576.6375
3331.26248	3.9375
3333.49143	0.1375
3335.71905	-1.2625
