Data from AgNPs_FTO_APTES_UA_20uM_CRN_1uM_R6G_10uM_NaF_0.1M_Addition_RamanShift__11__12-14-52-028.txt Node

Date: Thu Feb 17 12:14:52 GMT 2022
User: TCL
Spectrometer: QEP01345
Trigger mode: 4
Integration Time (sec): 7.000000E0
Scans to average: 10
Electric dark correction enabled: true
Nonlinearity correction enabled: false
Boxcar width: 0
XAxis mode: Raman Shifts
Number of Pixels in Spectrum: 1044
>>>>>Begin Spectral Data<<<<<
46.04893	-0.5625
50.45542	-0.7625
54.85868	-2.4625
59.25871	-0.9625
63.6555	120.7375
68.04907	122.3375
72.43941	127.2375
76.82654	130.4375
81.21044	138.4375
85.59113	139.2375
89.96862	138.8375
94.34289	143.6375
98.71396	149.0375
103.08183	153.4375
107.4465	156.2375
111.80798	163.6375
116.16626	166.2375
120.52136	176.5375
124.87327	183.7375
129.222	194.9375
133.56755	206.9375
137.90993	225.4375
142.24913	248.5375
146.58517	289.1375
150.91804	338.3375
155.24774	403.0375
159.57429	507.5375
163.89768	663.8375
168.21792	885.4375
172.53501	1206.5375
176.84895	1696.7375
181.15975	2399.9375
185.46741	3374.1375
189.77193	4682.7375
194.07331	6298.4375
198.37157	8137.3375
202.6667	10074.5375
206.9587	12017.2375
211.24758	13841.6375
215.53334	15729.9375
219.81599	17661.8375
224.09553	19780.0375
228.37195	22146.1375
232.64527	24799.1375
236.91549	27576.2375
241.18261	30417.1375
245.44663	33160.2375
249.70755	35670.3375
253.96539	37862.5375
258.22014	39682.8375
262.4718	41074.1375
266.72039	42070.0375
270.96589	42697.8375
275.20832	42681.9375
279.44768	42474.1375
283.68397	42120.0375
287.91719	41704.2375
292.14735	41496.2375
296.37445	41337.2375
300.59849	41361.7375
304.81948	41373.7375
309.03742	41475.4375
313.25231	41396.4375
317.46415	41080.9375
321.67296	40582.9375
325.87872	40174.9375
330.08145	40009.5375
334.28114	40030.8375
338.47781	40373.5375
342.67145	40834.5375
346.86207	41381.1375
351.04966	42004.0375
355.23424	42573.3375
359.4158	43123.8375
363.59435	43529.2375
367.76989	43841.8375
371.94243	44071.0375
376.11196	44262.1375
380.27849	44403.5375
384.44203	44630.4375
388.60257	45007.7375
392.76012	45464.9375
396.91468	46170.4375
401.06626	46847.4375
405.21485	47274.6375
409.36047	47265.7375
413.50311	46965.9375
417.64277	46912.7375
421.77947	47125.7375
425.9132	47472.8375
430.04396	47832.2375
434.17176	48029.0375
438.2966	48310.4375
442.41849	48783.0375
446.53742	49638.2375
450.6534	50654.6375
454.76644	51405.8375
458.87653	51793.1375
462.98368	51786.2375
467.08789	51548.7375
471.18916	51109.3375
475.2875	50567.2375
479.38291	50254.1375
483.4754	50015.1375
487.56496	49753.7375
491.6516	49477.2375
495.73531	49065.6375
499.81612	48758.7375
503.89401	48932.1375
507.96899	49131.0375
512.04106	49195.9375
516.11023	49073.5375
520.1765	48879.7375
524.23987	48662.4375
528.30034	48435.2375
532.35792	48198.8375
536.41261	47859.3375
540.46441	47571.9375
544.51333	47593.8375
548.55936	47864.3375
552.60252	48548.9375
556.64279	49341.5375
560.6802	49967.2375
564.71473	50543.0375
568.7464	51343.4375
572.7752	52777.8375
576.80114	54703.2375
580.82422	56536.8375
584.84444	58147.6375
588.86181	60147.3375
592.87633	62045.5375
596.888	62071.2375
600.89682	59777.2375
604.9028	58409.8375
608.90594	59618.7375
612.90624	61033.2375
616.90371	58073.0375
620.89834	52711.8375
624.89015	50511.7375
628.87913	50542.9375
632.86528	51059.5375
636.84862	51064.3375
640.82913	50361.9375
644.80683	49491.2375
648.78172	48867.8375
652.75379	48780.4375
656.72306	49129.9375
660.68952	49660.5375
664.65319	49640.8375
668.61405	49276.5375
672.57211	49235.0375
676.52738	49441.9375
680.47986	49416.5375
684.42955	49279.0375
688.37646	49176.3375
692.32058	49405.1375
696.26192	49901.9375
700.20048	50451.2375
704.13626	50865.7375
708.06928	51065.8375
711.99952	51057.6375
715.927	50940.8375
719.85171	50926.8375
723.77365	50726.1375
727.69284	50256.7375
731.60928	49732.2375
735.52295	49530.9375
739.43388	49544.4375
743.34206	49680.1375
747.24749	49944.0375
751.15017	50413.5375
755.05012	51087.3375
758.94733	52075.7375
762.8418	53723.6375
766.73354	56144.3375
770.62254	58203.5375
774.50882	58246.0375
778.39237	56405.8375
782.27321	54101.3375
786.15132	52290.8375
790.02671	51120.7375
793.89938	50390.8375
797.76935	50074.1375
801.6366	49935.3375
805.50115	49794.8375
809.36299	49679.8375
813.22213	49564.6375
817.07857	49441.3375
820.93231	49430.6375
824.78336	49262.2375
828.63172	49190.5375
832.47738	49124.7375
836.32036	49103.6375
840.16066	49149.1375
843.99827	49249.1375
847.8332	49336.0375
851.66546	49493.6375
855.49504	49571.3375
859.32195	49671.4375
863.1462	49660.7375
866.96777	49689.8375
870.78668	49696.1375
874.60293	49763.3375
878.41652	49746.8375
882.22745	49906.7375
886.03573	50058.9375
889.84136	50068.4375
893.64433	49990.1375
897.44466	49894.7375
901.24235	49767.3375
905.0374	49742.1375
908.8298	49669.6375
912.61957	49759.0375
916.40671	50121.9375
920.19121	50615.1375
923.97308	51075.3375
927.75233	51044.5375
931.52895	50634.2375
935.30295	50039.9375
939.07433	49488.1375
942.84309	49080.7375
946.60924	48893.3375
950.37278	48832.1375
954.13371	48859.9375
957.89203	48901.6375
961.64774	48842.6375
965.40086	48842.4375
969.15137	48880.0375
972.89929	48699.8375
976.64461	48613.2375
980.38733	48603.9375
984.12747	48607.6375
987.86502	48734.0375
991.59999	49007.4375
995.33237	49365.7375
999.06217	49916.2375
1002.78939	50598.5375
1006.51404	51532.3375
1010.23611	52418.6375
1013.95561	52944.3375
1017.67255	53008.4375
1021.38692	52565.7375
1025.09872	51887.7375
1028.80796	51230.7375
1032.51465	50989.3375
1036.21877	50946.9375
1039.92035	51111.5375
1043.61937	51227.6375
1047.31584	51422.2375
1051.00976	51497.1375
1054.70114	51693.7375
1058.38998	52025.2375
1062.07627	52416.7375
1065.76003	53060.6375
1069.44126	53723.9375
1073.11995	54499.1375
1076.79611	55203.9375
1080.46974	55561.0375
1084.14085	55770.0375
1087.80943	56211.8375
1091.47549	56651.1375
1095.13903	56778.2375
1098.80005	56262.6375
1102.45857	55456.6375
1106.11456	54496.8375
1109.76805	54062.9375
1113.41903	53914.4375
1117.06751	54021.3375
1120.71348	54304.9375
1124.35696	54613.7375
1127.99793	54975.6375
1131.63641	55158.0375
1135.2724	55187.5375
1138.90589	55224.9375
1142.5369	55300.8375
1146.16542	55707.3375
1149.79145	56056.1375
1153.415	56493.2375
1157.03607	56962.0375
1160.65467	57824.9375
1164.27079	59287.5375
1167.88443	61201.2375
1171.49561	63293.6375
1175.10432	65809.8375
1178.71056	68916.2375
1182.31434	71812.6375
1185.91565	73372.6375
1189.51451	73685.6375
1193.11091	73097.3375
1196.70485	71888.0375
1200.29634	70237.4375
1203.88538	69033.9375
1207.47197	68518.1375
1211.05612	68267.6375
1214.63782	67535.7375
1218.21708	66338.3375
1221.79391	64853.4375
1225.36829	63753.2375
1228.94024	63122.0375
1232.50976	62677.9375
1236.07685	62024.8375
1239.6415	61745.8375
1243.20374	61702.3375
1246.76355	61931.7375
1250.32093	62597.8375
1253.8759	63491.6375
1257.42845	64819.8375
1260.97859	66286.7375
1264.52631	67820.4375
1268.07163	69252.7375
1271.61453	70584.4375
1275.15503	71879.1375
1278.69312	73230.4375
1282.22882	74781.5375
1285.76211	76623.7375
1289.29301	78812.7375
1292.82151	81162.0375
1296.34761	83991.9375
1299.87133	87330.5375
1303.39266	90694.8375
1306.9116	93551.6375
1310.42815	95811.8375
1313.94233	96815.8375
1317.45412	96073.7375
1320.96354	95016.4375
1324.47058	94080.6375
1327.97525	93758.8375
1331.47754	93479.8375
1334.97747	93350.3375
1338.47502	93247.4375
1341.97022	93456.4375
1345.46305	93606.7375
1348.95352	93421.4375
1352.44163	92732.1375
1355.92738	92644.9375
1359.41078	93472.0375
1362.89183	94258.7375
1366.37053	92986.3375
1369.84688	88463.9375
1373.32088	82209.2375
1376.79254	77674.4375
1380.26186	75755.1375
1383.72883	75518.5375
1387.19347	75549.3375
1390.65578	75040.4375
1394.11575	74773.2375
1397.57339	74897.8375
1401.0287	75421.1375
1404.48168	75971.6375
1407.93234	75760.6375
1411.38068	74584.5375
1414.82669	73007.5375
1418.27039	71075.5375
1421.71177	69145.9375
1425.15083	67775.3375
1428.58758	67256.8375
1432.02203	67785.6375
1435.45416	69033.6375
1438.88399	70480.0375
1442.31151	71600.4375
1445.73673	72320.0375
1449.15965	72691.2375
1452.58027	72938.0375
1455.9986	73158.1375
1459.41463	73758.5375
1462.82837	74680.6375
1466.23982	75747.6375
1469.64898	76729.6375
1473.05586	77293.6375
1476.46045	77526.0375
1479.86276	77489.4375
1483.26279	77084.8375
1486.66054	76908.0375
1490.05602	77157.4375
1493.44922	77843.0375
1496.84016	78718.3375
1500.22882	79966.2375
1503.61521	81446.2375
1506.99934	82732.6375
1510.38121	83423.7375
1513.76081	83031.7375
1517.13816	81827.8375
1520.51324	80635.4375
1523.88607	80229.0375
1527.25665	80530.3375
1530.62498	80753.3375
1533.99105	80376.4375
1537.35488	79432.0375
1540.71647	78007.2375
1544.07581	76357.1375
1547.4329	74858.0375
1550.78776	73532.9375
1554.14038	72567.9375
1557.49077	71954.2375
1560.83892	71626.3375
1564.18484	71390.0375
1567.52853	71303.5375
1570.86999	71627.1375
1574.20922	72438.9375
1577.54624	73050.0375
1580.88103	73247.2375
1584.2136	73634.3375
1587.54395	75176.0375
1590.87208	77877.2375
1594.19801	81306.3375
1597.52172	84352.2375
1600.84321	85080.4375
1604.16251	82456.9375
1607.47959	78101.0375
1610.79447	73497.3375
1614.10715	69179.9375
1617.41763	65377.6375
1620.7259	62622.2375
1624.03199	61168.8375
1627.33587	60996.9375
1630.63757	62042.1375
1633.93707	64863.7375
1637.23439	69616.8375
1640.52951	76803.9375
1643.82246	85324.5375
1647.11321	91804.9375
1650.40179	92785.5375
1653.68819	87168.3375
1656.97241	78066.0375
1660.25446	69255.8375
1663.53433	62709.8375
1666.81203	58406.6375
1670.08756	55793.9375
1673.36092	54196.4375
1676.63211	53125.8375
1679.90115	52306.9375
1683.16801	51631.7375
1686.43272	51212.4375
1689.69527	50828.2375
1692.95567	50543.5375
1696.2139	50431.8375
1699.46999	50291.1375
1702.72392	50185.8375
1705.97571	50096.2375
1709.22535	49994.6375
1712.47284	49947.8375
1715.71819	49963.5375
1718.96139	49925.9375
1722.20246	49762.3375
1725.44139	49627.1375
1728.67818	49418.9375
1731.91284	49245.0375
1735.14537	48982.8375
1738.37576	48828.6375
1741.60403	48725.3375
1744.83017	48581.8375
1748.05418	48455.1375
1751.27607	48406.8375
1754.49584	48350.5375
1757.71349	48351.1375
1760.92903	48326.5375
1764.14244	48224.9375
1767.35375	48221.7375
1770.56294	48176.1375
1773.77002	48201.3375
1776.97499	48150.6375
1780.17785	48141.0375
1783.37861	48014.6375
1786.57727	47908.3375
1789.77382	47846.2375
1792.96828	47784.9375
1796.16064	47744.6375
1799.3509	47628.7375
1802.53907	47587.6375
1805.72514	47521.9375
1808.90913	47421.4375
1812.09102	47350.9375
1815.27083	47255.4375
1818.44856	47249.6375
1821.6242	47168.3375
1824.79776	47075.1375
1827.96924	47114.6375
1831.13864	47091.8375
1834.30597	47037.4375
1837.47122	46982.8375
1840.6344	46915.5375
1843.7955	46946.3375
1846.95454	46998.2375
1850.11151	46997.4375
1853.26642	46966.7375
1856.41926	46991.0375
1859.57004	46956.3375
1862.71876	46825.8375
1865.86542	46778.6375
1869.01003	46717.7375
1872.15258	46709.6375
1875.29308	46662.0375
1878.43152	46570.3375
1881.56792	46558.0375
1884.70227	46586.9375
1887.83457	46540.9375
1890.96482	46512.9375
1894.09304	46350.4375
1897.21921	46370.2375
1900.34335	46228.5375
1903.46544	46193.9375
1906.58551	46252.2375
1909.70353	46174.3375
1912.81953	46173.7375
1915.93349	46055.9375
1919.04543	45968.1375
1922.15534	45918.0375
1925.26322	45859.6375
1928.36908	45799.8375
1931.47292	45673.0375
1934.57473	45545.2375
1937.67453	45551.3375
1940.77232	45420.7375
1943.86808	45323.0375
1946.96184	45195.9375
1950.05358	45044.4375
1953.14331	44919.9375
1956.23103	44834.9375
1959.31675	44694.7375
1962.40046	44541.9375
1965.48217	44341.3375
1968.56188	44320.8375
1971.63959	44187.1375
1974.7153	44089.3375
1977.78901	43974.3375
1980.86073	43793.5375
1983.93046	43733.1375
1986.99819	43605.1375
1990.06394	43519.7375
1993.1277	43432.3375
1996.18947	43347.4375
1999.24925	43269.0375
2002.30706	43054.1375
2005.36288	42962.2375
2008.41672	42814.5375
2011.46859	42678.7375
2014.51848	42605.3375
2017.56639	42452.2375
2020.61233	42356.0375
2023.6563	42258.1375
2026.6983	42144.2375
2029.73833	42072.1375
2032.7764	42013.7375
2035.8125	41886.6375
2038.84664	41865.6375
2041.87881	41813.0375
2044.90903	41712.7375
2047.93729	41582.8375
2050.96359	41546.2375
2053.98794	41547.1375
2057.01034	41557.8375
2060.03078	41554.0375
2063.04927	41543.8375
2066.06582	41534.6375
2069.08042	41512.3375
2072.09307	41437.5375
2075.10378	41376.9375
2078.11255	41388.4375
2081.11938	41385.0375
2084.12426	41305.2375
2087.12722	41321.4375
2090.12824	41274.7375
2093.12732	41370.5375
2096.12447	41338.1375
2099.11969	41305.0375
2102.11299	41328.0375
2105.10435	41368.1375
2108.09379	41410.0375
2111.08131	41471.9375
2114.0669	41404.8375
2117.05057	41427.7375
2120.03233	41466.2375
2123.01216	41510.7375
2125.99008	41601.6375
2128.96609	41560.4375
2131.94018	41689.2375
2134.91236	41716.1375
2137.88263	41817.4375
2140.851	41793.9375
2143.81746	41822.9375
2146.78201	41782.2375
2149.74466	41811.4375
2152.7054	41882.1375
2155.66425	41812.6375
2158.6212	41834.1375
2161.57625	41818.7375
2164.52941	41808.5375
2167.48067	41806.3375
2170.43004	41723.5375
2173.37752	41780.1375
2176.32311	41771.4375
2179.26681	41833.2375
2182.20863	41813.2375
2185.14856	41865.8375
2188.08661	41813.9375
2191.02278	41797.0375
2193.95707	41769.7375
2196.88948	41681.8375
2199.82001	41650.3375
2202.74867	41602.6375
2205.67545	41555.8375
2208.60037	41511.5375
2211.52341	41452.5375
2214.44458	41407.7375
2217.36388	41410.1375
2220.28132	41309.4375
2223.1969	41217.1375
2226.11061	41126.6375
2229.02246	41002.7375
2231.93245	41018.6375
2234.84058	40977.2375
2237.74686	40955.6375
2240.65128	40908.7375
2243.55385	40849.4375
2246.45456	40813.8375
2249.35343	40709.7375
2252.25044	40635.9375
2255.14561	40552.0375
2258.03893	40557.2375
2260.93041	40496.8375
2263.82004	40411.2375
2266.70783	40261.7375
2269.59378	40145.0375
2272.4779	40095.6375
2275.36017	40096.0375
2278.24061	40047.6375
2281.11922	39880.8375
2283.996	39818.1375
2286.87094	39842.4375
2289.74405	39771.6375
2292.61534	39693.6375
2295.4848	39645.9375
2298.35243	39658.9375
2301.21824	39651.1375
2304.08223	39601.6375
2306.94439	39515.5375
2309.80474	39574.3375
2312.66327	39523.3375
2315.51999	39420.5375
2318.37489	39396.7375
2321.22797	39357.8375
2324.07925	39358.2375
2326.92871	39238.6375
2329.77637	39139.1375
2332.62222	39123.7375
2335.46626	39086.5375
2338.3085	39092.9375
2341.14893	39026.9375
2343.98756	38990.4375
2346.8244	38993.7375
2349.65943	39047.7375
2352.49267	38965.8375
2355.32411	38934.9375
2358.15376	38939.9375
2360.98161	38971.3375
2363.80768	38926.6375
2366.63195	38870.1375
2369.45444	38882.8375
2372.27514	38819.8375
2375.09405	38817.5375
2377.91118	38713.2375
2380.72652	38610.6375
2383.54009	38559.7375
2386.35187	38489.3375
2389.16188	38351.3375
2391.97011	38324.0375
2394.77657	38261.0375
2397.58125	38231.6375
2400.38416	38163.1375
2403.18529	38089.5375
2405.98466	38105.7375
2408.78226	38039.5375
2411.57809	38022.4375
2414.37216	37939.3375
2417.16446	37932.9375
2419.955	37899.0375
2422.74378	37895.2375
2425.5308	37842.9375
2428.31606	37863.6375
2431.09956	37844.6375
2433.88131	37811.1375
2436.6613	37871.4375
2439.43954	37817.5375
2442.21603	37698.8375
2444.99077	37679.3375
2447.76377	37694.7375
2450.53501	37655.8375
2453.30451	37673.1375
2456.07226	37590.6375
2458.83827	37539.1375
2461.60254	37561.1375
2464.36507	37503.3375
2467.12586	37503.3375
2469.88492	37473.6375
2472.64224	37498.9375
2475.39782	37516.9375
2478.15167	37478.5375
2480.90379	37406.8375
2483.65417	37465.4375
2486.40283	37440.9375
2489.14976	37417.9375
2491.89497	37382.3375
2494.63845	37371.0375
2497.3802	37304.6375
2500.12024	37390.2375
2502.85855	37367.5375
2505.59514	37270.2375
2508.33002	37226.1375
2511.06318	37206.1375
2513.79462	37205.3375
2516.52435	37193.8375
2519.25237	37184.9375
2521.97867	37106.7375
2524.70327	37087.9375
2527.42616	37039.9375
2530.14734	37026.8375
2532.86681	36946.4375
2535.58458	36932.9375
2538.30065	36920.9375
2541.01501	36951.2375
2543.72768	36936.4375
2546.43864	36879.4375
2549.14791	36770.2375
2551.85548	36748.4375
2554.56136	36661.2375
2557.26554	36574.9375
2559.96803	36566.0375
2562.66883	36516.2375
2565.36794	36466.5375
2568.06536	36452.0375
2570.7611	36368.4375
2573.45514	36269.9375
2576.14751	36249.6375
2578.83819	36227.4375
2581.52719	36194.7375
2584.21451	36124.9375
2586.90015	36056.7375
2589.58411	36010.5375
2592.2664	36032.8375
2594.94701	35963.2375
2597.62594	35923.1375
2600.30321	35905.0375
2602.9788	35921.6375
2605.65273	35837.4375
2608.32498	35896.5375
2610.99557	35815.6375
2613.66449	35867.5375
2616.33175	35753.5375
2618.99734	35703.8375
2621.66128	35607.2375
2624.32355	35612.2375
2626.98416	35538.1375
2629.64311	35457.4375
2632.30041	35426.5375
2634.95605	35379.0375
2637.61004	35426.6375
2640.26238	35395.7375
2642.91306	35369.6375
2645.56209	35290.7375
2648.20948	35346.1375
2650.85521	35340.2375
2653.4993	35350.5375
2656.14175	35335.7375
2658.78255	35420.2375
2661.42171	35376.2375
2664.05923	35417.9375
2666.6951	35442.2375
2669.32934	35396.5375
2671.96194	35431.9375
2674.59291	35428.2375
2677.22224	35411.8375
2679.84993	35478.3375
2682.476	35374.6375
2685.10043	35368.5375
2687.72324	35357.0375
2690.34441	35393.2375
2692.96396	35332.0375
2695.58188	35426.5375
2698.19818	35391.4375
2700.81285	35352.4375
2703.4259	35330.6375
2706.03733	35383.4375
2708.64714	35383.1375
2711.25533	35384.7375
2713.86191	35370.2375
2716.46687	35434.9375
2719.07021	35426.6375
2721.67194	35416.3375
2724.27206	35428.3375
2726.87057	35410.3375
2729.46747	35461.8375
2732.06276	35448.1375
2734.65644	35445.4375
2737.24852	35440.8375
2739.83899	35406.4375
2742.42786	35405.3375
2745.01513	35420.5375
2747.60079	35326.3375
2750.18486	35321.4375
2752.76733	35311.0375
2755.3482	35265.3375
2757.92747	35191.8375
2760.50515	35132.5375
2763.08123	35132.9375
2765.65573	35096.6375
2768.22863	35110.2375
2770.79994	34999.7375
2773.36967	35039.8375
2775.9378	35017.6375
2778.50435	35062.2375
2781.06932	34936.1375
2783.6327	34943.8375
2786.1945	34939.3375
2788.75471	34822.5375
2791.31335	34735.2375
2793.87041	34703.6375
2796.42589	34634.4375
2798.97979	34632.3375
2801.53212	34462.5375
2804.08288	34437.4375
2806.63206	34402.9375
2809.17967	34356.8375
2811.72571	34221.3375
2814.27018	34086.8375
2816.81308	33964.1375
2819.35442	33924.9375
2821.89419	33930.4375
2824.43239	33887.4375
2826.96904	33850.8375
2829.50412	33869.8375
2832.03763	33757.4375
2834.56959	33731.5375
2837.1	33687.7375
2839.62884	33660.4375
2842.15613	33572.9375
2844.68186	33590.7375
2847.20604	33576.0375
2849.72867	33534.4375
2852.24974	33521.6375
2854.76927	33444.9375
2857.28724	33399.1375
2859.80367	33383.0375
2862.31855	33351.6375
2864.83189	33285.6375
2867.34368	33178.4375
2869.85393	33226.8375
2872.36264	33131.1375
2874.8698	33084.5375
2877.37543	33020.9375
2879.87952	32991.8375
2882.38207	33051.3375
2884.88308	33018.4375
2887.38256	33057.3375
2889.88051	33024.5375
2892.37692	33033.5375
2894.8718	32991.8375
2897.36515	33053.0375
2899.85698	32975.9375
2902.34727	33072.6375
2904.83604	33011.9375
2907.32328	33058.6375
2909.809	33045.3375
2912.29319	33145.3375
2914.77587	33103.3375
2917.25702	33117.5375
2919.73665	33025.2375
2922.21476	33075.5375
2924.69136	32973.3375
2927.16644	33051.0375
2929.64	32964.2375
2932.11205	32976.9375
2934.58258	32877.1375
2937.05161	32903.6375
2939.51912	32906.2375
2941.98513	32834.4375
2944.44962	32823.3375
2946.91261	32761.7375
2949.37409	32826.4375
2951.83407	32743.8375
2954.29254	32753.0375
2956.74951	32760.0375
2959.20498	32719.9375
2961.65895	32745.3375
2964.11142	32737.4375
2966.56239	32657.6375
2969.01186	32656.2375
2971.45984	32554.7375
2973.90632	32525.8375
2976.35131	32466.5375
2978.7948	32414.1375
2981.23681	32398.9375
2983.67732	32334.3375
2986.11635	32216.3375
2988.55388	32183.1375
2990.98993	32116.8375
2993.4245	32063.9375
2995.85758	31973.1375
2998.28917	31823.5375
3000.71928	31781.5375
3003.14791	31716.5375
3005.57506	31713.5375
3008.00073	31573.4375
3010.42493	31632.1375
3012.84764	31528.7375
3015.26888	31531.4375
3017.68865	31410.2375
3020.10694	31410.3375
3022.52376	31336.4375
3024.9391	31274.0375
3027.35298	31193.7375
3029.76539	31221.7375
3032.17632	31195.8375
3034.5858	31097.3375
3036.9938	31087.0375
3039.40034	31049.0375
3041.80542	31055.4375
3044.20903	30983.4375
3046.61118	30970.0375
3049.01187	30899.6375
3051.4111	30836.8375
3053.80888	30733.6375
3056.20519	30715.5375
3058.60005	30608.7375
3060.99345	30592.5375
3063.3854	30495.9375
3065.7759	30400.5375
3068.16494	30334.8375
3070.55254	30188.3375
3072.93868	30168.2375
3075.32338	30028.1375
3077.70662	30020.0375
3080.08842	29883.2375
3082.46878	29851.1375
3084.84769	29793.8375
3087.22515	29763.9375
3089.60118	29755.2375
3091.97576	29725.4375
3094.3489	29700.8375
3096.72061	29691.4375
3099.09087	29695.0375
3101.4597	29696.7375
3103.82709	29690.7375
3106.19305	29616.9375
3108.55757	29628.0375
3110.92066	29528.2375
3113.28232	29500.9375
3115.64255	29413.1375
3118.00134	29338.0375
3120.35871	29238.2375
3122.71466	29129.3375
3125.06917	29102.6375
3127.42226	29027.5375
3129.77393	29057.5375
3132.12417	28929.9375
3134.47299	28938.3375
3136.82039	28876.3375
3139.16636	28899.6375
3141.51092	28848.0375
3143.85406	28785.3375
3146.19579	28820.0375
3148.53609	28814.1375
3150.87499	28859.5375
3153.21246	28812.9375
3155.54853	28864.5375
3157.88318	28829.9375
3160.21642	28844.5375
3162.54826	28774.5375
3164.87868	28748.4375
3167.2077	28705.3375
3169.5353	28669.7375
3171.86151	28646.4375
3174.18631	28661.7375
3176.5097	28653.3375
3178.83169	28596.9375
3181.15228	28526.3375
3183.47147	28414.7375
3185.78926	28382.5375
3188.10565	28356.0375
3190.42065	28286.5375
3192.73424	28262.5375
3195.04645	28175.3375
3197.35725	28164.0375
3199.66667	28119.8375
3201.97469	28153.4375
3204.28132	28103.0375
3206.58656	28133.3375
3208.8904	28111.0375
3211.19287	28103.0375
3213.49394	28093.8375
3215.79363	28126.2375
3218.09193	28092.8375
3220.38884	28145.2375
3222.68438	28119.5375
3224.97853	27994.5375
3227.2713	27958.1375
3229.56269	27949.6375
3231.8527	27929.5375
3234.14133	27865.1375
3236.42858	27802.8375
3238.71446	27775.9375
3240.99896	27669.2375
3243.28209	27671.0375
3245.56384	27625.7375
3247.84423	27570.0375
3250.12324	27569.0375
3252.40088	27539.7375
3254.67715	27521.8375
3256.95205	27481.0375
3259.22558	27463.0375
3261.49775	27405.5375
3263.76855	27374.3375
3266.03799	27293.1375
3268.30606	27210.0375
3270.57277	27156.9375
3272.83812	27170.9375
3275.10211	27085.7375
3277.36474	27005.3375
3279.62601	27017.5375
3281.88593	26981.2375
3284.14448	26944.9375
3286.40168	26961.2375
3288.65753	26921.4375
3290.91202	26943.4375
3293.16516	26825.4375
3295.41695	26808.3375
3297.66738	26647.5375
3299.91647	26468.7375
3302.16421	26315.9375
3304.4106	26194.6375
3306.65564	25994.4375
3308.89933	25833.7375
3311.14169	25677.2375
3313.38269	25485.9375
3315.62236	25297.8375
3317.86068	25027.3375
3320.09766	24808.2375
3322.3333	24627.2375
3324.5676	24542.7375
3326.80056	24143.7375
3329.03219	24012.9375
3331.26248	6.2375
3333.49143	-0.0625
3335.71905	-0.7625
