Data from AgNPs_FTO_APTES_UA_20uM_CRN_1000uM_R6G_10uM_NaF_0.1M_Addition_RamanShift__31__19-47-55-048.txt Node

Date: Thu Feb 17 19:47:55 GMT 2022
User: TCL
Spectrometer: QEP01345
Trigger mode: 4
Integration Time (sec): 1.000000E1
Scans to average: 7
Electric dark correction enabled: true
Nonlinearity correction enabled: false
Boxcar width: 0
XAxis mode: Raman Shifts
Number of Pixels in Spectrum: 1044
>>>>>Begin Spectral Data<<<<<
46.04893	-0.35714
50.45542	-1.78571
54.85868	0.78571
59.25871	1.07143
63.6555	59.78571
68.04907	59.5
72.43941	65.21429
76.82654	70.64286
81.21044	74.07143
85.59113	75.5
89.96862	80.78571
94.34289	80.78571
98.71396	87.78571
103.08183	83.5
107.4465	91.78571
111.80798	89.07143
116.16626	92.64286
120.52136	96.21429
124.87327	102.92857
129.222	106.64286
133.56755	109.78571
137.90993	126.07143
142.24913	128.64286
146.58517	145.92857
150.91804	174.64286
155.24774	205.5
159.57429	251.35714
163.89768	338.21429
168.21792	447.21429
172.53501	607.92857
176.84895	853.64286
181.15975	1199.07143
185.46741	1687.92857
189.77193	2353.92857
194.07331	3171.64286
198.37157	4124.64286
202.6667	5153.07143
206.9587	6180.92857
211.24758	7231.64286
215.53334	8373.78571
219.81599	9653.21429
224.09553	11202.35714
228.37195	12922.07143
232.64527	14737.07143
236.91549	16543.92857
241.18261	18133.92857
245.44663	19338.21429
249.70755	20276.78571
253.96539	20958.5
258.22014	21375.35714
262.4718	21597.35714
266.72039	21597.35714
270.96589	21278.07143
275.20832	20679.64286
279.44768	19882.5
283.68397	19168.92857
287.91719	18785.78571
292.14735	18958.64286
296.37445	19919.78571
300.59849	21625.21429
304.81948	23739.5
309.03742	25544.07143
313.25231	25863.21429
317.46415	24206.92857
321.67296	21126.78571
325.87872	18510.21429
330.08145	17249.5
334.28114	17120.92857
338.47781	17686.5
342.67145	18591.07143
346.86207	20022.07143
351.04966	22278.78571
355.23424	24901.92857
359.4158	26772.21429
363.59435	27497.5
367.76989	27434.21429
371.94243	27039.07143
376.11196	26582.92857
380.27849	26068.07143
384.44203	25386.92857
388.60257	24449.5
392.76012	23782.78571
396.91468	23718.07143
401.06626	24422.92857
405.21485	24972.07143
409.36047	23981.21429
413.50311	21611.78571
417.64277	19135.07143
421.77947	17627.78571
425.9132	16910.78571
430.04396	16638.78571
434.17176	16700.5
438.2966	17124.35714
442.41849	17771.21429
446.53742	18552.21429
450.6534	19187.5
454.76644	19503.92857
458.87653	19330.64286
462.98368	18939.78571
467.08789	18344.21429
471.18916	17673.07143
475.2875	16884.21429
479.38291	16175.5
483.4754	15674.07143
487.56496	15348.78571
491.6516	15235.21429
495.73531	15190.78571
499.81612	15315.07143
503.89401	15697.92857
507.96899	16275.92857
512.04106	17034.78571
516.11023	17919.78571
520.1765	18565.78571
524.23987	18640.64286
528.30034	18096.78571
532.35792	17447.64286
536.41261	16726.5
540.46441	15969.64286
544.51333	15429.07143
548.55936	15390.07143
552.60252	15822.07143
556.64279	16497.21429
560.6802	16910.07143
564.71473	17550.21429
568.7464	19280.07143
572.7752	20018.92857
576.80114	18349.78571
580.82422	16284.5
584.84444	15314.92857
588.86181	15066.64286
592.87633	15201.64286
596.888	15614.21429
600.89682	16852.21429
604.9028	21252.92857
608.90594	33591.21429
612.90624	51106.35714
616.90371	50031.35714
620.89834	29169.21429
624.89015	18612.21429
628.87913	16665.64286
632.86528	17156.92857
636.84862	17956.92857
640.82913	17459.5
644.80683	15726.21429
648.78172	14439.64286
652.75379	14480.78571
656.72306	15841.5
660.68952	17530.5
664.65319	17020.78571
668.61405	15052.35714
672.57211	14094.78571
676.52738	14100.21429
680.47986	14081.21429
684.42955	13760.5
688.37646	13551.07143
692.32058	13550.07143
696.26192	13769.64286
700.20048	14163.64286
704.13626	14385.21429
708.06928	14165.5
711.99952	13942.07143
715.927	13875.92857
719.85171	14121.5
723.77365	14318.35714
727.69284	14166.92857
731.60928	13958.5
735.52295	13886.5
739.43388	13917.78571
743.34206	13999.35714
747.24749	13973.21429
751.15017	14014.64286
755.05012	14423.78571
758.94733	15944.64286
762.8418	19921.78571
766.73354	26440.07143
770.62254	32988.5
774.50882	37148.64286
778.39237	36409.21429
782.27321	29495.07143
786.15132	21634.07143
790.02671	17098.5
793.89938	15133.35714
797.76935	14338.64286
801.6366	14011.92857
805.50115	13898.07143
809.36299	13811.21429
813.22213	13734.92857
817.07857	13642.5
820.93231	13578.35714
824.78336	13639.21429
828.63172	13767.5
832.47738	13828.35714
836.32036	13648.64286
840.16066	13425.07143
843.99827	13243.64286
847.8332	13171.21429
851.66546	13173.07143
855.49504	13181.92857
859.32195	13158.92857
863.1462	13062.92857
866.96777	12992.07143
870.78668	12958.64286
874.60293	13085.64286
878.41652	13249.78571
882.22745	13468.07143
886.03573	13647.64286
889.84136	13626.5
893.64433	13497.92857
897.44466	13454.64286
901.24235	13457.07143
905.0374	13315.78571
908.8298	13069.92857
912.61957	12830.21429
916.40671	12754.78571
920.19121	12806.5
923.97308	13039.5
927.75233	13512.64286
931.52895	14068.07143
935.30295	13937.5
939.07433	13112.35714
942.84309	12340.5
946.60924	11903.92857
950.37278	11676.78571
954.13371	11608.07143
957.89203	11577.64286
961.64774	11520.64286
965.40086	11506.92857
969.15137	11466.07143
972.89929	11437.92857
976.64461	11429.64286
980.38733	11424.64286
984.12747	11458.5
987.86502	11519.64286
991.59999	11575.07143
995.33237	11736.78571
999.06217	12018.92857
1002.78939	12399.78571
1006.51404	12839.64286
1010.23611	13290.64286
1013.95561	13518.78571
1017.67255	13485.21429
1021.38692	13209.64286
1025.09872	12890.07143
1028.80796	12605.5
1032.51465	12547.5
1036.21877	12682.07143
1039.92035	12864.07143
1043.61937	13047.35714
1047.31584	13117.78571
1051.00976	13093.21429
1054.70114	12992.78571
1058.38998	12884.64286
1062.07627	12870.35714
1065.76003	12876.07143
1069.44126	12916.5
1073.11995	13105.35714
1076.79611	13588.5
1080.46974	14394.35714
1084.14085	15487.5
1087.80943	16424.92857
1091.47549	16638.78571
1095.13903	15963.92857
1098.80005	14839.64286
1102.45857	14108.64286
1106.11456	14047.78571
1109.76805	14522.21429
1113.41903	15554.92857
1117.06751	17120.07143
1120.71348	19210.5
1124.35696	21478.92857
1127.99793	22853.35714
1131.63641	21794.64286
1135.2724	19274.64286
1138.90589	17153.07143
1142.5369	15839.78571
1146.16542	14989.78571
1149.79145	14476.35714
1153.415	14309.35714
1157.03607	14412.92857
1160.65467	14869.92857
1164.27079	15681.64286
1167.88443	17155.64286
1171.49561	19497.21429
1175.10432	23603.5
1178.71056	29384.35714
1182.31434	33935.5
1185.91565	34768.78571
1189.51451	32603.21429
1193.11091	29047.07143
1196.70485	25516.92857
1200.29634	23316.92857
1203.88538	21571.92857
1207.47197	19229.5
1211.05612	17094.21429
1214.63782	15760.5
1218.21708	15188.78571
1221.79391	14916.07143
1225.36829	14873.78571
1228.94024	14802.07143
1232.50976	14784.64286
1236.07685	14912.92857
1239.6415	15178.21429
1243.20374	15445.92857
1246.76355	15627.78571
1250.32093	15879.64286
1253.8759	16369.21429
1257.42845	17217.21429
1260.97859	18198.35714
1264.52631	19282.07143
1268.07163	20366.5
1271.61453	21045.35714
1275.15503	21254.64286
1278.69312	21153.5
1282.22882	21225.35714
1285.76211	21948.07143
1289.29301	23258.92857
1292.82151	24533.92857
1296.34761	26013.64286
1299.87133	28446.78571
1303.39266	32946.64286
1306.9116	40013.21429
1310.42815	47005.92857
1313.94233	48939.21429
1317.45412	44237.92857
1320.96354	37271.35714
1324.47058	30910.21429
1327.97525	26218.21429
1331.47754	23694.35714
1334.97747	23020.35714
1338.47502	23859.5
1341.97022	26094.64286
1345.46305	29692.78571
1348.95352	34439.64286
1352.44163	40436.07143
1355.92738	48995.92857
1359.41078	61014.35714
1362.89183	69262.21429
1366.37053	63452.21429
1369.84688	49552.5
1373.32088	37861.21429
1376.79254	30374.64286
1380.26186	26084.21429
1383.72883	23346.78571
1387.19347	21264.5
1390.65578	19352.21429
1394.11575	17965.78571
1397.57339	17204.07143
1401.0287	16961.21429
1404.48168	16947.92857
1407.93234	17092.78571
1411.38068	17441.21429
1414.82669	17863.92857
1418.27039	18112.64286
1421.71177	18037.5
1425.15083	17787.92857
1428.58758	17855.35714
1432.02203	18206.35714
1435.45416	18399.35714
1438.88399	18345.35714
1442.31151	18194.21429
1445.73673	18233.5
1449.15965	18357.5
1452.58027	18113.64286
1455.9986	17717.07143
1459.41463	17617.07143
1462.82837	17938.35714
1466.23982	18679.07143
1469.64898	19266.5
1473.05586	19684.92857
1476.46045	19971.35714
1479.86276	20601.64286
1483.26279	21516.78571
1486.66054	22832.21429
1490.05602	24591.35714
1493.44922	27223.07143
1496.84016	31371.35714
1500.22882	38149.21429
1503.61521	47741.07143
1506.99934	58552.92857
1510.38121	66935.07143
1513.76081	67657.5
1517.13816	59470.92857
1520.51324	46915.07143
1523.88607	36045.35714
1527.25665	29327.92857
1530.62498	25704.92857
1533.99105	23631.21429
1537.35488	22486.64286
1540.71647	22015.92857
1544.07581	22133.5
1547.4329	22523.5
1550.78776	22919.78571
1554.14038	23238.5
1557.49077	23573.92857
1560.83892	24301.35714
1564.18484	25769.92857
1567.52853	27788.21429
1570.86999	29451.07143
1574.20922	30197.64286
1577.54624	29512.64286
1580.88103	26564.64286
1584.2136	22666.21429
1587.54395	20255.5
1590.87208	19852.64286
1594.19801	21165.64286
1597.52172	23294.92857
1600.84321	24226.92857
1604.16251	23250.21429
1607.47959	21554.92857
1610.79447	19630.35714
1614.10715	17709.78571
1617.41763	16234.5
1620.7259	15353.64286
1624.03199	15039.92857
1627.33587	15155.5
1630.63757	15744.78571
1633.93707	16877.21429
1637.23439	18849.07143
1640.52951	22262.5
1643.82246	27810.78571
1647.11321	34870.5
1650.40179	39726.21429
1653.68819	38072.92857
1656.97241	30852.21429
1660.25446	23433.21429
1663.53433	18552.64286
1666.81203	15842.64286
1670.08756	14272.21429
1673.36092	13333.64286
1676.63211	12714.64286
1679.90115	12250.07143
1683.16801	11918.78571
1686.43272	11669.92857
1689.69527	11507.78571
1692.95567	11360.35714
1696.2139	11278.92857
1699.46999	11242.64286
1702.72392	11208.07143
1705.97571	11198.21429
1709.22535	11182.92857
1712.47284	11193.78571
1715.71819	11207.78571
1718.96139	11163.07143
1722.20246	11099.35714
1725.44139	10982.64286
1728.67818	10834.78571
1731.91284	10659.21429
1735.14537	10559.5
1738.37576	10500.92857
1741.60403	10427.07143
1744.83017	10369.35714
1748.05418	10319.21429
1751.27607	10253.5
1754.49584	10188.64286
1757.71349	10186.64286
1760.92903	10104.64286
1764.14244	10045.21429
1767.35375	10029.92857
1770.56294	9949.07143
1773.77002	9901.35714
1776.97499	9801.21429
1780.17785	9776.92857
1783.37861	9695.78571
1786.57727	9662.64286
1789.77382	9674.21429
1792.96828	9627.5
1796.16064	9599.07143
1799.3509	9578.78571
1802.53907	9531.07143
1805.72514	9499.5
1808.90913	9429.64286
1812.09102	9450.64286
1815.27083	9395.5
1818.44856	9341.07143
1821.6242	9328.64286
1824.79776	9304.78571
1827.96924	9284.78571
1831.13864	9246.35714
1834.30597	9217.35714
1837.47122	9208.64286
1840.6344	9189.64286
1843.7955	9160.64286
1846.95454	9148.07143
1850.11151	9129.92857
1853.26642	9123.78571
1856.41926	9096.92857
1859.57004	9099.21429
1862.71876	9122.78571
1865.86542	9116.78571
1869.01003	9136.64286
1872.15258	9160.35714
1875.29308	9130.07143
1878.43152	9125.78571
1881.56792	9095.78571
1884.70227	9094.21429
1887.83457	9098.35714
1890.96482	9085.35714
1894.09304	9075.21429
1897.21921	9070.35714
1900.34335	9070.21429
1903.46544	9056.78571
1906.58551	9047.92857
1909.70353	9037.78571
1912.81953	9031.21429
1915.93349	9038.21429
1919.04543	8980.92857
1922.15534	8987.64286
1925.26322	8966.35714
1928.36908	8939.21429
1931.47292	8896.07143
1934.57473	8853.92857
1937.67453	8838.64286
1940.77232	8743.92857
1943.86808	8744.07143
1946.96184	8704.78571
1950.05358	8676.92857
1953.14331	8675.92857
1956.23103	8656.35714
1959.31675	8623.21429
1962.40046	8622.5
1965.48217	8643.07143
1968.56188	8617.92857
1971.63959	8601.07143
1974.7153	8607.64286
1977.78901	8574.5
1980.86073	8517.92857
1983.93046	8474.64286
1986.99819	8407.92857
1990.06394	8363.92857
1993.1277	8336.5
1996.18947	8303.5
1999.24925	8274.64286
2002.30706	8221.35714
2005.36288	8194.64286
2008.41672	8167.07143
2011.46859	8131.78571
2014.51848	8101.92857
2017.56639	8107.92857
2020.61233	8054.78571
2023.6563	8019.64286
2026.6983	8002.5
2029.73833	7984.35714
2032.7764	7975.5
2035.8125	7953.35714
2038.84664	7945.92857
2041.87881	7948.78571
2044.90903	7903.07143
2047.93729	7886.35714
2050.96359	7906.78571
2053.98794	7902.21429
2057.01034	7855.64286
2060.03078	7870.78571
2063.04927	7815.78571
2066.06582	7814.78571
2069.08042	7817.21429
2072.09307	7782.92857
2075.10378	7811.21429
2078.11255	7796.64286
2081.11938	7798.92857
2084.12426	7815.35714
2087.12722	7798.78571
2090.12824	7790.21429
2093.12732	7774.92857
2096.12447	7779.64286
2099.11969	7782.07143
2102.11299	7789.78571
2105.10435	7788.35714
2108.09379	7803.35714
2111.08131	7810.35714
2114.0669	7810.35714
2117.05057	7838.64286
2120.03233	7852.92857
2123.01216	7885.35714
2125.99008	7901.35714
2128.96609	7939.78571
2131.94018	7915.21429
2134.91236	7913.07143
2137.88263	7865.64286
2140.851	7858.07143
2143.81746	7864.78571
2146.78201	7846.07143
2149.74466	7840.21429
2152.7054	7851.35714
2155.66425	7821.64286
2158.6212	7817.35714
2161.57625	7794.07143
2164.52941	7764.5
2167.48067	7781.64286
2170.43004	7794.35714
2173.37752	7806.21429
2176.32311	7795.5
2179.26681	7782.07143
2182.20863	7783.35714
2185.14856	7803.78571
2188.08661	7791.35714
2191.02278	7774.92857
2193.95707	7726.64286
2196.88948	7737.64286
2199.82001	7707.07143
2202.74867	7729.07143
2205.67545	7735.5
2208.60037	7742.21429
2211.52341	7728.21429
2214.44458	7724.92857
2217.36388	7691.07143
2220.28132	7673.35714
2223.1969	7647.07143
2226.11061	7613.92857
2229.02246	7600.92857
2231.93245	7581.5
2234.84058	7556.35714
2237.74686	7567.07143
2240.65128	7550.92857
2243.55385	7564.21429
2246.45456	7562.21429
2249.35343	7558.35714
2252.25044	7583.07143
2255.14561	7581.92857
2258.03893	7613.07143
2260.93041	7634.78571
2263.82004	7656.5
2266.70783	7611.92857
2269.59378	7590.21429
2272.4779	7555.78571
2275.36017	7549.07143
2278.24061	7551.21429
2281.11922	7516.78571
2283.996	7511.64286
2286.87094	7477.5
2289.74405	7445.64286
2292.61534	7425.21429
2295.4848	7398.5
2298.35243	7389.07143
2301.21824	7396.35714
2304.08223	7365.5
2306.94439	7359.5
2309.80474	7347.64286
2312.66327	7369.35714
2315.51999	7352.5
2318.37489	7356.92857
2321.22797	7326.35714
2324.07925	7321.5
2326.92871	7310.78571
2329.77637	7313.21429
2332.62222	7278.92857
2335.46626	7312.21429
2338.3085	7294.64286
2341.14893	7292.64286
2343.98756	7330.35714
2346.8244	7335.78571
2349.65943	7340.35714
2352.49267	7363.35714
2355.32411	7397.21429
2358.15376	7414.92857
2360.98161	7437.92857
2363.80768	7483.35714
2366.63195	7511.5
2369.45444	7505.78571
2372.27514	7522.5
2375.09405	7500.92857
2377.91118	7504.92857
2380.72652	7449.07143
2383.54009	7416.21429
2386.35187	7358.78571
2389.16188	7285.78571
2391.97011	7261.64286
2394.77657	7224.92857
2397.58125	7203.64286
2400.38416	7181.35714
2403.18529	7152.35714
2405.98466	7135.64286
2408.78226	7095.21429
2411.57809	7105.64286
2414.37216	7102.78571
2417.16446	7095.21429
2419.955	7093.5
2422.74378	7094.92857
2425.5308	7080.35714
2428.31606	7116.21429
2431.09956	7081.92857
2433.88131	7114.35714
2436.6613	7108.35714
2439.43954	7130.64286
2442.21603	7140.78571
2444.99077	7156.64286
2447.76377	7172.64286
2450.53501	7161.92857
2453.30451	7208.5
2456.07226	7167.5
2458.83827	7178.5
2461.60254	7149.07143
2464.36507	7160.78571
2467.12586	7112.5
2469.88492	7151.21429
2472.64224	7146.78571
2475.39782	7175.35714
2478.15167	7193.64286
2480.90379	7258.64286
2483.65417	7254.92857
2486.40283	7289.21429
2489.14976	7336.64286
2491.89497	7352.5
2494.63845	7369.64286
2497.3802	7346.64286
2500.12024	7321.64286
2502.85855	7298.92857
2505.59514	7222.92857
2508.33002	7171.5
2511.06318	7119.21429
2513.79462	7084.78571
2516.52435	7047.35714
2519.25237	7003.64286
2521.97867	6927.5
2524.70327	6953.5
2527.42616	6925.64286
2530.14734	6904.21429
2532.86681	6894.21429
2535.58458	6885.07143
2538.30065	6904.78571
2541.01501	6894.64286
2543.72768	6919.92857
2546.43864	6912.64286
2549.14791	6924.07143
2551.85548	6929.35714
2554.56136	6922.21429
2557.26554	6930.07143
2559.96803	6902.78571
2562.66883	6913.78571
2565.36794	6891.07143
2568.06536	6905.64286
2570.7611	6871.21429
2573.45514	6860.78571
2576.14751	6839.92857
2578.83819	6819.35714
2581.52719	6814.5
2584.21451	6781.92857
2586.90015	6789.21429
2589.58411	6767.78571
2592.2664	6766.78571
2594.94701	6758.78571
2597.62594	6761.78571
2600.30321	6729.64286
2602.9788	6749.92857
2605.65273	6726.35714
2608.32498	6733.21429
2610.99557	6745.78571
2613.66449	6748.07143
2616.33175	6764.64286
2618.99734	6768.35714
2621.66128	6726.92857
2624.32355	6741.07143
2626.98416	6716.07143
2629.64311	6700.35714
2632.30041	6668.21429
2634.95605	6622.5
2637.61004	6616.35714
2640.26238	6627.35714
2642.91306	6636.21429
2645.56209	6627.21429
2648.20948	6609.07143
2650.85521	6614.5
2653.4993	6608.78571
2656.14175	6621.64286
2658.78255	6632.35714
2661.42171	6666.92857
2664.05923	6689.21429
2666.6951	6684.92857
2669.32934	6725.35714
2671.96194	6712.21429
2674.59291	6706.78571
2677.22224	6712.64286
2679.84993	6718.21429
2682.476	6705.35714
2685.10043	6722.35714
2687.72324	6707.5
2690.34441	6715.64286
2692.96396	6711.78571
2695.58188	6738.78571
2698.19818	6725.21429
2700.81285	6739.35714
2703.4259	6743.92857
2706.03733	6754.35714
2708.64714	6741.5
2711.25533	6748.78571
2713.86191	6753.64286
2716.46687	6761.21429
2719.07021	6781.5
2721.67194	6777.21429
2724.27206	6782.21429
2726.87057	6800.21429
2729.46747	6765.64286
2732.06276	6768.78571
2734.65644	6744.07143
2737.24852	6717.35714
2739.83899	6694.92857
2742.42786	6710.07143
2745.01513	6679.78571
2747.60079	6660.21429
2750.18486	6659.21429
2752.76733	6656.92857
2755.3482	6649.5
2757.92747	6631.78571
2760.50515	6642.78571
2763.08123	6645.21429
2765.65573	6632.21429
2768.22863	6613.35714
2770.79994	6594.78571
2773.36967	6584.78571
2775.9378	6618.5
2778.50435	6609.5
2781.06932	6621.07143
2783.6327	6634.35714
2786.1945	6631.78571
2788.75471	6622.78571
2791.31335	6615.78571
2793.87041	6623.35714
2796.42589	6624.64286
2798.97979	6667.21429
2801.53212	6646.78571
2804.08288	6648.92857
2806.63206	6687.64286
2809.17967	6694.35714
2811.72571	6680.92857
2814.27018	6702.78571
2816.81308	6705.07143
2819.35442	6706.35714
2821.89419	6727.92857
2824.43239	6775.5
2826.96904	6783.78571
2829.50412	6783.35714
2832.03763	6766.35714
2834.56959	6789.5
2837.1	6796.5
2839.62884	6791.78571
2842.15613	6787.5
2844.68186	6829.92857
2847.20604	6835.78571
2849.72867	6859.78571
2852.24974	6881.92857
2854.76927	6891.5
2857.28724	6885.07143
2859.80367	6934.07143
2862.31855	6922.35714
2864.83189	6909.78571
2867.34368	6930.21429
2869.85393	6964.5
2872.36264	6955.92857
2874.8698	6962.92857
2877.37543	6929.92857
2879.87952	6944.92857
2882.38207	6914.07143
2884.88308	6876.35714
2887.38256	6887.92857
2889.88051	6877.35714
2892.37692	6863.5
2894.8718	6862.92857
2897.36515	6860.64286
2899.85698	6851.64286
2902.34727	6877.5
2904.83604	6858.07143
2907.32328	6864.92857
2909.809	6862.07143
2912.29319	6864.21429
2914.77587	6875.78571
2917.25702	6860.64286
2919.73665	6819.35714
2922.21476	6813.92857
2924.69136	6811.35714
2927.16644	6793.21429
2929.64	6765.07143
2932.11205	6772.35714
2934.58258	6734.92857
2937.05161	6726.64286
2939.51912	6688.35714
2941.98513	6693.64286
2944.44962	6674.78571
2946.91261	6642.07143
2949.37409	6621.21429
2951.83407	6607.78571
2954.29254	6600.35714
2956.74951	6592.21429
2959.20498	6586.5
2961.65895	6554.64286
2964.11142	6546.21429
2966.56239	6527.5
2969.01186	6538.92857
2971.45984	6493.21429
2973.90632	6474.64286
2976.35131	6455.92857
2978.7948	6468.92857
2981.23681	6444.21429
2983.67732	6443.07143
2986.11635	6414.78571
2988.55388	6408.35714
2990.98993	6378.07143
2993.4245	6366.35714
2995.85758	6373.07143
2998.28917	6378.07143
3000.71928	6366.35714
3003.14791	6368.21429
3005.57506	6356.07143
3008.00073	6370.5
3010.42493	6354.92857
3012.84764	6353.64286
3015.26888	6338.78571
3017.68865	6357.92857
3020.10694	6329.64286
3022.52376	6312.07143
3024.9391	6299.64286
3027.35298	6290.21429
3029.76539	6284.5
3032.17632	6246.35714
3034.5858	6242.21429
3036.9938	6234.5
3039.40034	6227.35714
3041.80542	6198.78571
3044.20903	6178.64286
3046.61118	6172.21429
3049.01187	6149.07143
3051.4111	6163.92857
3053.80888	6156.21429
3056.20519	6117.21429
3058.60005	6098.5
3060.99345	6100.21429
3063.3854	6093.35714
3065.7759	6064.64286
3068.16494	6041.64286
3070.55254	6021.92857
3072.93868	6014.07143
3075.32338	5992.35714
3077.70662	6007.92857
3080.08842	5971.07143
3082.46878	5951.07143
3084.84769	5950.21429
3087.22515	5940.5
3089.60118	5938.21429
3091.97576	5951.07143
3094.3489	5934.64286
3096.72061	5953.5
3099.09087	5946.92857
3101.4597	5930.35714
3103.82709	5928.07143
3106.19305	5935.64286
3108.55757	5927.92857
3110.92066	5914.5
3113.28232	5902.35714
3115.64255	5893.64286
3118.00134	5923.5
3120.35871	5905.78571
3122.71466	5870.78571
3125.06917	5871.35714
3127.42226	5889.35714
3129.77393	5903.64286
3132.12417	5896.78571
3134.47299	5893.07143
3136.82039	5891.07143
3139.16636	5907.21429
3141.51092	5920.35714
3143.85406	5923.21429
3146.19579	5946.35714
3148.53609	5934.21429
3150.87499	5983.35714
3153.21246	5988.21429
3155.54853	6002.07143
3157.88318	6001.64286
3160.21642	6029.21429
3162.54826	6003.21429
3164.87868	6006.21429
3167.2077	6006.64286
3169.5353	6020.78571
3171.86151	6011.5
3174.18631	6018.07143
3176.5097	6024.92857
3178.83169	6016.35714
3181.15228	6020.92857
3183.47147	6001.35714
3185.78926	6013.35714
3188.10565	6010.5
3190.42065	6002.07143
3192.73424	6059.78571
3195.04645	6040.5
3197.35725	6058.5
3199.66667	6053.92857
3201.97469	6056.35714
3204.28132	6064.64286
3206.58656	6109.5
3208.8904	6167.92857
3211.19287	6146.35714
3213.49394	6148.78571
3215.79363	6156.92857
3218.09193	6158.92857
3220.38884	6147.78571
3222.68438	6155.07143
3224.97853	6192.92857
3227.2713	6161.35714
3229.56269	6140.78571
3231.8527	6159.21429
3234.14133	6136.07143
3236.42858	6127.64286
3238.71446	6128.21429
3240.99896	6149.64286
3243.28209	6104.5
3245.56384	6095.78571
3247.84423	6096.21429
3250.12324	6112.21429
3252.40088	6090.64286
3254.67715	6076.35714
3256.95205	6091.07143
3259.22558	6080.35714
3261.49775	6067.21429
3263.76855	6087.78571
3266.03799	6057.92857
3268.30606	6067.07143
3270.57277	6050.21429
3272.83812	6014.64286
3275.10211	6029.07143
3277.36474	6029.5
3279.62601	6020.64286
3281.88593	6029.07143
3284.14448	6018.64286
3286.40168	6020.5
3288.65753	6036.64286
3290.91202	6009.5
3293.16516	6022.92857
3295.41695	6003.07143
3297.66738	5986.21429
3299.91647	5950.07143
3302.16421	5886.35714
3304.4106	5865.92857
3306.65564	5852.21429
3308.89933	5802.92857
3311.14169	5766.21429
3313.38269	5709.64286
3315.62236	5679.64286
3317.86068	5641.07143
3320.09766	5572.78571
3322.3333	5543.92857
3324.5676	5516.07143
3326.80056	5434.78571
3329.03219	5397.07143
3331.26248	0.35714
3333.49143	-0.35714
3335.71905	-1.07143
