Data from AgNPs_FTO_APTES_UA_20uM_CRN_1uM_R6G_10uM_NaF_0.1M_Addition_RamanShift__5__12-07-52-019.txt Node

Date: Thu Feb 17 12:07:52 GMT 2022
User: TCL
Spectrometer: QEP01345
Trigger mode: 4
Integration Time (sec): 7.000000E0
Scans to average: 10
Electric dark correction enabled: true
Nonlinearity correction enabled: false
Boxcar width: 0
XAxis mode: Raman Shifts
Number of Pixels in Spectrum: 1044
>>>>>Begin Spectral Data<<<<<
46.04893	-0.075
50.45542	-1.875
54.85868	-2.875
59.25871	-0.475
63.6555	104.425
68.04907	107.525
72.43941	114.325
76.82654	114.925
81.21044	120.725
85.59113	125.525
89.96862	125.225
94.34289	126.825
98.71396	132.825
103.08183	138.225
107.4465	142.925
111.80798	139.825
116.16626	152.825
120.52136	158.125
124.87327	161.425
129.222	174.425
133.56755	190.225
137.90993	201.025
142.24913	215.525
146.58517	251.425
150.91804	297.425
155.24774	352.025
159.57429	448.625
163.89768	575.325
168.21792	772.025
172.53501	1058.425
176.84895	1485.725
181.15975	2102.425
185.46741	2956.425
189.77193	4085.525
194.07331	5463.725
198.37157	7033.125
202.6667	8686.125
206.9587	10320.225
211.24758	11968.125
215.53334	13589.425
219.81599	15306.125
224.09553	17191.425
228.37195	19363.425
232.64527	21675.525
236.91549	24047.625
241.18261	26528.325
245.44663	28786.325
249.70755	30810.825
253.96539	32605.325
258.22014	34058.225
262.4718	35248.925
266.72039	36114.225
270.96589	36586.925
275.20832	36561.725
279.44768	36278.825
283.68397	35864.825
287.91719	35483.125
292.14735	35280.825
296.37445	35223.625
300.59849	35334.925
304.81948	35509.425
309.03742	35732.825
313.25231	35715.725
317.46415	35472.325
321.67296	35027.525
325.87872	34589.225
330.08145	34420.325
334.28114	34402.325
338.47781	34649.725
342.67145	35079.325
346.86207	35684.125
351.04966	36353.525
355.23424	37015.725
359.4158	37577.225
363.59435	37927.725
367.76989	38168.825
371.94243	38420.825
376.11196	38674.225
380.27849	38858.025
384.44203	39123.725
388.60257	39434.225
392.76012	39838.025
396.91468	40284.125
401.06626	40771.425
405.21485	41134.425
409.36047	41067.625
413.50311	40838.325
417.64277	40740.725
421.77947	40895.525
425.9132	41174.925
430.04396	41478.825
434.17176	41694.325
438.2966	42114.825
442.41849	42926.225
446.53742	44322.825
450.6534	45832.325
454.76644	46816.825
458.87653	46930.425
462.98368	46385.425
467.08789	45528.525
471.18916	44508.825
475.2875	43571.325
479.38291	42981.825
483.4754	42531.725
487.56496	42139.525
491.6516	41772.725
495.73531	41432.525
499.81612	41248.425
503.89401	41486.725
507.96899	41645.225
512.04106	41601.125
516.11023	41378.825
520.1765	41127.125
524.23987	41025.825
528.30034	40921.725
532.35792	40789.225
536.41261	40345.725
540.46441	39881.225
544.51333	39748.825
548.55936	40041.025
552.60252	40822.325
556.64279	41927.925
560.6802	42841.325
564.71473	43219.125
568.7464	43808.025
572.7752	44987.125
576.80114	46349.625
580.82422	47822.925
584.84444	49837.425
588.86181	52820.425
592.87633	55672.825
596.888	55624.525
600.89682	52399.525
604.9028	50607.225
608.90594	52498.725
612.90624	55041.225
616.90371	52037.525
620.89834	45330.025
624.89015	42407.325
628.87913	42016.925
632.86528	42052.825
636.84862	41823.925
640.82913	41098.825
644.80683	40264.825
648.78172	39706.725
652.75379	39799.225
656.72306	40334.525
660.68952	40907.825
664.65319	40708.425
668.61405	40120.525
672.57211	40026.925
676.52738	40301.525
680.47986	40264.125
684.42955	39948.425
688.37646	39850.225
692.32058	40161.825
696.26192	40835.825
700.20048	41552.725
704.13626	41936.225
708.06928	41779.425
711.99952	41558.025
715.927	41621.325
719.85171	41971.025
723.77365	41863.225
727.69284	41304.825
731.60928	40739.125
735.52295	40638.325
739.43388	40687.725
743.34206	40892.825
747.24749	41143.525
751.15017	41567.425
755.05012	42158.125
758.94733	43174.925
762.8418	44881.825
766.73354	47427.625
770.62254	49675.425
774.50882	49887.825
778.39237	48003.925
782.27321	45427.725
786.15132	43270.325
790.02671	41910.325
793.89938	41243.825
797.76935	40993.525
801.6366	40916.425
805.50115	40884.225
809.36299	40750.625
813.22213	40453.325
817.07857	40247.825
820.93231	40089.725
824.78336	39918.525
828.63172	39821.525
832.47738	39791.525
836.32036	39870.825
840.16066	39995.025
843.99827	40154.225
847.8332	40192.625
851.66546	40177.125
855.49504	40201.825
859.32195	40160.225
863.1462	40084.925
866.96777	40035.425
870.78668	40025.925
874.60293	40056.225
878.41652	40111.925
882.22745	40247.625
886.03573	40351.325
889.84136	40370.225
893.64433	40192.225
897.44466	40044.325
901.24235	39914.325
905.0374	39735.525
908.8298	39697.625
912.61957	39798.625
916.40671	40131.725
920.19121	40661.625
923.97308	41130.625
927.75233	41256.225
931.52895	41000.525
935.30295	40376.125
939.07433	39821.825
942.84309	39407.325
946.60924	39398.425
950.37278	39373.325
954.13371	39355.625
957.89203	39263.525
961.64774	39176.925
965.40086	39209.225
969.15137	39170.425
972.89929	39022.925
976.64461	39051.725
980.38733	39088.625
984.12747	39165.425
987.86502	39513.725
991.59999	39882.825
995.33237	40515.725
999.06217	41472.525
1002.78939	42646.225
1006.51404	43763.125
1010.23611	44536.825
1013.95561	45109.625
1017.67255	45227.725
1021.38692	44565.125
1025.09872	43721.225
1028.80796	43339.625
1032.51465	43777.625
1036.21877	44335.925
1039.92035	44542.025
1043.61937	44296.825
1047.31584	43760.725
1051.00976	43088.925
1054.70114	42668.525
1058.38998	42685.925
1062.07627	42843.225
1065.76003	43140.525
1069.44126	43676.025
1073.11995	44319.225
1076.79611	45005.525
1080.46974	45412.025
1084.14085	45828.725
1087.80943	46388.625
1091.47549	46655.525
1095.13903	46619.025
1098.80005	45934.125
1102.45857	45105.025
1106.11456	44539.625
1109.76805	44375.925
1113.41903	44397.325
1117.06751	44666.825
1120.71348	45031.325
1124.35696	45305.225
1127.99793	45606.125
1131.63641	45768.025
1135.2724	45727.725
1138.90589	45655.425
1142.5369	45763.225
1146.16542	46100.825
1149.79145	46470.725
1153.415	46875.025
1157.03607	47452.725
1160.65467	48667.425
1164.27079	50718.125
1167.88443	53297.725
1171.49561	56144.725
1175.10432	59687.925
1178.71056	64201.425
1182.31434	68478.125
1185.91565	70161.025
1189.51451	69048.625
1193.11091	66683.425
1196.70485	64153.525
1200.29634	62068.925
1203.88538	60694.525
1207.47197	60027.925
1211.05612	59434.925
1214.63782	58550.525
1218.21708	57558.425
1221.79391	56748.025
1225.36829	56383.725
1228.94024	55874.225
1232.50976	54777.825
1236.07685	53393.025
1239.6415	52554.325
1243.20374	52293.525
1246.76355	52706.125
1250.32093	53630.425
1253.8759	54738.125
1257.42845	56171.225
1260.97859	57786.925
1264.52631	59446.325
1268.07163	61283.525
1271.61453	63120.025
1275.15503	64839.825
1278.69312	66612.125
1282.22882	68383.425
1285.76211	70598.725
1289.29301	73320.825
1292.82151	76535.425
1296.34761	80448.225
1299.87133	85358.925
1303.39266	90777.725
1306.9116	96037.825
1310.42815	100417.925
1313.94233	102689.225
1317.45412	101980.325
1320.96354	99186.825
1324.47058	96409.125
1327.97525	94209.325
1331.47754	92461.725
1334.97747	90995.125
1338.47502	89482.825
1341.97022	87902.925
1345.46305	86102.725
1348.95352	84993.225
1352.44163	85324.225
1355.92738	88163.225
1359.41078	93007.325
1362.89183	96584.225
1366.37053	95431.625
1369.84688	88324.925
1373.32088	78872.525
1376.79254	72227.625
1380.26186	69939.025
1383.72883	70110.825
1387.19347	70357.525
1390.65578	69622.725
1394.11575	69445.225
1397.57339	70404.025
1401.0287	71819.125
1404.48168	73055.925
1407.93234	73368.225
1411.38068	72302.725
1414.82669	70347.925
1418.27039	67947.325
1421.71177	65341.225
1425.15083	63271.225
1428.58758	62465.425
1432.02203	63441.525
1435.45416	65342.725
1438.88399	67318.225
1442.31151	68661.125
1445.73673	69151.825
1449.15965	69126.225
1452.58027	68699.725
1455.9986	68048.225
1459.41463	68146.825
1462.82837	69191.625
1466.23982	70587.425
1469.64898	72003.025
1473.05586	72955.325
1476.46045	73321.925
1479.86276	72870.325
1483.26279	72131.625
1486.66054	71654.125
1490.05602	71912.725
1493.44922	72264.225
1496.84016	72465.225
1500.22882	73015.825
1503.61521	73883.925
1506.99934	75079.025
1510.38121	76098.825
1513.76081	75926.025
1517.13816	74325.025
1520.51324	72409.925
1523.88607	71389.525
1527.25665	71514.825
1530.62498	72219.625
1533.99105	72464.725
1537.35488	72031.525
1540.71647	70711.125
1544.07581	68997.125
1547.4329	67169.425
1550.78776	65417.525
1554.14038	64086.325
1557.49077	63162.825
1560.83892	62681.125
1564.18484	62488.925
1567.52853	62487.025
1570.86999	62946.125
1574.20922	63903.225
1577.54624	64802.525
1580.88103	65117.925
1584.2136	65959.925
1587.54395	68607.925
1590.87208	73185.125
1594.19801	79030.825
1597.52172	84487.325
1600.84321	86249.925
1604.16251	82392.625
1607.47959	75074.325
1610.79447	67386.325
1614.10715	60905.425
1617.41763	56195.825
1620.7259	53286.725
1624.03199	52113.925
1627.33587	52330.325
1630.63757	54145.825
1633.93707	57872.325
1637.23439	64127.525
1640.52951	73399.525
1643.82246	84178.425
1647.11321	92015.825
1650.40179	91805.825
1653.68819	83101.725
1656.97241	70803.925
1660.25446	60011.625
1663.53433	52795.725
1666.81203	48369.225
1670.08756	45732.125
1673.36092	44158.525
1676.63211	43034.225
1679.90115	42258.725
1683.16801	41600.425
1686.43272	41197.525
1689.69527	40838.625
1692.95567	40606.225
1696.2139	40459.225
1699.46999	40407.425
1702.72392	40230.025
1705.97571	40184.725
1709.22535	40105.525
1712.47284	40074.525
1715.71819	40146.225
1718.96139	40044.525
1722.20246	39945.125
1725.44139	39738.225
1728.67818	39585.825
1731.91284	39393.125
1735.14537	39183.225
1738.37576	38977.825
1741.60403	38904.125
1744.83017	38749.725
1748.05418	38630.725
1751.27607	38607.625
1754.49584	38567.225
1757.71349	38550.125
1760.92903	38563.725
1764.14244	38526.225
1767.35375	38478.125
1770.56294	38427.725
1773.77002	38436.425
1776.97499	38386.125
1780.17785	38331.625
1783.37861	38274.225
1786.57727	38182.225
1789.77382	38084.125
1792.96828	38075.925
1796.16064	38042.725
1799.3509	38009.925
1802.53907	37918.925
1805.72514	37855.225
1808.90913	37783.225
1812.09102	37724.125
1815.27083	37655.225
1818.44856	37611.025
1821.6242	37584.925
1824.79776	37521.325
1827.96924	37523.625
1831.13864	37533.125
1834.30597	37543.225
1837.47122	37521.325
1840.6344	37434.325
1843.7955	37466.425
1846.95454	37504.025
1850.11151	37490.825
1853.26642	37496.925
1856.41926	37473.025
1859.57004	37468.825
1862.71876	37384.025
1865.86542	37331.025
1869.01003	37320.225
1872.15258	37321.725
1875.29308	37285.925
1878.43152	37258.025
1881.56792	37270.625
1884.70227	37283.225
1887.83457	37299.025
1890.96482	37281.025
1894.09304	37179.625
1897.21921	37116.425
1900.34335	37052.725
1903.46544	37079.125
1906.58551	37056.025
1909.70353	37071.025
1912.81953	37019.825
1915.93349	36958.425
1919.04543	36867.825
1922.15534	36805.125
1925.26322	36740.525
1928.36908	36729.125
1931.47292	36716.525
1934.57473	36541.425
1937.67453	36533.325
1940.77232	36402.625
1943.86808	36307.525
1946.96184	36246.825
1950.05358	36102.925
1953.14331	36086.025
1956.23103	35943.925
1959.31675	35832.825
1962.40046	35735.525
1965.48217	35598.125
1968.56188	35518.725
1971.63959	35471.825
1974.7153	35389.225
1977.78901	35256.425
1980.86073	35169.525
1983.93046	35134.725
1986.99819	35007.325
1990.06394	34967.625
1993.1277	34876.725
1996.18947	34745.325
1999.24925	34726.125
2002.30706	34642.025
2005.36288	34491.525
2008.41672	34443.025
2011.46859	34362.625
2014.51848	34241.825
2017.56639	34183.525
2020.61233	34124.025
2023.6563	34006.525
2026.6983	33946.925
2029.73833	33906.225
2032.7764	33876.825
2035.8125	33824.825
2038.84664	33736.225
2041.87881	33715.725
2044.90903	33639.625
2047.93729	33617.925
2050.96359	33556.525
2053.98794	33611.925
2057.01034	33584.425
2060.03078	33569.525
2063.04927	33593.325
2066.06582	33566.725
2069.08042	33556.225
2072.09307	33483.925
2075.10378	33467.725
2078.11255	33366.825
2081.11938	33402.825
2084.12426	33416.325
2087.12722	33368.225
2090.12824	33357.525
2093.12732	33406.925
2096.12447	33398.125
2099.11969	33346.825
2102.11299	33418.625
2105.10435	33435.325
2108.09379	33469.825
2111.08131	33509.125
2114.0669	33450.325
2117.05057	33448.225
2120.03233	33486.825
2123.01216	33551.725
2125.99008	33557.125
2128.96609	33634.125
2131.94018	33664.125
2134.91236	33692.625
2137.88263	33763.925
2140.851	33811.025
2143.81746	33810.625
2146.78201	33807.525
2149.74466	33884.025
2152.7054	33865.525
2155.66425	33871.825
2158.6212	33878.625
2161.57625	33801.025
2164.52941	33889.525
2167.48067	33809.925
2170.43004	33804.225
2173.37752	33842.925
2176.32311	33868.025
2179.26681	33922.325
2182.20863	33905.525
2185.14856	33903.325
2188.08661	33929.925
2191.02278	33945.825
2193.95707	33884.525
2196.88948	33856.625
2199.82001	33880.425
2202.74867	33816.225
2205.67545	33805.025
2208.60037	33756.525
2211.52341	33723.525
2214.44458	33711.225
2217.36388	33716.925
2220.28132	33674.025
2223.1969	33603.425
2226.11061	33549.625
2229.02246	33415.225
2231.93245	33363.425
2234.84058	33369.325
2237.74686	33327.825
2240.65128	33354.625
2243.55385	33290.825
2246.45456	33245.325
2249.35343	33205.125
2252.25044	33112.225
2255.14561	33027.525
2258.03893	33039.125
2260.93041	32989.425
2263.82004	32931.125
2266.70783	32862.125
2269.59378	32764.025
2272.4779	32669.425
2275.36017	32650.825
2278.24061	32620.525
2281.11922	32511.325
2283.996	32526.325
2286.87094	32552.225
2289.74405	32498.625
2292.61534	32459.425
2295.4848	32484.325
2298.35243	32441.725
2301.21824	32464.325
2304.08223	32429.225
2306.94439	32457.625
2309.80474	32441.625
2312.66327	32463.325
2315.51999	32466.825
2318.37489	32449.525
2321.22797	32392.925
2324.07925	32423.625
2326.92871	32333.525
2329.77637	32262.425
2332.62222	32272.925
2335.46626	32285.325
2338.3085	32260.425
2341.14893	32267.825
2343.98756	32272.425
2346.8244	32285.325
2349.65943	32326.325
2352.49267	32258.125
2355.32411	32273.125
2358.15376	32208.925
2360.98161	32227.625
2363.80768	32169.825
2366.63195	32131.725
2369.45444	32081.525
2372.27514	32060.025
2375.09405	32038.925
2377.91118	31974.725
2380.72652	31911.725
2383.54009	31838.825
2386.35187	31787.825
2389.16188	31686.925
2391.97011	31696.225
2394.77657	31652.125
2397.58125	31655.125
2400.38416	31625.025
2403.18529	31554.725
2405.98466	31527.625
2408.78226	31459.925
2411.57809	31445.625
2414.37216	31373.125
2417.16446	31394.925
2419.955	31380.925
2422.74378	31358.325
2425.5308	31286.625
2428.31606	31332.125
2431.09956	31372.925
2433.88131	31324.225
2436.6613	31345.125
2439.43954	31299.225
2442.21603	31326.225
2444.99077	31271.825
2447.76377	31305.325
2450.53501	31234.225
2453.30451	31290.225
2456.07226	31243.025
2458.83827	31239.225
2461.60254	31217.325
2464.36507	31266.025
2467.12586	31243.925
2469.88492	31236.825
2472.64224	31250.125
2475.39782	31274.125
2478.15167	31283.425
2480.90379	31325.725
2483.65417	31316.525
2486.40283	31342.025
2489.14976	31316.825
2491.89497	31280.025
2494.63845	31317.125
2497.3802	31296.725
2500.12024	31332.125
2502.85855	31278.025
2505.59514	31269.925
2508.33002	31216.525
2511.06318	31214.025
2513.79462	31199.925
2516.52435	31213.125
2519.25237	31195.225
2521.97867	31147.225
2524.70327	31162.925
2527.42616	31099.825
2530.14734	31102.225
2532.86681	31065.725
2535.58458	31125.325
2538.30065	31110.225
2541.01501	31080.025
2543.72768	31077.725
2546.43864	31053.425
2549.14791	31034.925
2551.85548	31010.425
2554.56136	30950.025
2557.26554	30887.925
2559.96803	30867.225
2562.66883	30876.225
2565.36794	30853.725
2568.06536	30827.725
2570.7611	30753.025
2573.45514	30819.025
2576.14751	30754.125
2578.83819	30770.125
2581.52719	30751.625
2584.21451	30765.125
2586.90015	30732.925
2589.58411	30645.825
2592.2664	30684.925
2594.94701	30644.725
2597.62594	30636.225
2600.30321	30650.825
2602.9788	30675.725
2605.65273	30686.625
2608.32498	30649.825
2610.99557	30659.625
2613.66449	30646.125
2616.33175	30665.425
2618.99734	30645.325
2621.66128	30562.425
2624.32355	30558.825
2626.98416	30537.725
2629.64311	30470.825
2632.30041	30492.425
2634.95605	30454.425
2637.61004	30440.425
2640.26238	30429.225
2642.91306	30374.825
2645.56209	30396.125
2648.20948	30384.925
2650.85521	30421.325
2653.4993	30436.925
2656.14175	30436.825
2658.78255	30510.125
2661.42171	30536.725
2664.05923	30596.625
2666.6951	30536.025
2669.32934	30546.425
2671.96194	30575.325
2674.59291	30561.325
2677.22224	30558.025
2679.84993	30602.225
2682.476	30498.425
2685.10043	30484.525
2687.72324	30478.925
2690.34441	30513.625
2692.96396	30483.825
2695.58188	30509.625
2698.19818	30471.825
2700.81285	30509.025
2703.4259	30455.025
2706.03733	30552.225
2708.64714	30507.325
2711.25533	30562.325
2713.86191	30578.625
2716.46687	30673.325
2719.07021	30687.125
2721.67194	30674.025
2724.27206	30646.125
2726.87057	30716.725
2729.46747	30698.625
2732.06276	30718.325
2734.65644	30738.325
2737.24852	30763.325
2739.83899	30743.225
2742.42786	30744.925
2745.01513	30706.525
2747.60079	30684.225
2750.18486	30711.025
2752.76733	30688.925
2755.3482	30650.225
2757.92747	30638.525
2760.50515	30594.325
2763.08123	30589.525
2765.65573	30571.325
2768.22863	30580.425
2770.79994	30535.225
2773.36967	30554.025
2775.9378	30572.725
2778.50435	30579.225
2781.06932	30565.925
2783.6327	30576.925
2786.1945	30536.925
2788.75471	30520.225
2791.31335	30449.725
2793.87041	30426.325
2796.42589	30382.925
2798.97979	30329.125
2801.53212	30238.825
2804.08288	30193.825
2806.63206	30115.025
2809.17967	30148.325
2811.72571	30035.325
2814.27018	29933.725
2816.81308	29848.925
2819.35442	29827.625
2821.89419	29777.325
2824.43239	29767.025
2826.96904	29772.625
2829.50412	29787.825
2832.03763	29750.225
2834.56959	29743.725
2837.1	29687.525
2839.62884	29625.025
2842.15613	29609.025
2844.68186	29622.625
2847.20604	29602.625
2849.72867	29579.625
2852.24974	29556.125
2854.76927	29533.825
2857.28724	29500.125
2859.80367	29496.125
2862.31855	29469.425
2864.83189	29442.425
2867.34368	29383.325
2869.85393	29355.525
2872.36264	29306.525
2874.8698	29296.825
2877.37543	29226.225
2879.87952	29262.125
2882.38207	29330.125
2884.88308	29289.525
2887.38256	29281.925
2889.88051	29361.925
2892.37692	29380.325
2894.8718	29356.425
2897.36515	29406.225
2899.85698	29405.625
2902.34727	29458.325
2904.83604	29440.725
2907.32328	29503.525
2909.809	29519.025
2912.29319	29572.025
2914.77587	29543.225
2917.25702	29550.825
2919.73665	29514.025
2922.21476	29500.125
2924.69136	29524.025
2927.16644	29508.225
2929.64	29457.925
2932.11205	29425.525
2934.58258	29364.025
2937.05161	29420.825
2939.51912	29386.025
2941.98513	29357.925
2944.44962	29311.725
2946.91261	29255.025
2949.37409	29301.525
2951.83407	29296.925
2954.29254	29261.425
2956.74951	29306.125
2959.20498	29295.025
2961.65895	29259.825
2964.11142	29310.025
2966.56239	29235.025
2969.01186	29241.225
2971.45984	29122.725
2973.90632	29045.325
2976.35131	29017.525
2978.7948	28982.425
2981.23681	28954.825
2983.67732	28864.025
2986.11635	28869.925
2988.55388	28773.425
2990.98993	28712.225
2993.4245	28668.625
2995.85758	28602.925
2998.28917	28501.625
3000.71928	28465.325
3003.14791	28387.125
3005.57506	28367.825
3008.00073	28287.825
3010.42493	28311.025
3012.84764	28256.625
3015.26888	28238.725
3017.68865	28152.225
3020.10694	28098.525
3022.52376	28086.925
3024.9391	28031.825
3027.35298	28006.525
3029.76539	27952.425
3032.17632	27988.025
3034.5858	27912.625
3036.9938	27930.425
3039.40034	27932.825
3041.80542	27912.025
3044.20903	27904.525
3046.61118	27851.825
3049.01187	27780.125
3051.4111	27742.125
3053.80888	27644.725
3056.20519	27599.625
3058.60005	27561.125
3060.99345	27531.625
3063.3854	27430.025
3065.7759	27388.225
3068.16494	27298.925
3070.55254	27185.125
3072.93868	27114.425
3075.32338	27042.525
3077.70662	27013.225
3080.08842	26970.425
3082.46878	26874.125
3084.84769	26821.625
3087.22515	26837.625
3089.60118	26795.825
3091.97576	26804.725
3094.3489	26786.825
3096.72061	26783.925
3099.09087	26824.125
3101.4597	26773.325
3103.82709	26751.225
3106.19305	26741.525
3108.55757	26713.025
3110.92066	26677.125
3113.28232	26654.225
3115.64255	26605.325
3118.00134	26469.725
3120.35871	26427.925
3122.71466	26362.925
3125.06917	26358.025
3127.42226	26262.625
3129.77393	26257.025
3132.12417	26226.125
3134.47299	26241.125
3136.82039	26180.325
3139.16636	26189.025
3141.51092	26143.025
3143.85406	26139.025
3146.19579	26127.725
3148.53609	26149.625
3150.87499	26123.925
3153.21246	26162.925
3155.54853	26135.225
3157.88318	26137.225
3160.21642	26150.225
3162.54826	26080.225
3164.87868	26104.625
3167.2077	26100.425
3169.5353	26029.725
3171.86151	26005.825
3174.18631	26035.725
3176.5097	26049.625
3178.83169	26032.825
3181.15228	26000.525
3183.47147	25870.625
3185.78926	25902.225
3188.10565	25867.625
3190.42065	25791.125
3192.73424	25772.225
3195.04645	25774.425
3197.35725	25699.225
3199.66667	25686.525
3201.97469	25721.325
3204.28132	25672.625
3206.58656	25646.225
3208.8904	25658.025
3211.19287	25672.225
3213.49394	25668.325
3215.79363	25680.725
3218.09193	25708.125
3220.38884	25735.725
3222.68438	25746.825
3224.97853	25640.125
3227.2713	25634.725
3229.56269	25615.325
3231.8527	25610.325
3234.14133	25573.325
3236.42858	25503.925
3238.71446	25490.925
3240.99896	25442.625
3243.28209	25424.225
3245.56384	25394.025
3247.84423	25356.225
3250.12324	25349.825
3252.40088	25333.825
3254.67715	25330.325
3256.95205	25243.325
3259.22558	25233.625
3261.49775	25243.425
3263.76855	25198.225
3266.03799	25106.925
3268.30606	25052.725
3270.57277	25019.525
3272.83812	24985.725
3275.10211	24953.725
3277.36474	24912.025
3279.62601	24891.325
3281.88593	24875.925
3284.14448	24872.025
3286.40168	24917.325
3288.65753	24908.625
3290.91202	24874.425
3293.16516	24817.825
3295.41695	24786.125
3297.66738	24647.825
3299.91647	24519.125
3302.16421	24367.725
3304.4106	24245.025
3306.65564	24087.525
3308.89933	23913.525
3311.14169	23739.625
3313.38269	23548.525
3315.62236	23461.625
3317.86068	23213.725
3320.09766	22997.625
3322.3333	22867.625
3324.5676	22756.325
3326.80056	22402.525
3329.03219	22300.425
3331.26248	5.925
3333.49143	0.625
3335.71905	-1.075
