Data from AgNPs_FTO_APTES_UA_20uM_CRN_5uM_R6G_10uM_NaF_0.1M_Addition_RamanShift__4__13-36-32-135.txt Node

Date: Thu Feb 17 13:36:32 GMT 2022
User: TCL
Spectrometer: QEP01345
Trigger mode: 4
Integration Time (sec): 7.000000E0
Scans to average: 10
Electric dark correction enabled: true
Nonlinearity correction enabled: false
Boxcar width: 0
XAxis mode: Raman Shifts
Number of Pixels in Spectrum: 1044
>>>>>Begin Spectral Data<<<<<
46.04893	-1.5625
50.45542	-1.1625
54.85868	-2.8625
59.25871	-1.0625
63.6555	123.6375
68.04907	128.3375
72.43941	133.7375
76.82654	136.4375
81.21044	137.5375
85.59113	142.9375
89.96862	147.7375
94.34289	153.2375
98.71396	152.5375
103.08183	159.5375
107.4465	165.0375
111.80798	175.1375
116.16626	176.7375
120.52136	187.2375
124.87327	193.0375
129.222	205.9375
133.56755	219.7375
137.90993	240.5375
142.24913	263.7375
146.58517	303.3375
150.91804	358.1375
155.24774	429.9375
159.57429	537.7375
163.89768	695.2375
168.21792	943.6375
172.53501	1300.4375
176.84895	1824.7375
181.15975	2573.1375
185.46741	3643.6375
189.77193	5037.6375
194.07331	6756.0375
198.37157	8760.3375
202.6667	10824.9375
206.9587	12896.7375
211.24758	14908.2375
215.53334	16956.7375
219.81599	19059.7375
224.09553	21390.6375
228.37195	23962.0375
232.64527	26829.7375
236.91549	29824.8375
241.18261	32900.3375
245.44663	35821.3375
249.70755	38426.7375
253.96539	40711.0375
258.22014	42736.6375
262.4718	44330.9375
266.72039	45448.4375
270.96589	46072.2375
275.20832	46218.5375
279.44768	45967.4375
283.68397	45557.0375
287.91719	45132.8375
292.14735	44901.0375
296.37445	44852.3375
300.59849	44961.3375
304.81948	45174.4375
309.03742	45193.5375
313.25231	45067.0375
317.46415	44557.2375
321.67296	43889.6375
325.87872	43411.8375
330.08145	43149.1375
334.28114	43242.2375
338.47781	43507.4375
342.67145	43996.8375
346.86207	44698.9375
351.04966	45409.1375
355.23424	46174.5375
359.4158	46788.9375
363.59435	47283.0375
367.76989	47657.0375
371.94243	47939.7375
376.11196	48181.0375
380.27849	48466.2375
384.44203	48792.5375
388.60257	49171.5375
392.76012	49630.4375
396.91468	50142.2375
401.06626	50677.2375
405.21485	51134.2375
409.36047	51117.1375
413.50311	50684.9375
417.64277	50504.6375
421.77947	50485.3375
425.9132	50712.4375
430.04396	51040.0375
434.17176	51342.5375
438.2966	51807.8375
442.41849	52643.1375
446.53742	53825.8375
450.6534	55227.2375
454.76644	56239.8375
458.87653	56550.6375
462.98368	56277.7375
467.08789	55671.4375
471.18916	55039.6375
475.2875	54324.6375
479.38291	53928.1375
483.4754	53603.2375
487.56496	53250.1375
491.6516	52797.2375
495.73531	52294.7375
499.81612	51971.8375
503.89401	52236.0375
507.96899	52390.5375
512.04106	52361.8375
516.11023	52153.7375
520.1765	51889.1375
524.23987	51805.3375
528.30034	51628.7375
532.35792	51404.8375
536.41261	51016.8375
540.46441	50656.6375
544.51333	50654.0375
548.55936	51064.5375
552.60252	51935.3375
556.64279	53007.2375
560.6802	53792.3375
564.71473	54256.4375
568.7464	54888.9375
572.7752	56102.7375
576.80114	57418.4375
580.82422	58730.7375
584.84444	60104.4375
588.86181	61960.8375
592.87633	63451.1375
596.888	63196.9375
600.89682	61336.4375
604.9028	60968.6375
608.90594	63757.2375
612.90624	66670.1375
616.90371	63431.4375
620.89834	56375.1375
624.89015	53252.5375
628.87913	52850.8375
632.86528	53113.0375
636.84862	53112.2375
640.82913	52534.4375
644.80683	51702.5375
648.78172	51127.1375
652.75379	51096.1375
656.72306	51610.9375
660.68952	52298.4375
664.65319	52122.7375
668.61405	51506.8375
672.57211	51481.9375
676.52738	51680.1375
680.47986	51667.0375
684.42955	51439.2375
688.37646	51322.9375
692.32058	51673.3375
696.26192	52197.5375
700.20048	52830.1375
704.13626	53261.3375
708.06928	53244.2375
711.99952	53022.1375
715.927	53019.7375
719.85171	53151.6375
723.77365	53085.9375
727.69284	52630.2375
731.60928	52201.1375
735.52295	52063.6375
739.43388	52085.8375
743.34206	52309.5375
747.24749	52505.0375
751.15017	52869.8375
755.05012	53518.0375
758.94733	54539.5375
762.8418	56411.9375
766.73354	59381.2375
770.62254	62011.9375
774.50882	62295.1375
778.39237	60163.9375
782.27321	57194.6375
786.15132	54814.4375
790.02671	53328.0375
793.89938	52595.7375
797.76935	52247.6375
801.6366	52092.8375
805.50115	51996.9375
809.36299	51863.2375
813.22213	51671.5375
817.07857	51553.0375
820.93231	51527.7375
824.78336	51404.6375
828.63172	51290.4375
832.47738	51251.3375
836.32036	51289.0375
840.16066	51375.2375
843.99827	51492.2375
847.8332	51480.5375
851.66546	51462.4375
855.49504	51561.0375
859.32195	51609.0375
863.1462	51499.9375
866.96777	51487.9375
870.78668	51492.3375
874.60293	51547.8375
878.41652	51627.5375
882.22745	51709.1375
886.03573	51834.9375
889.84136	51752.6375
893.64433	51667.6375
897.44466	51442.3375
901.24235	51273.6375
905.0374	51282.2375
908.8298	51170.8375
912.61957	51199.8375
916.40671	51537.9375
920.19121	52064.3375
923.97308	52494.8375
927.75233	52461.3375
931.52895	52042.0375
935.30295	51560.2375
939.07433	50981.8375
942.84309	50539.4375
946.60924	50394.6375
950.37278	50390.9375
954.13371	50448.1375
957.89203	50445.2375
961.64774	50382.8375
965.40086	50318.2375
969.15137	50243.0375
972.89929	50101.6375
976.64461	50020.9375
980.38733	49959.4375
984.12747	50103.3375
987.86502	50391.1375
991.59999	50702.1375
995.33237	51191.0375
999.06217	51953.2375
1002.78939	52954.0375
1006.51404	53908.9375
1010.23611	54719.8375
1013.95561	55213.4375
1017.67255	55284.7375
1021.38692	54932.3375
1025.09872	54137.5375
1028.80796	53694.1375
1032.51465	53754.6375
1036.21877	54065.0375
1039.92035	54216.8375
1043.61937	54142.7375
1047.31584	53916.1375
1051.00976	53541.4375
1054.70114	53489.3375
1058.38998	53595.7375
1062.07627	53945.5375
1065.76003	54389.5375
1069.44126	54949.2375
1073.11995	55616.5375
1076.79611	56264.5375
1080.46974	56580.7375
1084.14085	56999.6375
1087.80943	57483.3375
1091.47549	57765.6375
1095.13903	57710.4375
1098.80005	57151.3375
1102.45857	56449.0375
1106.11456	55693.8375
1109.76805	55463.9375
1113.41903	55509.1375
1117.06751	55727.9375
1120.71348	56068.0375
1124.35696	56490.5375
1127.99793	56842.6375
1131.63641	56903.1375
1135.2724	56792.6375
1138.90589	56625.4375
1142.5369	56707.1375
1146.16542	56884.7375
1149.79145	57268.4375
1153.415	57646.5375
1157.03607	58237.2375
1160.65467	59320.5375
1164.27079	61138.6375
1167.88443	63455.0375
1171.49561	66173.6375
1175.10432	69582.6375
1178.71056	73791.4375
1182.31434	77741.4375
1185.91565	79595.4375
1189.51451	79123.1375
1193.11091	77398.2375
1196.70485	75310.7375
1200.29634	73191.4375
1203.88538	71581.8375
1207.47197	70823.7375
1211.05612	70042.8375
1214.63782	69017.2375
1218.21708	67857.4375
1221.79391	66804.1375
1225.36829	66201.2375
1228.94024	65656.2375
1232.50976	64729.3375
1236.07685	63720.5375
1239.6415	63092.8375
1243.20374	63104.3375
1246.76355	63460.9375
1250.32093	64230.5375
1253.8759	65215.9375
1257.42845	66544.2375
1260.97859	67928.7375
1264.52631	69447.7375
1268.07163	71074.6375
1271.61453	72606.6375
1275.15503	73995.9375
1278.69312	75565.2375
1282.22882	77067.8375
1285.76211	78979.4375
1289.29301	81312.9375
1292.82151	84242.8375
1296.34761	87719.8375
1299.87133	92037.1375
1303.39266	96596.5375
1306.9116	101156.3375
1310.42815	104815.0375
1313.94233	106851.7375
1317.45412	106638.3375
1320.96354	104868.2375
1324.47058	103226.6375
1327.97525	101668.0375
1331.47754	100303.9375
1334.97747	99303.4375
1338.47502	98628.7375
1341.97022	98030.6375
1345.46305	97332.6375
1348.95352	96626.4375
1352.44163	96356.3375
1355.92738	97709.7375
1359.41078	100557.4375
1362.89183	102951.1375
1366.37053	101541.7375
1369.84688	95006.1375
1373.32088	86733.7375
1376.79254	80972.9375
1380.26186	78830.0375
1383.72883	79000.2375
1387.19347	79190.0375
1390.65578	78763.4375
1394.11575	78540.1375
1397.57339	78982.2375
1401.0287	79898.3375
1404.48168	80467.1375
1407.93234	80362.0375
1411.38068	79277.3375
1414.82669	77492.1375
1418.27039	75099.4375
1421.71177	72773.0375
1425.15083	70855.9375
1428.58758	69985.8375
1432.02203	70573.9375
1435.45416	72053.1375
1438.88399	73877.6375
1442.31151	75266.9375
1445.73673	75964.8375
1449.15965	76354.8375
1452.58027	76319.1375
1455.9986	76209.7375
1459.41463	76499.6375
1462.82837	77406.1375
1466.23982	78613.7375
1469.64898	79722.1375
1473.05586	80612.4375
1476.46045	80810.3375
1479.86276	80289.0375
1483.26279	79594.6375
1486.66054	79142.8375
1490.05602	79431.8375
1493.44922	79941.1375
1496.84016	80640.8375
1500.22882	81807.5375
1503.61521	83647.6375
1506.99934	85930.7375
1510.38121	87509.2375
1513.76081	87307.1375
1517.13816	85359.1375
1520.51324	83000.9375
1523.88607	81388.5375
1527.25665	81117.4375
1530.62498	81501.0375
1533.99105	81730.9375
1537.35488	81190.6375
1540.71647	80031.5375
1544.07581	78456.8375
1547.4329	76842.1375
1550.78776	75224.5375
1554.14038	74120.7375
1557.49077	73476.3375
1560.83892	73028.6375
1564.18484	72863.3375
1567.52853	73091.9375
1570.86999	73581.7375
1574.20922	74470.2375
1577.54624	75251.9375
1580.88103	75248.6375
1584.2136	75579.2375
1587.54395	77384.7375
1590.87208	80785.6375
1594.19801	85173.2375
1597.52172	89423.1375
1600.84321	90563.9375
1604.16251	87405.2375
1607.47959	81892.7375
1610.79447	76126.0375
1614.10715	70830.0375
1617.41763	66520.2375
1620.7259	63551.5375
1624.03199	62040.3375
1627.33587	61938.7375
1630.63757	63280.9375
1633.93707	66484.1375
1637.23439	71841.5375
1640.52951	79829.0375
1643.82246	89094.7375
1647.11321	96007.5375
1650.40179	96545.3375
1653.68819	89961.8375
1656.97241	79564.8375
1660.25446	69911.2375
1663.53433	62898.7375
1666.81203	58387.6375
1670.08756	55622.2375
1673.36092	53790.3375
1676.63211	52632.7375
1679.90115	51787.4375
1683.16801	51067.2375
1686.43272	50627.4375
1689.69527	50247.0375
1692.95567	50027.2375
1696.2139	49918.9375
1699.46999	49841.5375
1702.72392	49656.9375
1705.97571	49589.1375
1709.22535	49414.3375
1712.47284	49408.5375
1715.71819	49447.7375
1718.96139	49306.8375
1722.20246	49191.3375
1725.44139	49048.3375
1728.67818	48856.5375
1731.91284	48581.9375
1735.14537	48380.8375
1738.37576	48213.2375
1741.60403	48082.3375
1744.83017	47894.6375
1748.05418	47757.7375
1751.27607	47680.5375
1754.49584	47671.0375
1757.71349	47696.9375
1760.92903	47615.2375
1764.14244	47574.6375
1767.35375	47494.0375
1770.56294	47482.0375
1773.77002	47445.4375
1776.97499	47403.6375
1780.17785	47271.0375
1783.37861	47226.4375
1786.57727	47172.3375
1789.77382	47076.8375
1792.96828	47113.1375
1796.16064	46975.7375
1799.3509	46896.5375
1802.53907	46805.2375
1805.72514	46690.1375
1808.90913	46626.3375
1812.09102	46497.4375
1815.27083	46451.5375
1818.44856	46416.6375
1821.6242	46327.5375
1824.79776	46285.6375
1827.96924	46305.7375
1831.13864	46234.0375
1834.30597	46209.3375
1837.47122	46175.6375
1840.6344	46099.4375
1843.7955	46152.0375
1846.95454	46147.7375
1850.11151	46097.9375
1853.26642	46081.8375
1856.41926	46040.5375
1859.57004	45979.4375
1862.71876	45920.9375
1865.86542	45860.5375
1869.01003	45808.3375
1872.15258	45769.2375
1875.29308	45732.7375
1878.43152	45623.9375
1881.56792	45688.8375
1884.70227	45621.3375
1887.83457	45638.9375
1890.96482	45633.6375
1894.09304	45574.5375
1897.21921	45503.5375
1900.34335	45412.8375
1903.46544	45377.4375
1906.58551	45365.0375
1909.70353	45355.9375
1912.81953	45243.3375
1915.93349	45205.0375
1919.04543	45076.3375
1922.15534	45022.7375
1925.26322	45008.5375
1928.36908	44899.7375
1931.47292	44846.4375
1934.57473	44692.6375
1937.67453	44608.4375
1940.77232	44547.1375
1943.86808	44412.1375
1946.96184	44367.0375
1950.05358	44222.1375
1953.14331	44066.8375
1956.23103	43988.4375
1959.31675	43917.6375
1962.40046	43764.2375
1965.48217	43602.7375
1968.56188	43402.5375
1971.63959	43305.0375
1974.7153	43205.9375
1977.78901	43106.7375
1980.86073	42963.1375
1983.93046	42885.6375
1986.99819	42797.2375
1990.06394	42707.1375
1993.1277	42598.3375
1996.18947	42434.5375
1999.24925	42377.7375
2002.30706	42260.3375
2005.36288	42100.3375
2008.41672	41928.8375
2011.46859	41852.6375
2014.51848	41769.1375
2017.56639	41641.0375
2020.61233	41520.2375
2023.6563	41423.9375
2026.6983	41326.7375
2029.73833	41213.2375
2032.7764	41223.1375
2035.8125	41136.0375
2038.84664	41070.9375
2041.87881	40997.2375
2044.90903	40904.9375
2047.93729	40916.8375
2050.96359	40823.1375
2053.98794	40725.2375
2057.01034	40787.9375
2060.03078	40770.9375
2063.04927	40706.2375
2066.06582	40687.7375
2069.08042	40687.3375
2072.09307	40617.2375
2075.10378	40530.2375
2078.11255	40550.6375
2081.11938	40539.6375
2084.12426	40533.2375
2087.12722	40490.8375
2090.12824	40487.3375
2093.12732	40531.5375
2096.12447	40525.7375
2099.11969	40451.8375
2102.11299	40443.6375
2105.10435	40505.3375
2108.09379	40552.4375
2111.08131	40587.6375
2114.0669	40555.7375
2117.05057	40559.4375
2120.03233	40596.0375
2123.01216	40731.2375
2125.99008	40804.1375
2128.96609	40838.5375
2131.94018	40864.5375
2134.91236	40912.8375
2137.88263	40834.9375
2140.851	40850.2375
2143.81746	40912.4375
2146.78201	40930.3375
2149.74466	40940.7375
2152.7054	40919.6375
2155.66425	40916.4375
2158.6212	40941.9375
2161.57625	40893.4375
2164.52941	40940.6375
2167.48067	40880.8375
2170.43004	40865.4375
2173.37752	40875.3375
2176.32311	40858.8375
2179.26681	40879.2375
2182.20863	40882.6375
2185.14856	40888.2375
2188.08661	40918.0375
2191.02278	40873.1375
2193.95707	40814.2375
2196.88948	40779.2375
2199.82001	40759.8375
2202.74867	40718.7375
2205.67545	40712.5375
2208.60037	40610.2375
2211.52341	40601.8375
2214.44458	40589.9375
2217.36388	40528.9375
2220.28132	40425.9375
2223.1969	40397.8375
2226.11061	40227.2375
2229.02246	40129.5375
2231.93245	40078.0375
2234.84058	40054.0375
2237.74686	39978.0375
2240.65128	39970.6375
2243.55385	39910.2375
2246.45456	39926.7375
2249.35343	39891.3375
2252.25044	39816.4375
2255.14561	39728.4375
2258.03893	39667.4375
2260.93041	39558.3375
2263.82004	39460.8375
2266.70783	39429.2375
2269.59378	39264.0375
2272.4779	39265.4375
2275.36017	39193.8375
2278.24061	39131.3375
2281.11922	39024.6375
2283.996	38922.6375
2286.87094	38992.9375
2289.74405	38919.4375
2292.61534	38868.9375
2295.4848	38830.3375
2298.35243	38792.6375
2301.21824	38821.2375
2304.08223	38771.8375
2306.94439	38784.3375
2309.80474	38828.0375
2312.66327	38823.6375
2315.51999	38746.0375
2318.37489	38700.3375
2321.22797	38655.2375
2324.07925	38647.7375
2326.92871	38521.8375
2329.77637	38483.5375
2332.62222	38438.7375
2335.46626	38422.0375
2338.3085	38398.2375
2341.14893	38358.2375
2343.98756	38360.6375
2346.8244	38337.4375
2349.65943	38359.2375
2352.49267	38318.9375
2355.32411	38262.7375
2358.15376	38277.4375
2360.98161	38253.9375
2363.80768	38154.8375
2366.63195	38175.6375
2369.45444	38190.0375
2372.27514	38094.9375
2375.09405	38065.0375
2377.91118	37983.4375
2380.72652	37914.5375
2383.54009	37806.7375
2386.35187	37725.3375
2389.16188	37633.8375
2391.97011	37522.7375
2394.77657	37549.4375
2397.58125	37468.1375
2400.38416	37424.0375
2403.18529	37437.1375
2405.98466	37327.7375
2408.78226	37246.8375
2411.57809	37225.1375
2414.37216	37164.2375
2417.16446	37191.0375
2419.955	37158.7375
2422.74378	37105.9375
2425.5308	37085.3375
2428.31606	37050.6375
2431.09956	37068.7375
2433.88131	37035.5375
2436.6613	36992.0375
2439.43954	36999.0375
2442.21603	36942.0375
2444.99077	36940.3375
2447.76377	36900.0375
2450.53501	36894.0375
2453.30451	36903.2375
2456.07226	36895.8375
2458.83827	36814.0375
2461.60254	36772.8375
2464.36507	36772.5375
2467.12586	36772.6375
2469.88492	36741.9375
2472.64224	36777.1375
2475.39782	36704.3375
2478.15167	36761.8375
2480.90379	36800.8375
2483.65417	36793.6375
2486.40283	36834.5375
2489.14976	36741.7375
2491.89497	36701.8375
2494.63845	36726.5375
2497.3802	36635.8375
2500.12024	36656.9375
2502.85855	36684.2375
2505.59514	36620.3375
2508.33002	36514.3375
2511.06318	36499.9375
2513.79462	36485.9375
2516.52435	36457.4375
2519.25237	36499.5375
2521.97867	36466.1375
2524.70327	36415.0375
2527.42616	36381.5375
2530.14734	36375.1375
2532.86681	36265.9375
2535.58458	36291.1375
2538.30065	36265.8375
2541.01501	36265.0375
2543.72768	36232.8375
2546.43864	36176.7375
2549.14791	36176.7375
2551.85548	36121.7375
2554.56136	36051.5375
2557.26554	35888.2375
2559.96803	35877.0375
2562.66883	35876.1375
2565.36794	35853.6375
2568.06536	35810.6375
2570.7611	35700.5375
2573.45514	35706.8375
2576.14751	35635.3375
2578.83819	35579.0375
2581.52719	35578.3375
2584.21451	35555.8375
2586.90015	35531.2375
2589.58411	35450.4375
2592.2664	35453.9375
2594.94701	35404.6375
2597.62594	35443.9375
2600.30321	35386.2375
2602.9788	35397.9375
2605.65273	35324.6375
2608.32498	35320.8375
2610.99557	35313.4375
2613.66449	35334.4375
2616.33175	35290.8375
2618.99734	35187.0375
2621.66128	35146.6375
2624.32355	35107.8375
2626.98416	35097.1375
2629.64311	35023.5375
2632.30041	35051.6375
2634.95605	35002.8375
2637.61004	34967.6375
2640.26238	34929.9375
2642.91306	34875.3375
2645.56209	34853.4375
2648.20948	34874.2375
2650.85521	34865.1375
2653.4993	34842.3375
2656.14175	34839.8375
2658.78255	34918.7375
2661.42171	34878.5375
2664.05923	34959.3375
2666.6951	34987.4375
2669.32934	34904.6375
2671.96194	34897.1375
2674.59291	34982.1375
2677.22224	34982.0375
2679.84993	34956.5375
2682.476	34878.8375
2685.10043	34888.6375
2687.72324	34822.9375
2690.34441	34833.3375
2692.96396	34849.9375
2695.58188	34885.4375
2698.19818	34772.6375
2700.81285	34770.6375
2703.4259	34770.6375
2706.03733	34902.3375
2708.64714	34818.2375
2711.25533	34892.4375
2713.86191	34841.1375
2716.46687	34944.3375
2719.07021	34902.4375
2721.67194	34949.0375
2724.27206	34901.8375
2726.87057	34942.7375
2729.46747	34952.2375
2732.06276	34926.8375
2734.65644	34907.6375
2737.24852	34945.7375
2739.83899	34906.1375
2742.42786	34975.8375
2745.01513	34879.3375
2747.60079	34870.8375
2750.18486	34812.8375
2752.76733	34796.5375
2755.3482	34757.7375
2757.92747	34680.9375
2760.50515	34668.6375
2763.08123	34668.7375
2765.65573	34681.0375
2768.22863	34649.0375
2770.79994	34617.5375
2773.36967	34610.8375
2775.9378	34664.4375
2778.50435	34632.6375
2781.06932	34570.8375
2783.6327	34565.6375
2786.1945	34498.0375
2788.75471	34445.7375
2791.31335	34365.7375
2793.87041	34317.8375
2796.42589	34228.0375
2798.97979	34264.8375
2801.53212	34128.0375
2804.08288	34070.2375
2806.63206	34011.4375
2809.17967	33950.2375
2811.72571	33834.4375
2814.27018	33745.7375
2816.81308	33632.0375
2819.35442	33551.8375
2821.89419	33573.2375
2824.43239	33521.7375
2826.96904	33562.5375
2829.50412	33503.2375
2832.03763	33400.1375
2834.56959	33427.0375
2837.1	33263.5375
2839.62884	33264.6375
2842.15613	33194.8375
2844.68186	33253.3375
2847.20604	33204.0375
2849.72867	33168.0375
2852.24974	33106.9375
2854.76927	33045.1375
2857.28724	33061.1375
2859.80367	33070.1375
2862.31855	33042.5375
2864.83189	32945.8375
2867.34368	32852.6375
2869.85393	32904.1375
2872.36264	32865.4375
2874.8698	32861.4375
2877.37543	32814.0375
2879.87952	32746.1375
2882.38207	32714.0375
2884.88308	32703.3375
2887.38256	32787.4375
2889.88051	32770.5375
2892.37692	32824.5375
2894.8718	32812.2375
2897.36515	32835.4375
2899.85698	32839.5375
2902.34727	32901.8375
2904.83604	32883.8375
2907.32328	32935.7375
2909.809	32891.1375
2912.29319	32953.1375
2914.77587	32958.1375
2917.25702	32932.6375
2919.73665	32873.4375
2922.21476	32887.0375
2924.69136	32805.7375
2927.16644	32825.0375
2929.64	32780.3375
2932.11205	32770.9375
2934.58258	32652.2375
2937.05161	32755.4375
2939.51912	32759.1375
2941.98513	32721.3375
2944.44962	32675.7375
2946.91261	32645.6375
2949.37409	32665.0375
2951.83407	32586.4375
2954.29254	32585.0375
2956.74951	32583.4375
2959.20498	32621.8375
2961.65895	32555.8375
2964.11142	32553.6375
2966.56239	32534.8375
2969.01186	32496.0375
2971.45984	32378.2375
2973.90632	32386.7375
2976.35131	32306.6375
2978.7948	32270.1375
2981.23681	32173.7375
2983.67732	32175.9375
2986.11635	32084.6375
2988.55388	32029.1375
2990.98993	31944.7375
2993.4245	31932.9375
2995.85758	31827.2375
2998.28917	31754.2375
3000.71928	31724.8375
3003.14791	31649.9375
3005.57506	31631.4375
3008.00073	31519.2375
3010.42493	31488.1375
3012.84764	31376.3375
3015.26888	31369.4375
3017.68865	31293.4375
3020.10694	31264.2375
3022.52376	31192.8375
3024.9391	31190.0375
3027.35298	31142.5375
3029.76539	31130.8375
3032.17632	31146.9375
3034.5858	31084.0375
3036.9938	31023.7375
3039.40034	31006.4375
3041.80542	31021.7375
3044.20903	30925.2375
3046.61118	30873.8375
3049.01187	30784.2375
3051.4111	30704.2375
3053.80888	30628.6375
3056.20519	30603.1375
3058.60005	30553.0375
3060.99345	30496.5375
3063.3854	30409.7375
3065.7759	30308.2375
3068.16494	30212.8375
3070.55254	30127.2375
3072.93868	30080.5375
3075.32338	29954.1375
3077.70662	29910.0375
3080.08842	29807.4375
3082.46878	29784.0375
3084.84769	29788.9375
3087.22515	29741.1375
3089.60118	29696.2375
3091.97576	29693.0375
3094.3489	29598.1375
3096.72061	29645.3375
3099.09087	29656.2375
3101.4597	29607.6375
3103.82709	29606.8375
3106.19305	29570.3375
3108.55757	29548.4375
3110.92066	29515.9375
3113.28232	29471.0375
3115.64255	29375.0375
3118.00134	29286.3375
3120.35871	29214.6375
3122.71466	29142.5375
3125.06917	29092.2375
3127.42226	29025.7375
3129.77393	29052.8375
3132.12417	28930.0375
3134.47299	28885.9375
3136.82039	28895.7375
3139.16636	28908.2375
3141.51092	28887.2375
3143.85406	28899.6375
3146.19579	28842.5375
3148.53609	28884.5375
3150.87499	28859.3375
3153.21246	28910.4375
3155.54853	28884.4375
3157.88318	28831.2375
3160.21642	28865.5375
3162.54826	28863.4375
3164.87868	28817.2375
3167.2077	28793.0375
3169.5353	28772.4375
3171.86151	28722.2375
3174.18631	28738.2375
3176.5097	28705.2375
3178.83169	28609.9375
3181.15228	28606.6375
3183.47147	28567.1375
3185.78926	28525.9375
3188.10565	28484.4375
3190.42065	28434.8375
3192.73424	28390.7375
3195.04645	28341.2375
3197.35725	28322.7375
3199.66667	28291.7375
3201.97469	28299.9375
3204.28132	28220.8375
3206.58656	28215.0375
3208.8904	28226.1375
3211.19287	28255.8375
3213.49394	28242.9375
3215.79363	28251.3375
3218.09193	28245.3375
3220.38884	28251.0375
3222.68438	28290.0375
3224.97853	28195.5375
3227.2713	28187.6375
3229.56269	28148.4375
3231.8527	28140.5375
3234.14133	28118.2375
3236.42858	28025.8375
3238.71446	27961.7375
3240.99896	27917.5375
3243.28209	27961.0375
3245.56384	27855.5375
3247.84423	27829.8375
3250.12324	27764.0375
3252.40088	27737.1375
3254.67715	27728.6375
3256.95205	27708.1375
3259.22558	27683.6375
3261.49775	27623.0375
3263.76855	27559.6375
3266.03799	27504.4375
3268.30606	27470.0375
3270.57277	27434.8375
3272.83812	27395.9375
3275.10211	27348.1375
3277.36474	27265.8375
3279.62601	27256.2375
3281.88593	27238.9375
3284.14448	27303.9375
3286.40168	27245.9375
3288.65753	27236.3375
3290.91202	27161.3375
3293.16516	27131.7375
3295.41695	27070.3375
3297.66738	26932.7375
3299.91647	26816.9375
3302.16421	26637.0375
3304.4106	26473.0375
3306.65564	26280.0375
3308.89933	26088.7375
3311.14169	25976.2375
3313.38269	25783.1375
3315.62236	25629.0375
3317.86068	25387.8375
3320.09766	25124.4375
3322.3333	24966.8375
3324.5676	24928.2375
3326.80056	24530.8375
3329.03219	24381.8375
3331.26248	7.1375
3333.49143	0.4375
3335.71905	-0.7625
