Data from AgNPs_FTO_APTES_UA_20uM_CRN_2uM_R6G_10uM_NaF_0.1M_Addition_RamanShift__5__12-46-22-069.txt Node

Date: Thu Feb 17 12:46:22 GMT 2022
User: TCL
Spectrometer: QEP01345
Trigger mode: 4
Integration Time (sec): 7.000000E0
Scans to average: 10
Electric dark correction enabled: true
Nonlinearity correction enabled: false
Boxcar width: 0
XAxis mode: Raman Shifts
Number of Pixels in Spectrum: 1044
>>>>>Begin Spectral Data<<<<<
46.04893	0.425
50.45542	-0.775
54.85868	-2.375
59.25871	-1.575
63.6555	117.325
68.04907	114.925
72.43941	121.525
76.82654	121.825
81.21044	129.325
85.59113	135.725
89.96862	131.325
94.34289	137.425
98.71396	144.125
103.08183	149.825
107.4465	150.625
111.80798	151.925
116.16626	160.625
120.52136	165.725
124.87327	174.025
129.222	188.925
133.56755	200.925
137.90993	215.725
142.24913	239.125
146.58517	272.225
150.91804	322.725
155.24774	386.925
159.57429	487.325
163.89768	631.125
168.21792	843.125
172.53501	1164.925
176.84895	1626.025
181.15975	2311.525
185.46741	3244.325
189.77193	4476.825
194.07331	6001.925
198.37157	7729.325
202.6667	9545.625
206.9587	11364.425
211.24758	13164.725
215.53334	14906.025
219.81599	16845.725
224.09553	18916.125
228.37195	21270.325
232.64527	23785.525
236.91549	26466.625
241.18261	29132.925
245.44663	31647.125
249.70755	33891.525
253.96539	35842.025
258.22014	37496.625
262.4718	38860.525
266.72039	39841.325
270.96589	40386.025
275.20832	40391.125
279.44768	40146.025
283.68397	39745.725
287.91719	39403.725
292.14735	39171.125
296.37445	39124.225
300.59849	39255.525
304.81948	39424.125
309.03742	39625.625
313.25231	39486.325
317.46415	39084.925
321.67296	38508.825
325.87872	37956.125
330.08145	37696.025
334.28114	37710.025
338.47781	37994.325
342.67145	38429.425
346.86207	39086.525
351.04966	39785.925
355.23424	40504.925
359.4158	41034.525
363.59435	41491.125
367.76989	41872.725
371.94243	42074.925
376.11196	42350.525
380.27849	42567.125
384.44203	42899.025
388.60257	43190.925
392.76012	43635.425
396.91468	44140.225
401.06626	44646.525
405.21485	45072.525
409.36047	44916.825
413.50311	44588.225
417.64277	44409.625
421.77947	44559.325
425.9132	44758.725
430.04396	45014.125
434.17176	45304.925
438.2966	45781.525
442.41849	46639.225
446.53742	48056.525
450.6534	49533.925
454.76644	50612.625
458.87653	50926.525
462.98368	50440.825
467.08789	49643.325
471.18916	48712.925
475.2875	47939.525
479.38291	47350.625
483.4754	46986.025
487.56496	46576.825
491.6516	46088.525
495.73531	45622.025
499.81612	45245.125
503.89401	45479.725
507.96899	45651.125
512.04106	45597.325
516.11023	45314.825
520.1765	44976.625
524.23987	44799.225
528.30034	44740.825
532.35792	44516.325
536.41261	44055.925
540.46441	43598.925
544.51333	43546.225
548.55936	43977.225
552.60252	44819.225
556.64279	46074.125
560.6802	46940.725
564.71473	47410.325
568.7464	48106.725
572.7752	49367.625
576.80114	50762.325
580.82422	52175.025
584.84444	53869.825
588.86181	56275.825
592.87633	58459.025
596.888	58288.625
600.89682	55672.725
604.9028	54646.025
608.90594	57107.225
612.90624	60009.625
616.90371	56660.125
620.89834	49375.425
624.89015	46229.025
628.87913	45811.225
632.86528	45870.525
636.84862	45714.325
640.82913	45040.625
644.80683	44138.825
648.78172	43589.225
652.75379	43558.925
656.72306	44165.925
660.68952	44828.725
664.65319	44597.625
668.61405	43893.725
672.57211	43824.325
676.52738	44075.825
680.47986	44038.825
684.42955	43800.725
688.37646	43653.625
692.32058	43999.125
696.26192	44629.025
700.20048	45333.725
704.13626	45671.725
708.06928	45627.625
711.99952	45439.025
715.927	45484.225
719.85171	45741.525
723.77365	45575.625
727.69284	45075.325
731.60928	44557.225
735.52295	44415.625
739.43388	44463.825
743.34206	44660.125
747.24749	44924.725
751.15017	45268.225
755.05012	45947.325
758.94733	47034.425
762.8418	48969.325
766.73354	51814.325
770.62254	54287.425
774.50882	54502.725
778.39237	52421.225
782.27321	49465.225
786.15132	47139.025
790.02671	45724.225
793.89938	44974.125
797.76935	44657.125
801.6366	44600.425
805.50115	44556.025
809.36299	44352.825
813.22213	44097.325
817.07857	43920.225
820.93231	43775.525
824.78336	43642.325
828.63172	43486.825
832.47738	43453.625
836.32036	43559.725
840.16066	43732.825
843.99827	43826.425
847.8332	43784.625
851.66546	43801.425
855.49504	43817.225
859.32195	43857.925
863.1462	43760.225
866.96777	43741.325
870.78668	43648.125
874.60293	43651.025
878.41652	43753.225
882.22745	43892.025
886.03573	44007.125
889.84136	44018.925
893.64433	43786.125
897.44466	43651.825
901.24235	43458.625
905.0374	43402.125
908.8298	43317.925
912.61957	43437.725
916.40671	43760.725
920.19121	44351.725
923.97308	44881.125
927.75233	44915.925
931.52895	44501.025
935.30295	43936.225
939.07433	43382.425
942.84309	42916.925
946.60924	42849.325
950.37278	42840.125
954.13371	42854.325
957.89203	42836.825
961.64774	42728.325
965.40086	42715.225
969.15137	42664.625
972.89929	42521.025
976.64461	42479.625
980.38733	42489.725
984.12747	42566.825
987.86502	42906.225
991.59999	43344.725
995.33237	43976.425
999.06217	44938.525
1002.78939	46120.025
1006.51404	47107.725
1010.23611	47997.725
1013.95561	48538.925
1017.67255	48682.825
1021.38692	48101.925
1025.09872	47257.525
1028.80796	46898.425
1032.51465	47275.925
1036.21877	47954.525
1039.92035	48112.425
1043.61937	47853.725
1047.31584	47313.525
1051.00976	46605.325
1054.70114	46338.425
1058.38998	46334.825
1062.07627	46520.625
1065.76003	46915.125
1069.44126	47448.425
1073.11995	48172.925
1076.79611	48779.925
1080.46974	49210.625
1084.14085	49644.625
1087.80943	50193.025
1091.47549	50517.125
1095.13903	50467.625
1098.80005	49837.725
1102.45857	49033.025
1106.11456	48389.925
1109.76805	48175.525
1113.41903	48340.825
1117.06751	48523.125
1120.71348	48843.325
1124.35696	49224.325
1127.99793	49501.225
1131.63641	49688.025
1135.2724	49592.425
1138.90589	49588.725
1142.5369	49671.225
1146.16542	49977.425
1149.79145	50289.125
1153.415	50818.025
1157.03607	51566.825
1160.65467	52906.525
1164.27079	54973.625
1167.88443	57686.625
1171.49561	60690.325
1175.10432	64357.025
1178.71056	69017.825
1182.31434	73372.125
1185.91565	75169.525
1189.51451	74326.525
1193.11091	72111.625
1196.70485	69658.725
1200.29634	67399.325
1203.88538	65928.325
1207.47197	65224.525
1211.05612	64575.725
1214.63782	63513.825
1218.21708	62361.425
1221.79391	61423.725
1225.36829	60809.125
1228.94024	60205.725
1232.50976	59042.325
1236.07685	57773.125
1239.6415	57051.625
1243.20374	56908.425
1246.76355	57371.225
1250.32093	58225.425
1253.8759	59444.325
1257.42845	60845.025
1260.97859	62452.525
1264.52631	64200.025
1268.07163	66103.625
1271.61453	67970.725
1275.15503	69730.325
1278.69312	71660.025
1282.22882	73363.725
1285.76211	75580.325
1289.29301	78306.625
1292.82151	81623.525
1296.34761	85772.325
1299.87133	90770.325
1303.39266	96193.325
1306.9116	101431.525
1310.42815	105672.825
1313.94233	107937.025
1317.45412	107378.325
1320.96354	105251.025
1324.47058	103080.325
1327.97525	101265.225
1331.47754	99640.725
1334.97747	98340.025
1338.47502	97132.125
1341.97022	95732.125
1345.46305	94187.325
1348.95352	92887.725
1352.44163	92741.925
1355.92738	94880.325
1359.41078	98817.725
1362.89183	101866.325
1366.37053	100417.325
1369.84688	93193.925
1373.32088	83796.025
1376.79254	77421.725
1380.26186	75296.825
1383.72883	75551.325
1387.19347	75924.325
1390.65578	75469.725
1394.11575	75415.025
1397.57339	76240.925
1401.0287	77635.325
1404.48168	78784.925
1407.93234	78873.725
1411.38068	77635.925
1414.82669	75554.325
1418.27039	72781.725
1421.71177	69990.725
1425.15083	67706.525
1428.58758	66756.025
1432.02203	67601.825
1435.45416	69504.425
1438.88399	71660.925
1442.31151	73148.325
1445.73673	73903.125
1449.15965	74135.825
1452.58027	73896.825
1455.9986	73462.925
1459.41463	73640.525
1462.82837	74650.025
1466.23982	75931.625
1469.64898	77243.525
1473.05586	78183.725
1476.46045	78466.525
1479.86276	77978.225
1483.26279	77169.225
1486.66054	76510.125
1490.05602	76692.025
1493.44922	77105.825
1496.84016	77568.625
1500.22882	78251.825
1503.61521	79585.225
1506.99934	81204.125
1510.38121	82426.125
1513.76081	82356.325
1517.13816	80687.925
1520.51324	78629.625
1523.88607	77303.725
1527.25665	77337.825
1530.62498	77997.925
1533.99105	78339.225
1537.35488	77787.025
1540.71647	76557.525
1544.07581	74672.825
1547.4329	72787.025
1550.78776	70927.525
1554.14038	69598.225
1557.49077	68768.725
1560.83892	68251.025
1564.18484	68059.625
1567.52853	68119.625
1570.86999	68595.325
1574.20922	69705.725
1577.54624	70642.125
1580.88103	71032.725
1584.2136	71943.725
1587.54395	74547.725
1590.87208	78991.025
1594.19801	84493.025
1597.52172	89594.525
1600.84321	91015.125
1604.16251	87065.125
1607.47959	79870.225
1610.79447	72466.625
1614.10715	66090.925
1617.41763	61231.525
1620.7259	58124.525
1624.03199	56809.525
1627.33587	56990.125
1630.63757	58764.125
1633.93707	62499.225
1637.23439	68815.225
1640.52951	78070.825
1643.82246	88750.225
1647.11321	96349.325
1650.40179	96234.125
1653.68819	87982.325
1656.97241	75952.425
1660.25446	65047.125
1663.53433	57437.725
1666.81203	52751.725
1670.08756	49812.925
1673.36092	48032.725
1676.63211	46809.825
1679.90115	45957.125
1683.16801	45222.925
1686.43272	44814.125
1689.69527	44488.325
1692.95567	44151.725
1696.2139	43962.925
1699.46999	43890.825
1702.72392	43735.725
1705.97571	43689.925
1709.22535	43577.825
1712.47284	43553.925
1715.71819	43560.825
1718.96139	43475.925
1722.20246	43325.025
1725.44139	43152.125
1728.67818	42933.725
1731.91284	42741.025
1735.14537	42533.825
1738.37576	42378.025
1741.60403	42279.625
1744.83017	42119.025
1748.05418	42001.825
1751.27607	41935.225
1754.49584	41894.125
1757.71349	41870.425
1760.92903	41847.125
1764.14244	41791.925
1767.35375	41739.725
1770.56294	41684.625
1773.77002	41683.725
1776.97499	41651.025
1780.17785	41591.625
1783.37861	41540.625
1786.57727	41464.825
1789.77382	41358.325
1792.96828	41379.725
1796.16064	41312.325
1799.3509	41217.525
1802.53907	41243.025
1805.72514	41096.225
1808.90913	41016.925
1812.09102	40926.825
1815.27083	40894.025
1818.44856	40809.325
1821.6242	40784.525
1824.79776	40786.625
1827.96924	40781.225
1831.13864	40716.225
1834.30597	40771.725
1837.47122	40697.025
1840.6344	40672.825
1843.7955	40702.025
1846.95454	40703.325
1850.11151	40678.025
1853.26642	40669.125
1856.41926	40640.625
1859.57004	40630.425
1862.71876	40530.425
1865.86542	40525.025
1869.01003	40470.125
1872.15258	40449.425
1875.29308	40445.125
1878.43152	40364.125
1881.56792	40379.325
1884.70227	40417.925
1887.83457	40407.825
1890.96482	40379.925
1894.09304	40309.425
1897.21921	40248.025
1900.34335	40195.025
1903.46544	40237.925
1906.58551	40223.625
1909.70353	40157.425
1912.81953	40173.025
1915.93349	40053.425
1919.04543	39944.825
1922.15534	39883.025
1925.26322	39854.025
1928.36908	39824.125
1931.47292	39716.925
1934.57473	39672.625
1937.67453	39594.525
1940.77232	39479.325
1943.86808	39371.225
1946.96184	39263.525
1950.05358	39175.325
1953.14331	39101.025
1956.23103	38996.325
1959.31675	38893.325
1962.40046	38808.325
1965.48217	38619.425
1968.56188	38535.425
1971.63959	38456.925
1974.7153	38398.725
1977.78901	38292.425
1980.86073	38164.025
1983.93046	38066.925
1986.99819	38008.025
1990.06394	37919.025
1993.1277	37874.925
1996.18947	37728.025
1999.24925	37726.325
2002.30706	37560.525
2005.36288	37425.625
2008.41672	37308.125
2011.46859	37216.425
2014.51848	37099.925
2017.56639	37045.925
2020.61233	36988.225
2023.6563	36835.725
2026.6983	36819.325
2029.73833	36754.925
2032.7764	36748.925
2035.8125	36661.025
2038.84664	36570.825
2041.87881	36601.325
2044.90903	36537.925
2047.93729	36400.625
2050.96359	36447.425
2053.98794	36373.425
2057.01034	36418.125
2060.03078	36376.525
2063.04927	36401.625
2066.06582	36388.625
2069.08042	36344.925
2072.09307	36314.825
2075.10378	36211.325
2078.11255	36207.525
2081.11938	36243.525
2084.12426	36228.025
2087.12722	36205.825
2090.12824	36237.325
2093.12732	36217.825
2096.12447	36260.925
2099.11969	36233.525
2102.11299	36231.725
2105.10435	36244.525
2108.09379	36288.525
2111.08131	36292.425
2114.0669	36273.125
2117.05057	36265.825
2120.03233	36298.025
2123.01216	36369.925
2125.99008	36441.525
2128.96609	36474.325
2131.94018	36530.125
2134.91236	36583.625
2137.88263	36632.525
2140.851	36621.625
2143.81746	36659.425
2146.78201	36624.525
2149.74466	36676.425
2152.7054	36719.525
2155.66425	36693.725
2158.6212	36709.425
2161.57625	36718.925
2164.52941	36689.525
2167.48067	36673.725
2170.43004	36627.525
2173.37752	36694.225
2176.32311	36710.625
2179.26681	36751.925
2182.20863	36716.525
2185.14856	36791.825
2188.08661	36776.525
2191.02278	36749.425
2193.95707	36728.325
2196.88948	36681.725
2199.82001	36707.125
2202.74867	36653.125
2205.67545	36659.725
2208.60037	36599.525
2211.52341	36573.625
2214.44458	36562.025
2217.36388	36528.225
2220.28132	36516.325
2223.1969	36392.425
2226.11061	36316.525
2229.02246	36188.425
2231.93245	36147.925
2234.84058	36105.625
2237.74686	36116.125
2240.65128	36130.525
2243.55385	36014.225
2246.45456	36045.925
2249.35343	35939.625
2252.25044	35914.725
2255.14561	35798.125
2258.03893	35802.625
2260.93041	35732.625
2263.82004	35626.925
2266.70783	35528.825
2269.59378	35485.225
2272.4779	35433.625
2275.36017	35357.525
2278.24061	35313.225
2281.11922	35272.925
2283.996	35198.425
2286.87094	35199.225
2289.74405	35219.325
2292.61534	35192.425
2295.4848	35209.525
2298.35243	35167.725
2301.21824	35125.925
2304.08223	35139.225
2306.94439	35178.025
2309.80474	35175.125
2312.66327	35191.325
2315.51999	35153.525
2318.37489	35111.525
2321.22797	35050.925
2324.07925	35097.125
2326.92871	34995.025
2329.77637	34985.325
2332.62222	34944.925
2335.46626	34920.325
2338.3085	34926.925
2341.14893	34916.225
2343.98756	34899.325
2346.8244	34931.025
2349.65943	34910.825
2352.49267	34936.425
2355.32411	34883.825
2358.15376	34839.125
2360.98161	34802.825
2363.80768	34789.425
2366.63195	34752.925
2369.45444	34778.025
2372.27514	34736.425
2375.09405	34694.825
2377.91118	34650.125
2380.72652	34546.725
2383.54009	34485.625
2386.35187	34433.725
2389.16188	34334.725
2391.97011	34281.325
2394.77657	34241.825
2397.58125	34270.725
2400.38416	34199.425
2403.18529	34151.325
2405.98466	34119.125
2408.78226	34011.325
2411.57809	33984.525
2414.37216	33985.325
2417.16446	33976.625
2419.955	33961.425
2422.74378	33954.725
2425.5308	33900.325
2428.31606	33894.025
2431.09956	33865.625
2433.88131	33880.325
2436.6613	33892.725
2439.43954	33900.125
2442.21603	33886.025
2444.99077	33858.225
2447.76377	33864.125
2450.53501	33785.025
2453.30451	33833.925
2456.07226	33786.825
2458.83827	33753.825
2461.60254	33765.425
2464.36507	33750.525
2467.12586	33761.725
2469.88492	33827.525
2472.64224	33778.025
2475.39782	33754.425
2478.15167	33833.025
2480.90379	33859.625
2483.65417	33861.025
2486.40283	33802.425
2489.14976	33879.225
2491.89497	33842.125
2494.63845	33902.425
2497.3802	33869.025
2500.12024	33870.825
2502.85855	33846.625
2505.59514	33806.025
2508.33002	33753.525
2511.06318	33775.225
2513.79462	33737.725
2516.52435	33718.425
2519.25237	33723.325
2521.97867	33657.725
2524.70327	33735.725
2527.42616	33657.225
2530.14734	33681.825
2532.86681	33624.125
2535.58458	33630.225
2538.30065	33613.925
2541.01501	33590.225
2543.72768	33584.925
2546.43864	33569.125
2549.14791	33510.325
2551.85548	33478.025
2554.56136	33432.725
2557.26554	33378.825
2559.96803	33328.725
2562.66883	33321.925
2565.36794	33320.525
2568.06536	33308.325
2570.7611	33262.525
2573.45514	33199.625
2576.14751	33185.825
2578.83819	33199.825
2581.52719	33195.925
2584.21451	33164.825
2586.90015	33140.225
2589.58411	33096.625
2592.2664	33134.025
2594.94701	33081.425
2597.62594	33112.125
2600.30321	33070.625
2602.9788	33105.525
2605.65273	33058.925
2608.32498	33096.125
2610.99557	33094.825
2613.66449	33086.825
2616.33175	33081.625
2618.99734	32983.925
2621.66128	32995.625
2624.32355	32945.925
2626.98416	32956.325
2629.64311	32933.825
2632.30041	32863.825
2634.95605	32862.925
2637.61004	32814.125
2640.26238	32801.125
2642.91306	32844.225
2645.56209	32782.325
2648.20948	32765.125
2650.85521	32801.825
2653.4993	32782.025
2656.14175	32814.025
2658.78255	32873.825
2661.42171	32900.325
2664.05923	32931.525
2666.6951	32909.525
2669.32934	32931.225
2671.96194	32934.525
2674.59291	32993.225
2677.22224	32975.525
2679.84993	33001.625
2682.476	32940.125
2685.10043	32914.025
2687.72324	32858.525
2690.34441	32913.925
2692.96396	32886.725
2695.58188	32937.925
2698.19818	32841.325
2700.81285	32878.225
2703.4259	32890.125
2706.03733	32954.625
2708.64714	32915.525
2711.25533	32963.125
2713.86191	32961.225
2716.46687	33060.325
2719.07021	33041.625
2721.67194	33039.325
2724.27206	33011.725
2726.87057	33074.125
2729.46747	33088.125
2732.06276	33086.025
2734.65644	33113.725
2737.24852	33181.925
2739.83899	33104.025
2742.42786	33131.125
2745.01513	33058.425
2747.60079	33076.625
2750.18486	33071.825
2752.76733	33050.325
2755.3482	33024.225
2757.92747	33008.425
2760.50515	32999.025
2763.08123	32958.625
2765.65573	32921.425
2768.22863	32945.125
2770.79994	32890.225
2773.36967	32963.125
2775.9378	32980.725
2778.50435	32972.425
2781.06932	32906.525
2783.6327	32923.925
2786.1945	32902.325
2788.75471	32866.525
2791.31335	32799.225
2793.87041	32759.625
2796.42589	32747.825
2798.97979	32684.125
2801.53212	32583.025
2804.08288	32541.725
2806.63206	32518.025
2809.17967	32469.025
2811.72571	32365.425
2814.27018	32286.025
2816.81308	32177.225
2819.35442	32132.725
2821.89419	32062.225
2824.43239	32080.925
2826.96904	32051.325
2829.50412	32050.325
2832.03763	31977.225
2834.56959	31977.125
2837.1	31903.425
2839.62884	31890.925
2842.15613	31849.125
2844.68186	31896.825
2847.20604	31847.225
2849.72867	31868.525
2852.24974	31798.825
2854.76927	31741.525
2857.28724	31753.325
2859.80367	31749.625
2862.31855	31735.025
2864.83189	31652.025
2867.34368	31641.125
2869.85393	31616.825
2872.36264	31599.125
2874.8698	31549.425
2877.37543	31506.825
2879.87952	31541.225
2882.38207	31544.625
2884.88308	31528.825
2887.38256	31560.725
2889.88051	31527.225
2892.37692	31565.425
2894.8718	31590.625
2897.36515	31600.925
2899.85698	31633.925
2902.34727	31647.925
2904.83604	31715.625
2907.32328	31752.125
2909.809	31740.625
2912.29319	31803.525
2914.77587	31779.925
2917.25702	31765.425
2919.73665	31757.125
2922.21476	31754.025
2924.69136	31725.325
2927.16644	31734.825
2929.64	31701.025
2932.11205	31670.025
2934.58258	31585.825
2937.05161	31637.225
2939.51912	31608.825
2941.98513	31606.525
2944.44962	31524.325
2946.91261	31487.425
2949.37409	31561.825
2951.83407	31494.525
2954.29254	31485.625
2956.74951	31451.425
2959.20498	31488.825
2961.65895	31494.725
2964.11142	31486.525
2966.56239	31478.825
2969.01186	31409.525
2971.45984	31309.525
2973.90632	31289.625
2976.35131	31253.825
2978.7948	31203.225
2981.23681	31175.725
2983.67732	31144.725
2986.11635	31060.625
2988.55388	30971.925
2990.98993	30932.225
2993.4245	30882.825
2995.85758	30822.625
2998.28917	30708.225
3000.71928	30707.025
3003.14791	30587.425
3005.57506	30579.525
3008.00073	30496.725
3010.42493	30480.225
3012.84764	30404.625
3015.26888	30414.225
3017.68865	30318.025
3020.10694	30283.625
3022.52376	30214.325
3024.9391	30150.725
3027.35298	30181.525
3029.76539	30110.325
3032.17632	30155.625
3034.5858	30133.525
3036.9938	30062.025
3039.40034	30096.125
3041.80542	30064.525
3044.20903	30016.325
3046.61118	29989.925
3049.01187	29889.525
3051.4111	29884.225
3053.80888	29755.825
3056.20519	29733.825
3058.60005	29688.225
3060.99345	29630.925
3063.3854	29585.725
3065.7759	29458.125
3068.16494	29421.325
3070.55254	29305.125
3072.93868	29248.725
3075.32338	29162.825
3077.70662	29064.825
3080.08842	29008.025
3082.46878	28934.525
3084.84769	28881.525
3087.22515	28900.225
3089.60118	28891.825
3091.97576	28891.225
3094.3489	28853.325
3096.72061	28857.025
3099.09087	28862.425
3101.4597	28850.225
3103.82709	28874.425
3106.19305	28814.825
3108.55757	28765.125
3110.92066	28765.525
3113.28232	28724.725
3115.64255	28643.625
3118.00134	28541.725
3120.35871	28415.825
3122.71466	28379.625
3125.06917	28363.925
3127.42226	28302.625
3129.77393	28298.025
3132.12417	28251.625
3134.47299	28225.125
3136.82039	28188.525
3139.16636	28190.425
3141.51092	28191.125
3143.85406	28188.425
3146.19579	28128.625
3148.53609	28133.225
3150.87499	28127.525
3153.21246	28114.225
3155.54853	28158.125
3157.88318	28117.225
3160.21642	28159.425
3162.54826	28124.925
3164.87868	28071.325
3167.2077	28073.525
3169.5353	28034.925
3171.86151	28034.025
3174.18631	28055.525
3176.5097	28060.925
3178.83169	27996.325
3181.15228	27971.325
3183.47147	27876.125
3185.78926	27867.925
3188.10565	27852.325
3190.42065	27818.025
3192.73424	27757.125
3195.04645	27703.625
3197.35725	27706.125
3199.66667	27700.325
3201.97469	27634.225
3204.28132	27614.225
3206.58656	27647.925
3208.8904	27599.825
3211.19287	27666.225
3213.49394	27613.025
3215.79363	27661.025
3218.09193	27688.425
3220.38884	27659.625
3222.68438	27678.425
3224.97853	27624.525
3227.2713	27618.225
3229.56269	27580.025
3231.8527	27577.125
3234.14133	27562.425
3236.42858	27478.225
3238.71446	27402.125
3240.99896	27396.625
3243.28209	27369.525
3245.56384	27347.425
3247.84423	27338.325
3250.12324	27268.925
3252.40088	27279.825
3254.67715	27255.625
3256.95205	27168.225
3259.22558	27198.425
3261.49775	27149.925
3263.76855	27119.025
3266.03799	27010.225
3268.30606	27016.525
3270.57277	26970.425
3272.83812	26892.925
3275.10211	26894.625
3277.36474	26807.725
3279.62601	26832.925
3281.88593	26794.625
3284.14448	26842.625
3286.40168	26809.625
3288.65753	26760.225
3290.91202	26772.825
3293.16516	26699.925
3295.41695	26674.725
3297.66738	26531.925
3299.91647	26326.625
3302.16421	26187.625
3304.4106	26090.225
3306.65564	25896.125
3308.89933	25730.125
3311.14169	25559.725
3313.38269	25354.625
3315.62236	25229.825
3317.86068	24976.825
3320.09766	24755.925
3322.3333	24621.725
3324.5676	24520.325
3326.80056	24143.125
3329.03219	23974.025
3331.26248	6.425
3333.49143	-0.175
3335.71905	-1.575
