Data from AgNPs_FTO_APTES_UA_20uM_CRN_100uM_R6G_10uM_NaF_0.1M_Addition_RamanShift__25__17-47-44-897.txt Node

Date: Thu Feb 17 17:47:44 GMT 2022
User: TCL
Spectrometer: QEP01345
Trigger mode: 4
Integration Time (sec): 1.000000E1
Scans to average: 7
Electric dark correction enabled: true
Nonlinearity correction enabled: false
Boxcar width: 0
XAxis mode: Raman Shifts
Number of Pixels in Spectrum: 1044
>>>>>Begin Spectral Data<<<<<
46.04893	0.35714
50.45542	-1.64286
54.85868	1.07143
59.25871	-1.64286
63.6555	63.07143
68.04907	64.78571
72.43941	67.78571
76.82654	71.64286
81.21044	77.35714
85.59113	77.92857
89.96862	80.5
94.34289	83.5
98.71396	85.35714
103.08183	86.78571
107.4465	95.35714
111.80798	88.64286
116.16626	96.64286
120.52136	91.07143
124.87327	103.5
129.222	100.21429
133.56755	102.64286
137.90993	117.21429
142.24913	125.07143
146.58517	133.07143
150.91804	153.64286
155.24774	179.64286
159.57429	222.35714
163.89768	282.35714
168.21792	364.64286
172.53501	489.64286
176.84895	680.92857
181.15975	959.64286
185.46741	1340.78571
189.77193	1876.64286
194.07331	2500.92857
198.37157	3248.64286
202.6667	4045.92857
206.9587	4827.35714
211.24758	5639.64286
215.53334	6475.5
219.81599	7431.5
224.09553	8515.92857
228.37195	9738.21429
232.64527	11081.21429
236.91549	12368.64286
241.18261	13560.64286
245.44663	14531.64286
249.70755	15351.5
253.96539	15980.5
258.22014	16447.5
262.4718	16726.35714
266.72039	16901.92857
270.96589	16886.92857
275.20832	16661.21429
279.44768	16258.21429
283.68397	15832.78571
287.91719	15545.92857
292.14735	15589.21429
296.37445	16113.78571
300.59849	17062.21429
304.81948	18264.92857
309.03742	19152.35714
313.25231	19330.78571
317.46415	18383.21429
321.67296	16638.78571
325.87872	15182.5
330.08145	14439.64286
334.28114	14441.07143
338.47781	14840.78571
342.67145	15399.07143
346.86207	16239.35714
351.04966	17597.5
355.23424	19118.64286
359.4158	20269.64286
363.59435	20789.64286
367.76989	20827.92857
371.94243	20729.78571
376.11196	20525.78571
380.27849	20332.35714
384.44203	19945.35714
388.60257	19514.07143
392.76012	19169.92857
396.91468	19246.07143
401.06626	19767.07143
405.21485	20159.35714
409.36047	19597.92857
413.50311	18273.35714
417.64277	16924.64286
421.77947	16116.21429
425.9132	15754.92857
430.04396	15674.07143
434.17176	15760.21429
438.2966	16075.35714
442.41849	16582.07143
446.53742	17161.64286
450.6534	17660.21429
454.76644	17972.78571
458.87653	17965.92857
462.98368	17684.07143
467.08789	17299.78571
471.18916	16804.92857
475.2875	16207.07143
479.38291	15785.07143
483.4754	15452.07143
487.56496	15242.07143
491.6516	15158.78571
495.73531	15126.07143
499.81612	15154.92857
503.89401	15389.35714
507.96899	15705.21429
512.04106	16182.64286
516.11023	16721.92857
520.1765	17093.92857
524.23987	17119.5
528.30034	16772.92857
532.35792	16367.64286
536.41261	15970.78571
540.46441	15490.21429
544.51333	15167.92857
548.55936	15173.07143
552.60252	15487.92857
556.64279	15904.64286
560.6802	16137.35714
564.71473	16516.78571
568.7464	17443.07143
572.7752	17917.5
576.80114	17033.35714
580.82422	15984.5
584.84444	15546.07143
588.86181	15445.21429
592.87633	15674.78571
596.888	15982.07143
600.89682	16743.07143
604.9028	19224.21429
608.90594	26419.07143
612.90624	36562.5
616.90371	35748.92857
620.89834	23530.78571
624.89015	17550.64286
628.87913	16387.07143
632.86528	16581.35714
636.84862	16952.92857
640.82913	16630.64286
644.80683	15678.64286
648.78172	15016.21429
652.75379	15023.21429
656.72306	15914.5
660.68952	16890.64286
664.65319	16672.07143
668.61405	15536.78571
672.57211	14993.35714
676.52738	14993.78571
680.47986	14987.5
684.42955	14864.5
688.37646	14768.35714
692.32058	14813.92857
696.26192	14963.92857
700.20048	15229.35714
704.13626	15348.35714
708.06928	15239.21429
711.99952	15053.64286
715.927	15064.78571
719.85171	15196.07143
723.77365	15236.92857
727.69284	15136.35714
731.60928	15047.64286
735.52295	15067.21429
739.43388	15072.92857
743.34206	15206.07143
747.24749	15184.5
751.15017	15271.07143
755.05012	15571.78571
758.94733	16546.5
762.8418	18791.5
766.73354	22548.21429
770.62254	26497.5
774.50882	29037.78571
778.39237	28437.64286
782.27321	24288.78571
786.15132	19708.92857
790.02671	17032.07143
793.89938	15901.07143
797.76935	15445.92857
801.6366	15264.35714
805.50115	15160.07143
809.36299	15139.5
813.22213	15074.92857
817.07857	15012.64286
820.93231	15012.64286
824.78336	15100.35714
828.63172	15148.92857
832.47738	15230.92857
836.32036	15174.92857
840.16066	15034.92857
843.99827	14965.78571
847.8332	14902.07143
851.66546	14913.35714
855.49504	14939.35714
859.32195	14946.78571
863.1462	14864.92857
866.96777	14812.5
870.78668	14820.07143
874.60293	14908.5
878.41652	15001.5
882.22745	15152.64286
886.03573	15225.92857
889.84136	15231.78571
893.64433	15114.5
897.44466	15096.21429
901.24235	15111.78571
905.0374	15003.21429
908.8298	14862.07143
912.61957	14801.35714
916.40671	14766.35714
920.19121	14840.07143
923.97308	14987.21429
927.75233	15263.35714
931.52895	15608.78571
935.30295	15477.78571
939.07433	14972.78571
942.84309	14519.64286
946.60924	14255.07143
950.37278	14115.92857
954.13371	14040.07143
957.89203	14026.5
961.64774	13949.35714
965.40086	13919.21429
969.15137	13914.5
972.89929	13850.64286
976.64461	13879.64286
980.38733	13871.92857
984.12747	13904.64286
987.86502	13963.5
991.59999	14094.78571
995.33237	14262.21429
999.06217	14527.92857
1002.78939	14926.78571
1006.51404	15236.64286
1010.23611	15608.78571
1013.95561	15794.07143
1017.67255	15799.78571
1021.38692	15614.35714
1025.09872	15395.35714
1028.80796	15332.5
1032.51465	15424.5
1036.21877	15661.92857
1039.92035	15811.64286
1043.61937	15774.5
1047.31584	15710.21429
1051.00976	15506.21429
1054.70114	15345.21429
1058.38998	15274.78571
1062.07627	15313.5
1065.76003	15307.35714
1069.44126	15317.5
1073.11995	15453.07143
1076.79611	15745.64286
1080.46974	16233.92857
1084.14085	16857.35714
1087.80943	17374.35714
1091.47549	17547.5
1095.13903	17143.35714
1098.80005	16392.64286
1102.45857	15957.35714
1106.11456	15871.5
1109.76805	16148.21429
1113.41903	16708.07143
1117.06751	17574.07143
1120.71348	18703.92857
1124.35696	19971.07143
1127.99793	20775.78571
1131.63641	20318.92857
1135.2724	18882.21429
1138.90589	17685.07143
1142.5369	16951.92857
1146.16542	16455.78571
1149.79145	16155.64286
1153.415	16123.92857
1157.03607	16204.64286
1160.65467	16452.07143
1164.27079	17070.35714
1167.88443	18010.92857
1171.49561	19568.35714
1175.10432	22230.35714
1178.71056	25907.21429
1182.31434	28700.21429
1185.91565	29309.5
1189.51451	28164.64286
1193.11091	26050.64286
1196.70485	23748.21429
1200.29634	22202.07143
1203.88538	21084.92857
1207.47197	19598.21429
1211.05612	18305.92857
1214.63782	17584.78571
1218.21708	17301.21429
1221.79391	17220.64286
1225.36829	17253.78571
1228.94024	17257.07143
1232.50976	17205.35714
1236.07685	17252.5
1239.6415	17391.21429
1243.20374	17588.64286
1246.76355	17770.78571
1250.32093	18098.35714
1253.8759	18461.35714
1257.42845	19062.78571
1260.97859	19704.64286
1264.52631	20382.64286
1268.07163	20977.92857
1271.61453	21472.92857
1275.15503	21717.07143
1278.69312	21805.07143
1282.22882	21968.21429
1285.76211	22476.92857
1289.29301	23276.5
1292.82151	24004.64286
1296.34761	24955.5
1299.87133	26426.35714
1303.39266	29119.92857
1306.9116	33364.64286
1310.42815	37699.35714
1313.94233	39338.64286
1317.45412	37032.5
1320.96354	32980.07143
1324.47058	29069.21429
1327.97525	26125.92857
1331.47754	24552.35714
1334.97747	24242.21429
1338.47502	24936.5
1341.97022	26404.5
1345.46305	28519.21429
1348.95352	31081.92857
1352.44163	34398.5
1355.92738	39241.64286
1359.41078	46178.64286
1362.89183	51225.21429
1366.37053	47914.78571
1369.84688	39425.92857
1373.32088	32011.64286
1376.79254	27242.5
1380.26186	24520.07143
1383.72883	22923.21429
1387.19347	21685.21429
1390.65578	20596.35714
1394.11575	19759.21429
1397.57339	19345.35714
1401.0287	19264.64286
1404.48168	19421.35714
1407.93234	19728.5
1411.38068	20200.5
1414.82669	20493.92857
1418.27039	20521.35714
1421.71177	20293.78571
1425.15083	20002.21429
1428.58758	19922.92857
1432.02203	20161.07143
1435.45416	20418.5
1438.88399	20384.5
1442.31151	20248.92857
1445.73673	20272.64286
1449.15965	20372.35714
1452.58027	20212.21429
1455.9986	19925.92857
1459.41463	19814.07143
1462.82837	19972.07143
1466.23982	20434.07143
1469.64898	20923.35714
1473.05586	21251.92857
1476.46045	21533.92857
1479.86276	22039.07143
1483.26279	22739.78571
1486.66054	23629.21429
1490.05602	24780.21429
1493.44922	26376.64286
1496.84016	28753.07143
1500.22882	32578.07143
1503.61521	37774.07143
1506.99934	43541.78571
1510.38121	48126.92857
1513.76081	48885.78571
1517.13816	44562.78571
1520.51324	37498.92857
1523.88607	31103.35714
1527.25665	27102.78571
1530.62498	24927.07143
1533.99105	23706.64286
1537.35488	22998.5
1540.71647	22767.21429
1544.07581	22847.92857
1547.4329	23055.92857
1550.78776	23218.64286
1554.14038	23220.64286
1557.49077	23394.21429
1560.83892	23704.21429
1564.18484	24493.64286
1567.52853	25519.64286
1570.86999	26383.21429
1574.20922	26761.64286
1577.54624	26455.5
1580.88103	24786.92857
1584.2136	22642.78571
1587.54395	21391.5
1590.87208	21438.5
1594.19801	22685.64286
1597.52172	24509.21429
1600.84321	25465.21429
1604.16251	24834.92857
1607.47959	23427.64286
1610.79447	21697.07143
1614.10715	19996.92857
1617.41763	18733.64286
1620.7259	17984.64286
1624.03199	17680.78571
1627.33587	17713.21429
1630.63757	18156.5
1633.93707	19003.5
1637.23439	20372.07143
1640.52951	22500.5
1643.82246	25722.78571
1647.11321	29553.35714
1650.40179	32212.07143
1653.68819	31161.92857
1656.97241	26730.64286
1660.25446	22137.78571
1663.53433	19055.35714
1666.81203	17287.21429
1670.08756	16253.64286
1673.36092	15613.64286
1676.63211	15239.92857
1679.90115	14928.78571
1683.16801	14730.21429
1686.43272	14571.07143
1689.69527	14455.21429
1692.95567	14380.64286
1696.2139	14300.78571
1699.46999	14333.78571
1702.72392	14255.5
1705.97571	14271.35714
1709.22535	14248.07143
1712.47284	14264.21429
1715.71819	14265.07143
1718.96139	14289.78571
1722.20246	14231.21429
1725.44139	14180.78571
1728.67818	14046.5
1731.91284	13990.35714
1735.14537	13869.92857
1738.37576	13814.21429
1741.60403	13745.5
1744.83017	13722.07143
1748.05418	13702.21429
1751.27607	13669.35714
1754.49584	13649.5
1757.71349	13591.78571
1760.92903	13572.07143
1764.14244	13565.92857
1767.35375	13547.64286
1770.56294	13459.78571
1773.77002	13455.35714
1776.97499	13416.78571
1780.17785	13369.5
1783.37861	13314.92857
1786.57727	13265.07143
1789.77382	13275.35714
1792.96828	13275.35714
1796.16064	13261.78571
1799.3509	13224.21429
1802.53907	13208.92857
1805.72514	13161.78571
1808.90913	13137.21429
1812.09102	13090.5
1815.27083	13081.64286
1818.44856	13037.07143
1821.6242	13012.07143
1824.79776	13000.5
1827.96924	12986.35714
1831.13864	12939.92857
1834.30597	12939.21429
1837.47122	12950.35714
1840.6344	12936.92857
1843.7955	12912.07143
1846.95454	12902.5
1850.11151	12909.78571
1853.26642	12852.5
1856.41926	12890.21429
1859.57004	12863.64286
1862.71876	12883.5
1865.86542	12868.92857
1869.01003	12915.64286
1872.15258	12929.35714
1875.29308	12900.64286
1878.43152	12858.78571
1881.56792	12906.21429
1884.70227	12901.35714
1887.83457	12864.64286
1890.96482	12877.5
1894.09304	12800.64286
1897.21921	12826.21429
1900.34335	12797.5
1903.46544	12790.07143
1906.58551	12797.5
1909.70353	12781.78571
1912.81953	12768.78571
1915.93349	12770.78571
1919.04543	12718.92857
1922.15534	12752.92857
1925.26322	12693.35714
1928.36908	12708.07143
1931.47292	12645.92857
1934.57473	12658.5
1937.67453	12591.35714
1940.77232	12554.64286
1943.86808	12514.07143
1946.96184	12508.78571
1950.05358	12442.07143
1953.14331	12412.78571
1956.23103	12419.78571
1959.31675	12370.21429
1962.40046	12350.21429
1965.48217	12306.35714
1968.56188	12306.92857
1971.63959	12284.5
1974.7153	12246.78571
1977.78901	12215.92857
1980.86073	12163.5
1983.93046	12115.78571
1986.99819	12056.5
1990.06394	12001.35714
1993.1277	12004.64286
1996.18947	11951.35714
1999.24925	11926.64286
2002.30706	11866.21429
2005.36288	11812.92857
2008.41672	11801.35714
2011.46859	11760.64286
2014.51848	11729.78571
2017.56639	11698.92857
2020.61233	11667.78571
2023.6563	11642.07143
2026.6983	11608.5
2029.73833	11572.07143
2032.7764	11561.64286
2035.8125	11543.92857
2038.84664	11506.92857
2041.87881	11511.35714
2044.90903	11470.21429
2047.93729	11477.92857
2050.96359	11452.92857
2053.98794	11447.35714
2057.01034	11435.35714
2060.03078	11408.92857
2063.04927	11387.35714
2066.06582	11390.92857
2069.08042	11340.5
2072.09307	11349.5
2075.10378	11366.78571
2078.11255	11357.07143
2081.11938	11360.92857
2084.12426	11320.07143
2087.12722	11340.64286
2090.12824	11332.35714
2093.12732	11352.92857
2096.12447	11319.64286
2099.11969	11325.92857
2102.11299	11336.35714
2105.10435	11367.78571
2108.09379	11322.5
2111.08131	11358.5
2114.0669	11361.5
2117.05057	11361.21429
2120.03233	11384.64286
2123.01216	11397.5
2125.99008	11416.78571
2128.96609	11430.78571
2131.94018	11445.21429
2134.91236	11440.21429
2137.88263	11449.21429
2140.851	11446.21429
2143.81746	11451.5
2146.78201	11467.64286
2149.74466	11439.5
2152.7054	11440.35714
2155.66425	11429.92857
2158.6212	11419.64286
2161.57625	11392.92857
2164.52941	11386.07143
2167.48067	11367.07143
2170.43004	11375.64286
2173.37752	11390.78571
2176.32311	11391.78571
2179.26681	11382.07143
2182.20863	11389.5
2185.14856	11420.21429
2188.08661	11390.78571
2191.02278	11387.64286
2193.95707	11391.35714
2196.88948	11355.21429
2199.82001	11348.07143
2202.74867	11349.64286
2205.67545	11338.07143
2208.60037	11341.92857
2211.52341	11319.78571
2214.44458	11262.92857
2217.36388	11282.64286
2220.28132	11249.5
2223.1969	11223.92857
2226.11061	11196.07143
2229.02246	11170.64286
2231.93245	11175.78571
2234.84058	11117.35714
2237.74686	11098.64286
2240.65128	11117.5
2243.55385	11092.5
2246.45456	11095.21429
2249.35343	11088.5
2252.25044	11084.92857
2255.14561	11068.78571
2258.03893	11102.92857
2260.93041	11070.35714
2263.82004	11051.5
2266.70783	11031.64286
2269.59378	10996.92857
2272.4779	10971.07143
2275.36017	10943.5
2278.24061	10942.21429
2281.11922	10887.07143
2283.996	10885.5
2286.87094	10873.07143
2289.74405	10858.35714
2292.61534	10825.64286
2295.4848	10821.07143
2298.35243	10810.35714
2301.21824	10786.92857
2304.08223	10777.64286
2306.94439	10793.78571
2309.80474	10757.78571
2312.66327	10789.5
2315.51999	10775.21429
2318.37489	10752.35714
2321.22797	10740.64286
2324.07925	10710.35714
2326.92871	10707.64286
2329.77637	10707.78571
2332.62222	10690.07143
2335.46626	10692.92857
2338.3085	10663.35714
2341.14893	10679.78571
2343.98756	10648.35714
2346.8244	10656.07143
2349.65943	10685.78571
2352.49267	10720.35714
2355.32411	10725.78571
2358.15376	10722.21429
2360.98161	10741.35714
2363.80768	10728.07143
2366.63195	10770.35714
2369.45444	10695.21429
2372.27514	10725.64286
2375.09405	10692.64286
2377.91118	10678.07143
2380.72652	10620.5
2383.54009	10579.5
2386.35187	10547.35714
2389.16188	10483.64286
2391.97011	10500.92857
2394.77657	10455.64286
2397.58125	10414.64286
2400.38416	10394.78571
2403.18529	10379.07143
2405.98466	10377.92857
2408.78226	10332.92857
2411.57809	10305.5
2414.37216	10319.5
2417.16446	10275.78571
2419.955	10276.35714
2422.74378	10267.64286
2425.5308	10235.5
2428.31606	10250.92857
2431.09956	10259.21429
2433.88131	10226.78571
2436.6613	10249.35714
2439.43954	10253.92857
2442.21603	10250.21429
2444.99077	10236.21429
2447.76377	10249.35714
2450.53501	10270.21429
2453.30451	10255.07143
2456.07226	10243.35714
2458.83827	10229.21429
2461.60254	10241.5
2464.36507	10198.92857
2467.12586	10203.64286
2469.88492	10193.78571
2472.64224	10164.5
2475.39782	10189.64286
2478.15167	10249.5
2480.90379	10251.5
2483.65417	10271.35714
2486.40283	10287.21429
2489.14976	10320.21429
2491.89497	10324.78571
2494.63845	10317.07143
2497.3802	10337.21429
2500.12024	10304.5
2502.85855	10265.21429
2505.59514	10198.35714
2508.33002	10183.78571
2511.06318	10158.5
2513.79462	10106.5
2516.52435	10023.64286
2519.25237	10053.5
2521.97867	10001.78571
2524.70327	9987.92857
2527.42616	9944.07143
2530.14734	9970.35714
2532.86681	9943.92857
2535.58458	9930.21429
2538.30065	9916.5
2541.01501	9941.92857
2543.72768	9944.5
2546.43864	9929.21429
2549.14791	9896.21429
2551.85548	9927.5
2554.56136	9887.5
2557.26554	9882.92857
2559.96803	9888.07143
2562.66883	9846.07143
2565.36794	9832.21429
2568.06536	9794.5
2570.7611	9810.35714
2573.45514	9808.21429
2576.14751	9763.78571
2578.83819	9779.5
2581.52719	9747.07143
2584.21451	9691.78571
2586.90015	9700.64286
2589.58411	9689.64286
2592.2664	9685.07143
2594.94701	9682.78571
2597.62594	9661.78571
2600.30321	9638.78571
2602.9788	9659.21429
2605.65273	9659.92857
2608.32498	9634.92857
2610.99557	9650.07143
2613.66449	9630.64286
2616.33175	9613.92857
2618.99734	9643.78571
2621.66128	9607.64286
2624.32355	9588.21429
2626.98416	9601.5
2629.64311	9574.92857
2632.30041	9570.5
2634.95605	9531.64286
2637.61004	9531.64286
2640.26238	9506.64286
2642.91306	9500.07143
2645.56209	9497.78571
2648.20948	9496.07143
2650.85521	9466.5
2653.4993	9474.92857
2656.14175	9464.92857
2658.78255	9493.21429
2661.42171	9467.5
2664.05923	9506.92857
2666.6951	9520.78571
2669.32934	9500.35714
2671.96194	9512.5
2674.59291	9523.5
2677.22224	9535.92857
2679.84993	9538.21429
2682.476	9521.07143
2685.10043	9528.35714
2687.72324	9509.35714
2690.34441	9497.64286
2692.96396	9525.21429
2695.58188	9513.07143
2698.19818	9485.5
2700.81285	9492.78571
2703.4259	9467.07143
2706.03733	9511.64286
2708.64714	9520.21429
2711.25533	9539.92857
2713.86191	9522.92857
2716.46687	9544.21429
2719.07021	9543.21429
2721.67194	9528.78571
2724.27206	9564.07143
2726.87057	9530.07143
2729.46747	9534.35714
2732.06276	9500.64286
2734.65644	9478.21429
2737.24852	9497.78571
2739.83899	9478.21429
2742.42786	9478.21429
2745.01513	9447.92857
2747.60079	9437.35714
2750.18486	9406.21429
2752.76733	9434.5
2755.3482	9423.21429
2757.92747	9390.5
2760.50515	9389.5
2763.08123	9385.78571
2765.65573	9370.5
2768.22863	9341.5
2770.79994	9343.07143
2773.36967	9373.07143
2775.9378	9357.78571
2778.50435	9334.07143
2781.06932	9325.64286
2783.6327	9329.92857
2786.1945	9313.92857
2788.75471	9319.64286
2791.31335	9293.92857
2793.87041	9314.78571
2796.42589	9305.07143
2798.97979	9277.5
2801.53212	9298.35714
2804.08288	9257.07143
2806.63206	9255.5
2809.17967	9260.64286
2811.72571	9255.78571
2814.27018	9267.35714
2816.81308	9259.35714
2819.35442	9226.35714
2821.89419	9239.35714
2824.43239	9274.21429
2826.96904	9238.5
2829.50412	9253.07143
2832.03763	9264.92857
2834.56959	9268.35714
2837.1	9262.5
2839.62884	9254.78571
2842.15613	9245.21429
2844.68186	9286.5
2847.20604	9334.64286
2849.72867	9349.78571
2852.24974	9354.5
2854.76927	9359.92857
2857.28724	9348.92857
2859.80367	9392.78571
2862.31855	9357.35714
2864.83189	9340.21429
2867.34368	9300.78571
2869.85393	9334.35714
2872.36264	9321.21429
2874.8698	9292.78571
2877.37543	9287.35714
2879.87952	9274.78571
2882.38207	9247.78571
2884.88308	9251.21429
2887.38256	9257.78571
2889.88051	9247.35714
2892.37692	9234.21429
2894.8718	9236.35714
2897.36515	9231.21429
2899.85698	9251.21429
2902.34727	9250.78571
2904.83604	9231.21429
2907.32328	9231.5
2909.809	9246.92857
2912.29319	9240.92857
2914.77587	9238.35714
2917.25702	9213.5
2919.73665	9218.21429
2922.21476	9218.5
2924.69136	9214.92857
2927.16644	9202.78571
2929.64	9187.78571
2932.11205	9158.64286
2934.58258	9121.07143
2937.05161	9139.21429
2939.51912	9117.35714
2941.98513	9080.07143
2944.44962	9074.92857
2946.91261	9019.5
2949.37409	9037.64286
2951.83407	9024.35714
2954.29254	9016.78571
2956.74951	8996.35714
2959.20498	8976.78571
2961.65895	8927.35714
2964.11142	8933.21429
2966.56239	8933.92857
2969.01186	8893.21429
2971.45984	8885.21429
2973.90632	8889.92857
2976.35131	8843.5
2978.7948	8804.07143
2981.23681	8813.21429
2983.67732	8821.35714
2986.11635	8784.5
2988.55388	8757.35714
2990.98993	8760.5
2993.4245	8744.78571
2995.85758	8725.21429
2998.28917	8708.92857
3000.71928	8696.92857
3003.14791	8693.35714
3005.57506	8663.64286
3008.00073	8664.92857
3010.42493	8640.21429
3012.84764	8652.64286
3015.26888	8625.92857
3017.68865	8612.78571
3020.10694	8596.21429
3022.52376	8608.21429
3024.9391	8580.78571
3027.35298	8561.5
3029.76539	8547.21429
3032.17632	8542.21429
3034.5858	8512.5
3036.9938	8517.21429
3039.40034	8506.07143
3041.80542	8490.07143
3044.20903	8473.35714
3046.61118	8433.64286
3049.01187	8453.07143
3051.4111	8442.92857
3053.80888	8423.5
3056.20519	8409.78571
3058.60005	8370.21429
3060.99345	8378.21429
3063.3854	8340.07143
3065.7759	8315.5
3068.16494	8299.78571
3070.55254	8263.35714
3072.93868	8263.78571
3075.32338	8219.92857
3077.70662	8199.78571
3080.08842	8188.21429
3082.46878	8149.35714
3084.84769	8143.92857
3087.22515	8133.64286
3089.60118	8171.64286
3091.97576	8155.64286
3094.3489	8176.21429
3096.72061	8144.64286
3099.09087	8113.92857
3101.4597	8140.21429
3103.82709	8145.21429
3106.19305	8120.5
3108.55757	8146.64286
3110.92066	8118.21429
3113.28232	8132.92857
3115.64255	8092.5
3118.00134	8056.92857
3120.35871	8061.21429
3122.71466	8072.5
3125.06917	8071.07143
3127.42226	8036.5
3129.77393	8029.5
3132.12417	8036.35714
3134.47299	8041.78571
3136.82039	8040.5
3139.16636	8049.07143
3141.51092	8045.35714
3143.85406	8043.64286
3146.19579	8053.78571
3148.53609	8045.5
3150.87499	8064.64286
3153.21246	8107.07143
3155.54853	8095.92857
3157.88318	8096.35714
3160.21642	8117.35714
3162.54826	8115.78571
3164.87868	8130.07143
3167.2077	8138.35714
3169.5353	8102.35714
3171.86151	8131.92857
3174.18631	8121.21429
3176.5097	8117.78571
3178.83169	8081.78571
3181.15228	8136.35714
3183.47147	8074.78571
3185.78926	8115.5
3188.10565	8096.5
3190.42065	8078.21429
3192.73424	8107.64286
3195.04645	8084.35714
3197.35725	8097.64286
3199.66667	8081.92857
3201.97469	8128.21429
3204.28132	8094.92857
3206.58656	8112.78571
3208.8904	8133.5
3211.19287	8137.78571
3213.49394	8155.21429
3215.79363	8178.78571
3218.09193	8181.35714
3220.38884	8159.92857
3222.68438	8199.07143
3224.97853	8174.35714
3227.2713	8189.35714
3229.56269	8174.92857
3231.8527	8184.07143
3234.14133	8153.35714
3236.42858	8121.5
3238.71446	8125.35714
3240.99896	8096.07143
3243.28209	8074.5
3245.56384	8087.5
3247.84423	8089.78571
3250.12324	8053.35714
3252.40088	8078.21429
3254.67715	8056.07143
3256.95205	8060.21429
3259.22558	8082.21429
3261.49775	8052.78571
3263.76855	8049.35714
3266.03799	8015.21429
3268.30606	8022.21429
3270.57277	8006.78571
3272.83812	8005.07143
3275.10211	7986.78571
3277.36474	7976.64286
3279.62601	7962.5
3281.88593	7964.92857
3284.14448	7967.35714
3286.40168	7952.07143
3288.65753	7942.92857
3290.91202	7957.78571
3293.16516	7917.64286
3295.41695	7929.78571
3297.66738	7871.64286
3299.91647	7827.5
3302.16421	7795.35714
3304.4106	7779.5
3306.65564	7717.64286
3308.89933	7651.78571
3311.14169	7582.5
3313.38269	7581.5
3315.62236	7512.92857
3317.86068	7410.92857
3320.09766	7409.07143
3322.3333	7349.07143
3324.5676	7304.92857
3326.80056	7183.07143
3329.03219	7150.21429
3331.26248	0.21429
3333.49143	0.35714
3335.71905	0.07143
