Data from AgNPs_FTO_APTES_UA_20uM_CRN_1000uM_R6G_10uM_NaF_0.1M_Addition_RamanShift__11__19-24-35-019.txt Node

Date: Thu Feb 17 19:24:35 GMT 2022
User: TCL
Spectrometer: QEP01345
Trigger mode: 4
Integration Time (sec): 1.000000E1
Scans to average: 7
Electric dark correction enabled: true
Nonlinearity correction enabled: false
Boxcar width: 0
XAxis mode: Raman Shifts
Number of Pixels in Spectrum: 1044
>>>>>Begin Spectral Data<<<<<
46.04893	-0.33929
50.45542	-0.48214
54.85868	-0.48214
59.25871	-0.91071
63.6555	60.80357
68.04907	60.23214
72.43941	65.80357
76.82654	67.80357
81.21044	71.375
85.59113	69.23214
89.96862	73.51786
94.34289	71.94643
98.71396	85.08929
103.08183	84.94643
107.4465	82.80357
111.80798	83.08929
116.16626	86.375
120.52136	93.08929
124.87327	95.51786
129.222	94.08929
133.56755	100.80357
137.90993	111.08929
142.24913	116.08929
146.58517	132.80357
150.91804	145.80357
155.24774	167.375
159.57429	207.66071
163.89768	266.94643
168.21792	348.23214
172.53501	480.375
176.84895	653.80357
181.15975	942.08929
185.46741	1326.51786
189.77193	1836.08929
194.07331	2491.66071
198.37157	3223.94643
202.6667	4010.80357
206.9587	4798.23214
211.24758	5550.23214
215.53334	6315.94643
219.81599	7097.08929
224.09553	7956.23214
228.37195	8916.08929
232.64527	9966.94643
236.91549	11074.08929
241.18261	12174.66071
245.44663	13285.94643
249.70755	14277.80357
253.96539	15090.08929
258.22014	15766.51786
262.4718	16328.23214
266.72039	16673.94643
270.96589	16809.94643
275.20832	16788.80357
279.44768	16622.08929
283.68397	16353.66071
287.91719	16133.80357
292.14735	15972.08929
296.37445	15864.66071
300.59849	15810.23214
304.81948	15835.08929
309.03742	15875.51786
313.25231	15908.66071
317.46415	15810.94643
321.67296	15633.94643
325.87872	15404.80357
330.08145	15349.66071
334.28114	15370.51786
338.47781	15513.51786
342.67145	15632.94643
346.86207	15878.08929
351.04966	16164.375
355.23424	16441.80357
359.4158	16697.80357
363.59435	16881.94643
367.76989	17050.94643
371.94243	17194.94643
376.11196	17277.94643
380.27849	17391.375
384.44203	17480.23214
388.60257	17598.51786
392.76012	17730.51786
396.91468	17882.375
401.06626	18081.94643
405.21485	18232.23214
409.36047	18264.375
413.50311	18081.375
417.64277	17912.375
421.77947	17833.80357
425.9132	17874.23214
430.04396	17948.80357
434.17176	18068.94643
438.2966	18217.94643
442.41849	18422.23214
446.53742	18676.08929
450.6534	18953.08929
454.76644	19152.375
458.87653	19240.23214
462.98368	19304.375
467.08789	19284.66071
471.18916	19191.23214
475.2875	19022.66071
479.38291	18855.94643
483.4754	18719.375
487.56496	18618.23214
491.6516	18572.94643
495.73531	18607.08929
499.81612	18579.23214
503.89401	18631.08929
507.96899	18722.94643
512.04106	18756.51786
516.11023	18814.51786
520.1765	18823.94643
524.23987	18892.80357
528.30034	18860.94643
532.35792	18838.375
536.41261	18799.375
540.46441	18688.08929
544.51333	18666.66071
548.55936	18734.23214
552.60252	18880.08929
556.64279	19093.51786
560.6802	19190.375
564.71473	19192.94643
568.7464	19254.51786
572.7752	19390.08929
576.80114	19460.94643
580.82422	19602.94643
584.84444	19749.80357
588.86181	20029.51786
592.87633	20187.94643
596.888	20410.08929
600.89682	20522.08929
604.9028	20979.66071
608.90594	22272.08929
612.90624	23762.23214
616.90371	23155.94643
620.89834	20787.23214
624.89015	19554.94643
628.87913	19321.23214
632.86528	19441.94643
636.84862	19607.94643
640.82913	19523.66071
644.80683	19301.66071
648.78172	19141.375
652.75379	19113.66071
656.72306	19253.51786
660.68952	19529.375
664.65319	19495.08929
668.61405	19339.375
672.57211	19357.66071
676.52738	19466.80357
680.47986	19555.66071
684.42955	19544.51786
688.37646	19504.94643
692.32058	19484.66071
696.26192	19500.51786
700.20048	19625.23214
704.13626	19659.375
708.06928	19651.94643
711.99952	19543.80357
715.927	19507.23214
719.85171	19476.23214
723.77365	19519.51786
727.69284	19443.375
731.60928	19371.08929
735.52295	19311.80357
739.43388	19364.375
743.34206	19363.66071
747.24749	19419.51786
751.15017	19460.66071
755.05012	19593.08929
758.94733	19811.51786
762.8418	20379.23214
766.73354	21301.23214
770.62254	22229.51786
774.50882	22670.08929
778.39237	22247.375
782.27321	21302.08929
786.15132	20418.94643
790.02671	19809.80357
793.89938	19484.66071
797.76935	19293.66071
801.6366	19247.23214
805.50115	19197.80357
809.36299	19154.80357
813.22213	19114.66071
817.07857	19074.94643
820.93231	19047.66071
824.78336	19065.51786
828.63172	19030.80357
832.47738	19051.94643
836.32036	19052.375
840.16066	19060.08929
843.99827	19065.08929
847.8332	19073.375
851.66546	19117.80357
855.49504	19125.375
859.32195	19151.51786
863.1462	19156.375
866.96777	19179.80357
870.78668	19190.23214
874.60293	19234.51786
878.41652	19214.94643
882.22745	19293.66071
886.03573	19308.66071
889.84136	19315.51786
893.64433	19301.375
897.44466	19275.375
901.24235	19261.08929
905.0374	19257.375
908.8298	19223.51786
912.61957	19117.80357
916.40671	19122.94643
920.19121	19210.08929
923.97308	19271.375
927.75233	19287.08929
931.52895	19214.66071
935.30295	19185.94643
939.07433	19001.51786
942.84309	18913.94643
946.60924	18831.66071
950.37278	18731.80357
954.13371	18707.94643
957.89203	18728.51786
961.64774	18685.375
965.40086	18636.51786
969.15137	18651.94643
972.89929	18629.66071
976.64461	18596.51786
980.38733	18636.94643
984.12747	18613.94643
987.86502	18682.51786
991.59999	18736.23214
995.33237	18763.23214
999.06217	18867.66071
1002.78939	19020.94643
1006.51404	19155.375
1010.23611	19351.94643
1013.95561	19467.80357
1017.67255	19503.66071
1021.38692	19510.80357
1025.09872	19383.66071
1028.80796	19234.80357
1032.51465	19126.80357
1036.21877	19125.80357
1039.92035	19161.23214
1043.61937	19271.80357
1047.31584	19289.94643
1051.00976	19386.23214
1054.70114	19406.94643
1058.38998	19456.66071
1062.07627	19490.375
1065.76003	19563.08929
1069.44126	19644.51786
1073.11995	19791.375
1076.79611	19977.08929
1080.46974	20023.23214
1084.14085	20118.66071
1087.80943	20146.94643
1091.47549	20227.23214
1095.13903	20177.23214
1098.80005	20097.80357
1102.45857	19959.51786
1106.11456	19856.375
1109.76805	19795.08929
1113.41903	19811.66071
1117.06751	19880.375
1120.71348	20037.80357
1124.35696	20241.66071
1127.99793	20395.08929
1131.63641	20432.66071
1135.2724	20378.51786
1138.90589	20189.66071
1142.5369	20085.23214
1146.16542	20048.94643
1149.79145	19998.66071
1153.415	19985.94643
1157.03607	20040.23214
1160.65467	20193.66071
1164.27079	20421.375
1167.88443	20792.51786
1171.49561	21339.08929
1175.10432	22040.51786
1178.71056	22959.66071
1182.31434	23846.08929
1185.91565	24366.08929
1189.51451	24560.375
1193.11091	24454.08929
1196.70485	24148.94643
1200.29634	23686.51786
1203.88538	23155.66071
1207.47197	22564.375
1211.05612	22059.51786
1214.63782	21654.80357
1218.21708	21398.80357
1221.79391	21201.51786
1225.36829	21177.66071
1228.94024	21171.66071
1232.50976	21133.51786
1236.07685	21079.94643
1239.6415	21056.08929
1243.20374	21084.23214
1246.76355	21162.08929
1250.32093	21183.51786
1253.8759	21376.80357
1257.42845	21612.51786
1260.97859	21846.51786
1264.52631	22141.08929
1268.07163	22352.51786
1271.61453	22575.23214
1275.15503	22717.80357
1278.69312	22904.51786
1282.22882	23032.23214
1285.76211	23196.66071
1289.29301	23467.08929
1292.82151	23780.08929
1296.34761	24253.66071
1299.87133	24737.51786
1303.39266	25319.80357
1306.9116	26093.80357
1310.42815	26936.23214
1313.94233	27449.94643
1317.45412	27347.94643
1320.96354	26907.80357
1324.47058	26380.94643
1327.97525	25829.94643
1331.47754	25445.94643
1334.97747	25297.08929
1338.47502	25459.80357
1341.97022	25784.94643
1345.46305	26319.51786
1348.95352	26955.80357
1352.44163	27719.51786
1355.92738	28369.23214
1359.41078	29215.08929
1362.89183	30000.94643
1366.37053	29648.23214
1369.84688	27938.80357
1373.32088	25832.08929
1376.79254	24252.375
1380.26186	23412.51786
1383.72883	22942.08929
1387.19347	22568.94643
1390.65578	22264.66071
1394.11575	21922.80357
1397.57339	21724.375
1401.0287	21621.66071
1404.48168	21612.23214
1407.93234	21562.51786
1411.38068	21579.375
1414.82669	21551.23214
1418.27039	21399.51786
1421.71177	21233.23214
1425.15083	21008.94643
1428.58758	20815.375
1432.02203	20739.66071
1435.45416	20813.51786
1438.88399	20880.375
1442.31151	20953.375
1445.73673	21016.51786
1449.15965	21079.08929
1452.58027	21117.80357
1455.9986	21110.08929
1459.41463	21205.94643
1462.82837	21312.51786
1466.23982	21576.08929
1469.64898	21868.08929
1473.05586	22143.80357
1476.46045	22297.80357
1479.86276	22492.51786
1483.26279	22520.51786
1486.66054	22707.51786
1490.05602	22918.94643
1493.44922	23372.94643
1496.84016	23952.23214
1500.22882	24699.23214
1503.61521	25738.66071
1506.99934	26700.80357
1510.38121	27375.94643
1513.76081	27300.51786
1517.13816	26582.51786
1520.51324	25441.375
1523.88607	24465.375
1527.25665	23806.375
1530.62498	23487.08929
1533.99105	23255.375
1537.35488	23154.80357
1540.71647	23023.08929
1544.07581	22774.66071
1547.4329	22630.94643
1550.78776	22374.66071
1554.14038	22196.51786
1557.49077	22123.375
1560.83892	22176.51786
1564.18484	22266.94643
1567.52853	22451.375
1570.86999	22583.66071
1574.20922	22799.66071
1577.54624	22763.23214
1580.88103	22490.375
1584.2136	22114.80357
1587.54395	21824.375
1590.87208	21880.51786
1594.19801	22270.375
1597.52172	22889.08929
1600.84321	23243.66071
1604.16251	23189.375
1607.47959	22804.66071
1610.79447	22199.66071
1614.10715	21551.23214
1617.41763	20851.23214
1620.7259	20291.94643
1624.03199	19840.23214
1627.33587	19643.08929
1630.63757	19696.375
1633.93707	19916.51786
1637.23439	20476.375
1640.52951	21353.66071
1643.82246	22557.375
1647.11321	23760.66071
1650.40179	24455.94643
1653.68819	24135.23214
1656.97241	22853.08929
1660.25446	21296.80357
1663.53433	20067.23214
1666.81203	19178.23214
1670.08756	18650.66071
1673.36092	18230.94643
1676.63211	17972.375
1679.90115	17798.375
1683.16801	17686.51786
1686.43272	17510.80357
1689.69527	17445.23214
1692.95567	17322.51786
1696.2139	17283.94643
1699.46999	17260.94643
1702.72392	17221.80357
1705.97571	17191.23214
1709.22535	17211.80357
1712.47284	17168.08929
1715.71819	17152.51786
1718.96139	17121.08929
1722.20246	17090.51786
1725.44139	17001.23214
1728.67818	16982.94643
1731.91284	16889.375
1735.14537	16893.94643
1738.37576	16839.66071
1741.60403	16745.375
1744.83017	16704.51786
1748.05418	16640.66071
1751.27607	16671.80357
1754.49584	16634.08929
1757.71349	16585.23214
1760.92903	16610.80357
1764.14244	16600.66071
1767.35375	16587.66071
1770.56294	16576.375
1773.77002	16482.23214
1776.97499	16458.08929
1780.17785	16440.51786
1783.37861	16389.375
1786.57727	16337.94643
1789.77382	16305.08929
1792.96828	16300.08929
1796.16064	16205.80357
1799.3509	16170.51786
1802.53907	16149.66071
1805.72514	16119.51786
1808.90913	16064.94643
1812.09102	16038.51786
1815.27083	16012.94643
1818.44856	16006.51786
1821.6242	15962.23214
1824.79776	15946.94643
1827.96924	15951.375
1831.13864	15904.23214
1834.30597	15869.23214
1837.47122	15872.80357
1840.6344	15890.94643
1843.7955	15863.08929
1846.95454	15794.375
1850.11151	15819.23214
1853.26642	15782.375
1856.41926	15777.23214
1859.57004	15764.51786
1862.71876	15713.08929
1865.86542	15728.51786
1869.01003	15732.66071
1872.15258	15686.23214
1875.29308	15679.375
1878.43152	15684.80357
1881.56792	15650.08929
1884.70227	15611.94643
1887.83457	15633.51786
1890.96482	15567.375
1894.09304	15562.80357
1897.21921	15526.375
1900.34335	15518.94643
1903.46544	15511.375
1906.58551	15478.08929
1909.70353	15434.23214
1912.81953	15429.23214
1915.93349	15382.51786
1919.04543	15379.66071
1922.15534	15325.23214
1925.26322	15317.51786
1928.36908	15332.23214
1931.47292	15306.08929
1934.57473	15262.51786
1937.67453	15259.66071
1940.77232	15193.51786
1943.86808	15137.66071
1946.96184	15095.66071
1950.05358	15018.375
1953.14331	15043.94643
1956.23103	15017.08929
1959.31675	14964.08929
1962.40046	14902.94643
1965.48217	14867.51786
1968.56188	14809.94643
1971.63959	14768.23214
1974.7153	14714.94643
1977.78901	14670.94643
1980.86073	14664.08929
1983.93046	14582.51786
1986.99819	14560.66071
1990.06394	14501.80357
1993.1277	14452.80357
1996.18947	14423.80357
1999.24925	14387.94643
2002.30706	14321.94643
2005.36288	14260.94643
2008.41672	14197.23214
2011.46859	14146.80357
2014.51848	14134.94643
2017.56639	14082.23214
2020.61233	14033.94643
2023.6563	13990.80357
2026.6983	13939.94643
2029.73833	13952.80357
2032.7764	13899.66071
2035.8125	13868.51786
2038.84664	13809.375
2041.87881	13821.80357
2044.90903	13764.23214
2047.93729	13739.08929
2050.96359	13741.66071
2053.98794	13712.08929
2057.01034	13710.51786
2060.03078	13713.51786
2063.04927	13693.375
2066.06582	13668.94643
2069.08042	13639.51786
2072.09307	13633.375
2075.10378	13630.08929
2078.11255	13642.80357
2081.11938	13611.66071
2084.12426	13638.08929
2087.12722	13606.66071
2090.12824	13601.94643
2093.12732	13632.66071
2096.12447	13635.08929
2099.11969	13619.51786
2102.11299	13606.51786
2105.10435	13592.80357
2108.09379	13592.375
2111.08131	13648.94643
2114.0669	13621.51786
2117.05057	13645.94643
2120.03233	13660.375
2123.01216	13663.80357
2125.99008	13679.94643
2128.96609	13716.23214
2131.94018	13718.80357
2134.91236	13717.375
2137.88263	13718.08929
2140.851	13689.94643
2143.81746	13722.94643
2146.78201	13670.80357
2149.74466	13718.23214
2152.7054	13735.66071
2155.66425	13720.94643
2158.6212	13709.08929
2161.57625	13714.23214
2164.52941	13691.94643
2167.48067	13677.08929
2170.43004	13678.23214
2173.37752	13680.94643
2176.32311	13649.66071
2179.26681	13654.80357
2182.20863	13669.94643
2185.14856	13669.375
2188.08661	13592.94643
2191.02278	13643.94643
2193.95707	13622.80357
2196.88948	13607.66071
2199.82001	13589.08929
2202.74867	13577.23214
2205.67545	13568.23214
2208.60037	13534.66071
2211.52341	13559.375
2214.44458	13534.23214
2217.36388	13463.66071
2220.28132	13437.80357
2223.1969	13388.66071
2226.11061	13395.23214
2229.02246	13338.51786
2231.93245	13317.51786
2234.84058	13271.80357
2237.74686	13278.66071
2240.65128	13304.66071
2243.55385	13261.51786
2246.45456	13255.51786
2249.35343	13240.23214
2252.25044	13175.94643
2255.14561	13182.66071
2258.03893	13200.94643
2260.93041	13148.375
2263.82004	13125.80357
2266.70783	13083.51786
2269.59378	13036.375
2272.4779	13016.51786
2275.36017	13017.94643
2278.24061	12961.23214
2281.11922	12922.51786
2283.996	12941.66071
2286.87094	12894.66071
2289.74405	12883.375
2292.61534	12827.51786
2295.4848	12842.23214
2298.35243	12826.375
2301.21824	12864.66071
2304.08223	12809.66071
2306.94439	12792.51786
2309.80474	12763.66071
2312.66327	12743.66071
2315.51999	12727.66071
2318.37489	12732.375
2321.22797	12692.80357
2324.07925	12712.94643
2326.92871	12647.375
2329.77637	12617.375
2332.62222	12612.375
2335.46626	12606.375
2338.3085	12587.51786
2341.14893	12558.80357
2343.98756	12597.51786
2346.8244	12542.375
2349.65943	12515.375
2352.49267	12516.80357
2355.32411	12500.23214
2358.15376	12489.80357
2360.98161	12485.66071
2363.80768	12491.80357
2366.63195	12472.80357
2369.45444	12446.94643
2372.27514	12425.23214
2375.09405	12427.375
2377.91118	12382.08929
2380.72652	12391.80357
2383.54009	12347.66071
2386.35187	12315.23214
2389.16188	12263.375
2391.97011	12283.66071
2394.77657	12248.08929
2397.58125	12219.23214
2400.38416	12225.375
2403.18529	12220.23214
2405.98466	12160.80357
2408.78226	12145.51786
2411.57809	12121.08929
2414.37216	12113.375
2417.16446	12125.66071
2419.955	12086.94643
2422.74378	12064.23214
2425.5308	12053.08929
2428.31606	12078.375
2431.09956	12055.51786
2433.88131	11983.375
2436.6613	12007.08929
2439.43954	12021.08929
2442.21603	11982.08929
2444.99077	11961.66071
2447.76377	11964.08929
2450.53501	11953.94643
2453.30451	11945.80357
2456.07226	11924.375
2458.83827	11903.51786
2461.60254	11900.94643
2464.36507	11858.66071
2467.12586	11838.08929
2469.88492	11833.51786
2472.64224	11835.66071
2475.39782	11806.66071
2478.15167	11787.08929
2480.90379	11841.08929
2483.65417	11823.80357
2486.40283	11805.94643
2489.14976	11778.94643
2491.89497	11801.08929
2494.63845	11806.08929
2497.3802	11770.66071
2500.12024	11751.23214
2502.85855	11718.23214
2505.59514	11728.08929
2508.33002	11708.375
2511.06318	11707.08929
2513.79462	11681.94643
2516.52435	11643.23214
2519.25237	11674.94643
2521.97867	11607.80357
2524.70327	11609.375
2527.42616	11599.94643
2530.14734	11559.66071
2532.86681	11550.51786
2535.58458	11567.23214
2538.30065	11512.23214
2541.01501	11504.80357
2543.72768	11514.51786
2546.43864	11476.66071
2549.14791	11503.23214
2551.85548	11433.375
2554.56136	11403.94643
2557.26554	11390.375
2559.96803	11406.51786
2562.66883	11345.375
2565.36794	11328.51786
2568.06536	11291.94643
2570.7611	11303.51786
2573.45514	11280.08929
2576.14751	11229.375
2578.83819	11214.94643
2581.52719	11185.66071
2584.21451	11197.80357
2586.90015	11183.51786
2589.58411	11141.94643
2592.2664	11129.66071
2594.94701	11116.08929
2597.62594	11066.08929
2600.30321	11041.51786
2602.9788	10995.23214
2605.65273	10972.66071
2608.32498	11004.08929
2610.99557	10986.08929
2613.66449	10995.94643
2616.33175	10932.375
2618.99734	10952.80357
2621.66128	10941.94643
2624.32355	10897.08929
2626.98416	10864.51786
2629.64311	10891.08929
2632.30041	10862.94643
2634.95605	10832.80357
2637.61004	10805.80357
2640.26238	10789.23214
2642.91306	10799.94643
2645.56209	10792.08929
2648.20948	10791.08929
2650.85521	10773.51786
2653.4993	10774.23214
2656.14175	10758.66071
2658.78255	10789.66071
2661.42171	10757.08929
2664.05923	10799.08929
2666.6951	10795.94643
2669.32934	10776.23214
2671.96194	10764.23214
2674.59291	10776.94643
2677.22224	10760.23214
2679.84993	10760.66071
2682.476	10734.375
2685.10043	10752.51786
2687.72324	10729.23214
2690.34441	10726.23214
2692.96396	10741.80357
2695.58188	10723.23214
2698.19818	10716.08929
2700.81285	10715.23214
2703.4259	10698.66071
2706.03733	10709.94643
2708.64714	10713.51786
2711.25533	10697.66071
2713.86191	10708.23214
2716.46687	10710.375
2719.07021	10725.66071
2721.67194	10702.375
2724.27206	10722.66071
2726.87057	10706.80357
2729.46747	10660.375
2732.06276	10719.23214
2734.65644	10677.94643
2737.24852	10679.66071
2739.83899	10668.94643
2742.42786	10669.94643
2745.01513	10619.94643
2747.60079	10583.94643
2750.18486	10618.23214
2752.76733	10571.80357
2755.3482	10586.80357
2757.92747	10603.66071
2760.50515	10558.94643
2763.08123	10552.23214
2765.65573	10515.94643
2768.22863	10496.94643
2770.79994	10465.51786
2773.36967	10497.51786
2775.9378	10476.23214
2778.50435	10434.08929
2781.06932	10416.80357
2783.6327	10413.80357
2786.1945	10425.23214
2788.75471	10365.08929
2791.31335	10331.51786
2793.87041	10332.66071
2796.42589	10322.94643
2798.97979	10324.08929
2801.53212	10297.375
2804.08288	10264.80357
2806.63206	10212.94643
2809.17967	10219.80357
2811.72571	10180.80357
2814.27018	10161.51786
2816.81308	10134.51786
2819.35442	10139.66071
2821.89419	10135.94643
2824.43239	10101.51786
2826.96904	10101.66071
2829.50412	10062.80357
2832.03763	10049.94643
2834.56959	10043.375
2837.1	10068.94643
2839.62884	10050.08929
2842.15613	10018.23214
2844.68186	10034.66071
2847.20604	10019.94643
2849.72867	10035.66071
2852.24974	10022.94643
2854.76927	10007.23214
2857.28724	9956.51786
2859.80367	9932.375
2862.31855	9910.375
2864.83189	9913.08929
2867.34368	9886.94643
2869.85393	9901.66071
2872.36264	9897.375
2874.8698	9877.66071
2877.37543	9855.66071
2879.87952	9856.94643
2882.38207	9897.23214
2884.88308	9816.08929
2887.38256	9842.94643
2889.88051	9854.375
2892.37692	9842.375
2894.8718	9836.08929
2897.36515	9848.375
2899.85698	9827.94643
2902.34727	9855.375
2904.83604	9870.23214
2907.32328	9887.51786
2909.809	9864.80357
2912.29319	9915.08929
2914.77587	9893.375
2917.25702	9900.80357
2919.73665	9907.08929
2922.21476	9905.51786
2924.69136	9890.80357
2927.16644	9893.375
2929.64	9853.08929
2932.11205	9841.66071
2934.58258	9830.23214
2937.05161	9872.08929
2939.51912	9848.80357
2941.98513	9846.94643
2944.44962	9794.80357
2946.91261	9803.66071
2949.37409	9825.80357
2951.83407	9783.375
2954.29254	9781.08929
2956.74951	9774.375
2959.20498	9774.08929
2961.65895	9747.80357
2964.11142	9730.66071
2966.56239	9743.08929
2969.01186	9706.94643
2971.45984	9698.80357
2973.90632	9672.94643
2976.35131	9683.66071
2978.7948	9650.66071
2981.23681	9610.80357
2983.67732	9599.66071
2986.11635	9579.08929
2988.55388	9561.80357
2990.98993	9547.66071
2993.4245	9553.51786
2995.85758	9496.375
2998.28917	9487.08929
3000.71928	9469.375
3003.14791	9441.66071
3005.57506	9466.23214
3008.00073	9419.94643
3010.42493	9409.375
3012.84764	9398.08929
3015.26888	9394.375
3017.68865	9374.94643
3020.10694	9350.375
3022.52376	9331.66071
3024.9391	9331.66071
3027.35298	9306.08929
3029.76539	9333.66071
3032.17632	9290.66071
3034.5858	9269.80357
3036.9938	9293.94643
3039.40034	9271.375
3041.80542	9261.51786
3044.20903	9210.08929
3046.61118	9214.80357
3049.01187	9209.66071
3051.4111	9189.66071
3053.80888	9195.66071
3056.20519	9163.08929
3058.60005	9134.80357
3060.99345	9145.94643
3063.3854	9140.66071
3065.7759	9086.80357
3068.16494	9056.66071
3070.55254	9035.66071
3072.93868	9039.51786
3075.32338	9038.66071
3077.70662	9015.08929
3080.08842	8977.94643
3082.46878	8941.51786
3084.84769	8961.08929
3087.22515	8982.51786
3089.60118	8977.375
3091.97576	8958.375
3094.3489	8974.375
3096.72061	8965.51786
3099.09087	8991.66071
3101.4597	8977.23214
3103.82709	8966.23214
3106.19305	8951.80357
3108.55757	8959.23214
3110.92066	8942.94643
3113.28232	8929.08929
3115.64255	8922.51786
3118.00134	8911.66071
3120.35871	8891.51786
3122.71466	8879.80357
3125.06917	8864.94643
3127.42226	8867.51786
3129.77393	8852.66071
3132.12417	8866.94643
3134.47299	8852.94643
3136.82039	8837.80357
3139.16636	8856.51786
3141.51092	8842.80357
3143.85406	8829.94643
3146.19579	8889.08929
3148.53609	8843.08929
3150.87499	8885.375
3153.21246	8836.23214
3155.54853	8869.08929
3157.88318	8885.80357
3160.21642	8912.66071
3162.54826	8914.94643
3164.87868	8887.66071
3167.2077	8890.23214
3169.5353	8887.94643
3171.86151	8878.80357
3174.18631	8899.51786
3176.5097	8918.08929
3178.83169	8890.51786
3181.15228	8892.08929
3183.47147	8834.80357
3185.78926	8847.375
3188.10565	8811.375
3190.42065	8834.51786
3192.73424	8849.375
3195.04645	8816.80357
3197.35725	8813.51786
3199.66667	8813.51786
3201.97469	8813.23214
3204.28132	8831.66071
3206.58656	8832.51786
3208.8904	8856.80357
3211.19287	8840.94643
3213.49394	8844.51786
3215.79363	8857.23214
3218.09193	8858.375
3220.38884	8839.51786
3222.68438	8889.375
3224.97853	8885.08929
3227.2713	8858.66071
3229.56269	8843.51786
3231.8527	8840.80357
3234.14133	8798.23214
3236.42858	8786.51786
3238.71446	8745.51786
3240.99896	8734.08929
3243.28209	8725.23214
3245.56384	8718.51786
3247.84423	8734.51786
3250.12324	8722.80357
3252.40088	8708.66071
3254.67715	8701.23214
3256.95205	8722.375
3259.22558	8706.51786
3261.49775	8684.94643
3263.76855	8672.51786
3266.03799	8659.08929
3268.30606	8671.66071
3270.57277	8648.80357
3272.83812	8613.375
3275.10211	8612.94643
3277.36474	8580.94643
3279.62601	8581.23214
3281.88593	8575.51786
3284.14448	8513.51786
3286.40168	8539.375
3288.65753	8572.94643
3290.91202	8557.51786
3293.16516	8504.23214
3295.41695	8504.80357
3297.66738	8473.375
3299.91647	8410.80357
3302.16421	8383.94643
3304.4106	8320.80357
3306.65564	8289.80357
3308.89933	8199.51786
3311.14169	8191.375
3313.38269	8099.23214
3315.62236	8074.80357
3317.86068	7978.94643
3320.09766	7925.375
3322.3333	7879.94643
3324.5676	7839.80357
3326.80056	7714.51786
3329.03219	7701.375
3331.26248	1.51786
3333.49143	0.51786
3335.71905	0.23214
