Data from AgNPs_FTO_APTES_UA_10uM_CRN_50uM_R6G_10uM_NaF_0.1M_Addition_RamanShift__11__16-48-14-823.txt Node

Date: Thu Feb 17 16:48:14 GMT 2022
User: TCL
Spectrometer: QEP01345
Trigger mode: 4
Integration Time (sec): 1.000000E1
Scans to average: 7
Electric dark correction enabled: true
Nonlinearity correction enabled: false
Boxcar width: 0
XAxis mode: Raman Shifts
Number of Pixels in Spectrum: 1044
>>>>>Begin Spectral Data<<<<<
46.04893	0.19643
50.45542	-1.66071
54.85868	-0.80357
59.25871	-0.66071
63.6555	60.625
68.04907	58.91071
72.43941	65.33929
76.82654	68.05357
81.21044	71.48214
85.59113	71.76786
89.96862	74.91071
94.34289	77.76786
98.71396	89.05357
103.08183	82.05357
107.4465	92.05357
111.80798	88.05357
116.16626	87.19643
120.52136	91.19643
124.87327	96.91071
129.222	96.76786
133.56755	98.625
137.90993	110.48214
142.24913	113.625
146.58517	121.625
150.91804	136.76786
155.24774	163.19643
159.57429	191.48214
163.89768	243.625
168.21792	318.91071
172.53501	431.91071
176.84895	597.05357
181.15975	843.76786
185.46741	1197.76786
189.77193	1645.91071
194.07331	2214.76786
198.37157	2873.91071
202.6667	3555.48214
206.9587	4236.76786
211.24758	4900.19643
215.53334	5585.76786
219.81599	6248.76786
224.09553	7001.625
228.37195	7801.19643
232.64527	8742.48214
236.91549	9724.625
241.18261	10703.05357
245.44663	11681.33929
249.70755	12575.76786
253.96539	13418.33929
258.22014	14073.19643
262.4718	14539.33929
266.72039	14883.19643
270.96589	15094.76786
275.20832	15099.48214
279.44768	14941.91071
283.68397	14684.33929
287.91719	14476.76786
292.14735	14284.33929
296.37445	14198.91071
300.59849	14197.05357
304.81948	14164.91071
309.03742	14139.76786
313.25231	14078.48214
317.46415	13978.76786
321.67296	13793.33929
325.87872	13639.625
330.08145	13605.33929
334.28114	13734.625
338.47781	13850.48214
342.67145	14032.33929
346.86207	14257.33929
351.04966	14497.48214
355.23424	14788.625
359.4158	15027.76786
363.59435	15225.05357
367.76989	15431.33929
371.94243	15592.91071
376.11196	15701.19643
380.27849	15777.33929
384.44203	15899.05357
388.60257	15985.625
392.76012	16091.33929
396.91468	16247.33929
401.06626	16438.625
405.21485	16563.91071
409.36047	16548.91071
413.50311	16474.33929
417.64277	16320.48214
421.77947	16234.05357
425.9132	16267.05357
430.04396	16309.91071
434.17176	16395.48214
438.2966	16495.05357
442.41849	16602.76786
446.53742	16795.05357
450.6534	16962.625
454.76644	17115.91071
458.87653	17247.76786
462.98368	17247.76786
467.08789	17325.05357
471.18916	17333.48214
475.2875	17204.05357
479.38291	17138.625
483.4754	17081.05357
487.56496	17039.33929
491.6516	17089.33929
495.73531	17085.91071
499.81612	17087.19643
503.89401	17185.19643
507.96899	17245.19643
512.04106	17329.19643
516.11023	17375.625
520.1765	17394.19643
524.23987	17437.48214
528.30034	17428.33929
532.35792	17390.91071
536.41261	17354.76786
540.46441	17282.33929
544.51333	17271.05357
548.55936	17297.48214
552.60252	17407.48214
556.64279	17546.91071
560.6802	17650.48214
564.71473	17658.48214
568.7464	17652.05357
572.7752	17722.76786
576.80114	17645.19643
580.82422	17703.91071
584.84444	17780.33929
588.86181	17808.91071
592.87633	17836.625
596.888	17900.48214
600.89682	18139.33929
604.9028	18582.48214
608.90594	19776.48214
612.90624	21213.91071
616.90371	20807.625
620.89834	18907.33929
624.89015	18065.05357
628.87913	17916.33929
632.86528	17999.76786
636.84862	18150.76786
640.82913	18162.76786
644.80683	18002.91071
648.78172	17878.91071
652.75379	17936.19643
656.72306	18057.05357
660.68952	18294.625
664.65319	18298.625
668.61405	18201.48214
672.57211	18183.48214
676.52738	18260.19643
680.47986	18335.76786
684.42955	18317.05357
688.37646	18306.76786
692.32058	18334.76786
696.26192	18425.19643
700.20048	18476.48214
704.13626	18525.625
708.06928	18497.05357
711.99952	18388.76786
715.927	18380.19643
719.85171	18379.625
723.77365	18378.76786
727.69284	18393.48214
731.60928	18313.91071
735.52295	18317.19643
739.43388	18286.33929
743.34206	18272.05357
747.24749	18324.625
751.15017	18373.33929
755.05012	18410.48214
758.94733	18542.76786
762.8418	18887.33929
766.73354	19550.48214
770.62254	20220.76786
774.50882	20608.05357
778.39237	20454.48214
782.27321	19803.05357
786.15132	19167.05357
790.02671	18740.91071
793.89938	18490.05357
797.76935	18379.33929
801.6366	18367.19643
805.50115	18296.48214
809.36299	18291.19643
813.22213	18254.76786
817.07857	18263.76786
820.93231	18273.05357
824.78336	18298.05357
828.63172	18342.05357
832.47738	18348.91071
836.32036	18343.33929
840.16066	18338.19643
843.99827	18313.33929
847.8332	18346.48214
851.66546	18328.05357
855.49504	18381.91071
859.32195	18421.05357
863.1462	18423.76786
866.96777	18418.625
870.78668	18413.33929
874.60293	18508.05357
878.41652	18540.33929
882.22745	18589.33929
886.03573	18566.05357
889.84136	18576.19643
893.64433	18556.33929
897.44466	18511.05357
901.24235	18518.05357
905.0374	18496.05357
908.8298	18478.91071
912.61957	18431.05357
916.40671	18442.91071
920.19121	18445.05357
923.97308	18437.91071
927.75233	18475.19643
931.52895	18495.33929
935.30295	18469.625
939.07433	18385.33929
942.84309	18275.05357
946.60924	18204.76786
950.37278	18167.625
954.13371	18128.48214
957.89203	18144.05357
961.64774	18103.625
965.40086	18078.76786
969.15137	18067.33929
972.89929	18035.19643
976.64461	18031.33929
980.38733	18054.91071
984.12747	18069.91071
987.86502	18055.48214
991.59999	18081.48214
995.33237	18123.76786
999.06217	18164.05357
1002.78939	18309.625
1006.51404	18413.91071
1010.23611	18485.48214
1013.95561	18567.05357
1017.67255	18613.91071
1021.38692	18584.76786
1025.09872	18553.91071
1028.80796	18482.33929
1032.51465	18417.48214
1036.21877	18434.05357
1039.92035	18460.625
1043.61937	18505.48214
1047.31584	18507.05357
1051.00976	18598.19643
1054.70114	18624.05357
1058.38998	18624.76786
1062.07627	18712.625
1065.76003	18771.48214
1069.44126	18820.91071
1073.11995	18978.19643
1076.79611	19123.33929
1080.46974	19225.19643
1084.14085	19199.91071
1087.80943	19246.625
1091.47549	19268.625
1095.13903	19243.19643
1098.80005	19206.625
1102.45857	19165.91071
1106.11456	19051.91071
1109.76805	19002.91071
1113.41903	18947.625
1117.06751	19004.05357
1120.71348	19081.91071
1124.35696	19198.625
1127.99793	19337.19643
1131.63641	19394.91071
1135.2724	19254.33929
1138.90589	19126.625
1142.5369	18944.48214
1146.16542	18867.91071
1149.79145	18849.91071
1153.415	18772.76786
1157.03607	18731.05357
1160.65467	18769.48214
1164.27079	18889.76786
1167.88443	19105.05357
1171.49561	19440.625
1175.10432	19915.05357
1178.71056	20609.05357
1182.31434	21146.625
1185.91565	21500.05357
1189.51451	21574.19643
1193.11091	21407.625
1196.70485	21122.05357
1200.29634	20832.33929
1203.88538	20497.33929
1207.47197	20093.19643
1211.05612	19742.05357
1214.63782	19531.91071
1218.21708	19400.48214
1221.79391	19259.625
1225.36829	19226.625
1228.94024	19185.76786
1232.50976	19224.625
1236.07685	19222.76786
1239.6415	19289.05357
1243.20374	19378.625
1246.76355	19402.48214
1250.32093	19419.625
1253.8759	19543.48214
1257.42845	19677.48214
1260.97859	19875.91071
1264.52631	20064.76786
1268.07163	20171.33929
1271.61453	20293.19643
1275.15503	20397.76786
1278.69312	20451.76786
1282.22882	20493.91071
1285.76211	20512.33929
1289.29301	20653.05357
1292.82151	20765.625
1296.34761	20928.05357
1299.87133	21140.33929
1303.39266	21573.33929
1306.9116	22117.91071
1310.42815	22711.91071
1313.94233	23079.48214
1317.45412	22921.625
1320.96354	22623.76786
1324.47058	22234.19643
1327.97525	21847.19643
1331.47754	21519.76786
1334.97747	21396.05357
1338.47502	21445.05357
1341.97022	21723.05357
1345.46305	22091.48214
1348.95352	22629.19643
1352.44163	23134.91071
1355.92738	23622.76786
1359.41078	24277.19643
1362.89183	24869.19643
1366.37053	24626.05357
1369.84688	23297.33929
1373.32088	21921.19643
1376.79254	20885.19643
1380.26186	20263.05357
1383.72883	19955.05357
1387.19347	19613.76786
1390.65578	19308.91071
1394.11575	19068.19643
1397.57339	18885.33929
1401.0287	18785.625
1404.48168	18710.76786
1407.93234	18658.19643
1411.38068	18704.91071
1414.82669	18740.33929
1418.27039	18685.76786
1421.71177	18665.91071
1425.15083	18599.19643
1428.58758	18528.48214
1432.02203	18451.76786
1435.45416	18448.625
1438.88399	18482.19643
1442.31151	18426.625
1445.73673	18430.05357
1449.15965	18449.48214
1452.58027	18455.48214
1455.9986	18514.625
1459.41463	18556.625
1462.82837	18623.76786
1466.23982	18795.625
1469.64898	18969.48214
1473.05586	19165.33929
1476.46045	19249.91071
1479.86276	19408.76786
1483.26279	19492.625
1486.66054	19622.91071
1490.05602	19836.91071
1493.44922	20161.33929
1496.84016	20659.76786
1500.22882	21403.48214
1503.61521	22417.19643
1506.99934	23319.19643
1510.38121	23936.625
1513.76081	23800.05357
1517.13816	23075.05357
1520.51324	22060.76786
1523.88607	21120.19643
1527.25665	20479.625
1530.62498	20060.91071
1533.99105	19805.05357
1537.35488	19749.91071
1540.71647	19628.625
1544.07581	19577.91071
1547.4329	19533.48214
1550.78776	19528.33929
1554.14038	19527.48214
1557.49077	19534.48214
1560.83892	19538.91071
1564.18484	19730.33929
1567.52853	19871.05357
1570.86999	20062.76786
1574.20922	20122.05357
1577.54624	20155.76786
1580.88103	19863.76786
1584.2136	19518.76786
1587.54395	19231.48214
1590.87208	19227.625
1594.19801	19427.625
1597.52172	19762.625
1600.84321	19977.33929
1604.16251	19899.05357
1607.47959	19741.91071
1610.79447	19406.76786
1614.10715	19042.19643
1617.41763	18703.05357
1620.7259	18346.625
1624.03199	18153.91071
1627.33587	18062.625
1630.63757	18060.91071
1633.93707	18170.05357
1637.23439	18443.91071
1640.52951	18904.05357
1643.82246	19568.76786
1647.11321	20309.33929
1650.40179	20837.625
1653.68819	20657.48214
1656.97241	19828.19643
1660.25446	18874.48214
1663.53433	18163.48214
1666.81203	17663.91071
1670.08756	17354.05357
1673.36092	17144.19643
1676.63211	17022.05357
1679.90115	16954.33929
1683.16801	16894.91071
1686.43272	16790.33929
1689.69527	16762.19643
1692.95567	16699.19643
1696.2139	16685.19643
1699.46999	16655.91071
1702.72392	16661.19643
1705.97571	16620.76786
1709.22535	16637.76786
1712.47284	16649.05357
1715.71819	16600.76786
1718.96139	16661.19643
1722.20246	16565.76786
1725.44139	16547.05357
1728.67818	16553.76786
1731.91284	16424.33929
1735.14537	16411.91071
1738.37576	16358.76786
1741.60403	16338.19643
1744.83017	16266.76786
1748.05418	16278.05357
1751.27607	16262.76786
1754.49584	16240.05357
1757.71349	16207.625
1760.92903	16233.48214
1764.14244	16204.33929
1767.35375	16190.76786
1770.56294	16174.76786
1773.77002	16127.33929
1776.97499	16107.05357
1780.17785	16094.91071
1783.37861	16079.05357
1786.57727	16015.91071
1789.77382	16021.76786
1792.96828	15982.19643
1796.16064	15967.33929
1799.3509	15926.48214
1802.53907	15887.33929
1805.72514	15833.625
1808.90913	15840.48214
1812.09102	15802.91071
1815.27083	15786.19643
1818.44856	15793.625
1821.6242	15726.91071
1824.79776	15756.48214
1827.96924	15711.625
1831.13864	15656.05357
1834.30597	15635.48214
1837.47122	15655.91071
1840.6344	15627.76786
1843.7955	15649.05357
1846.95454	15615.76786
1850.11151	15555.91071
1853.26642	15590.48214
1856.41926	15581.76786
1859.57004	15542.48214
1862.71876	15537.76786
1865.86542	15562.05357
1869.01003	15547.19643
1872.15258	15508.91071
1875.29308	15471.33929
1878.43152	15456.625
1881.56792	15473.19643
1884.70227	15428.91071
1887.83457	15405.48214
1890.96482	15412.91071
1894.09304	15366.625
1897.21921	15345.48214
1900.34335	15361.48214
1903.46544	15339.625
1906.58551	15308.76786
1909.70353	15286.91071
1912.81953	15252.05357
1915.93349	15267.05357
1919.04543	15245.91071
1922.15534	15221.91071
1925.26322	15163.625
1928.36908	15123.05357
1931.47292	15117.19643
1934.57473	15074.76786
1937.67453	15055.76786
1940.77232	15050.33929
1943.86808	15021.48214
1946.96184	14940.625
1950.05358	14901.625
1953.14331	14852.76786
1956.23103	14832.625
1959.31675	14794.625
1962.40046	14788.76786
1965.48217	14711.19643
1968.56188	14681.33929
1971.63959	14641.76786
1974.7153	14594.19643
1977.78901	14548.76786
1980.86073	14541.625
1983.93046	14487.48214
1986.99819	14406.05357
1990.06394	14358.91071
1993.1277	14324.76786
1996.18947	14279.91071
1999.24925	14257.33929
2002.30706	14227.625
2005.36288	14140.48214
2008.41672	14128.33929
2011.46859	14098.19643
2014.51848	14084.91071
2017.56639	14022.91071
2020.61233	13960.91071
2023.6563	13927.33929
2026.6983	13887.625
2029.73833	13867.05357
2032.7764	13822.91071
2035.8125	13793.625
2038.84664	13754.19643
2041.87881	13752.48214
2044.90903	13689.19643
2047.93729	13721.48214
2050.96359	13684.76786
2053.98794	13654.48214
2057.01034	13645.91071
2060.03078	13640.19643
2063.04927	13593.625
2066.06582	13620.33929
2069.08042	13571.76786
2072.09307	13573.76786
2075.10378	13600.48214
2078.11255	13555.625
2081.11938	13574.33929
2084.12426	13569.91071
2087.12722	13570.625
2090.12824	13544.05357
2093.12732	13551.76786
2096.12447	13575.48214
2099.11969	13542.33929
2102.11299	13586.91071
2105.10435	13577.33929
2108.09379	13577.76786
2111.08131	13574.76786
2114.0669	13581.19643
2117.05057	13591.48214
2120.03233	13616.76786
2123.01216	13629.33929
2125.99008	13649.625
2128.96609	13691.33929
2131.94018	13682.48214
2134.91236	13685.33929
2137.88263	13684.19643
2140.851	13723.625
2143.81746	13704.33929
2146.78201	13690.625
2149.74466	13685.91071
2152.7054	13712.05357
2155.66425	13707.91071
2158.6212	13692.625
2161.57625	13655.91071
2164.52941	13673.33929
2167.48067	13666.19643
2170.43004	13651.625
2173.37752	13677.625
2176.32311	13679.48214
2179.26681	13647.05357
2182.20863	13652.48214
2185.14856	13653.05357
2188.08661	13642.76786
2191.02278	13669.05357
2193.95707	13651.91071
2196.88948	13605.05357
2199.82001	13591.48214
2202.74867	13569.91071
2205.67545	13587.76786
2208.60037	13558.05357
2211.52341	13544.91071
2214.44458	13529.76786
2217.36388	13503.76786
2220.28132	13481.91071
2223.1969	13400.76786
2226.11061	13381.625
2229.02246	13384.91071
2231.93245	13351.48214
2234.84058	13315.19643
2237.74686	13293.33929
2240.65128	13288.76786
2243.55385	13296.33929
2246.45456	13264.76786
2249.35343	13271.76786
2252.25044	13263.05357
2255.14561	13225.48214
2258.03893	13235.76786
2260.93041	13181.76786
2263.82004	13139.91071
2266.70783	13137.625
2269.59378	13105.91071
2272.4779	13104.625
2275.36017	13066.33929
2278.24061	13012.48214
2281.11922	12975.05357
2283.996	12961.05357
2286.87094	12949.625
2289.74405	12966.91071
2292.61534	12906.91071
2295.4848	12914.76786
2298.35243	12895.91071
2301.21824	12894.76786
2304.08223	12885.91071
2306.94439	12854.76786
2309.80474	12875.33929
2312.66327	12807.91071
2315.51999	12847.76786
2318.37489	12797.91071
2321.22797	12779.625
2324.07925	12776.48214
2326.92871	12714.48214
2329.77637	12719.19643
2332.62222	12717.33929
2335.46626	12687.91071
2338.3085	12642.625
2341.14893	12640.05357
2343.98756	12643.48214
2346.8244	12561.76786
2349.65943	12559.48214
2352.49267	12564.05357
2355.32411	12604.05357
2358.15376	12578.05357
2360.98161	12546.91071
2363.80768	12545.33929
2366.63195	12541.48214
2369.45444	12513.91071
2372.27514	12511.48214
2375.09405	12484.48214
2377.91118	12478.33929
2380.72652	12468.625
2383.54009	12420.76786
2386.35187	12417.48214
2389.16188	12387.33929
2391.97011	12336.625
2394.77657	12309.76786
2397.58125	12289.19643
2400.38416	12314.91071
2403.18529	12275.33929
2405.98466	12267.76786
2408.78226	12247.48214
2411.57809	12221.625
2414.37216	12189.19643
2417.16446	12189.625
2419.955	12169.05357
2422.74378	12169.19643
2425.5308	12139.76786
2428.31606	12152.76786
2431.09956	12149.33929
2433.88131	12140.33929
2436.6613	12085.625
2439.43954	12088.19643
2442.21603	12104.05357
2444.99077	12061.33929
2447.76377	12055.05357
2450.53501	12082.05357
2453.30451	12034.91071
2456.07226	11992.05357
2458.83827	11990.91071
2461.60254	11985.76786
2464.36507	11933.48214
2467.12586	11971.91071
2469.88492	11948.33929
2472.64224	11905.76786
2475.39782	11921.91071
2478.15167	11926.625
2480.90379	11917.05357
2483.65417	11912.05357
2486.40283	11904.33929
2489.14976	11924.19643
2491.89497	11886.05357
2494.63845	11897.76786
2497.3802	11878.625
2500.12024	11860.19643
2502.85855	11868.91071
2505.59514	11813.33929
2508.33002	11827.76786
2511.06318	11778.48214
2513.79462	11755.48214
2516.52435	11742.19643
2519.25237	11743.76786
2521.97867	11717.48214
2524.70327	11693.91071
2527.42616	11694.91071
2530.14734	11725.19643
2532.86681	11674.19643
2535.58458	11658.91071
2538.30065	11652.33929
2541.01501	11630.91071
2543.72768	11614.19643
2546.43864	11581.19643
2549.14791	11555.33929
2551.85548	11545.76786
2554.56136	11519.48214
2557.26554	11491.76786
2559.96803	11499.33929
2562.66883	11464.48214
2565.36794	11431.625
2568.06536	11395.48214
2570.7611	11369.91071
2573.45514	11378.76786
2576.14751	11342.33929
2578.83819	11302.48214
2581.52719	11276.76786
2584.21451	11269.76786
2586.90015	11233.91071
2589.58411	11226.91071
2592.2664	11227.625
2594.94701	11186.91071
2597.62594	11173.05357
2600.30321	11137.76786
2602.9788	11132.33929
2605.65273	11107.33929
2608.32498	11132.91071
2610.99557	11099.76786
2613.66449	11070.48214
2616.33175	11046.19643
2618.99734	11029.625
2621.66128	10990.05357
2624.32355	10973.19643
2626.98416	10956.91071
2629.64311	10948.48214
2632.30041	10941.76786
2634.95605	10897.625
2637.61004	10891.625
2640.26238	10872.48214
2642.91306	10864.48214
2645.56209	10906.48214
2648.20948	10898.05357
2650.85521	10843.76786
2653.4993	10867.625
2656.14175	10857.33929
2658.78255	10852.33929
2661.42171	10855.625
2664.05923	10859.05357
2666.6951	10851.05357
2669.32934	10839.19643
2671.96194	10851.76786
2674.59291	10831.76786
2677.22224	10851.76786
2679.84993	10854.48214
2682.476	10835.05357
2685.10043	10806.76786
2687.72324	10819.33929
2690.34441	10798.91071
2692.96396	10804.76786
2695.58188	10811.19643
2698.19818	10794.33929
2700.81285	10803.33929
2703.4259	10764.91071
2706.03733	10749.48214
2708.64714	10765.91071
2711.25533	10774.625
2713.86191	10767.76786
2716.46687	10824.19643
2719.07021	10791.19643
2721.67194	10799.48214
2724.27206	10793.625
2726.87057	10787.48214
2729.46747	10802.76786
2732.06276	10741.91071
2734.65644	10743.76786
2737.24852	10740.19643
2739.83899	10727.19643
2742.42786	10747.19643
2745.01513	10730.76786
2747.60079	10675.05357
2750.18486	10689.48214
2752.76733	10659.76786
2755.3482	10668.19643
2757.92747	10640.48214
2760.50515	10621.625
2763.08123	10641.76786
2765.65573	10593.05357
2768.22863	10583.91071
2770.79994	10573.91071
2773.36967	10560.48214
2775.9378	10530.91071
2778.50435	10523.33929
2781.06932	10487.76786
2783.6327	10504.05357
2786.1945	10487.91071
2788.75471	10417.48214
2791.31335	10422.33929
2793.87041	10428.76786
2796.42589	10367.625
2798.97979	10382.76786
2801.53212	10345.91071
2804.08288	10328.05357
2806.63206	10315.05357
2809.17967	10296.48214
2811.72571	10262.48214
2814.27018	10253.48214
2816.81308	10220.48214
2819.35442	10225.33929
2821.89419	10157.05357
2824.43239	10138.33929
2826.96904	10123.33929
2829.50412	10153.76786
2832.03763	10117.76786
2834.56959	10113.76786
2837.1	10071.48214
2839.62884	10124.05357
2842.15613	10044.33929
2844.68186	10084.91071
2847.20604	10092.76786
2849.72867	10055.76786
2852.24974	10087.48214
2854.76927	10056.48214
2857.28724	10038.19643
2859.80367	10039.05357
2862.31855	9966.19643
2864.83189	9985.91071
2867.34368	9979.91071
2869.85393	9971.91071
2872.36264	9929.625
2874.8698	9915.33929
2877.37543	9911.05357
2879.87952	9893.625
2882.38207	9899.91071
2884.88308	9895.76786
2887.38256	9890.91071
2889.88051	9901.91071
2892.37692	9905.19643
2894.8718	9878.19643
2897.36515	9913.05357
2899.85698	9898.05357
2902.34727	9931.33929
2904.83604	9908.48214
2907.32328	9921.76786
2909.809	9909.05357
2912.29319	9917.625
2914.77587	9894.48214
2917.25702	9933.48214
2919.73665	9908.33929
2922.21476	9891.19643
2924.69136	9893.625
2927.16644	9902.19643
2929.64	9884.76786
2932.11205	9880.76786
2934.58258	9874.05357
2937.05161	9866.91071
2939.51912	9853.76786
2941.98513	9873.91071
2944.44962	9864.19643
2946.91261	9811.33929
2949.37409	9853.625
2951.83407	9830.76786
2954.29254	9808.05357
2956.74951	9803.91071
2959.20498	9840.33929
2961.65895	9805.91071
2964.11142	9806.48214
2966.56239	9804.19643
2969.01186	9788.33929
2971.45984	9786.76786
2973.90632	9763.91071
2976.35131	9749.91071
2978.7948	9762.05357
2981.23681	9710.19643
2983.67732	9714.91071
2986.11635	9695.33929
2988.55388	9640.33929
2990.98993	9674.19643
2993.4245	9651.19643
2995.85758	9629.19643
2998.28917	9615.19643
3000.71928	9591.76786
3003.14791	9585.76786
3005.57506	9559.19643
3008.00073	9559.91071
3010.42493	9549.19643
3012.84764	9498.91071
3015.26888	9536.91071
3017.68865	9530.76786
3020.10694	9491.33929
3022.52376	9494.76786
3024.9391	9437.33929
3027.35298	9402.33929
3029.76539	9431.76786
3032.17632	9421.05357
3034.5858	9387.33929
3036.9938	9400.33929
3039.40034	9402.48214
3041.80542	9396.33929
3044.20903	9378.33929
3046.61118	9356.625
3049.01187	9344.48214
3051.4111	9356.19643
3053.80888	9332.625
3056.20519	9307.91071
3058.60005	9290.625
3060.99345	9274.91071
3063.3854	9268.91071
3065.7759	9260.05357
3068.16494	9213.48214
3070.55254	9203.48214
3072.93868	9184.625
3075.32338	9179.91071
3077.70662	9156.05357
3080.08842	9154.625
3082.46878	9154.625
3084.84769	9139.625
3087.22515	9157.19643
3089.60118	9163.05357
3091.97576	9141.05357
3094.3489	9172.76786
3096.72061	9155.76786
3099.09087	9156.33929
3101.4597	9153.33929
3103.82709	9152.91071
3106.19305	9130.19643
3108.55757	9156.76786
3110.92066	9156.76786
3113.28232	9148.33929
3115.64255	9119.33929
3118.00134	9114.625
3120.35871	9086.48214
3122.71466	9080.33929
3125.06917	9063.19643
3127.42226	9046.48214
3129.77393	9034.91071
3132.12417	9034.91071
3134.47299	9066.48214
3136.82039	9023.91071
3139.16636	9054.33929
3141.51092	9062.33929
3143.85406	9059.76786
3146.19579	9052.76786
3148.53609	9075.48214
3150.87499	9041.76786
3153.21246	9076.05357
3155.54853	9088.33929
3157.88318	9088.91071
3160.21642	9101.33929
3162.54826	9128.48214
3164.87868	9115.19643
3167.2077	9126.91071
3169.5353	9129.33929
3171.86151	9134.76786
3174.18631	9100.19643
3176.5097	9117.33929
3178.83169	9066.625
3181.15228	9088.91071
3183.47147	9070.19643
3185.78926	9071.05357
3188.10565	9060.19643
3190.42065	9057.33929
3192.73424	9065.625
3195.04645	9059.76786
3197.35725	9064.76786
3199.66667	9038.05357
3201.97469	9074.91071
3204.28132	9030.76786
3206.58656	9067.76786
3208.8904	9082.76786
3211.19287	9068.33929
3213.49394	9100.625
3215.79363	9089.48214
3218.09193	9100.48214
3220.38884	9097.76786
3222.68438	9106.19643
3224.97853	9108.48214
3227.2713	9110.33929
3229.56269	9090.625
3231.8527	9080.33929
3234.14133	9053.76786
3236.42858	9050.76786
3238.71446	9017.625
3240.99896	8979.91071
3243.28209	8969.91071
3245.56384	8983.625
3247.84423	8995.625
3250.12324	8972.19643
3252.40088	8957.05357
3254.67715	8976.05357
3256.95205	8964.05357
3259.22558	8980.19643
3261.49775	8965.91071
3263.76855	8954.76786
3266.03799	8901.91071
3268.30606	8933.625
3270.57277	8951.91071
3272.83812	8867.48214
3275.10211	8882.625
3277.36474	8864.05357
3279.62601	8853.05357
3281.88593	8814.19643
3284.14448	8848.48214
3286.40168	8824.19643
3288.65753	8805.91071
3290.91202	8811.48214
3293.16516	8769.33929
3295.41695	8778.625
3297.66738	8739.19643
3299.91647	8682.19643
3302.16421	8627.33929
3304.4106	8618.625
3306.65564	8541.19643
3308.89933	8487.76786
3311.14169	8461.76786
3313.38269	8372.76786
3315.62236	8315.19643
3317.86068	8250.33929
3320.09766	8227.625
3322.3333	8137.33929
3324.5676	8098.625
3326.80056	7991.05357
3329.03219	7932.76786
3331.26248	0.33929
3333.49143	-1.08929
3335.71905	1.48214
