Data from AgNPs_FTO_APTES_UA_20uM_CRN_0uM_R6G_10uM_NaF_0.1M_Addition_RamanShift__59__11-58-32-007.txt Node

Date: Thu Feb 17 11:58:32 GMT 2022
User: TCL
Spectrometer: QEP01345
Trigger mode: 4
Integration Time (sec): 7.000000E0
Scans to average: 10
Electric dark correction enabled: true
Nonlinearity correction enabled: false
Boxcar width: 0
XAxis mode: Raman Shifts
Number of Pixels in Spectrum: 1044
>>>>>Begin Spectral Data<<<<<
46.04893	-0.7625
50.45542	-0.1625
54.85868	-2.5625
59.25871	-1.6625
63.6555	62.1375
68.04907	64.4375
72.43941	68.5375
76.82654	69.7375
81.21044	68.1375
85.59113	74.0375
89.96862	78.6375
94.34289	79.8375
98.71396	82.2375
103.08183	83.5375
107.4465	85.2375
111.80798	85.8375
116.16626	94.5375
120.52136	95.7375
124.87327	97.4375
129.222	101.0375
133.56755	106.0375
137.90993	110.2375
142.24913	122.1375
146.58517	142.5375
150.91804	164.4375
155.24774	191.1375
159.57429	240.4375
163.89768	304.3375
168.21792	407.1375
172.53501	557.2375
176.84895	767.3375
181.15975	1081.4375
185.46741	1512.6375
189.77193	2094.1375
194.07331	2802.5375
198.37157	3610.1375
202.6667	4468.6375
206.9587	5328.1375
211.24758	6192.8375
215.53334	7093.2375
219.81599	8102.7375
224.09553	9268.2375
228.37195	10529.4375
232.64527	11905.3375
236.91549	13344.4375
241.18261	14639.9375
245.44663	15759.2375
249.70755	16668.5375
253.96539	17424.8375
258.22014	18029.0375
262.4718	18503.3375
266.72039	18864.0375
270.96589	19008.0375
275.20832	18972.2375
279.44768	18773.1375
283.68397	18560.8375
287.91719	18411.0375
292.14735	18465.7375
296.37445	18820.9375
300.59849	19557.5375
304.81948	20485.3375
309.03742	21204.3375
313.25231	21230.2375
317.46415	20271.5375
321.67296	18737.8375
325.87872	17402.6375
330.08145	16822.4375
334.28114	16776.6375
338.47781	17071.5375
342.67145	17588.3375
346.86207	18394.5375
351.04966	19543.9375
355.23424	20835.2375
359.4158	21852.3375
363.59435	22368.7375
367.76989	22483.9375
371.94243	22365.1375
376.11196	22258.3375
380.27849	22087.5375
384.44203	21850.3375
388.60257	21571.1375
392.76012	21450.1375
396.91468	21652.0375
401.06626	22255.1375
405.21485	22769.1375
409.36047	22449.0375
413.50311	21411.6375
417.64277	20430.6375
421.77947	19915.6375
425.9132	19731.9375
430.04396	19773.1375
434.17176	19910.4375
438.2966	20250.4375
442.41849	20840.6375
446.53742	21636.1375
450.6534	22379.6375
454.76644	22872.9375
458.87653	22963.1375
462.98368	22613.0375
467.08789	22033.8375
471.18916	21383.4375
475.2875	20690.2375
479.38291	20187.0375
483.4754	19892.9375
487.56496	19548.2375
491.6516	19353.9375
495.73531	19236.9375
499.81612	19278.1375
503.89401	19534.2375
507.96899	19802.9375
512.04106	20025.2375
516.11023	20346.8375
520.1765	20539.9375
524.23987	20518.8375
528.30034	20209.3375
532.35792	19836.7375
536.41261	19416.8375
540.46441	18979.9375
544.51333	18765.1375
548.55936	18832.5375
552.60252	19265.1375
556.64279	19860.1375
560.6802	20155.6375
564.71473	20531.7375
568.7464	21515.2375
572.7752	22252.4375
576.80114	21806.8375
580.82422	21154.0375
584.84444	20970.4375
588.86181	21210.2375
592.87633	21207.4375
596.888	21371.2375
600.89682	21847.9375
604.9028	24251.5375
608.90594	30884.0375
612.90624	39566.1375
616.90371	37976.8375
620.89834	26739.4375
624.89015	21430.6375
628.87913	20512.2375
632.86528	20522.7375
636.84862	20679.2375
640.82913	20265.5375
644.80683	19319.4375
648.78172	18705.0375
652.75379	18806.1375
656.72306	19669.0375
660.68952	20717.6375
664.65319	20571.8375
668.61405	19558.2375
672.57211	19055.9375
676.52738	19005.0375
680.47986	18961.3375
684.42955	18859.3375
688.37646	18837.9375
692.32058	18946.6375
696.26192	19114.8375
700.20048	19427.9375
704.13626	19679.0375
708.06928	19645.5375
711.99952	19453.2375
715.927	19401.0375
719.85171	19469.7375
723.77365	19428.4375
727.69284	19273.2375
731.60928	19081.0375
735.52295	19122.4375
739.43388	19238.9375
743.34206	19439.5375
747.24749	19627.8375
751.15017	19893.2375
755.05012	20386.9375
758.94733	21411.0375
762.8418	23654.2375
766.73354	27440.4375
770.62254	31225.3375
774.50882	33037.7375
778.39237	31681.5375
782.27321	27640.8375
786.15132	23565.7375
790.02671	21294.3375
793.89938	20255.3375
797.76935	19852.7375
801.6366	19684.8375
805.50115	19550.8375
809.36299	19454.0375
813.22213	19388.8375
817.07857	19337.7375
820.93231	19358.1375
824.78336	19470.8375
828.63172	19621.4375
832.47738	19675.4375
836.32036	19664.7375
840.16066	19661.9375
843.99827	19587.7375
847.8332	19529.1375
851.66546	19451.9375
855.49504	19458.1375
859.32195	19423.9375
863.1462	19338.7375
866.96777	19228.3375
870.78668	19260.0375
874.60293	19320.3375
878.41652	19369.2375
882.22745	19556.6375
886.03573	19663.6375
889.84136	19575.2375
893.64433	19483.8375
897.44466	19430.8375
901.24235	19452.6375
905.0374	19397.7375
908.8298	19357.9375
912.61957	19345.7375
916.40671	19491.7375
920.19121	19721.2375
923.97308	20027.6375
927.75233	20285.3375
931.52895	20418.4375
935.30295	20144.7375
939.07433	19584.1375
942.84309	19158.6375
946.60924	18947.0375
950.37278	18823.0375
954.13371	18695.9375
957.89203	18585.2375
961.64774	18522.2375
965.40086	18454.8375
969.15137	18427.1375
972.89929	18363.5375
976.64461	18372.8375
980.38733	18408.1375
984.12747	18457.6375
987.86502	18588.1375
991.59999	18789.2375
995.33237	19192.6375
999.06217	19870.0375
1002.78939	20671.3375
1006.51404	21307.6375
1010.23611	21745.7375
1013.95561	22024.2375
1017.67255	22025.1375
1021.38692	21673.7375
1025.09872	21310.1375
1028.80796	21410.3375
1032.51465	21959.7375
1036.21877	22534.3375
1039.92035	22686.6375
1043.61937	22464.3375
1047.31584	21912.9375
1051.00976	21343.1375
1054.70114	21009.9375
1058.38998	20912.0375
1062.07627	20953.6375
1065.76003	21064.6375
1069.44126	21201.0375
1073.11995	21506.6375
1076.79611	21744.9375
1080.46974	22078.0375
1084.14085	22608.9375
1087.80943	23213.1375
1091.47549	23370.4375
1095.13903	22949.5375
1098.80005	22170.4375
1102.45857	21545.4375
1106.11456	21262.2375
1109.76805	21395.3375
1113.41903	21847.6375
1117.06751	22527.4375
1120.71348	23464.5375
1124.35696	24368.0375
1127.99793	25125.9375
1131.63641	24852.2375
1135.2724	23808.3375
1138.90589	22846.6375
1142.5369	22268.5375
1146.16542	21886.8375
1149.79145	21736.0375
1153.415	21767.5375
1157.03607	22005.2375
1160.65467	22400.6375
1164.27079	23180.7375
1167.88443	24353.9375
1171.49561	26411.4375
1175.10432	29676.5375
1178.71056	33912.3375
1182.31434	37005.3375
1185.91565	37923.4375
1189.51451	37011.9375
1193.11091	34852.5375
1196.70485	32207.3375
1200.29634	30121.4375
1203.88538	28580.3375
1207.47197	26983.4375
1211.05612	25745.0375
1214.63782	25121.9375
1218.21708	25138.3375
1221.79391	25266.0375
1225.36829	25324.6375
1228.94024	25153.0375
1232.50976	24917.1375
1236.07685	24858.9375
1239.6415	24980.0375
1243.20374	25175.7375
1246.76355	25390.7375
1250.32093	25763.4375
1253.8759	26484.5375
1257.42845	27478.7375
1260.97859	28351.6375
1264.52631	29093.0375
1268.07163	29843.0375
1271.61453	30514.7375
1275.15503	31206.9375
1278.69312	31759.0375
1282.22882	32285.3375
1285.76211	33016.1375
1289.29301	33986.5375
1292.82151	35023.1375
1296.34761	36178.4375
1299.87133	38011.7375
1303.39266	41012.0375
1306.9116	45367.4375
1310.42815	50317.1375
1313.94233	52968.0375
1317.45412	51776.8375
1320.96354	48388.5375
1324.47058	44687.7375
1327.97525	41781.1375
1331.47754	40141.3375
1334.97747	39914.4375
1338.47502	40656.4375
1341.97022	41908.8375
1345.46305	43254.2375
1348.95352	44786.2375
1352.44163	46721.8375
1355.92738	50200.1375
1359.41078	56251.5375
1362.89183	61753.3375
1366.37053	59585.6375
1369.84688	50977.6375
1373.32088	42642.5375
1376.79254	37349.6375
1380.26186	34497.9375
1383.72883	33065.2375
1387.19347	32111.7375
1390.65578	31244.6375
1394.11575	30682.4375
1397.57339	30604.4375
1401.0287	30965.1375
1404.48168	31718.9375
1407.93234	32651.8375
1411.38068	33508.3375
1414.82669	33740.4375
1418.27039	33049.2375
1421.71177	31883.2375
1425.15083	30943.6375
1428.58758	30519.2375
1432.02203	30701.0375
1435.45416	30998.7375
1438.88399	31087.0375
1442.31151	31166.1375
1445.73673	31362.4375
1449.15965	31493.3375
1452.58027	31450.1375
1455.9986	31038.1375
1459.41463	30973.2375
1462.82837	31212.4375
1466.23982	31876.2375
1469.64898	32606.5375
1473.05586	33113.0375
1476.46045	33580.6375
1479.86276	34237.2375
1483.26279	35031.6375
1486.66054	35991.3375
1490.05602	37297.7375
1493.44922	38910.8375
1496.84016	40993.3375
1500.22882	44029.1375
1503.61521	48101.3375
1506.99934	52753.8375
1510.38121	56875.0375
1513.76081	58357.0375
1517.13816	55307.4375
1520.51324	49174.6375
1523.88607	43341.0375
1527.25665	39368.3375
1530.62498	37204.0375
1533.99105	35904.2375
1537.35488	35090.5375
1540.71647	34680.3375
1544.07581	34460.1375
1547.4329	34277.1375
1550.78776	33877.7375
1554.14038	33616.2375
1557.49077	33587.8375
1560.83892	33919.9375
1564.18484	34548.9375
1567.52853	35108.2375
1570.86999	35605.6375
1574.20922	35856.6375
1577.54624	35554.0375
1580.88103	34089.9375
1584.2136	32431.4375
1587.54395	31924.1375
1590.87208	33205.6375
1594.19801	35924.9375
1597.52172	39251.4375
1600.84321	41051.2375
1604.16251	39802.8375
1607.47959	36740.5375
1610.79447	33206.4375
1614.10715	30083.7375
1617.41763	27825.6375
1620.7259	26457.9375
1624.03199	25863.4375
1627.33587	25944.0375
1630.63757	26697.3375
1633.93707	28139.8375
1637.23439	30335.1375
1640.52951	33204.7375
1643.82246	36836.2375
1647.11321	40790.8375
1650.40179	43139.0375
1653.68819	41484.8375
1656.97241	36143.4375
1660.25446	30440.5375
1663.53433	26442.2375
1666.81203	24041.9375
1670.08756	22698.4375
1673.36092	21866.7375
1676.63211	21316.7375
1679.90115	20921.4375
1683.16801	20620.3375
1686.43272	20470.3375
1689.69527	20325.4375
1692.95567	20181.5375
1696.2139	20188.8375
1699.46999	20201.5375
1702.72392	20151.1375
1705.97571	20135.6375
1709.22535	20080.7375
1712.47284	20100.9375
1715.71819	20131.5375
1718.96139	20153.6375
1722.20246	20110.5375
1725.44139	20033.2375
1728.67818	19927.7375
1731.91284	19776.6375
1735.14537	19645.2375
1738.37576	19532.2375
1741.60403	19521.5375
1744.83017	19412.2375
1748.05418	19370.4375
1751.27607	19381.7375
1754.49584	19351.7375
1757.71349	19363.0375
1760.92903	19372.0375
1764.14244	19314.2375
1767.35375	19279.5375
1770.56294	19310.9375
1773.77002	19266.0375
1776.97499	19232.2375
1780.17785	19227.8375
1783.37861	19184.9375
1786.57727	19163.1375
1789.77382	19110.9375
1792.96828	19148.4375
1796.16064	19119.1375
1799.3509	19127.0375
1802.53907	19087.6375
1805.72514	19045.1375
1808.90913	19016.4375
1812.09102	18963.6375
1815.27083	18903.3375
1818.44856	18906.2375
1821.6242	18877.3375
1824.79776	18848.3375
1827.96924	18831.2375
1831.13864	18798.5375
1834.30597	18819.4375
1837.47122	18796.2375
1840.6344	18768.4375
1843.7955	18793.4375
1846.95454	18797.8375
1850.11151	18783.1375
1853.26642	18783.1375
1856.41926	18783.1375
1859.57004	18817.8375
1862.71876	18791.0375
1865.86542	18813.8375
1869.01003	18806.5375
1872.15258	18822.4375
1875.29308	18845.2375
1878.43152	18832.0375
1881.56792	18822.2375
1884.70227	18878.3375
1887.83457	18841.2375
1890.96482	18821.9375
1894.09304	18803.7375
1897.21921	18814.5375
1900.34335	18810.3375
1903.46544	18800.6375
1906.58551	18846.2375
1909.70353	18870.7375
1912.81953	18876.8375
1915.93349	18843.4375
1919.04543	18818.5375
1922.15534	18798.1375
1925.26322	18804.4375
1928.36908	18752.5375
1931.47292	18749.2375
1934.57473	18656.3375
1937.67453	18607.6375
1940.77232	18559.5375
1943.86808	18480.0375
1946.96184	18402.1375
1950.05358	18385.8375
1953.14331	18297.8375
1956.23103	18249.7375
1959.31675	18241.3375
1962.40046	18161.9375
1965.48217	18108.3375
1968.56188	18096.2375
1971.63959	18029.8375
1974.7153	17997.6375
1977.78901	17944.1375
1980.86073	17870.2375
1983.93046	17799.7375
1986.99819	17755.0375
1990.06394	17735.4375
1993.1277	17671.4375
1996.18947	17580.0375
1999.24925	17549.6375
2002.30706	17498.8375
2005.36288	17470.0375
2008.41672	17436.1375
2011.46859	17383.4375
2014.51848	17353.5375
2017.56639	17257.5375
2020.61233	17232.6375
2023.6563	17162.7375
2026.6983	17144.3375
2029.73833	17119.0375
2032.7764	17092.5375
2035.8125	17046.3375
2038.84664	17028.9375
2041.87881	16993.2375
2044.90903	16977.6375
2047.93729	16943.0375
2050.96359	16969.2375
2053.98794	16915.9375
2057.01034	16936.0375
2060.03078	16947.8375
2063.04927	16925.1375
2066.06582	16910.7375
2069.08042	16863.6375
2072.09307	16855.0375
2075.10378	16832.9375
2078.11255	16768.4375
2081.11938	16797.3375
2084.12426	16797.2375
2087.12722	16750.1375
2090.12824	16724.0375
2093.12732	16752.2375
2096.12447	16753.2375
2099.11969	16708.5375
2102.11299	16739.4375
2105.10435	16740.3375
2108.09379	16714.1375
2111.08131	16778.5375
2114.0669	16785.8375
2117.05057	16767.9375
2120.03233	16759.4375
2123.01216	16808.1375
2125.99008	16796.5375
2128.96609	16846.5375
2131.94018	16852.7375
2134.91236	16871.0375
2137.88263	16910.7375
2140.851	16879.7375
2143.81746	16885.9375
2146.78201	16858.4375
2149.74466	16899.4375
2152.7054	16917.9375
2155.66425	16881.3375
2158.6212	16895.3375
2161.57625	16851.9375
2164.52941	16863.8375
2167.48067	16851.9375
2170.43004	16877.3375
2173.37752	16829.0375
2176.32311	16847.9375
2179.26681	16883.9375
2182.20863	16872.1375
2185.14856	16872.8375
2188.08661	16867.3375
2191.02278	16905.4375
2193.95707	16850.0375
2196.88948	16862.0375
2199.82001	16860.0375
2202.74867	16832.0375
2205.67545	16851.7375
2208.60037	16809.9375
2211.52341	16799.9375
2214.44458	16815.1375
2217.36388	16773.7375
2220.28132	16747.5375
2223.1969	16710.3375
2226.11061	16672.9375
2229.02246	16633.1375
2231.93245	16607.2375
2234.84058	16555.8375
2237.74686	16548.8375
2240.65128	16538.3375
2243.55385	16493.6375
2246.45456	16504.5375
2249.35343	16483.4375
2252.25044	16471.5375
2255.14561	16443.0375
2258.03893	16458.3375
2260.93041	16435.7375
2263.82004	16429.0375
2266.70783	16381.9375
2269.59378	16333.0375
2272.4779	16299.4375
2275.36017	16261.0375
2278.24061	16248.4375
2281.11922	16191.5375
2283.996	16159.2375
2286.87094	16147.9375
2289.74405	16138.0375
2292.61534	16110.2375
2295.4848	16102.9375
2298.35243	16093.1375
2301.21824	16063.7375
2304.08223	16075.2375
2306.94439	16103.2375
2309.80474	16101.4375
2312.66327	16078.0375
2315.51999	16078.1375
2318.37489	16093.1375
2321.22797	16049.7375
2324.07925	16070.0375
2326.92871	16041.1375
2329.77637	16027.9375
2332.62222	16011.7375
2335.46626	16000.4375
2338.3085	15984.8375
2341.14893	16039.3375
2343.98756	16044.6375
2346.8244	16034.8375
2349.65943	16042.5375
2352.49267	16077.5375
2355.32411	16085.4375
2358.15376	16087.6375
2360.98161	16093.9375
2363.80768	16112.8375
2366.63195	16096.2375
2369.45444	16062.1375
2372.27514	16058.9375
2375.09405	15989.0375
2377.91118	15926.5375
2380.72652	15901.4375
2383.54009	15834.6375
2386.35187	15774.7375
2389.16188	15688.2375
2391.97011	15676.8375
2394.77657	15670.6375
2397.58125	15645.6375
2400.38416	15609.2375
2403.18529	15556.4375
2405.98466	15545.2375
2408.78226	15486.6375
2411.57809	15457.0375
2414.37216	15428.7375
2417.16446	15448.4375
2419.955	15380.4375
2422.74378	15399.1375
2425.5308	15371.3375
2428.31606	15341.8375
2431.09956	15402.1375
2433.88131	15386.1375
2436.6613	15404.6375
2439.43954	15376.1375
2442.21603	15350.5375
2444.99077	15353.1375
2447.76377	15343.6375
2450.53501	15355.0375
2453.30451	15382.7375
2456.07226	15333.0375
2458.83827	15286.5375
2461.60254	15292.6375
2464.36507	15319.1375
2467.12586	15278.9375
2469.88492	15292.6375
2472.64224	15310.4375
2475.39782	15317.3375
2478.15167	15315.4375
2480.90379	15378.5375
2483.65417	15382.3375
2486.40283	15416.5375
2489.14976	15455.2375
2491.89497	15450.3375
2494.63845	15475.8375
2497.3802	15474.7375
2500.12024	15430.0375
2502.85855	15425.8375
2505.59514	15374.4375
2508.33002	15374.7375
2511.06318	15300.2375
2513.79462	15240.6375
2516.52435	15243.1375
2519.25237	15189.2375
2521.97867	15176.5375
2524.70327	15152.6375
2527.42616	15121.3375
2530.14734	15111.2375
2532.86681	15093.9375
2535.58458	15063.3375
2538.30065	15082.8375
2541.01501	15096.5375
2543.72768	15118.6375
2546.43864	15103.0375
2549.14791	15054.9375
2551.85548	15063.5375
2554.56136	15026.1375
2557.26554	14987.6375
2559.96803	14991.4375
2562.66883	14969.9375
2565.36794	14933.5375
2568.06536	14936.8375
2570.7611	14908.0375
2573.45514	14884.7375
2576.14751	14878.6375
2578.83819	14852.1375
2581.52719	14850.4375
2584.21451	14856.3375
2586.90015	14831.6375
2589.58411	14825.2375
2592.2664	14837.6375
2594.94701	14820.8375
2597.62594	14821.4375
2600.30321	14836.7375
2602.9788	14808.3375
2605.65273	14826.4375
2608.32498	14811.1375
2610.99557	14817.8375
2613.66449	14802.3375
2616.33175	14790.1375
2618.99734	14818.6375
2621.66128	14789.6375
2624.32355	14788.2375
2626.98416	14767.7375
2629.64311	14764.4375
2632.30041	14753.3375
2634.95605	14744.6375
2637.61004	14723.3375
2640.26238	14710.6375
2642.91306	14667.4375
2645.56209	14635.5375
2648.20948	14638.4375
2650.85521	14589.2375
2653.4993	14634.1375
2656.14175	14604.2375
2658.78255	14664.0375
2661.42171	14659.9375
2664.05923	14648.8375
2666.6951	14683.5375
2669.32934	14695.5375
2671.96194	14695.7375
2674.59291	14733.8375
2677.22224	14755.7375
2679.84993	14761.9375
2682.476	14727.2375
2685.10043	14715.3375
2687.72324	14699.4375
2690.34441	14715.9375
2692.96396	14712.5375
2695.58188	14711.5375
2698.19818	14676.3375
2700.81285	14677.1375
2703.4259	14680.8375
2706.03733	14676.7375
2708.64714	14681.3375
2711.25533	14692.5375
2713.86191	14674.9375
2716.46687	14690.2375
2719.07021	14693.7375
2721.67194	14710.6375
2724.27206	14706.8375
2726.87057	14732.5375
2729.46747	14716.1375
2732.06276	14709.5375
2734.65644	14717.1375
2737.24852	14701.8375
2739.83899	14686.9375
2742.42786	14711.3375
2745.01513	14662.6375
2747.60079	14652.9375
2750.18486	14650.9375
2752.76733	14655.0375
2755.3482	14652.6375
2757.92747	14640.0375
2760.50515	14616.4375
2763.08123	14583.2375
2765.65573	14578.3375
2768.22863	14568.5375
2770.79994	14546.0375
2773.36967	14536.9375
2775.9378	14558.3375
2778.50435	14573.2375
2781.06932	14544.2375
2783.6327	14552.9375
2786.1945	14538.3375
2788.75471	14540.0375
2791.31335	14511.1375
2793.87041	14495.3375
2796.42589	14450.4375
2798.97979	14460.8375
2801.53212	14428.7375
2804.08288	14419.7375
2806.63206	14386.1375
2809.17967	14361.8375
2811.72571	14362.4375
2814.27018	14335.1375
2816.81308	14310.7375
2819.35442	14326.4375
2821.89419	14314.0375
2824.43239	14352.8375
2826.96904	14369.0375
2829.50412	14380.5375
2832.03763	14348.5375
2834.56959	14326.0375
2837.1	14300.4375
2839.62884	14330.9375
2842.15613	14307.5375
2844.68186	14389.2375
2847.20604	14382.4375
2849.72867	14409.1375
2852.24974	14392.1375
2854.76927	14363.9375
2857.28724	14341.4375
2859.80367	14333.5375
2862.31855	14312.1375
2864.83189	14288.4375
2867.34368	14246.6375
2869.85393	14289.2375
2872.36264	14257.0375
2874.8698	14232.2375
2877.37543	14201.3375
2879.87952	14186.4375
2882.38207	14193.8375
2884.88308	14199.0375
2887.38256	14201.3375
2889.88051	14199.9375
2892.37692	14172.8375
2894.8718	14191.5375
2897.36515	14200.4375
2899.85698	14216.1375
2902.34727	14215.3375
2904.83604	14177.5375
2907.32328	14231.3375
2909.809	14227.4375
2912.29319	14245.3375
2914.77587	14226.5375
2917.25702	14187.1375
2919.73665	14147.7375
2922.21476	14153.2375
2924.69136	14157.5375
2927.16644	14136.5375
2929.64	14106.1375
2932.11205	14131.6375
2934.58258	14063.6375
2937.05161	14079.5375
2939.51912	14040.5375
2941.98513	14022.3375
2944.44962	13978.5375
2946.91261	13934.5375
2949.37409	13950.3375
2951.83407	13914.8375
2954.29254	13904.0375
2956.74951	13883.3375
2959.20498	13886.2375
2961.65895	13841.0375
2964.11142	13842.8375
2966.56239	13814.7375
2969.01186	13778.7375
2971.45984	13754.4375
2973.90632	13741.2375
2976.35131	13653.7375
2978.7948	13668.1375
2981.23681	13627.1375
2983.67732	13628.2375
2986.11635	13580.2375
2988.55388	13558.4375
2990.98993	13518.2375
2993.4245	13463.7375
2995.85758	13447.6375
2998.28917	13413.0375
3000.71928	13372.6375
3003.14791	13350.9375
3005.57506	13340.7375
3008.00073	13306.6375
3010.42493	13288.7375
3012.84764	13271.8375
3015.26888	13264.5375
3017.68865	13229.4375
3020.10694	13203.9375
3022.52376	13155.0375
3024.9391	13130.8375
3027.35298	13128.3375
3029.76539	13105.7375
3032.17632	13070.7375
3034.5858	13037.8375
3036.9938	13052.7375
3039.40034	13031.4375
3041.80542	13016.3375
3044.20903	12973.6375
3046.61118	12959.3375
3049.01187	12926.7375
3051.4111	12922.4375
3053.80888	12907.3375
3056.20519	12849.9375
3058.60005	12795.9375
3060.99345	12789.0375
3063.3854	12715.2375
3065.7759	12698.1375
3068.16494	12664.9375
3070.55254	12570.2375
3072.93868	12553.7375
3075.32338	12496.1375
3077.70662	12474.6375
3080.08842	12430.9375
3082.46878	12402.2375
3084.84769	12359.7375
3087.22515	12368.9375
3089.60118	12333.8375
3091.97576	12333.1375
3094.3489	12329.2375
3096.72061	12322.0375
3099.09087	12303.5375
3101.4597	12301.4375
3103.82709	12294.1375
3106.19305	12263.5375
3108.55757	12270.6375
3110.92066	12206.7375
3113.28232	12208.9375
3115.64255	12179.3375
3118.00134	12161.9375
3120.35871	12088.8375
3122.71466	12054.5375
3125.06917	12034.3375
3127.42226	12030.9375
3129.77393	12036.0375
3132.12417	12000.3375
3134.47299	11998.7375
3136.82039	12005.7375
3139.16636	11974.5375
3141.51092	11970.0375
3143.85406	11951.1375
3146.19579	11964.7375
3148.53609	11934.7375
3150.87499	11959.2375
3153.21246	11941.8375
3155.54853	11970.0375
3157.88318	11960.2375
3160.21642	11955.3375
3162.54826	11921.4375
3164.87868	11880.2375
3167.2077	11904.5375
3169.5353	11907.0375
3171.86151	11875.3375
3174.18631	11870.3375
3176.5097	11854.3375
3178.83169	11845.8375
3181.15228	11825.2375
3183.47147	11772.0375
3185.78926	11788.3375
3188.10565	11779.2375
3190.42065	11799.2375
3192.73424	11741.1375
3195.04645	11728.1375
3197.35725	11733.7375
3199.66667	11727.2375
3201.97469	11763.0375
3204.28132	11717.1375
3206.58656	11731.2375
3208.8904	11744.2375
3211.19287	11743.0375
3213.49394	11732.1375
3215.79363	11731.7375
3218.09193	11752.4375
3220.38884	11758.4375
3222.68438	11756.3375
3224.97853	11708.2375
3227.2713	11727.1375
3229.56269	11684.0375
3231.8527	11700.3375
3234.14133	11650.4375
3236.42858	11635.9375
3238.71446	11613.1375
3240.99896	11573.6375
3243.28209	11573.6375
3245.56384	11543.0375
3247.84423	11555.8375
3250.12324	11528.7375
3252.40088	11547.1375
3254.67715	11493.2375
3256.95205	11481.6375
3259.22558	11498.3375
3261.49775	11489.6375
3263.76855	11466.7375
3266.03799	11442.1375
3268.30606	11399.2375
3270.57277	11414.3375
3272.83812	11371.6375
3275.10211	11373.4375
3277.36474	11330.3375
3279.62601	11323.4375
3281.88593	11312.7375
3284.14448	11303.8375
3286.40168	11302.4375
3288.65753	11296.8375
3290.91202	11273.5375
3293.16516	11275.7375
3295.41695	11268.7375
3297.66738	11169.3375
3299.91647	11117.1375
3302.16421	11043.5375
3304.4106	10982.7375
3306.65564	10933.2375
3308.89933	10820.9375
3311.14169	10771.6375
3313.38269	10688.9375
3315.62236	10632.0375
3317.86068	10538.2375
3320.09766	10416.9375
3322.3333	10369.1375
3324.5676	10338.6375
3326.80056	10156.2375
3329.03219	10099.1375
3331.26248	4.6375
3333.49143	0.7375
3335.71905	-0.0625
