Data from AgNPs_FTO_APTES_UA_20uM_CRN_2uM_R6G_10uM_NaF_0.1M_Addition_RamanShift__14__12-56-52-083.txt Node

Date: Thu Feb 17 12:56:52 GMT 2022
User: TCL
Spectrometer: QEP01345
Trigger mode: 4
Integration Time (sec): 7.000000E0
Scans to average: 10
Electric dark correction enabled: true
Nonlinearity correction enabled: false
Boxcar width: 0
XAxis mode: Raman Shifts
Number of Pixels in Spectrum: 1044
>>>>>Begin Spectral Data<<<<<
46.04893	-0.2
50.45542	-1
54.85868	-3.7
59.25871	-1
63.6555	129.2
68.04907	127
72.43941	136.1
76.82654	138.2
81.21044	142
85.59113	146.4
89.96862	151.9
94.34289	150.9
98.71396	157.1
103.08183	164.8
107.4465	170.9
111.80798	171
116.16626	180
120.52136	190
124.87327	199
129.222	214.9
133.56755	226.6
137.90993	243.5
142.24913	271.5
146.58517	308.1
150.91804	365.2
155.24774	441.8
159.57429	555.6
163.89768	719.3
168.21792	963.9
172.53501	1332.2
176.84895	1849.2
181.15975	2639.9
185.46741	3727.7
189.77193	5155.3
194.07331	6933.1
198.37157	8958.8
202.6667	11129.7
206.9587	13242.5
211.24758	15323.7
215.53334	17351.5
219.81599	19492.5
224.09553	21799.2
228.37195	24373.1
232.64527	27214.4
236.91549	30332.5
241.18261	33474.2
245.44663	36540
249.70755	39342.3
253.96539	41885.5
258.22014	43982.7
262.4718	45632.7
266.72039	46792.4
270.96589	47477.7
275.20832	47597.6
279.44768	47363.1
283.68397	47043.7
287.91719	46678.4
292.14735	46455
296.37445	46284.2
300.59849	46256.6
304.81948	46294.5
309.03742	46271.1
313.25231	46012.8
317.46415	45540.9
321.67296	44980.6
325.87872	44421.1
330.08145	44259.7
334.28114	44387.9
338.47781	44705.5
342.67145	45205.7
346.86207	45760.6
351.04966	46331.6
355.23424	46936.7
359.4158	47471.4
363.59435	47945
367.76989	48257.2
371.94243	48581.2
376.11196	48906.5
380.27849	49147
384.44203	49408.6
388.60257	49670.6
392.76012	50289.6
396.91468	50928.5
401.06626	51603
405.21485	52048.6
409.36047	52103.9
413.50311	51865.3
417.64277	51656.6
421.77947	51785.5
425.9132	52074.6
430.04396	52481.4
434.17176	52747
438.2966	53102
442.41849	53636.8
446.53742	54390.6
450.6534	55262
454.76644	55971
458.87653	56374.5
462.98368	56566.4
467.08789	56518.5
471.18916	56268
475.2875	55867.3
479.38291	55723
483.4754	55593.5
487.56496	55424.6
491.6516	55069
495.73531	54621.6
499.81612	54287.8
503.89401	54347.8
507.96899	54597
512.04106	54744.3
516.11023	54659
520.1765	54376.4
524.23987	54244.7
528.30034	53933.5
532.35792	53722.3
536.41261	53449.7
540.46441	53276.6
544.51333	53286.6
548.55936	53695.8
552.60252	54449.7
556.64279	55240.8
560.6802	55796.6
564.71473	56290.1
568.7464	57109.3
572.7752	58521.4
576.80114	60229.3
580.82422	61840.5
584.84444	62798
588.86181	63486.7
592.87633	64082.1
596.888	63908.1
600.89682	62967.1
604.9028	62944.7
608.90594	64737.2
612.90624	66501.3
616.90371	63584.8
620.89834	58429.2
624.89015	56293.5
628.87913	56281.1
632.86528	56651
636.84862	56799.2
640.82913	56334.7
644.80683	55501.5
648.78172	54852.8
652.75379	54715.9
656.72306	55077.2
660.68952	55618
664.65319	55646.7
668.61405	55305.5
672.57211	55288
676.52738	55453.9
680.47986	55476.9
684.42955	55344.1
688.37646	55304.2
692.32058	55439.5
696.26192	55809.9
700.20048	56392.8
704.13626	56744.2
708.06928	56992.4
711.99952	56984.2
715.927	56894.7
719.85171	56774.6
723.77365	56596.3
727.69284	56257.2
731.60928	55838.4
735.52295	55610.9
739.43388	55602.3
743.34206	55713.1
747.24749	55974.5
751.15017	56299.8
755.05012	56940.7
758.94733	57811.2
762.8418	59430.8
766.73354	61862.2
770.62254	64038.9
774.50882	64153.1
778.39237	62478.9
782.27321	60229
786.15132	58330.6
790.02671	57135.8
793.89938	56419.1
797.76935	56045.4
801.6366	55798.2
805.50115	55658.2
809.36299	55648.6
813.22213	55445.6
817.07857	55439.8
820.93231	55484.6
824.78336	55419.4
828.63172	55417.7
832.47738	55288.8
836.32036	55352
840.16066	55317.2
843.99827	55424.2
847.8332	55511.8
851.66546	55650.2
855.49504	55688.7
859.32195	55852.5
863.1462	55861
866.96777	55891.3
870.78668	55939.1
874.60293	55952.2
878.41652	56008.9
882.22745	56066.1
886.03573	56235.3
889.84136	56233
893.64433	56165.4
897.44466	56037.9
901.24235	55982.9
905.0374	55918.2
908.8298	55889.4
912.61957	55925.3
916.40671	56327.6
920.19121	56863.8
923.97308	57162.2
927.75233	56993.5
931.52895	56596.4
935.30295	56029.2
939.07433	55599.5
942.84309	55185.7
946.60924	54947.4
950.37278	54925
954.13371	54986.2
957.89203	54989.9
961.64774	54997.2
965.40086	54910
969.15137	54842
972.89929	54735.7
976.64461	54667.3
980.38733	54556
984.12747	54534.4
987.86502	54712
991.59999	54956.1
995.33237	55276.2
999.06217	55678.3
1002.78939	56311.6
1006.51404	57102.8
1010.23611	57815.6
1013.95561	58263.3
1017.67255	58302.7
1021.38692	58008.5
1025.09872	57498.7
1028.80796	56914.3
1032.51465	56697.8
1036.21877	56708.9
1039.92035	56803.6
1043.61937	57010.5
1047.31584	57153.4
1051.00976	57340.2
1054.70114	57576.4
1058.38998	57940
1062.07627	58430.4
1065.76003	59010.3
1069.44126	59626.9
1073.11995	60300.2
1076.79611	60837.9
1080.46974	61172.4
1084.14085	61318.3
1087.80943	61659.8
1091.47549	62064.4
1095.13903	62255.2
1098.80005	61917.9
1102.45857	61144.4
1106.11456	60366.9
1109.76805	59888
1113.41903	59714.6
1117.06751	59770.9
1120.71348	60017.7
1124.35696	60353.4
1127.99793	60662.1
1131.63641	60854.4
1135.2724	60812.4
1138.90589	60811.3
1142.5369	60929.7
1146.16542	61070.1
1149.79145	61378.9
1153.415	61818.4
1157.03607	62264.1
1160.65467	63024.1
1164.27079	64244.8
1167.88443	65839.4
1171.49561	67824.5
1175.10432	70151.6
1178.71056	72960.6
1182.31434	75617.5
1185.91565	77244.8
1189.51451	77958.8
1193.11091	77826
1196.70485	76771.7
1200.29634	75251
1203.88538	73808.9
1207.47197	73091.6
1211.05612	72602.3
1214.63782	71771.7
1218.21708	70622.3
1221.79391	69291.7
1225.36829	68302.9
1228.94024	67701
1232.50976	67265.5
1236.07685	66995.7
1239.6415	66787.5
1243.20374	66878.1
1246.76355	67117.3
1250.32093	67745.6
1253.8759	68492.8
1257.42845	69661.9
1260.97859	70985.7
1264.52631	72248.3
1268.07163	73571.5
1271.61453	74641.5
1275.15503	75657
1278.69312	76746.3
1282.22882	77923.2
1285.76211	79326.9
1289.29301	80958.4
1292.82151	82923.5
1296.34761	85275.7
1299.87133	87838.4
1303.39266	90481.2
1306.9116	92835.3
1310.42815	94759.5
1313.94233	95728.3
1317.45412	95653.3
1320.96354	94934.8
1324.47058	94618.7
1327.97525	94542
1331.47754	94719.9
1334.97747	94871.9
1338.47502	95458.1
1341.97022	96284.4
1345.46305	97115
1348.95352	97451.9
1352.44163	96790.2
1355.92738	95770.8
1359.41078	95377
1362.89183	95087
1366.37053	93241.6
1369.84688	89119
1373.32088	84225.1
1376.79254	80638.5
1380.26186	78965.2
1383.72883	78701
1387.19347	78542.8
1390.65578	78137.1
1394.11575	77650.6
1397.57339	77500.9
1401.0287	77507.7
1404.48168	77613.5
1407.93234	77321.6
1411.38068	76363.4
1414.82669	75014.8
1418.27039	73385.9
1421.71177	71851
1425.15083	70623.5
1428.58758	69902.7
1432.02203	70205.3
1435.45416	71108.5
1438.88399	72234.2
1442.31151	73259.6
1445.73673	74000.1
1449.15965	74670.5
1452.58027	75273.1
1455.9986	75674.2
1459.41463	76282.2
1462.82837	77159.2
1466.23982	78043.5
1469.64898	78776.6
1473.05586	79436.6
1476.46045	79627.1
1479.86276	79626.4
1483.26279	79411.2
1486.66054	79189.8
1490.05602	79479.2
1493.44922	80148.5
1496.84016	81190.3
1500.22882	82656
1503.61521	84537.1
1506.99934	86086.9
1510.38121	87047
1513.76081	86790.4
1517.13816	85596.7
1520.51324	84258.1
1523.88607	83614.3
1527.25665	83392.8
1530.62498	83402.3
1533.99105	83203
1537.35488	82311.7
1540.71647	81081.9
1544.07581	79726
1547.4329	78503.6
1550.78776	77298.5
1554.14038	76570.7
1557.49077	76093
1560.83892	75823.3
1564.18484	75780.2
1567.52853	75744.4
1570.86999	75963
1574.20922	76545.1
1577.54624	77021.6
1580.88103	76965
1584.2136	77036.1
1587.54395	77947.5
1590.87208	79714
1594.19801	82049.4
1597.52172	84380.4
1600.84321	84837.5
1604.16251	82935.3
1607.47959	79949.4
1610.79447	76573.5
1614.10715	73072.5
1617.41763	69779.1
1620.7259	67227.5
1624.03199	65657.3
1627.33587	65258.2
1630.63757	66031.9
1633.93707	68159
1637.23439	71902.9
1640.52951	77525.8
1643.82246	84242.8
1647.11321	89529.4
1650.40179	90875.3
1653.68819	87215.7
1656.97241	80250.2
1660.25446	72953.4
1663.53433	67078.9
1666.81203	63089.4
1670.08756	60537.1
1673.36092	59003.7
1676.63211	57844.2
1679.90115	57069.8
1683.16801	56393.2
1686.43272	55995.8
1689.69527	55621.2
1692.95567	55374.6
1696.2139	55197.3
1699.46999	55145.9
1702.72392	54972.5
1705.97571	54944.6
1709.22535	54797.3
1712.47284	54763.7
1715.71819	54801.3
1718.96139	54683.1
1722.20246	54549.2
1725.44139	54416
1728.67818	54240
1731.91284	54017.9
1735.14537	53791.6
1738.37576	53678.9
1741.60403	53560.4
1744.83017	53364.6
1748.05418	53205.4
1751.27607	53157.4
1754.49584	53054.9
1757.71349	53068.8
1760.92903	53060.8
1764.14244	52964.7
1767.35375	52945.7
1770.56294	52841.7
1773.77002	52865.5
1776.97499	52840.3
1780.17785	52746.8
1783.37861	52686.3
1786.57727	52558.2
1789.77382	52455.4
1792.96828	52473.2
1796.16064	52385.9
1799.3509	52349.6
1802.53907	52261.1
1805.72514	52137
1808.90913	52075.9
1812.09102	51921.5
1815.27083	51866.7
1818.44856	51766
1821.6242	51688.3
1824.79776	51678
1827.96924	51649.3
1831.13864	51609.4
1834.30597	51625.6
1837.47122	51583.4
1840.6344	51488.3
1843.7955	51597
1846.95454	51545.3
1850.11151	51543.1
1853.26642	51483.7
1856.41926	51483.4
1859.57004	51445.3
1862.71876	51319.1
1865.86542	51270.5
1869.01003	51211.2
1872.15258	51122.5
1875.29308	51089.9
1878.43152	51010.4
1881.56792	50953
1884.70227	51012.6
1887.83457	50950.5
1890.96482	50859.7
1894.09304	50790.4
1897.21921	50719.2
1900.34335	50644
1903.46544	50555.2
1906.58551	50525.7
1909.70353	50525.1
1912.81953	50406.2
1915.93349	50406.1
1919.04543	50224.1
1922.15534	50185.5
1925.26322	50122.4
1928.36908	50105.3
1931.47292	49947.3
1934.57473	49873.8
1937.67453	49776.9
1940.77232	49655.4
1943.86808	49532.2
1946.96184	49419.5
1950.05358	49263.1
1953.14331	49101.5
1956.23103	48980.6
1959.31675	48837
1962.40046	48676.7
1965.48217	48506.9
1968.56188	48339.9
1971.63959	48264.7
1974.7153	48213.7
1977.78901	47967.9
1980.86073	47829.4
1983.93046	47783.6
1986.99819	47560.3
1990.06394	47521.2
1993.1277	47415.3
1996.18947	47257.2
1999.24925	47147.1
2002.30706	47019
2005.36288	46860.2
2008.41672	46745
2011.46859	46597.9
2014.51848	46473.3
2017.56639	46309.3
2020.61233	46232.7
2023.6563	46089.6
2026.6983	46006.1
2029.73833	45859
2032.7764	45724.1
2035.8125	45681.8
2038.84664	45595.5
2041.87881	45496.2
2044.90903	45426.1
2047.93729	45310.6
2050.96359	45317.4
2053.98794	45217
2057.01034	45235.6
2060.03078	45215.5
2063.04927	45190.7
2066.06582	45187.7
2069.08042	45147.9
2072.09307	45100.7
2075.10378	45056.2
2078.11255	44987.2
2081.11938	45071.7
2084.12426	45013.9
2087.12722	44988.5
2090.12824	45003.3
2093.12732	45002.5
2096.12447	44989.6
2099.11969	44944.1
2102.11299	44950.8
2105.10435	44999.4
2108.09379	44975.4
2111.08131	45008.3
2114.0669	45000.9
2117.05057	44996.5
2120.03233	45052.2
2123.01216	45085
2125.99008	45164.7
2128.96609	45281.2
2131.94018	45308.9
2134.91236	45309.7
2137.88263	45415.8
2140.851	45400.2
2143.81746	45400.6
2146.78201	45366.1
2149.74466	45500.6
2152.7054	45431.6
2155.66425	45428.3
2158.6212	45462.2
2161.57625	45392.7
2164.52941	45400.5
2167.48067	45350.3
2170.43004	45336.3
2173.37752	45322.1
2176.32311	45344.6
2179.26681	45405.8
2182.20863	45328.8
2185.14856	45330.3
2188.08661	45370
2191.02278	45310.8
2193.95707	45240.1
2196.88948	45228.1
2199.82001	45169.2
2202.74867	45095.4
2205.67545	45022.7
2208.60037	44947.3
2211.52341	44957.8
2214.44458	44891.7
2217.36388	44840.4
2220.28132	44780.7
2223.1969	44668.8
2226.11061	44521.3
2229.02246	44368.1
2231.93245	44341.9
2234.84058	44262
2237.74686	44318.4
2240.65128	44333.4
2243.55385	44217.2
2246.45456	44133.3
2249.35343	44059.9
2252.25044	43991.5
2255.14561	43900.8
2258.03893	43875.8
2260.93041	43790.5
2263.82004	43646.2
2266.70783	43549
2269.59378	43459.4
2272.4779	43389
2275.36017	43281.4
2278.24061	43276.4
2281.11922	43141.8
2283.996	43056
2286.87094	43045
2289.74405	42924.8
2292.61534	42938.5
2295.4848	42874.9
2298.35243	42859.4
2301.21824	42806.9
2304.08223	42783.9
2306.94439	42678.4
2309.80474	42677.3
2312.66327	42665.5
2315.51999	42617.7
2318.37489	42542
2321.22797	42435.3
2324.07925	42438
2326.92871	42314.3
2329.77637	42244.1
2332.62222	42159.2
2335.46626	42148.2
2338.3085	42122.2
2341.14893	42049.9
2343.98756	42016.2
2346.8244	42010
2349.65943	42054.9
2352.49267	41979.5
2355.32411	41983.9
2358.15376	41924.4
2360.98161	41915.4
2363.80768	41829.8
2366.63195	41821.6
2369.45444	41863.2
2372.27514	41793.3
2375.09405	41765.8
2377.91118	41646.6
2380.72652	41548.7
2383.54009	41510.2
2386.35187	41474
2389.16188	41229.2
2391.97011	41169.9
2394.77657	41167
2397.58125	41105.6
2400.38416	40987.6
2403.18529	40941.2
2405.98466	40918.5
2408.78226	40805.8
2411.57809	40757.6
2414.37216	40771
2417.16446	40710.5
2419.955	40703.3
2422.74378	40715.8
2425.5308	40648.4
2428.31606	40637.1
2431.09956	40578.7
2433.88131	40542.4
2436.6613	40580.1
2439.43954	40463.9
2442.21603	40459.1
2444.99077	40400.8
2447.76377	40424.6
2450.53501	40331.4
2453.30451	40365.9
2456.07226	40292.6
2458.83827	40242.7
2461.60254	40191.9
2464.36507	40159.9
2467.12586	40154.3
2469.88492	40145.7
2472.64224	40109.4
2475.39782	40073.9
2478.15167	40034.7
2480.90379	40081.3
2483.65417	40029.7
2486.40283	40026.2
2489.14976	40011.7
2491.89497	39912.3
2494.63845	39985.9
2497.3802	39940.4
2500.12024	39933.2
2502.85855	39871.3
2505.59514	39782.2
2508.33002	39690.5
2511.06318	39697.7
2513.79462	39709.7
2516.52435	39705.5
2519.25237	39659.7
2521.97867	39550.8
2524.70327	39608.4
2527.42616	39521.1
2530.14734	39504.5
2532.86681	39394.2
2535.58458	39399.4
2538.30065	39401.7
2541.01501	39378.1
2543.72768	39291.1
2546.43864	39265
2549.14791	39183.6
2551.85548	39071.8
2554.56136	39053.8
2557.26554	38902.6
2559.96803	38861.5
2562.66883	38828
2565.36794	38784.6
2568.06536	38794.1
2570.7611	38560.4
2573.45514	38490
2576.14751	38493.1
2578.83819	38439.5
2581.52719	38454.4
2584.21451	38365.8
2586.90015	38278.4
2589.58411	38178.9
2592.2664	38248.6
2594.94701	38112
2597.62594	38108.5
2600.30321	38062.4
2602.9788	38034.8
2605.65273	37982.5
2608.32498	37990
2610.99557	37952.9
2613.66449	37923.7
2616.33175	37862.8
2618.99734	37768.2
2621.66128	37667.4
2624.32355	37639.1
2626.98416	37627
2629.64311	37549.4
2632.30041	37458.2
2634.95605	37457.4
2637.61004	37357.9
2640.26238	37417.1
2642.91306	37362.3
2645.56209	37315.2
2648.20948	37340.2
2650.85521	37296.2
2653.4993	37341.4
2656.14175	37310.5
2658.78255	37351.8
2661.42171	37317.8
2664.05923	37351.9
2666.6951	37310.8
2669.32934	37311
2671.96194	37309.3
2674.59291	37338.3
2677.22224	37354.9
2679.84993	37317.1
2682.476	37285
2685.10043	37253.4
2687.72324	37245.3
2690.34441	37252.1
2692.96396	37300.5
2695.58188	37244.8
2698.19818	37289.8
2700.81285	37225.7
2703.4259	37193.6
2706.03733	37251.3
2708.64714	37232.9
2711.25533	37309.2
2713.86191	37202
2716.46687	37263.8
2719.07021	37265.8
2721.67194	37310.2
2724.27206	37227.5
2726.87057	37280.8
2729.46747	37298.2
2732.06276	37266.3
2734.65644	37234.4
2737.24852	37274.8
2739.83899	37204.3
2742.42786	37166.3
2745.01513	37143.3
2747.60079	37072.8
2750.18486	37053.8
2752.76733	37044.1
2755.3482	36910.1
2757.92747	36937
2760.50515	36869.5
2763.08123	36894
2765.65573	36831
2768.22863	36774.6
2770.79994	36722.1
2773.36967	36752.5
2775.9378	36727.1
2778.50435	36720
2781.06932	36658.7
2783.6327	36573
2786.1945	36556.1
2788.75471	36490
2791.31335	36414
2793.87041	36366.2
2796.42589	36273
2798.97979	36256.4
2801.53212	36082.4
2804.08288	35983
2806.63206	35929.9
2809.17967	35941.9
2811.72571	35798.4
2814.27018	35689.5
2816.81308	35539.2
2819.35442	35506.9
2821.89419	35432
2824.43239	35396.2
2826.96904	35328
2829.50412	35319.4
2832.03763	35260.6
2834.56959	35200
2837.1	35150.1
2839.62884	35142.2
2842.15613	35043.1
2844.68186	35085.4
2847.20604	35020.2
2849.72867	34994.7
2852.24974	34901
2854.76927	34821.5
2857.28724	34815.6
2859.80367	34848.1
2862.31855	34711.4
2864.83189	34698.3
2867.34368	34599.3
2869.85393	34573.4
2872.36264	34521
2874.8698	34430.4
2877.37543	34447.3
2879.87952	34432
2882.38207	34422.1
2884.88308	34406.3
2887.38256	34399.5
2889.88051	34374.7
2892.37692	34391
2894.8718	34385.5
2897.36515	34345.2
2899.85698	34386.4
2902.34727	34438
2904.83604	34391.9
2907.32328	34420.1
2909.809	34441.7
2912.29319	34447
2914.77587	34433.9
2917.25702	34424.1
2919.73665	34324.3
2922.21476	34346.5
2924.69136	34338.8
2927.16644	34325.7
2929.64	34258.4
2932.11205	34234.4
2934.58258	34155.8
2937.05161	34220.6
2939.51912	34253.2
2941.98513	34152.8
2944.44962	34116.7
2946.91261	34019.6
2949.37409	34105.8
2951.83407	34041.4
2954.29254	34008.1
2956.74951	33977.8
2959.20498	34006.5
2961.65895	33952.7
2964.11142	34014.4
2966.56239	33934.7
2969.01186	33922.9
2971.45984	33792.1
2973.90632	33765.5
2976.35131	33755.2
2978.7948	33693.4
2981.23681	33618.7
2983.67732	33626
2986.11635	33539.1
2988.55388	33470.6
2990.98993	33411.4
2993.4245	33357.8
2995.85758	33265.1
2998.28917	33128.4
3000.71928	33068.1
3003.14791	32961
3005.57506	32976.3
3008.00073	32863.4
3010.42493	32830.6
3012.84764	32699.9
3015.26888	32751.1
3017.68865	32646.5
3020.10694	32608.6
3022.52376	32513.4
3024.9391	32481.3
3027.35298	32466.4
3029.76539	32441.4
3032.17632	32403.1
3034.5858	32388.1
3036.9938	32345.9
3039.40034	32284.1
3041.80542	32252.9
3044.20903	32175
3046.61118	32162.9
3049.01187	32064.8
3051.4111	31969.9
3053.80888	31890.2
3056.20519	31860.5
3058.60005	31781.3
3060.99345	31735.5
3063.3854	31644.9
3065.7759	31546.4
3068.16494	31428.1
3070.55254	31351.6
3072.93868	31256.2
3075.32338	31218.7
3077.70662	31160.5
3080.08842	31050.1
3082.46878	30964.3
3084.84769	30924.3
3087.22515	30899.8
3089.60118	30888.6
3091.97576	30874.6
3094.3489	30802.9
3096.72061	30840.4
3099.09087	30845.2
3101.4597	30783.5
3103.82709	30788.1
3106.19305	30709.8
3108.55757	30723.7
3110.92066	30679.7
3113.28232	30657.7
3115.64255	30509.1
3118.00134	30422.4
3120.35871	30362.5
3122.71466	30248.1
3125.06917	30166.8
3127.42226	30140.6
3129.77393	30112.8
3132.12417	30058.9
3134.47299	30017
3136.82039	29975.3
3139.16636	29958.1
3141.51092	29939.7
3143.85406	29930.1
3146.19579	29909.2
3148.53609	29924.6
3150.87499	29930.7
3153.21246	29924.6
3155.54853	29955.2
3157.88318	29828
3160.21642	29893.3
3162.54826	29843.8
3164.87868	29811.3
3167.2077	29746.6
3169.5353	29734
3171.86151	29698.8
3174.18631	29714
3176.5097	29684
3178.83169	29617.4
3181.15228	29561.5
3183.47147	29422.3
3185.78926	29436.1
3188.10565	29408.6
3190.42065	29318.7
3192.73424	29272.2
3195.04645	29223.5
3197.35725	29199.3
3199.66667	29161.7
3201.97469	29159.8
3204.28132	29106.8
3206.58656	29110.8
3208.8904	29112.3
3211.19287	29116.8
3213.49394	29099
3215.79363	29102.4
3218.09193	29147.7
3220.38884	29054.5
3222.68438	29109.2
3224.97853	28997
3227.2713	28998.3
3229.56269	28948.5
3231.8527	28987.7
3234.14133	28884.8
3236.42858	28799.5
3238.71446	28703.2
3240.99896	28668.9
3243.28209	28712.5
3245.56384	28617.3
3247.84423	28560.2
3250.12324	28520.9
3252.40088	28526
3254.67715	28517
3256.95205	28464.6
3259.22558	28448.7
3261.49775	28409.5
3263.76855	28359.3
3266.03799	28243.8
3268.30606	28210.1
3270.57277	28145.7
3272.83812	28092.7
3275.10211	28038.4
3277.36474	28007.8
3279.62601	27937.1
3281.88593	27910.5
3284.14448	27922.9
3286.40168	27927.4
3288.65753	27848.6
3290.91202	27791.5
3293.16516	27729.4
3295.41695	27755.1
3297.66738	27520.4
3299.91647	27366.3
3302.16421	27177
3304.4106	27088.3
3306.65564	26859.6
3308.89933	26681.9
3311.14169	26540.8
3313.38269	26340.5
3315.62236	26185.7
3317.86068	25899.6
3320.09766	25688.7
3322.3333	25532.5
3324.5676	25378.8
3326.80056	24999.5
3329.03219	24843.8
3331.26248	5.7
3333.49143	0.9
3335.71905	-0.3
