Data from AgNPs_FTO_APTES_UA_20uM_CRN_5uM_R6G_10uM_NaF_0.1M_Addition_RamanShift__1__13-33-02-130.txt Node

Date: Thu Feb 17 13:33:02 GMT 2022
User: TCL
Spectrometer: QEP01345
Trigger mode: 4
Integration Time (sec): 7.000000E0
Scans to average: 10
Electric dark correction enabled: true
Nonlinearity correction enabled: false
Boxcar width: 0
XAxis mode: Raman Shifts
Number of Pixels in Spectrum: 1044
>>>>>Begin Spectral Data<<<<<
46.04893	-0
50.45542	0.1
54.85868	-3.1
59.25871	-1
63.6555	131.5
68.04907	130.5
72.43941	135.7
76.82654	137.5
81.21044	149.6
85.59113	150.4
89.96862	155.1
94.34289	155.3
98.71396	160.3
103.08183	166.7
107.4465	165.3
111.80798	172.4
116.16626	178.6
120.52136	193.1
124.87327	196.9
129.222	211.7
133.56755	228.4
137.90993	243.1
142.24913	271.9
146.58517	309.7
150.91804	367.4
155.24774	438.5
159.57429	554.1
163.89768	719
168.21792	954.7
172.53501	1318.9
176.84895	1860.4
181.15975	2631.7
185.46741	3706.1
189.77193	5131.3
194.07331	6916.2
198.37157	8943.2
202.6667	11078.4
206.9587	13238.2
211.24758	15324.4
215.53334	17330.2
219.81599	19519
224.09553	21890
228.37195	24560.4
232.64527	27464.5
236.91549	30587.5
241.18261	33664.9
245.44663	36659.6
249.70755	39365.6
253.96539	41769.7
258.22014	43785.9
262.4718	45393.6
266.72039	46552
270.96589	47235
275.20832	47352.1
279.44768	47098.8
283.68397	46671.3
287.91719	46309.8
292.14735	46080.3
296.37445	45973.3
300.59849	46065.2
304.81948	46305.4
309.03742	46414.6
313.25231	46270.1
317.46415	45833.7
321.67296	45109.8
325.87872	44590.1
330.08145	44304.9
334.28114	44365.1
338.47781	44679
342.67145	45213.3
346.86207	45918.1
351.04966	46735.2
355.23424	47448
359.4158	48146.7
363.59435	48637.6
367.76989	49020.6
371.94243	49283.5
376.11196	49519.3
380.27849	49835
384.44203	50090.7
388.60257	50555.4
392.76012	50927.2
396.91468	51488.4
401.06626	52190.7
405.21485	52590.9
409.36047	52585.7
413.50311	52123.9
417.64277	51841.9
421.77947	51879
425.9132	52049.9
430.04396	52408.8
434.17176	52716.8
438.2966	53162.1
442.41849	53890.3
446.53742	54912.6
450.6534	56143.7
454.76644	57006
458.87653	57417.7
462.98368	57276.1
467.08789	56791.3
471.18916	56243.2
475.2875	55648.5
479.38291	55300.5
483.4754	55022.7
487.56496	54616.5
491.6516	54256.7
495.73531	53804.2
499.81612	53534.9
503.89401	53794
507.96899	53982.7
512.04106	53973.4
516.11023	53882.5
520.1765	53694.6
524.23987	53626.9
528.30034	53498.7
532.35792	53257.7
536.41261	52957.7
540.46441	52648.7
544.51333	52577.3
548.55936	53005.4
552.60252	53765.3
556.64279	54726
560.6802	55464.7
564.71473	55817.6
568.7464	56478.5
572.7752	57526.7
576.80114	58727.5
580.82422	59912.7
584.84444	61197.8
588.86181	62706.7
592.87633	64025.5
596.888	63860.2
600.89682	62459.4
604.9028	62576.3
608.90594	65579.9
612.90624	68842.4
616.90371	65679.2
620.89834	58557.6
624.89015	55417.5
628.87913	54998.5
632.86528	55290.6
636.84862	55489.7
640.82913	54932.3
644.80683	54009.1
648.78172	53435.4
652.75379	53450.2
656.72306	54011
660.68952	54713.1
664.65319	54561.9
668.61405	53974.4
672.57211	53979.1
676.52738	54177.6
680.47986	54139.6
684.42955	53954.3
688.37646	53861.6
692.32058	54039.1
696.26192	54672.2
700.20048	55324.1
704.13626	55725
708.06928	55752.7
711.99952	55540.6
715.927	55446
719.85171	55568.3
723.77365	55415.3
727.69284	55091.3
731.60928	54626.8
735.52295	54498
739.43388	54534.7
743.34206	54752.5
747.24749	54946.7
751.15017	55199.3
755.05012	55859.3
758.94733	56901.6
762.8418	58727.7
766.73354	61678.6
770.62254	64428.1
774.50882	64925.2
778.39237	62846.9
782.27321	59901.3
786.15132	57551.6
790.02671	55965
793.89938	55161.5
797.76935	54854.6
801.6366	54644.2
805.50115	54532.1
809.36299	54442.2
813.22213	54253.2
817.07857	54170.7
820.93231	54151.5
824.78336	54072.7
828.63172	54002.4
832.47738	53986.8
836.32036	54021.7
840.16066	54104.6
843.99827	54168.1
847.8332	54234.5
851.66546	54220.4
855.49504	54304.1
859.32195	54382.9
863.1462	54385.1
866.96777	54331.9
870.78668	54380
874.60293	54405.6
878.41652	54440.9
882.22745	54564.6
886.03573	54704.8
889.84136	54678.3
893.64433	54508.1
897.44466	54345.3
901.24235	54189.1
905.0374	54133.6
908.8298	54061.6
912.61957	54113.6
916.40671	54384.4
920.19121	54819.5
923.97308	55286.8
927.75233	55298.3
931.52895	54992.9
935.30295	54515.4
939.07433	53946.6
942.84309	53525
946.60924	53311.2
950.37278	53292.9
954.13371	53386.7
957.89203	53379.6
961.64774	53263.5
965.40086	53282.3
969.15137	53186.5
972.89929	53061.4
976.64461	53043.8
980.38733	52976.2
984.12747	53158.6
987.86502	53434.4
991.59999	53770.6
995.33237	54257.3
999.06217	54929.1
1002.78939	55859.2
1006.51404	56675.7
1010.23611	57489.5
1013.95561	57981.7
1017.67255	58120.1
1021.38692	57690.6
1025.09872	57038.2
1028.80796	56562.6
1032.51465	56624.6
1036.21877	56884.1
1039.92035	56984.8
1043.61937	57099.2
1047.31584	56819.4
1051.00976	56530.3
1054.70114	56557.5
1058.38998	56737.9
1062.07627	57052.3
1065.76003	57537.2
1069.44126	58147.5
1073.11995	58943.4
1076.79611	59558.2
1080.46974	59952.4
1084.14085	60286.9
1087.80943	60711.2
1091.47549	61081.2
1095.13903	61053.7
1098.80005	60544.2
1102.45857	59772.8
1106.11456	59085.8
1109.76805	58694.5
1113.41903	58718.5
1117.06751	58932.8
1120.71348	59259
1124.35696	59676.4
1127.99793	60041.5
1131.63641	60125.6
1135.2724	59931.7
1138.90589	59737
1142.5369	59779.7
1146.16542	59912.8
1149.79145	60131.8
1153.415	60435.4
1157.03607	60939.7
1160.65467	61765.5
1164.27079	63412.4
1167.88443	65446.9
1171.49561	67989.2
1175.10432	71108.6
1178.71056	75077.6
1182.31434	78759.4
1185.91565	80641
1189.51451	80461.8
1193.11091	79143.3
1196.70485	77207
1200.29634	75277.8
1203.88538	73776.7
1207.47197	72816.5
1211.05612	71919.8
1214.63782	70859.1
1218.21708	69707.7
1221.79391	68653.2
1225.36829	68018.2
1228.94024	67520.6
1232.50976	66826.7
1236.07685	66166.4
1239.6415	65680
1243.20374	65682.9
1246.76355	66081.4
1250.32093	66781.7
1253.8759	67778.5
1257.42845	69026.3
1260.97859	70489.4
1264.52631	71880.6
1268.07163	73357.8
1271.61453	74756.7
1275.15503	75896.9
1278.69312	77222.7
1282.22882	78580.1
1285.76211	80264.2
1289.29301	82331.5
1292.82151	84782.4
1296.34761	87847.6
1299.87133	91479.1
1303.39266	95471.2
1306.9116	99438.7
1310.42815	102867.5
1313.94233	104652.5
1317.45412	104193.2
1320.96354	102390.7
1324.47058	100728
1327.97525	99302.4
1331.47754	98144.6
1334.97747	97411.1
1338.47502	97130.7
1341.97022	97046.1
1345.46305	96888
1348.95352	96757
1352.44163	97022.7
1355.92738	98440.2
1359.41078	101142.3
1362.89183	103428.2
1366.37053	101940.8
1369.84688	95584.9
1373.32088	87739.3
1376.79254	82216.6
1380.26186	80057.5
1383.72883	79684.8
1387.19347	79625.7
1390.65578	79065.1
1394.11575	78518.5
1397.57339	78644.8
1401.0287	79098.1
1404.48168	79464.6
1407.93234	79312.9
1411.38068	78519.6
1414.82669	77105.6
1418.27039	75284.1
1421.71177	73392.7
1425.15083	71830.7
1428.58758	71141.8
1432.02203	71668.5
1435.45416	72934.9
1438.88399	74443.8
1442.31151	75596.5
1445.73673	76210.1
1449.15965	76507.1
1452.58027	76560.8
1455.9986	76434.4
1459.41463	76814
1462.82837	77771.2
1466.23982	78755.3
1469.64898	79967.9
1473.05586	80785.8
1476.46045	81062.1
1479.86276	80852.9
1483.26279	80473.1
1486.66054	80300.1
1490.05602	80644.8
1493.44922	81429.1
1496.84016	82385.3
1500.22882	83995.2
1503.61521	86401.4
1506.99934	88977.6
1510.38121	90786.1
1513.76081	90576.7
1517.13816	88301.3
1520.51324	85427.6
1523.88607	83544.1
1527.25665	82837.2
1530.62498	82826
1533.99105	82887
1537.35488	82349
1540.71647	81196.9
1544.07581	79761.4
1547.4329	78352.4
1550.78776	77019.4
1554.14038	76077.5
1557.49077	75496.6
1560.83892	75212.4
1564.18484	75187.8
1567.52853	75435.4
1570.86999	76026.4
1574.20922	76758.5
1577.54624	77236.1
1580.88103	77005.8
1584.2136	77045.2
1587.54395	78307.6
1590.87208	81007.7
1594.19801	84730.4
1597.52172	88443.5
1600.84321	89643.7
1604.16251	87008.9
1607.47959	82471.7
1610.79447	77418.2
1614.10715	72731.5
1617.41763	68873.9
1620.7259	66123.3
1624.03199	64714.3
1627.33587	64485.8
1630.63757	65602.5
1633.93707	68306.9
1637.23439	72924.5
1640.52951	79977.4
1643.82246	88255.3
1647.11321	94670.8
1650.40179	95859.6
1653.68819	90410.4
1656.97241	81260.5
1660.25446	72394.6
1663.53433	65807.9
1666.81203	61569.6
1670.08756	58964.1
1673.36092	57305.4
1676.63211	56150
1679.90115	55361.6
1683.16801	54735.7
1686.43272	54237.3
1689.69527	53908.7
1692.95567	53645.2
1696.2139	53539.3
1699.46999	53413.8
1702.72392	53370.4
1705.97571	53265.6
1709.22535	53170.3
1712.47284	53113.2
1715.71819	53187
1718.96139	53110.7
1722.20246	52975
1725.44139	52846.9
1728.67818	52600.1
1731.91284	52374.3
1735.14537	52134
1738.37576	52012.5
1741.60403	51881.7
1744.83017	51659.2
1748.05418	51583.6
1751.27607	51446.2
1754.49584	51482.1
1757.71349	51460.9
1760.92903	51444.8
1764.14244	51355.6
1767.35375	51278.7
1770.56294	51240
1773.77002	51254.7
1776.97499	51196.1
1780.17785	51086.8
1783.37861	51010.1
1786.57727	50941.1
1789.77382	50915
1792.96828	50871.8
1796.16064	50819.2
1799.3509	50730
1802.53907	50687.6
1805.72514	50494.3
1808.90913	50417.7
1812.09102	50366.7
1815.27083	50278.9
1818.44856	50190.7
1821.6242	50157.5
1824.79776	50122.2
1827.96924	50083.4
1831.13864	50011.9
1834.30597	50043
1837.47122	50029.5
1840.6344	49962.5
1843.7955	49923.9
1846.95454	49926.1
1850.11151	49947.6
1853.26642	49889.1
1856.41926	49883.7
1859.57004	49825.2
1862.71876	49776.1
1865.86542	49710.2
1869.01003	49689.5
1872.15258	49602
1875.29308	49601.6
1878.43152	49488.4
1881.56792	49479.2
1884.70227	49460.1
1887.83457	49493.5
1890.96482	49484.1
1894.09304	49433.3
1897.21921	49363
1900.34335	49265.6
1903.46544	49202.5
1906.58551	49139.8
1909.70353	49168.2
1912.81953	49102.9
1915.93349	48957.3
1919.04543	48899
1922.15534	48896.7
1925.26322	48838.8
1928.36908	48762.9
1931.47292	48717.1
1934.57473	48589.7
1937.67453	48482.1
1940.77232	48384.7
1943.86808	48236.6
1946.96184	48200.7
1950.05358	48044.8
1953.14331	47909.3
1956.23103	47736.7
1959.31675	47672.9
1962.40046	47511
1965.48217	47340.8
1968.56188	47213.5
1971.63959	47031.7
1974.7153	46981.9
1977.78901	46825.3
1980.86073	46725
1983.93046	46658.4
1986.99819	46495.4
1990.06394	46411.5
1993.1277	46347
1996.18947	46166.1
1999.24925	46072.1
2002.30706	45978.3
2005.36288	45809.5
2008.41672	45637.7
2011.46859	45520.2
2014.51848	45423.2
2017.56639	45275.2
2020.61233	45176.5
2023.6563	45087.4
2026.6983	44982.4
2029.73833	44919.6
2032.7764	44831.7
2035.8125	44769
2038.84664	44667.4
2041.87881	44602.4
2044.90903	44573.3
2047.93729	44522.7
2050.96359	44456.1
2053.98794	44409.4
2057.01034	44397.8
2060.03078	44397
2063.04927	44358
2066.06582	44341.4
2069.08042	44327.4
2072.09307	44223.5
2075.10378	44169.2
2078.11255	44186.3
2081.11938	44182
2084.12426	44159.1
2087.12722	44137.9
2090.12824	44176.8
2093.12732	44132.4
2096.12447	44160.9
2099.11969	44121.9
2102.11299	44123.3
2105.10435	44178.1
2108.09379	44187.4
2111.08131	44252.3
2114.0669	44223.6
2117.05057	44195.5
2120.03233	44334.5
2123.01216	44400.2
2125.99008	44449
2128.96609	44573.6
2131.94018	44587.6
2134.91236	44619.5
2137.88263	44599.1
2140.851	44631.5
2143.81746	44690.5
2146.78201	44710.6
2149.74466	44741.5
2152.7054	44745.5
2155.66425	44697.7
2158.6212	44723.7
2161.57625	44639.7
2164.52941	44731.6
2167.48067	44630.2
2170.43004	44673.2
2173.37752	44625.5
2176.32311	44710.1
2179.26681	44670
2182.20863	44665.7
2185.14856	44700.8
2188.08661	44699.7
2191.02278	44656.2
2193.95707	44614
2196.88948	44587.4
2199.82001	44589.5
2202.74867	44546.3
2205.67545	44489.4
2208.60037	44443.4
2211.52341	44382.4
2214.44458	44396.8
2217.36388	44321.9
2220.28132	44224.6
2223.1969	44069.2
2226.11061	44032.9
2229.02246	43902.1
2231.93245	43871.1
2234.84058	43783.7
2237.74686	43721.1
2240.65128	43760.3
2243.55385	43635.2
2246.45456	43690.2
2249.35343	43633.3
2252.25044	43616.4
2255.14561	43484.2
2258.03893	43425
2260.93041	43373.8
2263.82004	43230.8
2266.70783	43166.7
2269.59378	43099.3
2272.4779	42997.4
2275.36017	42941.5
2278.24061	42899.4
2281.11922	42785.7
2283.996	42661.6
2286.87094	42702.4
2289.74405	42708.5
2292.61534	42622
2295.4848	42570.5
2298.35243	42557.7
2301.21824	42546
2304.08223	42510.5
2306.94439	42512.2
2309.80474	42550.6
2312.66327	42487.9
2315.51999	42449
2318.37489	42428.4
2321.22797	42372.3
2324.07925	42314.4
2326.92871	42211.7
2329.77637	42144.4
2332.62222	42108.7
2335.46626	42073.9
2338.3085	42055.2
2341.14893	42003.1
2343.98756	41956.2
2346.8244	41997.6
2349.65943	42026
2352.49267	41932.9
2355.32411	41922.6
2358.15376	41910.8
2360.98161	41930.9
2363.80768	41886.2
2366.63195	41848
2369.45444	41821.7
2372.27514	41763.5
2375.09405	41791.5
2377.91118	41614.6
2380.72652	41599
2383.54009	41484.3
2386.35187	41398.3
2389.16188	41237.4
2391.97011	41214.2
2394.77657	41142.5
2397.58125	41088.9
2400.38416	41025.6
2403.18529	40981.4
2405.98466	40984.5
2408.78226	40870.3
2411.57809	40838.5
2414.37216	40807.4
2417.16446	40778.1
2419.955	40764.4
2422.74378	40726.1
2425.5308	40716.5
2428.31606	40692.2
2431.09956	40640.3
2433.88131	40626.4
2436.6613	40609
2439.43954	40599.9
2442.21603	40596.4
2444.99077	40514.8
2447.76377	40523.3
2450.53501	40473.8
2453.30451	40483.2
2456.07226	40419.7
2458.83827	40383.8
2461.60254	40371.1
2464.36507	40367.1
2467.12586	40340.2
2469.88492	40335.9
2472.64224	40311.3
2475.39782	40268.7
2478.15167	40314.6
2480.90379	40317.2
2483.65417	40348.2
2486.40283	40366.7
2489.14976	40309.9
2491.89497	40244.7
2494.63845	40281.4
2497.3802	40206.6
2500.12024	40206.5
2502.85855	40213.7
2505.59514	40145.3
2508.33002	40028.2
2511.06318	39995.2
2513.79462	40044
2516.52435	39973.4
2519.25237	39918.5
2521.97867	39955.4
2524.70327	39938.5
2527.42616	39899.8
2530.14734	39838.4
2532.86681	39767.2
2535.58458	39720.8
2538.30065	39718.8
2541.01501	39708.4
2543.72768	39730.2
2546.43864	39591.4
2549.14791	39623.4
2551.85548	39565.7
2554.56136	39433.4
2557.26554	39368.3
2559.96803	39345.4
2562.66883	39252.4
2565.36794	39276.8
2568.06536	39205.1
2570.7611	39110.5
2573.45514	39085.7
2576.14751	39036.1
2578.83819	38966.1
2581.52719	38909.9
2584.21451	38878.1
2586.90015	38830.5
2589.58411	38796.4
2592.2664	38741
2594.94701	38686.2
2597.62594	38711.3
2600.30321	38686.3
2602.9788	38645.3
2605.65273	38570.4
2608.32498	38595.5
2610.99557	38547.7
2613.66449	38554.5
2616.33175	38493.9
2618.99734	38423.6
2621.66128	38418.3
2624.32355	38337.6
2626.98416	38288.5
2629.64311	38244.6
2632.30041	38267.3
2634.95605	38219.9
2637.61004	38128.1
2640.26238	38141.8
2642.91306	38070.7
2645.56209	38076.2
2648.20948	38033.8
2650.85521	38007.3
2653.4993	38000.4
2656.14175	38050.3
2658.78255	38111
2661.42171	38096.5
2664.05923	38143.3
2666.6951	38081.5
2669.32934	38116.7
2671.96194	38051.7
2674.59291	38137.6
2677.22224	38160.9
2679.84993	38171.5
2682.476	38085.7
2685.10043	38054
2687.72324	37953.4
2690.34441	37990.5
2692.96396	38020.5
2695.58188	38020.7
2698.19818	37994.9
2700.81285	37928.1
2703.4259	37912.7
2706.03733	37972.8
2708.64714	37988.1
2711.25533	38017.4
2713.86191	38031.6
2716.46687	38105.6
2719.07021	38116.4
2721.67194	38095.4
2724.27206	38044.4
2726.87057	38098.6
2729.46747	38090.5
2732.06276	38060.5
2734.65644	38026.7
2737.24852	38085
2739.83899	38051.7
2742.42786	38095.6
2745.01513	38048.2
2747.60079	38003.7
2750.18486	37921.1
2752.76733	37909.2
2755.3482	37823.1
2757.92747	37818.5
2760.50515	37755.8
2763.08123	37749.2
2765.65573	37735.1
2768.22863	37746.1
2770.79994	37704.5
2773.36967	37673.4
2775.9378	37705.8
2778.50435	37661.8
2781.06932	37607.7
2783.6327	37594.3
2786.1945	37546.9
2788.75471	37429.8
2791.31335	37418.8
2793.87041	37369.6
2796.42589	37255.3
2798.97979	37230
2801.53212	37120.8
2804.08288	37108.9
2806.63206	36992.4
2809.17967	36948.7
2811.72571	36845.1
2814.27018	36685.6
2816.81308	36619.5
2819.35442	36530.4
2821.89419	36478.9
2824.43239	36503.5
2826.96904	36461.9
2829.50412	36477.9
2832.03763	36328.1
2834.56959	36265.6
2837.1	36223.1
2839.62884	36198
2842.15613	36117.5
2844.68186	36180.4
2847.20604	36106.7
2849.72867	36103.9
2852.24974	36010.9
2854.76927	35979.2
2857.28724	35958.6
2859.80367	35933.2
2862.31855	35946.4
2864.83189	35847.6
2867.34368	35795.1
2869.85393	35805.3
2872.36264	35802.1
2874.8698	35689.3
2877.37543	35703.1
2879.87952	35662.1
2882.38207	35637.4
2884.88308	35623.4
2887.38256	35633.1
2889.88051	35581.8
2892.37692	35625
2894.8718	35676.3
2897.36515	35693.8
2899.85698	35651.3
2902.34727	35732.3
2904.83604	35733.7
2907.32328	35793.4
2909.809	35757
2912.29319	35751.1
2914.77587	35792.5
2917.25702	35762.6
2919.73665	35735.1
2922.21476	35739.4
2924.69136	35689.2
2927.16644	35694.7
2929.64	35625.5
2932.11205	35559.5
2934.58258	35491.8
2937.05161	35585.1
2939.51912	35576
2941.98513	35563
2944.44962	35493.2
2946.91261	35439.4
2949.37409	35505
2951.83407	35439.5
2954.29254	35418
2956.74951	35432.7
2959.20498	35430.2
2961.65895	35385.7
2964.11142	35442.4
2966.56239	35411.8
2969.01186	35389
2971.45984	35218.3
2973.90632	35207.3
2976.35131	35154.5
2978.7948	35090.3
2981.23681	35041.6
2983.67732	35002.2
2986.11635	34935.1
2988.55388	34836.9
2990.98993	34812
2993.4245	34776
2995.85758	34687.2
2998.28917	34562
3000.71928	34488.9
3003.14791	34417.5
3005.57506	34419
3008.00073	34342.6
3010.42493	34294
3012.84764	34140
3015.26888	34148.9
3017.68865	34131
3020.10694	34028
3022.52376	33994.4
3024.9391	33976.9
3027.35298	33906.5
3029.76539	33915.9
3032.17632	33852.6
3034.5858	33785.1
3036.9938	33800.5
3039.40034	33759.5
3041.80542	33732.6
3044.20903	33647
3046.61118	33603.5
3049.01187	33487
3051.4111	33474.9
3053.80888	33363.1
3056.20519	33335.6
3058.60005	33297
3060.99345	33255.1
3063.3854	33178.3
3065.7759	33033.9
3068.16494	32944.9
3070.55254	32807.5
3072.93868	32780.2
3075.32338	32664.1
3077.70662	32605.5
3080.08842	32503
3082.46878	32491.6
3084.84769	32455.4
3087.22515	32401.8
3089.60118	32397.1
3091.97576	32343.5
3094.3489	32317
3096.72061	32316.8
3099.09087	32350.4
3101.4597	32326.6
3103.82709	32358.2
3106.19305	32251.7
3108.55757	32270.3
3110.92066	32203.9
3113.28232	32191.5
3115.64255	32072.9
3118.00134	31998.2
3120.35871	31885.3
3122.71466	31813.6
3125.06917	31736.4
3127.42226	31739.9
3129.77393	31689.1
3132.12417	31572.6
3134.47299	31538.7
3136.82039	31529.1
3139.16636	31564.3
3141.51092	31516.6
3143.85406	31524.1
3146.19579	31459.9
3148.53609	31495.7
3150.87499	31558.1
3153.21246	31518.2
3155.54853	31573.7
3157.88318	31532.4
3160.21642	31528
3162.54826	31538.3
3164.87868	31435.5
3167.2077	31395.1
3169.5353	31390.9
3171.86151	31358.6
3174.18631	31370.3
3176.5097	31282.2
3178.83169	31278.6
3181.15228	31259.7
3183.47147	31127.8
3185.78926	31149
3188.10565	31124.4
3190.42065	31040.4
3192.73424	31036.3
3195.04645	30945
3197.35725	30933.2
3199.66667	30865
3201.97469	30870.3
3204.28132	30810.3
3206.58656	30795.7
3208.8904	30837.3
3211.19287	30837.3
3213.49394	30839.1
3215.79363	30855.1
3218.09193	30864.7
3220.38884	30864.7
3222.68438	30866.1
3224.97853	30722.4
3227.2713	30758.4
3229.56269	30749.4
3231.8527	30726
3234.14133	30648.9
3236.42858	30644.1
3238.71446	30522.4
3240.99896	30475.9
3243.28209	30482.9
3245.56384	30460
3247.84423	30381.9
3250.12324	30338.2
3252.40088	30299.2
3254.67715	30316
3256.95205	30188.4
3259.22558	30217
3261.49775	30192.4
3263.76855	30144.5
3266.03799	30085.1
3268.30606	30009.4
3270.57277	29951.1
3272.83812	29903.4
3275.10211	29852.8
3277.36474	29764.6
3279.62601	29819
3281.88593	29723.5
3284.14448	29781.4
3286.40168	29745.5
3288.65753	29672.4
3290.91202	29663.3
3293.16516	29596
3295.41695	29606.7
3297.66738	29430.7
3299.91647	29251.1
3302.16421	29064.3
3304.4106	28942.1
3306.65564	28723.3
3308.89933	28537.5
3311.14169	28373.3
3313.38269	28122.4
3315.62236	28040.7
3317.86068	27750.3
3320.09766	27517.4
3322.3333	27319.7
3324.5676	27226.2
3326.80056	26815.6
3329.03219	26642.2
3331.26248	7.3
3333.49143	0.4
3335.71905	-1.8
