Data from AgNPs_FTO_APTES_UA_10uM_CRN_50uM_R6G_10uM_NaF_0.1M_Addition_RamanShift__12__16-49-24-824.txt Node

Date: Thu Feb 17 16:49:24 GMT 2022
User: TCL
Spectrometer: QEP01345
Trigger mode: 4
Integration Time (sec): 1.000000E1
Scans to average: 7
Electric dark correction enabled: true
Nonlinearity correction enabled: false
Boxcar width: 0
XAxis mode: Raman Shifts
Number of Pixels in Spectrum: 1044
>>>>>Begin Spectral Data<<<<<
46.04893	0.625
50.45542	-1.23214
54.85868	0.05357
59.25871	-1.94643
63.6555	55.76786
68.04907	52.625
72.43941	60.33929
76.82654	65.625
81.21044	73.76786
85.59113	72.48214
89.96862	77.05357
94.34289	76.91071
98.71396	76.76786
103.08183	75.76786
107.4465	85.05357
111.80798	80.19643
116.16626	83.48214
120.52136	89.33929
124.87327	90.19643
129.222	85.48214
133.56755	89.48214
137.90993	102.625
142.24913	103.48214
146.58517	112.91071
150.91804	128.33929
155.24774	157.76786
159.57429	179.76786
163.89768	231.48214
168.21792	298.48214
172.53501	400.05357
176.84895	557.76786
181.15975	791.91071
185.46741	1113.33929
189.77193	1541.19643
194.07331	2069.05357
198.37157	2678.625
202.6667	3319.05357
206.9587	3966.625
211.24758	4593.91071
215.53334	5185.76786
219.81599	5839.91071
224.09553	6539.76786
228.37195	7291.625
232.64527	8147.19643
236.91549	9044.48214
241.18261	9979.625
245.44663	10880.33929
249.70755	11762.33929
253.96539	12522.48214
258.22014	13132.48214
262.4718	13655.625
266.72039	13909.33929
270.96589	14097.91071
275.20832	14058.19643
279.44768	13933.05357
283.68397	13729.19643
287.91719	13498.19643
292.14735	13322.76786
296.37445	13209.05357
300.59849	13161.48214
304.81948	13130.48214
309.03742	13090.33929
313.25231	13040.19643
317.46415	12915.76786
321.67296	12798.91071
325.87872	12698.48214
330.08145	12701.48214
334.28114	12768.05357
338.47781	12925.625
342.67145	13086.91071
346.86207	13239.91071
351.04966	13521.33929
355.23424	13716.05357
359.4158	13960.91071
363.59435	14150.05357
367.76989	14337.48214
371.94243	14512.05357
376.11196	14636.48214
380.27849	14725.76786
384.44203	14804.48214
388.60257	14930.91071
392.76012	15019.19643
396.91468	15145.91071
401.06626	15281.625
405.21485	15466.33929
409.36047	15448.76786
413.50311	15350.48214
417.64277	15293.91071
421.77947	15239.19643
425.9132	15274.33929
430.04396	15331.05357
434.17176	15375.48214
438.2966	15475.48214
442.41849	15611.48214
446.53742	15749.19643
450.6534	15921.05357
454.76644	16062.76786
458.87653	16197.76786
462.98368	16214.91071
467.08789	16299.19643
471.18916	16276.76786
475.2875	16211.19643
479.38291	16146.33929
483.4754	16099.91071
487.56496	16102.625
491.6516	16143.625
495.73531	16155.19643
499.81612	16158.05357
503.89401	16234.05357
507.96899	16309.91071
512.04106	16399.91071
516.11023	16436.625
520.1765	16457.625
524.23987	16504.19643
528.30034	16497.33929
532.35792	16454.48214
536.41261	16453.05357
540.46441	16419.19643
544.51333	16370.19643
548.55936	16387.05357
552.60252	16533.91071
556.64279	16613.05357
560.6802	16730.48214
564.71473	16729.48214
568.7464	16717.33929
572.7752	16747.05357
576.80114	16731.05357
580.82422	16734.19643
584.84444	16802.625
588.86181	16848.76786
592.87633	16876.76786
596.888	16923.91071
600.89682	17102.48214
604.9028	17576.19643
608.90594	18532.05357
612.90624	19697.19643
616.90371	19358.19643
620.89834	17870.33929
624.89015	17156.625
628.87913	17018.48214
632.86528	17113.91071
636.84862	17210.48214
640.82913	17222.625
644.80683	17159.33929
648.78172	17039.76786
652.75379	17101.33929
656.72306	17228.19643
660.68952	17382.91071
664.65319	17392.48214
668.61405	17378.05357
672.57211	17411.19643
676.52738	17478.91071
680.47986	17500.19643
684.42955	17511.76786
688.37646	17540.625
692.32058	17603.91071
696.26192	17625.33929
700.20048	17690.48214
704.13626	17762.05357
708.06928	17692.91071
711.99952	17620.05357
715.927	17614.91071
719.85171	17600.05357
723.77365	17610.05357
727.69284	17579.19643
731.60928	17556.625
735.52295	17507.91071
739.43388	17533.33929
743.34206	17571.33929
747.24749	17567.05357
751.15017	17602.76786
755.05012	17623.19643
758.94733	17741.05357
762.8418	17993.76786
766.73354	18521.33929
770.62254	19083.19643
774.50882	19406.48214
778.39237	19281.05357
782.27321	18820.48214
786.15132	18297.48214
790.02671	17934.76786
793.89938	17746.48214
797.76935	17679.19643
801.6366	17569.91071
805.50115	17615.91071
809.36299	17557.91071
813.22213	17559.33929
817.07857	17553.19643
820.93231	17564.19643
824.78336	17590.625
828.63172	17574.48214
832.47738	17620.05357
836.32036	17631.625
840.16066	17641.48214
843.99827	17641.19643
847.8332	17684.91071
851.66546	17699.19643
855.49504	17700.625
859.32195	17728.625
863.1462	17748.33929
866.96777	17728.625
870.78668	17784.48214
874.60293	17781.625
878.41652	17855.625
882.22745	17893.19643
886.03573	17885.625
889.84136	17913.48214
893.64433	17844.48214
897.44466	17864.91071
901.24235	17852.19643
905.0374	17829.19643
908.8298	17815.19643
912.61957	17775.05357
916.40671	17773.19643
920.19121	17802.05357
923.97308	17768.625
927.75233	17816.19643
931.52895	17832.91071
935.30295	17781.19643
939.07433	17717.33929
942.84309	17704.05357
946.60924	17595.33929
950.37278	17570.33929
954.13371	17539.48214
957.89203	17535.19643
961.64774	17497.19643
965.40086	17457.33929
969.15137	17438.05357
972.89929	17421.19643
976.64461	17441.05357
980.38733	17445.625
984.12747	17476.48214
987.86502	17464.48214
991.59999	17517.91071
995.33237	17513.91071
999.06217	17572.76786
1002.78939	17654.91071
1006.51404	17725.76786
1010.23611	17845.05357
1013.95561	17900.91071
1017.67255	17912.91071
1021.38692	17905.05357
1025.09872	17922.05357
1028.80796	17843.76786
1032.51465	17799.625
1036.21877	17814.625
1039.92035	17827.625
1043.61937	17854.48214
1047.31584	17889.91071
1051.00976	17975.76786
1054.70114	17988.48214
1058.38998	17994.33929
1062.07627	18053.91071
1065.76003	18092.91071
1069.44126	18131.91071
1073.11995	18242.33929
1076.79611	18384.48214
1080.46974	18475.05357
1084.14085	18459.625
1087.80943	18455.48214
1091.47549	18489.05357
1095.13903	18519.48214
1098.80005	18459.33929
1102.45857	18434.33929
1106.11456	18378.76786
1109.76805	18342.33929
1113.41903	18280.48214
1117.06751	18297.05357
1120.71348	18346.625
1124.35696	18453.33929
1127.99793	18540.76786
1131.63641	18600.05357
1135.2724	18483.05357
1138.90589	18389.33929
1142.5369	18255.48214
1146.16542	18159.33929
1149.79145	18127.625
1153.415	18071.19643
1157.03607	17988.91071
1160.65467	18029.91071
1164.27079	18125.33929
1167.88443	18332.19643
1171.49561	18583.625
1175.10432	18992.05357
1178.71056	19529.625
1182.31434	19940.48214
1185.91565	20277.625
1189.51451	20334.19643
1193.11091	20236.625
1196.70485	20037.48214
1200.29634	19800.05357
1203.88538	19498.76786
1207.47197	19225.625
1211.05612	18903.05357
1214.63782	18686.625
1218.21708	18606.625
1221.79391	18487.625
1225.36829	18454.33929
1228.94024	18444.05357
1232.50976	18439.33929
1236.07685	18467.76786
1239.6415	18494.91071
1243.20374	18552.19643
1246.76355	18618.33929
1250.32093	18646.76786
1253.8759	18722.05357
1257.42845	18835.33929
1260.97859	18987.19643
1264.52631	19132.76786
1268.07163	19215.48214
1271.61453	19306.48214
1275.15503	19419.19643
1278.69312	19405.625
1282.22882	19418.625
1285.76211	19489.33929
1289.29301	19560.05357
1292.82151	19629.76786
1296.34761	19762.19643
1299.87133	19953.91071
1303.39266	20260.19643
1306.9116	20719.91071
1310.42815	21231.625
1313.94233	21528.48214
1317.45412	21482.05357
1320.96354	21161.33929
1324.47058	20872.05357
1327.97525	20494.33929
1331.47754	20233.33929
1334.97747	20118.19643
1338.47502	20192.625
1341.97022	20440.19643
1345.46305	20750.76786
1348.95352	21186.48214
1352.44163	21625.91071
1355.92738	22047.76786
1359.41078	22536.76786
1362.89183	23050.48214
1366.37053	22782.625
1369.84688	21714.625
1373.32088	20580.05357
1376.79254	19781.19643
1380.26186	19255.91071
1383.72883	18943.05357
1387.19347	18662.33929
1390.65578	18378.91071
1394.11575	18209.625
1397.57339	18045.48214
1401.0287	17945.48214
1404.48168	17876.19643
1407.93234	17832.625
1411.38068	17858.33929
1414.82669	17893.76786
1418.27039	17839.19643
1421.71177	17826.33929
1425.15083	17761.48214
1428.58758	17675.91071
1432.02203	17646.91071
1435.45416	17636.48214
1438.88399	17606.48214
1442.31151	17581.91071
1445.73673	17582.05357
1449.15965	17557.91071
1452.58027	17604.05357
1455.9986	17596.19643
1459.41463	17629.19643
1462.82837	17682.625
1466.23982	17828.76786
1469.64898	17994.625
1473.05586	18123.19643
1476.46045	18246.48214
1479.86276	18317.625
1483.26279	18438.76786
1486.66054	18542.91071
1490.05602	18696.76786
1493.44922	18959.33929
1496.84016	19358.48214
1500.22882	19988.76786
1503.61521	20764.19643
1506.99934	21532.91071
1510.38121	22022.05357
1513.76081	21969.19643
1517.13816	21357.91071
1520.51324	20551.33929
1523.88607	19788.625
1527.25665	19255.76786
1530.62498	18985.33929
1533.99105	18743.05357
1537.35488	18675.48214
1540.71647	18616.91071
1544.07581	18564.19643
1547.4329	18605.33929
1550.78776	18562.91071
1554.14038	18544.48214
1557.49077	18536.91071
1560.83892	18591.05357
1564.18484	18697.33929
1567.52853	18843.05357
1570.86999	19015.33929
1574.20922	19048.625
1577.54624	19057.48214
1580.88103	18820.625
1584.2136	18557.76786
1587.54395	18340.48214
1590.87208	18349.91071
1594.19801	18444.48214
1597.52172	18745.625
1600.84321	18922.625
1604.16251	18873.91071
1607.47959	18702.19643
1610.79447	18520.625
1614.10715	18194.33929
1617.41763	17857.19643
1620.7259	17597.91071
1624.03199	17447.05357
1627.33587	17351.91071
1630.63757	17359.48214
1633.93707	17411.91071
1637.23439	17644.19643
1640.52951	17977.33929
1643.82246	18524.33929
1647.11321	19108.76786
1650.40179	19514.19643
1653.68819	19358.05357
1656.97241	18681.33929
1660.25446	17892.19643
1663.53433	17352.76786
1666.81203	16958.05357
1670.08756	16731.05357
1673.36092	16565.76786
1676.63211	16483.625
1679.90115	16390.76786
1683.16801	16338.19643
1686.43272	16256.33929
1689.69527	16239.05357
1692.95567	16197.91071
1696.2139	16136.33929
1699.46999	16157.05357
1702.72392	16118.625
1705.97571	16137.76786
1709.22535	16125.33929
1712.47284	16143.19643
1715.71819	16137.48214
1718.96139	16105.625
1722.20246	16066.19643
1725.44139	16052.19643
1728.67818	16030.05357
1731.91284	15945.76786
1735.14537	15918.48214
1738.37576	15876.05357
1741.60403	15839.91071
1744.83017	15785.76786
1748.05418	15768.05357
1751.27607	15763.625
1754.49584	15782.91071
1757.71349	15738.48214
1760.92903	15749.19643
1764.14244	15780.33929
1767.35375	15722.625
1770.56294	15726.48214
1773.77002	15651.05357
1776.97499	15640.19643
1780.17785	15626.19643
1783.37861	15536.48214
1786.57727	15538.48214
1789.77382	15493.625
1792.96828	15529.48214
1796.16064	15451.625
1799.3509	15450.33929
1802.53907	15374.19643
1805.72514	15372.05357
1808.90913	15358.33929
1812.09102	15332.625
1815.27083	15316.76786
1818.44856	15289.91071
1821.6242	15294.33929
1824.79776	15263.48214
1827.96924	15212.91071
1831.13864	15185.05357
1834.30597	15223.91071
1837.47122	15194.91071
1840.6344	15139.625
1843.7955	15159.05357
1846.95454	15139.33929
1850.11151	15133.19643
1853.26642	15145.76786
1856.41926	15107.33929
1859.57004	15096.76786
1862.71876	15070.91071
1865.86542	15099.48214
1869.01003	15073.05357
1872.15258	15045.33929
1875.29308	15033.91071
1878.43152	14986.19643
1881.56792	15004.33929
1884.70227	14957.05357
1887.83457	14933.91071
1890.96482	14939.19643
1894.09304	14892.48214
1897.21921	14917.76786
1900.34335	14907.05357
1903.46544	14859.625
1906.58551	14844.625
1909.70353	14792.76786
1912.81953	14776.91071
1915.93349	14739.625
1919.04543	14772.76786
1922.15534	14744.19643
1925.26322	14733.91071
1928.36908	14698.625
1931.47292	14666.76786
1934.57473	14614.19643
1937.67453	14602.625
1940.77232	14586.48214
1943.86808	14537.91071
1946.96184	14482.05357
1950.05358	14440.05357
1953.14331	14443.91071
1956.23103	14372.05357
1959.31675	14336.91071
1962.40046	14301.625
1965.48217	14236.625
1968.56188	14238.91071
1971.63959	14213.48214
1974.7153	14154.625
1977.78901	14108.76786
1980.86073	14049.91071
1983.93046	14029.05357
1986.99819	13953.76786
1990.06394	13928.48214
1993.1277	13891.33929
1996.18947	13886.19643
1999.24925	13818.33929
2002.30706	13818.76786
2005.36288	13737.76786
2008.41672	13688.48214
2011.46859	13673.05357
2014.51848	13625.48214
2017.56639	13592.19643
2020.61233	13573.76786
2023.6563	13498.05357
2026.6983	13446.48214
2029.73833	13419.33929
2032.7764	13376.91071
2035.8125	13363.33929
2038.84664	13337.76786
2041.87881	13293.625
2044.90903	13281.33929
2047.93729	13265.48214
2050.96359	13257.48214
2053.98794	13243.48214
2057.01034	13224.76786
2060.03078	13213.76786
2063.04927	13180.76786
2066.06582	13213.76786
2069.08042	13162.76786
2072.09307	13165.91071
2075.10378	13157.91071
2078.11255	13143.625
2081.11938	13148.91071
2084.12426	13126.33929
2087.12722	13131.91071
2090.12824	13152.05357
2093.12732	13117.19643
2096.12447	13132.33929
2099.11969	13152.33929
2102.11299	13158.91071
2105.10435	13146.33929
2108.09379	13171.19643
2111.08131	13146.625
2114.0669	13160.05357
2117.05057	13160.19643
2120.03233	13173.19643
2123.01216	13222.76786
2125.99008	13203.91071
2128.96609	13214.48214
2131.94018	13249.91071
2134.91236	13251.19643
2137.88263	13243.33929
2140.851	13246.33929
2143.81746	13275.33929
2146.78201	13299.48214
2149.74466	13299.48214
2152.7054	13277.05357
2155.66425	13262.19643
2158.6212	13264.76786
2161.57625	13262.19643
2164.52941	13262.33929
2167.48067	13239.05357
2170.43004	13201.05357
2173.37752	13231.48214
2176.32311	13255.19643
2179.26681	13259.76786
2182.20863	13219.05357
2185.14856	13232.05357
2188.08661	13193.19643
2191.02278	13230.76786
2193.95707	13191.625
2196.88948	13166.33929
2199.82001	13177.19643
2202.74867	13123.625
2205.67545	13132.625
2208.60037	13110.625
2211.52341	13102.05357
2214.44458	13091.625
2217.36388	13085.76786
2220.28132	13049.05357
2223.1969	12991.76786
2226.11061	12980.05357
2229.02246	12947.76786
2231.93245	12927.48214
2234.84058	12888.48214
2237.74686	12850.33929
2240.65128	12851.625
2243.55385	12858.625
2246.45456	12848.76786
2249.35343	12848.625
2252.25044	12851.76786
2255.14561	12823.625
2258.03893	12799.19643
2260.93041	12744.91071
2263.82004	12717.91071
2266.70783	12684.48214
2269.59378	12670.76786
2272.4779	12620.48214
2275.36017	12624.33929
2278.24061	12601.76786
2281.11922	12540.76786
2283.996	12564.76786
2286.87094	12543.05357
2289.74405	12504.48214
2292.61534	12517.76786
2295.4848	12455.05357
2298.35243	12433.05357
2301.21824	12481.76786
2304.08223	12451.33929
2306.94439	12434.05357
2309.80474	12403.19643
2312.66327	12410.625
2315.51999	12434.625
2318.37489	12402.05357
2321.22797	12355.76786
2324.07925	12321.33929
2326.92871	12289.48214
2329.77637	12291.91071
2332.62222	12245.19643
2335.46626	12251.48214
2338.3085	12234.91071
2341.14893	12229.48214
2343.98756	12188.05357
2346.8244	12158.91071
2349.65943	12114.05357
2352.49267	12145.625
2355.32411	12122.625
2358.15376	12101.05357
2360.98161	12120.33929
2363.80768	12094.625
2366.63195	12084.91071
2369.45444	12055.625
2372.27514	12063.19643
2375.09405	12065.48214
2377.91118	12000.48214
2380.72652	11998.48214
2383.54009	11979.48214
2386.35187	11986.05357
2389.16188	11944.05357
2391.97011	11909.19643
2394.77657	11872.76786
2397.58125	11887.625
2400.38416	11872.76786
2403.18529	11844.19643
2405.98466	11823.76786
2408.78226	11811.48214
2411.57809	11771.625
2414.37216	11770.19643
2417.16446	11748.33929
2419.955	11754.91071
2422.74378	11748.19643
2425.5308	11737.48214
2428.31606	11702.48214
2431.09956	11685.19643
2433.88131	11665.48214
2436.6613	11659.76786
2439.43954	11629.19643
2442.21603	11658.91071
2444.99077	11624.91071
2447.76377	11608.625
2450.53501	11627.91071
2453.30451	11595.76786
2456.07226	11566.19643
2458.83827	11556.91071
2461.60254	11534.05357
2464.36507	11503.91071
2467.12586	11508.91071
2469.88492	11487.76786
2472.64224	11468.19643
2475.39782	11482.48214
2478.15167	11455.33929
2480.90379	11483.625
2483.65417	11441.625
2486.40283	11451.05357
2489.14976	11467.05357
2491.89497	11445.48214
2494.63845	11438.91071
2497.3802	11425.33929
2500.12024	11424.33929
2502.85855	11425.33929
2505.59514	11382.625
2508.33002	11393.33929
2511.06318	11326.48214
2513.79462	11330.05357
2516.52435	11333.19643
2519.25237	11309.48214
2521.97867	11277.05357
2524.70327	11264.33929
2527.42616	11216.48214
2530.14734	11231.33929
2532.86681	11193.48214
2535.58458	11150.91071
2538.30065	11188.33929
2541.01501	11197.05357
2543.72768	11153.625
2546.43864	11147.05357
2549.14791	11093.33929
2551.85548	11080.19643
2554.56136	11065.625
2557.26554	11046.19643
2559.96803	11052.05357
2562.66883	11006.05357
2565.36794	11001.48214
2568.06536	10975.91071
2570.7611	10924.48214
2573.45514	10909.625
2576.14751	10901.76786
2578.83819	10850.625
2581.52719	10867.19643
2584.21451	10814.76786
2586.90015	10818.05357
2589.58411	10799.33929
2592.2664	10762.625
2594.94701	10731.91071
2597.62594	10723.19643
2600.30321	10724.91071
2602.9788	10690.91071
2605.65273	10646.76786
2608.32498	10655.05357
2610.99557	10649.05357
2613.66449	10619.625
2616.33175	10586.19643
2618.99734	10556.91071
2621.66128	10576.48214
2624.32355	10526.625
2626.98416	10488.76786
2629.64311	10485.33929
2632.30041	10496.33929
2634.95605	10482.76786
2637.61004	10421.91071
2640.26238	10447.91071
2642.91306	10418.76786
2645.56209	10410.625
2648.20948	10424.33929
2650.85521	10420.625
2653.4993	10407.91071
2656.14175	10378.48214
2658.78255	10400.91071
2661.42171	10382.05357
2664.05923	10420.625
2666.6951	10398.19643
2669.32934	10370.19643
2671.96194	10372.76786
2674.59291	10357.91071
2677.22224	10367.76786
2679.84993	10374.19643
2682.476	10354.05357
2685.10043	10372.19643
2687.72324	10345.19643
2690.34441	10356.05357
2692.96396	10355.625
2695.58188	10345.19643
2698.19818	10334.48214
2700.81285	10355.48214
2703.4259	10310.76786
2706.03733	10307.33929
2708.64714	10327.625
2711.25533	10334.48214
2713.86191	10346.76786
2716.46687	10317.05357
2719.07021	10331.19643
2721.67194	10313.05357
2724.27206	10320.625
2726.87057	10328.91071
2729.46747	10324.91071
2732.06276	10290.91071
2734.65644	10301.19643
2737.24852	10301.76786
2739.83899	10270.91071
2742.42786	10302.05357
2745.01513	10246.05357
2747.60079	10228.625
2750.18486	10218.19643
2752.76733	10181.19643
2755.3482	10185.625
2757.92747	10195.33929
2760.50515	10147.91071
2763.08123	10196.91071
2765.65573	10148.33929
2768.22863	10120.33929
2770.79994	10116.19643
2773.36967	10095.48214
2775.9378	10097.05357
2778.50435	10072.33929
2781.06932	10064.625
2783.6327	10023.91071
2786.1945	9992.33929
2788.75471	9995.76786
2791.31335	9977.33929
2793.87041	9947.33929
2796.42589	9942.48214
2798.97979	9908.48214
2801.53212	9897.91071
2804.08288	9864.33929
2806.63206	9846.91071
2809.17967	9824.48214
2811.72571	9821.05357
2814.27018	9818.33929
2816.81308	9759.33929
2819.35442	9747.05357
2821.89419	9714.48214
2824.43239	9659.05357
2826.96904	9666.33929
2829.50412	9662.33929
2832.03763	9647.625
2834.56959	9670.19643
2837.1	9643.625
2839.62884	9641.48214
2842.15613	9612.625
2844.68186	9627.48214
2847.20604	9626.91071
2849.72867	9616.91071
2852.24974	9610.625
2854.76927	9587.05357
2857.28724	9559.76786
2859.80367	9523.05357
2862.31855	9529.625
2864.83189	9525.76786
2867.34368	9497.05357
2869.85393	9497.33929
2872.36264	9482.05357
2874.8698	9484.19643
2877.37543	9440.76786
2879.87952	9460.05357
2882.38207	9438.48214
2884.88308	9432.76786
2887.38256	9448.19643
2889.88051	9450.19643
2892.37692	9449.05357
2894.8718	9430.91071
2897.36515	9459.33929
2899.85698	9417.91071
2902.34727	9444.48214
2904.83604	9466.05357
2907.32328	9456.19643
2909.809	9463.48214
2912.29319	9430.19643
2914.77587	9414.48214
2917.25702	9421.625
2919.73665	9427.76786
2922.21476	9411.91071
2924.69136	9427.91071
2927.16644	9432.91071
2929.64	9429.76786
2932.11205	9401.625
2934.58258	9379.48214
2937.05161	9411.76786
2939.51912	9386.625
2941.98513	9391.33929
2944.44962	9370.05357
2946.91261	9351.91071
2949.37409	9375.05357
2951.83407	9350.33929
2954.29254	9358.91071
2956.74951	9349.19643
2959.20498	9357.625
2961.65895	9304.33929
2964.11142	9319.05357
2966.56239	9325.05357
2969.01186	9316.91071
2971.45984	9288.91071
2973.90632	9322.91071
2976.35131	9279.33929
2978.7948	9297.91071
2981.23681	9247.48214
2983.67732	9248.625
2986.11635	9246.05357
2988.55388	9211.48214
2990.98993	9227.33929
2993.4245	9195.91071
2995.85758	9178.33929
2998.28917	9145.76786
3000.71928	9127.76786
3003.14791	9150.05357
3005.57506	9115.76786
3008.00073	9097.33929
3010.42493	9081.76786
3012.84764	9095.33929
3015.26888	9061.91071
3017.68865	9043.91071
3020.10694	9039.91071
3022.52376	9019.05357
3024.9391	9010.48214
3027.35298	8993.48214
3029.76539	8986.76786
3032.17632	8982.76786
3034.5858	8951.48214
3036.9938	8954.19643
3039.40034	8959.05357
3041.80542	8946.48214
3044.20903	8926.33929
3046.61118	8922.05357
3049.01187	8897.76786
3051.4111	8904.625
3053.80888	8885.33929
3056.20519	8865.19643
3058.60005	8850.91071
3060.99345	8851.05357
3063.3854	8803.33929
3065.7759	8786.05357
3068.16494	8776.91071
3070.55254	8746.19643
3072.93868	8741.33929
3075.32338	8730.48214
3077.70662	8717.625
3080.08842	8728.19643
3082.46878	8693.625
3084.84769	8723.76786
3087.22515	8706.91071
3089.60118	8705.05357
3091.97576	8727.19643
3094.3489	8729.05357
3096.72061	8712.33929
3099.09087	8728.33929
3101.4597	8702.625
3103.82709	8718.33929
3106.19305	8718.76786
3108.55757	8719.91071
3110.92066	8717.33929
3113.28232	8716.05357
3115.64255	8703.625
3118.00134	8670.33929
3120.35871	8661.76786
3122.71466	8633.625
3125.06917	8624.19643
3127.42226	8595.19643
3129.77393	8622.625
3132.12417	8604.91071
3134.47299	8606.625
3136.82039	8607.19643
3139.16636	8597.91071
3141.51092	8619.625
3143.85406	8653.19643
3146.19579	8632.48214
3148.53609	8643.33929
3150.87499	8636.48214
3153.21246	8655.625
3155.54853	8656.91071
3157.88318	8639.05357
3160.21642	8688.76786
3162.54826	8680.33929
3164.87868	8697.625
3167.2077	8676.91071
3169.5353	8687.33929
3171.86151	8696.19643
3174.18631	8677.48214
3176.5097	8698.33929
3178.83169	8687.19643
3181.15228	8651.19643
3183.47147	8659.33929
3185.78926	8659.91071
3188.10565	8632.625
3190.42065	8645.76786
3192.73424	8644.19643
3195.04645	8634.33929
3197.35725	8598.05357
3199.66667	8633.19643
3201.97469	8616.91071
3204.28132	8623.48214
3206.58656	8634.76786
3208.8904	8680.76786
3211.19287	8674.05357
3213.49394	8663.48214
3215.79363	8698.625
3218.09193	8663.625
3220.38884	8685.625
3222.68438	8680.76786
3224.97853	8722.33929
3227.2713	8667.19643
3229.56269	8666.625
3231.8527	8653.05357
3234.14133	8633.19643
3236.42858	8630.19643
3238.71446	8599.48214
3240.99896	8589.33929
3243.28209	8558.48214
3245.56384	8549.76786
3247.84423	8560.76786
3250.12324	8546.48214
3252.40088	8545.05357
3254.67715	8560.48214
3256.95205	8539.33929
3259.22558	8553.76786
3261.49775	8554.48214
3263.76855	8541.05357
3266.03799	8504.625
3268.30606	8522.33929
3270.57277	8540.48214
3272.83812	8489.05357
3275.10211	8463.33929
3277.36474	8417.625
3279.62601	8437.33929
3281.88593	8407.05357
3284.14448	8423.33929
3286.40168	8410.625
3288.65753	8382.91071
3290.91202	8395.76786
3293.16516	8389.05357
3295.41695	8371.625
3297.66738	8323.19643
3299.91647	8288.625
3302.16421	8222.91071
3304.4106	8186.33929
3306.65564	8127.91071
3308.89933	8092.625
3311.14169	8034.76786
3313.38269	7977.48214
3315.62236	7936.33929
3317.86068	7866.33929
3320.09766	7818.33929
3322.3333	7760.48214
3324.5676	7741.48214
3326.80056	7605.91071
3329.03219	7573.05357
3331.26248	1.625
3333.49143	-1.08929
3335.71905	-0.94643
