Data from AgNPs_FTO_APTES_UA_20uM_CRN_10uM_R6G_10uM_NaF_0.1M_Addition_RamanShift__16__14-29-02-204.txt Node

Date: Thu Feb 17 14:29:02 GMT 2022
User: TCL
Spectrometer: QEP01345
Trigger mode: 4
Integration Time (sec): 7.000000E0
Scans to average: 10
Electric dark correction enabled: true
Nonlinearity correction enabled: false
Boxcar width: 0
XAxis mode: Raman Shifts
Number of Pixels in Spectrum: 1044
>>>>>Begin Spectral Data<<<<<
46.04893	0.2875
50.45542	-1.4125
54.85868	-2.0125
59.25871	-1.9125
63.6555	132.6875
68.04907	133.4875
72.43941	140.6875
76.82654	144.3875
81.21044	144.6875
85.59113	151.2875
89.96862	158.8875
94.34289	159.5875
98.71396	165.1875
103.08183	170.0875
107.4465	181.0875
111.80798	178.9875
116.16626	188.2875
120.52136	197.9875
124.87327	207.2875
129.222	219.9875
133.56755	238.0875
137.90993	256.6875
142.24913	282.1875
146.58517	323.2875
150.91804	376.8875
155.24774	457.2875
159.57429	576.5875
163.89768	741.8875
168.21792	1006.6875
172.53501	1380.8875
176.84895	1944.3875
181.15975	2744.4875
185.46741	3889.4875
189.77193	5384.5875
194.07331	7250.5875
198.37157	9376.8875
202.6667	11644.2875
206.9587	13875.7875
211.24758	16038.6875
215.53334	18178.1875
219.81599	20427.8875
224.09553	22921.2875
228.37195	25660.5875
232.64527	28692.4875
236.91549	31915.3875
241.18261	35282.1875
245.44663	38505.5875
249.70755	41509.2875
253.96539	44092.5875
258.22014	46278.3875
262.4718	48103.5875
266.72039	49417.7875
270.96589	50143.8875
275.20832	50219.8875
279.44768	49957.2875
283.68397	49555.5875
287.91719	49103.4875
292.14735	48757.6875
296.37445	48603.4875
300.59849	48568.0875
304.81948	48583.4875
309.03742	48531.6875
313.25231	48171.2875
317.46415	47514.1875
321.67296	46814.9875
325.87872	46210.1875
330.08145	45950.0875
334.28114	46053.5875
338.47781	46472.4875
342.67145	46992.4875
346.86207	47693.8875
351.04966	48548.6875
355.23424	49376.3875
359.4158	50103.0875
363.59435	50676.7875
367.76989	51197.0875
371.94243	51597.7875
376.11196	51890.8875
380.27849	52267.1875
384.44203	52576.4875
388.60257	52894.6875
392.76012	53315.0875
396.91468	53805.0875
401.06626	54376.7875
405.21485	54877.7875
409.36047	54864.3875
413.50311	54444.5875
417.64277	53932.3875
421.77947	53796.7875
425.9132	53953.7875
430.04396	54219.2875
434.17176	54540.1875
438.2966	54962.9875
442.41849	55685.8875
446.53742	56612.1875
450.6534	57750.9875
454.76644	58642.5875
458.87653	59088.8875
462.98368	59039.2875
467.08789	58672.7875
471.18916	58145.1875
475.2875	57635.2875
479.38291	57217.3875
483.4754	56954.6875
487.56496	56491.8875
491.6516	56206.6875
495.73531	55948.5875
499.81612	55794.2875
503.89401	56031.2875
507.96899	56268.0875
512.04106	56181.3875
516.11023	56085.3875
520.1765	55999.3875
524.23987	55932.9875
528.30034	55784.1875
532.35792	55503.4875
536.41261	55265.6875
540.46441	54977.1875
544.51333	55043.5875
548.55936	55428.1875
552.60252	56056.8875
556.64279	56879.3875
560.6802	57459.2875
564.71473	57562.9875
568.7464	57886.9875
572.7752	58586.9875
576.80114	59199.8875
580.82422	59824.4875
584.84444	60454.7875
588.86181	61045.8875
592.87633	61561.9875
596.888	61658.4875
600.89682	61731.5875
604.9028	63183.1875
608.90594	67007.8875
612.90624	70817.3875
616.90371	68072.9875
620.89834	60871.6875
624.89015	57685.8875
628.87913	57222.7875
632.86528	57472.1875
636.84862	57486.3875
640.82913	57091.6875
644.80683	56276.9875
648.78172	55657.7875
652.75379	55665.1875
656.72306	56176.1875
660.68952	56938.8875
664.65319	56805.0875
668.61405	56295.1875
672.57211	56221.1875
676.52738	56487.6875
680.47986	56463.5875
684.42955	56162.2875
688.37646	56122.8875
692.32058	56361.4875
696.26192	56831.8875
700.20048	57336.5875
704.13626	57725.9875
708.06928	57601.1875
711.99952	57317.8875
715.927	57151.8875
719.85171	57360.0875
723.77365	57364.0875
727.69284	57027.1875
731.60928	56646.6875
735.52295	56500.8875
739.43388	56536.8875
743.34206	56772.2875
747.24749	56929.3875
751.15017	57129.9875
755.05012	57645.2875
758.94733	58502.7875
762.8418	60151.1875
766.73354	62953.9875
770.62254	65787.9875
774.50882	66541.3875
778.39237	64845.4875
782.27321	61868.1875
786.15132	59381.9875
790.02671	57835.9875
793.89938	57029.8875
797.76935	56688.6875
801.6366	56643.4875
805.50115	56488.2875
809.36299	56347.4875
813.22213	56127.5875
817.07857	56006.5875
820.93231	55977.5875
824.78336	55939.3875
828.63172	55928.0875
832.47738	55992.8875
836.32036	55995.0875
840.16066	56111.9875
843.99827	56166.5875
847.8332	56206.2875
851.66546	56248.8875
855.49504	56147.3875
859.32195	56277.9875
863.1462	56216.6875
866.96777	56317.7875
870.78668	56298.1875
874.60293	56355.6875
878.41652	56311.2875
882.22745	56449.2875
886.03573	56561.2875
889.84136	56541.2875
893.64433	56337.6875
897.44466	56120.9875
901.24235	55992.6875
905.0374	55967.2875
908.8298	55866.7875
912.61957	55870.6875
916.40671	56157.5875
920.19121	56452.0875
923.97308	56717.3875
927.75233	56783.9875
931.52895	56633.3875
935.30295	56279.8875
939.07433	55860.8875
942.84309	55407.6875
946.60924	55232.6875
950.37278	55201.3875
954.13371	55268.3875
957.89203	55155.3875
961.64774	55032.3875
965.40086	54994.9875
969.15137	54869.1875
972.89929	54773.7875
976.64461	54731.9875
980.38733	54737.6875
984.12747	54898.5875
987.86502	55297.3875
991.59999	55712.7875
995.33237	56247.1875
999.06217	56955.5875
1002.78939	57746.3875
1006.51404	58368.0875
1010.23611	58847.2875
1013.95561	59181.0875
1017.67255	59258.9875
1021.38692	58996.8875
1025.09872	58615.4875
1028.80796	58510.7875
1032.51465	58759.5875
1036.21877	59241.6875
1039.92035	59277.0875
1043.61937	59140.5875
1047.31584	58728.8875
1051.00976	58277.4875
1054.70114	58190.9875
1058.38998	58283.9875
1062.07627	58601.8875
1065.76003	58985.5875
1069.44126	59435.0875
1073.11995	59892.2875
1076.79611	60420.2875
1080.46974	60898.7875
1084.14085	61230.3875
1087.80943	61537.2875
1091.47549	61833.9875
1095.13903	61756.1875
1098.80005	61337.3875
1102.45857	60785.8875
1106.11456	60387.9875
1109.76805	60259.2875
1113.41903	60380.0875
1117.06751	60558.2875
1120.71348	60896.0875
1124.35696	61285.5875
1127.99793	61523.4875
1131.63641	61587.5875
1135.2724	61236.7875
1138.90589	60862.6875
1142.5369	60696.9875
1146.16542	60594.9875
1149.79145	60612.0875
1153.415	60856.3875
1157.03607	61223.0875
1160.65467	61944.0875
1164.27079	63276.1875
1167.88443	65071.3875
1171.49561	67432.4875
1175.10432	70294.2875
1178.71056	73961.6875
1182.31434	77474.4875
1185.91565	79318.1875
1189.51451	79414.0875
1193.11091	78020.7875
1196.70485	75963.8875
1200.29634	73840.2875
1203.88538	72099.7875
1207.47197	70838.7875
1211.05612	69567.9875
1214.63782	68553.5875
1218.21708	67973.8875
1221.79391	67619.1875
1225.36829	67483.3875
1228.94024	67143.0875
1232.50976	66468.4875
1236.07685	65833.4875
1239.6415	65532.0875
1243.20374	65576.5875
1246.76355	65899.0875
1250.32093	66522.7875
1253.8759	67329.0875
1257.42845	68325.6875
1260.97859	69537.1875
1264.52631	70589.3875
1268.07163	71792.9875
1271.61453	72992.9875
1275.15503	74127.0875
1278.69312	75303.0875
1282.22882	76131.6875
1285.76211	77116.2875
1289.29301	78221.0875
1292.82151	79651.3875
1296.34761	81513.6875
1299.87133	84126.7875
1303.39266	87303.7875
1306.9116	90968.7875
1310.42815	94649.8875
1313.94233	97102.5875
1317.45412	97339.5875
1320.96354	96261.3875
1324.47058	94843.6875
1327.97525	93372.0875
1331.47754	92233.3875
1334.97747	91752.2875
1338.47502	91973.4875
1341.97022	92485.7875
1345.46305	92756.0875
1348.95352	92812.0875
1352.44163	92746.8875
1355.92738	93604.3875
1359.41078	95780.8875
1362.89183	97805.2875
1366.37053	96070.8875
1369.84688	90155.6875
1373.32088	83388.3875
1376.79254	78709.7875
1380.26186	76466.6875
1383.72883	75805.2875
1387.19347	75391.3875
1390.65578	74752.3875
1394.11575	74110.9875
1397.57339	74107.5875
1401.0287	74669.4875
1404.48168	75323.6875
1407.93234	75689.5875
1411.38068	75463.9875
1414.82669	74637.3875
1418.27039	73301.0875
1421.71177	71553.5875
1425.15083	70202.7875
1428.58758	69517.2875
1432.02203	69590.1875
1435.45416	70386.1875
1438.88399	71474.1875
1442.31151	72390.5875
1445.73673	72983.4875
1449.15965	73407.3875
1452.58027	73702.2875
1455.9986	73815.3875
1459.41463	74234.1875
1462.82837	75037.9875
1466.23982	76150.8875
1469.64898	77232.9875
1473.05586	78099.2875
1476.46045	78440.8875
1479.86276	78295.3875
1483.26279	77861.0875
1486.66054	77584.9875
1490.05602	77799.1875
1493.44922	78340.1875
1496.84016	78956.4875
1500.22882	80305.7875
1503.61521	82487.9875
1506.99934	85118.1875
1510.38121	87114.2875
1513.76081	87186.5875
1517.13816	85165.9875
1520.51324	82189.6875
1523.88607	79628.6875
1527.25665	78221.6875
1530.62498	77742.6875
1533.99105	77486.2875
1537.35488	77142.3875
1540.71647	76662.4875
1544.07581	76038.2875
1547.4329	75224.1875
1550.78776	74538.1875
1554.14038	73912.3875
1557.49077	73563.4875
1560.83892	73413.9875
1564.18484	73430.3875
1567.52853	73689.9875
1570.86999	74013.1875
1574.20922	74451.3875
1577.54624	74693.8875
1580.88103	74035.9875
1584.2136	73618.9875
1587.54395	74271.6875
1590.87208	76145.3875
1594.19801	79213.0875
1597.52172	82684.5875
1600.84321	84039.5875
1604.16251	82362.5875
1607.47959	79099.6875
1610.79447	75267.4875
1614.10715	71480.7875
1617.41763	68122.7875
1620.7259	65535.5875
1624.03199	64058.0875
1627.33587	63674.7875
1630.63757	64422.9875
1633.93707	66542.2875
1637.23439	70067.8875
1640.52951	75213.0875
1643.82246	81026.7875
1647.11321	85635.9875
1650.40179	86470.1875
1653.68819	82572.3875
1656.97241	75660.8875
1660.25446	68718.8875
1663.53433	63619.3875
1666.81203	60284.1875
1670.08756	58196.3875
1673.36092	56807.5875
1676.63211	55823.1875
1679.90115	55130.4875
1683.16801	54521.9875
1686.43272	54107.1875
1689.69527	53870.3875
1692.95567	53705.9875
1696.2139	53534.3875
1699.46999	53538.2875
1702.72392	53293.2875
1705.97571	53298.7875
1709.22535	53213.2875
1712.47284	53191.5875
1715.71819	53216.9875
1718.96139	53104.0875
1722.20246	52927.2875
1725.44139	52823.4875
1728.67818	52700.3875
1731.91284	52406.6875
1735.14537	52282.1875
1738.37576	52072.5875
1741.60403	51970.4875
1744.83017	51746.4875
1748.05418	51625.3875
1751.27607	51576.7875
1754.49584	51528.7875
1757.71349	51631.6875
1760.92903	51577.3875
1764.14244	51500.9875
1767.35375	51442.2875
1770.56294	51359.2875
1773.77002	51357.5875
1776.97499	51325.4875
1780.17785	51200.2875
1783.37861	51100.6875
1786.57727	51061.9875
1789.77382	51000.6875
1792.96828	50931.6875
1796.16064	50900.4875
1799.3509	50787.8875
1802.53907	50753.5875
1805.72514	50626.1875
1808.90913	50510.1875
1812.09102	50395.2875
1815.27083	50381.0875
1818.44856	50282.2875
1821.6242	50264.2875
1824.79776	50216.3875
1827.96924	50188.4875
1831.13864	50084.4875
1834.30597	50137.2875
1837.47122	50001.9875
1840.6344	49967.2875
1843.7955	49920.1875
1846.95454	49951.5875
1850.11151	49918.2875
1853.26642	49940.8875
1856.41926	49861.6875
1859.57004	49835.2875
1862.71876	49766.4875
1865.86542	49738.0875
1869.01003	49662.3875
1872.15258	49612.3875
1875.29308	49600.6875
1878.43152	49505.0875
1881.56792	49514.3875
1884.70227	49560.3875
1887.83457	49519.3875
1890.96482	49468.9875
1894.09304	49369.9875
1897.21921	49315.9875
1900.34335	49233.4875
1903.46544	49139.2875
1906.58551	49141.4875
1909.70353	49141.0875
1912.81953	49042.0875
1915.93349	48994.8875
1919.04543	48866.2875
1922.15534	48826.9875
1925.26322	48812.9875
1928.36908	48672.1875
1931.47292	48616.7875
1934.57473	48547.4875
1937.67453	48505.7875
1940.77232	48322.9875
1943.86808	48237.6875
1946.96184	48125.0875
1950.05358	48008.4875
1953.14331	47865.4875
1956.23103	47780.8875
1959.31675	47629.7875
1962.40046	47446.0875
1965.48217	47271.4875
1968.56188	47190.4875
1971.63959	47042.5875
1974.7153	46898.9875
1977.78901	46773.8875
1980.86073	46705.4875
1983.93046	46545.5875
1986.99819	46410.2875
1990.06394	46275.7875
1993.1277	46206.5875
1996.18947	46032.0875
1999.24925	45937.4875
2002.30706	45824.3875
2005.36288	45763.5875
2008.41672	45568.4875
2011.46859	45440.8875
2014.51848	45290.8875
2017.56639	45202.0875
2020.61233	45083.2875
2023.6563	44972.0875
2026.6983	44906.0875
2029.73833	44746.7875
2032.7764	44649.1875
2035.8125	44587.1875
2038.84664	44505.0875
2041.87881	44462.2875
2044.90903	44416.3875
2047.93729	44347.1875
2050.96359	44260.8875
2053.98794	44227.4875
2057.01034	44235.1875
2060.03078	44163.0875
2063.04927	44194.4875
2066.06582	44144.4875
2069.08042	44091.2875
2072.09307	44039.8875
2075.10378	44019.4875
2078.11255	43941.0875
2081.11938	43974.3875
2084.12426	43981.7875
2087.12722	43946.5875
2090.12824	43934.5875
2093.12732	43945.1875
2096.12447	43931.4875
2099.11969	43935.2875
2102.11299	43905.4875
2105.10435	43955.8875
2108.09379	43983.3875
2111.08131	43988.7875
2114.0669	44013.5875
2117.05057	44058.2875
2120.03233	44094.4875
2123.01216	44176.9875
2125.99008	44238.4875
2128.96609	44301.1875
2131.94018	44316.8875
2134.91236	44294.9875
2137.88263	44340.6875
2140.851	44349.2875
2143.81746	44446.3875
2146.78201	44470.0875
2149.74466	44519.6875
2152.7054	44530.4875
2155.66425	44488.6875
2158.6212	44446.2875
2161.57625	44444.4875
2164.52941	44405.2875
2167.48067	44391.2875
2170.43004	44315.5875
2173.37752	44360.5875
2176.32311	44431.0875
2179.26681	44419.9875
2182.20863	44384.6875
2185.14856	44502.4875
2188.08661	44447.3875
2191.02278	44403.0875
2193.95707	44338.5875
2196.88948	44271.5875
2199.82001	44343.7875
2202.74867	44257.8875
2205.67545	44222.4875
2208.60037	44139.3875
2211.52341	44116.3875
2214.44458	44119.5875
2217.36388	44092.0875
2220.28132	43942.4875
2223.1969	43840.6875
2226.11061	43731.3875
2229.02246	43623.6875
2231.93245	43590.6875
2234.84058	43462.5875
2237.74686	43384.4875
2240.65128	43363.8875
2243.55385	43321.6875
2246.45456	43345.9875
2249.35343	43314.0875
2252.25044	43261.6875
2255.14561	43204.2875
2258.03893	43112.7875
2260.93041	42995.3875
2263.82004	42957.4875
2266.70783	42902.8875
2269.59378	42787.2875
2272.4779	42707.3875
2275.36017	42623.9875
2278.24061	42613.0875
2281.11922	42493.0875
2283.996	42350.3875
2286.87094	42379.2875
2289.74405	42349.5875
2292.61534	42289.5875
2295.4848	42157.7875
2298.35243	42183.7875
2301.21824	42166.8875
2304.08223	42157.1875
2306.94439	42157.7875
2309.80474	42167.1875
2312.66327	42155.3875
2315.51999	42121.9875
2318.37489	42043.6875
2321.22797	42031.8875
2324.07925	41985.3875
2326.92871	41875.7875
2329.77637	41814.8875
2332.62222	41776.1875
2335.46626	41724.4875
2338.3085	41645.5875
2341.14893	41624.0875
2343.98756	41572.7875
2346.8244	41537.6875
2349.65943	41572.0875
2352.49267	41562.9875
2355.32411	41583.4875
2358.15376	41572.9875
2360.98161	41521.4875
2363.80768	41443.5875
2366.63195	41451.8875
2369.45444	41385.0875
2372.27514	41325.2875
2375.09405	41274.8875
2377.91118	41253.3875
2380.72652	41179.4875
2383.54009	41077.7875
2386.35187	40987.6875
2389.16188	40844.3875
2391.97011	40772.1875
2394.77657	40759.9875
2397.58125	40632.7875
2400.38416	40633.5875
2403.18529	40536.3875
2405.98466	40528.2875
2408.78226	40394.8875
2411.57809	40385.3875
2414.37216	40308.8875
2417.16446	40345.7875
2419.955	40243.7875
2422.74378	40218.3875
2425.5308	40216.8875
2428.31606	40210.7875
2431.09956	40191.1875
2433.88131	40102.0875
2436.6613	40113.7875
2439.43954	40100.1875
2442.21603	40035.4875
2444.99077	39976.9875
2447.76377	39959.2875
2450.53501	39884.0875
2453.30451	39916.6875
2456.07226	39842.1875
2458.83827	39806.8875
2461.60254	39761.1875
2464.36507	39777.1875
2467.12586	39794.5875
2469.88492	39759.1875
2472.64224	39756.3875
2475.39782	39722.9875
2478.15167	39742.0875
2480.90379	39727.7875
2483.65417	39753.0875
2486.40283	39731.1875
2489.14976	39695.5875
2491.89497	39580.5875
2494.63845	39652.7875
2497.3802	39616.3875
2500.12024	39625.8875
2502.85855	39583.0875
2505.59514	39532.1875
2508.33002	39464.7875
2511.06318	39444.9875
2513.79462	39411.3875
2516.52435	39355.6875
2519.25237	39287.7875
2521.97867	39252.2875
2524.70327	39287.5875
2527.42616	39239.0875
2530.14734	39213.0875
2532.86681	39126.6875
2535.58458	39162.9875
2538.30065	39021.1875
2541.01501	38993.4875
2543.72768	38992.2875
2546.43864	38978.1875
2549.14791	38903.5875
2551.85548	38830.8875
2554.56136	38727.2875
2557.26554	38595.8875
2559.96803	38604.9875
2562.66883	38560.4875
2565.36794	38529.0875
2568.06536	38455.7875
2570.7611	38405.7875
2573.45514	38342.4875
2576.14751	38278.4875
2578.83819	38219.3875
2581.52719	38242.6875
2584.21451	38159.0875
2586.90015	38149.7875
2589.58411	38080.2875
2592.2664	38017.7875
2594.94701	37945.5875
2597.62594	37940.4875
2600.30321	37915.8875
2602.9788	37876.3875
2605.65273	37819.1875
2608.32498	37823.5875
2610.99557	37749.0875
2613.66449	37764.3875
2616.33175	37730.8875
2618.99734	37744.9875
2621.66128	37650.3875
2624.32355	37597.4875
2626.98416	37526.7875
2629.64311	37581.8875
2632.30041	37535.0875
2634.95605	37484.7875
2637.61004	37399.1875
2640.26238	37365.1875
2642.91306	37319.6875
2645.56209	37275.4875
2648.20948	37313.5875
2650.85521	37280.1875
2653.4993	37274.9875
2656.14175	37206.0875
2658.78255	37303.2875
2661.42171	37306.2875
2664.05923	37325.3875
2666.6951	37293.5875
2669.32934	37287.5875
2671.96194	37253.5875
2674.59291	37340.0875
2677.22224	37301.1875
2679.84993	37284.2875
2682.476	37247.8875
2685.10043	37277.6875
2687.72324	37230.8875
2690.34441	37204.6875
2692.96396	37208.9875
2695.58188	37212.4875
2698.19818	37213.9875
2700.81285	37075.9875
2703.4259	37073.1875
2706.03733	37245.6875
2708.64714	37172.9875
2711.25533	37183.4875
2713.86191	37156.6875
2716.46687	37279.9875
2719.07021	37230.0875
2721.67194	37211.9875
2724.27206	37161.2875
2726.87057	37190.8875
2729.46747	37168.5875
2732.06276	37138.3875
2734.65644	37191.9875
2737.24852	37209.9875
2739.83899	37213.3875
2742.42786	37183.7875
2745.01513	37129.5875
2747.60079	37116.9875
2750.18486	37039.7875
2752.76733	36992.3875
2755.3482	36943.3875
2757.92747	36866.1875
2760.50515	36883.8875
2763.08123	36877.7875
2765.65573	36822.8875
2768.22863	36827.9875
2770.79994	36718.5875
2773.36967	36742.9875
2775.9378	36763.3875
2778.50435	36747.0875
2781.06932	36724.7875
2783.6327	36658.1875
2786.1945	36617.8875
2788.75471	36537.5875
2791.31335	36470.6875
2793.87041	36418.9875
2796.42589	36350.1875
2798.97979	36305.3875
2801.53212	36222.8875
2804.08288	36141.6875
2806.63206	36051.6875
2809.17967	36007.8875
2811.72571	35853.1875
2814.27018	35692.9875
2816.81308	35654.2875
2819.35442	35580.5875
2821.89419	35571.9875
2824.43239	35569.8875
2826.96904	35564.0875
2829.50412	35529.2875
2832.03763	35440.6875
2834.56959	35437.9875
2837.1	35336.9875
2839.62884	35284.0875
2842.15613	35163.4875
2844.68186	35177.5875
2847.20604	35122.7875
2849.72867	35180.1875
2852.24974	35100.5875
2854.76927	35028.7875
2857.28724	34999.6875
2859.80367	35033.9875
2862.31855	34963.2875
2864.83189	34898.5875
2867.34368	34842.4875
2869.85393	34796.0875
2872.36264	34809.3875
2874.8698	34766.5875
2877.37543	34736.1875
2879.87952	34673.3875
2882.38207	34678.4875
2884.88308	34646.5875
2887.38256	34671.4875
2889.88051	34654.2875
2892.37692	34686.5875
2894.8718	34710.6875
2897.36515	34702.1875
2899.85698	34748.8875
2902.34727	34743.8875
2904.83604	34687.1875
2907.32328	34771.0875
2909.809	34731.6875
2912.29319	34818.0875
2914.77587	34834.5875
2917.25702	34773.9875
2919.73665	34729.3875
2922.21476	34742.1875
2924.69136	34700.9875
2927.16644	34623.2875
2929.64	34644.4875
2932.11205	34578.4875
2934.58258	34494.9875
2937.05161	34562.2875
2939.51912	34563.7875
2941.98513	34557.1875
2944.44962	34499.1875
2946.91261	34432.1875
2949.37409	34537.8875
2951.83407	34469.7875
2954.29254	34416.0875
2956.74951	34428.9875
2959.20498	34409.9875
2961.65895	34381.7875
2964.11142	34364.5875
2966.56239	34376.4875
2969.01186	34355.8875
2971.45984	34252.9875
2973.90632	34232.3875
2976.35131	34143.6875
2978.7948	34139.2875
2981.23681	34083.7875
2983.67732	34038.5875
2986.11635	33985.1875
2988.55388	33918.9875
2990.98993	33851.3875
2993.4245	33789.4875
2995.85758	33751.6875
2998.28917	33653.3875
3000.71928	33622.8875
3003.14791	33548.5875
3005.57506	33493.6875
3008.00073	33390.2875
3010.42493	33362.3875
3012.84764	33290.9875
3015.26888	33268.8875
3017.68865	33233.3875
3020.10694	33196.7875
3022.52376	33147.4875
3024.9391	33100.2875
3027.35298	33109.0875
3029.76539	33021.4875
3032.17632	33005.9875
3034.5858	32919.2875
3036.9938	32898.2875
3039.40034	32862.2875
3041.80542	32873.4875
3044.20903	32764.4875
3046.61118	32755.8875
3049.01187	32682.3875
3051.4111	32600.5875
3053.80888	32491.2875
3056.20519	32462.2875
3058.60005	32391.7875
3060.99345	32379.6875
3063.3854	32290.1875
3065.7759	32178.5875
3068.16494	32117.0875
3070.55254	32024.0875
3072.93868	31911.3875
3075.32338	31807.4875
3077.70662	31761.8875
3080.08842	31639.6875
3082.46878	31616.3875
3084.84769	31626.8875
3087.22515	31596.7875
3089.60118	31578.4875
3091.97576	31555.3875
3094.3489	31512.5875
3096.72061	31500.8875
3099.09087	31553.2875
3101.4597	31499.5875
3103.82709	31514.0875
3106.19305	31467.7875
3108.55757	31480.3875
3110.92066	31399.3875
3113.28232	31398.9875
3115.64255	31232.6875
3118.00134	31178.8875
3120.35871	31102.2875
3122.71466	31021.3875
3125.06917	30947.3875
3127.42226	30962.0875
3129.77393	30954.7875
3132.12417	30877.6875
3134.47299	30866.9875
3136.82039	30820.7875
3139.16636	30798.1875
3141.51092	30758.2875
3143.85406	30759.3875
3146.19579	30742.7875
3148.53609	30790.7875
3150.87499	30817.2875
3153.21246	30791.0875
3155.54853	30850.7875
3157.88318	30778.0875
3160.21642	30792.5875
3162.54826	30769.6875
3164.87868	30720.8875
3167.2077	30678.2875
3169.5353	30653.5875
3171.86151	30633.3875
3174.18631	30621.2875
3176.5097	30594.4875
3178.83169	30542.7875
3181.15228	30484.4875
3183.47147	30417.5875
3185.78926	30452.0875
3188.10565	30394.1875
3190.42065	30348.6875
3192.73424	30365.7875
3195.04645	30215.6875
3197.35725	30258.6875
3199.66667	30238.8875
3201.97469	30259.9875
3204.28132	30185.7875
3206.58656	30177.8875
3208.8904	30181.7875
3211.19287	30245.1875
3213.49394	30192.4875
3215.79363	30178.2875
3218.09193	30215.5875
3220.38884	30241.7875
3222.68438	30250.5875
3224.97853	30199.6875
3227.2713	30137.4875
3229.56269	30115.8875
3231.8527	30100.9875
3234.14133	30029.0875
3236.42858	29943.4875
3238.71446	29911.0875
3240.99896	29862.2875
3243.28209	29832.6875
3245.56384	29740.4875
3247.84423	29760.6875
3250.12324	29704.1875
3252.40088	29739.6875
3254.67715	29727.2875
3256.95205	29687.7875
3259.22558	29685.4875
3261.49775	29607.6875
3263.76855	29615.1875
3266.03799	29511.8875
3268.30606	29429.3875
3270.57277	29411.6875
3272.83812	29348.7875
3275.10211	29251.8875
3277.36474	29246.8875
3279.62601	29249.8875
3281.88593	29197.7875
3284.14448	29211.9875
3286.40168	29168.6875
3288.65753	29122.8875
3290.91202	29096.3875
3293.16516	29025.6875
3295.41695	29000.1875
3297.66738	28823.1875
3299.91647	28672.8875
3302.16421	28500.1875
3304.4106	28375.3875
3306.65564	28151.9875
3308.89933	27962.4875
3311.14169	27827.5875
3313.38269	27644.5875
3315.62236	27489.4875
3317.86068	27260.1875
3320.09766	26998.4875
3322.3333	26832.9875
3324.5676	26748.1875
3326.80056	26292.3875
3329.03219	26155.6875
3331.26248	6.8875
3333.49143	-0.3125
3335.71905	-0.5125
