Data from AgNPs_FTO_APTES_UA_20uM_CRN_0uM_R6G_10uM_NaF_0.1M_Addition_RamanShift__39__11-35-11-977.txt Node

Date: Thu Feb 17 11:35:11 GMT 2022
User: TCL
Spectrometer: QEP01345
Trigger mode: 4
Integration Time (sec): 7.000000E0
Scans to average: 10
Electric dark correction enabled: true
Nonlinearity correction enabled: false
Boxcar width: 0
XAxis mode: Raman Shifts
Number of Pixels in Spectrum: 1044
>>>>>Begin Spectral Data<<<<<
46.04893	-1.375
50.45542	-1.975
54.85868	-3.475
59.25871	-0.775
63.6555	109.625
68.04907	109.225
72.43941	115.225
76.82654	116.225
81.21044	121.425
85.59113	126.225
89.96862	127.525
94.34289	131.125
98.71396	136.925
103.08183	140.825
107.4465	143.925
111.80798	147.925
116.16626	153.625
120.52136	160.925
124.87327	166.025
129.222	175.325
133.56755	190.825
137.90993	204.725
142.24913	224.525
146.58517	255.425
150.91804	303.525
155.24774	353.725
159.57429	451.125
163.89768	586.425
168.21792	782.925
172.53501	1075.025
176.84895	1500.125
181.15975	2119.225
185.46741	2982.625
189.77193	4121.225
194.07331	5535.625
198.37157	7117.925
202.6667	8837.725
206.9587	10495.325
211.24758	12135.725
215.53334	13728.225
219.81599	15436.425
224.09553	17274.025
228.37195	19342.925
232.64527	21606.625
236.91549	24021.925
241.18261	26543.725
245.44663	28920.225
249.70755	31045.125
253.96539	32899.825
258.22014	34412.325
262.4718	35643.225
266.72039	36514.425
270.96589	36825.125
275.20832	36847.025
279.44768	36564.125
283.68397	36205.225
287.91719	35843.425
292.14735	35544.525
296.37445	35347.225
300.59849	35276.625
304.81948	35326.625
309.03742	35434.225
313.25231	35487.625
317.46415	35465.625
321.67296	35319.825
325.87872	35157.925
330.08145	35116.425
334.28114	35107.525
338.47781	35388.225
342.67145	35785.725
346.86207	36333.425
351.04966	36925.225
355.23424	37484.025
359.4158	37917.725
363.59435	38280.525
367.76989	38440.225
371.94243	38528.125
376.11196	38677.625
380.27849	38786.525
384.44203	39028.625
388.60257	39335.725
392.76012	39774.025
396.91468	40324.625
401.06626	40855.425
405.21485	41250.425
409.36047	41222.825
413.50311	41066.825
417.64277	41143.125
421.77947	41581.925
425.9132	41988.525
430.04396	42352.625
434.17176	42557.525
438.2966	42868.425
442.41849	43440.825
446.53742	44468.225
450.6534	45539.925
454.76644	46186.825
458.87653	46291.425
462.98368	45989.025
467.08789	45521.325
471.18916	44889.325
475.2875	44153.925
479.38291	43568.825
483.4754	43160.525
487.56496	42872.625
491.6516	42605.725
495.73531	42415.025
499.81612	42269.825
503.89401	42538.625
507.96899	42793.525
512.04106	42854.925
516.11023	42657.125
520.1765	42357.225
524.23987	42222.325
528.30034	42191.925
532.35792	42021.625
536.41261	41558.725
540.46441	41225.325
544.51333	41062.225
548.55936	41288.925
552.60252	41818.225
556.64279	42648.525
560.6802	43473.425
564.71473	43925.925
568.7464	44451.525
572.7752	45714.825
576.80114	47551.825
580.82422	49660.625
584.84444	52186.225
588.86181	55995.425
592.87633	60226.525
596.888	61444.125
600.89682	57703.925
604.9028	53618.225
608.90594	52761.425
612.90624	53002.225
616.90371	50166.825
620.89834	45752.025
624.89015	43903.325
628.87913	43987.625
632.86528	44371.325
636.84862	44267.625
640.82913	43411.625
644.80683	42524.725
648.78172	42057.925
652.75379	42069.225
656.72306	42447.225
660.68952	42856.025
664.65319	42748.925
668.61405	42348.725
672.57211	42312.825
676.52738	42584.225
680.47986	42622.125
684.42955	42388.825
688.37646	42237.825
692.32058	42492.625
696.26192	43052.725
700.20048	43651.925
704.13626	43978.925
708.06928	44211.025
711.99952	44218.325
715.927	44256.725
719.85171	44337.425
723.77365	44098.325
727.69284	43522.625
731.60928	42945.825
735.52295	42827.425
739.43388	42923.525
743.34206	43080.725
747.24749	43381.125
751.15017	43820.525
755.05012	44403.525
758.94733	45313.225
762.8418	46664.825
766.73354	48699.825
770.62254	50319.725
774.50882	50202.825
778.39237	48604.625
782.27321	46774.225
786.15132	45209.425
790.02671	44262.125
793.89938	43669.725
797.76935	43318.325
801.6366	43215.225
805.50115	43102.825
809.36299	43042.925
813.22213	42836.425
817.07857	42756.525
820.93231	42630.525
824.78336	42460.225
828.63172	42385.625
832.47738	42316.925
836.32036	42349.125
840.16066	42359.025
843.99827	42451.225
847.8332	42537.825
851.66546	42724.425
855.49504	42830.925
859.32195	42856.925
863.1462	42798.625
866.96777	42813.325
870.78668	42868.125
874.60293	42818.525
878.41652	42959.625
882.22745	43109.225
886.03573	43199.425
889.84136	43217.825
893.64433	43068.925
897.44466	42962.825
901.24235	42890.225
905.0374	42814.325
908.8298	42808.825
912.61957	42897.025
916.40671	43115.425
920.19121	43632.425
923.97308	44137.125
927.75233	44311.725
931.52895	43903.625
935.30295	43147.825
939.07433	42558.625
942.84309	42207.725
946.60924	41959.225
950.37278	41975.425
954.13371	42027.825
957.89203	42004.225
961.64774	41998.225
965.40086	42016.725
969.15137	42011.125
972.89929	41939.425
976.64461	41766.025
980.38733	41730.025
984.12747	41819.525
987.86502	41871.525
991.59999	42148.225
995.33237	42453.225
999.06217	42933.225
1002.78939	43743.225
1006.51404	44642.025
1010.23611	45554.525
1013.95561	46123.025
1017.67255	46219.725
1021.38692	45776.825
1025.09872	44826.725
1028.80796	44116.425
1032.51465	43812.425
1036.21877	43786.425
1039.92035	43926.725
1043.61937	44031.325
1047.31584	44079.225
1051.00976	44207.725
1054.70114	44373.625
1058.38998	44601.125
1062.07627	44901.925
1065.76003	45364.325
1069.44126	45972.725
1073.11995	46770.325
1076.79611	47404.525
1080.46974	47788.725
1084.14085	48052.825
1087.80943	48527.225
1091.47549	48885.925
1095.13903	48928.425
1098.80005	48281.125
1102.45857	47375.025
1106.11456	46668.025
1109.76805	46293.825
1113.41903	46303.125
1117.06751	46475.225
1120.71348	46714.125
1124.35696	47013.425
1127.99793	47290.625
1131.63641	47485.125
1135.2724	47585.225
1138.90589	47707.725
1142.5369	47922.925
1146.16542	48275.525
1149.79145	48798.925
1153.415	49236.925
1157.03607	49712.325
1160.65467	50602.325
1164.27079	52140.025
1167.88443	54103.925
1171.49561	56185.625
1175.10432	58695.225
1178.71056	61676.125
1182.31434	64485.425
1185.91565	65563.925
1189.51451	64892.125
1193.11091	63668.425
1196.70485	62248.925
1200.29634	60859.325
1203.88538	59940.325
1207.47197	59861.925
1211.05612	59938.125
1214.63782	59432.725
1218.21708	58338.425
1221.79391	57096.925
1225.36829	56412.025
1228.94024	56010.425
1232.50976	55317.525
1236.07685	54477.525
1239.6415	53713.225
1243.20374	53415.825
1246.76355	53623.025
1250.32093	54183.625
1253.8759	55026.325
1257.42845	56188.225
1260.97859	57496.325
1264.52631	58991.625
1268.07163	60581.225
1271.61453	62026.425
1275.15503	63396.725
1278.69312	64982.925
1282.22882	66847.025
1285.76211	69223.325
1289.29301	71856.325
1292.82151	74678.125
1296.34761	77851.225
1299.87133	81739.925
1303.39266	85507.925
1306.9116	88724.025
1310.42815	90969.625
1313.94233	91774.025
1317.45412	90719.125
1320.96354	88547.525
1324.47058	86837.325
1327.97525	85836.625
1331.47754	85020.525
1334.97747	84344.825
1338.47502	83480.225
1341.97022	82641.025
1345.46305	81788.825
1348.95352	81107.325
1352.44163	80885.825
1355.92738	82068.325
1359.41078	84689.325
1362.89183	87009.125
1366.37053	86831.325
1369.84688	82377.825
1373.32088	75186.025
1376.79254	69827.625
1380.26186	67858.325
1383.72883	67924.225
1387.19347	68031.325
1390.65578	67353.725
1394.11575	67104.025
1397.57339	67753.625
1401.0287	68863.325
1404.48168	69823.125
1407.93234	69724.525
1411.38068	68664.925
1414.82669	66854.225
1418.27039	64807.825
1421.71177	62885.825
1425.15083	61331.125
1428.58758	60802.625
1432.02203	61475.425
1435.45416	62984.925
1438.88399	64472.525
1442.31151	65462.025
1445.73673	65793.025
1449.15965	65926.425
1452.58027	65789.225
1455.9986	65636.325
1459.41463	65903.225
1462.82837	66920.025
1466.23982	68131.725
1469.64898	69293.125
1473.05586	70124.225
1476.46045	70443.225
1479.86276	70497.925
1483.26279	70169.625
1486.66054	70001.025
1490.05602	70373.925
1493.44922	71034.125
1496.84016	71549.225
1500.22882	71711.725
1503.61521	71651.525
1506.99934	71583.325
1510.38121	71396.225
1513.76081	70943.225
1517.13816	70234.025
1520.51324	69891.925
1523.88607	70270.825
1527.25665	71139.525
1530.62498	71773.025
1533.99105	71569.225
1537.35488	70403.525
1540.71647	68745.525
1544.07581	66903.925
1547.4329	65225.925
1550.78776	63759.025
1554.14038	62738.425
1557.49077	62217.925
1560.83892	61817.525
1564.18484	61645.025
1567.52853	61588.125
1570.86999	61915.025
1574.20922	62816.025
1577.54624	63525.425
1580.88103	63793.225
1584.2136	64682.725
1587.54395	66938.925
1590.87208	70623.225
1594.19801	75056.325
1597.52172	78916.025
1600.84321	80061.525
1604.16251	76837.825
1607.47959	71199.525
1610.79447	65234.025
1614.10715	60228.425
1617.41763	56470.525
1620.7259	54031.425
1624.03199	52887.125
1627.33587	52988.325
1630.63757	54334.425
1633.93707	57406.425
1637.23439	62835.325
1640.52951	71165.525
1643.82246	81173.825
1647.11321	89053.725
1650.40179	89739.825
1653.68819	82401.225
1656.97241	71420.825
1660.25446	61628.225
1663.53433	54912.325
1666.81203	50840.925
1670.08756	48413.325
1673.36092	46907.425
1676.63211	45864.125
1679.90115	45141.025
1683.16801	44564.325
1686.43272	44084.125
1689.69527	43844.125
1692.95567	43540.525
1696.2139	43469.825
1699.46999	43398.925
1702.72392	43239.925
1705.97571	43155.525
1709.22535	43066.225
1712.47284	43016.725
1715.71819	43039.925
1718.96139	42955.225
1722.20246	42894.125
1725.44139	42702.925
1728.67818	42537.825
1731.91284	42340.025
1735.14537	42175.625
1738.37576	42041.425
1741.60403	41909.325
1744.83017	41779.925
1748.05418	41647.025
1751.27607	41606.225
1754.49584	41593.425
1757.71349	41586.025
1760.92903	41554.925
1764.14244	41506.125
1767.35375	41496.325
1770.56294	41446.225
1773.77002	41402.025
1776.97499	41431.025
1780.17785	41373.225
1783.37861	41282.325
1786.57727	41177.225
1789.77382	41130.225
1792.96828	41118.225
1796.16064	41023.825
1799.3509	40945.925
1802.53907	40907.825
1805.72514	40801.125
1808.90913	40702.025
1812.09102	40650.625
1815.27083	40608.925
1818.44856	40539.625
1821.6242	40486.725
1824.79776	40433.425
1827.96924	40372.925
1831.13864	40440.225
1834.30597	40398.425
1837.47122	40347.625
1840.6344	40289.325
1843.7955	40336.625
1846.95454	40320.325
1850.11151	40329.525
1853.26642	40303.725
1856.41926	40326.025
1859.57004	40333.525
1862.71876	40300.225
1865.86542	40229.425
1869.01003	40178.025
1872.15258	40075.725
1875.29308	40088.525
1878.43152	40001.925
1881.56792	40029.225
1884.70227	40009.525
1887.83457	40006.725
1890.96482	40005.525
1894.09304	39945.425
1897.21921	39862.825
1900.34335	39775.725
1903.46544	39718.525
1906.58551	39755.025
1909.70353	39677.525
1912.81953	39659.625
1915.93349	39646.525
1919.04543	39524.825
1922.15534	39470.225
1925.26322	39405.425
1928.36908	39358.525
1931.47292	39243.325
1934.57473	39180.525
1937.67453	39035.525
1940.77232	38987.825
1943.86808	38885.025
1946.96184	38785.225
1950.05358	38688.725
1953.14331	38568.625
1956.23103	38498.925
1959.31675	38375.425
1962.40046	38245.325
1965.48217	38068.225
1968.56188	38005.025
1971.63959	37944.225
1974.7153	37828.125
1977.78901	37708.025
1980.86073	37548.425
1983.93046	37484.025
1986.99819	37428.325
1990.06394	37332.125
1993.1277	37268.225
1996.18947	37127.525
1999.24925	37039.525
2002.30706	36997.425
2005.36288	36828.525
2008.41672	36692.825
2011.46859	36686.625
2014.51848	36562.625
2017.56639	36454.725
2020.61233	36342.225
2023.6563	36277.225
2026.6983	36141.525
2029.73833	36066.825
2032.7764	36005.625
2035.8125	35979.425
2038.84664	35849.525
2041.87881	35896.825
2044.90903	35709.325
2047.93729	35746.925
2050.96359	35655.725
2053.98794	35631.225
2057.01034	35643.625
2060.03078	35649.025
2063.04927	35643.225
2066.06582	35645.725
2069.08042	35599.625
2072.09307	35535.825
2075.10378	35514.625
2078.11255	35493.825
2081.11938	35500.625
2084.12426	35440.825
2087.12722	35427.125
2090.12824	35417.925
2093.12732	35465.625
2096.12447	35490.425
2099.11969	35418.525
2102.11299	35446.525
2105.10435	35485.825
2108.09379	35490.125
2111.08131	35548.325
2114.0669	35492.125
2117.05057	35503.925
2120.03233	35492.925
2123.01216	35557.625
2125.99008	35639.725
2128.96609	35633.525
2131.94018	35703.525
2134.91236	35709.025
2137.88263	35735.925
2140.851	35746.425
2143.81746	35786.425
2146.78201	35753.425
2149.74466	35859.725
2152.7054	35827.225
2155.66425	35784.325
2158.6212	35813.825
2161.57625	35795.725
2164.52941	35824.625
2167.48067	35746.625
2170.43004	35731.425
2173.37752	35767.125
2176.32311	35817.125
2179.26681	35804.025
2182.20863	35813.525
2185.14856	35844.525
2188.08661	35779.225
2191.02278	35818.525
2193.95707	35761.425
2196.88948	35705.525
2199.82001	35728.825
2202.74867	35638.325
2205.67545	35611.025
2208.60037	35533.125
2211.52341	35496.925
2214.44458	35425.225
2217.36388	35403.425
2220.28132	35404.325
2223.1969	35292.525
2226.11061	35214.025
2229.02246	35148.525
2231.93245	35103.825
2234.84058	35120.725
2237.74686	35149.525
2240.65128	35069.525
2243.55385	35011.425
2246.45456	34980.225
2249.35343	34848.225
2252.25044	34844.625
2255.14561	34787.025
2258.03893	34711.225
2260.93041	34648.625
2263.82004	34552.525
2266.70783	34501.425
2269.59378	34349.425
2272.4779	34318.225
2275.36017	34288.525
2278.24061	34175.525
2281.11922	34153.725
2283.996	34077.825
2286.87094	34061.125
2289.74405	34010.125
2292.61534	33977.725
2295.4848	33970.725
2298.35243	33966.025
2301.21824	33888.425
2304.08223	33896.525
2306.94439	33830.325
2309.80474	33845.825
2312.66327	33811.625
2315.51999	33789.625
2318.37489	33737.825
2321.22797	33661.425
2324.07925	33680.525
2326.92871	33578.025
2329.77637	33500.025
2332.62222	33463.225
2335.46626	33513.925
2338.3085	33456.925
2341.14893	33419.725
2343.98756	33418.025
2346.8244	33369.225
2349.65943	33402.425
2352.49267	33391.525
2355.32411	33368.425
2358.15376	33370.025
2360.98161	33362.925
2363.80768	33309.325
2366.63195	33237.325
2369.45444	33263.925
2372.27514	33221.925
2375.09405	33173.725
2377.91118	33108.025
2380.72652	33060.325
2383.54009	32932.725
2386.35187	32913.925
2389.16188	32874.325
2391.97011	32724.125
2394.77657	32791.025
2397.58125	32673.025
2400.38416	32632.825
2403.18529	32574.725
2405.98466	32578.325
2408.78226	32529.825
2411.57809	32511.825
2414.37216	32451.125
2417.16446	32470.025
2419.955	32439.225
2422.74378	32417.925
2425.5308	32341.825
2428.31606	32404.525
2431.09956	32386.825
2433.88131	32388.525
2436.6613	32368.225
2439.43954	32326.125
2442.21603	32280.525
2444.99077	32236.725
2447.76377	32266.125
2450.53501	32170.925
2453.30451	32254.125
2456.07226	32201.325
2458.83827	32150.325
2461.60254	32133.225
2464.36507	32087.325
2467.12586	32111.525
2469.88492	32097.025
2472.64224	32083.125
2475.39782	32071.425
2478.15167	32047.525
2480.90379	32062.425
2483.65417	32039.525
2486.40283	32043.825
2489.14976	32053.125
2491.89497	32050.725
2494.63845	32068.325
2497.3802	31995.825
2500.12024	31946.925
2502.85855	31950.825
2505.59514	31921.325
2508.33002	31882.425
2511.06318	31810.425
2513.79462	31865.525
2516.52435	31842.025
2519.25237	31796.925
2521.97867	31756.125
2524.70327	31747.725
2527.42616	31725.325
2530.14734	31706.725
2532.86681	31622.625
2535.58458	31635.825
2538.30065	31638.525
2541.01501	31616.825
2543.72768	31609.825
2546.43864	31550.825
2549.14791	31522.325
2551.85548	31501.625
2554.56136	31391.925
2557.26554	31342.125
2559.96803	31332.125
2562.66883	31281.225
2565.36794	31264.825
2568.06536	31235.425
2570.7611	31220.125
2573.45514	31155.325
2576.14751	31093.125
2578.83819	31086.025
2581.52719	31052.125
2584.21451	31005.925
2586.90015	30953.725
2589.58411	30899.525
2592.2664	30870.825
2594.94701	30915.725
2597.62594	30864.725
2600.30321	30820.025
2602.9788	30819.125
2605.65273	30752.225
2608.32498	30818.725
2610.99557	30752.025
2613.66449	30763.425
2616.33175	30676.225
2618.99734	30688.425
2621.66128	30624.825
2624.32355	30609.325
2626.98416	30583.625
2629.64311	30502.425
2632.30041	30483.325
2634.95605	30454.525
2637.61004	30413.125
2640.26238	30415.425
2642.91306	30389.225
2645.56209	30378.825
2648.20948	30374.125
2650.85521	30391.625
2653.4993	30416.925
2656.14175	30406.425
2658.78255	30448.625
2661.42171	30461.525
2664.05923	30482.825
2666.6951	30460.325
2669.32934	30457.225
2671.96194	30449.325
2674.59291	30489.625
2677.22224	30488.825
2679.84993	30513.925
2682.476	30451.825
2685.10043	30452.625
2687.72324	30390.525
2690.34441	30446.825
2692.96396	30416.525
2695.58188	30459.825
2698.19818	30410.025
2700.81285	30403.025
2703.4259	30382.925
2706.03733	30461.125
2708.64714	30416.525
2711.25533	30442.825
2713.86191	30500.825
2716.46687	30530.125
2719.07021	30532.125
2721.67194	30550.625
2724.27206	30535.125
2726.87057	30550.525
2729.46747	30551.925
2732.06276	30561.425
2734.65644	30540.325
2737.24852	30554.925
2739.83899	30518.625
2742.42786	30560.925
2745.01513	30494.825
2747.60079	30475.725
2750.18486	30473.425
2752.76733	30417.325
2755.3482	30398.925
2757.92747	30353.925
2760.50515	30309.725
2763.08123	30278.425
2765.65573	30282.225
2768.22863	30244.825
2770.79994	30235.725
2773.36967	30208.225
2775.9378	30211.125
2778.50435	30221.925
2781.06932	30204.725
2783.6327	30163.725
2786.1945	30159.725
2788.75471	30102.625
2791.31335	29977.825
2793.87041	29985.625
2796.42589	29896.125
2798.97979	29877.625
2801.53212	29792.425
2804.08288	29798.325
2806.63206	29741.125
2809.17967	29670.525
2811.72571	29555.025
2814.27018	29511.225
2816.81308	29437.725
2819.35442	29360.025
2821.89419	29319.525
2824.43239	29305.825
2826.96904	29261.525
2829.50412	29236.425
2832.03763	29152.225
2834.56959	29176.725
2837.1	29112.625
2839.62884	29072.325
2842.15613	29016.025
2844.68186	29067.025
2847.20604	29022.525
2849.72867	29016.125
2852.24974	28964.225
2854.76927	28914.125
2857.28724	28848.325
2859.80367	28818.925
2862.31855	28790.425
2864.83189	28807.525
2867.34368	28701.425
2869.85393	28687.125
2872.36264	28642.025
2874.8698	28606.525
2877.37543	28576.025
2879.87952	28560.025
2882.38207	28550.125
2884.88308	28605.425
2887.38256	28593.825
2889.88051	28579.725
2892.37692	28610.725
2894.8718	28600.925
2897.36515	28582.225
2899.85698	28599.625
2902.34727	28632.425
2904.83604	28588.725
2907.32328	28662.925
2909.809	28642.325
2912.29319	28681.725
2914.77587	28643.925
2917.25702	28662.125
2919.73665	28566.525
2922.21476	28616.625
2924.69136	28596.125
2927.16644	28554.425
2929.64	28567.425
2932.11205	28507.025
2934.58258	28475.225
2937.05161	28537.925
2939.51912	28489.625
2941.98513	28463.725
2944.44962	28449.325
2946.91261	28349.125
2949.37409	28424.925
2951.83407	28446.225
2954.29254	28414.425
2956.74951	28432.225
2959.20498	28407.625
2961.65895	28351.925
2964.11142	28368.925
2966.56239	28335.425
2969.01186	28287.325
2971.45984	28187.125
2973.90632	28146.325
2976.35131	28090.725
2978.7948	28076.425
2981.23681	28035.625
2983.67732	27996.125
2986.11635	27919.325
2988.55388	27861.125
2990.98993	27777.425
2993.4245	27755.825
2995.85758	27664.825
2998.28917	27547.025
3000.71928	27492.825
3003.14791	27463.025
3005.57506	27447.825
3008.00073	27367.925
3010.42493	27318.925
3012.84764	27291.425
3015.26888	27306.225
3017.68865	27193.425
3020.10694	27170.025
3022.52376	27077.725
3024.9391	27025.725
3027.35298	27028.125
3029.76539	26992.425
3032.17632	26973.025
3034.5858	26893.925
3036.9938	26878.525
3039.40034	26851.325
3041.80542	26861.425
3044.20903	26798.025
3046.61118	26822.125
3049.01187	26711.925
3051.4111	26673.125
3053.80888	26629.125
3056.20519	26582.425
3058.60005	26498.225
3060.99345	26468.425
3063.3854	26359.125
3065.7759	26314.225
3068.16494	26268.325
3070.55254	26134.925
3072.93868	26061.025
3075.32338	26034.125
3077.70662	25964.025
3080.08842	25914.825
3082.46878	25819.725
3084.84769	25770.725
3087.22515	25792.525
3089.60118	25729.125
3091.97576	25711.225
3094.3489	25730.025
3096.72061	25748.725
3099.09087	25741.925
3101.4597	25683.525
3103.82709	25713.625
3106.19305	25622.325
3108.55757	25645.725
3110.92066	25587.025
3113.28232	25549.825
3115.64255	25471.825
3118.00134	25408.725
3120.35871	25357.925
3122.71466	25228.225
3125.06917	25224.725
3127.42226	25149.525
3129.77393	25183.525
3132.12417	25105.225
3134.47299	25049.525
3136.82039	25021.725
3139.16636	24968.525
3141.51092	25005.425
3143.85406	24981.225
3146.19579	24958.225
3148.53609	24967.925
3150.87499	24962.725
3153.21246	24947.225
3155.54853	25021.525
3157.88318	24942.425
3160.21642	24942.925
3162.54826	24896.725
3164.87868	24843.925
3167.2077	24803.825
3169.5353	24817.825
3171.86151	24841.325
3174.18631	24827.725
3176.5097	24788.825
3178.83169	24785.125
3181.15228	24732.525
3183.47147	24613.625
3185.78926	24598.525
3188.10565	24528.725
3190.42065	24504.725
3192.73424	24501.025
3195.04645	24423.625
3197.35725	24368.825
3199.66667	24362.125
3201.97469	24387.725
3204.28132	24356.625
3206.58656	24400.425
3208.8904	24332.525
3211.19287	24341.325
3213.49394	24306.625
3215.79363	24353.525
3218.09193	24344.025
3220.38884	24360.225
3222.68438	24372.525
3224.97853	24264.725
3227.2713	24232.925
3229.56269	24206.625
3231.8527	24207.525
3234.14133	24174.325
3236.42858	24132.225
3238.71446	24101.225
3240.99896	24013.425
3243.28209	24037.525
3245.56384	23996.025
3247.84423	23933.025
3250.12324	23854.025
3252.40088	23879.125
3254.67715	23836.525
3256.95205	23788.225
3259.22558	23767.525
3261.49775	23740.125
3263.76855	23735.025
3266.03799	23636.225
3268.30606	23573.125
3270.57277	23563.825
3272.83812	23508.225
3275.10211	23517.925
3277.36474	23420.825
3279.62601	23441.225
3281.88593	23399.425
3284.14448	23398.125
3286.40168	23368.025
3288.65753	23330.925
3290.91202	23352.025
3293.16516	23310.525
3295.41695	23283.625
3297.66738	23150.625
3299.91647	22964.825
3302.16421	22840.925
3304.4106	22701.725
3306.65564	22546.225
3308.89933	22405.225
3311.14169	22246.825
3313.38269	22075.025
3315.62236	21945.225
3317.86068	21715.625
3320.09766	21509.025
3322.3333	21343.825
3324.5676	21259.725
3326.80056	20939.225
3329.03219	20807.125
3331.26248	5.825
3333.49143	1.425
3335.71905	0.025
