Data from AgNPs_FTO_APTES_UA_20uM_CRN_5uM_R6G_10uM_NaF_0.1M_Addition_RamanShift__16__13-50-32-153.txt Node

Date: Thu Feb 17 13:50:32 GMT 2022
User: TCL
Spectrometer: QEP01345
Trigger mode: 4
Integration Time (sec): 7.000000E0
Scans to average: 10
Electric dark correction enabled: true
Nonlinearity correction enabled: false
Boxcar width: 0
XAxis mode: Raman Shifts
Number of Pixels in Spectrum: 1044
>>>>>Begin Spectral Data<<<<<
46.04893	0.4875
50.45542	-2.2125
54.85868	-1.7125
59.25871	-1.2125
63.6555	130.4875
68.04907	130.4875
72.43941	133.0875
76.82654	135.8875
81.21044	142.2875
85.59113	146.6875
89.96862	149.7875
94.34289	151.5875
98.71396	154.7875
103.08183	167.0875
107.4465	169.6875
111.80798	173.8875
116.16626	184.1875
120.52136	190.2875
124.87327	200.2875
129.222	211.2875
133.56755	225.9875
137.90993	242.6875
142.24913	270.1875
146.58517	310.1875
150.91804	364.3875
155.24774	437.2875
159.57429	552.1875
163.89768	723.5875
168.21792	964.9875
172.53501	1337.2875
176.84895	1868.2875
181.15975	2647.0875
185.46741	3747.3875
189.77193	5172.3875
194.07331	6977.8875
198.37157	9009.8875
202.6667	11139.8875
206.9587	13291.8875
211.24758	15339.0875
215.53334	17412.1875
219.81599	19621.7875
224.09553	22025.2875
228.37195	24664.8875
232.64527	27569.7875
236.91549	30668.2875
241.18261	33861.7875
245.44663	36912.6875
249.70755	39707.4875
253.96539	42203.1875
258.22014	44273.8875
262.4718	46006.0875
266.72039	47292.9875
270.96589	47945.2875
275.20832	48172.3875
279.44768	47985.6875
283.68397	47589.9875
287.91719	47194.5875
292.14735	46919.4875
296.37445	46837.0875
300.59849	46802.4875
304.81948	46893.6875
309.03742	46771.3875
313.25231	46367.0875
317.46415	45653.3875
321.67296	44865.9875
325.87872	44238.6875
330.08145	44007.9875
334.28114	43984.9875
338.47781	44380.3875
342.67145	44869.5875
346.86207	45556.4875
351.04966	46320.7875
355.23424	47168.8875
359.4158	47836.9875
363.59435	48418.6875
367.76989	48811.7875
371.94243	49115.0875
376.11196	49416.5875
380.27849	49805.7875
384.44203	50112.2875
388.60257	50414.5875
392.76012	50844.0875
396.91468	51339.8875
401.06626	51951.4875
405.21485	52379.0875
409.36047	52334.4875
413.50311	51873.4875
417.64277	51481.6875
421.77947	51378.2875
425.9132	51550.2875
430.04396	51883.9875
434.17176	52241.2875
438.2966	52690.3875
442.41849	53529.8875
446.53742	54596.4875
450.6534	55803.6875
454.76644	56883.9875
458.87653	57289.9875
462.98368	57183.5875
467.08789	56758.6875
471.18916	56217.4875
475.2875	55722.3875
479.38291	55544.1875
483.4754	55273.2875
487.56496	54783.5875
491.6516	54225.3875
495.73531	53635.9875
499.81612	53359.9875
503.89401	53547.2875
507.96899	53727.2875
512.04106	53617.9875
516.11023	53399.4875
520.1765	53138.0875
524.23987	52991.5875
528.30034	52761.9875
532.35792	52456.1875
536.41261	52193.2875
540.46441	51866.0875
544.51333	51905.2875
548.55936	52392.7875
552.60252	53260.3875
556.64279	54185.8875
560.6802	54929.6875
564.71473	55342.5875
568.7464	55940.4875
572.7752	56901.7875
576.80114	57690.6875
580.82422	58401.9875
584.84444	59089.3875
588.86181	59810.3875
592.87633	60383.8875
596.888	60313.9875
600.89682	60060.1875
604.9028	61189.2875
608.90594	64856.9875
612.90624	68298.7875
616.90371	64913.6875
620.89834	57548.0875
624.89015	54417.7875
628.87913	54011.3875
632.86528	54204.2875
636.84862	54163.3875
640.82913	53690.3875
644.80683	52779.1875
648.78172	52068.2875
652.75379	51983.4875
656.72306	52483.8875
660.68952	53186.5875
664.65319	53058.8875
668.61405	52486.4875
672.57211	52358.1875
676.52738	52543.9875
680.47986	52573.1875
684.42955	52355.4875
688.37646	52284.1875
692.32058	52588.0875
696.26192	53066.1875
700.20048	53577.9875
704.13626	53857.9875
708.06928	53919.5875
711.99952	53586.1875
715.927	53514.7875
719.85171	53557.2875
723.77365	53526.5875
727.69284	53267.8875
731.60928	52887.5875
735.52295	52697.5875
739.43388	52728.1875
743.34206	52962.5875
747.24749	53096.7875
751.15017	53437.4875
755.05012	53991.7875
758.94733	55007.5875
762.8418	56926.6875
766.73354	59950.1875
770.62254	62725.9875
774.50882	63189.6875
778.39237	61101.9875
782.27321	57880.8875
786.15132	55416.2875
790.02671	53857.3875
793.89938	53089.8875
797.76935	52732.1875
801.6366	52634.6875
805.50115	52488.9875
809.36299	52361.3875
813.22213	52190.9875
817.07857	52066.7875
820.93231	52037.7875
824.78336	51904.2875
828.63172	51867.6875
832.47738	51811.0875
836.32036	51838.2875
840.16066	51874.3875
843.99827	51963.9875
847.8332	51969.0875
851.66546	51896.5875
855.49504	51875.1875
859.32195	52028.0875
863.1462	51977.6875
866.96777	51929.1875
870.78668	51933.1875
874.60293	51965.9875
878.41652	51994.3875
882.22745	52072.4875
886.03573	52129.8875
889.84136	52111.1875
893.64433	51925.8875
897.44466	51720.1875
901.24235	51577.9875
905.0374	51522.2875
908.8298	51434.6875
912.61957	51511.2875
916.40671	51814.2875
920.19121	52229.2875
923.97308	52575.4875
927.75233	52505.9875
931.52895	52242.9875
935.30295	51835.6875
939.07433	51280.3875
942.84309	50913.2875
946.60924	50701.7875
950.37278	50660.6875
954.13371	50722.5875
957.89203	50680.7875
961.64774	50571.3875
965.40086	50427.5875
969.15137	50394.7875
972.89929	50229.7875
976.64461	50151.4875
980.38733	50088.8875
984.12747	50292.2875
987.86502	50609.3875
991.59999	51087.4875
995.33237	51622.6875
999.06217	52479.5875
1002.78939	53445.5875
1006.51404	54241.6875
1010.23611	54785.6875
1013.95561	55093.7875
1017.67255	55184.4875
1021.38692	54842.7875
1025.09872	54311.0875
1028.80796	54119.0875
1032.51465	54504.6875
1036.21877	54938.7875
1039.92035	54966.1875
1043.61937	54789.6875
1047.31584	54367.7875
1051.00976	53824.2875
1054.70114	53677.0875
1058.38998	53879.8875
1062.07627	54160.0875
1065.76003	54597.5875
1069.44126	55072.6875
1073.11995	55613.5875
1076.79611	56112.5875
1080.46974	56532.7875
1084.14085	56837.1875
1087.80943	57322.5875
1091.47549	57626.1875
1095.13903	57617.8875
1098.80005	57149.0875
1102.45857	56456.4875
1106.11456	55934.6875
1109.76805	55764.9875
1113.41903	55882.9875
1117.06751	56112.1875
1120.71348	56445.6875
1124.35696	56785.9875
1127.99793	57119.7875
1131.63641	57179.2875
1135.2724	56951.9875
1138.90589	56725.8875
1142.5369	56589.6875
1146.16542	56623.1875
1149.79145	56844.0875
1153.415	57199.4875
1157.03607	57805.1875
1160.65467	58811.0875
1164.27079	60461.9875
1167.88443	62669.1875
1171.49561	65420.7875
1175.10432	68904.8875
1178.71056	73108.5875
1182.31434	77094.3875
1185.91565	79210.7875
1189.51451	79086.9875
1193.11091	77483.7875
1196.70485	75225.8875
1200.29634	72880.7875
1203.88538	71064.0875
1207.47197	69799.4875
1211.05612	68633.2875
1214.63782	67505.3875
1218.21708	66739.4875
1221.79391	66200.0875
1225.36829	65870.8875
1228.94024	65309.1875
1232.50976	64352.1875
1236.07685	63503.8875
1239.6415	63058.1875
1243.20374	63077.8875
1246.76355	63410.8875
1250.32093	64089.2875
1253.8759	65035.0875
1257.42845	66289.7875
1260.97859	67580.1875
1264.52631	68867.5875
1268.07163	70306.3875
1271.61453	71676.3875
1275.15503	73107.0875
1278.69312	74542.7875
1282.22882	75960.4875
1285.76211	77322.3875
1289.29301	79077.8875
1292.82151	81294.5875
1296.34761	84040.9875
1299.87133	87545.7875
1303.39266	91507.4875
1306.9116	95852.0875
1310.42815	99879.9875
1313.94233	102592.6875
1317.45412	103060.3875
1320.96354	102234.5875
1324.47058	101003.2875
1327.97525	99700.8875
1331.47754	98692.9875
1334.97747	98032.8875
1338.47502	98016.4875
1341.97022	98075.6875
1345.46305	97775.6875
1348.95352	96792.1875
1352.44163	95767.0875
1355.92738	95989.8875
1359.41078	97915.0875
1362.89183	99773.8875
1366.37053	98053.9875
1369.84688	91807.8875
1373.32088	84519.6875
1376.79254	79550.7875
1380.26186	77423.5875
1383.72883	77134.4875
1387.19347	77215.8875
1390.65578	76883.3875
1394.11575	76681.3875
1397.57339	77271.9875
1401.0287	78300.4875
1404.48168	79283.5875
1407.93234	79424.3875
1411.38068	78719.5875
1414.82669	76991.6875
1418.27039	74748.8875
1421.71177	72219.7875
1425.15083	70280.2875
1428.58758	69245.0875
1432.02203	69437.6875
1435.45416	70559.5875
1438.88399	72110.5875
1442.31151	73534.0875
1445.73673	74482.3875
1449.15965	75242.0875
1452.58027	75841.5875
1455.9986	76007.0875
1459.41463	76506.2875
1462.82837	77520.0875
1466.23982	78675.1875
1469.64898	79646.4875
1473.05586	80382.2875
1476.46045	80380.1875
1479.86276	79861.1875
1483.26279	79029.5875
1486.66054	78436.9875
1490.05602	78585.7875
1493.44922	78846.9875
1496.84016	79223.1875
1500.22882	80208.3875
1503.61521	82154.4875
1506.99934	84510.8875
1510.38121	86312.6875
1513.76081	86444.8875
1517.13816	84626.0875
1520.51324	82034.1875
1523.88607	79904.5875
1527.25665	78899.0875
1530.62498	78837.2875
1533.99105	78823.5875
1537.35488	78683.9875
1540.71647	77973.5875
1544.07581	76962.4875
1547.4329	75834.6875
1550.78776	74693.9875
1554.14038	73744.3875
1557.49077	73272.5875
1560.83892	72997.1875
1564.18484	72926.7875
1567.52853	73026.4875
1570.86999	73307.8875
1574.20922	73997.5875
1577.54624	74557.1875
1580.88103	74340.8875
1584.2136	74379.7875
1587.54395	75809.2875
1590.87208	78527.3875
1594.19801	82313.3875
1597.52172	86308.6875
1600.84321	87720.7875
1604.16251	85109.8875
1607.47959	80497.3875
1610.79447	75579.2875
1614.10715	70702.2875
1617.41763	66521.5875
1620.7259	63407.7875
1624.03199	61760.6875
1627.33587	61403.5875
1630.63757	62488.0875
1633.93707	65282.1875
1637.23439	69973.4875
1640.52951	76712.3875
1643.82246	84193.0875
1647.11321	89775.3875
1650.40179	90224.6875
1653.68819	84984.7875
1656.97241	76212.2875
1660.25446	67696.6875
1663.53433	61331.9875
1666.81203	57247.4875
1670.08756	54669.4875
1673.36092	53000.2875
1676.63211	51740.0875
1679.90115	51002.8875
1683.16801	50331.3875
1686.43272	49912.9875
1689.69527	49599.9875
1692.95567	49248.7875
1696.2139	49095.9875
1699.46999	49086.8875
1702.72392	48918.1875
1705.97571	48823.3875
1709.22535	48692.7875
1712.47284	48691.5875
1715.71819	48687.0875
1718.96139	48532.5875
1722.20246	48454.5875
1725.44139	48219.0875
1728.67818	47979.7875
1731.91284	47808.0875
1735.14537	47581.2875
1738.37576	47487.3875
1741.60403	47305.4875
1744.83017	47084.8875
1748.05418	47028.5875
1751.27607	46964.5875
1754.49584	46866.4875
1757.71349	46924.6875
1760.92903	46899.2875
1764.14244	46812.2875
1767.35375	46727.3875
1770.56294	46696.4875
1773.77002	46670.9875
1776.97499	46607.6875
1780.17785	46523.3875
1783.37861	46460.2875
1786.57727	46385.5875
1789.77382	46308.3875
1792.96828	46306.4875
1796.16064	46191.5875
1799.3509	46135.1875
1802.53907	46073.3875
1805.72514	45943.9875
1808.90913	45859.5875
1812.09102	45746.1875
1815.27083	45718.4875
1818.44856	45645.8875
1821.6242	45609.7875
1824.79776	45528.5875
1827.96924	45495.0875
1831.13864	45400.1875
1834.30597	45465.9875
1837.47122	45409.3875
1840.6344	45352.2875
1843.7955	45371.6875
1846.95454	45321.6875
1850.11151	45336.3875
1853.26642	45279.6875
1856.41926	45240.5875
1859.57004	45189.4875
1862.71876	45166.9875
1865.86542	45112.9875
1869.01003	45066.9875
1872.15258	45002.8875
1875.29308	44964.9875
1878.43152	44897.4875
1881.56792	44886.1875
1884.70227	44901.4875
1887.83457	44911.2875
1890.96482	44874.4875
1894.09304	44825.0875
1897.21921	44741.1875
1900.34335	44672.9875
1903.46544	44603.4875
1906.58551	44578.5875
1909.70353	44545.8875
1912.81953	44522.6875
1915.93349	44429.8875
1919.04543	44329.7875
1922.15534	44255.9875
1925.26322	44296.4875
1928.36908	44177.9875
1931.47292	44085.7875
1934.57473	43983.0875
1937.67453	43825.3875
1940.77232	43750.6875
1943.86808	43649.3875
1946.96184	43607.9875
1950.05358	43436.3875
1953.14331	43288.2875
1956.23103	43189.6875
1959.31675	43110.5875
1962.40046	42955.3875
1965.48217	42774.1875
1968.56188	42659.0875
1971.63959	42502.9875
1974.7153	42471.7875
1977.78901	42277.6875
1980.86073	42243.1875
1983.93046	42150.8875
1986.99819	41933.3875
1990.06394	41902.3875
1993.1277	41801.2875
1996.18947	41663.3875
1999.24925	41565.5875
2002.30706	41445.5875
2005.36288	41373.1875
2008.41672	41172.5875
2011.46859	41042.2875
2014.51848	40967.1875
2017.56639	40855.0875
2020.61233	40752.5875
2023.6563	40679.6875
2026.6983	40561.6875
2029.73833	40469.7875
2032.7764	40361.1875
2035.8125	40333.4875
2038.84664	40249.2875
2041.87881	40189.2875
2044.90903	40162.3875
2047.93729	40082.1875
2050.96359	40097.3875
2053.98794	40004.9875
2057.01034	39975.5875
2060.03078	40005.1875
2063.04927	39926.0875
2066.06582	39917.6875
2069.08042	39884.2875
2072.09307	39843.0875
2075.10378	39777.2875
2078.11255	39722.8875
2081.11938	39757.8875
2084.12426	39721.4875
2087.12722	39736.4875
2090.12824	39687.6875
2093.12732	39688.3875
2096.12447	39737.4875
2099.11969	39620.5875
2102.11299	39688.3875
2105.10435	39700.7875
2108.09379	39732.8875
2111.08131	39750.6875
2114.0669	39719.5875
2117.05057	39754.3875
2120.03233	39768.7875
2123.01216	39841.1875
2125.99008	39905.8875
2128.96609	39983.6875
2131.94018	40014.1875
2134.91236	40026.3875
2137.88263	40007.7875
2140.851	40019.2875
2143.81746	40082.5875
2146.78201	40088.0875
2149.74466	40115.6875
2152.7054	40138.1875
2155.66425	40077.4875
2158.6212	40133.3875
2161.57625	40116.9875
2164.52941	40088.1875
2167.48067	40006.9875
2170.43004	40004.0875
2173.37752	40017.1875
2176.32311	40063.9875
2179.26681	40006.1875
2182.20863	39999.9875
2185.14856	40057.2875
2188.08661	40049.0875
2191.02278	40009.4875
2193.95707	39979.1875
2196.88948	39925.9875
2199.82001	39939.4875
2202.74867	39905.5875
2205.67545	39842.5875
2208.60037	39842.8875
2211.52341	39792.9875
2214.44458	39804.8875
2217.36388	39766.9875
2220.28132	39671.0875
2223.1969	39544.3875
2226.11061	39429.0875
2229.02246	39355.0875
2231.93245	39329.9875
2234.84058	39247.1875
2237.74686	39154.2875
2240.65128	39170.0875
2243.55385	39090.2875
2246.45456	39071.5875
2249.35343	39026.5875
2252.25044	38991.5875
2255.14561	38908.9875
2258.03893	38842.3875
2260.93041	38783.3875
2263.82004	38702.5875
2266.70783	38626.9875
2269.59378	38485.7875
2272.4779	38458.6875
2275.36017	38318.0875
2278.24061	38294.3875
2281.11922	38225.4875
2283.996	38154.4875
2286.87094	38141.3875
2289.74405	38101.4875
2292.61534	38011.1875
2295.4848	38013.7875
2298.35243	38025.0875
2301.21824	37978.8875
2304.08223	37933.1875
2306.94439	37955.4875
2309.80474	37985.8875
2312.66327	37956.7875
2315.51999	37947.7875
2318.37489	37903.4875
2321.22797	37879.1875
2324.07925	37826.6875
2326.92871	37740.8875
2329.77637	37716.1875
2332.62222	37637.4875
2335.46626	37666.7875
2338.3085	37639.0875
2341.14893	37570.0875
2343.98756	37583.0875
2346.8244	37523.6875
2349.65943	37536.3875
2352.49267	37565.4875
2355.32411	37527.3875
2358.15376	37469.2875
2360.98161	37490.8875
2363.80768	37433.3875
2366.63195	37408.4875
2369.45444	37366.0875
2372.27514	37354.5875
2375.09405	37305.8875
2377.91118	37227.5875
2380.72652	37114.8875
2383.54009	37026.3875
2386.35187	36993.6875
2389.16188	36852.2875
2391.97011	36798.2875
2394.77657	36735.4875
2397.58125	36700.1875
2400.38416	36599.5875
2403.18529	36606.5875
2405.98466	36568.1875
2408.78226	36464.7875
2411.57809	36437.0875
2414.37216	36372.7875
2417.16446	36360.9875
2419.955	36335.5875
2422.74378	36300.5875
2425.5308	36257.2875
2428.31606	36253.1875
2431.09956	36220.3875
2433.88131	36145.8875
2436.6613	36252.3875
2439.43954	36247.1875
2442.21603	36183.4875
2444.99077	36145.6875
2447.76377	36066.8875
2450.53501	36060.6875
2453.30451	36062.4875
2456.07226	36027.8875
2458.83827	35988.7875
2461.60254	35997.6875
2464.36507	35969.1875
2467.12586	35940.0875
2469.88492	35924.5875
2472.64224	35910.8875
2475.39782	35900.4875
2478.15167	35950.4875
2480.90379	35948.8875
2483.65417	36020.7875
2486.40283	35981.0875
2489.14976	35945.7875
2491.89497	35875.2875
2494.63845	35932.4875
2497.3802	35867.0875
2500.12024	35866.0875
2502.85855	35879.3875
2505.59514	35815.7875
2508.33002	35713.5875
2511.06318	35684.1875
2513.79462	35690.1875
2516.52435	35656.6875
2519.25237	35587.1875
2521.97867	35583.4875
2524.70327	35602.3875
2527.42616	35612.3875
2530.14734	35578.2875
2532.86681	35481.5875
2535.58458	35485.8875
2538.30065	35448.5875
2541.01501	35406.0875
2543.72768	35393.8875
2546.43864	35461.2875
2549.14791	35312.4875
2551.85548	35268.8875
2554.56136	35200.4875
2557.26554	35133.1875
2559.96803	35070.7875
2562.66883	35021.2875
2565.36794	34987.6875
2568.06536	35008.9875
2570.7611	34921.1875
2573.45514	34807.4875
2576.14751	34803.5875
2578.83819	34767.7875
2581.52719	34729.7875
2584.21451	34664.2875
2586.90015	34656.5875
2589.58411	34639.1875
2592.2664	34643.8875
2594.94701	34590.4875
2597.62594	34602.7875
2600.30321	34592.5875
2602.9788	34580.9875
2605.65273	34534.8875
2608.32498	34478.8875
2610.99557	34487.7875
2613.66449	34470.3875
2616.33175	34429.4875
2618.99734	34402.5875
2621.66128	34340.1875
2624.32355	34351.8875
2626.98416	34306.9875
2629.64311	34255.2875
2632.30041	34307.1875
2634.95605	34272.3875
2637.61004	34205.0875
2640.26238	34249.2875
2642.91306	34141.5875
2645.56209	34055.1875
2648.20948	34108.8875
2650.85521	34074.6875
2653.4993	34042.1875
2656.14175	34049.1875
2658.78255	34111.6875
2661.42171	34122.3875
2664.05923	34143.4875
2666.6951	34104.1875
2669.32934	34149.7875
2671.96194	34092.2875
2674.59291	34146.3875
2677.22224	34169.0875
2679.84993	34186.2875
2682.476	34143.0875
2685.10043	34067.9875
2687.72324	34041.4875
2690.34441	34010.4875
2692.96396	34009.4875
2695.58188	34054.9875
2698.19818	34017.8875
2700.81285	33964.4875
2703.4259	33971.2875
2706.03733	34076.0875
2708.64714	34028.1875
2711.25533	34025.9875
2713.86191	34012.5875
2716.46687	34122.8875
2719.07021	34108.7875
2721.67194	34092.8875
2724.27206	34104.2875
2726.87057	34107.5875
2729.46747	34062.0875
2732.06276	34081.8875
2734.65644	34068.5875
2737.24852	34148.5875
2739.83899	34112.0875
2742.42786	34091.1875
2745.01513	34070.0875
2747.60079	34054.0875
2750.18486	33972.5875
2752.76733	33980.2875
2755.3482	33875.4875
2757.92747	33864.8875
2760.50515	33806.9875
2763.08123	33812.4875
2765.65573	33816.8875
2768.22863	33871.3875
2770.79994	33743.6875
2773.36967	33801.1875
2775.9378	33826.5875
2778.50435	33814.9875
2781.06932	33736.2875
2783.6327	33680.1875
2786.1945	33698.2875
2788.75471	33634.2875
2791.31335	33553.8875
2793.87041	33542.8875
2796.42589	33461.6875
2798.97979	33408.2875
2801.53212	33304.1875
2804.08288	33300.6875
2806.63206	33189.6875
2809.17967	33115.3875
2811.72571	33026.4875
2814.27018	32912.6875
2816.81308	32828.1875
2819.35442	32760.9875
2821.89419	32768.9875
2824.43239	32777.9875
2826.96904	32739.2875
2829.50412	32732.6875
2832.03763	32645.2875
2834.56959	32593.6875
2837.1	32486.8875
2839.62884	32446.8875
2842.15613	32426.9875
2844.68186	32454.9875
2847.20604	32369.9875
2849.72867	32379.7875
2852.24974	32331.4875
2854.76927	32246.5875
2857.28724	32287.7875
2859.80367	32285.5875
2862.31855	32225.4875
2864.83189	32169.2875
2867.34368	32105.3875
2869.85393	32112.9875
2872.36264	32106.3875
2874.8698	32100.0875
2877.37543	32023.1875
2879.87952	31954.9875
2882.38207	32005.5875
2884.88308	31988.4875
2887.38256	31964.1875
2889.88051	31991.2875
2892.37692	32027.1875
2894.8718	32012.7875
2897.36515	32042.6875
2899.85698	32043.2875
2902.34727	32086.0875
2904.83604	32078.2875
2907.32328	32160.9875
2909.809	32093.3875
2912.29319	32128.3875
2914.77587	32143.0875
2917.25702	32182.4875
2919.73665	32120.0875
2922.21476	32150.3875
2924.69136	32062.5875
2927.16644	32069.2875
2929.64	31984.0875
2932.11205	31976.8875
2934.58258	31916.2875
2937.05161	31959.8875
2939.51912	31940.7875
2941.98513	31929.7875
2944.44962	31869.2875
2946.91261	31770.2875
2949.37409	31877.6875
2951.83407	31827.7875
2954.29254	31806.9875
2956.74951	31749.2875
2959.20498	31817.5875
2961.65895	31761.3875
2964.11142	31807.3875
2966.56239	31734.7875
2969.01186	31718.6875
2971.45984	31620.1875
2973.90632	31587.3875
2976.35131	31538.5875
2978.7948	31496.2875
2981.23681	31452.2875
2983.67732	31397.8875
2986.11635	31304.0875
2988.55388	31277.3875
2990.98993	31213.1875
2993.4245	31158.3875
2995.85758	31080.5875
2998.28917	30975.0875
3000.71928	30908.8875
3003.14791	30858.8875
3005.57506	30894.1875
3008.00073	30766.5875
3010.42493	30734.3875
3012.84764	30641.2875
3015.26888	30616.4875
3017.68865	30577.7875
3020.10694	30548.9875
3022.52376	30420.4875
3024.9391	30448.6875
3027.35298	30411.6875
3029.76539	30424.3875
3032.17632	30371.7875
3034.5858	30332.6875
3036.9938	30271.3875
3039.40034	30262.3875
3041.80542	30280.9875
3044.20903	30181.8875
3046.61118	30145.2875
3049.01187	30055.0875
3051.4111	30010.5875
3053.80888	29922.6875
3056.20519	29913.5875
3058.60005	29802.9875
3060.99345	29782.4875
3063.3854	29692.1875
3065.7759	29586.2875
3068.16494	29519.0875
3070.55254	29397.4875
3072.93868	29380.7875
3075.32338	29229.9875
3077.70662	29198.8875
3080.08842	29101.1875
3082.46878	29087.5875
3084.84769	29030.6875
3087.22515	29043.2875
3089.60118	28995.9875
3091.97576	28953.2875
3094.3489	28920.9875
3096.72061	28975.5875
3099.09087	28983.7875
3101.4597	28964.4875
3103.82709	28937.4875
3106.19305	28899.7875
3108.55757	28871.7875
3110.92066	28776.5875
3113.28232	28793.5875
3115.64255	28682.0875
3118.00134	28628.4875
3120.35871	28512.1875
3122.71466	28455.9875
3125.06917	28397.4875
3127.42226	28374.6875
3129.77393	28333.1875
3132.12417	28260.5875
3134.47299	28234.0875
3136.82039	28241.4875
3139.16636	28261.8875
3141.51092	28162.1875
3143.85406	28170.7875
3146.19579	28171.5875
3148.53609	28162.8875
3150.87499	28163.4875
3153.21246	28171.8875
3155.54853	28234.5875
3157.88318	28192.3875
3160.21642	28190.7875
3162.54826	28186.8875
3164.87868	28106.9875
3167.2077	28080.7875
3169.5353	28107.8875
3171.86151	28041.9875
3174.18631	28064.1875
3176.5097	27991.2875
3178.83169	27975.5875
3181.15228	27925.5875
3183.47147	27861.2875
3185.78926	27844.0875
3188.10565	27835.7875
3190.42065	27793.7875
3192.73424	27762.5875
3195.04645	27724.2875
3197.35725	27671.9875
3199.66667	27653.4875
3201.97469	27642.4875
3204.28132	27595.9875
3206.58656	27638.1875
3208.8904	27590.0875
3211.19287	27640.0875
3213.49394	27599.5875
3215.79363	27648.7875
3218.09193	27666.3875
3220.38884	27640.4875
3222.68438	27656.0875
3224.97853	27598.9875
3227.2713	27555.5875
3229.56269	27548.8875
3231.8527	27549.5875
3234.14133	27495.7875
3236.42858	27434.5875
3238.71446	27370.5875
3240.99896	27312.5875
3243.28209	27305.6875
3245.56384	27257.3875
3247.84423	27220.8875
3250.12324	27176.4875
3252.40088	27131.3875
3254.67715	27152.3875
3256.95205	27095.8875
3259.22558	27103.7875
3261.49775	27061.2875
3263.76855	27021.6875
3266.03799	26971.6875
3268.30606	26887.5875
3270.57277	26840.5875
3272.83812	26787.7875
3275.10211	26761.0875
3277.36474	26720.3875
3279.62601	26749.8875
3281.88593	26655.5875
3284.14448	26655.5875
3286.40168	26660.4875
3288.65753	26663.8875
3290.91202	26637.9875
3293.16516	26550.8875
3295.41695	26530.9875
3297.66738	26355.5875
3299.91647	26209.2875
3302.16421	26039.6875
3304.4106	25945.3875
3306.65564	25753.5875
3308.89933	25600.5875
3311.14169	25439.5875
3313.38269	25221.9875
3315.62236	25122.3875
3317.86068	24878.8875
3320.09766	24650.0875
3322.3333	24470.5875
3324.5676	24399.1875
3326.80056	24032.1875
3329.03219	23902.5875
3331.26248	5.8875
3333.49143	-0.1125
3335.71905	-0.4125
