Data from AgNPs_FTO_APTES_UA_20uM_CRN_0uM_R6G_10uM_NaF_0.1M_Addition_RamanShift__29__11-23-31-961.txt Node

Date: Thu Feb 17 11:23:31 GMT 2022
User: TCL
Spectrometer: QEP01345
Trigger mode: 4
Integration Time (sec): 7.000000E0
Scans to average: 10
Electric dark correction enabled: true
Nonlinearity correction enabled: false
Boxcar width: 0
XAxis mode: Raman Shifts
Number of Pixels in Spectrum: 1044
>>>>>Begin Spectral Data<<<<<
46.04893	1.1625
50.45542	0.6625
54.85868	-1.2375
59.25871	0.5625
63.6555	48.8625
68.04907	46.6625
72.43941	53.9625
76.82654	52.8625
81.21044	52.6625
85.59113	60.9625
89.96862	58.6625
94.34289	61.3625
98.71396	65.3625
103.08183	66.3625
107.4465	67.5625
111.80798	64.9625
116.16626	68.9625
120.52136	69.6625
124.87327	72.1625
129.222	75.2625
133.56755	78.2625
137.90993	82.8625
142.24913	87.2625
146.58517	98.6625
150.91804	117.5625
155.24774	125.9625
159.57429	160.1625
163.89768	202.2625
168.21792	268.5625
172.53501	362.5625
176.84895	503.9625
181.15975	700.2625
185.46741	982.1625
189.77193	1351.2625
194.07331	1816.0625
198.37157	2335.5625
202.6667	2872.6625
206.9587	3438.6625
211.24758	3989.3625
215.53334	4533.6625
219.81599	5157.9625
224.09553	5831.7625
228.37195	6605.6625
232.64527	7422.6625
236.91549	8244.5625
241.18261	9044.1625
245.44663	9753.6625
249.70755	10362.9625
253.96539	10945.6625
258.22014	11417.8625
262.4718	11810.6625
266.72039	12062.9625
270.96589	12138.5625
275.20832	12008.1625
279.44768	11812.2625
283.68397	11535.2625
287.91719	11379.9625
292.14735	11299.1625
296.37445	11427.0625
300.59849	11722.4625
304.81948	12097.8625
309.03742	12394.9625
313.25231	12491.1625
317.46415	12215.3625
321.67296	11699.0625
325.87872	11233.1625
330.08145	11043.1625
334.28114	11059.9625
338.47781	11215.0625
342.67145	11412.0625
346.86207	11686.0625
351.04966	12123.9625
355.23424	12642.3625
359.4158	13033.4625
363.59435	13271.0625
367.76989	13412.3625
371.94243	13487.3625
376.11196	13504.2625
380.27849	13522.1625
384.44203	13443.1625
388.60257	13347.5625
392.76012	13234.6625
396.91468	13292.9625
401.06626	13545.0625
405.21485	13735.4625
409.36047	13649.2625
413.50311	13182.3625
417.64277	12763.0625
421.77947	12533.2625
425.9132	12501.8625
430.04396	12592.6625
434.17176	12821.3625
438.2966	13162.6625
442.41849	13784.1625
446.53742	14561.3625
450.6534	15373.8625
454.76644	15701.1625
458.87653	15571.1625
462.98368	15004.8625
467.08789	14401.7625
471.18916	13871.8625
475.2875	13367.5625
479.38291	12935.9625
483.4754	12592.6625
487.56496	12381.1625
491.6516	12293.7625
495.73531	12251.7625
499.81612	12272.0625
503.89401	12338.7625
507.96899	12436.2625
512.04106	12513.9625
516.11023	12690.1625
520.1765	12851.3625
524.23987	12946.1625
528.30034	12986.7625
532.35792	12965.3625
536.41261	12815.0625
540.46441	12567.4625
544.51333	12428.6625
548.55936	12485.8625
552.60252	12722.8625
556.64279	13050.8625
560.6802	13279.0625
564.71473	13287.3625
568.7464	13420.2625
572.7752	13584.0625
576.80114	13458.7625
580.82422	13268.4625
584.84444	13418.7625
588.86181	14188.4625
592.87633	15515.5625
596.888	16316.3625
600.89682	15798.1625
604.9028	15927.6625
608.90594	18426.6625
612.90624	21998.3625
616.90371	21149.2625
620.89834	16069.5625
624.89015	13552.1625
628.87913	13058.5625
632.86528	13017.4625
636.84862	12952.1625
640.82913	12709.8625
644.80683	12269.1625
648.78172	11992.6625
652.75379	12042.4625
656.72306	12408.2625
660.68952	12937.5625
664.65319	12866.0625
668.61405	12414.2625
672.57211	12198.3625
676.52738	12214.0625
680.47986	12136.6625
684.42955	12003.4625
688.37646	11982.5625
692.32058	12085.4625
696.26192	12302.7625
700.20048	12537.5625
704.13626	12615.4625
708.06928	12497.2625
711.99952	12352.4625
715.927	12404.3625
719.85171	12527.8625
723.77365	12541.8625
727.69284	12445.3625
731.60928	12362.8625
735.52295	12429.3625
739.43388	12538.9625
743.34206	12543.9625
747.24749	12558.6625
751.15017	12558.3625
755.05012	12674.4625
758.94733	13075.6625
762.8418	13975.1625
766.73354	15540.5625
770.62254	17242.2625
774.50882	18281.7625
778.39237	17995.1625
782.27321	16328.2625
786.15132	14531.5625
790.02671	13412.6625
793.89938	12902.4625
797.76935	12704.3625
801.6366	12618.4625
805.50115	12582.2625
809.36299	12516.0625
813.22213	12441.9625
817.07857	12441.1625
820.93231	12403.0625
824.78336	12446.2625
828.63172	12489.1625
832.47738	12538.5625
836.32036	12582.9625
840.16066	12587.0625
843.99827	12571.6625
847.8332	12487.7625
851.66546	12494.5625
855.49504	12496.9625
859.32195	12477.2625
863.1462	12409.7625
866.96777	12400.7625
870.78668	12362.0625
874.60293	12395.2625
878.41652	12448.3625
882.22745	12536.3625
886.03573	12607.0625
889.84136	12576.5625
893.64433	12541.8625
897.44466	12483.1625
901.24235	12457.7625
905.0374	12387.0625
908.8298	12326.5625
912.61957	12274.2625
916.40671	12335.2625
920.19121	12411.6625
923.97308	12520.3625
927.75233	12671.6625
931.52895	12731.9625
935.30295	12652.9625
939.07433	12424.7625
942.84309	12199.6625
946.60924	12099.3625
950.37278	12046.9625
954.13371	12028.2625
957.89203	11956.0625
961.64774	11919.7625
965.40086	11906.4625
969.15137	11885.7625
972.89929	11876.5625
976.64461	11874.8625
980.38733	11946.9625
984.12747	12010.4625
987.86502	12129.7625
991.59999	12308.4625
995.33237	12544.2625
999.06217	12894.9625
1002.78939	13211.9625
1006.51404	13415.0625
1010.23611	13501.2625
1013.95561	13700.9625
1017.67255	13737.1625
1021.38692	13469.1625
1025.09872	13131.6625
1028.80796	13059.3625
1032.51465	13167.4625
1036.21877	13377.6625
1039.92035	13424.9625
1043.61937	13348.8625
1047.31584	13183.7625
1051.00976	13011.7625
1054.70114	12894.0625
1058.38998	12825.9625
1062.07627	12820.1625
1065.76003	12777.6625
1069.44126	12834.9625
1073.11995	12953.1625
1076.79611	13177.9625
1080.46974	13473.9625
1084.14085	13798.5625
1087.80943	14079.5625
1091.47549	14178.7625
1095.13903	14000.5625
1098.80005	13644.3625
1102.45857	13363.1625
1106.11456	13323.4625
1109.76805	13471.9625
1113.41903	13698.8625
1117.06751	14019.9625
1120.71348	14404.9625
1124.35696	14834.6625
1127.99793	15151.7625
1131.63641	15053.9625
1135.2724	14564.0625
1138.90589	14078.9625
1142.5369	13790.7625
1146.16542	13642.4625
1149.79145	13565.6625
1153.415	13534.8625
1157.03607	13539.2625
1160.65467	13727.8625
1164.27079	14126.9625
1167.88443	14832.8625
1171.49561	15999.7625
1175.10432	17737.9625
1178.71056	20011.8625
1182.31434	22180.0625
1185.91565	23097.1625
1189.51451	22727.1625
1193.11091	21488.4625
1196.70485	19968.7625
1200.29634	18550.4625
1203.88538	17339.4625
1207.47197	16256.8625
1211.05612	15505.0625
1214.63782	15225.4625
1218.21708	15410.6625
1221.79391	15730.3625
1225.36829	15919.0625
1228.94024	15724.9625
1232.50976	15252.3625
1236.07685	14964.5625
1239.6415	14969.4625
1243.20374	15054.6625
1246.76355	15100.3625
1250.32093	15200.6625
1253.8759	15537.8625
1257.42845	16090.7625
1260.97859	16692.3625
1264.52631	17362.1625
1268.07163	17944.4625
1271.61453	18309.5625
1275.15503	18498.2625
1278.69312	18581.4625
1282.22882	18774.1625
1285.76211	19282.3625
1289.29301	20038.9625
1292.82151	20920.5625
1296.34761	21807.4625
1299.87133	22878.2625
1303.39266	24503.5625
1306.9116	26816.9625
1310.42815	29636.8625
1313.94233	31537.4625
1317.45412	31162.5625
1320.96354	28981.6625
1324.47058	26320.3625
1327.97525	23922.0625
1331.47754	22488.7625
1334.97747	22149.8625
1338.47502	22485.0625
1341.97022	22835.4625
1345.46305	23107.1625
1348.95352	23968.3625
1352.44163	25785.5625
1355.92738	28502.7625
1359.41078	32059.0625
1362.89183	35043.1625
1366.37053	34361.4625
1369.84688	29935.6625
1373.32088	25038.9625
1376.79254	22157.4625
1380.26186	20872.0625
1383.72883	20299.8625
1387.19347	19502.5625
1390.65578	18524.1625
1394.11575	17890.0625
1397.57339	17753.0625
1401.0287	17877.4625
1404.48168	18119.8625
1407.93234	18319.1625
1411.38068	18450.7625
1414.82669	18428.9625
1418.27039	18109.6625
1421.71177	17702.4625
1425.15083	17372.9625
1428.58758	17392.8625
1432.02203	17834.5625
1435.45416	18306.6625
1438.88399	18566.2625
1442.31151	18588.6625
1445.73673	18552.6625
1449.15965	18494.2625
1452.58027	18256.5625
1455.9986	17731.2625
1459.41463	17522.3625
1462.82837	17700.8625
1466.23982	18269.1625
1469.64898	18940.9625
1473.05586	19539.4625
1476.46045	20000.3625
1479.86276	20465.6625
1483.26279	20748.7625
1486.66054	20918.7625
1490.05602	21111.6625
1493.44922	21246.9625
1496.84016	21403.6625
1500.22882	21999.5625
1503.61521	23372.8625
1506.99934	25270.6625
1510.38121	27078.6625
1513.76081	27703.3625
1517.13816	26286.5625
1520.51324	23712.1625
1523.88607	21305.9625
1527.25665	19947.2625
1530.62498	19416.1625
1533.99105	19216.8625
1537.35488	19053.8625
1540.71647	18888.9625
1544.07581	18677.0625
1547.4329	18397.7625
1550.78776	17992.5625
1554.14038	17564.3625
1557.49077	17269.1625
1560.83892	17155.6625
1564.18484	17357.3625
1567.52853	17719.0625
1570.86999	18258.7625
1574.20922	18652.7625
1577.54624	18742.7625
1580.88103	18211.4625
1584.2136	17445.3625
1587.54395	17269.8625
1590.87208	17980.6625
1594.19801	19607.1625
1597.52172	21877.3625
1600.84321	23567.8625
1604.16251	23446.3625
1607.47959	21532.1625
1610.79447	18981.7625
1614.10715	16728.1625
1617.41763	15296.5625
1620.7259	14504.7625
1624.03199	14200.5625
1627.33587	14267.2625
1630.63757	14631.5625
1633.93707	15436.3625
1637.23439	16884.6625
1640.52951	19193.5625
1643.82246	22272.8625
1647.11321	25179.1625
1650.40179	26185.0625
1653.68819	24200.7625
1656.97241	20535.8625
1660.25446	17147.3625
1663.53433	14969.6625
1666.81203	13724.1625
1670.08756	13042.5625
1673.36092	12649.7625
1676.63211	12395.2625
1679.90115	12195.1625
1683.16801	12025.6625
1686.43272	11952.9625
1689.69527	11858.2625
1692.95567	11814.9625
1696.2139	11790.1625
1699.46999	11793.3625
1702.72392	11766.6625
1705.97571	11754.8625
1709.22535	11662.6625
1712.47284	11701.0625
1715.71819	11720.3625
1718.96139	11736.4625
1722.20246	11719.9625
1725.44139	11633.5625
1728.67818	11572.7625
1731.91284	11514.1625
1735.14537	11460.0625
1738.37576	11355.9625
1741.60403	11368.1625
1744.83017	11340.5625
1748.05418	11306.2625
1751.27607	11294.0625
1754.49584	11289.3625
1757.71349	11270.3625
1760.92903	11281.2625
1764.14244	11263.4625
1767.35375	11254.9625
1770.56294	11206.8625
1773.77002	11246.6625
1776.97499	11192.8625
1780.17785	11190.8625
1783.37861	11156.4625
1786.57727	11129.0625
1789.77382	11122.9625
1792.96828	11117.4625
1796.16064	11107.3625
1799.3509	11091.6625
1802.53907	11070.0625
1805.72514	11051.0625
1808.90913	11018.9625
1812.09102	11001.5625
1815.27083	11001.3625
1818.44856	10961.1625
1821.6242	10922.4625
1824.79776	10920.2625
1827.96924	10900.6625
1831.13864	10921.4625
1834.30597	10880.7625
1837.47122	10870.5625
1840.6344	10824.6625
1843.7955	10861.4625
1846.95454	10819.5625
1850.11151	10835.6625
1853.26642	10846.3625
1856.41926	10814.1625
1859.57004	10851.9625
1862.71876	10821.7625
1865.86542	10808.7625
1869.01003	10801.4625
1872.15258	10798.4625
1875.29308	10808.5625
1878.43152	10788.2625
1881.56792	10783.9625
1884.70227	10784.9625
1887.83457	10790.9625
1890.96482	10798.3625
1894.09304	10767.0625
1897.21921	10772.8625
1900.34335	10749.9625
1903.46544	10764.1625
1906.58551	10756.6625
1909.70353	10754.1625
1912.81953	10743.7625
1915.93349	10743.6625
1919.04543	10732.6625
1922.15534	10708.2625
1925.26322	10686.7625
1928.36908	10670.6625
1931.47292	10662.4625
1934.57473	10627.5625
1937.67453	10626.4625
1940.77232	10573.1625
1943.86808	10544.6625
1946.96184	10532.2625
1950.05358	10508.9625
1953.14331	10469.4625
1956.23103	10431.4625
1959.31675	10442.9625
1962.40046	10399.2625
1965.48217	10351.8625
1968.56188	10350.8625
1971.63959	10327.3625
1974.7153	10333.9625
1977.78901	10270.0625
1980.86073	10260.7625
1983.93046	10201.6625
1986.99819	10183.2625
1990.06394	10144.3625
1993.1277	10155.2625
1996.18947	10114.8625
1999.24925	10083.9625
2002.30706	10032.2625
2005.36288	10015.1625
2008.41672	9986.6625
2011.46859	9962.7625
2014.51848	9939.9625
2017.56639	9891.3625
2020.61233	9900.0625
2023.6563	9854.7625
2026.6983	9844.4625
2029.73833	9798.1625
2032.7764	9789.0625
2035.8125	9786.8625
2038.84664	9770.5625
2041.87881	9766.8625
2044.90903	9743.3625
2047.93729	9726.0625
2050.96359	9735.8625
2053.98794	9705.2625
2057.01034	9739.5625
2060.03078	9734.2625
2063.04927	9695.6625
2066.06582	9741.7625
2069.08042	9715.1625
2072.09307	9683.1625
2075.10378	9665.2625
2078.11255	9666.5625
2081.11938	9638.8625
2084.12426	9659.8625
2087.12722	9641.0625
2090.12824	9652.1625
2093.12732	9662.9625
2096.12447	9694.8625
2099.11969	9664.9625
2102.11299	9661.2625
2105.10435	9659.8625
2108.09379	9682.7625
2111.08131	9699.1625
2114.0669	9690.1625
2117.05057	9655.9625
2120.03233	9670.8625
2123.01216	9695.3625
2125.99008	9708.3625
2128.96609	9707.4625
2131.94018	9722.6625
2134.91236	9728.7625
2137.88263	9757.1625
2140.851	9757.1625
2143.81746	9760.0625
2146.78201	9753.5625
2149.74466	9792.5625
2152.7054	9799.1625
2155.66425	9777.2625
2158.6212	9786.5625
2161.57625	9779.9625
2164.52941	9774.4625
2167.48067	9730.1625
2170.43004	9755.1625
2173.37752	9737.4625
2176.32311	9758.8625
2179.26681	9791.3625
2182.20863	9775.0625
2185.14856	9762.0625
2188.08661	9775.2625
2191.02278	9752.5625
2193.95707	9759.8625
2196.88948	9769.2625
2199.82001	9735.9625
2202.74867	9764.8625
2205.67545	9761.9625
2208.60037	9740.1625
2211.52341	9723.2625
2214.44458	9705.4625
2217.36388	9717.6625
2220.28132	9676.4625
2223.1969	9656.3625
2226.11061	9623.3625
2229.02246	9610.4625
2231.93245	9602.4625
2234.84058	9575.4625
2237.74686	9579.8625
2240.65128	9579.5625
2243.55385	9552.6625
2246.45456	9558.1625
2249.35343	9533.5625
2252.25044	9540.1625
2255.14561	9513.2625
2258.03893	9515.8625
2260.93041	9478.5625
2263.82004	9491.0625
2266.70783	9463.5625
2269.59378	9462.1625
2272.4779	9415.8625
2275.36017	9394.1625
2278.24061	9397.7625
2281.11922	9372.8625
2283.996	9352.0625
2286.87094	9339.4625
2289.74405	9316.5625
2292.61534	9326.0625
2295.4848	9315.3625
2298.35243	9308.0625
2301.21824	9285.0625
2304.08223	9278.1625
2306.94439	9282.6625
2309.80474	9300.2625
2312.66327	9296.9625
2315.51999	9304.8625
2318.37489	9305.4625
2321.22797	9254.5625
2324.07925	9276.7625
2326.92871	9267.9625
2329.77637	9261.5625
2332.62222	9225.1625
2335.46626	9231.4625
2338.3085	9220.8625
2341.14893	9218.1625
2343.98756	9221.9625
2346.8244	9230.6625
2349.65943	9235.9625
2352.49267	9212.7625
2355.32411	9224.8625
2358.15376	9213.4625
2360.98161	9218.6625
2363.80768	9218.9625
2366.63195	9206.5625
2369.45444	9227.8625
2372.27514	9206.1625
2375.09405	9208.1625
2377.91118	9185.1625
2380.72652	9155.4625
2383.54009	9121.4625
2386.35187	9107.7625
2389.16188	9069.6625
2391.97011	9071.1625
2394.77657	9052.6625
2397.58125	9029.6625
2400.38416	9004.4625
2403.18529	8959.8625
2405.98466	8953.7625
2408.78226	8950.8625
2411.57809	8928.3625
2414.37216	8913.7625
2417.16446	8916.5625
2419.955	8896.3625
2422.74378	8903.5625
2425.5308	8902.5625
2428.31606	8883.2625
2431.09956	8898.4625
2433.88131	8911.4625
2436.6613	8911.8625
2439.43954	8904.6625
2442.21603	8905.7625
2444.99077	8898.2625
2447.76377	8899.2625
2450.53501	8878.2625
2453.30451	8891.3625
2456.07226	8875.4625
2458.83827	8875.4625
2461.60254	8870.2625
2464.36507	8868.2625
2467.12586	8849.1625
2469.88492	8833.5625
2472.64224	8857.9625
2475.39782	8871.9625
2478.15167	8876.4625
2480.90379	8875.2625
2483.65417	8880.3625
2486.40283	8887.1625
2489.14976	8918.7625
2491.89497	8891.3625
2494.63845	8893.5625
2497.3802	8899.7625
2500.12024	8903.2625
2502.85855	8867.5625
2505.59514	8857.5625
2508.33002	8820.6625
2511.06318	8834.5625
2513.79462	8785.8625
2516.52435	8797.5625
2519.25237	8765.0625
2521.97867	8752.6625
2524.70327	8743.3625
2527.42616	8734.2625
2530.14734	8719.8625
2532.86681	8703.3625
2535.58458	8701.2625
2538.30065	8699.1625
2541.01501	8715.7625
2543.72768	8721.5625
2546.43864	8697.7625
2549.14791	8661.0625
2551.85548	8655.9625
2554.56136	8662.5625
2557.26554	8641.4625
2559.96803	8645.0625
2562.66883	8635.1625
2565.36794	8613.9625
2568.06536	8621.0625
2570.7611	8595.8625
2573.45514	8576.0625
2576.14751	8573.7625
2578.83819	8554.3625
2581.52719	8560.7625
2584.21451	8562.7625
2586.90015	8538.6625
2589.58411	8522.2625
2592.2664	8502.2625
2594.94701	8504.9625
2597.62594	8515.1625
2600.30321	8495.7625
2602.9788	8481.3625
2605.65273	8471.4625
2608.32498	8491.8625
2610.99557	8470.2625
2613.66449	8458.0625
2616.33175	8458.2625
2618.99734	8466.6625
2621.66128	8449.2625
2624.32355	8435.4625
2626.98416	8452.1625
2629.64311	8435.2625
2632.30041	8439.9625
2634.95605	8414.0625
2637.61004	8402.2625
2640.26238	8371.3625
2642.91306	8379.0625
2645.56209	8345.1625
2648.20948	8384.7625
2650.85521	8366.5625
2653.4993	8394.9625
2656.14175	8402.8625
2658.78255	8379.0625
2661.42171	8384.0625
2664.05923	8396.7625
2666.6951	8405.1625
2669.32934	8378.7625
2671.96194	8412.9625
2674.59291	8416.4625
2677.22224	8421.2625
2679.84993	8429.0625
2682.476	8411.5625
2685.10043	8395.5625
2687.72324	8377.8625
2690.34441	8402.8625
2692.96396	8386.0625
2695.58188	8403.1625
2698.19818	8376.5625
2700.81285	8401.1625
2703.4259	8399.7625
2706.03733	8400.7625
2708.64714	8379.9625
2711.25533	8414.9625
2713.86191	8413.1625
2716.46687	8444.2625
2719.07021	8436.2625
2721.67194	8469.5625
2724.27206	8446.3625
2726.87057	8437.8625
2729.46747	8440.3625
2732.06276	8437.6625
2734.65644	8422.7625
2737.24852	8420.7625
2739.83899	8413.3625
2742.42786	8434.7625
2745.01513	8397.7625
2747.60079	8390.1625
2750.18486	8387.2625
2752.76733	8394.0625
2755.3482	8370.1625
2757.92747	8356.3625
2760.50515	8362.1625
2763.08123	8348.0625
2765.65573	8342.3625
2768.22863	8339.3625
2770.79994	8313.5625
2773.36967	8319.1625
2775.9378	8321.2625
2778.50435	8332.9625
2781.06932	8328.0625
2783.6327	8334.9625
2786.1945	8341.0625
2788.75471	8328.5625
2791.31335	8316.8625
2793.87041	8293.3625
2796.42589	8295.1625
2798.97979	8272.2625
2801.53212	8280.6625
2804.08288	8245.8625
2806.63206	8248.7625
2809.17967	8222.7625
2811.72571	8209.6625
2814.27018	8191.9625
2816.81308	8190.3625
2819.35442	8182.8625
2821.89419	8181.4625
2824.43239	8198.0625
2826.96904	8209.7625
2829.50412	8219.0625
2832.03763	8207.0625
2834.56959	8183.6625
2837.1	8205.0625
2839.62884	8222.1625
2842.15613	8218.4625
2844.68186	8292.5625
2847.20604	8295.1625
2849.72867	8334.2625
2852.24974	8328.5625
2854.76927	8319.9625
2857.28724	8305.1625
2859.80367	8322.4625
2862.31855	8284.6625
2864.83189	8305.7625
2867.34368	8287.2625
2869.85393	8272.0625
2872.36264	8253.3625
2874.8698	8244.1625
2877.37543	8241.5625
2879.87952	8229.0625
2882.38207	8223.4625
2884.88308	8254.8625
2887.38256	8254.8625
2889.88051	8221.5625
2892.37692	8254.9625
2894.8718	8265.0625
2897.36515	8273.3625
2899.85698	8255.1625
2902.34727	8281.2625
2904.83604	8264.4625
2907.32328	8279.5625
2909.809	8291.4625
2912.29319	8311.1625
2914.77587	8308.5625
2917.25702	8307.9625
2919.73665	8299.9625
2922.21476	8296.8625
2924.69136	8263.5625
2927.16644	8272.2625
2929.64	8264.7625
2932.11205	8233.7625
2934.58258	8221.8625
2937.05161	8220.3625
2939.51912	8205.1625
2941.98513	8177.0625
2944.44962	8131.1625
2946.91261	8082.0625
2949.37409	8084.9625
2951.83407	8074.0625
2954.29254	8052.7625
2956.74951	8037.2625
2959.20498	8053.3625
2961.65895	8036.4625
2964.11142	8027.2625
2966.56239	8016.7625
2969.01186	8014.6625
2971.45984	7965.5625
2973.90632	7953.2625
2976.35131	7943.1625
2978.7948	7927.2625
2981.23681	7902.9625
2983.67732	7887.5625
2986.11635	7868.7625
2988.55388	7854.9625
2990.98993	7813.0625
2993.4245	7817.3625
2995.85758	7791.3625
2998.28917	7791.3625
3000.71928	7741.8625
3003.14791	7721.8625
3005.57506	7753.8625
3008.00073	7714.9625
3010.42493	7720.6625
3012.84764	7711.5625
3015.26888	7722.8625
3017.68865	7695.2625
3020.10694	7710.6625
3022.52376	7694.4625
3024.9391	7660.9625
3027.35298	7656.8625
3029.76539	7643.0625
3032.17632	7647.8625
3034.5858	7638.1625
3036.9938	7617.3625
3039.40034	7603.0625
3041.80542	7599.3625
3044.20903	7605.7625
3046.61118	7591.0625
3049.01187	7575.3625
3051.4111	7587.9625
3053.80888	7561.0625
3056.20519	7572.3625
3058.60005	7561.4625
3060.99345	7548.6625
3063.3854	7520.5625
3065.7759	7548.9625
3068.16494	7516.4625
3070.55254	7497.7625
3072.93868	7485.4625
3075.32338	7472.8625
3077.70662	7461.2625
3080.08842	7424.0625
3082.46878	7413.0625
3084.84769	7376.4625
3087.22515	7384.6625
3089.60118	7411.4625
3091.97576	7387.7625
3094.3489	7396.6625
3096.72061	7386.4625
3099.09087	7387.7625
3101.4597	7366.2625
3103.82709	7386.9625
3106.19305	7374.1625
3108.55757	7367.0625
3110.92066	7361.9625
3113.28232	7346.1625
3115.64255	7339.8625
3118.00134	7320.3625
3120.35871	7304.1625
3122.71466	7296.5625
3125.06917	7288.9625
3127.42226	7278.4625
3129.77393	7311.4625
3132.12417	7293.3625
3134.47299	7277.7625
3136.82039	7290.6625
3139.16636	7284.4625
3141.51092	7278.0625
3143.85406	7283.8625
3146.19579	7296.0625
3148.53609	7278.2625
3150.87499	7292.0625
3153.21246	7298.0625
3155.54853	7313.8625
3157.88318	7307.1625
3160.21642	7303.0625
3162.54826	7297.0625
3164.87868	7312.2625
3167.2077	7292.6625
3169.5353	7326.9625
3171.86151	7324.3625
3174.18631	7325.1625
3176.5097	7321.1625
3178.83169	7315.1625
3181.15228	7320.9625
3183.47147	7280.1625
3185.78926	7297.9625
3188.10565	7264.1625
3190.42065	7278.2625
3192.73424	7275.7625
3195.04645	7265.6625
3197.35725	7288.0625
3199.66667	7268.6625
3201.97469	7291.7625
3204.28132	7310.4625
3206.58656	7282.9625
3208.8904	7307.5625
3211.19287	7306.1625
3213.49394	7305.6625
3215.79363	7299.4625
3218.09193	7335.3625
3220.38884	7332.0625
3222.68438	7345.6625
3224.97853	7321.0625
3227.2713	7316.7625
3229.56269	7295.1625
3231.8527	7296.4625
3234.14133	7295.6625
3236.42858	7277.0625
3238.71446	7272.1625
3240.99896	7256.0625
3243.28209	7287.5625
3245.56384	7272.4625
3247.84423	7269.1625
3250.12324	7270.3625
3252.40088	7251.6625
3254.67715	7257.8625
3256.95205	7240.0625
3259.22558	7239.3625
3261.49775	7234.6625
3263.76855	7230.3625
3266.03799	7201.2625
3268.30606	7195.0625
3270.57277	7184.8625
3272.83812	7202.1625
3275.10211	7202.5625
3277.36474	7192.9625
3279.62601	7192.7625
3281.88593	7172.1625
3284.14448	7176.1625
3286.40168	7177.5625
3288.65753	7177.4625
3290.91202	7159.0625
3293.16516	7176.5625
3295.41695	7141.7625
3297.66738	7134.2625
3299.91647	7097.1625
3302.16421	7041.2625
3304.4106	7000.5625
3306.65564	6957.0625
3308.89933	6938.8625
3311.14169	6874.2625
3313.38269	6843.1625
3315.62236	6802.3625
3317.86068	6737.4625
3320.09766	6691.8625
3322.3333	6635.9625
3324.5676	6606.8625
3326.80056	6505.7625
3329.03219	6461.6625
3331.26248	0.8625
3333.49143	-0.6375
3335.71905	-0.0375
