Data from AgNPs_FTO_APTES_UA_20uM_CRN_0uM_R6G_10uM_NaF_0.1M_Addition_RamanShift__10__11-01-21-932.txt Node

Date: Thu Feb 17 11:01:21 GMT 2022
User: TCL
Spectrometer: QEP01345
Trigger mode: 4
Integration Time (sec): 7.000000E0
Scans to average: 10
Electric dark correction enabled: true
Nonlinearity correction enabled: false
Boxcar width: 0
XAxis mode: Raman Shifts
Number of Pixels in Spectrum: 1044
>>>>>Begin Spectral Data<<<<<
46.04893	-0.0125
50.45542	0.4875
54.85868	-0.5125
59.25871	0.8875
63.6555	39.3875
68.04907	35.6875
72.43941	44.3875
76.82654	39.4875
81.21044	42.6875
85.59113	48.0875
89.96862	50.5875
94.34289	50.9875
98.71396	51.2875
103.08183	53.8875
107.4465	52.7875
111.80798	54.7875
116.16626	58.1875
120.52136	59.7875
124.87327	62.3875
129.222	63.5875
133.56755	71.1875
137.90993	71.1875
142.24913	76.5875
146.58517	86.4875
150.91804	105.3875
155.24774	119.7875
159.57429	151.4875
163.89768	193.4875
168.21792	261.2875
172.53501	354.7875
176.84895	494.8875
181.15975	705.9875
185.46741	995.1875
189.77193	1366.5875
194.07331	1859.0875
198.37157	2402.1875
202.6667	2980.8875
206.9587	3567.8875
211.24758	4151.9875
215.53334	4747.3875
219.81599	5376.9875
224.09553	6066.7875
228.37195	6843.1875
232.64527	7652.5875
236.91549	8496.3875
241.18261	9283.6875
245.44663	9991.7875
249.70755	10626.5875
253.96539	11127.4875
258.22014	11523.2875
262.4718	11885.7875
266.72039	12118.9875
270.96589	12200.3875
275.20832	12115.3875
279.44768	11929.4875
283.68397	11718.8875
287.91719	11525.2875
292.14735	11440.8875
296.37445	11469.6875
300.59849	11632.9875
304.81948	11956.9875
309.03742	12230.5875
313.25231	12318.6875
317.46415	12099.0875
321.67296	11519.0875
325.87872	10897.5875
330.08145	10534.2875
334.28114	10425.6875
338.47781	10495.3875
342.67145	10698.0875
346.86207	11019.8875
351.04966	11438.7875
355.23424	11914.3875
359.4158	12219.3875
363.59435	12293.5875
367.76989	12253.5875
371.94243	12145.8875
376.11196	12008.3875
380.27849	11924.8875
384.44203	11852.6875
388.60257	11788.0875
392.76012	11869.9875
396.91468	12028.1875
401.06626	12276.1875
405.21485	12402.7875
409.36047	12202.9875
413.50311	11762.5875
417.64277	11357.3875
421.77947	11195.4875
425.9132	11141.2875
430.04396	11174.1875
434.17176	11189.6875
438.2966	11195.3875
442.41849	11291.6875
446.53742	11501.6875
450.6534	11676.9875
454.76644	11748.8875
458.87653	11731.3875
462.98368	11664.8875
467.08789	11585.1875
471.18916	11438.9875
475.2875	11257.1875
479.38291	11068.3875
483.4754	10935.8875
487.56496	10849.7875
491.6516	10803.4875
495.73531	10792.2875
499.81612	10800.6875
503.89401	10884.0875
507.96899	10964.9875
512.04106	11099.1875
516.11023	11182.7875
520.1765	11187.9875
524.23987	11177.0875
528.30034	11096.3875
532.35792	10988.6875
536.41261	10821.1875
540.46441	10652.5875
544.51333	10565.1875
548.55936	10613.1875
552.60252	10827.5875
556.64279	11044.6875
560.6802	11216.2875
564.71473	11355.3875
568.7464	11673.3875
572.7752	11927.4875
576.80114	11925.5875
580.82422	11922.0875
584.84444	12049.6875
588.86181	12287.0875
592.87633	12492.7875
596.888	12574.4875
600.89682	12460.2875
604.9028	12987.6875
608.90594	15267.6875
612.90624	18599.8875
616.90371	18275.5875
620.89834	13771.3875
624.89015	11336.6875
628.87913	10869.3875
632.86528	10998.5875
636.84862	11201.5875
640.82913	11020.9875
644.80683	10588.4875
648.78172	10287.6875
652.75379	10285.1875
656.72306	10539.8875
660.68952	10907.4875
664.65319	10855.1875
668.61405	10385.9875
672.57211	10182.1875
676.52738	10159.9875
680.47986	10177.3875
684.42955	10094.5875
688.37646	10086.2875
692.32058	10081.0875
696.26192	10149.3875
700.20048	10268.7875
704.13626	10339.0875
708.06928	10361.6875
711.99952	10305.5875
715.927	10267.8875
719.85171	10253.1875
723.77365	10261.6875
727.69284	10148.7875
731.60928	10014.2875
735.52295	9963.6875
739.43388	9971.8875
743.34206	9997.6875
747.24749	10022.6875
751.15017	10125.9875
755.05012	10284.8875
758.94733	10685.2875
762.8418	11643.4875
766.73354	13308.0875
770.62254	14849.3875
774.50882	15258.1875
778.39237	14477.9875
782.27321	13162.8875
786.15132	11719.0875
790.02671	10780.0875
793.89938	10277.2875
797.76935	10094.0875
801.6366	9960.6875
805.50115	9894.8875
809.36299	9826.9875
813.22213	9739.0875
817.07857	9681.1875
820.93231	9659.6875
824.78336	9652.6875
828.63172	9663.8875
832.47738	9660.5875
836.32036	9641.4875
840.16066	9601.4875
843.99827	9563.0875
847.8332	9565.3875
851.66546	9580.6875
855.49504	9561.8875
859.32195	9579.9875
863.1462	9586.2875
866.96777	9562.3875
870.78668	9533.9875
874.60293	9556.2875
878.41652	9589.2875
882.22745	9619.6875
886.03573	9689.9875
889.84136	9740.3875
893.64433	9714.9875
897.44466	9711.7875
901.24235	9761.5875
905.0374	9730.2875
908.8298	9678.3875
912.61957	9664.3875
916.40671	9695.0875
920.19121	9772.8875
923.97308	9870.3875
927.75233	10007.2875
931.52895	10038.2875
935.30295	9896.0875
939.07433	9629.5875
942.84309	9398.4875
946.60924	9257.3875
950.37278	9168.7875
954.13371	9125.7875
957.89203	9100.7875
961.64774	9060.4875
965.40086	9014.5875
969.15137	9008.7875
972.89929	8973.6875
976.64461	8918.3875
980.38733	8916.9875
984.12747	8872.8875
987.86502	8883.9875
991.59999	8937.0875
995.33237	9029.8875
999.06217	9099.4875
1002.78939	9250.6875
1006.51404	9446.8875
1010.23611	9633.9875
1013.95561	9743.4875
1017.67255	9717.4875
1021.38692	9609.7875
1025.09872	9456.2875
1028.80796	9307.9875
1032.51465	9256.7875
1036.21877	9244.3875
1039.92035	9261.3875
1043.61937	9322.5875
1047.31584	9387.4875
1051.00976	9435.3875
1054.70114	9451.2875
1058.38998	9451.9875
1062.07627	9445.7875
1065.76003	9469.9875
1069.44126	9536.5875
1073.11995	9650.4875
1076.79611	9833.5875
1080.46974	9995.6875
1084.14085	10225.9875
1087.80943	10514.4875
1091.47549	10626.5875
1095.13903	10472.6875
1098.80005	10153.3875
1102.45857	9842.2875
1106.11456	9646.1875
1109.76805	9602.3875
1113.41903	9675.5875
1117.06751	9835.8875
1120.71348	10173.6875
1124.35696	10573.0875
1127.99793	10993.6875
1131.63641	11047.9875
1135.2724	10688.2875
1138.90589	10245.0875
1142.5369	10007.5875
1146.16542	9852.8875
1149.79145	9782.4875
1153.415	9753.9875
1157.03607	9842.1875
1160.65467	10106.4875
1164.27079	10562.5875
1167.88443	11196.0875
1171.49561	12027.7875
1175.10432	13219.8875
1178.71056	14819.2875
1182.31434	16179.9875
1185.91565	16714.8875
1189.51451	16514.9875
1193.11091	15870.4875
1196.70485	14875.1875
1200.29634	13889.1875
1203.88538	13063.4875
1207.47197	12342.9875
1211.05612	11728.1875
1214.63782	11307.7875
1218.21708	11030.1875
1221.79391	10880.0875
1225.36829	10788.3875
1228.94024	10806.2875
1232.50976	10804.0875
1236.07685	10776.1875
1239.6415	10740.1875
1243.20374	10678.6875
1246.76355	10681.2875
1250.32093	10713.1875
1253.8759	10874.2875
1257.42845	11168.5875
1260.97859	11619.5875
1264.52631	12118.8875
1268.07163	12544.6875
1271.61453	12914.4875
1275.15503	13198.4875
1278.69312	13410.5875
1282.22882	13599.6875
1285.76211	13984.9875
1289.29301	14509.6875
1292.82151	15095.9875
1296.34761	15714.6875
1299.87133	16490.2875
1303.39266	17656.4875
1306.9116	19239.3875
1310.42815	21107.5875
1313.94233	22142.1875
1317.45412	21617.2875
1320.96354	20197.3875
1324.47058	18803.6875
1327.97525	17684.1875
1331.47754	16967.3875
1334.97747	16597.6875
1338.47502	16508.5875
1341.97022	16719.6875
1345.46305	17386.3875
1348.95352	18368.2875
1352.44163	19418.9875
1355.92738	20576.5875
1359.41078	22450.3875
1362.89183	24714.1875
1366.37053	24679.7875
1369.84688	21398.9875
1373.32088	17493.6875
1376.79254	15025.9875
1380.26186	13889.5875
1383.72883	13258.5875
1387.19347	12755.7875
1390.65578	12338.0875
1394.11575	12127.1875
1397.57339	12094.5875
1401.0287	12158.0875
1404.48168	12178.4875
1407.93234	12096.3875
1411.38068	11911.8875
1414.82669	11702.3875
1418.27039	11524.7875
1421.71177	11326.9875
1425.15083	11111.3875
1428.58758	10968.8875
1432.02203	11082.9875
1435.45416	11318.0875
1438.88399	11502.2875
1442.31151	11563.0875
1445.73673	11609.4875
1449.15965	11652.1875
1452.58027	11722.0875
1455.9986	11751.5875
1459.41463	11831.4875
1462.82837	11981.8875
1466.23982	12127.4875
1469.64898	12367.8875
1473.05586	12499.8875
1476.46045	12546.4875
1479.86276	12612.9875
1483.26279	12723.7875
1486.66054	12982.2875
1490.05602	13451.9875
1493.44922	14157.1875
1496.84016	15219.3875
1500.22882	16745.0875
1503.61521	18683.8875
1506.99934	20908.4875
1510.38121	22901.9875
1513.76081	23552.3875
1517.13816	22207.4875
1520.51324	19593.1875
1523.88607	17103.4875
1527.25665	15424.0875
1530.62498	14428.1875
1533.99105	13760.6875
1537.35488	13238.4875
1540.71647	12785.2875
1544.07581	12432.1875
1547.4329	12182.3875
1550.78776	12081.2875
1554.14038	12050.1875
1557.49077	12192.9875
1560.83892	12431.1875
1564.18484	12755.3875
1567.52853	13175.6875
1570.86999	13547.5875
1574.20922	13748.8875
1577.54624	13758.2875
1580.88103	13212.4875
1584.2136	12383.5875
1587.54395	11946.8875
1590.87208	12015.8875
1594.19801	12512.7875
1597.52172	13159.6875
1600.84321	13362.8875
1604.16251	12840.8875
1607.47959	12119.0875
1610.79447	11418.7875
1614.10715	10718.5875
1617.41763	10021.1875
1620.7259	9468.9875
1624.03199	9189.7875
1627.33587	9211.0875
1630.63757	9443.9875
1633.93707	10083.5875
1637.23439	11143.1875
1640.52951	12744.0875
1643.82246	14788.0875
1647.11321	16855.1875
1650.40179	18063.6875
1653.68819	17305.8875
1656.97241	14823.8875
1660.25446	12068.2875
1663.53433	10111.4875
1666.81203	8898.5875
1670.08756	8236.0875
1673.36092	7834.5875
1676.63211	7584.9875
1679.90115	7440.5875
1683.16801	7298.3875
1686.43272	7187.3875
1689.69527	7158.2875
1692.95567	7064.8875
1696.2139	7034.8875
1699.46999	7002.9875
1702.72392	6985.8875
1705.97571	6956.5875
1709.22535	6894.9875
1712.47284	6917.8875
1715.71819	6965.4875
1718.96139	6951.4875
1722.20246	6933.9875
1725.44139	6901.9875
1728.67818	6864.5875
1731.91284	6836.3875
1735.14537	6792.6875
1738.37576	6734.0875
1741.60403	6766.4875
1744.83017	6770.4875
1748.05418	6790.6875
1751.27607	6788.2875
1754.49584	6827.9875
1757.71349	6827.5875
1760.92903	6878.0875
1764.14244	6908.0875
1767.35375	6913.0875
1770.56294	6930.6875
1773.77002	6954.3875
1776.97499	6944.5875
1780.17785	6943.6875
1783.37861	6925.2875
1786.57727	6887.3875
1789.77382	6848.7875
1792.96828	6834.2875
1796.16064	6776.8875
1799.3509	6749.8875
1802.53907	6692.1875
1805.72514	6649.5875
1808.90913	6561.0875
1812.09102	6512.6875
1815.27083	6461.8875
1818.44856	6396.4875
1821.6242	6335.6875
1824.79776	6297.3875
1827.96924	6274.7875
1831.13864	6259.1875
1834.30597	6240.2875
1837.47122	6188.4875
1840.6344	6181.2875
1843.7955	6169.2875
1846.95454	6164.5875
1850.11151	6133.7875
1853.26642	6120.0875
1856.41926	6100.5875
1859.57004	6089.5875
1862.71876	6075.2875
1865.86542	6042.2875
1869.01003	6037.3875
1872.15258	6006.7875
1875.29308	5989.5875
1878.43152	5981.8875
1881.56792	5954.1875
1884.70227	5932.6875
1887.83457	5936.4875
1890.96482	5910.9875
1894.09304	5878.4875
1897.21921	5872.2875
1900.34335	5859.9875
1903.46544	5844.8875
1906.58551	5829.9875
1909.70353	5824.8875
1912.81953	5810.3875
1915.93349	5776.0875
1919.04543	5754.4875
1922.15534	5725.2875
1925.26322	5707.6875
1928.36908	5711.5875
1931.47292	5683.7875
1934.57473	5664.5875
1937.67453	5636.4875
1940.77232	5599.4875
1943.86808	5587.3875
1946.96184	5576.5875
1950.05358	5551.6875
1953.14331	5517.2875
1956.23103	5504.9875
1959.31675	5494.5875
1962.40046	5469.1875
1965.48217	5447.3875
1968.56188	5429.2875
1971.63959	5405.2875
1974.7153	5393.7875
1977.78901	5364.6875
1980.86073	5358.1875
1983.93046	5311.2875
1986.99819	5303.1875
1990.06394	5279.9875
1993.1277	5266.1875
1996.18947	5273.0875
1999.24925	5225.3875
2002.30706	5191.1875
2005.36288	5180.8875
2008.41672	5166.0875
2011.46859	5129.6875
2014.51848	5119.3875
2017.56639	5106.8875
2020.61233	5080.9875
2023.6563	5049.1875
2026.6983	5024.8875
2029.73833	5014.9875
2032.7764	5022.5875
2035.8125	4991.4875
2038.84664	4986.3875
2041.87881	4990.1875
2044.90903	4965.4875
2047.93729	4948.4875
2050.96359	4960.3875
2053.98794	4935.1875
2057.01034	4921.8875
2060.03078	4928.9875
2063.04927	4908.8875
2066.06582	4926.6875
2069.08042	4907.3875
2072.09307	4894.9875
2075.10378	4905.5875
2078.11255	4876.9875
2081.11938	4879.8875
2084.12426	4871.4875
2087.12722	4854.5875
2090.12824	4855.1875
2093.12732	4870.2875
2096.12447	4867.1875
2099.11969	4843.0875
2102.11299	4842.4875
2105.10435	4847.0875
2108.09379	4844.1875
2111.08131	4847.5875
2114.0669	4837.9875
2117.05057	4821.0875
2120.03233	4835.5875
2123.01216	4845.2875
2125.99008	4843.0875
2128.96609	4849.9875
2131.94018	4827.6875
2134.91236	4823.4875
2137.88263	4828.9875
2140.851	4843.8875
2143.81746	4833.2875
2146.78201	4816.0875
2149.74466	4816.0875
2152.7054	4809.7875
2155.66425	4803.5875
2158.6212	4789.6875
2161.57625	4783.6875
2164.52941	4784.7875
2167.48067	4758.3875
2170.43004	4764.1875
2173.37752	4770.0875
2176.32311	4750.0875
2179.26681	4751.6875
2182.20863	4751.0875
2185.14856	4753.8875
2188.08661	4746.6875
2191.02278	4732.9875
2193.95707	4731.4875
2196.88948	4699.8875
2199.82001	4702.9875
2202.74867	4702.2875
2205.67545	4685.6875
2208.60037	4672.4875
2211.52341	4653.3875
2214.44458	4668.2875
2217.36388	4633.8875
2220.28132	4630.4875
2223.1969	4620.6875
2226.11061	4605.5875
2229.02246	4592.4875
2231.93245	4575.0875
2234.84058	4567.5875
2237.74686	4579.9875
2240.65128	4563.1875
2243.55385	4538.3875
2246.45456	4533.9875
2249.35343	4530.4875
2252.25044	4535.3875
2255.14561	4532.1875
2258.03893	4505.6875
2260.93041	4511.9875
2263.82004	4493.8875
2266.70783	4486.9875
2269.59378	4477.7875
2272.4779	4462.2875
2275.36017	4448.8875
2278.24061	4442.1875
2281.11922	4430.2875
2283.996	4421.5875
2286.87094	4399.8875
2289.74405	4377.9875
2292.61534	4384.7875
2295.4848	4363.8875
2298.35243	4350.2875
2301.21824	4356.1875
2304.08223	4334.7875
2306.94439	4331.1875
2309.80474	4329.4875
2312.66327	4331.7875
2315.51999	4322.8875
2318.37489	4296.5875
2321.22797	4289.8875
2324.07925	4291.3875
2326.92871	4292.2875
2329.77637	4266.5875
2332.62222	4255.7875
2335.46626	4268.1875
2338.3085	4246.0875
2341.14893	4243.3875
2343.98756	4248.4875
2346.8244	4254.3875
2349.65943	4232.5875
2352.49267	4256.9875
2355.32411	4242.7875
2358.15376	4255.3875
2360.98161	4251.1875
2363.80768	4263.9875
2366.63195	4274.1875
2369.45444	4254.9875
2372.27514	4253.3875
2375.09405	4243.8875
2377.91118	4229.0875
2380.72652	4209.5875
2383.54009	4191.5875
2386.35187	4178.4875
2389.16188	4149.0875
2391.97011	4119.1875
2394.77657	4115.2875
2397.58125	4127.6875
2400.38416	4082.7875
2403.18529	4080.0875
2405.98466	4065.9875
2408.78226	4060.5875
2411.57809	4058.9875
2414.37216	4060.9875
2417.16446	4050.5875
2419.955	4029.2875
2422.74378	4035.5875
2425.5308	4030.9875
2428.31606	4029.3875
2431.09956	4032.6875
2433.88131	4023.4875
2436.6613	4029.5875
2439.43954	4015.0875
2442.21603	4026.4875
2444.99077	4011.7875
2447.76377	4018.2875
2450.53501	4004.7875
2453.30451	4033.1875
2456.07226	4028.1875
2458.83827	4016.4875
2461.60254	3994.5875
2464.36507	3986.3875
2467.12586	3993.8875
2469.88492	3994.2875
2472.64224	3990.3875
2475.39782	3984.7875
2478.15167	3978.7875
2480.90379	3974.9875
2483.65417	3987.3875
2486.40283	3981.1875
2489.14976	3988.0875
2491.89497	3985.7875
2494.63845	3985.2875
2497.3802	3982.9875
2500.12024	3987.0875
2502.85855	3982.3875
2505.59514	3957.9875
2508.33002	3939.9875
2511.06318	3933.4875
2513.79462	3906.6875
2516.52435	3897.8875
2519.25237	3876.2875
2521.97867	3873.1875
2524.70327	3863.3875
2527.42616	3837.3875
2530.14734	3834.0875
2532.86681	3816.1875
2535.58458	3812.2875
2538.30065	3812.7875
2541.01501	3808.6875
2543.72768	3831.9875
2546.43864	3817.6875
2549.14791	3811.0875
2551.85548	3809.7875
2554.56136	3788.0875
2557.26554	3775.8875
2559.96803	3772.3875
2562.66883	3772.2875
2565.36794	3758.6875
2568.06536	3760.2875
2570.7611	3748.0875
2573.45514	3745.3875
2576.14751	3741.5875
2578.83819	3714.4875
2581.52719	3722.5875
2584.21451	3707.2875
2586.90015	3702.5875
2589.58411	3691.3875
2592.2664	3682.2875
2594.94701	3670.2875
2597.62594	3687.6875
2600.30321	3667.2875
2602.9788	3667.6875
2605.65273	3654.5875
2608.32498	3657.9875
2610.99557	3648.4875
2613.66449	3648.0875
2616.33175	3646.9875
2618.99734	3641.3875
2621.66128	3647.4875
2624.32355	3608.2875
2626.98416	3613.6875
2629.64311	3625.7875
2632.30041	3613.6875
2634.95605	3592.5875
2637.61004	3587.1875
2640.26238	3587.9875
2642.91306	3578.7875
2645.56209	3579.1875
2648.20948	3574.1875
2650.85521	3561.6875
2653.4993	3578.0875
2656.14175	3562.9875
2658.78255	3574.9875
2661.42171	3574.4875
2664.05923	3575.9875
2666.6951	3579.4875
2669.32934	3576.7875
2671.96194	3573.9875
2674.59291	3566.3875
2677.22224	3575.5875
2679.84993	3555.7875
2682.476	3558.2875
2685.10043	3555.3875
2687.72324	3554.5875
2690.34441	3566.7875
2692.96396	3548.8875
2695.58188	3550.6875
2698.19818	3537.9875
2700.81285	3540.4875
2703.4259	3536.4875
2706.03733	3524.8875
2708.64714	3520.3875
2711.25533	3554.3875
2713.86191	3537.6875
2716.46687	3542.5875
2719.07021	3540.7875
2721.67194	3542.3875
2724.27206	3545.7875
2726.87057	3543.1875
2729.46747	3534.5875
2732.06276	3527.2875
2734.65644	3522.2875
2737.24852	3518.4875
2739.83899	3509.4875
2742.42786	3509.2875
2745.01513	3505.6875
2747.60079	3497.1875
2750.18486	3487.1875
2752.76733	3482.7875
2755.3482	3485.0875
2757.92747	3467.4875
2760.50515	3467.1875
2763.08123	3447.8875
2765.65573	3438.8875
2768.22863	3442.0875
2770.79994	3454.1875
2773.36967	3438.0875
2775.9378	3441.9875
2778.50435	3442.6875
2781.06932	3428.3875
2783.6327	3431.2875
2786.1945	3425.5875
2788.75471	3413.5875
2791.31335	3409.4875
2793.87041	3405.5875
2796.42589	3400.2875
2798.97979	3393.7875
2801.53212	3379.3875
2804.08288	3387.3875
2806.63206	3373.4875
2809.17967	3365.9875
2811.72571	3379.4875
2814.27018	3345.1875
2816.81308	3347.6875
2819.35442	3356.0875
2821.89419	3362.0875
2824.43239	3360.6875
2826.96904	3345.4875
2829.50412	3352.0875
2832.03763	3332.2875
2834.56959	3346.7875
2837.1	3337.4875
2839.62884	3341.8875
2842.15613	3349.1875
2844.68186	3361.1875
2847.20604	3366.3875
2849.72867	3356.2875
2852.24974	3367.3875
2854.76927	3367.4875
2857.28724	3362.4875
2859.80367	3374.5875
2862.31855	3358.6875
2864.83189	3368.9875
2867.34368	3357.3875
2869.85393	3365.8875
2872.36264	3358.2875
2874.8698	3367.6875
2877.37543	3369.3875
2879.87952	3355.2875
2882.38207	3341.3875
2884.88308	3347.5875
2887.38256	3341.7875
2889.88051	3333.3875
2892.37692	3344.6875
2894.8718	3330.9875
2897.36515	3352.7875
2899.85698	3330.0875
2902.34727	3342.6875
2904.83604	3336.6875
2907.32328	3339.5875
2909.809	3358.9875
2912.29319	3364.8875
2914.77587	3364.1875
2917.25702	3367.3875
2919.73665	3353.9875
2922.21476	3364.2875
2924.69136	3347.9875
2927.16644	3349.9875
2929.64	3339.3875
2932.11205	3322.9875
2934.58258	3320.3875
2937.05161	3324.7875
2939.51912	3316.7875
2941.98513	3299.3875
2944.44962	3294.6875
2946.91261	3268.2875
2949.37409	3268.3875
2951.83407	3270.9875
2954.29254	3247.2875
2956.74951	3235.0875
2959.20498	3239.3875
2961.65895	3235.2875
2964.11142	3229.6875
2966.56239	3227.2875
2969.01186	3217.5875
2971.45984	3196.1875
2973.90632	3187.9875
2976.35131	3181.4875
2978.7948	3182.9875
2981.23681	3183.1875
2983.67732	3183.3875
2986.11635	3158.7875
2988.55388	3140.7875
2990.98993	3141.2875
2993.4245	3139.0875
2995.85758	3120.3875
2998.28917	3120.3875
3000.71928	3104.9875
3003.14791	3118.8875
3005.57506	3106.0875
3008.00073	3102.0875
3010.42493	3106.4875
3012.84764	3077.5875
3015.26888	3085.5875
3017.68865	3069.6875
3020.10694	3076.1875
3022.52376	3074.5875
3024.9391	3055.7875
3027.35298	3044.0875
3029.76539	3048.5875
3032.17632	3033.7875
3034.5858	3034.6875
3036.9938	3030.3875
3039.40034	3031.1875
3041.80542	3009.9875
3044.20903	3011.5875
3046.61118	3011.7875
3049.01187	3006.5875
3051.4111	3008.0875
3053.80888	2997.3875
3056.20519	2985.0875
3058.60005	2990.1875
3060.99345	2980.1875
3063.3854	2981.9875
3065.7759	2981.1875
3068.16494	2954.5875
3070.55254	2968.4875
3072.93868	2948.8875
3075.32338	2948.9875
3077.70662	2950.3875
3080.08842	2933.3875
3082.46878	2925.4875
3084.84769	2909.3875
3087.22515	2919.2875
3089.60118	2927.4875
3091.97576	2926.3875
3094.3489	2928.7875
3096.72061	2932.6875
3099.09087	2924.9875
3101.4597	2923.9875
3103.82709	2931.2875
3106.19305	2939.3875
3108.55757	2944.1875
3110.92066	2922.2875
3113.28232	2930.5875
3115.64255	2935.1875
3118.00134	2921.9875
3120.35871	2908.5875
3122.71466	2903.4875
3125.06917	2908.5875
3127.42226	2912.3875
3129.77393	2904.8875
3132.12417	2918.1875
3134.47299	2909.9875
3136.82039	2909.2875
3139.16636	2918.5875
3141.51092	2915.2875
3143.85406	2926.6875
3146.19579	2928.9875
3148.53609	2926.1875
3150.87499	2934.5875
3153.21246	2929.7875
3155.54853	2961.5875
3157.88318	2963.1875
3160.21642	2968.8875
3162.54826	2959.7875
3164.87868	2963.1875
3167.2077	2961.1875
3169.5353	2961.6875
3171.86151	2964.8875
3174.18631	2970.9875
3176.5097	2964.6875
3178.83169	2958.9875
3181.15228	2961.1875
3183.47147	2946.8875
3185.78926	2955.6875
3188.10565	2953.1875
3190.42065	2957.9875
3192.73424	2959.3875
3195.04645	2941.0875
3197.35725	2948.6875
3199.66667	2952.3875
3201.97469	2962.6875
3204.28132	2949.9875
3206.58656	2956.7875
3208.8904	2961.6875
3211.19287	2966.0875
3213.49394	2960.2875
3215.79363	2967.2875
3218.09193	2974.9875
3220.38884	2976.1875
3222.68438	2977.9875
3224.97853	2980.0875
3227.2713	2974.1875
3229.56269	2962.7875
3231.8527	2970.3875
3234.14133	2965.8875
3236.42858	2957.2875
3238.71446	2947.2875
3240.99896	2938.6875
3243.28209	2952.5875
3245.56384	2946.9875
3247.84423	2947.5875
3250.12324	2939.6875
3252.40088	2929.3875
3254.67715	2936.0875
3256.95205	2919.6875
3259.22558	2926.0875
3261.49775	2914.2875
3263.76855	2911.0875
3266.03799	2899.4875
3268.30606	2914.5875
3270.57277	2892.5875
3272.83812	2896.3875
3275.10211	2887.6875
3277.36474	2895.8875
3279.62601	2901.8875
3281.88593	2892.6875
3284.14448	2896.5875
3286.40168	2897.3875
3288.65753	2901.3875
3290.91202	2873.2875
3293.16516	2885.6875
3295.41695	2891.5875
3297.66738	2869.6875
3299.91647	2852.2875
3302.16421	2829.7875
3304.4106	2817.0875
3306.65564	2805.1875
3308.89933	2778.7875
3311.14169	2773.7875
3313.38269	2729.0875
3315.62236	2724.0875
3317.86068	2699.1875
3320.09766	2682.2875
3322.3333	2662.1875
3324.5676	2640.5875
3326.80056	2601.7875
3329.03219	2588.8875
3331.26248	0.9875
3333.49143	-1.2125
3335.71905	-0.9125
