Data from AgNPs_FTO_APTES_UA_20uM_CRN_0uM_R6G_10uM_NaF_0.1M_Addition_RamanShift__12__11-03-41-935.txt Node

Date: Thu Feb 17 11:03:41 GMT 2022
User: TCL
Spectrometer: QEP01345
Trigger mode: 4
Integration Time (sec): 7.000000E0
Scans to average: 10
Electric dark correction enabled: true
Nonlinearity correction enabled: false
Boxcar width: 0
XAxis mode: Raman Shifts
Number of Pixels in Spectrum: 1044
>>>>>Begin Spectral Data<<<<<
46.04893	0.925
50.45542	0.325
54.85868	-2.375
59.25871	-0.275
63.6555	40.825
68.04907	40.625
72.43941	46.125
76.82654	43.325
81.21044	51.325
85.59113	51.725
89.96862	50.725
94.34289	55.625
98.71396	55.525
103.08183	56.525
107.4465	60.025
111.80798	58.725
116.16626	63.325
120.52136	64.125
124.87327	63.725
129.222	69.725
133.56755	75.025
137.90993	77.625
142.24913	85.925
146.58517	96.525
150.91804	113.325
155.24774	134.725
159.57429	167.825
163.89768	216.025
168.21792	287.725
172.53501	400.825
176.84895	558.425
181.15975	779.925
185.46741	1097.625
189.77193	1516.425
194.07331	2039.825
198.37157	2618.125
202.6667	3213.925
206.9587	3820.625
211.24758	4440.525
215.53334	5103.625
219.81599	5791.325
224.09553	6599.025
228.37195	7516.925
232.64527	8448.325
236.91549	9426.425
241.18261	10260.925
245.44663	10952.825
249.70755	11496.925
253.96539	11924.725
258.22014	12310.025
262.4718	12656.625
266.72039	12918.725
270.96589	13062.425
275.20832	12988.225
279.44768	12723.625
283.68397	12477.125
287.91719	12337.725
292.14735	12341.525
296.37445	12523.825
300.59849	12980.125
304.81948	13548.325
309.03742	14043.925
313.25231	14242.325
317.46415	13853.125
321.67296	12968.725
325.87872	12085.625
330.08145	11538.225
334.28114	11399.125
338.47781	11523.625
342.67145	11807.725
346.86207	12267.325
351.04966	12911.525
355.23424	13642.525
359.4158	14179.425
363.59435	14345.325
367.76989	14285.725
371.94243	14164.725
376.11196	14060.725
380.27849	13970.525
384.44203	13860.025
388.60257	13726.425
392.76012	13642.525
396.91468	13830.625
401.06626	14163.825
405.21485	14345.525
409.36047	14020.025
413.50311	13331.525
417.64277	12630.825
421.77947	12316.825
425.9132	12232.725
430.04396	12215.925
434.17176	12235.425
438.2966	12301.225
442.41849	12547.725
446.53742	12981.525
450.6534	13349.825
454.76644	13508.225
458.87653	13401.525
462.98368	13120.025
467.08789	12829.325
471.18916	12519.325
475.2875	12176.825
479.38291	11916.825
483.4754	11715.225
487.56496	11603.525
491.6516	11500.225
495.73531	11451.925
499.81612	11457.825
503.89401	11638.925
507.96899	11804.225
512.04106	11980.925
516.11023	12092.825
520.1765	12118.125
524.23987	12050.525
528.30034	11904.025
532.35792	11724.125
536.41261	11453.025
540.46441	11145.225
544.51333	10944.525
548.55936	10968.025
552.60252	11285.525
556.64279	11711.225
560.6802	12048.625
564.71473	12291.325
568.7464	12798.325
572.7752	13324.325
576.80114	13200.025
580.82422	12902.025
584.84444	12918.425
588.86181	13193.725
592.87633	13626.325
596.888	13789.425
600.89682	13561.225
604.9028	14299.725
608.90594	18032.725
612.90624	23494.525
616.90371	23060.325
620.89834	15845.525
624.89015	11899.525
628.87913	11097.525
632.86528	11275.125
636.84862	11543.925
640.82913	11376.625
644.80683	10742.525
648.78172	10334.425
652.75379	10316.325
656.72306	10718.625
660.68952	11273.325
664.65319	11148.725
668.61405	10463.825
672.57211	10085.825
676.52738	10079.625
680.47986	10068.625
684.42955	9949.925
688.37646	9797.725
692.32058	9788.325
696.26192	9882.425
700.20048	10103.425
704.13626	10229.425
708.06928	10224.025
711.99952	10121.125
715.927	10098.825
719.85171	10178.425
723.77365	10213.625
727.69284	10115.725
731.60928	9952.025
735.52295	9915.325
739.43388	9945.525
743.34206	9979.125
747.24749	10036.225
751.15017	10105.025
755.05012	10319.525
758.94733	10881.025
762.8418	12302.925
766.73354	14809.825
770.62254	17376.925
774.50882	18335.225
778.39237	17318.525
782.27321	15001.625
786.15132	12622.825
790.02671	11051.025
793.89938	10316.725
797.76935	9992.425
801.6366	9855.325
805.50115	9751.025
809.36299	9665.125
813.22213	9526.025
817.07857	9451.125
820.93231	9409.325
824.78336	9369.725
828.63172	9413.825
832.47738	9393.625
836.32036	9352.025
840.16066	9295.125
843.99827	9245.625
847.8332	9230.025
851.66546	9225.025
855.49504	9226.125
859.32195	9204.025
863.1462	9193.125
866.96777	9130.125
870.78668	9116.825
874.60293	9139.225
878.41652	9151.425
882.22745	9224.225
886.03573	9297.925
889.84136	9264.525
893.64433	9242.225
897.44466	9233.525
901.24235	9257.025
905.0374	9169.825
908.8298	9066.325
912.61957	8994.725
916.40671	9022.625
920.19121	9110.225
923.97308	9223.325
927.75233	9444.325
931.52895	9542.125
935.30295	9393.225
939.07433	9006.625
942.84309	8681.225
946.60924	8453.725
950.37278	8363.425
954.13371	8331.725
957.89203	8309.925
961.64774	8278.125
965.40086	8222.025
969.15137	8204.425
972.89929	8138.525
976.64461	8099.125
980.38733	8059.025
984.12747	8049.225
987.86502	8080.625
991.59999	8137.225
995.33237	8254.125
999.06217	8432.125
1002.78939	8676.925
1006.51404	8954.425
1010.23611	9216.325
1013.95561	9396.525
1017.67255	9370.825
1021.38692	9211.225
1025.09872	8936.525
1028.80796	8654.825
1032.51465	8575.525
1036.21877	8499.225
1039.92035	8514.425
1043.61937	8552.625
1047.31584	8609.625
1051.00976	8649.325
1054.70114	8672.525
1058.38998	8650.025
1062.07627	8663.825
1065.76003	8716.525
1069.44126	8788.625
1073.11995	8946.525
1076.79611	9157.125
1080.46974	9438.725
1084.14085	9802.125
1087.80943	10213.525
1091.47549	10407.225
1095.13903	10230.325
1098.80005	9757.925
1102.45857	9324.325
1106.11456	9109.525
1109.76805	9097.125
1113.41903	9313.825
1117.06751	9689.625
1120.71348	10176.725
1124.35696	10770.725
1127.99793	11369.025
1131.63641	11407.325
1135.2724	10826.425
1138.90589	10185.225
1142.5369	9800.725
1146.16542	9563.025
1149.79145	9453.025
1153.415	9426.425
1157.03607	9534.825
1160.65467	9862.625
1164.27079	10530.225
1167.88443	11486.625
1171.49561	12830.925
1175.10432	14870.125
1178.71056	17505.025
1182.31434	19746.925
1185.91565	20434.925
1189.51451	19823.525
1193.11091	18523.225
1196.70485	16942.925
1200.29634	15502.925
1203.88538	14271.425
1207.47197	13121.525
1211.05612	12181.925
1214.63782	11628.825
1218.21708	11397.225
1221.79391	11448.325
1225.36829	11537.725
1228.94024	11536.325
1232.50976	11308.825
1236.07685	11088.825
1239.6415	10902.825
1243.20374	10852.225
1246.76355	10811.625
1250.32093	10885.225
1253.8759	11109.525
1257.42845	11540.325
1260.97859	12213.725
1264.52631	12947.125
1268.07163	13644.925
1271.61453	14252.525
1275.15503	14653.025
1278.69312	14946.625
1282.22882	15164.025
1285.76211	15647.225
1289.29301	16426.225
1292.82151	17279.525
1296.34761	18307.125
1299.87133	19601.225
1303.39266	21489.625
1306.9116	24245.825
1310.42815	27416.525
1313.94233	29509.925
1317.45412	29153.825
1320.96354	27033.825
1324.47058	24582.925
1327.97525	22429.725
1331.47754	20919.925
1334.97747	20109.925
1338.47502	19814.725
1341.97022	19964.425
1345.46305	20616.325
1348.95352	21784.725
1352.44163	23438.725
1355.92738	25724.825
1359.41078	29556.225
1362.89183	33591.125
1366.37053	33376.825
1369.84688	27867.725
1373.32088	21905.125
1376.79254	18060.025
1380.26186	16264.325
1383.72883	15404.425
1387.19347	14741.225
1390.65578	14138.325
1394.11575	13864.325
1397.57339	13935.125
1401.0287	14213.525
1404.48168	14446.025
1407.93234	14413.825
1411.38068	14164.225
1414.82669	13772.125
1418.27039	13333.725
1421.71177	12890.525
1425.15083	12484.625
1428.58758	12257.725
1432.02203	12370.025
1435.45416	12734.525
1438.88399	13036.225
1442.31151	13203.825
1445.73673	13325.625
1449.15965	13469.325
1452.58027	13529.925
1455.9986	13537.825
1459.41463	13618.725
1462.82837	13893.425
1466.23982	14205.325
1469.64898	14566.925
1473.05586	14754.825
1476.46045	14769.825
1479.86276	14770.725
1483.26279	14808.525
1486.66054	15037.425
1490.05602	15586.025
1493.44922	16382.725
1496.84016	17614.125
1500.22882	19541.625
1503.61521	22269.625
1506.99934	25624.425
1510.38121	28890.425
1513.76081	30437.325
1517.13816	28850.725
1520.51324	24934.525
1523.88607	20933.925
1527.25665	18214.325
1530.62498	16601.025
1533.99105	15665.125
1537.35488	14933.625
1540.71647	14339.225
1544.07581	13901.625
1547.4329	13614.125
1550.78776	13483.325
1554.14038	13505.925
1557.49077	13640.525
1560.83892	13977.425
1564.18484	14475.825
1567.52853	15059.125
1570.86999	15576.725
1574.20922	15924.625
1577.54624	15882.725
1580.88103	15086.225
1584.2136	13816.625
1587.54395	13214.625
1590.87208	13504.925
1594.19801	14531.525
1597.52172	15927.425
1600.84321	16529.925
1604.16251	15753.025
1607.47959	14365.225
1610.79447	12958.525
1614.10715	11624.125
1617.41763	10447.225
1620.7259	9616.025
1624.03199	9176.125
1627.33587	9146.825
1630.63757	9558.625
1633.93707	10461.525
1637.23439	12087.025
1640.52951	14651.625
1643.82246	18045.425
1647.11321	21513.025
1650.40179	23470.825
1653.68819	22318.925
1656.97241	18363.325
1660.25446	13999.325
1663.53433	10836.725
1666.81203	8953.225
1670.08756	7927.025
1673.36092	7316.725
1676.63211	6946.725
1679.90115	6708.525
1683.16801	6524.425
1686.43272	6401.525
1689.69527	6293.325
1692.95567	6203.125
1696.2139	6165.725
1699.46999	6158.225
1702.72392	6097.925
1705.97571	6075.525
1709.22535	6008.625
1712.47284	6015.125
1715.71819	6027.625
1718.96139	6002.925
1722.20246	5974.625
1725.44139	5915.625
1728.67818	5849.625
1731.91284	5772.425
1735.14537	5689.325
1738.37576	5594.525
1741.60403	5596.825
1744.83017	5567.725
1748.05418	5523.825
1751.27607	5513.425
1754.49584	5482.625
1757.71349	5465.425
1760.92903	5459.725
1764.14244	5446.625
1767.35375	5421.225
1770.56294	5382.325
1773.77002	5365.725
1776.97499	5339.025
1780.17785	5314.125
1783.37861	5272.125
1786.57727	5269.025
1789.77382	5234.825
1792.96828	5247.325
1796.16064	5234.825
1799.3509	5221.325
1802.53907	5215.925
1805.72514	5184.125
1808.90913	5147.425
1812.09102	5139.325
1815.27083	5121.325
1818.44856	5088.125
1821.6242	5085.125
1824.79776	5081.125
1827.96924	5077.925
1831.13864	5084.025
1834.30597	5087.825
1837.47122	5077.825
1840.6344	5064.725
1843.7955	5064.625
1846.95454	5047.825
1850.11151	5048.025
1853.26642	5034.325
1856.41926	5014.425
1859.57004	5006.725
1862.71876	4999.025
1865.86542	4989.725
1869.01003	4955.225
1872.15258	4945.125
1875.29308	4940.625
1878.43152	4935.125
1881.56792	4937.825
1884.70227	4917.025
1887.83457	4931.225
1890.96482	4911.425
1894.09304	4887.925
1897.21921	4896.925
1900.34335	4866.225
1903.46544	4847.025
1906.58551	4843.725
1909.70353	4846.025
1912.81953	4810.325
1915.93349	4792.025
1919.04543	4771.225
1922.15534	4746.225
1925.26322	4739.925
1928.36908	4684.125
1931.47292	4674.125
1934.57473	4636.125
1937.67453	4603.425
1940.77232	4601.425
1943.86808	4574.025
1946.96184	4548.625
1950.05358	4523.225
1953.14331	4506.225
1956.23103	4505.625
1959.31675	4471.525
1962.40046	4466.425
1965.48217	4472.825
1968.56188	4451.625
1971.63959	4435.925
1974.7153	4436.025
1977.78901	4409.425
1980.86073	4389.225
1983.93046	4361.825
1986.99819	4345.625
1990.06394	4327.725
1993.1277	4308.925
1996.18947	4268.125
1999.24925	4248.825
2002.30706	4249.025
2005.36288	4221.825
2008.41672	4208.925
2011.46859	4182.325
2014.51848	4185.625
2017.56639	4167.925
2020.61233	4138.825
2023.6563	4123.825
2026.6983	4095.425
2029.73833	4094.125
2032.7764	4078.525
2035.8125	4070.125
2038.84664	4051.725
2041.87881	4061.225
2044.90903	4046.525
2047.93729	4024.725
2050.96359	4030.725
2053.98794	4019.925
2057.01034	4012.725
2060.03078	4000.825
2063.04927	3985.625
2066.06582	3982.225
2069.08042	3966.825
2072.09307	3959.925
2075.10378	3969.725
2078.11255	3953.625
2081.11938	3944.525
2084.12426	3936.625
2087.12722	3923.325
2090.12824	3935.925
2093.12732	3943.225
2096.12447	3933.025
2099.11969	3937.725
2102.11299	3930.825
2105.10435	3932.225
2108.09379	3933.625
2111.08131	3938.225
2114.0669	3926.725
2117.05057	3929.125
2120.03233	3913.025
2123.01216	3933.525
2125.99008	3944.025
2128.96609	3943.225
2131.94018	3934.025
2134.91236	3917.425
2137.88263	3935.925
2140.851	3924.825
2143.81746	3924.925
2146.78201	3909.025
2149.74466	3911.525
2152.7054	3902.725
2155.66425	3889.225
2158.6212	3892.425
2161.57625	3881.425
2164.52941	3892.625
2167.48067	3870.725
2170.43004	3863.125
2173.37752	3856.925
2176.32311	3873.525
2179.26681	3868.325
2182.20863	3850.825
2185.14856	3867.725
2188.08661	3849.325
2191.02278	3848.325
2193.95707	3841.125
2196.88948	3828.225
2199.82001	3823.225
2202.74867	3814.425
2205.67545	3817.925
2208.60037	3805.525
2211.52341	3780.525
2214.44458	3789.125
2217.36388	3764.825
2220.28132	3772.925
2223.1969	3750.925
2226.11061	3736.525
2229.02246	3736.725
2231.93245	3712.825
2234.84058	3723.925
2237.74686	3723.025
2240.65128	3695.025
2243.55385	3707.325
2246.45456	3699.125
2249.35343	3690.325
2252.25044	3694.025
2255.14561	3684.525
2258.03893	3692.925
2260.93041	3682.725
2263.82004	3687.725
2266.70783	3681.725
2269.59378	3669.825
2272.4779	3642.525
2275.36017	3656.225
2278.24061	3639.725
2281.11922	3620.725
2283.996	3616.625
2286.87094	3598.625
2289.74405	3575.125
2292.61534	3574.225
2295.4848	3571.225
2298.35243	3563.325
2301.21824	3553.025
2304.08223	3530.925
2306.94439	3546.725
2309.80474	3538.425
2312.66327	3532.725
2315.51999	3537.725
2318.37489	3517.725
2321.22797	3519.125
2324.07925	3517.225
2326.92871	3518.525
2329.77637	3522.425
2332.62222	3502.825
2335.46626	3494.525
2338.3085	3491.425
2341.14893	3493.725
2343.98756	3499.625
2346.8244	3508.225
2349.65943	3499.825
2352.49267	3520.025
2355.32411	3534.425
2358.15376	3539.325
2360.98161	3552.025
2363.80768	3563.325
2366.63195	3576.925
2369.45444	3579.125
2372.27514	3557.525
2375.09405	3556.925
2377.91118	3554.425
2380.72652	3526.125
2383.54009	3502.125
2386.35187	3480.525
2389.16188	3460.925
2391.97011	3451.325
2394.77657	3443.825
2397.58125	3422.225
2400.38416	3410.425
2403.18529	3385.425
2405.98466	3374.225
2408.78226	3381.725
2411.57809	3371.025
2414.37216	3357.525
2417.16446	3364.725
2419.955	3374.225
2422.74378	3355.125
2425.5308	3361.125
2428.31606	3366.425
2431.09956	3372.725
2433.88131	3359.725
2436.6613	3358.125
2439.43954	3371.425
2442.21603	3370.925
2444.99077	3369.925
2447.76377	3390.525
2450.53501	3392.025
2453.30451	3408.425
2456.07226	3398.825
2458.83827	3410.725
2461.60254	3392.425
2464.36507	3404.525
2467.12586	3404.225
2469.88492	3398.925
2472.64224	3382.925
2475.39782	3397.125
2478.15167	3406.225
2480.90379	3406.525
2483.65417	3419.825
2486.40283	3440.425
2489.14976	3436.325
2491.89497	3451.125
2494.63845	3447.925
2497.3802	3431.125
2500.12024	3447.225
2502.85855	3435.625
2505.59514	3422.025
2508.33002	3392.725
2511.06318	3381.725
2513.79462	3346.825
2516.52435	3351.225
2519.25237	3320.325
2521.97867	3303.225
2524.70327	3302.425
2527.42616	3286.425
2530.14734	3281.325
2532.86681	3282.625
2535.58458	3276.225
2538.30065	3278.125
2541.01501	3272.325
2543.72768	3272.425
2546.43864	3290.025
2549.14791	3283.125
2551.85548	3287.125
2554.56136	3273.425
2557.26554	3283.725
2559.96803	3278.925
2562.66883	3266.225
2565.36794	3252.225
2568.06536	3253.625
2570.7611	3252.025
2573.45514	3249.525
2576.14751	3237.025
2578.83819	3235.425
2581.52719	3243.525
2584.21451	3232.625
2586.90015	3216.625
2589.58411	3211.525
2592.2664	3217.925
2594.94701	3219.025
2597.62594	3217.425
2600.30321	3213.725
2602.9788	3213.125
2605.65273	3210.825
2608.32498	3209.425
2610.99557	3219.425
2613.66449	3211.825
2616.33175	3222.025
2618.99734	3219.525
2621.66128	3215.225
2624.32355	3201.025
2626.98416	3198.825
2629.64311	3191.425
2632.30041	3196.925
2634.95605	3178.925
2637.61004	3175.025
2640.26238	3163.425
2642.91306	3164.225
2645.56209	3164.025
2648.20948	3161.525
2650.85521	3156.625
2653.4993	3164.525
2656.14175	3165.225
2658.78255	3174.125
2661.42171	3176.925
2664.05923	3191.025
2666.6951	3194.125
2669.32934	3192.325
2671.96194	3196.425
2674.59291	3201.925
2677.22224	3200.325
2679.84993	3200.725
2682.476	3198.125
2685.10043	3189.825
2687.72324	3185.525
2690.34441	3187.725
2692.96396	3170.525
2695.58188	3170.625
2698.19818	3175.825
2700.81285	3175.125
2703.4259	3167.725
2706.03733	3169.125
2708.64714	3174.325
2711.25533	3190.725
2713.86191	3173.025
2716.46687	3200.225
2719.07021	3198.725
2721.67194	3204.125
2724.27206	3196.025
2726.87057	3201.125
2729.46747	3193.825
2732.06276	3205.325
2734.65644	3194.525
2737.24852	3168.525
2739.83899	3164.825
2742.42786	3176.725
2745.01513	3156.325
2747.60079	3170.425
2750.18486	3165.125
2752.76733	3146.025
2755.3482	3151.325
2757.92747	3144.725
2760.50515	3142.925
2763.08123	3142.625
2765.65573	3138.425
2768.22863	3140.025
2770.79994	3129.925
2773.36967	3128.225
2775.9378	3143.025
2778.50435	3126.725
2781.06932	3141.625
2783.6327	3137.725
2786.1945	3141.125
2788.75471	3124.525
2791.31335	3125.225
2793.87041	3133.025
2796.42589	3123.425
2798.97979	3128.325
2801.53212	3119.725
2804.08288	3131.625
2806.63206	3121.325
2809.17967	3125.825
2811.72571	3109.925
2814.27018	3117.125
2816.81308	3125.625
2819.35442	3124.425
2821.89419	3120.325
2824.43239	3131.925
2826.96904	3127.925
2829.50412	3136.125
2832.03763	3131.525
2834.56959	3135.625
2837.1	3128.825
2839.62884	3131.925
2842.15613	3162.425
2844.68186	3167.325
2847.20604	3183.925
2849.72867	3203.625
2852.24974	3213.325
2854.76927	3203.325
2857.28724	3211.025
2859.80367	3212.325
2862.31855	3212.825
2864.83189	3234.625
2867.34368	3222.025
2869.85393	3228.325
2872.36264	3226.825
2874.8698	3239.225
2877.37543	3213.825
2879.87952	3236.525
2882.38207	3210.225
2884.88308	3224.225
2887.38256	3204.525
2889.88051	3207.325
2892.37692	3205.025
2894.8718	3200.225
2897.36515	3208.825
2899.85698	3216.325
2902.34727	3219.125
2904.83604	3227.825
2907.32328	3225.625
2909.809	3233.225
2912.29319	3241.525
2914.77587	3240.525
2917.25702	3247.225
2919.73665	3243.525
2922.21476	3244.925
2924.69136	3235.825
2927.16644	3225.425
2929.64	3201.925
2932.11205	3211.325
2934.58258	3195.925
2937.05161	3194.925
2939.51912	3171.325
2941.98513	3154.025
2944.44962	3138.425
2946.91261	3119.425
2949.37409	3127.925
2951.83407	3117.525
2954.29254	3093.325
2956.74951	3101.525
2959.20498	3100.925
2961.65895	3101.325
2964.11142	3074.125
2966.56239	3074.925
2969.01186	3052.425
2971.45984	3046.925
2973.90632	3038.425
2976.35131	3016.325
2978.7948	3009.425
2981.23681	3004.325
2983.67732	2994.825
2986.11635	2975.225
2988.55388	2969.125
2990.98993	2968.625
2993.4245	2973.025
2995.85758	2947.225
2998.28917	2957.325
3000.71928	2940.925
3003.14791	2943.625
3005.57506	2936.725
3008.00073	2928.825
3010.42493	2922.425
3012.84764	2933.825
3015.26888	2932.225
3017.68865	2915.125
3020.10694	2914.925
3022.52376	2908.325
3024.9391	2904.725
3027.35298	2890.225
3029.76539	2879.225
3032.17632	2876.925
3034.5858	2863.125
3036.9938	2864.625
3039.40034	2867.425
3041.80542	2858.025
3044.20903	2851.825
3046.61118	2850.025
3049.01187	2835.225
3051.4111	2820.325
3053.80888	2824.925
3056.20519	2815.925
3058.60005	2815.425
3060.99345	2827.825
3063.3854	2804.525
3065.7759	2801.825
3068.16494	2804.225
3070.55254	2792.725
3072.93868	2786.825
3075.32338	2780.925
3077.70662	2769.325
3080.08842	2764.825
3082.46878	2757.225
3084.84769	2740.525
3087.22515	2748.425
3089.60118	2752.825
3091.97576	2748.725
3094.3489	2740.325
3096.72061	2759.025
3099.09087	2748.725
3101.4597	2756.225
3103.82709	2757.625
3106.19305	2747.825
3108.55757	2752.125
3110.92066	2750.425
3113.28232	2750.925
3115.64255	2731.225
3118.00134	2732.325
3120.35871	2742.525
3122.71466	2721.725
3125.06917	2725.925
3127.42226	2716.125
3129.77393	2739.625
3132.12417	2727.525
3134.47299	2723.825
3136.82039	2733.025
3139.16636	2731.325
3141.51092	2735.125
3143.85406	2742.825
3146.19579	2751.425
3148.53609	2751.125
3150.87499	2747.725
3153.21246	2761.925
3155.54853	2760.925
3157.88318	2772.625
3160.21642	2766.125
3162.54826	2786.425
3164.87868	2774.625
3167.2077	2787.825
3169.5353	2769.125
3171.86151	2793.325
3174.18631	2790.725
3176.5097	2795.325
3178.83169	2785.225
3181.15228	2790.125
3183.47147	2783.025
3185.78926	2792.125
3188.10565	2775.325
3190.42065	2782.525
3192.73424	2771.925
3195.04645	2772.125
3197.35725	2776.025
3199.66667	2782.125
3201.97469	2805.525
3204.28132	2794.225
3206.58656	2804.125
3208.8904	2793.525
3211.19287	2812.625
3213.49394	2807.525
3215.79363	2812.925
3218.09193	2820.725
3220.38884	2821.225
3222.68438	2828.525
3224.97853	2833.925
3227.2713	2811.425
3229.56269	2819.625
3231.8527	2817.025
3234.14133	2804.525
3236.42858	2800.825
3238.71446	2796.625
3240.99896	2796.125
3243.28209	2808.725
3245.56384	2799.525
3247.84423	2798.225
3250.12324	2786.025
3252.40088	2798.125
3254.67715	2790.925
3256.95205	2784.025
3259.22558	2791.325
3261.49775	2785.025
3263.76855	2772.225
3266.03799	2769.325
3268.30606	2766.725
3270.57277	2763.825
3272.83812	2773.425
3275.10211	2772.725
3277.36474	2776.925
3279.62601	2770.125
3281.88593	2785.725
3284.14448	2772.325
3286.40168	2782.725
3288.65753	2761.725
3290.91202	2778.825
3293.16516	2768.625
3295.41695	2774.725
3297.66738	2760.225
3299.91647	2752.325
3302.16421	2726.125
3304.4106	2713.225
3306.65564	2698.625
3308.89933	2668.725
3311.14169	2654.625
3313.38269	2635.525
3315.62236	2614.825
3317.86068	2593.125
3320.09766	2566.725
3322.3333	2545.725
3324.5676	2534.525
3326.80056	2491.125
3329.03219	2484.325
3331.26248	1.525
3333.49143	0.925
3335.71905	-0.775
