Data from AgNPs_FTO_APTES_UA_20uM_CRN_500uM_R6G_10uM_NaF_0.1M_Addition_RamanShift__29__19-05-54-995.txt Node

Date: Thu Feb 17 19:05:54 GMT 2022
User: TCL
Spectrometer: QEP01345
Trigger mode: 4
Integration Time (sec): 1.000000E1
Scans to average: 7
Electric dark correction enabled: true
Nonlinearity correction enabled: false
Boxcar width: 0
XAxis mode: Raman Shifts
Number of Pixels in Spectrum: 1044
>>>>>Begin Spectral Data<<<<<
46.04893	0.26786
50.45542	-1.58929
54.85868	0.69643
59.25871	-1.73214
63.6555	70.83929
68.04907	69.125
72.43941	78.125
76.82654	78.69643
81.21044	82.69643
85.59113	84.98214
89.96862	90.41071
94.34289	90.26786
98.71396	98.83929
103.08183	93.26786
107.4465	104.125
111.80798	100.69643
116.16626	103.26786
120.52136	105.69643
124.87327	116.69643
129.222	119.83929
133.56755	123.83929
137.90993	135.55357
142.24913	144.98214
146.58517	165.55357
150.91804	188.69643
155.24774	221.41071
159.57429	278.83929
163.89768	355.125
168.21792	479.26786
172.53501	652.55357
176.84895	906.26786
181.15975	1272.55357
185.46741	1812.55357
189.77193	2505.83929
194.07331	3368.125
198.37157	4400.83929
202.6667	5434.125
206.9587	6545.55357
211.24758	7677.98214
215.53334	8843.55357
219.81599	10139.125
224.09553	11672.41071
228.37195	13369.125
232.64527	15247.98214
236.91549	17053.125
241.18261	18684.83929
245.44663	20035.98214
249.70755	21131.98214
253.96539	21951.55357
258.22014	22576.26786
262.4718	22885.83929
266.72039	22982.26786
270.96589	22756.69643
275.20832	22332.55357
279.44768	21629.41071
283.68397	21011.69643
287.91719	20679.41071
292.14735	20777.83929
296.37445	21512.26786
300.59849	22882.83929
304.81948	24566.83929
309.03742	26040.125
313.25231	26402.69643
317.46415	25013.41071
321.67296	22525.41071
325.87872	20353.83929
330.08145	19337.125
334.28114	19302.26786
338.47781	19853.41071
342.67145	20650.98214
346.86207	21935.83929
351.04966	23836.26786
355.23424	26071.98214
359.4158	27741.55357
363.59435	28396.26786
367.76989	28355.98214
371.94243	28077.69643
376.11196	27680.26786
380.27849	27310.83929
384.44203	26758.125
388.60257	26040.55357
392.76012	25583.125
396.91468	25665.41071
401.06626	26326.83929
405.21485	26823.125
409.36047	26103.83929
413.50311	24151.98214
417.64277	22263.83929
421.77947	21019.83929
425.9132	20542.41071
430.04396	20412.125
434.17176	20493.125
438.2966	20927.69643
442.41849	21571.83929
446.53742	22370.125
450.6534	23067.83929
454.76644	23440.83929
458.87653	23350.41071
462.98368	22981.41071
467.08789	22444.41071
471.18916	21753.26786
475.2875	20983.98214
479.38291	20330.125
483.4754	19881.69643
487.56496	19623.98214
491.6516	19487.55357
495.73531	19409.125
499.81612	19437.26786
503.89401	19782.83929
507.96899	20286.55357
512.04106	20903.55357
516.11023	21569.26786
520.1765	22112.41071
524.23987	22179.98214
528.30034	21743.69643
532.35792	21180.98214
536.41261	20644.69643
540.46441	19965.98214
544.51333	19556.98214
548.55936	19524.125
552.60252	19939.83929
556.64279	20526.125
560.6802	20921.41071
564.71473	21501.83929
568.7464	22886.41071
572.7752	23574.55357
576.80114	22206.26786
580.82422	20615.26786
584.84444	19911.125
588.86181	19850.83929
592.87633	20099.69643
596.888	20544.98214
600.89682	21587.26786
604.9028	25149.125
608.90594	35316.26786
612.90624	49632.26786
616.90371	48797.125
620.89834	31550.41071
624.89015	22869.69643
628.87913	21208.125
632.86528	21584.41071
636.84862	22130.98214
640.82913	21665.83929
644.80683	20219.125
648.78172	19168.26786
652.75379	19158.83929
656.72306	20350.26786
660.68952	21826.55357
664.65319	21413.55357
668.61405	19761.98214
672.57211	19022.41071
676.52738	19041.69643
680.47986	19048.98214
684.42955	18828.98214
688.37646	18646.26786
692.32058	18676.55357
696.26192	18878.26786
700.20048	19283.41071
704.13626	19439.83929
708.06928	19320.41071
711.99952	19019.98214
715.927	18987.26786
719.85171	19181.98214
723.77365	19272.69643
727.69284	19116.125
731.60928	18911.83929
735.52295	18868.98214
739.43388	18946.26786
743.34206	18994.41071
747.24749	19048.69643
751.15017	19136.69643
755.05012	19583.98214
758.94733	20939.55357
762.8418	24332.41071
766.73354	29798.98214
770.62254	35098.55357
774.50882	38417.55357
778.39237	37854.41071
782.27321	32142.26786
786.15132	25533.125
790.02671	21597.83929
793.89938	19982.26786
797.76935	19312.55357
801.6366	19024.83929
805.50115	18897.41071
809.36299	18822.41071
813.22213	18765.55357
817.07857	18685.69643
820.93231	18688.69643
824.78336	18671.55357
828.63172	18841.98214
832.47738	18927.55357
836.32036	18783.55357
840.16066	18595.69643
843.99827	18509.55357
847.8332	18469.26786
851.66546	18421.26786
855.49504	18422.98214
859.32195	18398.125
863.1462	18370.55357
866.96777	18293.98214
870.78668	18294.98214
874.60293	18388.69643
878.41652	18483.98214
882.22745	18707.55357
886.03573	18880.55357
889.84136	18851.26786
893.64433	18732.83929
897.44466	18665.125
901.24235	18651.83929
905.0374	18560.98214
908.8298	18307.98214
912.61957	18168.83929
916.40671	18130.41071
920.19121	18237.83929
923.97308	18439.98214
927.75233	18870.125
931.52895	19355.83929
935.30295	19184.41071
939.07433	18398.83929
942.84309	17766.98214
946.60924	17360.98214
950.37278	17189.98214
954.13371	17054.41071
957.89203	17017.83929
961.64774	17021.83929
965.40086	16984.98214
969.15137	16895.125
972.89929	16856.41071
976.64461	16848.26786
980.38733	16879.98214
984.12747	16892.83929
987.86502	16984.26786
991.59999	17128.26786
995.33237	17346.98214
999.06217	17739.55357
1002.78939	18210.26786
1006.51404	18660.69643
1010.23611	19149.125
1013.95561	19396.98214
1017.67255	19423.41071
1021.38692	19131.26786
1025.09872	18816.125
1028.80796	18651.69643
1032.51465	18765.98214
1036.21877	19021.41071
1039.92035	19177.69643
1043.61937	19244.41071
1047.31584	19139.41071
1051.00976	18989.55357
1054.70114	18836.26786
1058.38998	18724.83929
1062.07627	18741.69643
1065.76003	18809.55357
1069.44126	18813.41071
1073.11995	19044.83929
1076.79611	19439.41071
1080.46974	20117.69643
1084.14085	21008.41071
1087.80943	21753.26786
1091.47549	21947.125
1095.13903	21297.26786
1098.80005	20326.83929
1102.45857	19693.125
1106.11456	19557.125
1109.76805	19946.83929
1113.41903	20750.83929
1117.06751	22046.26786
1120.71348	23816.55357
1124.35696	25733.83929
1127.99793	26927.69643
1131.63641	26052.125
1135.2724	23936.69643
1138.90589	22258.26786
1142.5369	21164.26786
1146.16542	20493.125
1149.79145	20012.41071
1153.415	19927.41071
1157.03607	20022.83929
1160.65467	20476.41071
1164.27079	21286.41071
1167.88443	22559.55357
1171.49561	24631.41071
1175.10432	28218.41071
1178.71056	33141.98214
1182.31434	37120.55357
1185.91565	38053.26786
1189.51451	36414.26786
1193.11091	33519.26786
1196.70485	30638.98214
1200.29634	28671.55357
1203.88538	27090.26786
1207.47197	25015.69643
1211.05612	23148.125
1214.63782	22069.98214
1218.21708	21538.125
1221.79391	21430.125
1225.36829	21419.55357
1228.94024	21364.26786
1232.50976	21296.55357
1236.07685	21316.98214
1239.6415	21459.26786
1243.20374	21761.69643
1246.76355	22009.98214
1250.32093	22293.55357
1253.8759	22881.98214
1257.42845	23631.55357
1260.97859	24603.69643
1264.52631	25487.83929
1268.07163	26318.125
1271.61453	26965.83929
1275.15503	27330.98214
1278.69312	27413.41071
1282.22882	27686.26786
1285.76211	28425.69643
1289.29301	29596.98214
1292.82151	30652.83929
1296.34761	31994.98214
1299.87133	34151.83929
1303.39266	38077.98214
1306.9116	44141.69643
1310.42815	50167.55357
1313.94233	51964.98214
1317.45412	48221.98214
1320.96354	42382.55357
1324.47058	37075.98214
1327.97525	33212.55357
1331.47754	31231.69643
1334.97747	30944.83929
1338.47502	31907.83929
1341.97022	34063.98214
1345.46305	37163.69643
1348.95352	40805.69643
1352.44163	45359.125
1355.92738	52085.26786
1359.41078	61713.83929
1362.89183	68212.125
1366.37053	62872.69643
1369.84688	51285.98214
1373.32088	41531.125
1376.79254	35284.55357
1380.26186	31544.41071
1383.72883	29177.69643
1387.19347	27412.26786
1390.65578	25955.98214
1394.11575	24862.125
1397.57339	24327.26786
1401.0287	24335.55357
1404.48168	24522.69643
1407.93234	24974.55357
1411.38068	25462.55357
1414.82669	25864.98214
1418.27039	25841.125
1421.71177	25501.26786
1425.15083	25158.83929
1428.58758	25141.69643
1432.02203	25403.98214
1435.45416	25542.41071
1438.88399	25457.98214
1442.31151	25348.125
1445.73673	25391.55357
1449.15965	25491.41071
1452.58027	25304.26786
1455.9986	24974.55357
1459.41463	24877.55357
1462.82837	25171.125
1466.23982	25831.41071
1469.64898	26419.55357
1473.05586	26841.55357
1476.46045	27160.41071
1479.86276	27724.26786
1483.26279	28588.98214
1486.66054	29702.26786
1490.05602	31305.125
1493.44922	33587.41071
1496.84016	37044.125
1500.22882	42558.26786
1503.61521	50160.125
1506.99934	58701.83929
1510.38121	65056.98214
1513.76081	65568.55357
1517.13816	58942.55357
1520.51324	48846.55357
1523.88607	40110.55357
1527.25665	34720.41071
1530.62498	31812.69643
1533.99105	30177.69643
1537.35488	29267.55357
1540.71647	28946.26786
1544.07581	29044.83929
1547.4329	29392.69643
1550.78776	29663.125
1554.14038	29726.69643
1557.49077	29900.41071
1560.83892	30405.125
1564.18484	31553.55357
1567.52853	33031.125
1570.86999	34257.125
1574.20922	34799.98214
1577.54624	34163.55357
1580.88103	31741.69643
1584.2136	28656.41071
1587.54395	26930.26786
1590.87208	26964.125
1594.19801	28544.55357
1597.52172	30814.26786
1600.84321	31889.41071
1604.16251	31133.83929
1607.47959	29155.98214
1610.79447	27067.41071
1614.10715	24903.69643
1617.41763	23254.55357
1620.7259	22220.83929
1624.03199	21788.98214
1627.33587	21849.125
1630.63757	22410.41071
1633.93707	23642.125
1637.23439	25560.26786
1640.52951	28605.26786
1643.82246	33319.26786
1647.11321	38907.83929
1650.40179	42518.69643
1653.68819	40800.98214
1656.97241	34563.41071
1660.25446	28192.69643
1663.53433	23876.26786
1666.81203	21366.98214
1670.08756	19985.41071
1673.36092	19050.83929
1676.63211	18498.125
1679.90115	18067.26786
1683.16801	17762.41071
1686.43272	17534.83929
1689.69527	17339.98214
1692.95567	17229.69643
1696.2139	17158.83929
1699.46999	17125.125
1702.72392	17094.69643
1705.97571	17073.69643
1709.22535	17032.26786
1712.47284	17063.125
1715.71819	17047.98214
1718.96139	16983.69643
1722.20246	16993.83929
1725.44139	16810.125
1728.67818	16715.41071
1731.91284	16540.55357
1735.14537	16429.98214
1738.37576	16371.83929
1741.60403	16302.98214
1744.83017	16209.55357
1748.05418	16136.41071
1751.27607	16139.55357
1754.49584	16076.83929
1757.71349	16031.98214
1760.92903	15993.55357
1764.14244	15945.83929
1767.35375	15904.26786
1770.56294	15846.55357
1773.77002	15767.83929
1776.97499	15724.55357
1780.17785	15693.98214
1783.37861	15623.69643
1786.57727	15594.41071
1789.77382	15548.125
1792.96828	15539.26786
1796.16064	15505.41071
1799.3509	15486.26786
1802.53907	15442.26786
1805.72514	15423.41071
1808.90913	15341.69643
1812.09102	15330.41071
1815.27083	15253.98214
1818.44856	15242.55357
1821.6242	15210.69643
1824.79776	15187.83929
1827.96924	15151.26786
1831.13864	15143.55357
1834.30597	15110.125
1837.47122	15103.98214
1840.6344	15057.125
1843.7955	15059.83929
1846.95454	15047.55357
1850.11151	15019.125
1853.26642	14997.41071
1856.41926	15003.55357
1859.57004	15061.83929
1862.71876	14982.41071
1865.86542	15013.26786
1869.01003	15029.125
1872.15258	15010.98214
1875.29308	15045.125
1878.43152	15028.98214
1881.56792	15003.26786
1884.70227	14997.55357
1887.83457	14988.69643
1890.96482	14954.26786
1894.09304	14947.83929
1897.21921	14941.125
1900.34335	14954.83929
1903.46544	14956.98214
1906.58551	14908.83929
1909.70353	14888.55357
1912.81953	14861.83929
1915.93349	14844.55357
1919.04543	14849.83929
1922.15534	14834.98214
1925.26322	14787.125
1928.36908	14776.69643
1931.47292	14750.41071
1934.57473	14692.125
1937.67453	14659.69643
1940.77232	14597.83929
1943.86808	14557.69643
1946.96184	14501.98214
1950.05358	14448.41071
1953.14331	14430.125
1956.23103	14435.41071
1959.31675	14394.125
1962.40046	14330.55357
1965.48217	14293.41071
1968.56188	14296.69643
1971.63959	14266.83929
1974.7153	14248.41071
1977.78901	14184.98214
1980.86073	14090.98214
1983.93046	14094.98214
1986.99819	13991.83929
1990.06394	13937.125
1993.1277	13937.98214
1996.18947	13843.26786
1999.24925	13823.83929
2002.30706	13737.98214
2005.36288	13672.41071
2008.41672	13673.125
2011.46859	13615.69643
2014.51848	13625.26786
2017.56639	13578.69643
2020.61233	13505.69643
2023.6563	13480.83929
2026.6983	13421.41071
2029.73833	13418.26786
2032.7764	13368.125
2035.8125	13358.83929
2038.84664	13307.55357
2041.87881	13322.55357
2044.90903	13317.55357
2047.93729	13239.26786
2050.96359	13257.55357
2053.98794	13250.125
2057.01034	13223.69643
2060.03078	13205.98214
2063.04927	13153.125
2066.06582	13194.125
2069.08042	13153.41071
2072.09307	13122.55357
2075.10378	13155.55357
2078.11255	13114.98214
2081.11938	13141.69643
2084.12426	13113.55357
2087.12722	13128.26786
2090.12824	13122.98214
2093.12732	13117.83929
2096.12447	13136.41071
2099.11969	13130.41071
2102.11299	13095.69643
2105.10435	13121.26786
2108.09379	13108.55357
2111.08131	13122.26786
2114.0669	13129.26786
2117.05057	13139.41071
2120.03233	13135.26786
2123.01216	13155.83929
2125.99008	13236.26786
2128.96609	13241.125
2131.94018	13263.41071
2134.91236	13237.83929
2137.88263	13264.55357
2140.851	13194.83929
2143.81746	13218.69643
2146.78201	13184.98214
2149.74466	13225.55357
2152.7054	13166.41071
2155.66425	13188.26786
2158.6212	13162.55357
2161.57625	13106.41071
2164.52941	13133.125
2167.48067	13131.41071
2170.43004	13135.55357
2173.37752	13140.69643
2176.32311	13151.125
2179.26681	13167.55357
2182.20863	13153.26786
2185.14856	13187.41071
2188.08661	13108.83929
2191.02278	13157.55357
2193.95707	13137.26786
2196.88948	13116.125
2199.82001	13073.69643
2202.74867	13076.125
2205.67545	13096.41071
2208.60037	13073.26786
2211.52341	13033.125
2214.44458	13018.69643
2217.36388	13020.69643
2220.28132	12989.98214
2223.1969	12923.26786
2226.11061	12938.55357
2229.02246	12870.83929
2231.93245	12850.55357
2234.84058	12790.69643
2237.74686	12815.26786
2240.65128	12854.83929
2243.55385	12816.69643
2246.45456	12811.26786
2249.35343	12798.83929
2252.25044	12823.125
2255.14561	12851.26786
2258.03893	12801.26786
2260.93041	12801.83929
2263.82004	12785.98214
2266.70783	12744.55357
2269.59378	12720.83929
2272.4779	12661.69643
2275.36017	12645.41071
2278.24061	12626.69643
2281.11922	12590.41071
2283.996	12593.98214
2286.87094	12558.69643
2289.74405	12513.125
2292.61534	12471.69643
2295.4848	12460.26786
2298.35243	12448.98214
2301.21824	12436.98214
2304.08223	12475.69643
2306.94439	12416.41071
2309.80474	12419.98214
2312.66327	12419.41071
2315.51999	12384.69643
2318.37489	12412.125
2321.22797	12421.125
2324.07925	12433.69643
2326.92871	12386.55357
2329.77637	12331.98214
2332.62222	12334.41071
2335.46626	12306.26786
2338.3085	12345.83929
2341.14893	12284.83929
2343.98756	12327.55357
2346.8244	12379.69643
2349.65943	12345.55357
2352.49267	12360.83929
2355.32411	12335.125
2358.15376	12380.125
2360.98161	12391.83929
2363.80768	12399.41071
2366.63195	12405.55357
2369.45444	12434.98214
2372.27514	12403.125
2375.09405	12373.69643
2377.91118	12359.69643
2380.72652	12340.98214
2383.54009	12267.26786
2386.35187	12209.125
2389.16188	12168.125
2391.97011	12110.83929
2394.77657	12062.69643
2397.58125	12078.55357
2400.38416	12046.125
2403.18529	12002.83929
2405.98466	11995.26786
2408.78226	11921.69643
2411.57809	11895.125
2414.37216	11898.83929
2417.16446	11902.125
2419.955	11881.69643
2422.74378	11874.98214
2425.5308	11866.83929
2428.31606	11886.125
2431.09956	11877.125
2433.88131	11877.125
2436.6613	11884.55357
2439.43954	11854.55357
2442.21603	11884.41071
2444.99077	11881.98214
2447.76377	11917.26786
2450.53501	11866.98214
2453.30451	11861.69643
2456.07226	11881.98214
2458.83827	11840.55357
2461.60254	11838.55357
2464.36507	11829.83929
2467.12586	11812.125
2469.88492	11791.55357
2472.64224	11820.69643
2475.39782	11810.26786
2478.15167	11819.41071
2480.90379	11864.41071
2483.65417	11919.26786
2486.40283	11938.26786
2489.14976	11991.26786
2491.89497	11984.69643
2494.63845	12032.83929
2497.3802	11998.69643
2500.12024	11960.98214
2502.85855	11901.125
2505.59514	11863.41071
2508.33002	11792.83929
2511.06318	11786.83929
2513.79462	11704.83929
2516.52435	11681.41071
2519.25237	11622.69643
2521.97867	11605.41071
2524.70327	11584.55357
2527.42616	11561.98214
2530.14734	11544.125
2532.86681	11522.98214
2535.58458	11552.125
2538.30065	11517.41071
2541.01501	11541.55357
2543.72768	11540.55357
2546.43864	11545.55357
2549.14791	11502.125
2551.85548	11507.98214
2554.56136	11512.125
2557.26554	11489.125
2559.96803	11480.125
2562.66883	11441.55357
2565.36794	11413.83929
2568.06536	11402.98214
2570.7611	11389.125
2573.45514	11386.98214
2576.14751	11350.125
2578.83819	11310.69643
2581.52719	11306.55357
2584.21451	11307.26786
2586.90015	11277.98214
2589.58411	11283.125
2592.2664	11269.41071
2594.94701	11241.26786
2597.62594	11240.55357
2600.30321	11234.26786
2602.9788	11205.55357
2605.65273	11190.69643
2608.32498	11208.125
2610.99557	11207.41071
2613.66449	11253.55357
2616.33175	11221.41071
2618.99734	11200.41071
2621.66128	11176.55357
2624.32355	11159.26786
2626.98416	11175.69643
2629.64311	11139.41071
2632.30041	11141.98214
2634.95605	11082.69643
2637.61004	11085.98214
2640.26238	11050.26786
2642.91306	11044.41071
2645.56209	11037.125
2648.20948	11066.83929
2650.85521	11025.69643
2653.4993	11045.125
2656.14175	11045.55357
2658.78255	11072.41071
2661.42171	11040.98214
2664.05923	11084.26786
2666.6951	11070.55357
2669.32934	11126.98214
2671.96194	11122.69643
2674.59291	11125.41071
2677.22224	11127.55357
2679.84993	11120.55357
2682.476	11116.83929
2685.10043	11137.26786
2687.72324	11086.41071
2690.34441	11097.125
2692.96396	11118.41071
2695.58188	11120.55357
2698.19818	11081.41071
2700.81285	11114.69643
2703.4259	11088.41071
2706.03733	11114.125
2708.64714	11108.41071
2711.25533	11148.55357
2713.86191	11134.98214
2716.46687	11139.41071
2719.07021	11155.125
2721.67194	11194.55357
2724.27206	11159.41071
2726.87057	11188.69643
2729.46747	11151.98214
2732.06276	11130.83929
2734.65644	11119.69643
2737.24852	11116.55357
2739.83899	11063.55357
2742.42786	11124.26786
2745.01513	11068.41071
2747.60079	11026.98214
2750.18486	11045.41071
2752.76733	11024.69643
2755.3482	11018.26786
2757.92747	11001.98214
2760.50515	11020.83929
2763.08123	10977.41071
2765.65573	10953.69643
2768.22863	10981.69643
2770.79994	10941.69643
2773.36967	10929.69643
2775.9378	10929.41071
2778.50435	10956.83929
2781.06932	10919.125
2783.6327	10937.41071
2786.1945	10919.69643
2788.75471	10928.55357
2791.31335	10911.69643
2793.87041	10891.98214
2796.42589	10875.26786
2798.97979	10908.98214
2801.53212	10913.98214
2804.08288	10907.69643
2806.63206	10905.69643
2809.17967	10891.83929
2811.72571	10905.83929
2814.27018	10885.69643
2816.81308	10924.41071
2819.35442	10887.125
2821.89419	10901.98214
2824.43239	10922.125
2826.96904	10900.41071
2829.50412	10897.125
2832.03763	10896.69643
2834.56959	10921.83929
2837.1	10893.125
2839.62884	10884.83929
2842.15613	10903.83929
2844.68186	10919.83929
2847.20604	10972.69643
2849.72867	10976.83929
2852.24974	11001.69643
2854.76927	10982.41071
2857.28724	11017.41071
2859.80367	10980.125
2862.31855	10997.41071
2864.83189	10984.125
2867.34368	10960.69643
2869.85393	10989.125
2872.36264	10980.125
2874.8698	10938.83929
2877.37543	10935.69643
2879.87952	10940.26786
2882.38207	10921.98214
2884.88308	10916.41071
2887.38256	10893.55357
2889.88051	10899.41071
2892.37692	10894.26786
2894.8718	10889.98214
2897.36515	10899.98214
2899.85698	10867.55357
2902.34727	10945.98214
2904.83604	10923.98214
2907.32328	10874.41071
2909.809	10875.69643
2912.29319	10919.69643
2914.77587	10882.69643
2917.25702	10884.83929
2919.73665	10844.98214
2922.21476	10853.55357
2924.69136	10834.55357
2927.16644	10813.41071
2929.64	10794.55357
2932.11205	10747.83929
2934.58258	10742.26786
2937.05161	10746.41071
2939.51912	10730.125
2941.98513	10724.55357
2944.44962	10676.55357
2946.91261	10638.98214
2949.37409	10657.83929
2951.83407	10628.55357
2954.29254	10574.26786
2956.74951	10551.83929
2959.20498	10537.41071
2961.65895	10516.26786
2964.11142	10549.83929
2966.56239	10514.98214
2969.01186	10491.41071
2971.45984	10458.83929
2973.90632	10434.69643
2976.35131	10399.26786
2978.7948	10404.26786
2981.23681	10371.83929
2983.67732	10346.69643
2986.11635	10324.125
2988.55388	10303.41071
2990.98993	10307.26786
2993.4245	10278.41071
2995.85758	10237.69643
2998.28917	10263.69643
3000.71928	10223.55357
3003.14791	10207.98214
3005.57506	10205.83929
3008.00073	10167.41071
3010.42493	10171.125
3012.84764	10160.26786
3015.26888	10134.98214
3017.68865	10135.98214
3020.10694	10130.98214
3022.52376	10075.41071
3024.9391	10095.98214
3027.35298	10079.98214
3029.76539	10073.125
3032.17632	10044.41071
3034.5858	10017.83929
3036.9938	10002.83929
3039.40034	9983.83929
3041.80542	9989.125
3044.20903	9944.69643
3046.61118	9950.125
3049.01187	9918.69643
3051.4111	9928.83929
3053.80888	9892.55357
3056.20519	9856.125
3058.60005	9832.125
3060.99345	9809.41071
3063.3854	9769.98214
3065.7759	9719.26786
3068.16494	9726.83929
3070.55254	9691.41071
3072.93868	9663.83929
3075.32338	9632.83929
3077.70662	9611.98214
3080.08842	9596.83929
3082.46878	9547.125
3084.84769	9572.98214
3087.22515	9565.41071
3089.60118	9560.55357
3091.97576	9559.41071
3094.3489	9550.41071
3096.72061	9555.83929
3099.09087	9522.55357
3101.4597	9516.98214
3103.82709	9525.83929
3106.19305	9513.55357
3108.55757	9523.83929
3110.92066	9492.83929
3113.28232	9519.125
3115.64255	9447.41071
3118.00134	9445.125
3120.35871	9442.83929
3122.71466	9414.125
3125.06917	9414.98214
3127.42226	9387.26786
3129.77393	9409.55357
3132.12417	9404.55357
3134.47299	9416.69643
3136.82039	9372.98214
3139.16636	9409.26786
3141.51092	9401.83929
3143.85406	9375.26786
3146.19579	9420.26786
3148.53609	9414.41071
3150.87499	9447.69643
3153.21246	9446.26786
3155.54853	9474.125
3157.88318	9484.55357
3160.21642	9518.125
3162.54826	9464.26786
3164.87868	9478.83929
3167.2077	9449.26786
3169.5353	9471.125
3171.86151	9472.41071
3174.18631	9484.41071
3176.5097	9475.55357
3178.83169	9436.26786
3181.15228	9437.69643
3183.47147	9427.98214
3185.78926	9402.69643
3188.10565	9419.69643
3190.42065	9422.83929
3192.73424	9479.69643
3195.04645	9441.125
3197.35725	9453.98214
3199.66667	9452.26786
3201.97469	9473.55357
3204.28132	9450.41071
3206.58656	9476.69643
3208.8904	9502.125
3211.19287	9530.83929
3213.49394	9534.125
3215.79363	9553.69643
3218.09193	9532.41071
3220.38884	9532.55357
3222.68438	9557.41071
3224.97853	9548.26786
3227.2713	9531.98214
3229.56269	9526.26786
3231.8527	9525.26786
3234.14133	9515.26786
3236.42858	9500.26786
3238.71446	9492.98214
3240.99896	9432.69643
3243.28209	9427.41071
3245.56384	9406.83929
3247.84423	9425.26786
3250.12324	9416.83929
3252.40088	9428.26786
3254.67715	9415.98214
3256.95205	9396.98214
3259.22558	9374.41071
3261.49775	9373.98214
3263.76855	9366.83929
3266.03799	9369.98214
3268.30606	9350.83929
3270.57277	9348.55357
3272.83812	9310.83929
3275.10211	9310.41071
3277.36474	9277.69643
3279.62601	9286.41071
3281.88593	9272.125
3284.14448	9258.125
3286.40168	9277.69643
3288.65753	9269.83929
3290.91202	9274.41071
3293.16516	9224.83929
3295.41695	9225.41071
3297.66738	9173.98214
3299.91647	9148.26786
3302.16421	9090.55357
3304.4106	9058.98214
3306.65564	8994.69643
3308.89933	8944.83929
3311.14169	8874.83929
3313.38269	8791.26786
3315.62236	8740.125
3317.86068	8649.55357
3320.09766	8593.41071
3322.3333	8544.26786
3324.5676	8484.69643
3326.80056	8371.26786
3329.03219	8310.69643
3331.26248	1.69643
3333.49143	0.41071
3335.71905	-0.44643
