Data from AgNPs_FTO_APTES_UA_20uM_CRN_1000uM_R6G_10uM_NaF_0.1M_Addition_RamanShift__20__19-35-05-032.txt Node

Date: Thu Feb 17 19:35:05 GMT 2022
User: TCL
Spectrometer: QEP01345
Trigger mode: 4
Integration Time (sec): 1.000000E1
Scans to average: 7
Electric dark correction enabled: true
Nonlinearity correction enabled: false
Boxcar width: 0
XAxis mode: Raman Shifts
Number of Pixels in Spectrum: 1044
>>>>>Begin Spectral Data<<<<<
46.04893	0.91071
50.45542	-1.375
54.85868	0.76786
59.25871	-0.80357
63.6555	58.19643
68.04907	56.33929
72.43941	58.76786
76.82654	62.05357
81.21044	66.33929
85.59113	71.91071
89.96862	75.33929
94.34289	71.33929
98.71396	75.91071
103.08183	77.76786
107.4465	82.625
111.80798	81.05357
116.16626	83.91071
120.52136	84.19643
124.87327	91.19643
129.222	92.05357
133.56755	91.91071
137.90993	107.19643
142.24913	111.625
146.58517	122.48214
150.91804	142.625
155.24774	167.33929
159.57429	204.33929
163.89768	260.625
168.21792	340.05357
172.53501	464.05357
176.84895	645.05357
181.15975	919.05357
185.46741	1290.19643
189.77193	1787.625
194.07331	2402.625
198.37157	3142.76786
202.6667	3901.05357
206.9587	4667.05357
211.24758	5417.19643
215.53334	6162.33929
219.81599	6963.19643
224.09553	7837.05357
228.37195	8759.91071
232.64527	9856.48214
236.91549	10929.91071
241.18261	12035.76786
245.44663	13020.33929
249.70755	13927.33929
253.96539	14681.91071
258.22014	15276.05357
262.4718	15752.625
266.72039	15997.05357
270.96589	16139.48214
275.20832	16036.91071
279.44768	15867.33929
283.68397	15616.19643
287.91719	15361.91071
292.14735	15216.76786
296.37445	15175.48214
300.59849	15216.19643
304.81948	15375.05357
309.03742	15452.05357
313.25231	15395.33929
317.46415	15160.48214
321.67296	14863.91071
325.87872	14552.05357
330.08145	14439.33929
334.28114	14471.05357
338.47781	14614.05357
342.67145	14806.33929
346.86207	15051.76786
351.04966	15423.91071
355.23424	15837.91071
359.4158	16181.91071
363.59435	16483.625
367.76989	16697.91071
371.94243	16809.76786
376.11196	16889.76786
380.27849	16975.76786
384.44203	17061.05357
388.60257	17079.33929
392.76012	17099.19643
396.91468	17239.91071
401.06626	17429.625
405.21485	17582.91071
409.36047	17544.05357
413.50311	17287.76786
417.64277	17052.76786
421.77947	16875.91071
425.9132	16828.625
430.04396	16866.05357
434.17176	16977.33929
438.2966	17186.05357
442.41849	17448.33929
446.53742	17812.19643
450.6534	18211.76786
454.76644	18442.76786
458.87653	18576.625
462.98368	18518.05357
467.08789	18397.19643
471.18916	18154.19643
475.2875	17907.05357
479.38291	17780.33929
483.4754	17624.625
487.56496	17532.91071
491.6516	17444.91071
495.73531	17407.91071
499.81612	17422.76786
503.89401	17559.91071
507.96899	17603.48214
512.04106	17658.33929
516.11023	17752.33929
520.1765	17832.33929
524.23987	17854.33929
528.30034	17814.91071
532.35792	17770.33929
536.41261	17714.91071
540.46441	17603.33929
544.51333	17506.91071
548.55936	17538.05357
552.60252	17644.91071
556.64279	17806.19643
560.6802	17898.91071
564.71473	17984.33929
568.7464	18080.48214
572.7752	18173.76786
576.80114	18153.48214
580.82422	18072.33929
584.84444	18210.625
588.86181	18394.76786
592.87633	18735.19643
596.888	18937.19643
600.89682	19100.05357
604.9028	19646.05357
608.90594	21506.05357
612.90624	23760.76786
616.90371	23077.91071
620.89834	19864.05357
624.89015	18363.76786
628.87913	18086.48214
632.86528	18192.33929
636.84862	18282.48214
640.82913	18211.19643
644.80683	17918.48214
648.78172	17665.33929
652.75379	17647.76786
656.72306	17853.91071
660.68952	18133.05357
664.65319	18104.76786
668.61405	17898.05357
672.57211	17920.19643
676.52738	18071.05357
680.47986	18254.91071
684.42955	18174.19643
688.37646	17997.19643
692.32058	17871.19643
696.26192	17862.48214
700.20048	17947.76786
704.13626	17969.48214
708.06928	17918.19643
711.99952	17792.05357
715.927	17644.19643
719.85171	17647.48214
723.77365	17708.91071
727.69284	17704.33929
731.60928	17643.76786
735.52295	17632.05357
739.43388	17635.76786
743.34206	17618.33929
747.24749	17660.625
751.15017	17654.625
755.05012	17722.48214
758.94733	17964.48214
762.8418	18564.48214
766.73354	19644.19643
770.62254	20848.19643
774.50882	21611.33929
778.39237	21162.91071
782.27321	19917.91071
786.15132	18635.05357
790.02671	17862.76786
793.89938	17453.05357
797.76935	17314.76786
801.6366	17206.91071
805.50115	17252.19643
809.36299	17171.33929
813.22213	17082.33929
817.07857	17086.625
820.93231	17006.625
824.78336	16980.19643
828.63172	16984.19643
832.47738	16971.33929
836.32036	16970.76786
840.16066	16962.625
843.99827	16988.05357
847.8332	16949.33929
851.66546	16960.33929
855.49504	16985.19643
859.32195	17048.76786
863.1462	17083.48214
866.96777	17123.48214
870.78668	17126.625
874.60293	17116.33929
878.41652	17098.48214
882.22745	17133.05357
886.03573	17152.625
889.84136	17154.91071
893.64433	17109.19643
897.44466	17046.76786
901.24235	16929.91071
905.0374	16856.19643
908.8298	16743.19643
912.61957	16703.33929
916.40671	16720.19643
920.19121	16762.05357
923.97308	16885.48214
927.75233	16966.19643
931.52895	16999.33929
935.30295	16924.91071
939.07433	16791.76786
942.84309	16637.625
946.60924	16529.625
950.37278	16429.33929
954.13371	16377.48214
957.89203	16293.91071
961.64774	16277.625
965.40086	16220.19643
969.15137	16188.76786
972.89929	16142.48214
976.64461	16090.19643
980.38733	16140.48214
984.12747	16161.19643
987.86502	16214.19643
991.59999	16286.19643
995.33237	16409.625
999.06217	16618.33929
1002.78939	16872.625
1006.51404	17035.05357
1010.23611	17183.48214
1013.95561	17264.48214
1017.67255	17325.33929
1021.38692	17288.625
1025.09872	17198.05357
1028.80796	17104.19643
1032.51465	17200.19643
1036.21877	17337.48214
1039.92035	17388.625
1043.61937	17360.48214
1047.31584	17237.625
1051.00976	17107.19643
1054.70114	17042.33929
1058.38998	17027.48214
1062.07627	16976.91071
1065.76003	17031.05357
1069.44126	17014.33929
1073.11995	17101.33929
1076.79611	17217.19643
1080.46974	17275.33929
1084.14085	17392.33929
1087.80943	17535.33929
1091.47549	17580.05357
1095.13903	17481.33929
1098.80005	17372.05357
1102.45857	17208.625
1106.11456	17135.625
1109.76805	17198.91071
1113.41903	17306.48214
1117.06751	17472.19643
1120.71348	17758.19643
1124.35696	17990.05357
1127.99793	18189.05357
1131.63641	18302.76786
1135.2724	18150.76786
1138.90589	17877.05357
1142.5369	17641.76786
1146.16542	17457.19643
1149.79145	17330.33929
1153.415	17266.05357
1157.03607	17276.19643
1160.65467	17482.05357
1164.27079	17788.33929
1167.88443	18277.19643
1171.49561	18875.76786
1175.10432	19806.48214
1178.71056	20975.33929
1182.31434	22149.19643
1185.91565	22675.05357
1189.51451	22536.19643
1193.11091	21836.91071
1196.70485	21132.76786
1200.29634	20506.48214
1203.88538	19970.91071
1207.47197	19450.625
1211.05612	18935.48214
1214.63782	18603.19643
1218.21708	18496.33929
1221.79391	18462.33929
1225.36829	18500.19643
1228.94024	18499.625
1232.50976	18346.05357
1236.07685	18210.91071
1239.6415	18157.91071
1243.20374	18168.91071
1246.76355	18255.91071
1250.32093	18349.625
1253.8759	18539.48214
1257.42845	18837.48214
1260.97859	19105.33929
1264.52631	19392.19643
1268.07163	19666.76786
1271.61453	19964.19643
1275.15503	20279.76786
1278.69312	20535.05357
1282.22882	20766.33929
1285.76211	20972.33929
1289.29301	21244.19643
1292.82151	21644.33929
1296.34761	22138.91071
1299.87133	22851.33929
1303.39266	23821.625
1306.9116	25063.625
1310.42815	26513.48214
1313.94233	27252.33929
1317.45412	26938.48214
1320.96354	25962.91071
1324.47058	24945.76786
1327.97525	24038.05357
1331.47754	23381.48214
1334.97747	23121.76786
1338.47502	23143.76786
1341.97022	23422.625
1345.46305	23872.76786
1348.95352	24497.05357
1352.44163	25357.33929
1355.92738	26571.625
1359.41078	28205.48214
1362.89183	29658.76786
1366.37053	29226.05357
1369.84688	26590.91071
1373.32088	23755.33929
1376.79254	21881.625
1380.26186	20892.33929
1383.72883	20377.33929
1387.19347	20096.76786
1390.65578	19708.91071
1394.11575	19397.625
1397.57339	19297.91071
1401.0287	19361.48214
1404.48168	19550.91071
1407.93234	19649.48214
1411.38068	19722.48214
1414.82669	19740.48214
1418.27039	19630.76786
1421.71177	19471.05357
1425.15083	19152.625
1428.58758	18947.91071
1432.02203	18960.48214
1435.45416	19059.91071
1438.88399	19240.91071
1442.31151	19297.76786
1445.73673	19332.91071
1449.15965	19374.91071
1452.58027	19345.76786
1455.9986	19323.76786
1459.41463	19303.76786
1462.82837	19426.33929
1466.23982	19676.05357
1469.64898	19980.48214
1473.05586	20249.91071
1476.46045	20372.19643
1479.86276	20470.91071
1483.26279	20519.625
1486.66054	20645.76786
1490.05602	20746.48214
1493.44922	21045.625
1496.84016	21448.33929
1500.22882	22127.76786
1503.61521	23198.05357
1506.99934	24463.33929
1510.38121	25512.76786
1513.76081	25624.91071
1517.13816	24703.05357
1520.51324	23230.91071
1523.88607	21809.48214
1527.25665	20938.33929
1530.62498	20509.625
1533.99105	20204.19643
1537.35488	20093.19643
1540.71647	19974.625
1544.07581	19882.19643
1547.4329	19808.625
1550.78776	19725.625
1554.14038	19682.76786
1557.49077	19674.625
1560.83892	19738.48214
1564.18484	19861.625
1567.52853	20046.33929
1570.86999	20205.91071
1574.20922	20328.48214
1577.54624	20402.76786
1580.88103	20050.48214
1584.2136	19658.05357
1587.54395	19425.625
1590.87208	19641.625
1594.19801	20313.91071
1597.52172	21218.76786
1600.84321	21729.625
1604.16251	21523.05357
1607.47959	20778.91071
1610.79447	19823.625
1614.10715	18869.76786
1617.41763	18108.91071
1620.7259	17544.33929
1624.03199	17212.05357
1627.33587	17160.48214
1630.63757	17278.19643
1633.93707	17760.19643
1637.23439	18471.625
1640.52951	19588.48214
1643.82246	20975.19643
1647.11321	22342.48214
1650.40179	22963.33929
1653.68819	22216.05357
1656.97241	20441.625
1660.25446	18613.05357
1663.53433	17295.48214
1666.81203	16463.91071
1670.08756	15980.625
1673.36092	15656.91071
1676.63211	15448.48214
1679.90115	15239.05357
1683.16801	15082.91071
1686.43272	14968.19643
1689.69527	14876.19643
1692.95567	14793.91071
1696.2139	14737.19643
1699.46999	14718.33929
1702.72392	14675.33929
1705.97571	14644.48214
1709.22535	14627.33929
1712.47284	14568.76786
1715.71819	14549.48214
1718.96139	14492.625
1722.20246	14436.05357
1725.44139	14397.05357
1728.67818	14403.48214
1731.91284	14340.91071
1735.14537	14306.91071
1738.37576	14294.33929
1741.60403	14267.76786
1744.83017	14227.05357
1748.05418	14220.625
1751.27607	14212.91071
1754.49584	14243.76786
1757.71349	14186.625
1760.92903	14159.625
1764.14244	14134.91071
1767.35375	14086.19643
1770.56294	13991.48214
1773.77002	13945.91071
1776.97499	13928.48214
1780.17785	13866.05357
1783.37861	13852.91071
1786.57727	13832.19643
1789.77382	13744.05357
1792.96828	13757.76786
1796.16064	13696.625
1799.3509	13637.48214
1802.53907	13663.625
1805.72514	13622.33929
1808.90913	13605.76786
1812.09102	13546.05357
1815.27083	13490.05357
1818.44856	13511.76786
1821.6242	13491.33929
1824.79776	13487.625
1827.96924	13439.19643
1831.13864	13427.05357
1834.30597	13401.625
1837.47122	13371.76786
1840.6344	13391.05357
1843.7955	13388.625
1846.95454	13348.625
1850.11151	13344.91071
1853.26642	13342.05357
1856.41926	13322.76786
1859.57004	13326.19643
1862.71876	13309.05357
1865.86542	13293.19643
1869.01003	13310.76786
1872.15258	13305.76786
1875.29308	13296.48214
1878.43152	13284.19643
1881.56792	13260.19643
1884.70227	13271.91071
1887.83457	13242.48214
1890.96482	13243.19643
1894.09304	13186.91071
1897.21921	13190.19643
1900.34335	13184.48214
1903.46544	13182.19643
1906.58551	13153.05357
1909.70353	13140.91071
1912.81953	13117.33929
1915.93349	13091.76786
1919.04543	13072.91071
1922.15534	13081.19643
1925.26322	13043.91071
1928.36908	13032.33929
1931.47292	13029.76786
1934.57473	12972.05357
1937.67453	12985.625
1940.77232	12899.625
1943.86808	12885.33929
1946.96184	12838.91071
1950.05358	12810.76786
1953.14331	12787.48214
1956.23103	12775.76786
1959.31675	12731.05357
1962.40046	12704.05357
1965.48217	12686.05357
1968.56188	12644.05357
1971.63959	12596.76786
1974.7153	12582.76786
1977.78901	12554.625
1980.86073	12528.91071
1983.93046	12470.91071
1986.99819	12437.19643
1990.06394	12392.76786
1993.1277	12377.05357
1996.18947	12272.05357
1999.24925	12287.33929
2002.30706	12242.91071
2005.36288	12181.76786
2008.41672	12182.19643
2011.46859	12140.19643
2014.51848	12073.625
2017.56639	12048.91071
2020.61233	12050.76786
2023.6563	12008.48214
2026.6983	11951.625
2029.73833	11947.91071
2032.7764	11935.48214
2035.8125	11887.48214
2038.84664	11844.33929
2041.87881	11850.76786
2044.90903	11826.91071
2047.93729	11804.625
2050.96359	11805.76786
2053.98794	11780.19643
2057.01034	11803.05357
2060.03078	11755.19643
2063.04927	11763.91071
2066.06582	11742.48214
2069.08042	11760.76786
2072.09307	11754.33929
2075.10378	11727.48214
2078.11255	11735.05357
2081.11938	11720.05357
2084.12426	11713.91071
2087.12722	11731.19643
2090.12824	11719.76786
2093.12732	11724.19643
2096.12447	11721.05357
2099.11969	11720.625
2102.11299	11701.625
2105.10435	11742.625
2108.09379	11755.33929
2111.08131	11729.625
2114.0669	11750.33929
2117.05057	11789.05357
2120.03233	11766.91071
2123.01216	11805.19643
2125.99008	11817.91071
2128.96609	11823.48214
2131.94018	11818.05357
2134.91236	11839.91071
2137.88263	11853.05357
2140.851	11833.19643
2143.81746	11852.625
2146.78201	11834.05357
2149.74466	11850.33929
2152.7054	11869.05357
2155.66425	11839.48214
2158.6212	11872.76786
2161.57625	11832.33929
2164.52941	11812.05357
2167.48067	11821.91071
2170.43004	11824.19643
2173.37752	11823.33929
2176.32311	11841.48214
2179.26681	11818.33929
2182.20863	11811.33929
2185.14856	11838.625
2188.08661	11818.48214
2191.02278	11815.48214
2193.95707	11832.33929
2196.88948	11797.05357
2199.82001	11779.05357
2202.74867	11780.48214
2205.67545	11785.05357
2208.60037	11765.05357
2211.52341	11756.76786
2214.44458	11741.33929
2217.36388	11745.19643
2220.28132	11715.33929
2223.1969	11673.33929
2226.11061	11671.33929
2229.02246	11646.05357
2231.93245	11599.76786
2234.84058	11554.19643
2237.74686	11579.48214
2240.65128	11608.05357
2243.55385	11577.91071
2246.45456	11574.625
2249.35343	11533.91071
2252.25044	11530.33929
2255.14561	11501.19643
2258.03893	11514.48214
2260.93041	11500.76786
2263.82004	11465.48214
2266.70783	11422.76786
2269.59378	11371.05357
2272.4779	11357.76786
2275.36017	11342.33929
2278.24061	11338.625
2281.11922	11296.19643
2283.996	11305.76786
2286.87094	11294.625
2289.74405	11268.33929
2292.61534	11249.19643
2295.4848	11260.625
2298.35243	11253.76786
2301.21824	11242.76786
2304.08223	11229.19643
2306.94439	11215.91071
2309.80474	11222.05357
2312.66327	11213.48214
2315.51999	11224.625
2318.37489	11196.05357
2321.22797	11186.625
2324.07925	11161.19643
2326.92871	11163.05357
2329.77637	11128.48214
2332.62222	11106.625
2335.46626	11097.48214
2338.3085	11122.19643
2341.14893	11091.05357
2343.98756	11104.91071
2346.8244	11079.33929
2349.65943	11087.05357
2352.49267	11077.91071
2355.32411	11052.91071
2358.15376	11065.91071
2360.98161	11054.625
2363.80768	11045.625
2366.63195	11044.76786
2369.45444	11012.33929
2372.27514	11009.625
2375.09405	10995.76786
2377.91118	10992.33929
2380.72652	10934.625
2383.54009	10950.48214
2386.35187	10909.33929
2389.16188	10883.76786
2391.97011	10877.625
2394.77657	10860.05357
2397.58125	10867.19643
2400.38416	10827.05357
2403.18529	10880.625
2405.98466	10799.48214
2408.78226	10768.48214
2411.57809	10760.05357
2414.37216	10777.33929
2417.16446	10740.625
2419.955	10732.05357
2422.74378	10719.91071
2425.5308	10708.19643
2428.31606	10706.625
2431.09956	10720.91071
2433.88131	10680.625
2436.6613	10674.76786
2439.43954	10688.05357
2442.21603	10668.91071
2444.99077	10685.19643
2447.76377	10651.76786
2450.53501	10672.19643
2453.30451	10677.625
2456.07226	10624.91071
2458.83827	10610.19643
2461.60254	10616.76786
2464.36507	10589.33929
2467.12586	10568.91071
2469.88492	10568.48214
2472.64224	10582.625
2475.39782	10573.48214
2478.15167	10596.91071
2480.90379	10585.76786
2483.65417	10570.91071
2486.40283	10587.33929
2489.14976	10607.625
2491.89497	10574.05357
2494.63845	10587.48214
2497.3802	10582.91071
2500.12024	10608.05357
2502.85855	10549.91071
2505.59514	10510.76786
2508.33002	10500.76786
2511.06318	10488.91071
2513.79462	10518.48214
2516.52435	10470.91071
2519.25237	10488.05357
2521.97867	10425.76786
2524.70327	10444.48214
2527.42616	10434.625
2530.14734	10452.91071
2532.86681	10425.625
2535.58458	10408.91071
2538.30065	10404.48214
2541.01501	10379.91071
2543.72768	10420.48214
2546.43864	10389.76786
2549.14791	10345.625
2551.85548	10345.625
2554.56136	10340.48214
2557.26554	10331.48214
2559.96803	10288.19643
2562.66883	10259.19643
2565.36794	10238.19643
2568.06536	10227.33929
2570.7611	10235.05357
2573.45514	10226.05357
2576.14751	10160.91071
2578.83819	10164.05357
2581.52719	10195.19643
2584.21451	10167.05357
2586.90015	10145.33929
2589.58411	10137.91071
2592.2664	10149.91071
2594.94701	10138.76786
2597.62594	10094.91071
2600.30321	10059.76786
2602.9788	10046.625
2605.65273	10010.625
2608.32498	10018.19643
2610.99557	10035.91071
2613.66449	10044.76786
2616.33175	10037.625
2618.99734	10041.19643
2621.66128	10028.33929
2624.32355	10001.625
2626.98416	9991.48214
2629.64311	9987.76786
2632.30041	9968.05357
2634.95605	9946.48214
2637.61004	9931.33929
2640.26238	9910.625
2642.91306	9967.19643
2645.56209	9921.76786
2648.20948	9916.48214
2650.85521	9920.05357
2653.4993	9918.05357
2656.14175	9912.48214
2658.78255	9942.33929
2661.42171	9936.05357
2664.05923	9922.48214
2666.6951	9930.48214
2669.32934	9941.05357
2671.96194	9942.76786
2674.59291	9942.05357
2677.22224	9917.05357
2679.84993	9943.19643
2682.476	9930.625
2685.10043	9937.48214
2687.72324	9938.91071
2690.34441	9909.625
2692.96396	9907.76786
2695.58188	9948.05357
2698.19818	9915.76786
2700.81285	9927.76786
2703.4259	9922.76786
2706.03733	9900.48214
2708.64714	9894.05357
2711.25533	9938.91071
2713.86191	9926.33929
2716.46687	9907.91071
2719.07021	9931.19643
2721.67194	9941.33929
2724.27206	9917.48214
2726.87057	9931.91071
2729.46747	9931.05357
2732.06276	9928.19643
2734.65644	9904.19643
2737.24852	9922.05357
2739.83899	9925.76786
2742.42786	9893.19643
2745.01513	9880.76786
2747.60079	9876.76786
2750.18486	9872.48214
2752.76733	9856.91071
2755.3482	9869.33929
2757.92747	9861.05357
2760.50515	9858.91071
2763.08123	9864.625
2765.65573	9827.48214
2768.22863	9817.05357
2770.79994	9817.48214
2773.36967	9799.05357
2775.9378	9797.33929
2778.50435	9805.76786
2781.06932	9792.19643
2783.6327	9755.33929
2786.1945	9742.19643
2788.75471	9739.76786
2791.31335	9749.33929
2793.87041	9717.19643
2796.42589	9725.19643
2798.97979	9681.625
2801.53212	9674.91071
2804.08288	9676.48214
2806.63206	9641.76786
2809.17967	9618.33929
2811.72571	9631.33929
2814.27018	9617.05357
2816.81308	9585.48214
2819.35442	9570.19643
2821.89419	9591.76786
2824.43239	9567.625
2826.96904	9554.48214
2829.50412	9551.05357
2832.03763	9528.05357
2834.56959	9568.05357
2837.1	9545.48214
2839.62884	9549.19643
2842.15613	9489.48214
2844.68186	9543.91071
2847.20604	9510.625
2849.72867	9530.33929
2852.24974	9508.05357
2854.76927	9499.48214
2857.28724	9467.05357
2859.80367	9459.05357
2862.31855	9458.625
2864.83189	9427.19643
2867.34368	9428.625
2869.85393	9455.19643
2872.36264	9418.33929
2874.8698	9416.48214
2877.37543	9433.48214
2879.87952	9439.625
2882.38207	9422.91071
2884.88308	9435.625
2887.38256	9467.33929
2889.88051	9464.33929
2892.37692	9490.19643
2894.8718	9514.76786
2897.36515	9497.76786
2899.85698	9521.05357
2902.34727	9574.76786
2904.83604	9542.76786
2907.32328	9569.48214
2909.809	9576.19643
2912.29319	9592.05357
2914.77587	9602.76786
2917.25702	9629.625
2919.73665	9604.05357
2922.21476	9612.625
2924.69136	9623.76786
2927.16644	9614.19643
2929.64	9636.33929
2932.11205	9585.19643
2934.58258	9559.33929
2937.05161	9589.625
2939.51912	9603.76786
2941.98513	9610.05357
2944.44962	9580.19643
2946.91261	9563.19643
2949.37409	9557.05357
2951.83407	9539.33929
2954.29254	9553.05357
2956.74951	9538.48214
2959.20498	9518.76786
2961.65895	9516.05357
2964.11142	9524.19643
2966.56239	9482.05357
2969.01186	9462.48214
2971.45984	9425.625
2973.90632	9425.05357
2976.35131	9393.05357
2978.7948	9371.91071
2981.23681	9364.33929
2983.67732	9359.48214
2986.11635	9327.05357
2988.55388	9312.625
2990.98993	9287.625
2993.4245	9276.48214
2995.85758	9254.05357
2998.28917	9240.48214
3000.71928	9219.19643
3003.14791	9227.48214
3005.57506	9217.33929
3008.00073	9205.76786
3010.42493	9152.625
3012.84764	9148.625
3015.26888	9185.33929
3017.68865	9137.05357
3020.10694	9133.625
3022.52376	9115.33929
3024.9391	9113.76786
3027.35298	9079.91071
3029.76539	9095.76786
3032.17632	9085.625
3034.5858	9077.625
3036.9938	9047.625
3039.40034	9048.19643
3041.80542	9070.48214
3044.20903	9000.33929
3046.61118	9028.91071
3049.01187	9004.19643
3051.4111	8983.33929
3053.80888	8974.76786
3056.20519	8971.19643
3058.60005	8944.91071
3060.99345	8937.625
3063.3854	8916.33929
3065.7759	8893.76786
3068.16494	8899.05357
3070.55254	8836.76786
3072.93868	8851.76786
3075.32338	8826.19643
3077.70662	8844.76786
3080.08842	8825.48214
3082.46878	8807.625
3084.84769	8800.91071
3087.22515	8792.91071
3089.60118	8795.05357
3091.97576	8815.19643
3094.3489	8826.48214
3096.72061	8827.05357
3099.09087	8833.91071
3101.4597	8819.05357
3103.82709	8824.91071
3106.19305	8820.76786
3108.55757	8842.33929
3110.92066	8810.76786
3113.28232	8816.05357
3115.64255	8787.91071
3118.00134	8795.33929
3120.35871	8782.05357
3122.71466	8763.48214
3125.06917	8761.33929
3127.42226	8750.91071
3129.77393	8767.76786
3132.12417	8739.33929
3134.47299	8744.91071
3136.82039	8758.19643
3139.16636	8765.91071
3141.51092	8764.625
3143.85406	8762.76786
3146.19579	8782.48214
3148.53609	8778.625
3150.87499	8772.625
3153.21246	8814.48214
3155.54853	8828.91071
3157.88318	8844.91071
3160.21642	8819.05357
3162.54826	8860.33929
3164.87868	8863.33929
3167.2077	8835.625
3169.5353	8863.05357
3171.86151	8865.76786
3174.18631	8862.33929
3176.5097	8890.91071
3178.83169	8846.91071
3181.15228	8858.48214
3183.47147	8834.91071
3185.78926	8812.91071
3188.10565	8810.625
3190.42065	8834.19643
3192.73424	8818.19643
3195.04645	8829.05357
3197.35725	8846.625
3199.66667	8827.625
3201.97469	8834.48214
3204.28132	8822.33929
3206.58656	8884.76786
3208.8904	8876.48214
3211.19287	8903.05357
3213.49394	8914.91071
3215.79363	8901.76786
3218.09193	8903.05357
3220.38884	8910.76786
3222.68438	8928.625
3224.97853	8907.19643
3227.2713	8899.625
3229.56269	8904.19643
3231.8527	8894.625
3234.14133	8885.05357
3236.42858	8842.48214
3238.71446	8860.33929
3240.99896	8869.19643
3243.28209	8808.33929
3245.56384	8809.19643
3247.84423	8823.625
3250.12324	8804.625
3252.40088	8801.05357
3254.67715	8813.76786
3256.95205	8791.91071
3259.22558	8803.19643
3261.49775	8790.76786
3263.76855	8799.19643
3266.03799	8770.48214
3268.30606	8758.625
3270.57277	8756.625
3272.83812	8753.625
3275.10211	8743.33929
3277.36474	8759.19643
3279.62601	8725.33929
3281.88593	8717.05357
3284.14448	8694.91071
3286.40168	8730.33929
3288.65753	8697.48214
3290.91202	8686.33929
3293.16516	8675.48214
3295.41695	8654.625
3297.66738	8619.33929
3299.91647	8588.33929
3302.16421	8533.19643
3304.4106	8504.19643
3306.65564	8449.625
3308.89933	8383.19643
3311.14169	8358.33929
3313.38269	8260.05357
3315.62236	8254.19643
3317.86068	8156.33929
3320.09766	8119.05357
3322.3333	8086.19643
3324.5676	8033.05357
3326.80056	7911.19643
3329.03219	7897.05357
3331.26248	1.625
3333.49143	-2.375
3335.71905	-0.51786
