Data from AgNPs_FTO_APTES_UA_20uM_CRN_1000uM_R6G_10uM_NaF_0.1M_Addition_RamanShift__13__19-26-55-022.txt Node

Date: Thu Feb 17 19:26:55 GMT 2022
User: TCL
Spectrometer: QEP01345
Trigger mode: 4
Integration Time (sec): 1.000000E1
Scans to average: 7
Electric dark correction enabled: true
Nonlinearity correction enabled: false
Boxcar width: 0
XAxis mode: Raman Shifts
Number of Pixels in Spectrum: 1044
>>>>>Begin Spectral Data<<<<<
46.04893	0.23214
50.45542	-1.19643
54.85868	1.08929
59.25871	-0.19643
63.6555	48.23214
68.04907	42.80357
72.43941	54.08929
76.82654	54.51786
81.21044	58.375
85.59113	59.23214
89.96862	61.80357
94.34289	65.08929
98.71396	70.23214
103.08183	66.23214
107.4465	66.80357
111.80798	72.375
116.16626	68.66071
120.52136	72.80357
124.87327	77.08929
129.222	77.23214
133.56755	77.80357
137.90993	84.80357
142.24913	90.94643
146.58517	98.08929
150.91804	109.08929
155.24774	126.66071
159.57429	154.375
163.89768	193.23214
168.21792	248.375
172.53501	341.51786
176.84895	457.51786
181.15975	646.51786
185.46741	924.51786
189.77193	1265.23214
194.07331	1710.94643
198.37157	2216.375
202.6667	2759.375
206.9587	3312.375
211.24758	3835.08929
215.53334	4349.08929
219.81599	4906.51786
224.09553	5483.94643
228.37195	6107.23214
232.64527	6848.08929
236.91549	7601.375
241.18261	8380.94643
245.44663	9148.51786
249.70755	9844.66071
253.96539	10459.94643
258.22014	10892.66071
262.4718	11272.94643
266.72039	11470.80357
270.96589	11593.66071
275.20832	11543.08929
279.44768	11408.94643
283.68397	11197.51786
287.91719	11047.51786
292.14735	10904.23214
296.37445	10767.08929
300.59849	10744.375
304.81948	10667.51786
309.03742	10701.375
313.25231	10644.375
317.46415	10609.66071
321.67296	10502.23214
325.87872	10421.23214
330.08145	10421.23214
334.28114	10463.375
338.47781	10550.66071
342.67145	10681.375
346.86207	10814.375
351.04966	10975.23214
355.23424	11151.80357
359.4158	11334.375
363.59435	11477.08929
367.76989	11609.23214
371.94243	11704.375
376.11196	11774.08929
380.27849	11877.51786
384.44203	11957.375
388.60257	12061.23214
392.76012	12141.23214
396.91468	12277.66071
401.06626	12407.66071
405.21485	12477.94643
409.36047	12502.80357
413.50311	12492.66071
417.64277	12432.80357
421.77947	12408.66071
425.9132	12403.66071
430.04396	12489.23214
434.17176	12534.51786
438.2966	12689.51786
442.41849	12774.23214
446.53742	12969.94643
450.6534	13064.375
454.76644	13194.51786
458.87653	13264.51786
462.98368	13336.80357
467.08789	13335.80357
471.18916	13325.80357
475.2875	13281.08929
479.38291	13197.375
483.4754	13181.66071
487.56496	13174.375
491.6516	13141.08929
495.73531	13178.08929
499.81612	13170.94643
503.89401	13243.08929
507.96899	13266.51786
512.04106	13323.80357
516.11023	13332.80357
520.1765	13373.23214
524.23987	13420.66071
528.30034	13396.51786
532.35792	13403.23214
536.41261	13392.66071
540.46441	13346.94643
544.51333	13365.08929
548.55936	13441.94643
552.60252	13506.94643
556.64279	13603.51786
560.6802	13638.51786
564.71473	13685.66071
568.7464	13693.94643
572.7752	13722.375
576.80114	13728.23214
580.82422	13812.23214
584.84444	13854.80357
588.86181	13897.375
592.87633	13976.94643
596.888	14057.375
600.89682	14235.08929
604.9028	14526.08929
608.90594	15262.08929
612.90624	16062.94643
616.90371	15790.80357
620.89834	14622.66071
624.89015	14000.23214
628.87913	13926.51786
632.86528	13975.80357
636.84862	14071.08929
640.82913	14050.66071
644.80683	13987.23214
648.78172	13897.51786
652.75379	13915.08929
656.72306	14040.51786
660.68952	14174.51786
664.65319	14170.51786
668.61405	14158.08929
672.57211	14198.08929
676.52738	14349.66071
680.47986	14471.66071
684.42955	14447.23214
688.37646	14470.66071
692.32058	14457.80357
696.26192	14496.08929
700.20048	14530.80357
704.13626	14514.66071
708.06928	14476.23214
711.99952	14418.375
715.927	14346.80357
719.85171	14330.66071
723.77365	14294.51786
727.69284	14308.80357
731.60928	14269.08929
735.52295	14248.23214
739.43388	14217.80357
743.34206	14252.94643
747.24749	14269.375
751.15017	14316.51786
755.05012	14387.80357
758.94733	14498.66071
762.8418	14730.23214
766.73354	15169.80357
770.62254	15596.08929
774.50882	15899.08929
778.39237	15751.80357
782.27321	15277.66071
786.15132	14871.08929
790.02671	14552.80357
793.89938	14327.51786
797.76935	14270.08929
801.6366	14234.51786
805.50115	14215.23214
809.36299	14176.51786
813.22213	14173.08929
817.07857	14171.51786
820.93231	14177.80357
824.78336	14200.08929
828.63172	14218.375
832.47738	14201.08929
836.32036	14240.51786
840.16066	14207.94643
843.99827	14209.66071
847.8332	14235.08929
851.66546	14271.08929
855.49504	14330.08929
859.32195	14311.375
863.1462	14332.80357
866.96777	14341.375
870.78668	14342.80357
874.60293	14385.94643
878.41652	14390.23214
882.22745	14388.23214
886.03573	14434.08929
889.84136	14444.08929
893.64433	14430.66071
897.44466	14436.23214
901.24235	14418.08929
905.0374	14412.66071
908.8298	14398.66071
912.61957	14357.80357
916.40671	14370.51786
920.19121	14393.375
923.97308	14405.51786
927.75233	14429.23214
931.52895	14426.23214
935.30295	14378.66071
939.07433	14283.94643
942.84309	14225.66071
946.60924	14215.51786
950.37278	14155.375
954.13371	14149.80357
957.89203	14117.375
961.64774	14089.23214
965.40086	14098.23214
969.15137	14088.23214
972.89929	14068.94643
976.64461	14081.08929
980.38733	14050.375
984.12747	14082.23214
987.86502	14114.375
991.59999	14136.80357
995.33237	14152.08929
999.06217	14205.80357
1002.78939	14271.23214
1006.51404	14323.23214
1010.23611	14448.80357
1013.95561	14522.66071
1017.67255	14562.51786
1021.38692	14520.94643
1025.09872	14509.80357
1028.80796	14455.23214
1032.51465	14413.23214
1036.21877	14397.94643
1039.92035	14428.80357
1043.61937	14456.94643
1047.31584	14493.375
1051.00976	14540.23214
1054.70114	14591.66071
1058.38998	14632.08929
1062.07627	14640.80357
1065.76003	14671.66071
1069.44126	14696.08929
1073.11995	14768.375
1076.79611	14855.51786
1080.46974	14911.23214
1084.14085	14931.80357
1087.80943	14941.08929
1091.47549	14959.08929
1095.13903	14988.66071
1098.80005	14923.51786
1102.45857	14846.94643
1106.11456	14827.23214
1109.76805	14801.94643
1113.41903	14824.51786
1117.06751	14829.51786
1120.71348	14919.23214
1124.35696	14979.375
1127.99793	15057.94643
1131.63641	15079.80357
1135.2724	15071.80357
1138.90589	14971.23214
1142.5369	14914.375
1146.16542	14861.08929
1149.79145	14808.51786
1153.415	14800.66071
1157.03607	14818.375
1160.65467	14862.51786
1164.27079	14960.66071
1167.88443	15158.08929
1171.49561	15414.23214
1175.10432	15724.66071
1178.71056	16153.375
1182.31434	16629.08929
1185.91565	16877.66071
1189.51451	16957.51786
1193.11091	16913.80357
1196.70485	16756.94643
1200.29634	16578.80357
1203.88538	16348.08929
1207.47197	16079.23214
1211.05612	15749.66071
1214.63782	15580.23214
1218.21708	15422.94643
1221.79391	15391.66071
1225.36829	15361.80357
1228.94024	15349.94643
1232.50976	15360.08929
1236.07685	15335.66071
1239.6415	15364.94643
1243.20374	15410.94643
1246.76355	15459.375
1250.32093	15513.51786
1253.8759	15571.51786
1257.42845	15681.80357
1260.97859	15804.94643
1264.52631	15898.23214
1268.07163	16037.66071
1271.61453	16128.375
1275.15503	16180.94643
1278.69312	16225.08929
1282.22882	16292.08929
1285.76211	16329.51786
1289.29301	16422.80357
1292.82151	16527.94643
1296.34761	16658.51786
1299.87133	16877.08929
1303.39266	17163.23214
1306.9116	17501.51786
1310.42815	17879.80357
1313.94233	18105.94643
1317.45412	18009.66071
1320.96354	17808.23214
1324.47058	17585.94643
1327.97525	17340.66071
1331.47754	17170.80357
1334.97747	17146.51786
1338.47502	17217.51786
1341.97022	17442.08929
1345.46305	17752.66071
1348.95352	18133.08929
1352.44163	18472.66071
1355.92738	18846.375
1359.41078	19246.80357
1362.89183	19562.08929
1366.37053	19346.80357
1369.84688	18518.66071
1373.32088	17458.23214
1376.79254	16727.375
1380.26186	16348.08929
1383.72883	16063.23214
1387.19347	15839.375
1390.65578	15650.66071
1394.11575	15453.66071
1397.57339	15316.66071
1401.0287	15197.08929
1404.48168	15240.94643
1407.93234	15172.66071
1411.38068	15181.80357
1414.82669	15170.80357
1418.27039	15124.80357
1421.71177	15048.94643
1425.15083	14968.66071
1428.58758	14881.51786
1432.02203	14797.08929
1435.45416	14806.08929
1438.88399	14798.375
1442.31151	14812.08929
1445.73673	14818.80357
1449.15965	14840.51786
1452.58027	14877.23214
1455.9986	14906.80357
1459.41463	14888.23214
1462.82837	15002.51786
1466.23982	15112.80357
1469.64898	15274.375
1473.05586	15417.23214
1476.46045	15511.94643
1479.86276	15623.94643
1483.26279	15628.23214
1486.66054	15728.23214
1490.05602	15837.94643
1493.44922	16054.23214
1496.84016	16346.66071
1500.22882	16793.66071
1503.61521	17304.23214
1506.99934	17894.94643
1510.38121	18228.51786
1513.76081	18163.51786
1517.13816	17731.08929
1520.51324	17135.80357
1523.88607	16648.08929
1527.25665	16316.375
1530.62498	16114.08929
1533.99105	15995.66071
1537.35488	15995.08929
1540.71647	15953.80357
1544.07581	15908.94643
1547.4329	15872.80357
1550.78776	15782.08929
1554.14038	15711.23214
1557.49077	15695.23214
1560.83892	15712.51786
1564.18484	15761.375
1567.52853	15827.375
1570.86999	15927.375
1574.20922	16004.08929
1577.54624	15990.80357
1580.88103	15855.375
1584.2136	15640.08929
1587.54395	15448.94643
1590.87208	15485.51786
1594.19801	15596.23214
1597.52172	15876.94643
1600.84321	16035.23214
1604.16251	16003.51786
1607.47959	15869.94643
1610.79447	15653.51786
1614.10715	15317.08929
1617.41763	15052.66071
1620.7259	14764.80357
1624.03199	14573.51786
1627.33587	14466.375
1630.63757	14468.94643
1633.93707	14554.375
1637.23439	14742.94643
1640.52951	15084.94643
1643.82246	15575.51786
1647.11321	16106.66071
1650.40179	16413.80357
1653.68819	16240.08929
1656.97241	15720.94643
1660.25446	15053.66071
1663.53433	14475.51786
1666.81203	14106.23214
1670.08756	13908.66071
1673.36092	13677.94643
1676.63211	13561.66071
1679.90115	13499.375
1683.16801	13394.23214
1686.43272	13358.08929
1689.69527	13291.51786
1692.95567	13306.66071
1696.2139	13214.375
1699.46999	13201.23214
1702.72392	13164.375
1705.97571	13204.51786
1709.22535	13184.66071
1712.47284	13175.23214
1715.71819	13195.80357
1718.96139	13160.94643
1722.20246	13147.51786
1725.44139	13093.51786
1728.67818	13083.51786
1731.91284	12996.94643
1735.14537	12969.66071
1738.37576	12952.94643
1741.60403	12899.375
1744.83017	12865.23214
1748.05418	12845.66071
1751.27607	12864.375
1754.49584	12835.375
1757.71349	12844.66071
1760.92903	12827.94643
1764.14244	12823.80357
1767.35375	12839.08929
1770.56294	12751.80357
1773.77002	12742.08929
1776.97499	12693.94643
1780.17785	12653.375
1783.37861	12636.80357
1786.57727	12617.375
1789.77382	12579.51786
1792.96828	12567.375
1796.16064	12505.375
1799.3509	12441.51786
1802.53907	12461.375
1805.72514	12448.94643
1808.90913	12414.08929
1812.09102	12416.94643
1815.27083	12355.375
1818.44856	12328.23214
1821.6242	12359.08929
1824.79776	12318.94643
1827.96924	12278.51786
1831.13864	12268.80357
1834.30597	12283.08929
1837.47122	12252.51786
1840.6344	12234.94643
1843.7955	12225.23214
1846.95454	12245.375
1850.11151	12213.23214
1853.26642	12189.80357
1856.41926	12179.80357
1859.57004	12166.23214
1862.71876	12140.23214
1865.86542	12126.375
1869.01003	12139.80357
1872.15258	12115.94643
1875.29308	12151.94643
1878.43152	12090.08929
1881.56792	12067.80357
1884.70227	12091.375
1887.83457	12071.23214
1890.96482	12034.80357
1894.09304	12013.80357
1897.21921	12009.80357
1900.34335	12005.80357
1903.46544	12005.23214
1906.58551	11973.94643
1909.70353	11903.23214
1912.81953	11927.51786
1915.93349	11925.94643
1919.04543	11919.23214
1922.15534	11879.23214
1925.26322	11862.375
1928.36908	11837.80357
1931.47292	11839.23214
1934.57473	11826.94643
1937.67453	11787.66071
1940.77232	11742.51786
1943.86808	11721.51786
1946.96184	11687.08929
1950.05358	11672.94643
1953.14331	11634.66071
1956.23103	11641.51786
1959.31675	11565.08929
1962.40046	11548.51786
1965.48217	11508.51786
1968.56188	11481.51786
1971.63959	11423.66071
1974.7153	11416.80357
1977.78901	11375.66071
1980.86073	11366.23214
1983.93046	11295.375
1986.99819	11286.08929
1990.06394	11261.23214
1993.1277	11213.94643
1996.18947	11154.375
1999.24925	11177.51786
2002.30706	11102.375
2005.36288	11063.23214
2008.41672	11033.375
2011.46859	10987.375
2014.51848	10958.51786
2017.56639	10927.51786
2020.61233	10904.66071
2023.6563	10878.66071
2026.6983	10814.94643
2029.73833	10809.375
2032.7764	10795.08929
2035.8125	10766.66071
2038.84664	10727.08929
2041.87881	10720.66071
2044.90903	10694.23214
2047.93729	10662.66071
2050.96359	10702.80357
2053.98794	10643.23214
2057.01034	10649.66071
2060.03078	10642.66071
2063.04927	10641.51786
2066.06582	10664.51786
2069.08042	10635.51786
2072.09307	10626.375
2075.10378	10607.375
2078.11255	10626.94643
2081.11938	10610.375
2084.12426	10613.80357
2087.12722	10607.08929
2090.12824	10597.08929
2093.12732	10581.80357
2096.12447	10581.08929
2099.11969	10578.08929
2102.11299	10579.08929
2105.10435	10600.94643
2108.09379	10592.08929
2111.08131	10595.66071
2114.0669	10636.51786
2117.05057	10621.51786
2120.03233	10613.94643
2123.01216	10643.23214
2125.99008	10660.08929
2128.96609	10690.08929
2131.94018	10671.66071
2134.91236	10675.08929
2137.88263	10646.375
2140.851	10681.08929
2143.81746	10703.23214
2146.78201	10684.66071
2149.74466	10672.08929
2152.7054	10693.66071
2155.66425	10665.66071
2158.6212	10691.94643
2161.57625	10695.80357
2164.52941	10671.94643
2167.48067	10673.23214
2170.43004	10635.80357
2173.37752	10646.375
2176.32311	10657.80357
2179.26681	10633.94643
2182.20863	10659.23214
2185.14856	10639.08929
2188.08661	10631.08929
2191.02278	10626.80357
2193.95707	10608.375
2196.88948	10594.08929
2199.82001	10591.51786
2202.74867	10584.94643
2205.67545	10585.23214
2208.60037	10595.23214
2211.52341	10547.08929
2214.44458	10546.66071
2217.36388	10501.66071
2220.28132	10477.375
2223.1969	10460.375
2226.11061	10443.08929
2229.02246	10423.66071
2231.93245	10389.375
2234.84058	10357.94643
2237.74686	10384.375
2240.65128	10392.375
2243.55385	10349.80357
2246.45456	10342.375
2249.35343	10340.80357
2252.25044	10304.08929
2255.14561	10315.51786
2258.03893	10286.08929
2260.93041	10270.80357
2263.82004	10238.80357
2266.70783	10226.80357
2269.59378	10196.375
2272.4779	10186.94643
2275.36017	10163.08929
2278.24061	10127.08929
2281.11922	10065.66071
2283.996	10115.66071
2286.87094	10102.23214
2289.74405	10076.66071
2292.61534	10067.23214
2295.4848	10068.51786
2298.35243	10038.51786
2301.21824	10005.94643
2304.08223	10029.66071
2306.94439	9984.23214
2309.80474	9948.66071
2312.66327	9960.51786
2315.51999	9965.08929
2318.37489	9965.51786
2321.22797	9944.23214
2324.07925	9911.66071
2326.92871	9920.51786
2329.77637	9883.80357
2332.62222	9876.08929
2335.46626	9843.23214
2338.3085	9845.375
2341.14893	9835.66071
2343.98756	9811.94643
2346.8244	9820.375
2349.65943	9770.80357
2352.49267	9761.08929
2355.32411	9760.375
2358.15376	9742.94643
2360.98161	9743.23214
2363.80768	9771.23214
2366.63195	9761.80357
2369.45444	9739.23214
2372.27514	9735.94643
2375.09405	9693.94643
2377.91118	9686.08929
2380.72652	9665.80357
2383.54009	9659.80357
2386.35187	9645.375
2389.16188	9586.375
2391.97011	9583.51786
2394.77657	9581.375
2397.58125	9547.23214
2400.38416	9568.80357
2403.18529	9540.08929
2405.98466	9525.94643
2408.78226	9504.66071
2411.57809	9474.51786
2414.37216	9484.94643
2417.16446	9480.51786
2419.955	9452.66071
2422.74378	9430.51786
2425.5308	9424.66071
2428.31606	9456.51786
2431.09956	9422.51786
2433.88131	9402.375
2436.6613	9405.94643
2439.43954	9399.80357
2442.21603	9375.23214
2444.99077	9371.51786
2447.76377	9351.94643
2450.53501	9348.375
2453.30451	9337.08929
2456.07226	9318.375
2458.83827	9313.66071
2461.60254	9289.80357
2464.36507	9294.375
2467.12586	9265.51786
2469.88492	9245.51786
2472.64224	9241.51786
2475.39782	9227.94643
2478.15167	9221.80357
2480.90379	9244.51786
2483.65417	9240.80357
2486.40283	9216.08929
2489.14976	9252.66071
2491.89497	9263.375
2494.63845	9197.375
2497.3802	9196.66071
2500.12024	9186.94643
2502.85855	9169.375
2505.59514	9167.08929
2508.33002	9156.375
2511.06318	9125.51786
2513.79462	9131.94643
2516.52435	9130.23214
2519.25237	9080.08929
2521.97867	9112.66071
2524.70327	9075.94643
2527.42616	9089.94643
2530.14734	9064.23214
2532.86681	9028.66071
2535.58458	9029.80357
2538.30065	9014.51786
2541.01501	9024.80357
2543.72768	9009.94643
2546.43864	8958.94643
2549.14791	8954.51786
2551.85548	8964.23214
2554.56136	8950.08929
2557.26554	8902.94643
2559.96803	8890.80357
2562.66883	8877.51786
2565.36794	8840.51786
2568.06536	8846.08929
2570.7611	8830.08929
2573.45514	8830.66071
2576.14751	8788.51786
2578.83819	8766.66071
2581.52719	8769.08929
2584.21451	8750.80357
2586.90015	8736.94643
2589.58411	8729.23214
2592.2664	8705.94643
2594.94701	8699.375
2597.62594	8673.80357
2600.30321	8649.375
2602.9788	8601.66071
2605.65273	8602.94643
2608.32498	8596.08929
2610.99557	8599.94643
2613.66449	8557.51786
2616.33175	8574.66071
2618.99734	8551.66071
2621.66128	8536.94643
2624.32355	8499.23214
2626.98416	8494.23214
2629.64311	8484.08929
2632.30041	8516.375
2634.95605	8469.80357
2637.61004	8423.23214
2640.26238	8443.51786
2642.91306	8428.23214
2645.56209	8427.51786
2648.20948	8421.375
2650.85521	8411.23214
2653.4993	8427.80357
2656.14175	8420.94643
2658.78255	8415.23214
2661.42171	8413.23214
2664.05923	8451.94643
2666.6951	8415.51786
2669.32934	8411.66071
2671.96194	8400.08929
2674.59291	8413.94643
2677.22224	8398.375
2679.84993	8413.08929
2682.476	8360.08929
2685.10043	8389.23214
2687.72324	8377.08929
2690.34441	8381.08929
2692.96396	8389.80357
2695.58188	8385.375
2698.19818	8394.375
2700.81285	8385.08929
2703.4259	8367.375
2706.03733	8360.51786
2708.64714	8361.08929
2711.25533	8374.08929
2713.86191	8350.23214
2716.46687	8362.94643
2719.07021	8379.51786
2721.67194	8378.80357
2724.27206	8383.08929
2726.87057	8363.23214
2729.46747	8362.08929
2732.06276	8359.66071
2734.65644	8340.51786
2737.24852	8326.66071
2739.83899	8324.80357
2742.42786	8335.94643
2745.01513	8323.23214
2747.60079	8307.66071
2750.18486	8282.66071
2752.76733	8270.94643
2755.3482	8258.375
2757.92747	8274.51786
2760.50515	8257.94643
2763.08123	8243.80357
2765.65573	8192.51786
2768.22863	8204.51786
2770.79994	8219.375
2773.36967	8197.08929
2775.9378	8192.23214
2778.50435	8164.66071
2781.06932	8157.51786
2783.6327	8164.375
2786.1945	8121.08929
2788.75471	8117.80357
2791.31335	8107.66071
2793.87041	8074.51786
2796.42589	8071.80357
2798.97979	8064.51786
2801.53212	8023.23214
2804.08288	8023.375
2806.63206	7981.94643
2809.17967	7968.375
2811.72571	7959.23214
2814.27018	7936.08929
2816.81308	7919.66071
2819.35442	7900.08929
2821.89419	7882.375
2824.43239	7867.08929
2826.96904	7882.08929
2829.50412	7871.08929
2832.03763	7841.80357
2834.56959	7882.08929
2837.1	7854.23214
2839.62884	7825.66071
2842.15613	7812.51786
2844.68186	7820.66071
2847.20604	7817.94643
2849.72867	7827.51786
2852.24974	7818.23214
2854.76927	7783.51786
2857.28724	7752.51786
2859.80367	7766.51786
2862.31855	7727.51786
2864.83189	7737.80357
2867.34368	7690.80357
2869.85393	7715.375
2872.36264	7692.51786
2874.8698	7694.94643
2877.37543	7701.94643
2879.87952	7712.375
2882.38207	7703.23214
2884.88308	7677.23214
2887.38256	7679.08929
2889.88051	7702.23214
2892.37692	7685.51786
2894.8718	7678.23214
2897.36515	7696.80357
2899.85698	7696.375
2902.34727	7704.375
2904.83604	7693.51786
2907.32328	7714.375
2909.809	7707.375
2912.29319	7717.51786
2914.77587	7726.08929
2917.25702	7727.23214
2919.73665	7737.375
2922.21476	7729.23214
2924.69136	7715.375
2927.16644	7712.66071
2929.64	7716.66071
2932.11205	7699.80357
2934.58258	7684.66071
2937.05161	7694.94643
2939.51912	7700.08929
2941.98513	7723.94643
2944.44962	7680.66071
2946.91261	7673.80357
2949.37409	7694.80357
2951.83407	7669.94643
2954.29254	7668.375
2956.74951	7654.80357
2959.20498	7660.51786
2961.65895	7625.51786
2964.11142	7627.51786
2966.56239	7613.375
2969.01186	7604.66071
2971.45984	7579.375
2973.90632	7603.375
2976.35131	7560.08929
2978.7948	7540.94643
2981.23681	7522.51786
2983.67732	7553.66071
2986.11635	7507.375
2988.55388	7520.51786
2990.98993	7494.66071
2993.4245	7465.66071
2995.85758	7439.23214
2998.28917	7453.80357
3000.71928	7438.66071
3003.14791	7425.375
3005.57506	7414.80357
3008.00073	7417.94643
3010.42493	7397.23214
3012.84764	7386.23214
3015.26888	7388.375
3017.68865	7367.66071
3020.10694	7369.66071
3022.52376	7345.375
3024.9391	7337.94643
3027.35298	7329.66071
3029.76539	7310.23214
3032.17632	7318.51786
3034.5858	7312.08929
3036.9938	7319.66071
3039.40034	7295.80357
3041.80542	7303.94643
3044.20903	7278.375
3046.61118	7286.80357
3049.01187	7266.23214
3051.4111	7236.375
3053.80888	7243.23214
3056.20519	7240.94643
3058.60005	7232.08929
3060.99345	7219.375
3063.3854	7192.51786
3065.7759	7164.08929
3068.16494	7153.51786
3070.55254	7150.51786
3072.93868	7153.23214
3075.32338	7141.23214
3077.70662	7123.08929
3080.08842	7089.51786
3082.46878	7116.23214
3084.84769	7092.375
3087.22515	7105.23214
3089.60118	7082.80357
3091.97576	7118.66071
3094.3489	7116.51786
3096.72061	7117.23214
3099.09087	7102.80357
3101.4597	7096.23214
3103.82709	7121.80357
3106.19305	7100.94643
3108.55757	7117.51786
3110.92066	7103.94643
3113.28232	7100.375
3115.64255	7090.66071
3118.00134	7049.51786
3120.35871	7055.51786
3122.71466	7051.80357
3125.06917	7068.80357
3127.42226	7053.375
3129.77393	7053.08929
3132.12417	7058.51786
3134.47299	7058.94643
3136.82039	7041.375
3139.16636	7032.94643
3141.51092	7038.94643
3143.85406	7040.94643
3146.19579	7066.80357
3148.53609	7071.80357
3150.87499	7098.94643
3153.21246	7086.08929
3155.54853	7098.375
3157.88318	7124.66071
3160.21642	7114.66071
3162.54826	7120.51786
3164.87868	7130.23214
3167.2077	7108.66071
3169.5353	7120.51786
3171.86151	7123.94643
3174.18631	7118.23214
3176.5097	7110.23214
3178.83169	7108.375
3181.15228	7127.08929
3183.47147	7095.51786
3185.78926	7100.08929
3188.10565	7073.94643
3190.42065	7082.51786
3192.73424	7089.08929
3195.04645	7110.375
3197.35725	7067.51786
3199.66667	7074.94643
3201.97469	7080.08929
3204.28132	7089.94643
3206.58656	7105.94643
3208.8904	7105.94643
3211.19287	7114.80357
3213.49394	7142.51786
3215.79363	7142.08929
3218.09193	7149.375
3220.38884	7131.80357
3222.68438	7124.08929
3224.97853	7140.66071
3227.2713	7133.80357
3229.56269	7113.23214
3231.8527	7111.375
3234.14133	7081.375
3236.42858	7057.08929
3238.71446	7063.23214
3240.99896	7048.51786
3243.28209	7048.94643
3245.56384	7045.80357
3247.84423	7024.51786
3250.12324	7065.51786
3252.40088	7016.66071
3254.67715	7038.51786
3256.95205	7017.51786
3259.22558	7017.375
3261.49775	6994.375
3263.76855	6995.66071
3266.03799	6996.94643
3268.30606	6982.51786
3270.57277	6974.375
3272.83812	6957.94643
3275.10211	6944.08929
3277.36474	6950.80357
3279.62601	6945.08929
3281.88593	6914.66071
3284.14448	6922.23214
3286.40168	6901.08929
3288.65753	6905.80357
3290.91202	6906.94643
3293.16516	6873.23214
3295.41695	6881.66071
3297.66738	6827.23214
3299.91647	6811.08929
3302.16421	6770.80357
3304.4106	6745.08929
3306.65564	6693.66071
3308.89933	6659.66071
3311.14169	6609.80357
3313.38269	6565.51786
3315.62236	6531.375
3317.86068	6446.94643
3320.09766	6427.51786
3322.3333	6375.375
3324.5676	6338.375
3326.80056	6247.80357
3329.03219	6240.08929
3331.26248	2.23214
3333.49143	-1.48214
3335.71905	-2.19643
