Data from AgNPs_FTO_APTES_UA_20uM_CRN_20uM_R6G_10uM_NaF_0.1M_Addition_RamanShift__8__14-59-22-243.txt Node

Date: Thu Feb 17 14:59:22 GMT 2022
User: TCL
Spectrometer: QEP01345
Trigger mode: 4
Integration Time (sec): 7.000000E0
Scans to average: 10
Electric dark correction enabled: true
Nonlinearity correction enabled: false
Boxcar width: 0
XAxis mode: Raman Shifts
Number of Pixels in Spectrum: 1044
>>>>>Begin Spectral Data<<<<<
46.04893	-0.8125
50.45542	-0.6125
54.85868	-3.3125
59.25871	-1.6125
63.6555	130.5875
68.04907	134.4875
72.43941	139.2875
76.82654	138.7875
81.21044	146.4875
85.59113	152.5875
89.96862	155.6875
94.34289	157.0875
98.71396	162.5875
103.08183	170.1875
107.4465	178.5875
111.80798	175.3875
116.16626	185.3875
120.52136	197.0875
124.87327	199.3875
129.222	214.2875
133.56755	228.7875
137.90993	246.5875
142.24913	272.1875
146.58517	313.3875
150.91804	371.3875
155.24774	438.1875
159.57429	551.2875
163.89768	719.8875
168.21792	961.7875
172.53501	1326.0875
176.84895	1868.1875
181.15975	2636.2875
185.46741	3736.9875
189.77193	5156.8875
194.07331	6948.8875
198.37157	8983.9875
202.6667	11130.8875
206.9587	13287.8875
211.24758	15340.2875
215.53334	17401.8875
219.81599	19566.5875
224.09553	21917.4875
228.37195	24547.6875
232.64527	27397.6875
236.91549	30508.9875
241.18261	33738.1875
245.44663	36802.3875
249.70755	39605.1875
253.96539	42076.6875
258.22014	44178.1875
262.4718	45853.4875
266.72039	47071.1875
270.96589	47698.3875
275.20832	47857.8875
279.44768	47690.1875
283.68397	47340.3875
287.91719	46999.5875
292.14735	46807.2875
296.37445	46688.4875
300.59849	46705.3875
304.81948	46825.9875
309.03742	46788.4875
313.25231	46626.3875
317.46415	46152.7875
321.67296	45498.1875
325.87872	44978.1875
330.08145	44755.9875
334.28114	44850.2875
338.47781	45162.9875
342.67145	45729.3875
346.86207	46294.6875
351.04966	46984.3875
355.23424	47695.9875
359.4158	48265.9875
363.59435	48761.8875
367.76989	49208.0875
371.94243	49547.8875
376.11196	49778.9875
380.27849	50088.1875
384.44203	50283.6875
388.60257	50776.4875
392.76012	51231.0875
396.91468	51791.7875
401.06626	52379.7875
405.21485	52884.1875
409.36047	52836.1875
413.50311	52563.3875
417.64277	52270.8875
421.77947	52236.9875
425.9132	52516.4875
430.04396	52800.1875
434.17176	53151.1875
438.2966	53488.2875
442.41849	54090.4875
446.53742	54976.1875
450.6534	55999.3875
454.76644	56876.5875
458.87653	57284.4875
462.98368	57310.0875
467.08789	57016.6875
471.18916	56646.2875
475.2875	56146.4875
479.38291	55786.3875
483.4754	55503.4875
487.56496	55128.3875
491.6516	54734.8875
495.73531	54377.7875
499.81612	54146.8875
503.89401	54381.5875
507.96899	54648.3875
512.04106	54770.2875
516.11023	54688.9875
520.1765	54628.1875
524.23987	54433.0875
528.30034	54290.4875
532.35792	54067.7875
536.41261	53851.0875
540.46441	53598.9875
544.51333	53605.9875
548.55936	54072.5875
552.60252	54794.5875
556.64279	55630.2875
560.6802	56191.1875
564.71473	56448.1875
568.7464	56969.6875
572.7752	57976.0875
576.80114	59148.5875
580.82422	60273.4875
584.84444	61242.7875
588.86181	62270.4875
592.87633	63203.2875
596.888	63146.3875
600.89682	62313.7875
604.9028	62572.7875
608.90594	65165.1875
612.90624	67838.1875
616.90371	65245.6875
620.89834	58951.6875
624.89015	56264.2875
628.87913	56011.8875
632.86528	56393.2875
636.84862	56625.3875
640.82913	56210.1875
644.80683	55507.4875
648.78172	54893.7875
652.75379	54815.2875
656.72306	55243.6875
660.68952	55842.6875
664.65319	55760.4875
668.61405	55293.5875
672.57211	55362.5875
676.52738	55594.9875
680.47986	55641.4875
684.42955	55460.6875
688.37646	55344.0875
692.32058	55581.9875
696.26192	56111.7875
700.20048	56657.3875
704.13626	56979.9875
708.06928	57132.1875
711.99952	56958.2875
715.927	56843.2875
719.85171	56822.2875
723.77365	56745.1875
727.69284	56411.7875
731.60928	55990.3875
735.52295	55807.9875
739.43388	55774.6875
743.34206	55973.6875
747.24749	56101.9875
751.15017	56411.3875
755.05012	57014.8875
758.94733	58037.1875
762.8418	59713.0875
766.73354	62286.5875
770.62254	64756.8875
774.50882	65317.8875
778.39237	63551.3875
782.27321	60896.9875
786.15132	58761.2875
790.02671	57279.2875
793.89938	56544.5875
797.76935	56146.8875
801.6366	56008.7875
805.50115	55868.3875
809.36299	55762.5875
813.22213	55685.6875
817.07857	55569.3875
820.93231	55604.7875
824.78336	55618.1875
828.63172	55524.4875
832.47738	55510.7875
836.32036	55507.3875
840.16066	55534.7875
843.99827	55647.2875
847.8332	55769.1875
851.66546	55879.0875
855.49504	56020.0875
859.32195	56121.9875
863.1462	56109.1875
866.96777	56079.5875
870.78668	56017.0875
874.60293	56045.8875
878.41652	56143.3875
882.22745	56267.8875
886.03573	56381.4875
889.84136	56381.8875
893.64433	56210.3875
897.44466	56066.5875
901.24235	55942.0875
905.0374	55900.2875
908.8298	55891.2875
912.61957	56007.0875
916.40671	56304.4875
920.19121	56748.0875
923.97308	57038.8875
927.75233	56858.5875
931.52895	56497.0875
935.30295	56178.6875
939.07433	55716.6875
942.84309	55401.2875
946.60924	55113.9875
950.37278	55064.2875
954.13371	55121.9875
957.89203	55089.8875
961.64774	55027.8875
965.40086	55050.3875
969.15137	54933.4875
972.89929	54876.3875
976.64461	54865.9875
980.38733	54870.6875
984.12747	54929.2875
987.86502	55156.2875
991.59999	55464.8875
995.33237	55739.5875
999.06217	56227.2875
1002.78939	56784.4875
1006.51404	57449.4875
1010.23611	58147.2875
1013.95561	58639.9875
1017.67255	58755.8875
1021.38692	58512.6875
1025.09872	58050.2875
1028.80796	57592.2875
1032.51465	57484.9875
1036.21877	57633.9875
1039.92035	57769.4875
1043.61937	57901.9875
1047.31584	57943.2875
1051.00976	57968.0875
1054.70114	58123.9875
1058.38998	58322.8875
1062.07627	58753.3875
1065.76003	59343.7875
1069.44126	59847.3875
1073.11995	60531.1875
1076.79611	61050.9875
1080.46974	61332.4875
1084.14085	61526.3875
1087.80943	61833.5875
1091.47549	62154.6875
1095.13903	62248.0875
1098.80005	61914.0875
1102.45857	61176.0875
1106.11456	60511.4875
1109.76805	60216.3875
1113.41903	60061.9875
1117.06751	60195.1875
1120.71348	60529.5875
1124.35696	60870.0875
1127.99793	61210.8875
1131.63641	61300.1875
1135.2724	61190.3875
1138.90589	61110.4875
1142.5369	61074.1875
1146.16542	61238.5875
1149.79145	61470.1875
1153.415	61679.5875
1157.03607	62027.4875
1160.65467	62803.7875
1164.27079	64194.2875
1167.88443	65892.1875
1171.49561	68004.4875
1175.10432	70523.4875
1178.71056	73697.7875
1182.31434	76642.4875
1185.91565	78424.9875
1189.51451	78721.3875
1193.11091	78152.6875
1196.70485	76839.5875
1200.29634	75118.0875
1203.88538	73863.3875
1207.47197	72957.5875
1211.05612	72072.5875
1214.63782	70976.9875
1218.21708	69864.2875
1221.79391	68717.7875
1225.36829	67917.0875
1228.94024	67400.0875
1232.50976	66884.3875
1236.07685	66456.7875
1239.6415	66230.9875
1243.20374	66348.4875
1246.76355	66688.2875
1250.32093	67303.4875
1253.8759	68149.3875
1257.42845	69349.0875
1260.97859	70591.5875
1264.52631	71746.0875
1268.07163	72937.4875
1271.61453	73942.3875
1275.15503	75015.0875
1278.69312	76076.3875
1282.22882	77155.6875
1285.76211	78401.9875
1289.29301	79949.6875
1292.82151	81921.9875
1296.34761	84261.0875
1299.87133	87141.1875
1303.39266	90199.9875
1306.9116	93028.7875
1310.42815	95484.2875
1313.94233	96731.7875
1317.45412	96567.0875
1320.96354	95600.2875
1324.47058	94835.6875
1327.97525	93984.2875
1331.47754	93413.3875
1334.97747	93353.0875
1338.47502	93522.3875
1341.97022	94064.0875
1345.46305	94564.8875
1348.95352	94992.8875
1352.44163	95085.9875
1355.92738	95365.9875
1359.41078	96534.1875
1362.89183	97630.0875
1366.37053	95842.5875
1369.84688	90759.8875
1373.32088	84548.6875
1376.79254	80076.0875
1380.26186	78139.2875
1383.72883	77822.3875
1387.19347	77865.3875
1390.65578	77381.5875
1394.11575	76744.4875
1397.57339	76517.0875
1401.0287	76603.2875
1404.48168	76860.5875
1407.93234	76785.2875
1411.38068	75989.0875
1414.82669	74715.8875
1418.27039	73077.9875
1421.71177	71453.7875
1425.15083	70232.0875
1428.58758	69661.4875
1432.02203	69898.0875
1435.45416	70845.3875
1438.88399	71968.8875
1442.31151	72922.4875
1445.73673	73563.0875
1449.15965	73905.4875
1452.58027	74148.3875
1455.9986	74220.9875
1459.41463	74589.1875
1462.82837	75345.5875
1466.23982	76397.3875
1469.64898	77446.9875
1473.05586	78305.2875
1476.46045	78588.7875
1479.86276	78485.6875
1483.26279	78126.3875
1486.66054	77897.1875
1490.05602	78150.8875
1493.44922	78851.7875
1496.84016	79852.8875
1500.22882	81410.9875
1503.61521	83647.2875
1506.99934	85996.5875
1510.38121	87486.2875
1513.76081	87326.0875
1517.13816	85883.4875
1520.51324	83876.6875
1523.88607	82510.4875
1527.25665	81904.6875
1530.62498	81830.8875
1533.99105	81542.6875
1537.35488	81016.4875
1540.71647	79905.5875
1544.07581	78670.7875
1547.4329	77334.2875
1550.78776	76359.7875
1554.14038	75321.2875
1557.49077	74890.9875
1560.83892	74569.8875
1564.18484	74571.1875
1567.52853	74637.6875
1570.86999	75094.0875
1574.20922	75885.9875
1577.54624	76281.0875
1580.88103	76123.8875
1584.2136	75969.2875
1587.54395	76616.4875
1590.87208	78530.9875
1594.19801	81139.1875
1597.52172	83931.8875
1600.84321	84908.1875
1604.16251	82993.5875
1607.47959	79843.8875
1610.79447	76202.1875
1614.10715	72515.2875
1617.41763	69126.3875
1620.7259	66614.5875
1624.03199	65133.8875
1627.33587	64900.5875
1630.63757	65596.5875
1633.93707	67706.8875
1637.23439	71480.3875
1640.52951	76961.1875
1643.82246	83501.9875
1647.11321	88657.8875
1650.40179	89766.0875
1653.68819	85870.5875
1656.97241	78550.7875
1660.25446	71350.0875
1663.53433	65841.2875
1666.81203	62213.3875
1670.08756	59907.4875
1673.36092	58434.5875
1676.63211	57417.6875
1679.90115	56807.9875
1683.16801	56167.1875
1686.43272	55684.7875
1689.69527	55368.0875
1692.95567	55192.5875
1696.2139	55031.8875
1699.46999	54919.0875
1702.72392	54847.3875
1705.97571	54768.7875
1709.22535	54616.6875
1712.47284	54615.8875
1715.71819	54675.1875
1718.96139	54599.6875
1722.20246	54501.1875
1725.44139	54324.9875
1728.67818	54058.7875
1731.91284	53780.5875
1735.14537	53718.0875
1738.37576	53562.2875
1741.60403	53475.9875
1744.83017	53425.0875
1748.05418	53246.2875
1751.27607	53126.2875
1754.49584	53105.1875
1757.71349	53164.8875
1760.92903	53015.3875
1764.14244	52995.5875
1767.35375	52994.8875
1770.56294	52901.1875
1773.77002	52814.9875
1776.97499	52746.7875
1780.17785	52630.5875
1783.37861	52640.6875
1786.57727	52634.4875
1789.77382	52567.1875
1792.96828	52492.3875
1796.16064	52338.6875
1799.3509	52251.4875
1802.53907	52177.2875
1805.72514	52103.1875
1808.90913	51996.2875
1812.09102	51944.1875
1815.27083	51871.1875
1818.44856	51847.4875
1821.6242	51769.5875
1824.79776	51733.9875
1827.96924	51679.1875
1831.13864	51657.9875
1834.30597	51661.4875
1837.47122	51621.8875
1840.6344	51531.7875
1843.7955	51538.2875
1846.95454	51510.5875
1850.11151	51523.0875
1853.26642	51445.5875
1856.41926	51435.6875
1859.57004	51379.2875
1862.71876	51300.5875
1865.86542	51292.5875
1869.01003	51253.6875
1872.15258	51219.6875
1875.29308	51150.5875
1878.43152	51109.2875
1881.56792	51073.9875
1884.70227	50938.4875
1887.83457	50902.2875
1890.96482	50832.3875
1894.09304	50834.5875
1897.21921	50823.7875
1900.34335	50758.4875
1903.46544	50649.0875
1906.58551	50644.1875
1909.70353	50610.0875
1912.81953	50567.9875
1915.93349	50453.1875
1919.04543	50320.1875
1922.15534	50205.9875
1925.26322	50172.4875
1928.36908	50132.5875
1931.47292	50016.4875
1934.57473	50018.0875
1937.67453	49860.3875
1940.77232	49776.5875
1943.86808	49676.0875
1946.96184	49581.5875
1950.05358	49541.3875
1953.14331	49337.2875
1956.23103	49240.8875
1959.31675	49004.9875
1962.40046	48928.2875
1965.48217	48837.1875
1968.56188	48719.1875
1971.63959	48594.9875
1974.7153	48408.3875
1977.78901	48264.8875
1980.86073	48149.6875
1983.93046	48088.4875
1986.99819	47918.2875
1990.06394	47825.7875
1993.1277	47696.2875
1996.18947	47515.4875
1999.24925	47458.5875
2002.30706	47311.7875
2005.36288	47166.4875
2008.41672	47018.7875
2011.46859	46907.3875
2014.51848	46778.6875
2017.56639	46661.9875
2020.61233	46504.6875
2023.6563	46426.4875
2026.6983	46352.5875
2029.73833	46264.3875
2032.7764	46187.2875
2035.8125	46085.5875
2038.84664	45941.9875
2041.87881	45858.1875
2044.90903	45725.3875
2047.93729	45664.9875
2050.96359	45707.2875
2053.98794	45638.0875
2057.01034	45676.4875
2060.03078	45641.5875
2063.04927	45645.2875
2066.06582	45582.7875
2069.08042	45525.5875
2072.09307	45582.7875
2075.10378	45467.6875
2078.11255	45415.2875
2081.11938	45511.6875
2084.12426	45525.1875
2087.12722	45447.1875
2090.12824	45403.5875
2093.12732	45458.6875
2096.12447	45468.0875
2099.11969	45479.9875
2102.11299	45517.3875
2105.10435	45545.8875
2108.09379	45599.4875
2111.08131	45564.7875
2114.0669	45594.1875
2117.05057	45661.0875
2120.03233	45818.1875
2123.01216	45743.7875
2125.99008	45787.9875
2128.96609	45812.7875
2131.94018	45820.1875
2134.91236	45850.9875
2137.88263	45915.2875
2140.851	45893.2875
2143.81746	45986.6875
2146.78201	46001.1875
2149.74466	46006.9875
2152.7054	46017.3875
2155.66425	45950.8875
2158.6212	45998.0875
2161.57625	45942.6875
2164.52941	45921.1875
2167.48067	45883.3875
2170.43004	45868.1875
2173.37752	45881.0875
2176.32311	46016.7875
2179.26681	46030.4875
2182.20863	46002.9875
2185.14856	45965.4875
2188.08661	45927.2875
2191.02278	45909.4875
2193.95707	45913.7875
2196.88948	45860.9875
2199.82001	45769.7875
2202.74867	45794.1875
2205.67545	45782.7875
2208.60037	45660.8875
2211.52341	45591.4875
2214.44458	45556.6875
2217.36388	45500.3875
2220.28132	45412.9875
2223.1969	45272.4875
2226.11061	45262.8875
2229.02246	45219.8875
2231.93245	45162.2875
2234.84058	45049.6875
2237.74686	44964.4875
2240.65128	44926.6875
2243.55385	44887.3875
2246.45456	44900.2875
2249.35343	44788.6875
2252.25044	44764.8875
2255.14561	44701.4875
2258.03893	44642.6875
2260.93041	44569.2875
2263.82004	44451.6875
2266.70783	44369.0875
2269.59378	44295.0875
2272.4779	44166.5875
2275.36017	44082.6875
2278.24061	43990.3875
2281.11922	43902.6875
2283.996	43834.9875
2286.87094	43812.8875
2289.74405	43725.9875
2292.61534	43692.7875
2295.4848	43723.1875
2298.35243	43728.8875
2301.21824	43619.5875
2304.08223	43587.5875
2306.94439	43612.9875
2309.80474	43613.2875
2312.66327	43482.4875
2315.51999	43450.6875
2318.37489	43415.9875
2321.22797	43423.1875
2324.07925	43311.3875
2326.92871	43245.0875
2329.77637	43207.0875
2332.62222	43100.4875
2335.46626	43060.0875
2338.3085	43078.5875
2341.14893	43040.6875
2343.98756	43015.2875
2346.8244	42962.9875
2349.65943	42955.5875
2352.49267	42894.5875
2355.32411	42955.2875
2358.15376	42933.9875
2360.98161	42866.2875
2363.80768	42827.3875
2366.63195	42821.4875
2369.45444	42734.4875
2372.27514	42705.5875
2375.09405	42617.2875
2377.91118	42544.7875
2380.72652	42457.5875
2383.54009	42366.7875
2386.35187	42373.2875
2389.16188	42274.3875
2391.97011	42188.6875
2394.77657	42099.9875
2397.58125	42012.4875
2400.38416	41982.5875
2403.18529	41892.4875
2405.98466	41915.2875
2408.78226	41794.6875
2411.57809	41742.8875
2414.37216	41702.6875
2417.16446	41711.4875
2419.955	41662.2875
2422.74378	41697.6875
2425.5308	41582.5875
2428.31606	41585.7875
2431.09956	41572.6875
2433.88131	41501.6875
2436.6613	41578.9875
2439.43954	41531.0875
2442.21603	41485.9875
2444.99077	41415.3875
2447.76377	41351.8875
2450.53501	41380.5875
2453.30451	41337.9875
2456.07226	41305.7875
2458.83827	41243.2875
2461.60254	41219.4875
2464.36507	41181.4875
2467.12586	41125.1875
2469.88492	41089.6875
2472.64224	41099.0875
2475.39782	41071.6875
2478.15167	41130.9875
2480.90379	41088.9875
2483.65417	41111.6875
2486.40283	41086.8875
2489.14976	41083.6875
2491.89497	41027.4875
2494.63845	41062.0875
2497.3802	40985.5875
2500.12024	40972.9875
2502.85855	40885.3875
2505.59514	40890.3875
2508.33002	40844.3875
2511.06318	40807.3875
2513.79462	40727.9875
2516.52435	40679.9875
2519.25237	40636.9875
2521.97867	40600.4875
2524.70327	40621.7875
2527.42616	40610.4875
2530.14734	40559.9875
2532.86681	40409.9875
2535.58458	40437.9875
2538.30065	40354.5875
2541.01501	40388.4875
2543.72768	40327.2875
2546.43864	40314.8875
2549.14791	40178.3875
2551.85548	40120.5875
2554.56136	40076.0875
2557.26554	40083.3875
2559.96803	39945.6875
2562.66883	39889.2875
2565.36794	39867.8875
2568.06536	39833.4875
2570.7611	39765.8875
2573.45514	39683.1875
2576.14751	39662.1875
2578.83819	39593.5875
2581.52719	39551.2875
2584.21451	39449.1875
2586.90015	39397.9875
2589.58411	39280.4875
2592.2664	39237.8875
2594.94701	39172.2875
2597.62594	39160.9875
2600.30321	39133.9875
2602.9788	39120.5875
2605.65273	39057.4875
2608.32498	39003.4875
2610.99557	38946.4875
2613.66449	39019.6875
2616.33175	38911.6875
2618.99734	38923.8875
2621.66128	38881.7875
2624.32355	38822.6875
2626.98416	38746.9875
2629.64311	38677.7875
2632.30041	38640.5875
2634.95605	38567.1875
2637.61004	38615.3875
2640.26238	38581.0875
2642.91306	38531.7875
2645.56209	38478.0875
2648.20948	38507.6875
2650.85521	38526.1875
2653.4993	38488.0875
2656.14175	38463.3875
2658.78255	38501.2875
2661.42171	38465.0875
2664.05923	38505.2875
2666.6951	38460.4875
2669.32934	38477.9875
2671.96194	38461.1875
2674.59291	38416.5875
2677.22224	38405.9875
2679.84993	38479.5875
2682.476	38400.9875
2685.10043	38463.1875
2687.72324	38401.1875
2690.34441	38376.7875
2692.96396	38352.7875
2695.58188	38373.0875
2698.19818	38342.1875
2700.81285	38341.1875
2703.4259	38307.5875
2706.03733	38390.1875
2708.64714	38410.2875
2711.25533	38358.5875
2713.86191	38333.6875
2716.46687	38410.2875
2719.07021	38519.3875
2721.67194	38525.1875
2724.27206	38465.9875
2726.87057	38522.8875
2729.46747	38553.9875
2732.06276	38550.0875
2734.65644	38538.7875
2737.24852	38467.6875
2739.83899	38368.6875
2742.42786	38455.3875
2745.01513	38350.3875
2747.60079	38371.7875
2750.18486	38247.0875
2752.76733	38181.8875
2755.3482	38086.0875
2757.92747	38123.5875
2760.50515	38051.1875
2763.08123	38039.7875
2765.65573	38014.7875
2768.22863	37962.4875
2770.79994	37881.1875
2773.36967	37866.9875
2775.9378	37860.6875
2778.50435	37818.0875
2781.06932	37797.0875
2783.6327	37725.0875
2786.1945	37689.7875
2788.75471	37697.8875
2791.31335	37558.8875
2793.87041	37470.8875
2796.42589	37422.6875
2798.97979	37382.3875
2801.53212	37242.8875
2804.08288	37233.3875
2806.63206	37104.5875
2809.17967	37018.0875
2811.72571	36901.7875
2814.27018	36817.5875
2816.81308	36768.9875
2819.35442	36712.3875
2821.89419	36699.0875
2824.43239	36657.4875
2826.96904	36656.6875
2829.50412	36568.5875
2832.03763	36491.4875
2834.56959	36467.2875
2837.1	36382.6875
2839.62884	36363.8875
2842.15613	36276.7875
2844.68186	36329.1875
2847.20604	36237.0875
2849.72867	36180.0875
2852.24974	36165.9875
2854.76927	36142.7875
2857.28724	36071.9875
2859.80367	36053.8875
2862.31855	35920.6875
2864.83189	35895.4875
2867.34368	35871.9875
2869.85393	35904.2875
2872.36264	35860.5875
2874.8698	35790.0875
2877.37543	35734.8875
2879.87952	35702.5875
2882.38207	35725.6875
2884.88308	35640.9875
2887.38256	35682.9875
2889.88051	35630.3875
2892.37692	35658.5875
2894.8718	35683.5875
2897.36515	35673.3875
2899.85698	35606.5875
2902.34727	35666.4875
2904.83604	35669.0875
2907.32328	35728.9875
2909.809	35767.8875
2912.29319	35788.5875
2914.77587	35805.9875
2917.25702	35747.3875
2919.73665	35700.0875
2922.21476	35761.1875
2924.69136	35707.9875
2927.16644	35668.8875
2929.64	35636.9875
2932.11205	35561.1875
2934.58258	35473.6875
2937.05161	35498.1875
2939.51912	35538.8875
2941.98513	35508.0875
2944.44962	35497.9875
2946.91261	35408.3875
2949.37409	35477.8875
2951.83407	35450.7875
2954.29254	35430.3875
2956.74951	35399.8875
2959.20498	35408.8875
2961.65895	35300.6875
2964.11142	35331.8875
2966.56239	35280.0875
2969.01186	35324.6875
2971.45984	35235.9875
2973.90632	35220.7875
2976.35131	35120.4875
2978.7948	35092.9875
2981.23681	35062.6875
2983.67732	34998.5875
2986.11635	34967.6875
2988.55388	34854.4875
2990.98993	34816.1875
2993.4245	34714.0875
2995.85758	34618.3875
2998.28917	34536.1875
3000.71928	34445.3875
3003.14791	34383.7875
3005.57506	34357.9875
3008.00073	34225.6875
3010.42493	34224.8875
3012.84764	34150.0875
3015.26888	34173.4875
3017.68865	34057.1875
3020.10694	34069.1875
3022.52376	33944.6875
3024.9391	33973.9875
3027.35298	33942.0875
3029.76539	33884.1875
3032.17632	33810.8875
3034.5858	33786.6875
3036.9938	33753.5875
3039.40034	33758.0875
3041.80542	33739.9875
3044.20903	33699.6875
3046.61118	33600.0875
3049.01187	33524.7875
3051.4111	33485.3875
3053.80888	33383.9875
3056.20519	33351.7875
3058.60005	33248.0875
3060.99345	33212.6875
3063.3854	33168.6875
3065.7759	33009.7875
3068.16494	32970.0875
3070.55254	32841.1875
3072.93868	32823.9875
3075.32338	32722.9875
3077.70662	32665.4875
3080.08842	32575.2875
3082.46878	32504.5875
3084.84769	32471.8875
3087.22515	32472.5875
3089.60118	32446.6875
3091.97576	32398.3875
3094.3489	32344.2875
3096.72061	32349.5875
3099.09087	32431.4875
3101.4597	32395.5875
3103.82709	32391.4875
3106.19305	32340.0875
3108.55757	32308.5875
3110.92066	32187.3875
3113.28232	32138.6875
3115.64255	32074.9875
3118.00134	31988.7875
3120.35871	31918.4875
3122.71466	31892.4875
3125.06917	31776.4875
3127.42226	31697.2875
3129.77393	31658.6875
3132.12417	31574.9875
3134.47299	31550.0875
3136.82039	31523.0875
3139.16636	31544.7875
3141.51092	31478.0875
3143.85406	31428.6875
3146.19579	31479.7875
3148.53609	31471.2875
3150.87499	31476.1875
3153.21246	31427.2875
3155.54853	31570.9875
3157.88318	31471.1875
3160.21642	31527.2875
3162.54826	31463.0875
3164.87868	31476.4875
3167.2077	31429.3875
3169.5353	31491.1875
3171.86151	31463.2875
3174.18631	31395.9875
3176.5097	31340.5875
3178.83169	31249.6875
3181.15228	31245.0875
3183.47147	31157.8875
3185.78926	31105.0875
3188.10565	31062.1875
3190.42065	31017.6875
3192.73424	30971.7875
3195.04645	30894.8875
3197.35725	30884.9875
3199.66667	30922.2875
3201.97469	30912.4875
3204.28132	30895.1875
3206.58656	30902.1875
3208.8904	30922.2875
3211.19287	30877.2875
3213.49394	30864.2875
3215.79363	30876.6875
3218.09193	30918.0875
3220.38884	30871.3875
3222.68438	30920.1875
3224.97853	30913.4875
3227.2713	30854.3875
3229.56269	30834.3875
3231.8527	30778.8875
3234.14133	30712.3875
3236.42858	30684.3875
3238.71446	30564.3875
3240.99896	30499.4875
3243.28209	30457.6875
3245.56384	30451.7875
3247.84423	30459.8875
3250.12324	30412.5875
3252.40088	30252.1875
3254.67715	30260.8875
3256.95205	30196.7875
3259.22558	30248.2875
3261.49775	30209.7875
3263.76855	30116.6875
3266.03799	30056.8875
3268.30606	30066.7875
3270.57277	30022.6875
3272.83812	29966.9875
3275.10211	29875.5875
3277.36474	29840.8875
3279.62601	29795.7875
3281.88593	29765.7875
3284.14448	29780.9875
3286.40168	29725.3875
3288.65753	29748.9875
3290.91202	29753.8875
3293.16516	29684.3875
3295.41695	29621.3875
3297.66738	29414.4875
3299.91647	29230.5875
3302.16421	29050.2875
3304.4106	28937.2875
3306.65564	28761.6875
3308.89933	28503.8875
3311.14169	28318.8875
3313.38269	28113.3875
3315.62236	27924.7875
3317.86068	27704.0875
3320.09766	27484.5875
3322.3333	27306.7875
3324.5676	27202.1875
3326.80056	26803.3875
3329.03219	26600.2875
3331.26248	6.6875
3333.49143	0.4875
3335.71905	-0.7125
