Data from AgNPs_FTO_APTES_UA_20uM_CRN_0uM_R6G_10uM_NaF_0.1M_Addition_RamanShift__0__10-49-41-946.txt Node

Date: Thu Feb 17 10:49:41 GMT 2022
User: TCL
Spectrometer: QEP01345
Trigger mode: 4
Integration Time (sec): 7.000000E0
Scans to average: 10
Electric dark correction enabled: true
Nonlinearity correction enabled: false
Boxcar width: 0
XAxis mode: Raman Shifts
Number of Pixels in Spectrum: 1044
>>>>>Begin Spectral Data<<<<<
46.04893	0.3
50.45542	0.2
54.85868	-2.1
59.25871	-0.2
63.6555	36.1
68.04907	33.2
72.43941	42.4
76.82654	40.4
81.21044	44.5
85.59113	48.6
89.96862	49.7
94.34289	50.6
98.71396	49.9
103.08183	56
107.4465	59.1
111.80798	54
116.16626	55.3
120.52136	60.3
124.87327	58.2
129.222	63.8
133.56755	65.5
137.90993	70.9
142.24913	75
146.58517	87.3
150.91804	104.8
155.24774	125.7
159.57429	158.6
163.89768	205.4
168.21792	277.2
172.53501	382
176.84895	532.3
181.15975	750.8
185.46741	1059.1
189.77193	1459.1
194.07331	1966.6
198.37157	2544
202.6667	3143.9
206.9587	3765.1
211.24758	4372.3
215.53334	5022.3
219.81599	5737.5
224.09553	6506
228.37195	7411.5
232.64527	8331.6
236.91549	9230
241.18261	10018.3
245.44663	10624
249.70755	11080.9
253.96539	11420.5
258.22014	11721.6
262.4718	12031.9
266.72039	12295.7
270.96589	12338.1
275.20832	12225.3
279.44768	11962.5
283.68397	11655.8
287.91719	11449.9
292.14735	11404.2
296.37445	11685.4
300.59849	12268.6
304.81948	13007.2
309.03742	13773.4
313.25231	14204
317.46415	13944.9
321.67296	12983.5
325.87872	11866.1
330.08145	11169.4
334.28114	10926.2
338.47781	10993.5
342.67145	11344.6
346.86207	11893.3
351.04966	12665.2
355.23424	13581.2
359.4158	14104.7
363.59435	14128.5
367.76989	13929.2
371.94243	13602.3
376.11196	13338.6
380.27849	13122.5
384.44203	12891.7
388.60257	12728.1
392.76012	12722.8
396.91468	12898.8
401.06626	13199
405.21485	13402.6
409.36047	13041.5
413.50311	12163
417.64277	11393.6
421.77947	10946.2
425.9132	10740.2
430.04396	10649.5
434.17176	10609.5
438.2966	10689.5
442.41849	10915.4
446.53742	11272.9
450.6534	11581.2
454.76644	11680.8
458.87653	11538.2
462.98368	11306.4
467.08789	11034.7
471.18916	10733
475.2875	10330.9
479.38291	9995.4
483.4754	9746.2
487.56496	9640
491.6516	9563.7
495.73531	9593.1
499.81612	9646.7
503.89401	9821.8
507.96899	10013.9
512.04106	10209.8
516.11023	10413.2
520.1765	10573.1
524.23987	10645.6
528.30034	10544.1
532.35792	10431.4
536.41261	10186.5
540.46441	9821.9
544.51333	9583.5
548.55936	9577.6
552.60252	9792.7
556.64279	10188
560.6802	10509.5
564.71473	10754.3
568.7464	11272.7
572.7752	11596.6
576.80114	11164.6
580.82422	10687.8
584.84444	10711.5
588.86181	11194.8
592.87633	11783.1
596.888	12169.6
600.89682	12009.9
604.9028	12768.1
608.90594	16919.3
612.90624	23525.7
616.90371	23662.7
620.89834	15343.4
624.89015	10653.4
628.87913	9757.8
632.86528	9970.8
636.84862	10296.9
640.82913	10035.2
644.80683	9312.9
648.78172	8879.5
652.75379	8885
656.72306	9356
660.68952	10006.6
664.65319	9899
668.61405	9052.8
672.57211	8592.8
676.52738	8578.5
680.47986	8631.4
684.42955	8522.1
688.37646	8365.8
692.32058	8328.4
696.26192	8434.5
700.20048	8607.2
704.13626	8741.2
708.06928	8745.7
711.99952	8661.9
715.927	8632.4
719.85171	8744.6
723.77365	8805
727.69284	8715.2
731.60928	8550.8
735.52295	8499.8
739.43388	8502.6
743.34206	8570.4
747.24749	8586.3
751.15017	8620.7
755.05012	8804.4
758.94733	9434.8
762.8418	11062.1
766.73354	13951.3
770.62254	16759.9
774.50882	17726.9
778.39237	16522.8
782.27321	14093.8
786.15132	11496.1
790.02671	9730.9
793.89938	8920
797.76935	8563.1
801.6366	8372.7
805.50115	8278.1
809.36299	8178
813.22213	8070
817.07857	8012.6
820.93231	7981.9
824.78336	7967.1
828.63172	8000.6
832.47738	8036.8
836.32036	7968.8
840.16066	7905.9
843.99827	7833.3
847.8332	7813.9
851.66546	7795.8
855.49504	7799.1
859.32195	7773.7
863.1462	7712.9
866.96777	7698.2
870.78668	7682.3
874.60293	7686.6
878.41652	7750.2
882.22745	7808.9
886.03573	7902.5
889.84136	7892.8
893.64433	7865.5
897.44466	7879.9
901.24235	7902.8
905.0374	7859.8
908.8298	7753
912.61957	7668.5
916.40671	7648.9
920.19121	7707.8
923.97308	7882.6
927.75233	8109.1
931.52895	8318.2
935.30295	8179.9
939.07433	7766.9
942.84309	7376.3
946.60924	7163.8
950.37278	7045.4
954.13371	7021.6
957.89203	6963.8
961.64774	6926
965.40086	6881.2
969.15137	6851.2
972.89929	6814.7
976.64461	6772.8
980.38733	6739
984.12747	6727.7
987.86502	6737.8
991.59999	6783.2
995.33237	6858.5
999.06217	6989.2
1002.78939	7175.1
1006.51404	7452.7
1010.23611	7760.8
1013.95561	7884.9
1017.67255	7853.1
1021.38692	7710.7
1025.09872	7445.6
1028.80796	7190.2
1032.51465	7065
1036.21877	7042.1
1039.92035	7075.7
1043.61937	7121.8
1047.31584	7200.9
1051.00976	7260.7
1054.70114	7249.4
1058.38998	7235
1062.07627	7228.7
1065.76003	7240.3
1069.44126	7285.7
1073.11995	7411.3
1076.79611	7620.9
1080.46974	7942.3
1084.14085	8368.2
1087.80943	8874
1091.47549	9083.6
1095.13903	8757.2
1098.80005	8197.7
1102.45857	7748.9
1106.11456	7559.4
1109.76805	7606.3
1113.41903	7849.4
1117.06751	8273.4
1120.71348	8839.8
1124.35696	9552.8
1127.99793	10283.5
1131.63641	10363.6
1135.2724	9604.4
1138.90589	8794.5
1142.5369	8285.2
1146.16542	8007.7
1149.79145	7857.6
1153.415	7797
1157.03607	7838.9
1160.65467	8137.2
1164.27079	8718.7
1167.88443	9565.4
1171.49561	10816
1175.10432	12743.5
1178.71056	15418
1182.31434	17728
1185.91565	18275.9
1189.51451	17342.1
1193.11091	15733.4
1196.70485	14116.9
1200.29634	12745
1203.88538	11637.4
1207.47197	10485.3
1211.05612	9509.2
1214.63782	8873.1
1218.21708	8619.7
1221.79391	8592
1225.36829	8762.4
1228.94024	8870.1
1232.50976	8831.5
1236.07685	8684.6
1239.6415	8582.8
1243.20374	8506.3
1246.76355	8520.5
1250.32093	8564.6
1253.8759	8771.1
1257.42845	9213.4
1260.97859	9853.5
1264.52631	10549.8
1268.07163	11196.2
1271.61453	11640.2
1275.15503	11884.8
1278.69312	11988.1
1282.22882	12125.8
1285.76211	12632
1289.29301	13534
1292.82151	14471.4
1296.34761	15334.4
1299.87133	16485
1303.39266	18256.5
1306.9116	21038.4
1310.42815	24486.2
1313.94233	26758.7
1317.45412	26086.4
1320.96354	23148.9
1324.47058	19953.5
1327.97525	17256.6
1331.47754	15419.2
1334.97747	14400.3
1338.47502	14030.2
1341.97022	14200.1
1345.46305	15177
1348.95352	17064.5
1352.44163	19515.6
1355.92738	22598.4
1359.41078	27263.7
1362.89183	32542.9
1366.37053	33032.1
1369.84688	26873.8
1373.32088	19664.7
1376.79254	15257.6
1380.26186	13334.9
1383.72883	12327.5
1387.19347	11488.3
1390.65578	10683.7
1394.11575	10187.2
1397.57339	10028.4
1401.0287	10024.7
1404.48168	10028.1
1407.93234	9945.5
1411.38068	9849.1
1414.82669	9775.2
1418.27039	9777.1
1421.71177	9760.4
1425.15083	9578.1
1428.58758	9432.1
1432.02203	9603.2
1435.45416	9898.5
1438.88399	10067.8
1442.31151	9971.7
1445.73673	9901.4
1449.15965	9870.2
1452.58027	9728.2
1455.9986	9519.2
1459.41463	9437
1462.82837	9574.2
1466.23982	9861.4
1469.64898	10199.6
1473.05586	10522.1
1476.46045	10699.6
1479.86276	10862.9
1483.26279	11114.3
1486.66054	11541
1490.05602	12243.2
1493.44922	13268.2
1496.84016	14769.8
1500.22882	17052.5
1503.61521	20267.7
1506.99934	24312.5
1510.38121	28337.7
1513.76081	30515.7
1517.13816	28907
1520.51324	24398.1
1523.88607	19591.2
1527.25665	16137.8
1530.62498	14086.8
1533.99105	12795.1
1537.35488	11767.7
1540.71647	11015.4
1544.07581	10471
1547.4329	10145.4
1550.78776	10003.2
1554.14038	10075.5
1557.49077	10380.6
1560.83892	10861.7
1564.18484	11576
1567.52853	12464.5
1570.86999	13207.7
1574.20922	13598
1577.54624	13568.9
1580.88103	12574.4
1584.2136	11033.7
1587.54395	10074
1590.87208	10019
1594.19801	10807.6
1597.52172	11984.4
1600.84321	12419.2
1604.16251	11637.2
1607.47959	10388.1
1610.79447	9259.8
1614.10715	8310.2
1617.41763	7508.2
1620.7259	7020
1624.03199	6826.6
1627.33587	6880.3
1630.63757	7267.4
1633.93707	8051.8
1637.23439	9473.1
1640.52951	11717
1643.82246	14982.2
1647.11321	18687.7
1650.40179	21259.2
1653.68819	20627.5
1656.97241	16790.1
1660.25446	12314.4
1663.53433	9091
1666.81203	7218
1670.08756	6229.8
1673.36092	5655.8
1676.63211	5318
1679.90115	5080.6
1683.16801	4915.5
1686.43272	4814.3
1689.69527	4724.1
1692.95567	4671.4
1696.2139	4606.4
1699.46999	4568
1702.72392	4533.6
1705.97571	4506.9
1709.22535	4466
1712.47284	4480.6
1715.71819	4510.1
1718.96139	4500.3
1722.20246	4456.4
1725.44139	4395
1728.67818	4341.7
1731.91284	4276.4
1735.14537	4201.7
1738.37576	4104
1741.60403	4099.6
1744.83017	4103.5
1748.05418	4061.9
1751.27607	4030.1
1754.49584	4000.5
1757.71349	3981.8
1760.92903	3969.6
1764.14244	3950
1767.35375	3912.9
1770.56294	3896.6
1773.77002	3875.1
1776.97499	3853.5
1780.17785	3832
1783.37861	3800.7
1786.57727	3794.7
1789.77382	3783.5
1792.96828	3766.6
1796.16064	3760.6
1799.3509	3739.4
1802.53907	3728.3
1805.72514	3708.8
1808.90913	3680.7
1812.09102	3644.9
1815.27083	3638.5
1818.44856	3627.7
1821.6242	3618.3
1824.79776	3617.3
1827.96924	3601.5
1831.13864	3592.3
1834.30597	3585.2
1837.47122	3588.6
1840.6344	3564.6
1843.7955	3554.9
1846.95454	3543
1850.11151	3520
1853.26642	3503
1856.41926	3473.7
1859.57004	3474.8
1862.71876	3458.6
1865.86542	3425.8
1869.01003	3422.5
1872.15258	3412.3
1875.29308	3406
1878.43152	3391.2
1881.56792	3383.9
1884.70227	3360.9
1887.83457	3366.6
1890.96482	3344.3
1894.09304	3336.3
1897.21921	3307.3
1900.34335	3297.2
1903.46544	3289.5
1906.58551	3274.9
1909.70353	3270.8
1912.81953	3250.2
1915.93349	3246.3
1919.04543	3224.5
1922.15534	3205.7
1925.26322	3186.1
1928.36908	3170.1
1931.47292	3144.3
1934.57473	3111.8
1937.67453	3084.5
1940.77232	3067.9
1943.86808	3050.3
1946.96184	3042.7
1950.05358	3029
1953.14331	3021.8
1956.23103	3018.6
1959.31675	3014
1962.40046	2983.9
1965.48217	2978.8
1968.56188	2979.3
1971.63959	2969.6
1974.7153	2971.4
1977.78901	2958.2
1980.86073	2936
1983.93046	2910.1
1986.99819	2885.8
1990.06394	2867.3
1993.1277	2848.4
1996.18947	2832.2
1999.24925	2824.2
2002.30706	2789.2
2005.36288	2771.2
2008.41672	2760.5
2011.46859	2748.7
2014.51848	2736.5
2017.56639	2720.3
2020.61233	2700.7
2023.6563	2682.9
2026.6983	2675
2029.73833	2660.3
2032.7764	2652.8
2035.8125	2642.6
2038.84664	2627
2041.87881	2624.6
2044.90903	2615.8
2047.93729	2607.3
2050.96359	2604.1
2053.98794	2592.6
2057.01034	2592.6
2060.03078	2583.3
2063.04927	2580.7
2066.06582	2578.8
2069.08042	2571.7
2072.09307	2554.9
2075.10378	2555.2
2078.11255	2531.5
2081.11938	2544.8
2084.12426	2551.8
2087.12722	2543.7
2090.12824	2533.4
2093.12732	2551.6
2096.12447	2539
2099.11969	2541.1
2102.11299	2546.5
2105.10435	2541.2
2108.09379	2535.1
2111.08131	2526.7
2114.0669	2525.6
2117.05057	2519.9
2120.03233	2522.6
2123.01216	2529.6
2125.99008	2535.3
2128.96609	2529.9
2131.94018	2521.3
2134.91236	2498.5
2137.88263	2507.1
2140.851	2486.2
2143.81746	2464.3
2146.78201	2457.4
2149.74466	2444.2
2152.7054	2433.8
2155.66425	2424.7
2158.6212	2426
2161.57625	2418.5
2164.52941	2404.8
2167.48067	2391.9
2170.43004	2391.8
2173.37752	2382.4
2176.32311	2378.5
2179.26681	2386.6
2182.20863	2385.3
2185.14856	2393.3
2188.08661	2376.9
2191.02278	2353.3
2193.95707	2352.2
2196.88948	2339.6
2199.82001	2327.7
2202.74867	2341.3
2205.67545	2319.2
2208.60037	2307.1
2211.52341	2304.1
2214.44458	2298.3
2217.36388	2286.5
2220.28132	2287.9
2223.1969	2250.8
2226.11061	2254.5
2229.02246	2240
2231.93245	2241.2
2234.84058	2243.5
2237.74686	2225.1
2240.65128	2226.1
2243.55385	2228.5
2246.45456	2220.2
2249.35343	2215.4
2252.25044	2222.6
2255.14561	2227.8
2258.03893	2233.2
2260.93041	2238.2
2263.82004	2219.2
2266.70783	2211.7
2269.59378	2211.3
2272.4779	2205.8
2275.36017	2203.2
2278.24061	2186.3
2281.11922	2184.5
2283.996	2165.8
2286.87094	2164
2289.74405	2148
2292.61534	2136.9
2295.4848	2117.2
2298.35243	2107.9
2301.21824	2096.9
2304.08223	2093.9
2306.94439	2095.2
2309.80474	2093.1
2312.66327	2093.5
2315.51999	2086.1
2318.37489	2070.2
2321.22797	2069.2
2324.07925	2066.9
2326.92871	2069.2
2329.77637	2059.3
2332.62222	2053.5
2335.46626	2051.4
2338.3085	2043.8
2341.14893	2050.9
2343.98756	2043.3
2346.8244	2054.2
2349.65943	2054
2352.49267	2068.7
2355.32411	2072.3
2358.15376	2081
2360.98161	2094.4
2363.80768	2107.6
2366.63195	2118.8
2369.45444	2116.7
2372.27514	2115.6
2375.09405	2113.4
2377.91118	2101.2
2380.72652	2074.5
2383.54009	2059.9
2386.35187	2038.6
2389.16188	2012.2
2391.97011	1998.8
2394.77657	1981.6
2397.58125	1968.1
2400.38416	1959.3
2403.18529	1943.4
2405.98466	1936.4
2408.78226	1936.4
2411.57809	1928.9
2414.37216	1933.2
2417.16446	1931.7
2419.955	1917.8
2422.74378	1919.6
2425.5308	1920.1
2428.31606	1925.5
2431.09956	1919.8
2433.88131	1928.2
2436.6613	1920
2439.43954	1932.7
2442.21603	1924.2
2444.99077	1939.5
2447.76377	1942.2
2450.53501	1945.9
2453.30451	1944.2
2456.07226	1957.5
2458.83827	1949
2461.60254	1945.7
2464.36507	1934.8
2467.12586	1940.6
2469.88492	1936.8
2472.64224	1936.9
2475.39782	1938
2478.15167	1942.5
2480.90379	1951.1
2483.65417	1957.7
2486.40283	1982.5
2489.14976	1987.9
2491.89497	2001.1
2494.63845	1979.8
2497.3802	1971.7
2500.12024	1967.1
2502.85855	1959
2505.59514	1941.2
2508.33002	1924
2511.06318	1903.5
2513.79462	1865.5
2516.52435	1859
2519.25237	1842
2521.97867	1824.2
2524.70327	1814.8
2527.42616	1795.8
2530.14734	1799.4
2532.86681	1789.4
2535.58458	1795.5
2538.30065	1792.9
2541.01501	1795.4
2543.72768	1800.5
2546.43864	1798.2
2549.14791	1796.9
2551.85548	1791.8
2554.56136	1800.5
2557.26554	1788.6
2559.96803	1792
2562.66883	1785.2
2565.36794	1788.5
2568.06536	1795
2570.7611	1782.8
2573.45514	1777.2
2576.14751	1783.5
2578.83819	1759.3
2581.52719	1755.2
2584.21451	1744.7
2586.90015	1733.1
2589.58411	1738.4
2592.2664	1738.8
2594.94701	1720
2597.62594	1728.7
2600.30321	1723.3
2602.9788	1727.6
2605.65273	1723.3
2608.32498	1711.4
2610.99557	1722.3
2613.66449	1725.4
2616.33175	1712.6
2618.99734	1728
2621.66128	1706.4
2624.32355	1711.3
2626.98416	1706
2629.64311	1704.1
2632.30041	1686.3
2634.95605	1684
2637.61004	1675.5
2640.26238	1669.8
2642.91306	1657
2645.56209	1654.5
2648.20948	1663.5
2650.85521	1661.5
2653.4993	1664.8
2656.14175	1656.8
2658.78255	1668.6
2661.42171	1674.5
2664.05923	1674.9
2666.6951	1674.3
2669.32934	1689.7
2671.96194	1687.5
2674.59291	1686.7
2677.22224	1694.1
2679.84993	1682.6
2682.476	1681
2685.10043	1678
2687.72324	1658.6
2690.34441	1651
2692.96396	1653
2695.58188	1656.7
2698.19818	1648.7
2700.81285	1643.6
2703.4259	1652.5
2706.03733	1637.9
2708.64714	1655
2711.25533	1650.9
2713.86191	1655.6
2716.46687	1655.7
2719.07021	1663.6
2721.67194	1665.9
2724.27206	1661
2726.87057	1651.9
2729.46747	1661.5
2732.06276	1645.1
2734.65644	1639.3
2737.24852	1627.5
2739.83899	1620.9
2742.42786	1616.2
2745.01513	1624.9
2747.60079	1610.1
2750.18486	1600.3
2752.76733	1605
2755.3482	1602.7
2757.92747	1598.5
2760.50515	1592.9
2763.08123	1586.2
2765.65573	1578
2768.22863	1570.5
2770.79994	1565.1
2773.36967	1576
2775.9378	1567.1
2778.50435	1582.6
2781.06932	1574.3
2783.6327	1577
2786.1945	1574.3
2788.75471	1571.2
2791.31335	1568.9
2793.87041	1572.4
2796.42589	1572.1
2798.97979	1566.8
2801.53212	1569.6
2804.08288	1572.6
2806.63206	1573.8
2809.17967	1579.7
2811.72571	1581.5
2814.27018	1574.1
2816.81308	1586.1
2819.35442	1593.5
2821.89419	1594.3
2824.43239	1604.3
2826.96904	1607
2829.50412	1618.3
2832.03763	1613.5
2834.56959	1613.4
2837.1	1614.1
2839.62884	1619.1
2842.15613	1612.5
2844.68186	1630
2847.20604	1639.9
2849.72867	1657.9
2852.24974	1655.8
2854.76927	1659.6
2857.28724	1669.9
2859.80367	1672.3
2862.31855	1672.1
2864.83189	1686.2
2867.34368	1685.1
2869.85393	1698
2872.36264	1705.1
2874.8698	1701.5
2877.37543	1701.9
2879.87952	1696.5
2882.38207	1695.8
2884.88308	1699.9
2887.38256	1691.8
2889.88051	1682.3
2892.37692	1682.1
2894.8718	1682.9
2897.36515	1688
2899.85698	1682.5
2902.34727	1680
2904.83604	1691.7
2907.32328	1696.4
2909.809	1709.4
2912.29319	1711.2
2914.77587	1710.3
2917.25702	1723
2919.73665	1723.1
2922.21476	1719.9
2924.69136	1705
2927.16644	1684.9
2929.64	1685.1
2932.11205	1676.8
2934.58258	1665.5
2937.05161	1662.5
2939.51912	1647.6
2941.98513	1647
2944.44962	1614.3
2946.91261	1610.9
2949.37409	1593.6
2951.83407	1592.4
2954.29254	1589.9
2956.74951	1585.9
2959.20498	1572.4
2961.65895	1571.8
2964.11142	1567.1
2966.56239	1558
2969.01186	1534.4
2971.45984	1526.7
2973.90632	1513.1
2976.35131	1507.9
2978.7948	1498.9
2981.23681	1482
2983.67732	1497.2
2986.11635	1477.6
2988.55388	1473.3
2990.98993	1458.9
2993.4245	1470
2995.85758	1464.7
2998.28917	1457.4
3000.71928	1458.2
3003.14791	1457.7
3005.57506	1460.7
3008.00073	1453.4
3010.42493	1463
3012.84764	1452.5
3015.26888	1441.9
3017.68865	1442.3
3020.10694	1434.2
3022.52376	1436.3
3024.9391	1434.2
3027.35298	1422.3
3029.76539	1410.4
3032.17632	1414.1
3034.5858	1399.1
3036.9938	1395.5
3039.40034	1384.1
3041.80542	1389.6
3044.20903	1377.7
3046.61118	1372.8
3049.01187	1375.5
3051.4111	1370.5
3053.80888	1368
3056.20519	1370
3058.60005	1369.8
3060.99345	1368.1
3063.3854	1364.9
3065.7759	1365.4
3068.16494	1361
3070.55254	1355.6
3072.93868	1346
3075.32338	1347.7
3077.70662	1347
3080.08842	1338
3082.46878	1342.2
3084.84769	1338.8
3087.22515	1335.1
3089.60118	1330.2
3091.97576	1324.4
3094.3489	1329
3096.72061	1329.4
3099.09087	1335.1
3101.4597	1337
3103.82709	1345.8
3106.19305	1340.7
3108.55757	1338.5
3110.92066	1341.5
3113.28232	1346.7
3115.64255	1338.5
3118.00134	1344.3
3120.35871	1337.9
3122.71466	1343.6
3125.06917	1343.1
3127.42226	1346.2
3129.77393	1349.9
3132.12417	1350
3134.47299	1357.9
3136.82039	1354.7
3139.16636	1365
3141.51092	1363.2
3143.85406	1362.1
3146.19579	1358.9
3148.53609	1375.5
3150.87499	1373.3
3153.21246	1394.4
3155.54853	1394.1
3157.88318	1393.3
3160.21642	1403
3162.54826	1410.2
3164.87868	1404.7
3167.2077	1407.9
3169.5353	1418.3
3171.86151	1417.2
3174.18631	1412.3
3176.5097	1415.3
3178.83169	1423.6
3181.15228	1412.2
3183.47147	1413.7
3185.78926	1415.8
3188.10565	1408
3190.42065	1414.8
3192.73424	1416.3
3195.04645	1410.7
3197.35725	1409.2
3199.66667	1418.1
3201.97469	1423.7
3204.28132	1438.4
3206.58656	1428.6
3208.8904	1441.8
3211.19287	1444.3
3213.49394	1444.7
3215.79363	1446.1
3218.09193	1453.9
3220.38884	1458.8
3222.68438	1461.9
3224.97853	1460
3227.2713	1462.6
3229.56269	1466
3231.8527	1465.4
3234.14133	1460.2
3236.42858	1457.7
3238.71446	1453.8
3240.99896	1451.3
3243.28209	1453.7
3245.56384	1452.2
3247.84423	1451.4
3250.12324	1442.7
3252.40088	1441.3
3254.67715	1447
3256.95205	1441.5
3259.22558	1444.9
3261.49775	1456.3
3263.76855	1441.2
3266.03799	1432.1
3268.30606	1438.5
3270.57277	1435
3272.83812	1431.9
3275.10211	1441.2
3277.36474	1446.3
3279.62601	1443
3281.88593	1447.5
3284.14448	1446.9
3286.40168	1440.5
3288.65753	1451.9
3290.91202	1446.6
3293.16516	1447.2
3295.41695	1456.6
3297.66738	1453.2
3299.91647	1446.9
3302.16421	1432.4
3304.4106	1425.6
3306.65564	1414.2
3308.89933	1408.9
3311.14169	1393.7
3313.38269	1384.7
3315.62236	1371.9
3317.86068	1358.5
3320.09766	1347.7
3322.3333	1330.8
3324.5676	1324.7
3326.80056	1304.7
3329.03219	1305.7
3331.26248	1.6
3333.49143	0.5
3335.71905	-0.4
