Data from AgNPs_FTO_APTES_UA_20uM_CRN_20uM_R6G_10uM_NaF_0.1M_Addition_RamanShift__16__15-08-42-256.txt Node

Date: Thu Feb 17 15:08:42 GMT 2022
User: TCL
Spectrometer: QEP01345
Trigger mode: 4
Integration Time (sec): 7.000000E0
Scans to average: 10
Electric dark correction enabled: true
Nonlinearity correction enabled: false
Boxcar width: 0
XAxis mode: Raman Shifts
Number of Pixels in Spectrum: 1044
>>>>>Begin Spectral Data<<<<<
46.04893	0.525
50.45542	-0.675
54.85868	-3.475
59.25871	-1.475
63.6555	109.725
68.04907	113.025
72.43941	120.325
76.82654	121.425
81.21044	121.625
85.59113	129.825
89.96862	129.325
94.34289	132.125
98.71396	139.525
103.08183	140.825
107.4465	148.925
111.80798	149.825
116.16626	154.025
120.52136	164.625
124.87327	169.025
129.222	180.925
133.56755	191.525
137.90993	204.425
142.24913	223.625
146.58517	256.725
150.91804	299.125
155.24774	353.125
159.57429	448.725
163.89768	571.225
168.21792	766.625
172.53501	1050.325
176.84895	1478.325
181.15975	2100.025
185.46741	2960.625
189.77193	4105.225
194.07331	5544.325
198.37157	7170.725
202.6667	8937.025
206.9587	10605.825
211.24758	12261.825
215.53334	13942.325
219.81599	15604.725
224.09553	17446.425
228.37195	19523.725
232.64527	21772.525
236.91549	24302.225
241.18261	26894.725
245.44663	29410.825
249.70755	31751.225
253.96539	33824.725
258.22014	35677.625
262.4718	36998.325
266.72039	38054.525
270.96589	38551.225
275.20832	38645.425
279.44768	38421.225
283.68397	37972.525
287.91719	37483.425
292.14735	37167.925
296.37445	36893.325
300.59849	36775.825
304.81948	36786.325
309.03742	36687.725
313.25231	36468.525
317.46415	36244.125
321.67296	35801.425
325.87872	35507.225
330.08145	35412.625
334.28114	35667.425
338.47781	35969.225
342.67145	36382.625
346.86207	36844.325
351.04966	37460.125
355.23424	38094.725
359.4158	38758.825
363.59435	39264.725
367.76989	39709.725
371.94243	40111.825
376.11196	40421.625
380.27849	40754.325
384.44203	41030.625
388.60257	41267.425
392.76012	41578.125
396.91468	41912.825
401.06626	42336.925
405.21485	42655.025
409.36047	42762.625
413.50311	42553.425
417.64277	42270.425
421.77947	42111.025
425.9132	42151.025
430.04396	42348.225
434.17176	42602.325
438.2966	42955.825
442.41849	43371.325
446.53742	43983.825
450.6534	44631.525
454.76644	45189.325
458.87653	45499.425
462.98368	45600.825
467.08789	45523.025
471.18916	45206.225
475.2875	44907.625
479.38291	44628.725
483.4754	44459.125
487.56496	44292.625
491.6516	44199.325
495.73531	44187.625
499.81612	44162.925
503.89401	44344.125
507.96899	44501.025
512.04106	44540.425
516.11023	44634.025
520.1765	44718.125
524.23987	44800.125
528.30034	44727.125
532.35792	44613.025
536.41261	44472.925
540.46441	44296.525
544.51333	44285.625
548.55936	44499.225
552.60252	44815.725
556.64279	45187.825
560.6802	45285.725
564.71473	45370.725
568.7464	45476.025
572.7752	45701.425
576.80114	45858.425
580.82422	46074.525
584.84444	46301.825
588.86181	46624.325
592.87633	46822.625
596.888	47115.425
600.89682	47571.125
604.9028	48919.625
608.90594	51780.625
612.90624	54694.525
616.90371	53305.725
620.89834	48839.125
624.89015	46879.025
628.87913	46714.125
632.86528	46692.625
636.84862	46646.625
640.82913	46452.825
644.80683	45976.725
648.78172	45644.325
652.75379	45594.225
656.72306	45957.425
660.68952	46501.425
664.65319	46516.625
668.61405	46239.025
672.57211	46256.325
676.52738	46412.825
680.47986	46392.025
684.42955	46298.325
688.37646	46335.825
692.32058	46518.025
696.26192	46838.825
700.20048	47162.025
704.13626	47306.825
708.06928	47256.225
711.99952	47042.225
715.927	47023.325
719.85171	47021.625
723.77365	47060.925
727.69284	46947.325
731.60928	46723.525
735.52295	46680.225
739.43388	46700.125
743.34206	46807.625
747.24749	46873.525
751.15017	46921.625
755.05012	47208.025
758.94733	47677.025
762.8418	48558.425
766.73354	50160.025
770.62254	51893.125
774.50882	52758.725
778.39237	52026.325
782.27321	50240.825
786.15132	48636.325
790.02671	47667.525
793.89938	47162.525
797.76935	47056.925
801.6366	46987.025
805.50115	46876.325
809.36299	46756.725
813.22213	46721.525
817.07857	46699.925
820.93231	46687.425
824.78336	46808.925
828.63172	46860.025
832.47738	46891.725
836.32036	46992.925
840.16066	47137.525
843.99827	47315.625
847.8332	47267.725
851.66546	47255.925
855.49504	47352.125
859.32195	47437.425
863.1462	47482.525
866.96777	47388.625
870.78668	47385.525
874.60293	47488.325
878.41652	47453.025
882.22745	47573.925
886.03573	47684.625
889.84136	47645.825
893.64433	47478.025
897.44466	47321.625
901.24235	47223.625
905.0374	47140.925
908.8298	47131.525
912.61957	47183.825
916.40671	47262.125
920.19121	47502.125
923.97308	47597.825
927.75233	47704.225
931.52895	47649.225
935.30295	47672.625
939.07433	47306.625
942.84309	47085.225
946.60924	46994.325
950.37278	46972.025
954.13371	46895.525
957.89203	46754.725
961.64774	46657.525
965.40086	46553.925
969.15137	46487.425
972.89929	46505.025
976.64461	46525.325
980.38733	46613.725
984.12747	46723.725
987.86502	47043.325
991.59999	47450.225
995.33237	47860.625
999.06217	48362.325
1002.78939	48994.625
1006.51404	49308.625
1010.23611	49393.725
1013.95561	49568.925
1017.67255	49651.725
1021.38692	49561.225
1025.09872	49477.925
1028.80796	49685.025
1032.51465	50279.325
1036.21877	50847.025
1039.92035	50924.425
1043.61937	50625.325
1047.31584	50044.225
1051.00976	49545.525
1054.70114	49334.325
1058.38998	49287.225
1062.07627	49386.425
1065.76003	49519.625
1069.44126	49601.625
1073.11995	49941.725
1076.79611	50209.325
1080.46974	50474.825
1084.14085	50720.725
1087.80943	50991.125
1091.47549	51072.525
1095.13903	50964.025
1098.80005	50694.625
1102.45857	50416.625
1106.11456	50330.725
1109.76805	50392.525
1113.41903	50498.925
1117.06751	50654.625
1120.71348	50773.125
1124.35696	50949.425
1127.99793	51162.925
1131.63641	51129.025
1135.2724	50918.325
1138.90589	50573.725
1142.5369	50275.925
1146.16542	50072.525
1149.79145	49911.125
1153.415	49787.025
1157.03607	49875.325
1160.65467	50175.725
1164.27079	50801.625
1167.88443	51703.725
1171.49561	52937.925
1175.10432	54560.925
1178.71056	56692.525
1182.31434	58741.925
1185.91565	59936.525
1189.51451	59952.725
1193.11091	59018.125
1196.70485	57628.325
1200.29634	56412.525
1203.88538	55502.825
1207.47197	54677.625
1211.05612	53958.325
1214.63782	53377.725
1218.21708	53130.125
1221.79391	53146.725
1225.36829	53179.225
1228.94024	53148.325
1232.50976	52663.725
1236.07685	52286.925
1239.6415	52122.525
1243.20374	52351.625
1246.76355	52585.025
1250.32093	52954.025
1253.8759	53487.925
1257.42845	54135.825
1260.97859	54674.825
1264.52631	55206.025
1268.07163	55893.725
1271.61453	56556.925
1275.15503	57249.925
1278.69312	57914.725
1282.22882	58409.725
1285.76211	58692.325
1289.29301	58889.125
1292.82151	59267.525
1296.34761	59860.625
1299.87133	61033.625
1303.39266	62815.725
1306.9116	65102.125
1310.42815	67493.525
1313.94233	68939.325
1317.45412	68819.425
1320.96354	67720.725
1324.47058	66281.025
1327.97525	64801.925
1331.47754	63694.225
1334.97747	63228.125
1338.47502	63309.825
1341.97022	63833.125
1345.46305	64398.125
1348.95352	64926.525
1352.44163	65541.425
1355.92738	66652.325
1359.41078	68610.625
1362.89183	70346.825
1366.37053	69528.425
1369.84688	65672.625
1373.32088	61400.025
1376.79254	58465.225
1380.26186	56909.825
1383.72883	56090.125
1387.19347	55604.625
1390.65578	54895.325
1394.11575	54283.025
1397.57339	53890.825
1401.0287	53970.925
1404.48168	54213.025
1407.93234	54400.425
1411.38068	54526.325
1414.82669	54467.325
1418.27039	54104.325
1421.71177	53608.125
1425.15083	53154.325
1428.58758	52892.725
1432.02203	52935.825
1435.45416	53145.925
1438.88399	53475.525
1442.31151	53741.025
1445.73673	53916.525
1449.15965	53972.525
1452.58027	54031.125
1455.9986	53930.625
1459.41463	54040.225
1462.82837	54399.225
1466.23982	55065.925
1469.64898	55799.325
1473.05586	56412.425
1476.46045	56843.225
1479.86276	57008.225
1483.26279	57036.625
1486.66054	57045.025
1490.05602	57321.525
1493.44922	57716.825
1496.84016	58336.825
1500.22882	59317.725
1503.61521	60887.525
1506.99934	62582.025
1510.38121	63942.225
1513.76081	64114.825
1517.13816	62806.425
1520.51324	60863.125
1523.88607	58995.625
1527.25665	57788.825
1530.62498	57183.925
1533.99105	56801.625
1537.35488	56623.125
1540.71647	56508.525
1544.07581	56402.325
1547.4329	56216.725
1550.78776	56120.425
1554.14038	55946.725
1557.49077	55798.425
1560.83892	55741.225
1564.18484	55788.425
1567.52853	55935.225
1570.86999	56146.025
1574.20922	56320.925
1577.54624	56341.425
1580.88103	55805.125
1584.2136	55303.325
1587.54395	55412.625
1590.87208	56368.125
1594.19801	57940.725
1597.52172	60032.125
1600.84321	61092.125
1604.16251	60359.625
1607.47959	58650.325
1610.79447	56727.525
1614.10715	54732.725
1617.41763	53047.025
1620.7259	51744.725
1624.03199	51100.525
1627.33587	50881.925
1630.63757	51194.325
1633.93707	52142.625
1637.23439	53645.325
1640.52951	55719.025
1643.82246	58158.625
1647.11321	60211.025
1650.40179	60870.425
1653.68819	59256.925
1656.97241	56010.025
1660.25446	52772.325
1663.53433	50360.125
1666.81203	48838.625
1670.08756	47880.425
1673.36092	47244.025
1676.63211	46790.425
1679.90115	46461.925
1683.16801	46106.825
1686.43272	45884.525
1689.69527	45753.925
1692.95567	45607.425
1696.2139	45627.825
1699.46999	45549.725
1702.72392	45535.325
1705.97571	45533.125
1709.22535	45465.225
1712.47284	45480.225
1715.71819	45517.225
1718.96139	45497.625
1722.20246	45371.925
1725.44139	45284.525
1728.67818	45166.325
1731.91284	44986.625
1735.14537	44925.025
1738.37576	44783.325
1741.60403	44735.025
1744.83017	44691.025
1748.05418	44617.425
1751.27607	44522.225
1754.49584	44499.325
1757.71349	44568.125
1760.92903	44568.925
1764.14244	44467.325
1767.35375	44464.525
1770.56294	44408.925
1773.77002	44335.725
1776.97499	44313.325
1780.17785	44230.025
1783.37861	44216.225
1786.57727	44230.225
1789.77382	44203.625
1792.96828	44152.925
1796.16064	43982.325
1799.3509	43942.425
1802.53907	43953.125
1805.72514	43872.125
1808.90913	43773.225
1812.09102	43769.725
1815.27083	43705.625
1818.44856	43668.925
1821.6242	43611.725
1824.79776	43563.525
1827.96924	43542.425
1831.13864	43492.825
1834.30597	43554.325
1837.47122	43455.425
1840.6344	43396.525
1843.7955	43403.625
1846.95454	43380.225
1850.11151	43369.725
1853.26642	43338.825
1856.41926	43263.125
1859.57004	43277.925
1862.71876	43245.625
1865.86542	43204.025
1869.01003	43181.925
1872.15258	43128.425
1875.29308	43117.925
1878.43152	43099.125
1881.56792	43073.125
1884.70227	42963.625
1887.83457	42934.825
1890.96482	42895.725
1894.09304	42874.225
1897.21921	42896.225
1900.34335	42804.725
1903.46544	42750.925
1906.58551	42752.625
1909.70353	42676.925
1912.81953	42673.525
1915.93349	42581.425
1919.04543	42431.225
1922.15534	42465.025
1925.26322	42400.525
1928.36908	42332.125
1931.47292	42266.125
1934.57473	42278.625
1937.67453	42159.425
1940.77232	42179.125
1943.86808	41997.125
1946.96184	41955.325
1950.05358	41863.725
1953.14331	41743.225
1956.23103	41656.225
1959.31675	41482.925
1962.40046	41379.525
1965.48217	41308.125
1968.56188	41253.225
1971.63959	41148.025
1974.7153	40955.925
1977.78901	40851.325
1980.86073	40778.025
1983.93046	40707.225
1986.99819	40561.425
1990.06394	40495.925
1993.1277	40403.025
1996.18947	40250.525
1999.24925	40138.825
2002.30706	40041.525
2005.36288	40003.025
2008.41672	39775.225
2011.46859	39726.925
2014.51848	39691.025
2017.56639	39525.325
2020.61233	39430.025
2023.6563	39347.125
2026.6983	39239.925
2029.73833	39175.225
2032.7764	39147.525
2035.8125	39067.825
2038.84664	38954.325
2041.87881	38886.625
2044.90903	38825.325
2047.93729	38791.525
2050.96359	38738.325
2053.98794	38780.125
2057.01034	38718.425
2060.03078	38722.725
2063.04927	38672.325
2066.06582	38628.525
2069.08042	38632.525
2072.09307	38597.325
2075.10378	38568.725
2078.11255	38578.825
2081.11938	38611.325
2084.12426	38586.325
2087.12722	38586.925
2090.12824	38501.825
2093.12732	38564.425
2096.12447	38553.225
2099.11969	38566.525
2102.11299	38617.825
2105.10435	38702.625
2108.09379	38691.825
2111.08131	38701.425
2114.0669	38686.825
2117.05057	38768.025
2120.03233	38829.625
2123.01216	38806.825
2125.99008	38867.525
2128.96609	38871.625
2131.94018	38910.625
2134.91236	38947.725
2137.88263	38988.925
2140.851	38996.825
2143.81746	39052.325
2146.78201	39082.625
2149.74466	39092.425
2152.7054	39139.925
2155.66425	39103.025
2158.6212	39107.425
2161.57625	39042.625
2164.52941	39067.025
2167.48067	39052.325
2170.43004	39002.225
2173.37752	39099.825
2176.32311	39081.125
2179.26681	39166.325
2182.20863	39109.425
2185.14856	39119.525
2188.08661	39072.425
2191.02278	39137.525
2193.95707	39118.425
2196.88948	39052.325
2199.82001	39044.425
2202.74867	39062.525
2205.67545	39034.125
2208.60037	39005.625
2211.52341	38923.925
2214.44458	38891.425
2217.36388	38851.325
2220.28132	38824.225
2223.1969	38710.725
2226.11061	38633.025
2229.02246	38558.325
2231.93245	38531.925
2234.84058	38411.725
2237.74686	38354.725
2240.65128	38289.825
2243.55385	38276.725
2246.45456	38264.925
2249.35343	38262.225
2252.25044	38199.725
2255.14561	38173.525
2258.03893	38124.625
2260.93041	38055.325
2263.82004	38010.825
2266.70783	37909.325
2269.59378	37821.325
2272.4779	37763.425
2275.36017	37661.125
2278.24061	37607.425
2281.11922	37508.225
2283.996	37442.925
2286.87094	37450.525
2289.74405	37404.525
2292.61534	37417.925
2295.4848	37334.425
2298.35243	37351.025
2301.21824	37336.625
2304.08223	37306.925
2306.94439	37300.325
2309.80474	37280.925
2312.66327	37258.425
2315.51999	37217.025
2318.37489	37213.425
2321.22797	37216.925
2324.07925	37157.625
2326.92871	37044.925
2329.77637	37022.725
2332.62222	36942.225
2335.46626	36977.325
2338.3085	36940.325
2341.14893	36934.025
2343.98756	36911.325
2346.8244	36893.325
2349.65943	36815.125
2352.49267	36805.725
2355.32411	36834.625
2358.15376	36803.525
2360.98161	36731.925
2363.80768	36688.625
2366.63195	36626.625
2369.45444	36633.925
2372.27514	36545.925
2375.09405	36489.325
2377.91118	36447.225
2380.72652	36356.225
2383.54009	36279.925
2386.35187	36284.325
2389.16188	36172.025
2391.97011	36101.425
2394.77657	36092.025
2397.58125	36035.625
2400.38416	35943.025
2403.18529	35890.325
2405.98466	35810.625
2408.78226	35793.625
2411.57809	35717.425
2414.37216	35691.925
2417.16446	35640.625
2419.955	35614.625
2422.74378	35638.325
2425.5308	35576.825
2428.31606	35542.425
2431.09956	35506.425
2433.88131	35468.725
2436.6613	35523.725
2439.43954	35552.325
2442.21603	35507.425
2444.99077	35432.725
2447.76377	35390.425
2450.53501	35373.425
2453.30451	35313.925
2456.07226	35275.225
2458.83827	35221.425
2461.60254	35238.325
2464.36507	35174.025
2467.12586	35121.325
2469.88492	35134.625
2472.64224	35154.325
2475.39782	35096.825
2478.15167	35128.625
2480.90379	35158.625
2483.65417	35151.225
2486.40283	35091.625
2489.14976	35100.325
2491.89497	35078.525
2494.63845	35111.325
2497.3802	35064.825
2500.12024	35016.925
2502.85855	34962.125
2505.59514	34961.825
2508.33002	34884.125
2511.06318	34910.425
2513.79462	34774.725
2516.52435	34758.725
2519.25237	34754.825
2521.97867	34679.725
2524.70327	34664.725
2527.42616	34635.125
2530.14734	34617.925
2532.86681	34517.125
2535.58458	34512.825
2538.30065	34501.525
2541.01501	34470.725
2543.72768	34433.725
2546.43864	34401.925
2549.14791	34338.325
2551.85548	34291.625
2554.56136	34203.025
2557.26554	34134.425
2559.96803	34079.225
2562.66883	34094.725
2565.36794	33994.025
2568.06536	33972.125
2570.7611	33919.625
2573.45514	33814.125
2576.14751	33850.425
2578.83819	33770.025
2581.52719	33745.425
2584.21451	33679.725
2586.90015	33679.525
2589.58411	33597.425
2592.2664	33560.525
2594.94701	33447.225
2597.62594	33464.025
2600.30321	33424.425
2602.9788	33362.525
2605.65273	33328.025
2608.32498	33306.025
2610.99557	33271.525
2613.66449	33262.125
2616.33175	33214.825
2618.99734	33244.025
2621.66128	33207.325
2624.32355	33119.825
2626.98416	33064.925
2629.64311	33060.925
2632.30041	33033.725
2634.95605	32971.325
2637.61004	32943.825
2640.26238	32968.725
2642.91306	32857.425
2645.56209	32880.325
2648.20948	32850.525
2650.85521	32796.025
2653.4993	32790.225
2656.14175	32772.525
2658.78255	32851.025
2661.42171	32753.625
2664.05923	32778.325
2666.6951	32724.425
2669.32934	32789.325
2671.96194	32787.825
2674.59291	32763.725
2677.22224	32714.925
2679.84993	32786.625
2682.476	32695.625
2685.10043	32734.425
2687.72324	32701.925
2690.34441	32634.825
2692.96396	32618.325
2695.58188	32654.325
2698.19818	32652.825
2700.81285	32643.725
2703.4259	32612.125
2706.03733	32665.025
2708.64714	32692.825
2711.25533	32631.125
2713.86191	32629.525
2716.46687	32708.025
2719.07021	32689.625
2721.67194	32745.325
2724.27206	32728.725
2726.87057	32734.225
2729.46747	32731.925
2732.06276	32755.025
2734.65644	32727.625
2737.24852	32633.625
2739.83899	32613.625
2742.42786	32618.325
2745.01513	32526.125
2747.60079	32564.225
2750.18486	32431.225
2752.76733	32426.625
2755.3482	32385.225
2757.92747	32352.125
2760.50515	32280.925
2763.08123	32293.225
2765.65573	32250.225
2768.22863	32226.325
2770.79994	32147.425
2773.36967	32162.625
2775.9378	32152.325
2778.50435	32115.025
2781.06932	32092.725
2783.6327	32000.725
2786.1945	31923.225
2788.75471	31960.625
2791.31335	31897.625
2793.87041	31835.825
2796.42589	31729.425
2798.97979	31695.125
2801.53212	31598.425
2804.08288	31556.925
2806.63206	31481.525
2809.17967	31417.925
2811.72571	31282.825
2814.27018	31212.025
2816.81308	31207.725
2819.35442	31167.625
2821.89419	31135.225
2824.43239	31129.625
2826.96904	31128.025
2829.50412	31063.025
2832.03763	30960.925
2834.56959	30943.425
2837.1	30910.925
2839.62884	30917.825
2842.15613	30832.125
2844.68186	30859.525
2847.20604	30795.825
2849.72867	30741.625
2852.24974	30742.825
2854.76927	30684.525
2857.28724	30668.325
2859.80367	30608.125
2862.31855	30509.325
2864.83189	30503.425
2867.34368	30529.425
2869.85393	30504.825
2872.36264	30441.425
2874.8698	30415.525
2877.37543	30377.025
2879.87952	30396.925
2882.38207	30363.625
2884.88308	30340.325
2887.38256	30354.225
2889.88051	30342.525
2892.37692	30357.325
2894.8718	30316.625
2897.36515	30411.325
2899.85698	30370.925
2902.34727	30369.225
2904.83604	30388.425
2907.32328	30456.425
2909.809	30460.525
2912.29319	30457.525
2914.77587	30496.725
2917.25702	30472.425
2919.73665	30427.625
2922.21476	30415.825
2924.69136	30371.625
2927.16644	30406.425
2929.64	30327.025
2932.11205	30278.725
2934.58258	30223.325
2937.05161	30265.425
2939.51912	30287.725
2941.98513	30316.925
2944.44962	30229.725
2946.91261	30164.525
2949.37409	30240.425
2951.83407	30175.825
2954.29254	30203.625
2956.74951	30209.425
2959.20498	30224.625
2961.65895	30159.425
2964.11142	30161.125
2966.56239	30151.425
2969.01186	30173.925
2971.45984	30092.925
2973.90632	30054.025
2976.35131	30042.325
2978.7948	29990.425
2981.23681	29929.225
2983.67732	29939.125
2986.11635	29837.525
2988.55388	29811.625
2990.98993	29786.325
2993.4245	29653.225
2995.85758	29622.725
2998.28917	29551.025
3000.71928	29518.225
3003.14791	29476.125
3005.57506	29416.225
3008.00073	29341.025
3010.42493	29344.425
3012.84764	29307.325
3015.26888	29317.725
3017.68865	29265.925
3020.10694	29221.425
3022.52376	29145.625
3024.9391	29133.425
3027.35298	29131.625
3029.76539	29086.025
3032.17632	29054.825
3034.5858	29000.925
3036.9938	29039.325
3039.40034	29007.725
3041.80542	28987.325
3044.20903	28909.825
3046.61118	28855.325
3049.01187	28805.625
3051.4111	28777.925
3053.80888	28712.125
3056.20519	28649.425
3058.60005	28618.425
3060.99345	28600.825
3063.3854	28544.925
3065.7759	28455.725
3068.16494	28403.825
3070.55254	28282.025
3072.93868	28267.825
3075.32338	28233.125
3077.70662	28166.325
3080.08842	28076.525
3082.46878	28083.025
3084.84769	28047.725
3087.22515	28040.525
3089.60118	28056.125
3091.97576	28039.125
3094.3489	27989.525
3096.72061	28022.225
3099.09087	28056.825
3101.4597	28052.825
3103.82709	28069.525
3106.19305	28014.025
3108.55757	28032.525
3110.92066	27912.625
3113.28232	27898.825
3115.64255	27844.425
3118.00134	27817.325
3120.35871	27758.225
3122.71466	27678.425
3125.06917	27651.525
3127.42226	27565.025
3129.77393	27557.125
3132.12417	27480.425
3134.47299	27440.025
3136.82039	27472.125
3139.16636	27443.525
3141.51092	27430.825
3143.85406	27385.825
3146.19579	27413.025
3148.53609	27451.725
3150.87499	27410.825
3153.21246	27448.725
3155.54853	27546.025
3157.88318	27526.625
3160.21642	27543.425
3162.54826	27513.725
3164.87868	27504.725
3167.2077	27520.725
3169.5353	27549.425
3171.86151	27527.425
3174.18631	27431.525
3176.5097	27414.525
3178.83169	27345.325
3181.15228	27328.625
3183.47147	27257.125
3185.78926	27278.825
3188.10565	27227.125
3190.42065	27232.425
3192.73424	27176.425
3195.04645	27107.825
3197.35725	27092.325
3199.66667	27116.325
3201.97469	27120.725
3204.28132	27135.425
3206.58656	27152.425
3208.8904	27195.225
3211.19287	27195.925
3213.49394	27169.425
3215.79363	27162.225
3218.09193	27198.625
3220.38884	27189.425
3222.68438	27237.125
3224.97853	27190.125
3227.2713	27187.525
3229.56269	27146.625
3231.8527	27102.925
3234.14133	27041.725
3236.42858	26998.125
3238.71446	26951.825
3240.99896	26887.825
3243.28209	26873.925
3245.56384	26868.025
3247.84423	26856.325
3250.12324	26806.025
3252.40088	26727.025
3254.67715	26715.925
3256.95205	26740.625
3259.22558	26767.025
3261.49775	26701.025
3263.76855	26682.725
3266.03799	26647.725
3268.30606	26643.825
3270.57277	26613.325
3272.83812	26511.825
3275.10211	26463.525
3277.36474	26433.725
3279.62601	26406.425
3281.88593	26403.825
3284.14448	26368.825
3286.40168	26399.825
3288.65753	26390.225
3290.91202	26381.525
3293.16516	26343.125
3295.41695	26253.625
3297.66738	26106.225
3299.91647	25947.425
3302.16421	25806.025
3304.4106	25668.925
3306.65564	25564.925
3308.89933	25399.225
3311.14169	25234.725
3313.38269	24990.325
3315.62236	24879.225
3317.86068	24682.425
3320.09766	24507.625
3322.3333	24331.925
3324.5676	24253.025
3326.80056	23885.225
3329.03219	23730.825
3331.26248	6.025
3333.49143	0.725
3335.71905	-1.475
