Data from AgNPs_FTO_APTES_UA_20uM_CRN_1000uM_R6G_10uM_NaF_0.1M_Addition_RamanShift__19__19-33-55-031.txt Node

Date: Thu Feb 17 19:33:55 GMT 2022
User: TCL
Spectrometer: QEP01345
Trigger mode: 4
Integration Time (sec): 1.000000E1
Scans to average: 7
Electric dark correction enabled: true
Nonlinearity correction enabled: false
Boxcar width: 0
XAxis mode: Raman Shifts
Number of Pixels in Spectrum: 1044
>>>>>Begin Spectral Data<<<<<
46.04893	-0.10714
50.45542	0.32143
54.85868	0.60714
59.25871	-1.53571
63.6555	52.46429
68.04907	48.60714
72.43941	51.75
76.82654	58.32143
81.21044	61.46429
85.59113	61.75
89.96862	69.89286
94.34289	65.75
98.71396	72.60714
103.08183	69.32143
107.4465	73.75
111.80798	75.89286
116.16626	75.75
120.52136	78.17857
124.87327	82.89286
129.222	82.32143
133.56755	86.32143
137.90993	96.03571
142.24913	94.89286
146.58517	111.17857
150.91804	126.46429
155.24774	150.46429
159.57429	182.46429
163.89768	227.32143
168.21792	301.89286
172.53501	405.89286
176.84895	569.75
181.15975	806.03571
185.46741	1128.32143
189.77193	1573.32143
194.07331	2129.17857
198.37157	2759.17857
202.6667	3447.75
206.9587	4123.75
211.24758	4789.60714
215.53334	5453.89286
219.81599	6156.89286
224.09553	6886.46429
228.37195	7724.32143
232.64527	8622.17857
236.91549	9583.89286
241.18261	10522.46429
245.44663	11399.89286
249.70755	12211.32143
253.96539	12866.75
258.22014	13388.46429
262.4718	13812.46429
266.72039	14061.17857
270.96589	14124.46429
275.20832	14097.89286
279.44768	13943.75
283.68397	13736.17857
287.91719	13513.46429
292.14735	13348.17857
296.37445	13267.17857
300.59849	13262.17857
304.81948	13340.32143
309.03742	13340.75
313.25231	13279.75
317.46415	13122.46429
321.67296	12958.46429
325.87872	12778.89286
330.08145	12693.75
334.28114	12735.03571
338.47781	12857.60714
342.67145	12996.17857
346.86207	13208.32143
351.04966	13465.03571
355.23424	13753.89286
359.4158	14004.46429
363.59435	14247.75
367.76989	14431.75
371.94243	14527.60714
376.11196	14588.60714
380.27849	14717.03571
384.44203	14799.03571
388.60257	14852.75
392.76012	14897.03571
396.91468	15014.32143
401.06626	15160.75
405.21485	15296.17857
409.36047	15284.75
413.50311	15116.89286
417.64277	14964.75
421.77947	14863.46429
425.9132	14857.75
430.04396	14865.60714
434.17176	15053.46429
438.2966	15160.17857
442.41849	15401.03571
446.53742	15689.17857
450.6534	16006.03571
454.76644	16235.17857
458.87653	16274.32143
462.98368	16261.03571
467.08789	16166.89286
471.18916	16025.32143
475.2875	15873.03571
479.38291	15718.17857
483.4754	15602.60714
487.56496	15515.89286
491.6516	15463.32143
495.73531	15478.17857
499.81612	15469.46429
503.89401	15563.60714
507.96899	15591.32143
512.04106	15627.60714
516.11023	15676.89286
520.1765	15682.46429
524.23987	15737.17857
528.30034	15748.89286
532.35792	15751.60714
536.41261	15686.32143
540.46441	15604.03571
544.51333	15536.89286
548.55936	15578.89286
552.60252	15680.60714
556.64279	15820.17857
560.6802	15935.17857
564.71473	15906.03571
568.7464	15955.17857
572.7752	16042.60714
576.80114	16113.03571
580.82422	16098.60714
584.84444	16211.32143
588.86181	16460.32143
592.87633	16723.75
596.888	16911.17857
600.89682	16956.60714
604.9028	17330.46429
608.90594	18592.75
612.90624	20050.03571
616.90371	19526.75
620.89834	17252.89286
624.89015	16178.89286
628.87913	16037.03571
632.86528	16100.46429
636.84862	16159.75
640.82913	16126.89286
644.80683	15930.89286
648.78172	15708.03571
652.75379	15698.89286
656.72306	15831.60714
660.68952	16041.60714
664.65319	16032.89286
668.61405	15910.60714
672.57211	15977.17857
676.52738	16157.75
680.47986	16285.17857
684.42955	16260.17857
688.37646	16108.46429
692.32058	16001.32143
696.26192	15972.89286
700.20048	16029.17857
704.13626	16050.03571
708.06928	15976.75
711.99952	15861.60714
715.927	15792.89286
719.85171	15767.60714
723.77365	15826.46429
727.69284	15783.60714
731.60928	15770.32143
735.52295	15766.03571
739.43388	15768.32143
743.34206	15743.32143
747.24749	15768.89286
751.15017	15736.32143
755.05012	15796.03571
758.94733	15968.89286
762.8418	16379.32143
766.73354	17139.89286
770.62254	18041.32143
774.50882	18573.75
778.39237	18256.32143
782.27321	17341.17857
786.15132	16490.60714
790.02671	15843.89286
793.89938	15539.03571
797.76935	15417.17857
801.6366	15410.17857
805.50115	15360.60714
809.36299	15315.89286
813.22213	15264.46429
817.07857	15257.46429
820.93231	15203.75
824.78336	15141.60714
828.63172	15170.46429
832.47738	15140.03571
836.32036	15131.03571
840.16066	15145.17857
843.99827	15114.17857
847.8332	15138.75
851.66546	15163.75
855.49504	15156.03571
859.32195	15193.32143
863.1462	15259.46429
866.96777	15312.75
870.78668	15284.60714
874.60293	15314.60714
878.41652	15300.46429
882.22745	15315.46429
886.03573	15342.17857
889.84136	15343.89286
893.64433	15278.03571
897.44466	15220.46429
901.24235	15146.60714
905.0374	15048.89286
908.8298	15007.46429
912.61957	14945.32143
916.40671	14948.17857
920.19121	15008.60714
923.97308	15112.46429
927.75233	15157.17857
931.52895	15162.89286
935.30295	15129.89286
939.07433	15007.17857
942.84309	14860.32143
946.60924	14820.46429
950.37278	14724.32143
954.13371	14659.32143
957.89203	14609.32143
961.64774	14571.60714
965.40086	14559.75
969.15137	14522.60714
972.89929	14471.75
976.64461	14475.89286
980.38733	14497.75
984.12747	14499.32143
987.86502	14514.32143
991.59999	14603.17857
995.33237	14735.46429
999.06217	14877.32143
1002.78939	15071.03571
1006.51404	15181.89286
1010.23611	15278.89286
1013.95561	15341.32143
1017.67255	15416.75
1021.38692	15375.60714
1025.09872	15285.03571
1028.80796	15226.60714
1032.51465	15239.46429
1036.21877	15334.60714
1039.92035	15328.17857
1043.61937	15363.46429
1047.31584	15290.17857
1051.00976	15246.89286
1054.70114	15196.60714
1058.38998	15194.46429
1062.07627	15159.03571
1065.76003	15230.17857
1069.44126	15247.46429
1073.11995	15261.89286
1076.79611	15375.89286
1080.46974	15450.89286
1084.14085	15547.17857
1087.80943	15590.89286
1091.47549	15616.32143
1095.13903	15589.46429
1098.80005	15485.32143
1102.45857	15357.89286
1106.11456	15314.89286
1109.76805	15345.60714
1113.41903	15401.32143
1117.06751	15496.60714
1120.71348	15686.60714
1124.35696	15850.17857
1127.99793	16007.32143
1131.63641	16078.75
1135.2724	16019.46429
1138.90589	15885.03571
1142.5369	15719.03571
1146.16542	15600.03571
1149.79145	15502.46429
1153.415	15458.17857
1157.03607	15460.60714
1160.65467	15621.46429
1164.27079	15883.89286
1167.88443	16252.60714
1171.49561	16785.03571
1175.10432	17457.17857
1178.71056	18358.32143
1182.31434	19207.03571
1185.91565	19697.46429
1189.51451	19581.32143
1193.11091	19148.75
1196.70485	18590.89286
1200.29634	18089.89286
1203.88538	17688.46429
1207.47197	17264.60714
1211.05612	16835.60714
1214.63782	16597.46429
1218.21708	16456.60714
1221.79391	16439.03571
1225.36829	16494.32143
1228.94024	16493.03571
1232.50976	16354.32143
1236.07685	16244.32143
1239.6415	16186.46429
1243.20374	16224.89286
1246.76355	16283.89286
1250.32093	16351.60714
1253.8759	16510.89286
1257.42845	16721.46429
1260.97859	16916.75
1264.52631	17142.75
1268.07163	17370.60714
1271.61453	17642.03571
1275.15503	17859.60714
1278.69312	18083.46429
1282.22882	18237.32143
1285.76211	18410.60714
1289.29301	18622.32143
1292.82151	18963.32143
1296.34761	19353.17857
1299.87133	19951.17857
1303.39266	20623.32143
1306.9116	21541.17857
1310.42815	22593.46429
1313.94233	23173.60714
1317.45412	23076.32143
1320.96354	22460.89286
1324.47058	21730.60714
1327.97525	21040.75
1331.47754	20563.17857
1334.97747	20282.60714
1338.47502	20274.46429
1341.97022	20426.03571
1345.46305	20721.89286
1348.95352	21184.75
1352.44163	21848.60714
1355.92738	22710.46429
1359.41078	23878.60714
1362.89183	24798.60714
1366.37053	24429.32143
1369.84688	22595.32143
1373.32088	20488.46429
1376.79254	19053.03571
1380.26186	18316.46429
1383.72883	17951.32143
1387.19347	17703.60714
1390.65578	17423.32143
1394.11575	17138.46429
1397.57339	17084.17857
1401.0287	17157.46429
1404.48168	17206.03571
1407.93234	17296.17857
1411.38068	17332.89286
1414.82669	17279.75
1418.27039	17113.60714
1421.71177	17015.03571
1425.15083	16797.03571
1428.58758	16605.03571
1432.02203	16602.32143
1435.45416	16698.89286
1438.88399	16815.60714
1442.31151	16923.89286
1445.73673	16924.03571
1449.15965	16999.46429
1452.58027	17024.17857
1455.9986	16983.03571
1459.41463	16985.75
1462.82837	17075.32143
1466.23982	17277.75
1469.64898	17539.60714
1473.05586	17734.03571
1476.46045	17852.46429
1479.86276	17896.46429
1483.26279	17902.17857
1486.66054	17959.17857
1490.05602	18002.32143
1493.44922	18202.03571
1496.84016	18448.89286
1500.22882	18966.75
1503.61521	19618.32143
1506.99934	20476.03571
1510.38121	21120.17857
1513.76081	21243.89286
1517.13816	20624.60714
1520.51324	19667.32143
1523.88607	18761.60714
1527.25665	18196.60714
1530.62498	17856.32143
1533.99105	17734.17857
1537.35488	17618.60714
1540.71647	17586.75
1544.07581	17455.03571
1547.4329	17333.46429
1550.78776	17248.32143
1554.14038	17141.32143
1557.49077	17120.03571
1560.83892	17207.03571
1564.18484	17275.03571
1567.52853	17364.17857
1570.86999	17529.75
1574.20922	17650.89286
1577.54624	17648.75
1580.88103	17472.75
1584.2136	17191.75
1587.54395	17032.89286
1590.87208	17240.46429
1594.19801	17730.75
1597.52172	18451.46429
1600.84321	18888.32143
1604.16251	18653.03571
1607.47959	18082.89286
1610.79447	17349.89286
1614.10715	16587.75
1617.41763	15958.60714
1620.7259	15515.89286
1624.03199	15233.89286
1627.33587	15136.75
1630.63757	15264.17857
1633.93707	15604.75
1637.23439	16228.75
1640.52951	17127.46429
1643.82246	18336.17857
1647.11321	19405.75
1650.40179	19797.46429
1653.68819	19189.17857
1656.97241	17752.17857
1660.25446	16297.60714
1663.53433	15278.46429
1666.81203	14616.60714
1670.08756	14227.17857
1673.36092	13928.89286
1676.63211	13745.60714
1679.90115	13615.75
1683.16801	13488.60714
1686.43272	13350.03571
1689.69527	13297.75
1692.95567	13198.32143
1696.2139	13160.32143
1699.46999	13134.46429
1702.72392	13091.32143
1705.97571	13078.32143
1709.22535	13017.03571
1712.47284	13007.03571
1715.71819	12969.89286
1718.96139	12974.89286
1722.20246	12906.89286
1725.44139	12886.46429
1728.67818	12843.46429
1731.91284	12809.46429
1735.14537	12763.89286
1738.37576	12756.17857
1741.60403	12726.32143
1744.83017	12708.03571
1748.05418	12712.75
1751.27607	12691.46429
1754.49584	12683.89286
1757.71349	12689.89286
1760.92903	12691.32143
1764.14244	12661.89286
1767.35375	12601.89286
1770.56294	12534.32143
1773.77002	12494.75
1776.97499	12433.32143
1780.17785	12402.60714
1783.37861	12392.17857
1786.57727	12318.46429
1789.77382	12283.32143
1792.96828	12266.03571
1796.16064	12210.89286
1799.3509	12199.75
1802.53907	12165.03571
1805.72514	12094.17857
1808.90913	12113.03571
1812.09102	12091.17857
1815.27083	12051.17857
1818.44856	12020.46429
1821.6242	12035.89286
1824.79776	12025.17857
1827.96924	11977.32143
1831.13864	11970.17857
1834.30597	12000.60714
1837.47122	11938.89286
1840.6344	11940.32143
1843.7955	11931.75
1846.95454	11915.17857
1850.11151	11890.46429
1853.26642	11910.46429
1856.41926	11891.46429
1859.57004	11857.17857
1862.71876	11859.75
1865.86542	11865.89286
1869.01003	11852.03571
1872.15258	11841.89286
1875.29308	11846.03571
1878.43152	11837.75
1881.56792	11825.17857
1884.70227	11822.46429
1887.83457	11788.89286
1890.96482	11769.89286
1894.09304	11733.75
1897.21921	11736.89286
1900.34335	11779.46429
1903.46544	11727.03571
1906.58551	11746.32143
1909.70353	11704.17857
1912.81953	11669.60714
1915.93349	11662.75
1919.04543	11626.03571
1922.15534	11626.46429
1925.26322	11586.03571
1928.36908	11558.32143
1931.47292	11574.32143
1934.57473	11553.17857
1937.67453	11558.32143
1940.77232	11511.17857
1943.86808	11461.46429
1946.96184	11391.46429
1950.05358	11417.60714
1953.14331	11390.03571
1956.23103	11372.32143
1959.31675	11365.75
1962.40046	11315.60714
1965.48217	11276.32143
1968.56188	11235.32143
1971.63959	11195.32143
1974.7153	11170.75
1977.78901	11148.17857
1980.86073	11135.17857
1983.93046	11083.17857
1986.99819	11020.46429
1990.06394	11020.60714
1993.1277	10973.32143
1996.18947	10925.60714
1999.24925	10904.60714
2002.30706	10875.89286
2005.36288	10840.75
2008.41672	10810.89286
2011.46859	10781.46429
2014.51848	10745.32143
2017.56639	10675.46429
2020.61233	10684.60714
2023.6563	10655.75
2026.6983	10612.89286
2029.73833	10592.32143
2032.7764	10606.60714
2035.8125	10559.03571
2038.84664	10531.32143
2041.87881	10548.46429
2044.90903	10536.32143
2047.93729	10490.46429
2050.96359	10492.46429
2053.98794	10490.60714
2057.01034	10467.32143
2060.03078	10477.89286
2063.04927	10457.46429
2066.06582	10448.17857
2069.08042	10444.32143
2072.09307	10427.32143
2075.10378	10432.46429
2078.11255	10444.17857
2081.11938	10438.32143
2084.12426	10442.17857
2087.12722	10427.32143
2090.12824	10431.60714
2093.12732	10404.03571
2096.12447	10418.17857
2099.11969	10413.03571
2102.11299	10423.75
2105.10435	10418.32143
2108.09379	10409.32143
2111.08131	10421.89286
2114.0669	10429.17857
2117.05057	10439.32143
2120.03233	10441.46429
2123.01216	10471.32143
2125.99008	10496.03571
2128.96609	10527.75
2131.94018	10514.17857
2134.91236	10509.89286
2137.88263	10529.32143
2140.851	10519.89286
2143.81746	10558.60714
2146.78201	10527.32143
2149.74466	10551.46429
2152.7054	10515.60714
2155.66425	10519.46429
2158.6212	10505.46429
2161.57625	10516.46429
2164.52941	10520.17857
2167.48067	10506.89286
2170.43004	10476.17857
2173.37752	10526.75
2176.32311	10504.60714
2179.26681	10486.17857
2182.20863	10515.75
2185.14856	10537.46429
2188.08661	10483.75
2191.02278	10494.75
2193.95707	10491.89286
2196.88948	10461.60714
2199.82001	10462.89286
2202.74867	10465.89286
2205.67545	10466.46429
2208.60037	10437.03571
2211.52341	10452.75
2214.44458	10446.60714
2217.36388	10394.32143
2220.28132	10379.75
2223.1969	10369.32143
2226.11061	10342.60714
2229.02246	10347.32143
2231.93245	10319.46429
2234.84058	10263.17857
2237.74686	10282.75
2240.65128	10270.89286
2243.55385	10258.60714
2246.45456	10254.60714
2249.35343	10212.17857
2252.25044	10225.03571
2255.14561	10208.60714
2258.03893	10226.75
2260.93041	10166.46429
2263.82004	10160.03571
2266.70783	10173.46429
2269.59378	10130.03571
2272.4779	10119.32143
2275.36017	10057.46429
2278.24061	10032.46429
2281.11922	10028.75
2283.996	10012.17857
2286.87094	10022.75
2289.74405	10000.03571
2292.61534	9969.60714
2295.4848	9963.32143
2298.35243	9971.46429
2301.21824	9967.46429
2304.08223	9967.75
2306.94439	9969.46429
2309.80474	9940.17857
2312.66327	9948.17857
2315.51999	9945.32143
2318.37489	9912.32143
2321.22797	9897.75
2324.07925	9895.75
2326.92871	9893.46429
2329.77637	9867.75
2332.62222	9856.46429
2335.46626	9824.75
2338.3085	9831.32143
2341.14893	9829.60714
2343.98756	9815.75
2346.8244	9835.46429
2349.65943	9816.17857
2352.49267	9797.89286
2355.32411	9810.03571
2358.15376	9782.60714
2360.98161	9766.17857
2363.80768	9774.32143
2366.63195	9766.03571
2369.45444	9754.75
2372.27514	9750.60714
2375.09405	9710.32143
2377.91118	9729.89286
2380.72652	9694.03571
2383.54009	9671.89286
2386.35187	9676.75
2389.16188	9636.32143
2391.97011	9602.03571
2394.77657	9614.03571
2397.58125	9593.03571
2400.38416	9597.75
2403.18529	9561.03571
2405.98466	9574.75
2408.78226	9566.60714
2411.57809	9549.89286
2414.37216	9524.89286
2417.16446	9523.17857
2419.955	9482.46429
2422.74378	9486.46429
2425.5308	9505.60714
2428.31606	9491.75
2431.09956	9468.32143
2433.88131	9456.89286
2436.6613	9462.89286
2439.43954	9436.89286
2442.21603	9440.89286
2444.99077	9453.89286
2447.76377	9439.75
2450.53501	9428.03571
2453.30451	9430.03571
2456.07226	9417.32143
2458.83827	9385.46429
2461.60254	9351.75
2464.36507	9379.46429
2467.12586	9401.89286
2469.88492	9338.17857
2472.64224	9354.17857
2475.39782	9352.46429
2478.15167	9354.32143
2480.90379	9354.75
2483.65417	9380.89286
2486.40283	9331.17857
2489.14976	9357.32143
2491.89497	9350.32143
2494.63845	9362.60714
2497.3802	9332.32143
2500.12024	9351.03571
2502.85855	9337.03571
2505.59514	9318.03571
2508.33002	9292.17857
2511.06318	9275.75
2513.79462	9280.32143
2516.52435	9272.32143
2519.25237	9264.17857
2521.97867	9238.60714
2524.70327	9247.60714
2527.42616	9258.32143
2530.14734	9241.60714
2532.86681	9222.03571
2535.58458	9188.75
2538.30065	9204.32143
2541.01501	9199.17857
2543.72768	9189.75
2546.43864	9146.60714
2549.14791	9162.75
2551.85548	9141.60714
2554.56136	9149.17857
2557.26554	9101.75
2559.96803	9108.89286
2562.66883	9093.89286
2565.36794	9044.46429
2568.06536	9040.75
2570.7611	9011.03571
2573.45514	9010.89286
2576.14751	9013.17857
2578.83819	8984.17857
2581.52719	8976.32143
2584.21451	8976.46429
2586.90015	8979.75
2589.58411	8942.46429
2592.2664	8948.17857
2594.94701	8934.46429
2597.62594	8906.32143
2600.30321	8895.03571
2602.9788	8890.17857
2605.65273	8850.32143
2608.32498	8854.17857
2610.99557	8850.75
2613.66449	8852.32143
2616.33175	8836.32143
2618.99734	8838.46429
2621.66128	8813.03571
2624.32355	8801.17857
2626.98416	8812.32143
2629.64311	8831.03571
2632.30041	8776.03571
2634.95605	8786.60714
2637.61004	8764.17857
2640.26238	8757.60714
2642.91306	8768.60714
2645.56209	8744.46429
2648.20948	8737.46429
2650.85521	8726.17857
2653.4993	8720.03571
2656.14175	8744.46429
2658.78255	8744.03571
2661.42171	8764.32143
2664.05923	8770.03571
2666.6951	8746.46429
2669.32934	8750.75
2671.96194	8753.17857
2674.59291	8749.32143
2677.22224	8740.32143
2679.84993	8752.46429
2682.476	8715.32143
2685.10043	8751.89286
2687.72324	8727.32143
2690.34441	8696.17857
2692.96396	8765.46429
2695.58188	8731.03571
2698.19818	8737.75
2700.81285	8747.89286
2703.4259	8746.03571
2706.03733	8721.32143
2708.64714	8745.17857
2711.25533	8745.17857
2713.86191	8730.46429
2716.46687	8761.17857
2719.07021	8774.46429
2721.67194	8787.32143
2724.27206	8751.89286
2726.87057	8741.75
2729.46747	8749.60714
2732.06276	8735.89286
2734.65644	8733.75
2737.24852	8755.46429
2739.83899	8721.89286
2742.42786	8735.46429
2745.01513	8688.60714
2747.60079	8709.03571
2750.18486	8695.75
2752.76733	8698.17857
2755.3482	8697.46429
2757.92747	8666.17857
2760.50515	8695.60714
2763.08123	8661.46429
2765.65573	8660.75
2768.22863	8661.46429
2770.79994	8648.03571
2773.36967	8641.75
2775.9378	8637.03571
2778.50435	8613.75
2781.06932	8620.60714
2783.6327	8614.32143
2786.1945	8574.60714
2788.75471	8574.03571
2791.31335	8563.60714
2793.87041	8557.60714
2796.42589	8542.60714
2798.97979	8517.17857
2801.53212	8523.17857
2804.08288	8511.46429
2806.63206	8476.75
2809.17967	8467.46429
2811.72571	8435.32143
2814.27018	8457.17857
2816.81308	8447.89286
2819.35442	8428.75
2821.89419	8397.60714
2824.43239	8412.89286
2826.96904	8396.17857
2829.50412	8408.03571
2832.03763	8367.75
2834.56959	8403.46429
2837.1	8391.89286
2839.62884	8373.46429
2842.15613	8379.17857
2844.68186	8356.60714
2847.20604	8353.32143
2849.72867	8363.32143
2852.24974	8344.17857
2854.76927	8301.46429
2857.28724	8343.46429
2859.80367	8306.46429
2862.31855	8283.46429
2864.83189	8280.60714
2867.34368	8276.03571
2869.85393	8295.17857
2872.36264	8303.03571
2874.8698	8290.46429
2877.37543	8263.89286
2879.87952	8295.89286
2882.38207	8290.75
2884.88308	8283.17857
2887.38256	8287.46429
2889.88051	8304.60714
2892.37692	8327.32143
2894.8718	8333.17857
2897.36515	8334.75
2899.85698	8367.03571
2902.34727	8377.46429
2904.83604	8404.32143
2907.32328	8395.60714
2909.809	8432.17857
2912.29319	8421.03571
2914.77587	8455.32143
2917.25702	8451.46429
2919.73665	8435.89286
2922.21476	8464.32143
2924.69136	8467.89286
2927.16644	8468.89286
2929.64	8453.17857
2932.11205	8420.03571
2934.58258	8428.32143
2937.05161	8446.75
2939.51912	8464.17857
2941.98513	8447.32143
2944.44962	8452.89286
2946.91261	8444.32143
2949.37409	8446.46429
2951.83407	8404.75
2954.29254	8386.32143
2956.74951	8397.75
2959.20498	8414.89286
2961.65895	8375.60714
2964.11142	8365.75
2966.56239	8315.46429
2969.01186	8302.89286
2971.45984	8311.17857
2973.90632	8288.17857
2976.35131	8268.89286
2978.7948	8253.60714
2981.23681	8227.89286
2983.67732	8205.75
2986.11635	8197.89286
2988.55388	8169.46429
2990.98993	8167.60714
2993.4245	8168.03571
2995.85758	8110.03571
2998.28917	8141.60714
3000.71928	8143.17857
3003.14791	8066.60714
3005.57506	8102.17857
3008.00073	8078.89286
3010.42493	8062.46429
3012.84764	8064.03571
3015.26888	8082.32143
3017.68865	8036.60714
3020.10694	8017.75
3022.52376	8018.75
3024.9391	8005.46429
3027.35298	7981.32143
3029.76539	8011.32143
3032.17632	7971.75
3034.5858	7978.46429
3036.9938	7979.60714
3039.40034	7974.03571
3041.80542	7964.17857
3044.20903	7940.03571
3046.61118	7935.17857
3049.01187	7921.17857
3051.4111	7937.17857
3053.80888	7908.46429
3056.20519	7873.46429
3058.60005	7886.75
3060.99345	7859.89286
3063.3854	7866.17857
3065.7759	7820.60714
3068.16494	7833.46429
3070.55254	7805.03571
3072.93868	7783.17857
3075.32338	7765.32143
3077.70662	7775.17857
3080.08842	7728.03571
3082.46878	7750.03571
3084.84769	7738.75
3087.22515	7761.89286
3089.60118	7744.60714
3091.97576	7760.17857
3094.3489	7775.60714
3096.72061	7775.75
3099.09087	7769.60714
3101.4597	7770.75
3103.82709	7788.32143
3106.19305	7759.46429
3108.55757	7810.32143
3110.92066	7779.89286
3113.28232	7771.89286
3115.64255	7763.75
3118.00134	7739.89286
3120.35871	7749.89286
3122.71466	7739.17857
3125.06917	7738.32143
3127.42226	7726.46429
3129.77393	7731.03571
3132.12417	7742.75
3134.47299	7722.17857
3136.82039	7748.32143
3139.16636	7729.89286
3141.51092	7732.46429
3143.85406	7751.75
3146.19579	7732.17857
3148.53609	7755.60714
3150.87499	7786.60714
3153.21246	7792.60714
3155.54853	7809.60714
3157.88318	7820.60714
3160.21642	7816.03571
3162.54826	7817.60714
3164.87868	7825.60714
3167.2077	7820.60714
3169.5353	7830.03571
3171.86151	7831.46429
3174.18631	7833.17857
3176.5097	7854.17857
3178.83169	7825.89286
3181.15228	7821.60714
3183.47147	7827.03571
3185.78926	7810.89286
3188.10565	7797.03571
3190.42065	7807.75
3192.73424	7806.46429
3195.04645	7821.75
3197.35725	7830.75
3199.66667	7815.89286
3201.97469	7820.46429
3204.28132	7821.03571
3206.58656	7869.75
3208.8904	7893.17857
3211.19287	7892.89286
3213.49394	7870.75
3215.79363	7885.17857
3218.09193	7920.89286
3220.38884	7902.17857
3222.68438	7880.17857
3224.97853	7870.75
3227.2713	7879.46429
3229.56269	7885.17857
3231.8527	7869.46429
3234.14133	7868.17857
3236.42858	7848.03571
3238.71446	7810.75
3240.99896	7822.75
3243.28209	7816.75
3245.56384	7798.89286
3247.84423	7829.60714
3250.12324	7826.03571
3252.40088	7803.46429
3254.67715	7788.46429
3256.95205	7833.75
3259.22558	7799.03571
3261.49775	7792.03571
3263.76855	7788.89286
3266.03799	7766.89286
3268.30606	7785.03571
3270.57277	7771.32143
3272.83812	7751.75
3275.10211	7724.75
3277.36474	7730.17857
3279.62601	7728.89286
3281.88593	7714.32143
3284.14448	7709.46429
3286.40168	7702.03571
3288.65753	7735.60714
3290.91202	7707.75
3293.16516	7661.32143
3295.41695	7673.32143
3297.66738	7662.46429
3299.91647	7619.75
3302.16421	7559.03571
3304.4106	7551.03571
3306.65564	7464.89286
3308.89933	7465.17857
3311.14169	7403.89286
3313.38269	7332.60714
3315.62236	7303.46429
3317.86068	7263.32143
3320.09766	7180.32143
3322.3333	7137.46429
3324.5676	7149.89286
3326.80056	7004.89286
3329.03219	6978.17857
3331.26248	1.17857
3333.49143	-1.25
3335.71905	-0.39286
