Data from AgNPs_FTO_APTES_UA_20uM_CRN_1uM_R6G_10uM_NaF_0.1M_Addition_RamanShift__23__12-28-52-046.txt Node

Date: Thu Feb 17 12:28:52 GMT 2022
User: TCL
Spectrometer: QEP01345
Trigger mode: 4
Integration Time (sec): 7.000000E0
Scans to average: 10
Electric dark correction enabled: true
Nonlinearity correction enabled: false
Boxcar width: 0
XAxis mode: Raman Shifts
Number of Pixels in Spectrum: 1044
>>>>>Begin Spectral Data<<<<<
46.04893	0.075
50.45542	-1.025
54.85868	-3.325
59.25871	-1.225
63.6555	117.875
68.04907	118.675
72.43941	123.375
76.82654	128.475
81.21044	132.275
85.59113	136.875
89.96862	140.475
94.34289	142.175
98.71396	146.475
103.08183	147.875
107.4465	159.875
111.80798	159.675
116.16626	163.275
120.52136	171.575
124.87327	182.575
129.222	190.375
133.56755	203.275
137.90993	221.275
142.24913	246.275
146.58517	276.275
150.91804	330.275
155.24774	396.375
159.57429	494.975
163.89768	636.475
168.21792	856.775
172.53501	1178.175
176.84895	1653.775
181.15975	2348.975
185.46741	3268.375
189.77193	4538.775
194.07331	6072.575
198.37157	7855.575
202.6667	9715.375
206.9587	11555.175
211.24758	13383.675
215.53334	15210.575
219.81599	17197.175
224.09553	19343.175
228.37195	21749.875
232.64527	24417.675
236.91549	27226.775
241.18261	30038.175
245.44663	32611.975
249.70755	34914.575
253.96539	36915.375
258.22014	38726.175
262.4718	40144.375
266.72039	41247.275
270.96589	41865.075
275.20832	41935.775
279.44768	41679.975
283.68397	41339.375
287.91719	40988.575
292.14735	40810.875
296.37445	40821.575
300.59849	41012.375
304.81948	41238.075
309.03742	41347.275
313.25231	41075.675
317.46415	40324.875
321.67296	39282.575
325.87872	38395.575
330.08145	38044.675
334.28114	38130.375
338.47781	38516.775
342.67145	39089.875
346.86207	39811.575
351.04966	40775.175
355.23424	41779.275
359.4158	42645.675
363.59435	43258.475
367.76989	43677.475
371.94243	43952.275
376.11196	44218.675
380.27849	44456.675
384.44203	44593.875
388.60257	44763.675
392.76012	45115.675
396.91468	45577.975
401.06626	46259.375
405.21485	46807.275
409.36047	46818.175
413.50311	46134.675
417.64277	45653.275
421.77947	45550.475
425.9132	45808.775
430.04396	46132.975
434.17176	46508.975
438.2966	47055.175
442.41849	48033.675
446.53742	49352.075
450.6534	50921.775
454.76644	52067.375
458.87653	52523.475
462.98368	52114.575
467.08789	51311.475
471.18916	50338.075
475.2875	49447.575
479.38291	48944.275
483.4754	48499.175
487.56496	47991.875
491.6516	47335.475
495.73531	46820.175
499.81612	46590.375
503.89401	46865.375
507.96899	47001.975
512.04106	46928.875
516.11023	46763.675
520.1765	46606.675
524.23987	46494.475
528.30034	46195.975
532.35792	45873.675
536.41261	45410.775
540.46441	44922.375
544.51333	44933.175
548.55936	45275.375
552.60252	46152.675
556.64279	47228.675
560.6802	47925.475
564.71473	48402.075
568.7464	49210.975
572.7752	50300.475
576.80114	50961.775
580.82422	51358.475
584.84444	51893.275
588.86181	52785.675
592.87633	53925.575
596.888	54414.775
600.89682	54058.475
604.9028	55531.075
608.90594	60662.075
612.90624	66105.075
616.90371	62609.475
620.89834	52853.875
624.89015	48593.675
628.87913	48045.275
632.86528	47860.275
636.84862	47526.075
640.82913	46774.575
644.80683	45649.475
648.78172	44831.575
652.75379	44759.475
656.72306	45469.575
660.68952	46501.475
664.65319	46352.975
668.61405	45536.475
672.57211	45297.075
676.52738	45343.575
680.47986	45309.975
684.42955	45197.475
688.37646	45157.575
692.32058	45398.175
696.26192	45921.575
700.20048	46398.975
704.13626	46784.675
708.06928	46570.175
711.99952	46200.675
715.927	46104.875
719.85171	46317.575
723.77365	46224.075
727.69284	45794.875
731.60928	45426.675
735.52295	45362.775
739.43388	45540.575
743.34206	45743.475
747.24749	46025.175
751.15017	46434.675
755.05012	47143.675
758.94733	48469.575
762.8418	50792.475
766.73354	54566.475
770.62254	58120.175
774.50882	58935.675
778.39237	56420.375
782.27321	52384.475
786.15132	49085.075
790.02671	47118.075
793.89938	46150.675
797.76935	45811.575
801.6366	45734.475
805.50115	45662.075
809.36299	45474.575
813.22213	45199.875
817.07857	45070.575
820.93231	45033.975
824.78336	44970.975
828.63172	45047.775
832.47738	45079.275
836.32036	45177.775
840.16066	45409.275
843.99827	45594.875
847.8332	45501.875
851.66546	45327.775
855.49504	45230.175
859.32195	45205.775
863.1462	45037.475
866.96777	44949.575
870.78668	44849.975
874.60293	44874.175
878.41652	44916.875
882.22745	45093.275
886.03573	45219.275
889.84136	45184.475
893.64433	44995.575
897.44466	44824.475
901.24235	44650.375
905.0374	44544.375
908.8298	44458.475
912.61957	44585.575
916.40671	44929.875
920.19121	45569.775
923.97308	46159.975
927.75233	46367.275
931.52895	46140.775
935.30295	45704.475
939.07433	44954.475
942.84309	44495.875
946.60924	44363.875
950.37278	44250.675
954.13371	44094.075
957.89203	43837.375
961.64774	43627.375
965.40086	43569.175
969.15137	43406.275
972.89929	43249.975
976.64461	43224.175
980.38733	43285.575
984.12747	43427.075
987.86502	43927.275
991.59999	44547.975
995.33237	45626.575
999.06217	47180.075
1002.78939	48963.875
1006.51404	50135.775
1010.23611	50783.875
1013.95561	51137.875
1017.67255	51114.975
1021.38692	50559.775
1025.09872	50156.775
1028.80796	50676.575
1032.51465	52143.275
1036.21877	53493.775
1039.92035	53694.975
1043.61937	52810.275
1047.31584	51337.575
1051.00976	49618.675
1054.70114	48655.975
1058.38998	48364.175
1062.07627	48419.075
1065.76003	48619.675
1069.44126	48900.775
1073.11995	49345.475
1076.79611	49831.575
1080.46974	50251.775
1084.14085	50752.875
1087.80943	51393.775
1091.47549	51694.275
1095.13903	51320.475
1098.80005	50502.075
1102.45857	49814.675
1106.11456	49316.575
1109.76805	49389.475
1113.41903	49822.075
1117.06751	50374.875
1120.71348	50905.875
1124.35696	51390.475
1127.99793	51819.475
1131.63641	51824.275
1135.2724	51356.275
1138.90589	50821.675
1142.5369	50561.975
1146.16542	50376.375
1149.79145	50546.975
1153.415	50927.775
1157.03607	51548.375
1160.65467	52611.375
1164.27079	54351.275
1167.88443	56768.475
1171.49561	60181.575
1175.10432	64756.075
1178.71056	70584.875
1182.31434	75862.875
1185.91565	78426.975
1189.51451	77929.275
1193.11091	75193.075
1196.70485	71683.075
1200.29634	68644.875
1203.88538	66340.875
1207.47197	64513.875
1211.05612	63059.875
1214.63782	62046.975
1218.21708	61875.275
1221.79391	62206.275
1225.36829	62191.075
1228.94024	61439.275
1232.50976	60064.375
1236.07685	58952.375
1239.6415	58479.175
1243.20374	58413.575
1246.76355	58869.875
1250.32093	59729.775
1253.8759	61053.975
1257.42845	62668.175
1260.97859	64256.775
1264.52631	65684.175
1268.07163	67325.075
1271.61453	69153.975
1275.15503	71205.275
1278.69312	73223.475
1282.22882	74879.175
1285.76211	76424.575
1289.29301	78106.875
1292.82151	80148.175
1296.34761	83236.575
1299.87133	87468.075
1303.39266	92737.675
1306.9116	99109.275
1310.42815	105676.775
1313.94233	109734.375
1317.45412	109881.875
1320.96354	107336.175
1324.47058	104035.475
1327.97525	100894.275
1331.47754	98931.775
1334.97747	98253.275
1338.47502	98707.375
1341.97022	99232.975
1345.46305	98800.075
1348.95352	97646.075
1352.44163	96908.475
1355.92738	98664.875
1359.41078	103260.275
1362.89183	107524.875
1366.37053	105248.775
1369.84688	96009.175
1373.32088	85867.275
1376.79254	78915.375
1380.26186	75948.275
1383.72883	75145.075
1387.19347	74601.475
1390.65578	74096.475
1394.11575	74285.275
1397.57339	75321.175
1401.0287	77143.675
1404.48168	79084.775
1407.93234	80502.975
1411.38068	80786.875
1414.82669	79807.575
1418.27039	77415.675
1421.71177	74275.475
1425.15083	71381.575
1428.58758	69886.475
1432.02203	70088.575
1435.45416	71098.675
1438.88399	72487.975
1442.31151	73717.475
1445.73673	74712.275
1449.15965	75580.175
1452.58027	75943.775
1455.9986	75879.875
1459.41463	76107.375
1462.82837	77013.375
1466.23982	78481.075
1469.64898	79965.575
1473.05586	81004.675
1476.46045	81375.275
1479.86276	81290.375
1483.26279	81061.275
1486.66054	80910.875
1490.05602	81354.175
1493.44922	81866.875
1496.84016	82169.875
1500.22882	83023.875
1503.61521	84813.075
1506.99934	87405.975
1510.38121	89851.775
1513.76081	90451.775
1517.13816	88102.175
1520.51324	84104.775
1523.88607	80611.275
1527.25665	78640.075
1530.62498	77868.875
1533.99105	77567.075
1537.35488	77362.775
1540.71647	76907.675
1544.07581	76290.075
1547.4329	75254.775
1550.78776	74036.175
1554.14038	73092.375
1557.49077	72461.975
1560.83892	72066.475
1564.18484	71883.775
1567.52853	71764.175
1570.86999	71773.775
1574.20922	72193.775
1577.54624	72582.975
1580.88103	72380.075
1584.2136	72496.175
1587.54395	74297.175
1590.87208	78344.375
1594.19801	84103.675
1597.52172	90343.675
1600.84321	92935.675
1604.16251	90009.575
1607.47959	83507.875
1610.79447	76168.275
1614.10715	69520.175
1617.41763	64225.675
1620.7259	60679.875
1624.03199	59008.775
1627.33587	58987.875
1630.63757	60661.475
1633.93707	64058.275
1637.23439	69271.575
1640.52951	76336.075
1643.82246	84132.275
1647.11321	90076.375
1650.40179	90647.075
1653.68819	84496.475
1656.97241	74267.075
1660.25446	64447.075
1663.53433	57433.575
1666.81203	52944.175
1670.08756	50212.575
1673.36092	48415.375
1676.63211	47209.575
1679.90115	46404.975
1683.16801	45722.575
1686.43272	45284.175
1689.69527	44945.675
1692.95567	44701.375
1696.2139	44517.575
1699.46999	44486.075
1702.72392	44318.775
1705.97571	44306.875
1709.22535	44206.975
1712.47284	44176.575
1715.71819	44166.675
1718.96139	44035.475
1722.20246	43922.275
1725.44139	43809.675
1728.67818	43576.475
1731.91284	43370.775
1735.14537	43159.275
1738.37576	42971.075
1741.60403	42851.575
1744.83017	42733.475
1748.05418	42569.875
1751.27607	42514.675
1754.49584	42460.375
1757.71349	42480.875
1760.92903	42436.575
1764.14244	42405.375
1767.35375	42411.675
1770.56294	42368.975
1773.77002	42407.075
1776.97499	42386.775
1780.17785	42246.475
1783.37861	42225.275
1786.57727	42104.175
1789.77382	42086.275
1792.96828	42031.775
1796.16064	42021.175
1799.3509	41901.075
1802.53907	41913.575
1805.72514	41846.175
1808.90913	41752.075
1812.09102	41696.875
1815.27083	41604.775
1818.44856	41563.375
1821.6242	41479.775
1824.79776	41453.975
1827.96924	41486.775
1831.13864	41419.175
1834.30597	41461.375
1837.47122	41347.575
1840.6344	41270.575
1843.7955	41376.475
1846.95454	41371.275
1850.11151	41392.275
1853.26642	41359.875
1856.41926	41381.675
1859.57004	41367.575
1862.71876	41333.275
1865.86542	41315.775
1869.01003	41322.175
1872.15258	41321.175
1875.29308	41300.775
1878.43152	41256.375
1881.56792	41347.075
1884.70227	41406.275
1887.83457	41389.975
1890.96482	41366.775
1894.09304	41279.975
1897.21921	41303.775
1900.34335	41221.175
1903.46544	41195.775
1906.58551	41239.775
1909.70353	41287.175
1912.81953	41247.575
1915.93349	41167.575
1919.04543	41037.375
1922.15534	40998.675
1925.26322	40948.475
1928.36908	40874.775
1931.47292	40812.875
1934.57473	40705.775
1937.67453	40636.575
1940.77232	40523.575
1943.86808	40369.575
1946.96184	40212.875
1950.05358	40068.175
1953.14331	39979.475
1956.23103	39855.175
1959.31675	39737.875
1962.40046	39671.175
1965.48217	39469.575
1968.56188	39386.575
1971.63959	39283.875
1974.7153	39241.375
1977.78901	39089.575
1980.86073	38978.575
1983.93046	38912.775
1986.99819	38788.775
1990.06394	38687.375
1993.1277	38664.975
1996.18947	38540.275
1999.24925	38422.175
2002.30706	38349.975
2005.36288	38162.975
2008.41672	38075.275
2011.46859	37976.375
2014.51848	37908.775
2017.56639	37812.875
2020.61233	37744.875
2023.6563	37644.675
2026.6983	37557.775
2029.73833	37509.475
2032.7764	37470.375
2035.8125	37431.875
2038.84664	37396.375
2041.87881	37311.975
2044.90903	37220.675
2047.93729	37187.675
2050.96359	37178.375
2053.98794	37151.775
2057.01034	37141.875
2060.03078	37154.975
2063.04927	37118.775
2066.06582	37109.575
2069.08042	37077.675
2072.09307	37008.775
2075.10378	36926.275
2078.11255	36885.775
2081.11938	36892.675
2084.12426	36868.475
2087.12722	36807.675
2090.12824	36836.775
2093.12732	36835.375
2096.12447	36794.875
2099.11969	36773.875
2102.11299	36823.975
2105.10435	36830.575
2108.09379	36851.075
2111.08131	36901.075
2114.0669	36870.475
2117.05057	36849.675
2120.03233	36873.975
2123.01216	36945.075
2125.99008	37050.075
2128.96609	37049.075
2131.94018	37068.875
2134.91236	37111.275
2137.88263	37193.075
2140.851	37197.175
2143.81746	37232.275
2146.78201	37180.275
2149.74466	37238.775
2152.7054	37272.675
2155.66425	37265.175
2158.6212	37244.475
2161.57625	37230.175
2164.52941	37216.975
2167.48067	37230.675
2170.43004	37249.175
2173.37752	37174.675
2176.32311	37287.875
2179.26681	37262.875
2182.20863	37267.675
2185.14856	37317.675
2188.08661	37308.675
2191.02278	37318.775
2193.95707	37297.975
2196.88948	37226.975
2199.82001	37275.475
2202.74867	37254.275
2205.67545	37262.175
2208.60037	37248.175
2211.52341	37215.375
2214.44458	37180.175
2217.36388	37208.175
2220.28132	37159.175
2223.1969	37081.775
2226.11061	36984.075
2229.02246	36849.975
2231.93245	36804.975
2234.84058	36774.575
2237.74686	36772.675
2240.65128	36694.175
2243.55385	36657.675
2246.45456	36640.275
2249.35343	36569.675
2252.25044	36526.175
2255.14561	36428.475
2258.03893	36452.775
2260.93041	36386.175
2263.82004	36312.575
2266.70783	36173.375
2269.59378	36096.675
2272.4779	36015.275
2275.36017	35981.775
2278.24061	35937.475
2281.11922	35859.475
2283.996	35840.275
2286.87094	35818.175
2289.74405	35793.875
2292.61534	35816.375
2295.4848	35736.475
2298.35243	35785.375
2301.21824	35773.875
2304.08223	35765.075
2306.94439	35803.875
2309.80474	35821.175
2312.66327	35821.975
2315.51999	35909.875
2318.37489	35848.675
2321.22797	35811.875
2324.07925	35843.575
2326.92871	35764.275
2329.77637	35731.375
2332.62222	35731.975
2335.46626	35723.275
2338.3085	35712.275
2341.14893	35801.975
2343.98756	35803.675
2346.8244	35832.975
2349.65943	35841.375
2352.49267	35825.575
2355.32411	35877.675
2358.15376	35764.475
2360.98161	35791.575
2363.80768	35744.575
2366.63195	35621.075
2369.45444	35589.775
2372.27514	35570.175
2375.09405	35472.575
2377.91118	35408.375
2380.72652	35306.175
2383.54009	35218.275
2386.35187	35174.975
2389.16188	34993.875
2391.97011	34988.075
2394.77657	35026.175
2397.58125	34991.175
2400.38416	34947.575
2403.18529	34835.775
2405.98466	34775.875
2408.78226	34747.975
2411.57809	34623.675
2414.37216	34553.675
2417.16446	34588.975
2419.955	34509.775
2422.74378	34552.175
2425.5308	34479.475
2428.31606	34483.975
2431.09956	34529.575
2433.88131	34460.775
2436.6613	34510.975
2439.43954	34484.575
2442.21603	34452.975
2444.99077	34385.775
2447.76377	34404.775
2450.53501	34395.475
2453.30451	34387.175
2456.07226	34366.575
2458.83827	34345.275
2461.60254	34303.375
2464.36507	34326.875
2467.12586	34342.175
2469.88492	34368.675
2472.64224	34363.375
2475.39782	34403.875
2478.15167	34400.975
2480.90379	34415.875
2483.65417	34440.775
2486.40283	34501.875
2489.14976	34511.375
2491.89497	34565.075
2494.63845	34568.675
2497.3802	34520.475
2500.12024	34584.175
2502.85855	34564.975
2505.59514	34509.475
2508.33002	34411.475
2511.06318	34422.375
2513.79462	34410.875
2516.52435	34387.975
2519.25237	34353.175
2521.97867	34345.875
2524.70327	34293.675
2527.42616	34295.075
2530.14734	34261.475
2532.86681	34239.575
2535.58458	34226.875
2538.30065	34230.475
2541.01501	34242.075
2543.72768	34226.875
2546.43864	34269.675
2549.14791	34187.575
2551.85548	34076.175
2554.56136	34109.475
2557.26554	34013.475
2559.96803	33959.775
2562.66883	33970.975
2565.36794	33952.375
2568.06536	33978.875
2570.7611	33908.375
2573.45514	33862.975
2576.14751	33859.275
2578.83819	33816.075
2581.52719	33874.675
2584.21451	33876.175
2586.90015	33849.875
2589.58411	33818.575
2592.2664	33844.275
2594.94701	33837.475
2597.62594	33873.575
2600.30321	33852.375
2602.9788	33876.275
2605.65273	33832.175
2608.32498	33871.575
2610.99557	33827.175
2613.66449	33876.075
2616.33175	33906.275
2618.99734	33880.775
2621.66128	33845.975
2624.32355	33866.075
2626.98416	33903.575
2629.64311	33844.275
2632.30041	33857.575
2634.95605	33810.675
2637.61004	33809.875
2640.26238	33757.975
2642.91306	33724.375
2645.56209	33679.275
2648.20948	33655.675
2650.85521	33615.975
2653.4993	33615.575
2656.14175	33635.375
2658.78255	33714.575
2661.42171	33748.375
2664.05923	33787.775
2666.6951	33768.175
2669.32934	33823.375
2671.96194	33782.075
2674.59291	33841.675
2677.22224	33830.775
2679.84993	33849.575
2682.476	33814.075
2685.10043	33763.975
2687.72324	33700.075
2690.34441	33675.175
2692.96396	33734.775
2695.58188	33699.375
2698.19818	33675.775
2700.81285	33685.475
2703.4259	33644.975
2706.03733	33702.175
2708.64714	33635.775
2711.25533	33666.275
2713.86191	33698.875
2716.46687	33766.775
2719.07021	33719.275
2721.67194	33787.875
2724.27206	33706.275
2726.87057	33762.875
2729.46747	33766.875
2732.06276	33839.575
2734.65644	33766.975
2737.24852	33846.275
2739.83899	33794.775
2742.42786	33838.775
2745.01513	33843.475
2747.60079	33771.875
2750.18486	33771.175
2752.76733	33766.675
2755.3482	33760.775
2757.92747	33738.475
2760.50515	33756.675
2763.08123	33738.275
2765.65573	33688.475
2768.22863	33678.775
2770.79994	33629.775
2773.36967	33644.175
2775.9378	33662.475
2778.50435	33690.875
2781.06932	33676.775
2783.6327	33675.275
2786.1945	33655.175
2788.75471	33645.975
2791.31335	33565.775
2793.87041	33507.475
2796.42589	33424.175
2798.97979	33406.075
2801.53212	33329.575
2804.08288	33280.575
2806.63206	33262.075
2809.17967	33221.575
2811.72571	33112.775
2814.27018	33047.375
2816.81308	32985.075
2819.35442	32963.875
2821.89419	32904.275
2824.43239	32949.175
2826.96904	32891.675
2829.50412	32941.275
2832.03763	32887.075
2834.56959	32854.675
2837.1	32840.575
2839.62884	32762.775
2842.15613	32712.275
2844.68186	32755.375
2847.20604	32702.375
2849.72867	32721.675
2852.24974	32659.675
2854.76927	32584.375
2857.28724	32587.675
2859.80367	32558.675
2862.31855	32557.675
2864.83189	32518.875
2867.34368	32486.775
2869.85393	32467.675
2872.36264	32403.275
2874.8698	32425.875
2877.37543	32394.575
2879.87952	32398.375
2882.38207	32388.075
2884.88308	32405.075
2887.38256	32423.875
2889.88051	32449.575
2892.37692	32447.875
2894.8718	32476.475
2897.36515	32480.075
2899.85698	32518.775
2902.34727	32591.475
2904.83604	32554.075
2907.32328	32619.075
2909.809	32648.875
2912.29319	32688.875
2914.77587	32683.475
2917.25702	32633.475
2919.73665	32627.275
2922.21476	32560.675
2924.69136	32526.275
2927.16644	32552.075
2929.64	32521.375
2932.11205	32448.675
2934.58258	32424.475
2937.05161	32455.775
2939.51912	32423.675
2941.98513	32387.075
2944.44962	32309.475
2946.91261	32313.675
2949.37409	32320.175
2951.83407	32267.175
2954.29254	32313.675
2956.74951	32255.175
2959.20498	32290.675
2961.65895	32230.075
2964.11142	32227.275
2966.56239	32213.675
2969.01186	32163.075
2971.45984	32024.775
2973.90632	32020.375
2976.35131	31928.875
2978.7948	31893.075
2981.23681	31862.075
2983.67732	31776.575
2986.11635	31713.675
2988.55388	31667.575
2990.98993	31582.675
2993.4245	31560.275
2995.85758	31490.075
2998.28917	31314.875
3000.71928	31294.975
3003.14791	31230.475
3005.57506	31233.875
3008.00073	31153.375
3010.42493	31119.775
3012.84764	31084.875
3015.26888	31018.475
3017.68865	30952.875
3020.10694	30911.675
3022.52376	30823.375
3024.9391	30763.075
3027.35298	30782.375
3029.76539	30755.875
3032.17632	30733.975
3034.5858	30671.175
3036.9938	30638.575
3039.40034	30647.375
3041.80542	30609.975
3044.20903	30614.575
3046.61118	30566.175
3049.01187	30480.875
3051.4111	30466.175
3053.80888	30364.175
3056.20519	30332.875
3058.60005	30255.175
3060.99345	30193.375
3063.3854	30102.075
3065.7759	29977.075
3068.16494	29907.175
3070.55254	29779.475
3072.93868	29723.575
3075.32338	29627.875
3077.70662	29581.375
3080.08842	29438.475
3082.46878	29405.475
3084.84769	29358.175
3087.22515	29353.475
3089.60118	29339.875
3091.97576	29293.675
3094.3489	29306.275
3096.72061	29356.075
3099.09087	29318.675
3101.4597	29301.075
3103.82709	29306.375
3106.19305	29233.175
3108.55757	29233.375
3110.92066	29145.675
3113.28232	29165.875
3115.64255	29033.475
3118.00134	29013.175
3120.35871	28848.875
3122.71466	28790.975
3125.06917	28734.575
3127.42226	28714.975
3129.77393	28700.575
3132.12417	28636.875
3134.47299	28640.575
3136.82039	28566.075
3139.16636	28577.075
3141.51092	28557.075
3143.85406	28544.375
3146.19579	28534.975
3148.53609	28515.875
3150.87499	28497.075
3153.21246	28548.375
3155.54853	28520.975
3157.88318	28507.175
3160.21642	28520.475
3162.54826	28508.375
3164.87868	28465.075
3167.2077	28408.075
3169.5353	28418.375
3171.86151	28386.275
3174.18631	28362.675
3176.5097	28426.575
3178.83169	28342.675
3181.15228	28320.575
3183.47147	28236.175
3185.78926	28217.775
3188.10565	28213.875
3190.42065	28175.475
3192.73424	28124.675
3195.04645	28116.275
3197.35725	28078.075
3199.66667	28072.375
3201.97469	28102.375
3204.28132	28030.975
3206.58656	28039.175
3208.8904	28023.175
3211.19287	28064.775
3213.49394	28059.975
3215.79363	28081.875
3218.09193	28060.475
3220.38884	28098.475
3222.68438	28122.675
3224.97853	28026.975
3227.2713	28006.575
3229.56269	27980.375
3231.8527	27990.475
3234.14133	27969.475
3236.42858	27902.575
3238.71446	27874.375
3240.99896	27771.275
3243.28209	27795.075
3245.56384	27737.175
3247.84423	27701.575
3250.12324	27738.075
3252.40088	27704.175
3254.67715	27649.175
3256.95205	27620.775
3259.22558	27591.075
3261.49775	27557.575
3263.76855	27541.475
3266.03799	27461.075
3268.30606	27405.975
3270.57277	27386.675
3272.83812	27349.975
3275.10211	27312.775
3277.36474	27258.575
3279.62601	27234.875
3281.88593	27219.175
3284.14448	27272.675
3286.40168	27252.275
3288.65753	27194.075
3290.91202	27183.975
3293.16516	27138.775
3295.41695	27128.375
3297.66738	26946.275
3299.91647	26815.875
3302.16421	26652.375
3304.4106	26560.575
3306.65564	26366.375
3308.89933	26216.875
3311.14169	26017.075
3313.38269	25835.275
3315.62236	25685.875
3317.86068	25430.875
3320.09766	25201.675
3322.3333	25050.775
3324.5676	24961.375
3326.80056	24551.675
3329.03219	24430.375
3331.26248	6.375
3333.49143	2.275
3335.71905	-1.325
