Data from AgNPs_FTO_APTES_UA_20uM_CRN_10uM_R6G_10uM_NaF_0.1M_Addition_RamanShift__27__14-41-52-221.txt Node

Date: Thu Feb 17 14:41:52 GMT 2022
User: TCL
Spectrometer: QEP01345
Trigger mode: 4
Integration Time (sec): 7.000000E0
Scans to average: 10
Electric dark correction enabled: true
Nonlinearity correction enabled: false
Boxcar width: 0
XAxis mode: Raman Shifts
Number of Pixels in Spectrum: 1044
>>>>>Begin Spectral Data<<<<<
46.04893	0.025
50.45542	-1.475
54.85868	-3.075
59.25871	-1.575
63.6555	116.125
68.04907	121.325
72.43941	122.425
76.82654	123.125
81.21044	126.825
85.59113	135.125
89.96862	134.025
94.34289	137.225
98.71396	144.125
103.08183	147.825
107.4465	153.125
111.80798	157.325
116.16626	162.425
120.52136	170.025
124.87327	181.725
129.222	184.925
133.56755	202.525
137.90993	214.725
142.24913	233.925
146.58517	269.725
150.91804	315.125
155.24774	377.725
159.57429	469.625
163.89768	606.525
168.21792	807.625
172.53501	1114.325
176.84895	1560.525
181.15975	2201.125
185.46741	3104.625
189.77193	4299.325
194.07331	5759.725
198.37157	7449.625
202.6667	9256.625
206.9587	11048.125
211.24758	12743.925
215.53334	14474.025
219.81599	16315.125
224.09553	18397.125
228.37195	20708.725
232.64527	23300.425
236.91549	26021.925
241.18261	28664.025
245.44663	31193.925
249.70755	33459.225
253.96539	35488.825
258.22014	37172.425
262.4718	38594.325
266.72039	39676.425
270.96589	40227.825
275.20832	40346.625
279.44768	40117.225
283.68397	39751.025
287.91719	39393.225
292.14735	39214.125
296.37445	39315.225
300.59849	39609.725
304.81948	40009.525
309.03742	40197.225
313.25231	39888.025
317.46415	39037.125
321.67296	37860.125
325.87872	36926.025
330.08145	36508.825
334.28114	36584.425
338.47781	36997.025
342.67145	37571.425
346.86207	38417.425
351.04966	39451.525
355.23424	40570.325
359.4158	41548.625
363.59435	42136.525
367.76989	42635.625
371.94243	42930.725
376.11196	43185.125
380.27849	43407.225
384.44203	43522.325
388.60257	43595.925
392.76012	43762.325
396.91468	44183.025
401.06626	44889.825
405.21485	45401.125
409.36047	45383.525
413.50311	44578.625
417.64277	43857.925
421.77947	43563.925
425.9132	43570.025
430.04396	43819.425
434.17176	44265.425
438.2966	44757.825
442.41849	45546.725
446.53742	46643.225
450.6534	47925.725
454.76644	48840.925
458.87653	49237.225
462.98368	49096.725
467.08789	48497.225
471.18916	47675.725
475.2875	46837.725
479.38291	46251.525
483.4754	45810.925
487.56496	45274.325
491.6516	44783.225
495.73531	44473.325
499.81612	44305.225
503.89401	44495.225
507.96899	44665.525
512.04106	44701.425
516.11023	44867.025
520.1765	45022.425
524.23987	45042.125
528.30034	44776.325
532.35792	44477.425
536.41261	44029.425
540.46441	43647.825
544.51333	43620.825
548.55936	43896.825
552.60252	44594.725
556.64279	45401.825
560.6802	45837.425
564.71473	45988.725
568.7464	46535.525
572.7752	47193.925
576.80114	47255.025
580.82422	47281.025
584.84444	47539.725
588.86181	48018.625
592.87633	48817.925
596.888	49303.425
600.89682	49793.625
604.9028	52131.125
608.90594	58051.025
612.90624	64861.825
616.90371	62021.425
620.89834	51944.425
624.89015	47442.825
628.87913	46777.225
632.86528	46598.125
636.84862	46271.225
640.82913	45604.525
644.80683	44693.125
648.78172	43947.425
652.75379	43974.225
656.72306	44800.225
660.68952	45784.525
664.65319	45628.925
668.61405	44818.125
672.57211	44436.325
676.52738	44444.725
680.47986	44499.325
684.42955	44380.725
688.37646	44396.825
692.32058	44706.125
696.26192	45113.325
700.20048	45482.525
704.13626	45730.625
708.06928	45585.725
711.99952	45243.725
715.927	45187.325
719.85171	45285.325
723.77365	45216.125
727.69284	45022.825
731.60928	44721.225
735.52295	44670.425
739.43388	44881.425
743.34206	45129.525
747.24749	45345.125
751.15017	45717.925
755.05012	46340.925
758.94733	47476.325
762.8418	49716.925
766.73354	53413.425
770.62254	57142.725
774.50882	58601.725
778.39237	56410.025
782.27321	52145.925
786.15132	48502.325
790.02671	46504.725
793.89938	45614.525
797.76935	45297.625
801.6366	45158.225
805.50115	44947.625
809.36299	44834.925
813.22213	44688.525
817.07857	44620.725
820.93231	44716.225
824.78336	44743.525
828.63172	44835.025
832.47738	44945.825
836.32036	45043.425
840.16066	45202.425
843.99827	45311.225
847.8332	45280.825
851.66546	45121.625
855.49504	45008.725
859.32195	44921.625
863.1462	44872.925
866.96777	44773.225
870.78668	44736.825
874.60293	44770.525
878.41652	44820.025
882.22745	44909.225
886.03573	45066.725
889.84136	44991.425
893.64433	44808.025
897.44466	44644.225
901.24235	44650.725
905.0374	44608.525
908.8298	44589.825
912.61957	44644.125
916.40671	44924.725
920.19121	45415.325
923.97308	45858.325
927.75233	46123.625
931.52895	46098.325
935.30295	45784.225
939.07433	45142.325
942.84309	44585.025
946.60924	44365.225
950.37278	44237.025
954.13371	44032.425
957.89203	43842.125
961.64774	43695.525
965.40086	43574.425
969.15137	43395.925
972.89929	43250.725
976.64461	43257.225
980.38733	43285.725
984.12747	43394.625
987.86502	43810.125
991.59999	44300.625
995.33237	45142.925
999.06217	46512.725
1002.78939	48090.125
1006.51404	49018.025
1010.23611	49517.225
1013.95561	49904.825
1017.67255	49969.125
1021.38692	49695.825
1025.09872	49506.425
1028.80796	50287.325
1032.51465	51834.625
1036.21877	53162.525
1039.92035	53163.125
1043.61937	52407.425
1047.31584	50875.325
1051.00976	49295.425
1054.70114	48349.025
1058.38998	48085.825
1062.07627	48075.625
1065.76003	48140.125
1069.44126	48193.425
1073.11995	48432.525
1076.79611	48722.525
1080.46974	49110.925
1084.14085	49531.125
1087.80943	50003.725
1091.47549	50163.025
1095.13903	49720.625
1098.80005	49057.725
1102.45857	48442.625
1106.11456	48218.025
1109.76805	48345.225
1113.41903	48950.825
1117.06751	49517.825
1120.71348	50169.525
1124.35696	50757.825
1127.99793	51163.925
1131.63641	51175.225
1135.2724	50469.925
1138.90589	49796.925
1142.5369	49388.825
1146.16542	49017.525
1149.79145	49067.225
1153.415	49319.225
1157.03607	49811.125
1160.65467	50496.925
1164.27079	51644.625
1167.88443	53484.225
1171.49561	56131.525
1175.10432	59868.425
1178.71056	64899.625
1182.31434	69536.725
1185.91565	71779.825
1189.51451	71173.625
1193.11091	68399.025
1196.70485	65019.825
1200.29634	62287.725
1203.88538	60386.525
1207.47197	58771.325
1211.05612	57293.425
1214.63782	56500.725
1218.21708	56546.725
1221.79391	56863.325
1225.36829	57029.725
1228.94024	56605.825
1232.50976	55831.525
1236.07685	55235.625
1239.6415	55152.125
1243.20374	55435.125
1246.76355	55873.325
1250.32093	56689.625
1253.8759	57926.125
1257.42845	59410.225
1260.97859	60480.625
1264.52631	61351.825
1268.07163	62368.225
1271.61453	63593.625
1275.15503	65098.925
1278.69312	66610.225
1282.22882	67808.125
1285.76211	68846.425
1289.29301	69887.525
1292.82151	71172.725
1296.34761	73009.525
1299.87133	75893.225
1303.39266	80063.925
1306.9116	85554.025
1310.42815	91286.025
1313.94233	94600.125
1317.45412	93974.625
1320.96354	90903.425
1324.47058	87309.425
1327.97525	84113.025
1331.47754	82000.725
1334.97747	81678.025
1338.47502	82779.725
1341.97022	84190.125
1345.46305	85068.725
1348.95352	85302.225
1352.44163	85873.025
1355.92738	88404.425
1359.41078	93782.325
1362.89183	98792.625
1366.37053	96626.325
1369.84688	87332.025
1373.32088	77754.425
1376.79254	71353.625
1380.26186	68210.625
1383.72883	66873.325
1387.19347	66165.325
1390.65578	65345.725
1394.11575	65006.325
1397.57339	65345.025
1401.0287	66406.925
1404.48168	67734.325
1407.93234	69180.825
1411.38068	70293.825
1414.82669	70430.025
1418.27039	69114.925
1421.71177	66916.525
1425.15083	64921.825
1428.58758	63817.625
1432.02203	63733.425
1435.45416	64240.825
1438.88399	64854.425
1442.31151	65403.825
1445.73673	65977.825
1449.15965	66553.025
1452.58027	66747.025
1455.9986	66583.125
1459.41463	66482.825
1462.82837	67020.825
1466.23982	68077.725
1469.64898	69440.725
1473.05586	70469.625
1476.46045	71269.725
1479.86276	71768.625
1483.26279	72341.425
1486.66054	72847.825
1490.05602	73795.825
1493.44922	74956.525
1496.84016	76024.925
1500.22882	77565.925
1503.61521	80222.325
1506.99934	83817.725
1510.38121	87064.225
1513.76081	87924.925
1517.13816	85247.325
1520.51324	80483.425
1523.88607	76097.925
1527.25665	73175.625
1530.62498	71635.125
1533.99105	70729.025
1537.35488	70156.725
1540.71647	69825.225
1544.07581	69478.125
1547.4329	69049.025
1550.78776	68354.625
1554.14038	67835.825
1557.49077	67604.825
1560.83892	67594.425
1564.18484	67613.125
1567.52853	67693.025
1570.86999	67685.925
1574.20922	67845.225
1577.54624	67781.925
1580.88103	66892.325
1584.2136	66212.525
1587.54395	66993.825
1590.87208	69683.725
1594.19801	74026.825
1597.52172	78946.225
1600.84321	81353.525
1604.16251	79136.625
1607.47959	74534.625
1610.79447	69081.025
1614.10715	64222.025
1617.41763	60433.425
1620.7259	57929.825
1624.03199	56698.825
1627.33587	56750.225
1630.63757	57980.225
1633.93707	60360.825
1637.23439	63713.525
1640.52951	67949.325
1643.82246	72699.225
1647.11321	76838.325
1650.40179	78150.125
1653.68819	74677.025
1656.97241	67528.225
1660.25446	60272.225
1663.53433	54963.725
1666.81203	51712.125
1670.08756	49574.125
1673.36092	48277.625
1676.63211	47345.425
1679.90115	46660.225
1683.16801	46191.325
1686.43272	45777.625
1689.69527	45610.425
1692.95567	45393.825
1696.2139	45288.125
1699.46999	45222.725
1702.72392	45162.725
1705.97571	45093.725
1709.22535	45024.825
1712.47284	45056.525
1715.71819	45084.225
1718.96139	44980.725
1722.20246	44896.825
1725.44139	44761.525
1728.67818	44598.325
1731.91284	44412.225
1735.14537	44262.325
1738.37576	44064.725
1741.60403	43986.025
1744.83017	43811.625
1748.05418	43755.525
1751.27607	43718.425
1754.49584	43695.025
1757.71349	43679.025
1760.92903	43724.525
1764.14244	43644.125
1767.35375	43663.625
1770.56294	43572.625
1773.77002	43554.525
1776.97499	43517.025
1780.17785	43475.025
1783.37861	43400.925
1786.57727	43345.025
1789.77382	43329.125
1792.96828	43320.025
1796.16064	43306.025
1799.3509	43291.325
1802.53907	43246.125
1805.72514	43105.525
1808.90913	43017.225
1812.09102	42936.325
1815.27083	42918.325
1818.44856	42906.225
1821.6242	42835.225
1824.79776	42803.025
1827.96924	42821.425
1831.13864	42759.325
1834.30597	42739.525
1837.47122	42690.225
1840.6344	42659.725
1843.7955	42680.625
1846.95454	42663.325
1850.11151	42680.325
1853.26642	42650.225
1856.41926	42680.725
1859.57004	42683.825
1862.71876	42613.425
1865.86542	42659.425
1869.01003	42634.625
1872.15258	42607.125
1875.29308	42598.625
1878.43152	42570.725
1881.56792	42582.325
1884.70227	42664.125
1887.83457	42623.925
1890.96482	42599.525
1894.09304	42544.225
1897.21921	42561.925
1900.34335	42473.625
1903.46544	42504.225
1906.58551	42461.325
1909.70353	42550.425
1912.81953	42458.525
1915.93349	42428.025
1919.04543	42362.225
1922.15534	42365.225
1925.26322	42308.225
1928.36908	42265.425
1931.47292	42199.725
1934.57473	42092.325
1937.67453	41993.625
1940.77232	41959.625
1943.86808	41778.625
1946.96184	41729.125
1950.05358	41566.125
1953.14331	41432.725
1956.23103	41383.125
1959.31675	41258.825
1962.40046	41134.525
1965.48217	40991.525
1968.56188	40878.725
1971.63959	40775.825
1974.7153	40712.925
1977.78901	40543.025
1980.86073	40457.725
1983.93046	40374.525
1986.99819	40227.725
1990.06394	40164.225
1993.1277	40063.825
1996.18947	39918.825
1999.24925	39852.225
2002.30706	39794.025
2005.36288	39669.625
2008.41672	39548.725
2011.46859	39431.525
2014.51848	39380.025
2017.56639	39261.425
2020.61233	39199.125
2023.6563	39095.325
2026.6983	39003.725
2029.73833	38897.425
2032.7764	38891.125
2035.8125	38843.125
2038.84664	38715.425
2041.87881	38747.825
2044.90903	38666.625
2047.93729	38676.225
2050.96359	38638.325
2053.98794	38557.025
2057.01034	38597.625
2060.03078	38541.725
2063.04927	38516.525
2066.06582	38432.425
2069.08042	38441.225
2072.09307	38391.625
2075.10378	38298.525
2078.11255	38287.825
2081.11938	38315.725
2084.12426	38255.825
2087.12722	38216.025
2090.12824	38239.925
2093.12732	38230.625
2096.12447	38253.125
2099.11969	38233.725
2102.11299	38203.625
2105.10435	38218.525
2108.09379	38255.725
2111.08131	38350.925
2114.0669	38274.325
2117.05057	38287.525
2120.03233	38329.925
2123.01216	38418.825
2125.99008	38445.525
2128.96609	38518.525
2131.94018	38508.825
2134.91236	38579.025
2137.88263	38630.725
2140.851	38579.825
2143.81746	38645.025
2146.78201	38698.025
2149.74466	38765.025
2152.7054	38734.325
2155.66425	38745.125
2158.6212	38753.025
2161.57625	38692.325
2164.52941	38665.425
2167.48067	38672.325
2170.43004	38634.625
2173.37752	38607.325
2176.32311	38674.625
2179.26681	38708.925
2182.20863	38724.725
2185.14856	38761.725
2188.08661	38755.125
2191.02278	38772.425
2193.95707	38672.225
2196.88948	38735.525
2199.82001	38752.025
2202.74867	38695.425
2205.67545	38687.825
2208.60037	38711.125
2211.52341	38667.625
2214.44458	38645.625
2217.36388	38613.625
2220.28132	38519.125
2223.1969	38482.125
2226.11061	38419.525
2229.02246	38326.925
2231.93245	38218.625
2234.84058	38189.925
2237.74686	38104.025
2240.65128	38042.425
2243.55385	38018.325
2246.45456	38084.025
2249.35343	38009.725
2252.25044	38010.425
2255.14561	37916.425
2258.03893	37871.825
2260.93041	37825.725
2263.82004	37738.625
2266.70783	37694.525
2269.59378	37566.125
2272.4779	37562.925
2275.36017	37442.225
2278.24061	37461.825
2281.11922	37339.325
2283.996	37246.025
2286.87094	37254.425
2289.74405	37237.225
2292.61534	37190.025
2295.4848	37140.225
2298.35243	37192.025
2301.21824	37211.625
2304.08223	37189.025
2306.94439	37202.225
2309.80474	37306.625
2312.66327	37326.425
2315.51999	37282.525
2318.37489	37272.125
2321.22797	37297.425
2324.07925	37227.525
2326.92871	37137.125
2329.77637	37139.925
2332.62222	37061.625
2335.46626	37128.125
2338.3085	37135.825
2341.14893	37085.125
2343.98756	37119.125
2346.8244	37179.925
2349.65943	37158.225
2352.49267	37166.825
2355.32411	37249.225
2358.15376	37178.725
2360.98161	37158.325
2363.80768	37061.025
2366.63195	37019.125
2369.45444	36992.325
2372.27514	36889.125
2375.09405	36845.825
2377.91118	36769.525
2380.72652	36691.425
2383.54009	36619.425
2386.35187	36507.425
2389.16188	36385.125
2391.97011	36350.625
2394.77657	36362.625
2397.58125	36300.925
2400.38416	36264.825
2403.18529	36154.925
2405.98466	36099.925
2408.78226	36003.525
2411.57809	35940.825
2414.37216	35897.725
2417.16446	35860.525
2419.955	35795.925
2422.74378	35732.225
2425.5308	35776.725
2428.31606	35764.025
2431.09956	35744.025
2433.88131	35694.625
2436.6613	35760.025
2439.43954	35711.025
2442.21603	35704.725
2444.99077	35623.325
2447.76377	35641.025
2450.53501	35599.925
2453.30451	35589.225
2456.07226	35546.125
2458.83827	35560.325
2461.60254	35505.325
2464.36507	35513.125
2467.12586	35508.825
2469.88492	35509.125
2472.64224	35537.425
2475.39782	35492.225
2478.15167	35595.825
2480.90379	35591.525
2483.65417	35645.025
2486.40283	35665.425
2489.14976	35655.725
2491.89497	35617.225
2494.63845	35714.325
2497.3802	35733.725
2500.12024	35699.725
2502.85855	35671.025
2505.59514	35679.425
2508.33002	35498.725
2511.06318	35472.725
2513.79462	35497.825
2516.52435	35409.225
2519.25237	35394.425
2521.97867	35374.825
2524.70327	35369.625
2527.42616	35315.225
2530.14734	35311.825
2532.86681	35283.425
2535.58458	35306.725
2538.30065	35228.525
2541.01501	35222.225
2543.72768	35254.225
2546.43864	35236.125
2549.14791	35140.925
2551.85548	35160.725
2554.56136	35010.925
2557.26554	34986.025
2559.96803	34951.925
2562.66883	34932.625
2565.36794	34903.925
2568.06536	34892.425
2570.7611	34844.625
2573.45514	34814.025
2576.14751	34771.125
2578.83819	34790.225
2581.52719	34739.825
2584.21451	34761.525
2586.90015	34769.425
2589.58411	34710.225
2592.2664	34740.325
2594.94701	34718.025
2597.62594	34650.325
2600.30321	34692.825
2602.9788	34682.425
2605.65273	34677.025
2608.32498	34649.825
2610.99557	34678.825
2613.66449	34681.825
2616.33175	34654.725
2618.99734	34627.825
2621.66128	34650.225
2624.32355	34643.525
2626.98416	34634.625
2629.64311	34654.825
2632.30041	34629.325
2634.95605	34627.825
2637.61004	34559.825
2640.26238	34532.225
2642.91306	34469.525
2645.56209	34376.625
2648.20948	34413.125
2650.85521	34384.925
2653.4993	34308.825
2656.14175	34300.225
2658.78255	34330.625
2661.42171	34414.225
2664.05923	34435.225
2666.6951	34473.825
2669.32934	34464.025
2671.96194	34445.325
2674.59291	34543.825
2677.22224	34498.525
2679.84993	34523.425
2682.476	34467.725
2685.10043	34449.025
2687.72324	34451.125
2690.34441	34430.225
2692.96396	34411.625
2695.58188	34398.025
2698.19818	34368.025
2700.81285	34290.425
2703.4259	34310.625
2706.03733	34413.725
2708.64714	34340.325
2711.25533	34355.525
2713.86191	34341.225
2716.46687	34466.325
2719.07021	34392.225
2721.67194	34427.025
2724.27206	34396.025
2726.87057	34376.525
2729.46747	34432.425
2732.06276	34429.025
2734.65644	34429.225
2737.24852	34484.625
2739.83899	34484.825
2742.42786	34513.225
2745.01513	34462.225
2747.60079	34425.425
2750.18486	34413.225
2752.76733	34412.425
2755.3482	34292.525
2757.92747	34333.925
2760.50515	34322.925
2763.08123	34321.425
2765.65573	34273.025
2768.22863	34305.725
2770.79994	34213.525
2773.36967	34269.025
2775.9378	34291.625
2778.50435	34262.325
2781.06932	34256.425
2783.6327	34280.725
2786.1945	34202.325
2788.75471	34184.825
2791.31335	34150.225
2793.87041	34094.725
2796.42589	34013.625
2798.97979	33997.125
2801.53212	33909.625
2804.08288	33852.325
2806.63206	33821.825
2809.17967	33753.825
2811.72571	33639.525
2814.27018	33583.525
2816.81308	33518.925
2819.35442	33522.825
2821.89419	33498.025
2824.43239	33517.325
2826.96904	33457.525
2829.50412	33559.025
2832.03763	33476.425
2834.56959	33427.825
2837.1	33400.625
2839.62884	33306.825
2842.15613	33275.225
2844.68186	33311.525
2847.20604	33247.525
2849.72867	33255.525
2852.24974	33179.825
2854.76927	33163.525
2857.28724	33124.525
2859.80367	33135.625
2862.31855	33099.725
2864.83189	32999.125
2867.34368	32986.825
2869.85393	33036.925
2872.36264	33006.625
2874.8698	32965.425
2877.37543	32937.925
2879.87952	32917.325
2882.38207	32945.825
2884.88308	32910.025
2887.38256	32947.025
2889.88051	32921.825
2892.37692	32978.825
2894.8718	32940.625
2897.36515	33023.925
2899.85698	33040.125
2902.34727	33062.625
2904.83604	33081.225
2907.32328	33113.825
2909.809	33094.225
2912.29319	33153.725
2914.77587	33157.425
2917.25702	33170.425
2919.73665	33120.925
2922.21476	33080.725
2924.69136	33047.625
2927.16644	33016.625
2929.64	32915.825
2932.11205	32923.225
2934.58258	32810.325
2937.05161	32924.525
2939.51912	32933.125
2941.98513	32921.425
2944.44962	32881.925
2946.91261	32798.625
2949.37409	32896.025
2951.83407	32852.425
2954.29254	32802.825
2956.74951	32847.925
2959.20498	32807.925
2961.65895	32774.625
2964.11142	32813.225
2966.56239	32697.325
2969.01186	32717.525
2971.45984	32603.225
2973.90632	32578.825
2976.35131	32567.625
2978.7948	32511.525
2981.23681	32403.325
2983.67732	32379.825
2986.11635	32293.125
2988.55388	32257.825
2990.98993	32211.425
2993.4245	32182.025
2995.85758	32089.225
2998.28917	32024.225
3000.71928	31990.525
3003.14791	31876.125
3005.57506	31902.725
3008.00073	31842.125
3010.42493	31746.025
3012.84764	31697.625
3015.26888	31723.725
3017.68865	31604.225
3020.10694	31590.025
3022.52376	31549.525
3024.9391	31494.325
3027.35298	31490.525
3029.76539	31439.825
3032.17632	31382.525
3034.5858	31321.625
3036.9938	31370.125
3039.40034	31307.925
3041.80542	31284.925
3044.20903	31197.125
3046.61118	31204.425
3049.01187	31139.025
3051.4111	31058.025
3053.80888	30955.325
3056.20519	30911.225
3058.60005	30867.625
3060.99345	30829.625
3063.3854	30752.925
3065.7759	30611.625
3068.16494	30528.725
3070.55254	30389.025
3072.93868	30366.325
3075.32338	30277.825
3077.70662	30221.325
3080.08842	30090.325
3082.46878	30089.725
3084.84769	29989.025
3087.22515	30061.025
3089.60118	29982.025
3091.97576	29982.725
3094.3489	29950.125
3096.72061	29939.325
3099.09087	29958.325
3101.4597	29965.225
3103.82709	29940.625
3106.19305	29908.125
3108.55757	29904.525
3110.92066	29879.725
3113.28232	29796.925
3115.64255	29696.825
3118.00134	29606.025
3120.35871	29584.125
3122.71466	29480.225
3125.06917	29470.525
3127.42226	29387.525
3129.77393	29438.425
3132.12417	29368.025
3134.47299	29334.625
3136.82039	29353.325
3139.16636	29316.725
3141.51092	29250.025
3143.85406	29281.525
3146.19579	29230.125
3148.53609	29251.125
3150.87499	29350.125
3153.21246	29272.225
3155.54853	29346.525
3157.88318	29294.025
3160.21642	29307.925
3162.54826	29291.925
3164.87868	29230.425
3167.2077	29181.725
3169.5353	29176.425
3171.86151	29172.225
3174.18631	29171.525
3176.5097	29114.825
3178.83169	29051.125
3181.15228	29056.425
3183.47147	28949.225
3185.78926	28989.225
3188.10565	28945.725
3190.42065	28921.125
3192.73424	28880.425
3195.04645	28911.125
3197.35725	28816.225
3199.66667	28854.725
3201.97469	28872.925
3204.28132	28861.525
3206.58656	28841.725
3208.8904	28846.725
3211.19287	28852.225
3213.49394	28828.525
3215.79363	28882.225
3218.09193	28914.025
3220.38884	28885.725
3222.68438	28934.125
3224.97853	28848.025
3227.2713	28860.425
3229.56269	28794.725
3231.8527	28785.125
3234.14133	28750.225
3236.42858	28706.925
3238.71446	28673.825
3240.99896	28591.125
3243.28209	28598.725
3245.56384	28547.525
3247.84423	28516.425
3250.12324	28515.025
3252.40088	28470.225
3254.67715	28471.625
3256.95205	28470.125
3259.22558	28440.425
3261.49775	28362.425
3263.76855	28414.725
3266.03799	28295.925
3268.30606	28287.525
3270.57277	28268.525
3272.83812	28167.925
3275.10211	28136.725
3277.36474	28087.325
3279.62601	28141.025
3281.88593	28063.625
3284.14448	28065.125
3286.40168	28059.825
3288.65753	28019.625
3290.91202	27987.625
3293.16516	27939.625
3295.41695	27914.825
3297.66738	27723.225
3299.91647	27599.125
3302.16421	27464.725
3304.4106	27336.025
3306.65564	27161.025
3308.89933	26962.825
3311.14169	26820.725
3313.38269	26659.525
3315.62236	26511.825
3317.86068	26318.725
3320.09766	26066.825
3322.3333	25953.725
3324.5676	25838.425
3326.80056	25418.725
3329.03219	25259.725
3331.26248	5.325
3333.49143	0.325
3335.71905	-0.675
