Data from AgNPs_FTO_APTES_UA_10uM_CRN_50uM_R6G_10uM_NaF_0.1M_Addition_RamanShift__4__16-40-04-812.txt Node

Date: Thu Feb 17 16:40:04 GMT 2022
User: TCL
Spectrometer: QEP01345
Trigger mode: 4
Integration Time (sec): 1.000000E1
Scans to average: 7
Electric dark correction enabled: true
Nonlinearity correction enabled: false
Boxcar width: 0
XAxis mode: Raman Shifts
Number of Pixels in Spectrum: 1044
>>>>>Begin Spectral Data<<<<<
46.04893	-0.67857
50.45542	-0.82143
54.85868	0.17857
59.25871	-2.39286
63.6555	86.17857
68.04907	82.60714
72.43941	90.60714
76.82654	92.89286
81.21044	98.03571
85.59113	99.32143
89.96862	105.75
94.34289	103.17857
98.71396	115.60714
103.08183	111.60714
107.4465	119.60714
111.80798	114.75
116.16626	122.75
120.52136	126.03571
124.87327	133.17857
129.222	135.75
133.56755	140.17857
137.90993	155.46429
142.24913	165.89286
146.58517	187.75
150.91804	215.60714
155.24774	265.17857
159.57429	324.60714
163.89768	420.17857
168.21792	551.46429
172.53501	752.46429
176.84895	1070.60714
181.15975	1496.89286
185.46741	2120.03571
189.77193	2922.89286
194.07331	3943.60714
198.37157	5091.17857
202.6667	6335.75
206.9587	7544.75
211.24758	8739.46429
215.53334	9974.03571
219.81599	11275.46429
224.09553	12689.03571
228.37195	14270.03571
232.64527	16016.32143
236.91549	17828.32143
241.18261	19543.46429
245.44663	21027.89286
249.70755	22326.17857
253.96539	23421.89286
258.22014	24377.75
262.4718	25200.89286
266.72039	25729.17857
270.96589	25899.89286
275.20832	25848.17857
279.44768	25511.32143
283.68397	25109.60714
287.91719	24746.03571
292.14735	24607.75
296.37445	24694.75
300.59849	25123.89286
304.81948	25625.03571
309.03742	26096.17857
313.25231	26256.17857
317.46415	25822.60714
321.67296	25061.89286
325.87872	24244.60714
330.08145	23880.32143
334.28114	23815.75
338.47781	24045.89286
342.67145	24458.89286
346.86207	25072.03571
351.04966	25825.89286
355.23424	26594.46429
359.4158	27183.17857
363.59435	27492.60714
367.76989	27644.60714
371.94243	27632.17857
376.11196	27574.03571
380.27849	27566.32143
384.44203	27548.75
388.60257	27598.17857
392.76012	27730.46429
396.91468	28004.46429
401.06626	28491.46429
405.21485	28791.46429
409.36047	28503.32143
413.50311	27832.17857
417.64277	27173.60714
421.77947	26817.46429
425.9132	26737.89286
430.04396	26775.75
434.17176	26867.46429
438.2966	27100.32143
442.41849	27551.17857
446.53742	28246.03571
450.6534	29006.89286
454.76644	29507.46429
458.87653	29407.75
462.98368	29170.32143
467.08789	28779.17857
471.18916	28315.60714
475.2875	27714.89286
479.38291	27251.17857
483.4754	26858.60714
487.56496	26618.75
491.6516	26535.46429
495.73531	26514.46429
499.81612	26564.17857
503.89401	26799.32143
507.96899	26927.32143
512.04106	27006.75
516.11023	27078.60714
520.1765	27227.03571
524.23987	27271.32143
528.30034	27291.75
532.35792	27217.17857
536.41261	26985.46429
540.46441	26589.32143
544.51333	26359.17857
548.55936	26463.32143
552.60252	26810.75
556.64279	27308.89286
560.6802	27584.32143
564.71473	27663.32143
568.7464	27856.32143
572.7752	28119.03571
576.80114	28093.03571
580.82422	28314.32143
584.84444	29002.17857
588.86181	30008.89286
592.87633	31010.89286
596.888	31437.60714
600.89682	31029.89286
604.9028	31798.60714
608.90594	35835.75
612.90624	41304.03571
616.90371	39414.75
620.89834	31636.75
624.89015	27999.03571
628.87913	27469.46429
632.86528	27632.75
636.84862	27761.89286
640.82913	27427.46429
644.80683	26609.32143
648.78172	26064.03571
652.75379	26066.32143
656.72306	26619.46429
660.68952	27290.75
664.65319	27134.75
668.61405	26459.75
672.57211	26259.89286
676.52738	26315.75
680.47986	26313.60714
684.42955	26088.75
688.37646	25929.46429
692.32058	26044.03571
696.26192	26322.32143
700.20048	26629.32143
704.13626	26800.03571
708.06928	26683.32143
711.99952	26468.46429
715.927	26471.03571
719.85171	26618.89286
723.77365	26631.89286
727.69284	26404.03571
731.60928	26213.75
735.52295	26168.60714
739.43388	26217.17857
743.34206	26282.17857
747.24749	26352.89286
751.15017	26384.60714
755.05012	26642.32143
758.94733	27283.75
762.8418	29001.60714
766.73354	31756.17857
770.62254	34543.60714
774.50882	35546.17857
778.39237	34187.17857
782.27321	31633.32143
786.15132	28977.17857
790.02671	27290.60714
793.89938	26561.75
797.76935	26243.17857
801.6366	26078.32143
805.50115	25929.46429
809.36299	25816.46429
813.22213	25656.03571
817.07857	25597.60714
820.93231	25533.75
824.78336	25574.17857
828.63172	25638.60714
832.47738	25665.32143
836.32036	25663.46429
840.16066	25750.32143
843.99827	25761.89286
847.8332	25677.60714
851.66546	25604.03571
855.49504	25579.03571
859.32195	25608.17857
863.1462	25616.75
866.96777	25581.75
870.78668	25605.03571
874.60293	25601.46429
878.41652	25698.17857
882.22745	25823.60714
886.03573	25859.75
889.84136	25907.75
893.64433	25779.32143
897.44466	25695.17857
901.24235	25575.03571
905.0374	25464.03571
908.8298	25331.60714
912.61957	25286.60714
916.40671	25357.89286
920.19121	25522.60714
923.97308	25807.75
927.75233	26127.75
931.52895	26217.32143
935.30295	26045.32143
939.07433	25551.75
942.84309	25119.75
946.60924	24933.75
950.37278	24856.32143
954.13371	24734.03571
957.89203	24685.03571
961.64774	24611.89286
965.40086	24620.03571
969.15137	24593.75
972.89929	24552.32143
976.64461	24584.89286
980.38733	24638.03571
984.12747	24701.17857
987.86502	24901.17857
991.59999	25134.17857
995.33237	25472.46429
999.06217	25999.17857
1002.78939	26587.60714
1006.51404	26974.46429
1010.23611	27276.32143
1013.95561	27429.17857
1017.67255	27535.46429
1021.38692	27357.46429
1025.09872	27057.03571
1028.80796	27042.46429
1032.51465	27451.32143
1036.21877	28046.46429
1039.92035	28234.17857
1043.61937	28139.89286
1047.31584	27724.89286
1051.00976	27208.17857
1054.70114	26848.89286
1058.38998	26746.03571
1062.07627	26735.46429
1065.76003	26763.46429
1069.44126	26913.89286
1073.11995	27314.89286
1076.79611	27751.89286
1080.46974	28103.75
1084.14085	28418.17857
1087.80943	28709.03571
1091.47549	28832.46429
1095.13903	28516.89286
1098.80005	28029.60714
1102.45857	27582.75
1106.11456	27233.75
1109.76805	27235.75
1113.41903	27453.60714
1117.06751	27800.32143
1120.71348	28306.32143
1124.35696	28852.17857
1127.99793	29416.89286
1131.63641	29522.03571
1135.2724	28963.46429
1138.90589	28402.75
1142.5369	28013.03571
1146.16542	27773.17857
1149.79145	27604.60714
1153.415	27507.89286
1157.03607	27624.89286
1160.65467	28010.03571
1164.27079	28877.17857
1167.88443	30064.03571
1171.49561	31763.89286
1175.10432	34200.60714
1178.71056	37370.60714
1182.31434	40205.32143
1185.91565	41298.89286
1189.51451	40657.89286
1193.11091	39056.75
1196.70485	37154.03571
1200.29634	35452.03571
1203.88538	34015.17857
1207.47197	32658.89286
1211.05612	31429.75
1214.63782	30639.60714
1218.21708	30302.32143
1221.79391	30291.03571
1225.36829	30394.89286
1228.94024	30395.03571
1232.50976	30029.32143
1236.07685	29708.75
1239.6415	29480.60714
1243.20374	29432.60714
1246.76355	29674.32143
1250.32093	30063.75
1253.8759	30591.46429
1257.42845	31219.89286
1260.97859	32053.75
1264.52631	32987.75
1268.07163	33903.17857
1271.61453	34845.89286
1275.15503	35617.32143
1278.69312	36255.03571
1282.22882	36850.32143
1285.76211	37534.46429
1289.29301	38432.75
1292.82151	39482.32143
1296.34761	40772.60714
1299.87133	42719.75
1303.39266	45358.60714
1306.9116	48913.03571
1310.42815	52556.03571
1313.94233	54391.89286
1317.45412	53192.60714
1320.96354	50403.89286
1324.47058	47356.17857
1327.97525	44699.03571
1331.47754	42737.03571
1334.97747	41732.03571
1338.47502	41330.32143
1341.97022	41507.60714
1345.46305	42267.60714
1348.95352	43877.32143
1352.44163	46358.32143
1355.92738	49668.60714
1359.41078	54201.46429
1362.89183	57966.60714
1366.37053	56645.03571
1369.84688	50217.46429
1373.32088	43269.32143
1376.79254	38846.17857
1380.26186	36749.75
1383.72883	35739.75
1387.19347	34935.75
1390.65578	33892.46429
1394.11575	33165.75
1397.57339	32957.03571
1401.0287	32957.17857
1404.48168	32954.32143
1407.93234	32970.03571
1411.38068	32954.17857
1414.82669	32841.89286
1418.27039	32703.17857
1421.71177	32336.03571
1425.15083	31774.32143
1428.58758	31549.03571
1432.02203	31807.03571
1435.45416	32406.03571
1438.88399	32811.46429
1442.31151	32945.46429
1445.73673	32953.60714
1449.15965	32979.60714
1452.58027	32843.89286
1455.9986	32596.17857
1459.41463	32574.75
1462.82837	32969.32143
1466.23982	33550.17857
1469.64898	34276.89286
1473.05586	34945.46429
1476.46045	35343.17857
1479.86276	35664.17857
1483.26279	35964.17857
1486.66054	36497.32143
1490.05602	37415.60714
1493.44922	38593.46429
1496.84016	40232.60714
1500.22882	42664.60714
1503.61521	46005.03571
1506.99934	49807.46429
1510.38121	52611.60714
1513.76081	52791.03571
1517.13816	49566.60714
1520.51324	44998.46429
1523.88607	41003.60714
1527.25665	38440.75
1530.62498	37104.03571
1533.99105	36350.17857
1537.35488	35777.03571
1540.71647	35179.17857
1544.07581	34566.89286
1547.4329	34170.46429
1550.78776	33820.17857
1554.14038	33664.32143
1557.49077	33660.17857
1560.83892	33857.46429
1564.18484	34366.89286
1567.52853	34973.03571
1570.86999	35649.32143
1574.20922	36065.03571
1577.54624	36070.17857
1580.88103	35119.60714
1584.2136	33968.60714
1587.54395	33611.03571
1590.87208	34430.32143
1594.19801	36260.32143
1597.52172	38446.60714
1600.84321	39587.89286
1604.16251	38686.17857
1607.47959	36616.17857
1610.79447	34212.60714
1614.10715	31873.17857
1617.41763	30074.03571
1620.7259	28811.32143
1624.03199	28284.03571
1627.33587	28356.75
1630.63757	28963.46429
1633.93707	30161.75
1637.23439	32200.75
1640.52951	35492.03571
1643.82246	39888.17857
1647.11321	44217.46429
1650.40179	46110.75
1653.68819	43686.89286
1656.97241	38341.60714
1660.25446	33054.89286
1663.53433	29418.03571
1666.81203	27269.60714
1670.08756	26046.03571
1673.36092	25273.32143
1676.63211	24816.89286
1679.90115	24382.75
1683.16801	24137.89286
1686.43272	23912.17857
1689.69527	23776.89286
1692.95567	23636.89286
1696.2139	23582.46429
1699.46999	23497.03571
1702.72392	23443.60714
1705.97571	23443.60714
1709.22535	23439.60714
1712.47284	23399.75
1715.71819	23413.75
1718.96139	23414.32143
1722.20246	23369.46429
1725.44139	23238.46429
1728.67818	23152.17857
1731.91284	23038.03571
1735.14537	22956.75
1738.37576	22924.17857
1741.60403	22768.60714
1744.83017	22707.46429
1748.05418	22676.60714
1751.27607	22661.75
1754.49584	22572.75
1757.71349	22603.89286
1760.92903	22561.17857
1764.14244	22501.32143
1767.35375	22540.32143
1770.56294	22507.46429
1773.77002	22478.89286
1776.97499	22442.17857
1780.17785	22433.89286
1783.37861	22352.03571
1786.57727	22280.89286
1789.77382	22318.17857
1792.96828	22285.46429
1796.16064	22261.46429
1799.3509	22212.89286
1802.53907	22141.75
1805.72514	22117.60714
1808.90913	22120.32143
1812.09102	22038.03571
1815.27083	22011.60714
1818.44856	21965.03571
1821.6242	21949.46429
1824.79776	21866.75
1827.96924	21848.32143
1831.13864	21837.89286
1834.30597	21848.75
1837.47122	21845.03571
1840.6344	21858.89286
1843.7955	21806.89286
1846.95454	21851.75
1850.11151	21793.46429
1853.26642	21795.60714
1856.41926	21745.03571
1859.57004	21782.32143
1862.71876	21740.75
1865.86542	21740.75
1869.01003	21711.89286
1872.15258	21764.32143
1875.29308	21681.17857
1878.43152	21670.03571
1881.56792	21656.03571
1884.70227	21612.17857
1887.83457	21601.75
1890.96482	21596.03571
1894.09304	21530.60714
1897.21921	21566.03571
1900.34335	21543.60714
1903.46544	21541.89286
1906.58551	21509.46429
1909.70353	21493.17857
1912.81953	21463.89286
1915.93349	21440.17857
1919.04543	21411.32143
1922.15534	21403.03571
1925.26322	21340.89286
1928.36908	21291.60714
1931.47292	21264.46429
1934.57473	21244.89286
1937.67453	21195.60714
1940.77232	21137.17857
1943.86808	21093.89286
1946.96184	21065.32143
1950.05358	21032.60714
1953.14331	20932.46429
1956.23103	20921.60714
1959.31675	20885.60714
1962.40046	20794.46429
1965.48217	20792.89286
1968.56188	20696.46429
1971.63959	20649.17857
1974.7153	20607.89286
1977.78901	20567.60714
1980.86073	20481.17857
1983.93046	20436.89286
1986.99819	20357.46429
1990.06394	20322.89286
1993.1277	20273.17857
1996.18947	20184.75
1999.24925	20164.32143
2002.30706	20096.46429
2005.36288	20000.46429
2008.41672	19968.46429
2011.46859	19908.03571
2014.51848	19930.75
2017.56639	19847.60714
2020.61233	19781.89286
2023.6563	19725.75
2026.6983	19680.75
2029.73833	19688.89286
2032.7764	19642.17857
2035.8125	19599.32143
2038.84664	19565.89286
2041.87881	19531.60714
2044.90903	19513.17857
2047.93729	19454.75
2050.96359	19500.46429
2053.98794	19472.32143
2057.01034	19442.89286
2060.03078	19476.03571
2063.04927	19448.75
2066.06582	19442.32143
2069.08042	19408.60714
2072.09307	19409.46429
2075.10378	19402.03571
2078.11255	19371.17857
2081.11938	19358.17857
2084.12426	19341.46429
2087.12722	19359.32143
2090.12824	19333.89286
2093.12732	19326.60714
2096.12447	19367.03571
2099.11969	19358.17857
2102.11299	19385.89286
2105.10435	19385.75
2108.09379	19377.75
2111.08131	19469.89286
2114.0669	19451.75
2117.05057	19497.75
2120.03233	19455.03571
2123.01216	19518.17857
2125.99008	19543.60714
2128.96609	19595.89286
2131.94018	19576.60714
2134.91236	19569.17857
2137.88263	19633.32143
2140.851	19588.03571
2143.81746	19650.03571
2146.78201	19633.17857
2149.74466	19691.03571
2152.7054	19657.03571
2155.66425	19659.32143
2158.6212	19653.17857
2161.57625	19645.60714
2164.52941	19636.89286
2167.48067	19627.32143
2170.43004	19654.60714
2173.37752	19625.75
2176.32311	19664.32143
2179.26681	19692.89286
2182.20863	19624.75
2185.14856	19696.32143
2188.08661	19640.17857
2191.02278	19698.46429
2193.95707	19662.60714
2196.88948	19647.03571
2199.82001	19597.17857
2202.74867	19613.60714
2205.67545	19650.89286
2208.60037	19635.03571
2211.52341	19601.75
2214.44458	19575.46429
2217.36388	19508.32143
2220.28132	19535.32143
2223.1969	19458.32143
2226.11061	19446.75
2229.02246	19443.60714
2231.93245	19416.17857
2234.84058	19413.60714
2237.74686	19340.75
2240.65128	19376.46429
2243.55385	19343.32143
2246.45456	19321.75
2249.35343	19289.46429
2252.25044	19246.75
2255.14561	19275.17857
2258.03893	19269.89286
2260.93041	19250.75
2263.82004	19186.17857
2266.70783	19150.32143
2269.59378	19092.32143
2272.4779	19072.03571
2275.36017	19015.89286
2278.24061	19033.46429
2281.11922	19003.32143
2283.996	19017.32143
2286.87094	18988.32143
2289.74405	18909.89286
2292.61534	18915.03571
2295.4848	18919.46429
2298.35243	18921.89286
2301.21824	18952.03571
2304.08223	18940.60714
2306.94439	18941.60714
2309.80474	18928.75
2312.66327	18931.46429
2315.51999	18916.89286
2318.37489	18888.60714
2321.22797	18910.75
2324.07925	18894.60714
2326.92871	18830.32143
2329.77637	18840.03571
2332.62222	18808.17857
2335.46626	18801.03571
2338.3085	18818.17857
2341.14893	18791.03571
2343.98756	18820.17857
2346.8244	18830.75
2349.65943	18829.17857
2352.49267	18812.03571
2355.32411	18849.75
2358.15376	18827.46429
2360.98161	18792.89286
2363.80768	18760.46429
2366.63195	18744.89286
2369.45444	18743.60714
2372.27514	18698.03571
2375.09405	18725.03571
2377.91118	18672.75
2380.72652	18622.89286
2383.54009	18616.46429
2386.35187	18559.32143
2389.16188	18497.60714
2391.97011	18543.60714
2394.77657	18487.03571
2397.58125	18485.03571
2400.38416	18439.17857
2403.18529	18395.89286
2405.98466	18393.03571
2408.78226	18342.46429
2411.57809	18344.17857
2414.37216	18291.46429
2417.16446	18310.32143
2419.955	18279.60714
2422.74378	18256.75
2425.5308	18293.89286
2428.31606	18287.89286
2431.09956	18249.03571
2433.88131	18258.89286
2436.6613	18254.89286
2439.43954	18252.60714
2442.21603	18227.60714
2444.99077	18256.89286
2447.76377	18259.32143
2450.53501	18266.17857
2453.30451	18240.46429
2456.07226	18211.60714
2458.83827	18228.75
2461.60254	18226.89286
2464.36507	18195.60714
2467.12586	18215.60714
2469.88492	18190.03571
2472.64224	18238.60714
2475.39782	18229.03571
2478.15167	18240.17857
2480.90379	18253.32143
2483.65417	18244.32143
2486.40283	18277.60714
2489.14976	18285.89286
2491.89497	18286.32143
2494.63845	18302.75
2497.3802	18298.60714
2500.12024	18310.46429
2502.85855	18279.03571
2505.59514	18207.32143
2508.33002	18184.17857
2511.06318	18110.32143
2513.79462	18137.17857
2516.52435	18068.75
2519.25237	18063.03571
2521.97867	18048.17857
2524.70327	18052.46429
2527.42616	17997.32143
2530.14734	18018.03571
2532.86681	18008.75
2535.58458	18023.46429
2538.30065	18015.03571
2541.01501	18016.46429
2543.72768	18034.60714
2546.43864	17967.89286
2549.14791	17956.17857
2551.85548	17927.17857
2554.56136	17924.03571
2557.26554	17924.03571
2559.96803	17903.46429
2562.66883	17886.89286
2565.36794	17878.32143
2568.06536	17842.60714
2570.7611	17824.32143
2573.45514	17810.32143
2576.14751	17799.03571
2578.83819	17775.89286
2581.52719	17775.03571
2584.21451	17713.03571
2586.90015	17735.89286
2589.58411	17730.17857
2592.2664	17721.03571
2594.94701	17688.46429
2597.62594	17635.32143
2600.30321	17666.03571
2602.9788	17618.75
2605.65273	17619.17857
2608.32498	17620.32143
2610.99557	17586.60714
2613.66449	17629.60714
2616.33175	17586.17857
2618.99734	17613.17857
2621.66128	17579.03571
2624.32355	17546.89286
2626.98416	17517.89286
2629.64311	17566.89286
2632.30041	17505.60714
2634.95605	17454.17857
2637.61004	17447.17857
2640.26238	17398.17857
2642.91306	17442.17857
2645.56209	17436.75
2648.20948	17415.17857
2650.85521	17405.89286
2653.4993	17406.32143
2656.14175	17444.46429
2658.78255	17473.60714
2661.42171	17424.89286
2664.05923	17481.17857
2666.6951	17465.17857
2669.32934	17524.75
2671.96194	17503.75
2674.59291	17489.17857
2677.22224	17454.89286
2679.84993	17453.03571
2682.476	17454.46429
2685.10043	17424.75
2687.72324	17406.60714
2690.34441	17472.46429
2692.96396	17457.46429
2695.58188	17504.89286
2698.19818	17436.89286
2700.81285	17438.75
2703.4259	17421.75
2706.03733	17459.32143
2708.64714	17457.46429
2711.25533	17498.32143
2713.86191	17466.46429
2716.46687	17504.75
2719.07021	17496.89286
2721.67194	17543.17857
2724.27206	17549.46429
2726.87057	17563.60714
2729.46747	17586.17857
2732.06276	17519.46429
2734.65644	17534.89286
2737.24852	17562.89286
2739.83899	17512.89286
2742.42786	17554.89286
2745.01513	17512.17857
2747.60079	17498.03571
2750.18486	17439.17857
2752.76733	17454.17857
2755.3482	17427.46429
2757.92747	17446.46429
2760.50515	17447.60714
2763.08123	17419.60714
2765.65573	17406.89286
2768.22863	17404.46429
2770.79994	17382.60714
2773.36967	17349.89286
2775.9378	17353.75
2778.50435	17322.03571
2781.06932	17361.89286
2783.6327	17365.32143
2786.1945	17323.75
2788.75471	17233.17857
2791.31335	17275.03571
2793.87041	17263.46429
2796.42589	17205.75
2798.97979	17257.75
2801.53212	17198.89286
2804.08288	17217.03571
2806.63206	17157.60714
2809.17967	17123.03571
2811.72571	17065.03571
2814.27018	17098.17857
2816.81308	17045.03571
2819.35442	17004.03571
2821.89419	16970.60714
2824.43239	17011.32143
2826.96904	16988.17857
2829.50412	17004.89286
2832.03763	16949.46429
2834.56959	17005.46429
2837.1	16967.75
2839.62884	16996.75
2842.15613	17027.75
2844.68186	17004.32143
2847.20604	16967.75
2849.72867	16981.89286
2852.24974	16977.89286
2854.76927	16978.17857
2857.28724	16951.75
2859.80367	16958.46429
2862.31855	16936.89286
2864.83189	16925.75
2867.34368	16903.60714
2869.85393	16917.46429
2872.36264	16869.32143
2874.8698	16899.75
2877.37543	16882.32143
2879.87952	16844.89286
2882.38207	16874.60714
2884.88308	16896.03571
2887.38256	16920.32143
2889.88051	16937.46429
2892.37692	16918.32143
2894.8718	16907.32143
2897.36515	16970.46429
2899.85698	16914.75
2902.34727	16943.75
2904.83604	16938.17857
2907.32328	16984.03571
2909.809	16971.75
2912.29319	17023.60714
2914.77587	17010.60714
2917.25702	17011.89286
2919.73665	16986.46429
2922.21476	17004.46429
2924.69136	17014.75
2927.16644	16997.03571
2929.64	16983.60714
2932.11205	16959.60714
2934.58258	16896.32143
2937.05161	16940.60714
2939.51912	16918.60714
2941.98513	16897.75
2944.44962	16888.89286
2946.91261	16840.32143
2949.37409	16884.46429
2951.83407	16879.32143
2954.29254	16826.17857
2956.74951	16844.89286
2959.20498	16853.75
2961.65895	16841.46429
2964.11142	16820.89286
2966.56239	16776.60714
2969.01186	16791.32143
2971.45984	16764.60714
2973.90632	16761.17857
2976.35131	16744.60714
2978.7948	16715.89286
2981.23681	16695.75
2983.67732	16675.17857
2986.11635	16643.32143
2988.55388	16622.03571
2990.98993	16625.89286
2993.4245	16585.32143
2995.85758	16528.03571
2998.28917	16542.32143
3000.71928	16493.60714
3003.14791	16449.89286
3005.57506	16437.17857
3008.00073	16425.60714
3010.42493	16425.75
3012.84764	16380.89286
3015.26888	16385.46429
3017.68865	16370.89286
3020.10694	16306.32143
3022.52376	16276.89286
3024.9391	16269.60714
3027.35298	16266.75
3029.76539	16275.17857
3032.17632	16291.75
3034.5858	16259.17857
3036.9938	16219.75
3039.40034	16213.75
3041.80542	16211.60714
3044.20903	16180.17857
3046.61118	16169.32143
3049.01187	16152.32143
3051.4111	16134.03571
3053.80888	16096.75
3056.20519	16090.60714
3058.60005	16033.46429
3060.99345	16043.75
3063.3854	15984.60714
3065.7759	15938.60714
3068.16494	15940.89286
3070.55254	15921.32143
3072.93868	15895.60714
3075.32338	15895.60714
3077.70662	15870.17857
3080.08842	15830.89286
3082.46878	15821.46429
3084.84769	15792.17857
3087.22515	15773.89286
3089.60118	15818.17857
3091.97576	15819.46429
3094.3489	15845.17857
3096.72061	15829.75
3099.09087	15829.75
3101.4597	15831.03571
3103.82709	15801.32143
3106.19305	15796.32143
3108.55757	15809.60714
3110.92066	15819.17857
3113.28232	15778.03571
3115.64255	15755.03571
3118.00134	15704.03571
3120.35871	15680.46429
3122.71466	15680.89286
3125.06917	15651.89286
3127.42226	15603.89286
3129.77393	15672.75
3132.12417	15643.17857
3134.47299	15646.03571
3136.82039	15589.60714
3139.16636	15612.17857
3141.51092	15620.60714
3143.85406	15619.89286
3146.19579	15613.46429
3148.53609	15589.32143
3150.87499	15644.89286
3153.21246	15627.03571
3155.54853	15688.17857
3157.88318	15653.03571
3160.21642	15711.75
3162.54826	15710.32143
3164.87868	15746.75
3167.2077	15744.03571
3169.5353	15735.03571
3171.86151	15754.17857
3174.18631	15745.46429
3176.5097	15734.17857
3178.83169	15719.60714
3181.15228	15713.46429
3183.47147	15673.60714
3185.78926	15623.75
3188.10565	15607.75
3190.42065	15635.60714
3192.73424	15634.46429
3195.04645	15636.32143
3197.35725	15604.03571
3199.66667	15607.32143
3201.97469	15626.89286
3204.28132	15614.46429
3206.58656	15653.17857
3208.8904	15688.46429
3211.19287	15671.46429
3213.49394	15705.17857
3215.79363	15660.17857
3218.09193	15702.32143
3220.38884	15690.17857
3222.68438	15747.75
3224.97853	15742.89286
3227.2713	15707.89286
3229.56269	15763.17857
3231.8527	15718.89286
3234.14133	15664.17857
3236.42858	15639.03571
3238.71446	15567.46429
3240.99896	15574.75
3243.28209	15560.46429
3245.56384	15520.32143
3247.84423	15539.32143
3250.12324	15525.46429
3252.40088	15522.60714
3254.67715	15515.75
3256.95205	15477.60714
3259.22558	15505.32143
3261.49775	15490.32143
3263.76855	15475.32143
3266.03799	15516.32143
3268.30606	15450.17857
3270.57277	15449.75
3272.83812	15444.17857
3275.10211	15407.17857
3277.36474	15372.03571
3279.62601	15372.03571
3281.88593	15378.75
3284.14448	15379.03571
3286.40168	15405.32143
3288.65753	15394.75
3290.91202	15387.32143
3293.16516	15338.03571
3295.41695	15339.60714
3297.66738	15284.17857
3299.91647	15197.03571
3302.16421	15069.60714
3304.4106	15017.75
3306.65564	14948.32143
3308.89933	14836.89286
3311.14169	14757.46429
3313.38269	14654.32143
3315.62236	14550.60714
3317.86068	14430.46429
3320.09766	14346.32143
3322.3333	14285.32143
3324.5676	14217.17857
3326.80056	13993.32143
3329.03219	13925.89286
3331.26248	3.32143
3333.49143	0.60714
3335.71905	-0.39286
