Data from AgNPs_FTO_APTES_UA_20uM_CRN_5uM_R6G_10uM_NaF_0.1M_Addition_RamanShift__0__13-31-52-128.txt Node

Date: Thu Feb 17 13:31:52 GMT 2022
User: TCL
Spectrometer: QEP01345
Trigger mode: 4
Integration Time (sec): 7.000000E0
Scans to average: 10
Electric dark correction enabled: true
Nonlinearity correction enabled: false
Boxcar width: 0
XAxis mode: Raman Shifts
Number of Pixels in Spectrum: 1044
>>>>>Begin Spectral Data<<<<<
46.04893	0.1375
50.45542	-1.1625
54.85868	-4.7625
59.25871	-1.3625
63.6555	134.1375
68.04907	133.4375
72.43941	144.9375
76.82654	144.3375
81.21044	147.9375
85.59113	155.9375
89.96862	157.7375
94.34289	159.7375
98.71396	164.7375
103.08183	167.9375
107.4465	174.8375
111.80798	177.0375
116.16626	185.8375
120.52136	197.5375
124.87327	207.6375
129.222	216.1375
133.56755	234.3375
137.90993	253.8375
142.24913	282.7375
146.58517	315.8375
150.91804	379.1375
155.24774	451.1375
159.57429	573.7375
163.89768	736.7375
168.21792	988.3375
172.53501	1361.1375
176.84895	1907.1375
181.15975	2696.8375
185.46741	3816.7375
189.77193	5267.9375
194.07331	7094.9375
198.37157	9177.3375
202.6667	11378.0375
206.9587	13580.3375
211.24758	15708.1375
215.53334	17803.5375
219.81599	20046.9375
224.09553	22476.3375
228.37195	25195.9375
232.64527	28159.7375
236.91549	31348.2375
241.18261	34566.2375
245.44663	37709.9375
249.70755	40452.2375
253.96539	42907.6375
258.22014	44998.3375
262.4718	46627.7375
266.72039	47756.1375
270.96589	48451.3375
275.20832	48561.1375
279.44768	48311.8375
283.68397	47896.3375
287.91719	47435.8375
292.14735	47152.3375
296.37445	47058.8375
300.59849	47136.9375
304.81948	47373.8375
309.03742	47567.7375
313.25231	47514.1375
317.46415	47068.6375
321.67296	46479.5375
325.87872	45965.1375
330.08145	45724.2375
334.28114	45803.2375
338.47781	46132.4375
342.67145	46710.4375
346.86207	47395.4375
351.04966	48192.1375
355.23424	48959.7375
359.4158	49587.1375
363.59435	50053.1375
367.76989	50480.3375
371.94243	50708.3375
376.11196	51018.3375
380.27849	51286.9375
384.44203	51580.9375
388.60257	52007.1375
392.76012	52487.5375
396.91468	53072.9375
401.06626	53803.0375
405.21485	54222.6375
409.36047	54169.3375
413.50311	53724.8375
417.64277	53467.9375
421.77947	53556.3375
425.9132	53832.7375
430.04396	54147.2375
434.17176	54437.7375
438.2966	54939.7375
442.41849	55649.6375
446.53742	56770.6375
450.6534	57954.0375
454.76644	58866.3375
458.87653	59190.1375
462.98368	59086.6375
467.08789	58665.6375
471.18916	58102.1375
475.2875	57477.3375
479.38291	57101.8375
483.4754	56771.6375
487.56496	56455.0375
491.6516	56081.1375
495.73531	55653.4375
499.81612	55360.7375
503.89401	55544.8375
507.96899	55812.6375
512.04106	55780.3375
516.11023	55773.6375
520.1765	55600.4375
524.23987	55552.8375
528.30034	55431.6375
532.35792	55218.6375
536.41261	54897.8375
540.46441	54528.5375
544.51333	54535.0375
548.55936	54922.9375
552.60252	55756.4375
556.64279	56728.9375
560.6802	57371.1375
564.71473	57812.9375
568.7464	58430.5375
572.7752	59650.4375
576.80114	60969.5375
580.82422	62350.3375
584.84444	63779.9375
588.86181	65623.4375
592.87633	67463.0375
596.888	67534.2375
600.89682	65842.1375
604.9028	65392.8375
608.90594	67887.4375
612.90624	70822.0375
616.90371	67625.4375
620.89834	60647.0375
624.89015	57617.9375
628.87913	57354.6375
632.86528	57690.8375
636.84862	57830.3375
640.82913	57262.0375
644.80683	56324.9375
648.78172	55719.9375
652.75379	55710.9375
656.72306	56264.2375
660.68952	56984.7375
664.65319	56861.2375
668.61405	56243.8375
672.57211	56239.0375
676.52738	56521.1375
680.47986	56457.3375
684.42955	56242.5375
688.37646	56208.4375
692.32058	56486.4375
696.26192	57075.6375
700.20048	57718.4375
704.13626	58092.1375
708.06928	58231.9375
711.99952	58016.1375
715.927	57997.0375
719.85171	58084.1375
723.77365	57924.7375
727.69284	57495.0375
731.60928	56964.7375
735.52295	56792.8375
739.43388	56846.5375
743.34206	57094.9375
747.24749	57347.5375
751.15017	57703.7375
755.05012	58318.5375
758.94733	59376.5375
762.8418	61209.1375
766.73354	64224.1375
770.62254	66943.7375
774.50882	67311.6375
778.39237	65314.6375
782.27321	62464.9375
786.15132	60046.7375
790.02671	58516.2375
793.89938	57684.5375
797.76935	57321.8375
801.6366	57136.4375
805.50115	56948.0375
809.36299	56892.7375
813.22213	56707.2375
817.07857	56682.7375
820.93231	56654.4375
824.78336	56608.4375
828.63172	56497.1375
832.47738	56480.9375
836.32036	56460.7375
840.16066	56585.3375
843.99827	56657.8375
847.8332	56761.9375
851.66546	56848.7375
855.49504	56961.8375
859.32195	56984.9375
863.1462	56988.2375
866.96777	56977.2375
870.78668	56934.2375
874.60293	57050.1375
878.41652	57093.6375
882.22745	57246.4375
886.03573	57295.0375
889.84136	57324.3375
893.64433	57105.4375
897.44466	56954.7375
901.24235	56862.7375
905.0374	56764.6375
908.8298	56721.9375
912.61957	56859.7375
916.40671	57172.2375
920.19121	57649.1375
923.97308	58055.9375
927.75233	58066.6375
931.52895	57715.5375
935.30295	57239.2375
939.07433	56594.0375
942.84309	56198.7375
946.60924	55950.7375
950.37278	55988.9375
954.13371	56041.2375
957.89203	56049.3375
961.64774	55942.3375
965.40086	55948.1375
969.15137	55910.8375
972.89929	55871.2375
976.64461	55820.0375
980.38733	55817.6375
984.12747	55942.6375
987.86502	56247.7375
991.59999	56532.8375
995.33237	56926.4375
999.06217	57575.6375
1002.78939	58425.2375
1006.51404	59380.9375
1010.23611	60232.3375
1013.95561	60772.1375
1017.67255	60875.3375
1021.38692	60504.6375
1025.09872	59744.5375
1028.80796	59221.0375
1032.51465	59142.1375
1036.21877	59454.0375
1039.92035	59482.5375
1043.61937	59551.0375
1047.31584	59458.3375
1051.00976	59290.3375
1054.70114	59384.6375
1058.38998	59612.3375
1062.07627	59959.4375
1065.76003	60519.3375
1069.44126	61263.5375
1073.11995	62076.2375
1076.79611	62798.8375
1080.46974	63178.1375
1084.14085	63525.4375
1087.80943	63910.4375
1091.47549	64256.4375
1095.13903	64295.5375
1098.80005	63786.4375
1102.45857	62950.7375
1106.11456	62129.0375
1109.76805	61715.5375
1113.41903	61692.6375
1117.06751	61828.9375
1120.71348	62232.4375
1124.35696	62610.7375
1127.99793	63016.8375
1131.63641	63082.5375
1135.2724	62925.0375
1138.90589	62840.8375
1142.5369	62869.8375
1146.16542	63080.8375
1149.79145	63450.7375
1153.415	63699.6375
1157.03607	64093.5375
1160.65467	64964.1375
1164.27079	66531.1375
1167.88443	68651.5375
1171.49561	71070.8375
1175.10432	74171.1375
1178.71056	77984.9375
1182.31434	81581.9375
1185.91565	83324.4375
1189.51451	83180.7375
1193.11091	81926.6375
1196.70485	80224.7375
1200.29634	78421.4375
1203.88538	77027.8375
1207.47197	76216.5375
1211.05612	75493.4375
1214.63782	74478.2375
1218.21708	73225.5375
1221.79391	71892.6375
1225.36829	71179.2375
1228.94024	70667.7375
1232.50976	70034.0375
1236.07685	69344.3375
1239.6415	68877.1375
1243.20374	68867.9375
1246.76355	69295.3375
1250.32093	70060.8375
1253.8759	70983.1375
1257.42845	72353.5375
1260.97859	73833.3375
1264.52631	75289.8375
1268.07163	76767.8375
1271.61453	78137.4375
1275.15503	79345.8375
1278.69312	80677.1375
1282.22882	82157.9375
1285.76211	84035.1375
1289.29301	86315.1375
1292.82151	88961.9375
1296.34761	92105.9375
1299.87133	95799.2375
1303.39266	99834.5375
1306.9116	103710.4375
1310.42815	106820.2375
1313.94233	108340.9375
1317.45412	107608.7375
1320.96354	105565.2375
1324.47058	103787.7375
1327.97525	102323.7375
1331.47754	101194.5375
1334.97747	100579.7375
1338.47502	100307.2375
1341.97022	100283.2375
1345.46305	100233.8375
1348.95352	100411.6375
1352.44163	100686.3375
1355.92738	102134.3375
1359.41078	104864.1375
1362.89183	107186.2375
1366.37053	105676.7375
1369.84688	99457.6375
1373.32088	91395.0375
1376.79254	85782.9375
1380.26186	83586.4375
1383.72883	83222.7375
1387.19347	83186.2375
1390.65578	82566.5375
1394.11575	82022.1375
1397.57339	81978.0375
1401.0287	82236.8375
1404.48168	82574.7375
1407.93234	82174.9375
1411.38068	81339.2375
1414.82669	79902.0375
1418.27039	78098.2375
1421.71177	76183.2375
1425.15083	74759.4375
1428.58758	74154.8375
1432.02203	74686.8375
1435.45416	75965.3375
1438.88399	77414.5375
1442.31151	78509.2375
1445.73673	79132.8375
1449.15965	79442.0375
1452.58027	79528.3375
1455.9986	79439.9375
1459.41463	79762.2375
1462.82837	80641.0375
1466.23982	81827.3375
1469.64898	83035.8375
1473.05586	83878.2375
1476.46045	84339.2375
1479.86276	84175.6375
1483.26279	83833.3375
1486.66054	83679.1375
1490.05602	84143.7375
1493.44922	84962.3375
1496.84016	86115.5375
1500.22882	87657.3375
1503.61521	89989.9375
1506.99934	92611.8375
1510.38121	94218.5375
1513.76081	93965.8375
1517.13816	91929.9375
1520.51324	89373.8375
1523.88607	87620.3375
1527.25665	87159.0375
1530.62498	87281.0375
1533.99105	87175.7375
1537.35488	86412.1375
1540.71647	84992.1375
1544.07581	83494.5375
1547.4329	82010.9375
1550.78776	80494.1375
1554.14038	79526.4375
1557.49077	78959.3375
1560.83892	78609.4375
1564.18484	78534.6375
1567.52853	78819.8375
1570.86999	79372.2375
1574.20922	80177.5375
1577.54624	80745.1375
1580.88103	80534.1375
1584.2136	80626.3375
1587.54395	81876.8375
1590.87208	84610.3375
1594.19801	88300.9375
1597.52172	91947.2375
1600.84321	93085.4375
1604.16251	90467.8375
1607.47959	85805.5375
1610.79447	80657.3375
1614.10715	76023.0375
1617.41763	72173.3375
1620.7259	69406.0375
1624.03199	67947.5375
1627.33587	67848.1375
1630.63757	68897.6375
1633.93707	71643.4375
1637.23439	76327.5375
1640.52951	83609.5375
1643.82246	92275.2375
1647.11321	99223.4375
1650.40179	100551.2375
1653.68819	95022.6375
1656.97241	85503.0375
1660.25446	76360.0375
1663.53433	69528.3375
1666.81203	65089.5375
1670.08756	62404.7375
1673.36092	60662.0375
1676.63211	59488.1375
1679.90115	58687.7375
1683.16801	57948.4375
1686.43272	57526.0375
1689.69527	57170.8375
1692.95567	56891.9375
1696.2139	56772.6375
1699.46999	56720.6375
1702.72392	56572.6375
1705.97571	56481.9375
1709.22535	56415.0375
1712.47284	56356.0375
1715.71819	56352.6375
1718.96139	56331.8375
1722.20246	56205.5375
1725.44139	56083.6375
1728.67818	55850.9375
1731.91284	55591.0375
1735.14537	55327.9375
1738.37576	55248.5375
1741.60403	55077.8375
1744.83017	54932.9375
1748.05418	54761.1375
1751.27607	54678.5375
1754.49584	54650.5375
1757.71349	54715.7375
1760.92903	54712.0375
1764.14244	54583.1375
1767.35375	54556.5375
1770.56294	54484.6375
1773.77002	54454.8375
1776.97499	54409.2375
1780.17785	54300.4375
1783.37861	54246.7375
1786.57727	54208.8375
1789.77382	54047.1375
1792.96828	54086.1375
1796.16064	54028.2375
1799.3509	53918.0375
1802.53907	53889.6375
1805.72514	53724.9375
1808.90913	53632.8375
1812.09102	53557.4375
1815.27083	53429.7375
1818.44856	53404.7375
1821.6242	53319.6375
1824.79776	53264.2375
1827.96924	53265.7375
1831.13864	53225.9375
1834.30597	53211.0375
1837.47122	53197.6375
1840.6344	53127.6375
1843.7955	53110.7375
1846.95454	53092.3375
1850.11151	53118.1375
1853.26642	53094.2375
1856.41926	53006.9375
1859.57004	52980.1375
1862.71876	52941.2375
1865.86542	52835.3375
1869.01003	52820.9375
1872.15258	52735.5375
1875.29308	52703.5375
1878.43152	52665.9375
1881.56792	52601.0375
1884.70227	52660.7375
1887.83457	52652.4375
1890.96482	52642.8375
1894.09304	52532.0375
1897.21921	52505.1375
1900.34335	52380.1375
1903.46544	52347.7375
1906.58551	52365.6375
1909.70353	52308.1375
1912.81953	52267.3375
1915.93349	52218.0375
1919.04543	52035.1375
1922.15534	52025.1375
1925.26322	51981.4375
1928.36908	51891.7375
1931.47292	51833.1375
1934.57473	51701.3375
1937.67453	51593.0375
1940.77232	51470.2375
1943.86808	51343.0375
1946.96184	51270.2375
1950.05358	51180.1375
1953.14331	51025.7375
1956.23103	50870.6375
1959.31675	50766.4375
1962.40046	50637.6375
1965.48217	50427.8375
1968.56188	50325.4375
1971.63959	50142.5375
1974.7153	50047.1375
1977.78901	49888.5375
1980.86073	49768.9375
1983.93046	49651.6375
1986.99819	49483.6375
1990.06394	49396.8375
1993.1277	49312.9375
1996.18947	49147.0375
1999.24925	49027.2375
2002.30706	48919.1375
2005.36288	48772.0375
2008.41672	48625.4375
2011.46859	48498.2375
2014.51848	48379.3375
2017.56639	48190.8375
2020.61233	48118.1375
2023.6563	48030.2375
2026.6983	47902.9375
2029.73833	47768.9375
2032.7764	47724.5375
2035.8125	47666.3375
2038.84664	47603.3375
2041.87881	47504.5375
2044.90903	47442.3375
2047.93729	47438.3375
2050.96359	47401.2375
2053.98794	47254.9375
2057.01034	47278.0375
2060.03078	47314.1375
2063.04927	47230.0375
2066.06582	47209.4375
2069.08042	47211.5375
2072.09307	47124.1375
2075.10378	47077.4375
2078.11255	47098.2375
2081.11938	47068.0375
2084.12426	47063.0375
2087.12722	47109.8375
2090.12824	47038.7375
2093.12732	47104.9375
2096.12447	47092.6375
2099.11969	47032.1375
2102.11299	47023.6375
2105.10435	47062.2375
2108.09379	47117.7375
2111.08131	47143.2375
2114.0669	47112.4375
2117.05057	47161.3375
2120.03233	47257.9375
2123.01216	47347.2375
2125.99008	47422.1375
2128.96609	47489.7375
2131.94018	47525.9375
2134.91236	47512.0375
2137.88263	47556.1375
2140.851	47536.2375
2143.81746	47625.1375
2146.78201	47631.1375
2149.74466	47691.2375
2152.7054	47674.8375
2155.66425	47628.8375
2158.6212	47642.7375
2161.57625	47629.0375
2164.52941	47650.1375
2167.48067	47552.2375
2170.43004	47611.4375
2173.37752	47597.2375
2176.32311	47626.4375
2179.26681	47637.8375
2182.20863	47636.4375
2185.14856	47695.4375
2188.08661	47666.2375
2191.02278	47612.6375
2193.95707	47539.3375
2196.88948	47541.5375
2199.82001	47534.4375
2202.74867	47493.9375
2205.67545	47447.1375
2208.60037	47341.0375
2211.52341	47385.8375
2214.44458	47345.6375
2217.36388	47270.8375
2220.28132	47136.6375
2223.1969	47067.0375
2226.11061	46960.8375
2229.02246	46792.7375
2231.93245	46791.1375
2234.84058	46695.4375
2237.74686	46667.2375
2240.65128	46675.6375
2243.55385	46571.6375
2246.45456	46570.5375
2249.35343	46537.9375
2252.25044	46506.0375
2255.14561	46409.5375
2258.03893	46322.8375
2260.93041	46242.4375
2263.82004	46125.8375
2266.70783	46052.7375
2269.59378	45931.2375
2272.4779	45876.3375
2275.36017	45778.5375
2278.24061	45752.1375
2281.11922	45609.5375
2283.996	45529.3375
2286.87094	45544.4375
2289.74405	45551.8375
2292.61534	45484.2375
2295.4848	45365.6375
2298.35243	45448.5375
2301.21824	45331.7375
2304.08223	45353.1375
2306.94439	45325.0375
2309.80474	45379.4375
2312.66327	45385.4375
2315.51999	45213.6375
2318.37489	45215.4375
2321.22797	45159.9375
2324.07925	45143.7375
2326.92871	44985.9375
2329.77637	44951.2375
2332.62222	44911.6375
2335.46626	44907.5375
2338.3085	44809.2375
2341.14893	44793.2375
2343.98756	44710.5375
2346.8244	44770.6375
2349.65943	44762.9375
2352.49267	44718.7375
2355.32411	44691.6375
2358.15376	44696.8375
2360.98161	44656.1375
2363.80768	44636.3375
2366.63195	44642.7375
2369.45444	44610.6375
2372.27514	44518.6375
2375.09405	44482.5375
2377.91118	44417.1375
2380.72652	44314.1375
2383.54009	44233.6375
2386.35187	44189.4375
2389.16188	44021.8375
2391.97011	43904.3375
2394.77657	43909.8375
2397.58125	43820.2375
2400.38416	43797.4375
2403.18529	43717.8375
2405.98466	43687.5375
2408.78226	43628.7375
2411.57809	43575.7375
2414.37216	43561.2375
2417.16446	43505.7375
2419.955	43454.7375
2422.74378	43493.1375
2425.5308	43408.2375
2428.31606	43403.2375
2431.09956	43364.0375
2433.88131	43349.5375
2436.6613	43355.7375
2439.43954	43332.2375
2442.21603	43302.2375
2444.99077	43189.7375
2447.76377	43242.8375
2450.53501	43155.3375
2453.30451	43136.6375
2456.07226	43125.4375
2458.83827	43114.1375
2461.60254	43001.7375
2464.36507	43046.7375
2467.12586	43023.9375
2469.88492	42966.4375
2472.64224	43009.2375
2475.39782	42976.6375
2478.15167	42976.6375
2480.90379	42982.2375
2483.65417	43028.4375
2486.40283	43022.0375
2489.14976	42992.5375
2491.89497	42919.1375
2494.63845	42939.9375
2497.3802	42916.4375
2500.12024	42906.3375
2502.85855	42822.6375
2505.59514	42807.1375
2508.33002	42675.3375
2511.06318	42677.9375
2513.79462	42653.8375
2516.52435	42609.7375
2519.25237	42602.9375
2521.97867	42559.2375
2524.70327	42584.6375
2527.42616	42506.1375
2530.14734	42486.2375
2532.86681	42407.8375
2535.58458	42358.7375
2538.30065	42345.1375
2541.01501	42338.9375
2543.72768	42317.6375
2546.43864	42243.2375
2549.14791	42220.7375
2551.85548	42165.0375
2554.56136	42077.4375
2557.26554	41949.3375
2559.96803	41938.7375
2562.66883	41856.1375
2565.36794	41864.8375
2568.06536	41745.4375
2570.7611	41717.6375
2573.45514	41611.7375
2576.14751	41595.6375
2578.83819	41491.3375
2581.52719	41507.9375
2584.21451	41445.7375
2586.90015	41360.0375
2589.58411	41322.5375
2592.2664	41316.8375
2594.94701	41219.4375
2597.62594	41269.7375
2600.30321	41225.4375
2602.9788	41174.5375
2605.65273	41111.8375
2608.32498	41103.1375
2610.99557	41068.5375
2613.66449	41084.9375
2616.33175	40973.0375
2618.99734	40968.8375
2621.66128	40864.9375
2624.32355	40805.7375
2626.98416	40717.1375
2629.64311	40708.1375
2632.30041	40746.0375
2634.95605	40664.4375
2637.61004	40647.7375
2640.26238	40643.5375
2642.91306	40521.8375
2645.56209	40439.1375
2648.20948	40486.3375
2650.85521	40478.5375
2653.4993	40524.6375
2656.14175	40453.6375
2658.78255	40582.2375
2661.42171	40568.7375
2664.05923	40596.9375
2666.6951	40532.5375
2669.32934	40552.3375
2671.96194	40448.4375
2674.59291	40631.6375
2677.22224	40631.7375
2679.84993	40639.7375
2682.476	40556.3375
2685.10043	40524.3375
2687.72324	40441.6375
2690.34441	40477.1375
2692.96396	40446.7375
2695.58188	40500.3375
2698.19818	40432.3375
2700.81285	40405.3375
2703.4259	40426.9375
2706.03733	40519.2375
2708.64714	40431.0375
2711.25533	40471.0375
2713.86191	40472.8375
2716.46687	40584.1375
2719.07021	40562.1375
2721.67194	40581.5375
2724.27206	40545.7375
2726.87057	40521.4375
2729.46747	40542.5375
2732.06276	40511.7375
2734.65644	40493.2375
2737.24852	40566.2375
2739.83899	40515.0375
2742.42786	40563.6375
2745.01513	40499.2375
2747.60079	40439.3375
2750.18486	40387.2375
2752.76733	40377.8375
2755.3482	40272.8375
2757.92747	40248.3375
2760.50515	40196.0375
2763.08123	40156.0375
2765.65573	40198.2375
2768.22863	40187.8375
2770.79994	40054.2375
2773.36967	40100.7375
2775.9378	40090.9375
2778.50435	40089.8375
2781.06932	40012.9375
2783.6327	39972.5375
2786.1945	39902.4375
2788.75471	39847.2375
2791.31335	39762.9375
2793.87041	39747.8375
2796.42589	39654.9375
2798.97979	39654.1375
2801.53212	39509.5375
2804.08288	39472.1375
2806.63206	39345.0375
2809.17967	39279.0375
2811.72571	39134.6375
2814.27018	39038.9375
2816.81308	38881.1375
2819.35442	38866.5375
2821.89419	38835.5375
2824.43239	38782.2375
2826.96904	38767.3375
2829.50412	38775.6375
2832.03763	38592.9375
2834.56959	38606.4375
2837.1	38527.9375
2839.62884	38484.5375
2842.15613	38423.8375
2844.68186	38436.8375
2847.20604	38369.8375
2849.72867	38370.7375
2852.24974	38321.1375
2854.76927	38295.3375
2857.28724	38219.9375
2859.80367	38244.7375
2862.31855	38154.3375
2864.83189	38096.9375
2867.34368	38024.4375
2869.85393	38063.1375
2872.36264	38021.3375
2874.8698	37960.5375
2877.37543	37917.0375
2879.87952	37890.4375
2882.38207	37863.6375
2884.88308	37787.0375
2887.38256	37881.6375
2889.88051	37803.9375
2892.37692	37871.4375
2894.8718	37852.1375
2897.36515	37909.8375
2899.85698	37908.1375
2902.34727	37924.8375
2904.83604	37934.3375
2907.32328	37975.6375
2909.809	37904.1375
2912.29319	37995.6375
2914.77587	37990.1375
2917.25702	38001.7375
2919.73665	37967.9375
2922.21476	37969.2375
2924.69136	37884.9375
2927.16644	37839.4375
2929.64	37848.3375
2932.11205	37781.1375
2934.58258	37709.3375
2937.05161	37798.3375
2939.51912	37787.6375
2941.98513	37773.1375
2944.44962	37724.1375
2946.91261	37640.4375
2949.37409	37749.5375
2951.83407	37635.5375
2954.29254	37631.0375
2956.74951	37597.6375
2959.20498	37623.0375
2961.65895	37566.9375
2964.11142	37612.0375
2966.56239	37561.9375
2969.01186	37574.8375
2971.45984	37441.6375
2973.90632	37373.9375
2976.35131	37364.0375
2978.7948	37281.8375
2981.23681	37222.3375
2983.67732	37179.9375
2986.11635	37078.9375
2988.55388	37017.8375
2990.98993	36994.6375
2993.4245	36977.1375
2995.85758	36827.8375
2998.28917	36718.0375
3000.71928	36672.1375
3003.14791	36543.2375
3005.57506	36589.5375
3008.00073	36447.7375
3010.42493	36430.5375
3012.84764	36354.2375
3015.26888	36289.1375
3017.68865	36229.9375
3020.10694	36181.3375
3022.52376	36134.2375
3024.9391	36065.7375
3027.35298	36076.7375
3029.76539	36056.3375
3032.17632	35992.3375
3034.5858	35937.6375
3036.9938	35888.5375
3039.40034	35871.4375
3041.80542	35860.5375
3044.20903	35727.8375
3046.61118	35716.1375
3049.01187	35605.5375
3051.4111	35485.2375
3053.80888	35415.4375
3056.20519	35415.2375
3058.60005	35362.4375
3060.99345	35249.2375
3063.3854	35205.9375
3065.7759	35036.4375
3068.16494	35008.5375
3070.55254	34880.2375
3072.93868	34793.1375
3075.32338	34644.4375
3077.70662	34610.4375
3080.08842	34510.4375
3082.46878	34461.7375
3084.84769	34481.6375
3087.22515	34420.2375
3089.60118	34411.6375
3091.97576	34360.2375
3094.3489	34311.4375
3096.72061	34363.5375
3099.09087	34379.3375
3101.4597	34305.2375
3103.82709	34305.1375
3106.19305	34267.1375
3108.55757	34263.4375
3110.92066	34137.6375
3113.28232	34161.3375
3115.64255	34061.7375
3118.00134	33934.2375
3120.35871	33794.6375
3122.71466	33756.7375
3125.06917	33725.6375
3127.42226	33658.3375
3129.77393	33665.1375
3132.12417	33535.5375
3134.47299	33546.2375
3136.82039	33499.5375
3139.16636	33459.3375
3141.51092	33429.6375
3143.85406	33434.5375
3146.19579	33410.8375
3148.53609	33430.0375
3150.87499	33467.2375
3153.21246	33451.5375
3155.54853	33522.8375
3157.88318	33481.1375
3160.21642	33463.0375
3162.54826	33463.7375
3164.87868	33387.0375
3167.2077	33331.4375
3169.5353	33300.6375
3171.86151	33266.2375
3174.18631	33290.9375
3176.5097	33242.2375
3178.83169	33171.0375
3181.15228	33124.5375
3183.47147	33049.6375
3185.78926	33071.0375
3188.10565	32989.7375
3190.42065	32938.1375
3192.73424	32899.1375
3195.04645	32810.0375
3197.35725	32782.4375
3199.66667	32719.3375
3201.97469	32769.5375
3204.28132	32704.1375
3206.58656	32723.1375
3208.8904	32656.1375
3211.19287	32677.5375
3213.49394	32732.5375
3215.79363	32716.3375
3218.09193	32743.7375
3220.38884	32720.2375
3222.68438	32721.8375
3224.97853	32638.5375
3227.2713	32558.0375
3229.56269	32569.1375
3231.8527	32584.3375
3234.14133	32508.7375
3236.42858	32450.2375
3238.71446	32350.0375
3240.99896	32325.0375
3243.28209	32297.7375
3245.56384	32278.2375
3247.84423	32163.8375
3250.12324	32176.6375
3252.40088	32075.4375
3254.67715	32098.0375
3256.95205	32057.0375
3259.22558	32062.3375
3261.49775	31967.8375
3263.76855	31962.0375
3266.03799	31849.1375
3268.30606	31834.1375
3270.57277	31739.6375
3272.83812	31723.4375
3275.10211	31634.1375
3277.36474	31611.7375
3279.62601	31562.7375
3281.88593	31536.1375
3284.14448	31547.7375
3286.40168	31571.1375
3288.65753	31503.8375
3290.91202	31481.5375
3293.16516	31380.3375
3295.41695	31375.3375
3297.66738	31157.0375
3299.91647	30979.6375
3302.16421	30827.6375
3304.4106	30651.9375
3306.65564	30429.6375
3308.89933	30195.3375
3311.14169	30070.8375
3313.38269	29842.3375
3315.62236	29680.6375
3317.86068	29437.1375
3320.09766	29149.6375
3322.3333	28952.6375
3324.5676	28852.9375
3326.80056	28396.2375
3329.03219	28233.1375
3331.26248	6.7375
3333.49143	0.3375
3335.71905	-0.1625
