Data from AgNPs_FTO_APTES_UA_20uM_CRN_10uM_R6G_10uM_NaF_0.1M_Addition_RamanShift__15__14-27-52-202.txt Node

Date: Thu Feb 17 14:27:52 GMT 2022
User: TCL
Spectrometer: QEP01345
Trigger mode: 4
Integration Time (sec): 7.000000E0
Scans to average: 10
Electric dark correction enabled: true
Nonlinearity correction enabled: false
Boxcar width: 0
XAxis mode: Raman Shifts
Number of Pixels in Spectrum: 1044
>>>>>Begin Spectral Data<<<<<
46.04893	-0.9
50.45542	-2.4
54.85868	-2.3
59.25871	-1.2
63.6555	137.3
68.04907	140.8
72.43941	147.9
76.82654	147.2
81.21044	155.3
85.59113	159.3
89.96862	163
94.34289	169.2
98.71396	170.1
103.08183	175.4
107.4465	184.7
111.80798	187.2
116.16626	193.9
120.52136	207.6
124.87327	211.1
129.222	230.9
133.56755	245.5
137.90993	260.5
142.24913	294.2
146.58517	333.9
150.91804	395.6
155.24774	474.3
159.57429	595.2
163.89768	771.1
168.21792	1030.9
172.53501	1416.6
176.84895	1997.3
181.15975	2845.2
185.46741	4029.3
189.77193	5576.3
194.07331	7500.2
198.37157	9740.7
202.6667	12080.5
206.9587	14420.6
211.24758	16645.6
215.53334	18902.6
219.81599	21215.4
224.09553	23801.5
228.37195	26553.7
232.64527	29678.5
236.91549	33023.6
241.18261	36493.4
245.44663	39857.7
249.70755	42980.9
253.96539	45777.7
258.22014	48185.2
262.4718	50054.9
266.72039	51459.7
270.96589	52139.8
275.20832	52359.6
279.44768	52120
283.68397	51699.6
287.91719	51253.7
292.14735	50856.6
296.37445	50670.1
300.59849	50520.3
304.81948	50487.4
309.03742	50475.4
313.25231	50146.2
317.46415	49634.2
321.67296	48973.8
325.87872	48547
330.08145	48331.8
334.28114	48521.8
338.47781	48957.3
342.67145	49505.5
346.86207	50203.6
351.04966	51001.9
355.23424	51740.4
359.4158	52448
363.59435	53049.8
367.76989	53579.1
371.94243	54035.9
376.11196	54441.2
380.27849	54737.5
384.44203	55075.8
388.60257	55467.1
392.76012	55903
396.91468	56480
401.06626	57080.5
405.21485	57515.9
409.36047	57604.1
413.50311	57300.4
417.64277	56874.6
421.77947	56825.5
425.9132	56975.7
430.04396	57243.2
434.17176	57518.8
438.2966	57902.9
442.41849	58500.9
446.53742	59231.5
450.6534	60173.4
454.76644	60972
458.87653	61349.5
462.98368	61512.6
467.08789	61359.6
471.18916	61118.5
475.2875	60788.5
479.38291	60506.7
483.4754	60208.6
487.56496	59935.2
491.6516	59719.9
495.73531	59515.8
499.81612	59462.6
503.89401	59748.7
507.96899	59995.1
512.04106	60013.9
516.11023	60031
520.1765	59961.7
524.23987	59960.1
528.30034	59795
532.35792	59611.4
536.41261	59390.9
540.46441	59249.4
544.51333	59237.1
548.55936	59618.9
552.60252	60215.8
556.64279	60875
560.6802	61410.9
564.71473	61613
568.7464	61926
572.7752	62479
576.80114	63049.8
580.82422	63781.9
584.84444	64547.7
588.86181	64991.2
592.87633	65202.8
596.888	65120
600.89682	65116.9
604.9028	66415.1
608.90594	69718.4
612.90624	73135.5
616.90371	70697.2
620.89834	64679.4
624.89015	61922.5
628.87913	61580.9
632.86528	61863.2
636.84862	62169.7
640.82913	61912.5
644.80683	61356.5
648.78172	60796.4
652.75379	60821.7
656.72306	61285
660.68952	61989.3
664.65319	62020.9
668.61405	61514.5
672.57211	61625.6
676.52738	61899.7
680.47986	61930.4
684.42955	61709.8
688.37646	61633.3
692.32058	61872
696.26192	62287.7
700.20048	62763
704.13626	63103.3
708.06928	63125
711.99952	63051.7
715.927	62842.5
719.85171	62913.8
723.77365	62956.1
727.69284	62728
731.60928	62316.6
735.52295	62160.8
739.43388	62185.9
743.34206	62376.6
747.24749	62582.9
751.15017	62770.8
755.05012	63172.7
758.94733	63930.2
762.8418	65369.1
766.73354	67786.6
770.62254	70282.4
774.50882	70975.7
778.39237	69616.6
782.27321	67266.7
786.15132	65168.6
790.02671	63802.3
793.89938	63100.6
797.76935	62722.7
801.6366	62559.8
805.50115	62463.4
809.36299	62344.6
813.22213	62218.7
817.07857	62090.2
820.93231	62185.8
824.78336	62209.7
828.63172	62242.6
832.47738	62188.7
836.32036	62278.2
840.16066	62330.4
843.99827	62303.4
847.8332	62406.1
851.66546	62458.9
855.49504	62547.1
859.32195	62622.1
863.1462	62704
866.96777	62809.7
870.78668	62823.6
874.60293	62855.4
878.41652	62940.2
882.22745	62958.1
886.03573	63124.7
889.84136	63097.9
893.64433	63027.5
897.44466	62822.7
901.24235	62778.8
905.0374	62735.2
908.8298	62650.1
912.61957	62662.7
916.40671	62849.8
920.19121	63144.9
923.97308	63248.2
927.75233	63260.2
931.52895	62959.3
935.30295	62765
939.07433	62413.7
942.84309	62101
946.60924	61886.7
950.37278	61867.4
954.13371	61880
957.89203	61907.5
961.64774	61890.8
965.40086	61776
969.15137	61755.8
972.89929	61622
976.64461	61578.8
980.38733	61536.2
984.12747	61666.2
987.86502	61840.7
991.59999	62181.8
995.33237	62426.2
999.06217	62836.3
1002.78939	63324.3
1006.51404	63859.3
1010.23611	64475.5
1013.95561	64864.2
1017.67255	64938.8
1021.38692	64761.8
1025.09872	64391.8
1028.80796	64052.6
1032.51465	63910
1036.21877	64003.3
1039.92035	64043.7
1043.61937	64138.7
1047.31584	64211.1
1051.00976	64261.3
1054.70114	64430.7
1058.38998	64700.8
1062.07627	65077.4
1065.76003	65473
1069.44126	66013.4
1073.11995	66612.4
1076.79611	67137
1080.46974	67518.4
1084.14085	67741.3
1087.80943	67933.6
1091.47549	68210.1
1095.13903	68189.2
1098.80005	67943.8
1102.45857	67435.6
1106.11456	67112.7
1109.76805	66760.3
1113.41903	66693.4
1117.06751	66758.3
1120.71348	66946.6
1124.35696	67284
1127.99793	67543.7
1131.63641	67602.1
1135.2724	67369.1
1138.90589	67106.7
1142.5369	67002.3
1146.16542	66908.6
1149.79145	67005
1153.415	67079.6
1157.03607	67349.5
1160.65467	67841.4
1164.27079	68929.1
1167.88443	70303.3
1171.49561	72045.5
1175.10432	74237.7
1178.71056	77011.3
1182.31434	79777.6
1185.91565	81454.5
1189.51451	81831.2
1193.11091	81316.5
1196.70485	79962.5
1200.29634	78436.6
1203.88538	77050.8
1207.47197	75955.1
1211.05612	74881.4
1214.63782	73832.3
1218.21708	72957.5
1221.79391	72326.5
1225.36829	71915.8
1228.94024	71482.4
1232.50976	71211.9
1236.07685	71031.1
1239.6415	70919.3
1243.20374	71003.1
1246.76355	71352.7
1250.32093	71801.5
1253.8759	72409.4
1257.42845	73345.5
1260.97859	74346.1
1264.52631	75279.6
1268.07163	76277.5
1271.61453	77126
1275.15503	77741.8
1278.69312	78447.9
1282.22882	79118.5
1285.76211	79776.4
1289.29301	80756.4
1292.82151	81950.8
1296.34761	83393.2
1299.87133	85259.3
1303.39266	87322.5
1306.9116	89753.1
1310.42815	92122.6
1313.94233	93614.8
1317.45412	93676.9
1320.96354	93139.8
1324.47058	92493.5
1327.97525	91630.8
1331.47754	91027.2
1334.97747	90827.4
1338.47502	91269.3
1341.97022	92109.3
1345.46305	93132.2
1348.95352	93976.5
1352.44163	94217.7
1355.92738	94647
1359.41078	95677.2
1362.89183	96621.8
1366.37053	95087.2
1369.84688	90377.9
1373.32088	84972.7
1376.79254	81167.5
1380.26186	79180.2
1383.72883	78463.1
1387.19347	78028.5
1390.65578	77296
1394.11575	76553.7
1397.57339	76116.7
1401.0287	76111.8
1404.48168	76336
1407.93234	76337.3
1411.38068	76154.2
1414.82669	75486.9
1418.27039	74577.4
1421.71177	73468.7
1425.15083	72588.2
1428.58758	72155.1
1432.02203	72235.3
1435.45416	72712.2
1438.88399	73419
1442.31151	74089.3
1445.73673	74444.4
1449.15965	74757.6
1452.58027	75018.3
1455.9986	75149.8
1459.41463	75455.5
1462.82837	76143.8
1466.23982	76995.7
1469.64898	77905.1
1473.05586	78660.3
1476.46045	79081.7
1479.86276	79210.7
1483.26279	79090.4
1486.66054	79061.1
1490.05602	79449.6
1493.44922	80236.2
1496.84016	81224
1500.22882	82935.1
1503.61521	85358.8
1506.99934	87881
1510.38121	89564.1
1513.76081	89475.8
1517.13816	87642.6
1520.51324	85046.2
1523.88607	82858
1527.25665	81649.8
1530.62498	81028.6
1533.99105	80746.7
1537.35488	80190.4
1540.71647	79523.8
1544.07581	78846.9
1547.4329	78221.1
1550.78776	77474.4
1554.14038	77133.2
1557.49077	76935.6
1560.83892	76851.7
1564.18484	76971.8
1567.52853	77166.4
1570.86999	77602.1
1574.20922	78011
1577.54624	78073.2
1580.88103	77491.6
1584.2136	76929.1
1587.54395	76957.9
1590.87208	78082.6
1594.19801	80029.3
1597.52172	82148
1600.84321	83084.9
1604.16251	82023
1607.47959	80056.8
1610.79447	77598.5
1614.10715	74958
1617.41763	72316.7
1620.7259	70198.8
1624.03199	68924
1627.33587	68371.8
1630.63757	68818
1633.93707	70134.5
1637.23439	72807.2
1640.52951	76729
1643.82246	81472.7
1647.11321	85492.5
1650.40179	86768.1
1653.68819	84420.6
1656.97241	79089.5
1660.25446	73597.9
1663.53433	69287.1
1666.81203	66456.1
1670.08756	64480.7
1673.36092	63273.3
1676.63211	62362.7
1679.90115	61766.8
1683.16801	61210.4
1686.43272	60878.3
1689.69527	60603.9
1692.95567	60430.3
1696.2139	60271.8
1699.46999	60209
1702.72392	60150.3
1705.97571	60111.8
1709.22535	60034.8
1712.47284	60073.5
1715.71819	60036
1718.96139	60028.6
1722.20246	59928.7
1725.44139	59724.3
1728.67818	59570.5
1731.91284	59373.1
1735.14537	59165.2
1738.37576	59062.1
1741.60403	58868.7
1744.83017	58670.3
1748.05418	58604.1
1751.27607	58490.6
1754.49584	58461.8
1757.71349	58531.5
1760.92903	58488.3
1764.14244	58422.3
1767.35375	58289.8
1770.56294	58296.7
1773.77002	58241.1
1776.97499	58230.9
1780.17785	58158.5
1783.37861	58046.9
1786.57727	57923.3
1789.77382	57834.5
1792.96828	57844.6
1796.16064	57776.6
1799.3509	57750.4
1802.53907	57654.3
1805.72514	57536.3
1808.90913	57443.9
1812.09102	57256
1815.27083	57198.4
1818.44856	57156.5
1821.6242	57069.5
1824.79776	57061.2
1827.96924	56998.7
1831.13864	56975.8
1834.30597	56979.7
1837.47122	56861.6
1840.6344	56715.4
1843.7955	56736.3
1846.95454	56744.4
1850.11151	56750.7
1853.26642	56687.3
1856.41926	56629.5
1859.57004	56648.1
1862.71876	56497.5
1865.86542	56488.7
1869.01003	56436.2
1872.15258	56374.1
1875.29308	56266.5
1878.43152	56137.2
1881.56792	56176.8
1884.70227	56191.5
1887.83457	56117.5
1890.96482	56078.4
1894.09304	56012.5
1897.21921	55905.9
1900.34335	55805.8
1903.46544	55749
1906.58551	55704.8
1909.70353	55659.6
1912.81953	55589
1915.93349	55565.7
1919.04543	55402.4
1922.15534	55383
1925.26322	55333.6
1928.36908	55153.3
1931.47292	55151.8
1934.57473	54989.1
1937.67453	54927.3
1940.77232	54848.7
1943.86808	54653.6
1946.96184	54593.5
1950.05358	54371.4
1953.14331	54311.2
1956.23103	54160.4
1959.31675	54009.6
1962.40046	53832.1
1965.48217	53639.9
1968.56188	53534.7
1971.63959	53320.9
1974.7153	53191.2
1977.78901	53035
1980.86073	52946.5
1983.93046	52809.6
1986.99819	52626.3
1990.06394	52506.9
1993.1277	52395.5
1996.18947	52186.3
1999.24925	52146.1
2002.30706	51956.8
2005.36288	51847.1
2008.41672	51660.9
2011.46859	51502.7
2014.51848	51413.3
2017.56639	51259.3
2020.61233	51115.3
2023.6563	51016.9
2026.6983	50782.5
2029.73833	50687.3
2032.7764	50581.7
2035.8125	50505.3
2038.84664	50363.5
2041.87881	50359.9
2044.90903	50251
2047.93729	50173.4
2050.96359	50115.6
2053.98794	50092.3
2057.01034	50048.2
2060.03078	49997.1
2063.04927	49981.2
2066.06582	49923.1
2069.08042	49821.6
2072.09307	49851.7
2075.10378	49791.8
2078.11255	49743.2
2081.11938	49772.8
2084.12426	49803.2
2087.12722	49809.7
2090.12824	49748.7
2093.12732	49795.9
2096.12447	49811.2
2099.11969	49750.7
2102.11299	49740.3
2105.10435	49735.2
2108.09379	49841.8
2111.08131	49845.2
2114.0669	49798.3
2117.05057	49865.2
2120.03233	49932.1
2123.01216	50006.7
2125.99008	50080.6
2128.96609	50121
2131.94018	50077.6
2134.91236	50181.9
2137.88263	50259.8
2140.851	50246
2143.81746	50300.7
2146.78201	50345.3
2149.74466	50328.8
2152.7054	50341.8
2155.66425	50305.8
2158.6212	50316
2161.57625	50276.4
2164.52941	50318.3
2167.48067	50258.9
2170.43004	50188.3
2173.37752	50214.4
2176.32311	50166.4
2179.26681	50255.9
2182.20863	50193.9
2185.14856	50276.3
2188.08661	50264.1
2191.02278	50168.6
2193.95707	50147.7
2196.88948	50114.8
2199.82001	50104.4
2202.74867	49923
2205.67545	49926.6
2208.60037	49815.4
2211.52341	49781.4
2214.44458	49781
2217.36388	49668.5
2220.28132	49551
2223.1969	49427.6
2226.11061	49311.5
2229.02246	49164.4
2231.93245	49140.6
2234.84058	49058.7
2237.74686	49025.5
2240.65128	48952.7
2243.55385	48842.5
2246.45456	48895.5
2249.35343	48815.9
2252.25044	48869.9
2255.14561	48718.3
2258.03893	48642.8
2260.93041	48518.8
2263.82004	48445.3
2266.70783	48316.2
2269.59378	48183.6
2272.4779	48155.9
2275.36017	48108
2278.24061	48066.8
2281.11922	47903.4
2283.996	47791.6
2286.87094	47749
2289.74405	47769.6
2292.61534	47612.4
2295.4848	47501.9
2298.35243	47573.5
2301.21824	47501.2
2304.08223	47457.6
2306.94439	47398.7
2309.80474	47405.4
2312.66327	47408.2
2315.51999	47330.9
2318.37489	47237.9
2321.22797	47205.1
2324.07925	47186.8
2326.92871	47047.1
2329.77637	46966.5
2332.62222	46849.5
2335.46626	46799.7
2338.3085	46767.5
2341.14893	46685.7
2343.98756	46611.8
2346.8244	46619.8
2349.65943	46535
2352.49267	46520.6
2355.32411	46518.1
2358.15376	46531.5
2360.98161	46479.6
2363.80768	46490.1
2366.63195	46426.4
2369.45444	46348.3
2372.27514	46303.9
2375.09405	46300
2377.91118	46224.9
2380.72652	46058.8
2383.54009	45960.2
2386.35187	45932.4
2389.16188	45786.2
2391.97011	45693.3
2394.77657	45588.2
2397.58125	45530.6
2400.38416	45476.9
2403.18529	45380.7
2405.98466	45406.2
2408.78226	45247.8
2411.57809	45210.7
2414.37216	45144.1
2417.16446	45137.8
2419.955	45031.1
2422.74378	44998.8
2425.5308	44972.8
2428.31606	44981
2431.09956	44915.2
2433.88131	44854.8
2436.6613	44914.5
2439.43954	44847.8
2442.21603	44784.9
2444.99077	44725.2
2447.76377	44702.1
2450.53501	44568.6
2453.30451	44627
2456.07226	44509.7
2458.83827	44486.9
2461.60254	44388.3
2464.36507	44410.4
2467.12586	44375.6
2469.88492	44333.8
2472.64224	44302.3
2475.39782	44237.3
2478.15167	44313.7
2480.90379	44210
2483.65417	44290.4
2486.40283	44206.9
2489.14976	44154.6
2491.89497	44064.8
2494.63845	44125.3
2497.3802	44067.5
2500.12024	43995.2
2502.85855	44020.3
2505.59514	43887.2
2508.33002	43865.4
2511.06318	43773.5
2513.79462	43753.7
2516.52435	43669.7
2519.25237	43608.5
2521.97867	43594.1
2524.70327	43593.8
2527.42616	43567.9
2530.14734	43470.7
2532.86681	43387.4
2535.58458	43379
2538.30065	43270.7
2541.01501	43246.6
2543.72768	43252.7
2546.43864	43226
2549.14791	43064
2551.85548	43029.7
2554.56136	42877.1
2557.26554	42741.2
2559.96803	42674.3
2562.66883	42635.6
2565.36794	42582.4
2568.06536	42506.7
2570.7611	42391.3
2573.45514	42298.3
2576.14751	42236
2578.83819	42186.5
2581.52719	42168.2
2584.21451	42094.1
2586.90015	42023.6
2589.58411	41944.6
2592.2664	41918.5
2594.94701	41733.7
2597.62594	41725.7
2600.30321	41676.9
2602.9788	41653.8
2605.65273	41599.8
2608.32498	41572.6
2610.99557	41465.9
2613.66449	41458.3
2616.33175	41407.4
2618.99734	41353.1
2621.66128	41275.3
2624.32355	41192.5
2626.98416	41089.4
2629.64311	41098.5
2632.30041	41089.5
2634.95605	41000.4
2637.61004	40974.5
2640.26238	40887.9
2642.91306	40826.9
2645.56209	40755.1
2648.20948	40767.1
2650.85521	40752.9
2653.4993	40729.9
2656.14175	40709.2
2658.78255	40770.3
2661.42171	40741.6
2664.05923	40787.5
2666.6951	40737.7
2669.32934	40721.5
2671.96194	40682.4
2674.59291	40765
2677.22224	40708.9
2679.84993	40701.4
2682.476	40631.9
2685.10043	40666.3
2687.72324	40618.8
2690.34441	40622
2692.96396	40613.6
2695.58188	40666.9
2698.19818	40603.4
2700.81285	40515.1
2703.4259	40498.3
2706.03733	40596.8
2708.64714	40526
2711.25533	40527.5
2713.86191	40551.3
2716.46687	40620.2
2719.07021	40535.6
2721.67194	40520.8
2724.27206	40468.6
2726.87057	40486.7
2729.46747	40499
2732.06276	40489.8
2734.65644	40461.1
2737.24852	40543.4
2739.83899	40451
2742.42786	40484.4
2745.01513	40402.7
2747.60079	40339.8
2750.18486	40277.7
2752.76733	40221.1
2755.3482	40119.4
2757.92747	40050.3
2760.50515	40020.3
2763.08123	39996.8
2765.65573	39988.5
2768.22863	39955.3
2770.79994	39825
2773.36967	39827.4
2775.9378	39844.3
2778.50435	39829.1
2781.06932	39698
2783.6327	39718.9
2786.1945	39616.1
2788.75471	39500.7
2791.31335	39451.7
2793.87041	39358.7
2796.42589	39328
2798.97979	39227.6
2801.53212	39127.5
2804.08288	39067.8
2806.63206	38970.3
2809.17967	38849.4
2811.72571	38717.9
2814.27018	38571.5
2816.81308	38478.1
2819.35442	38378.3
2821.89419	38344.3
2824.43239	38326.5
2826.96904	38269
2829.50412	38310.7
2832.03763	38226.5
2834.56959	38186.3
2837.1	38076.8
2839.62884	38032.6
2842.15613	37906.8
2844.68186	37977.6
2847.20604	37853.7
2849.72867	37853.7
2852.24974	37771
2854.76927	37709.5
2857.28724	37680.6
2859.80367	37676.9
2862.31855	37635.7
2864.83189	37537.2
2867.34368	37417.6
2869.85393	37414.1
2872.36264	37401.6
2874.8698	37375.8
2877.37543	37281.6
2879.87952	37216.1
2882.38207	37223
2884.88308	37217.6
2887.38256	37256.6
2889.88051	37213.3
2892.37692	37196.5
2894.8718	37195
2897.36515	37242.1
2899.85698	37201.9
2902.34727	37216.3
2904.83604	37155.2
2907.32328	37219.4
2909.809	37192.9
2912.29319	37195.6
2914.77587	37202.4
2917.25702	37266.4
2919.73665	37153.4
2922.21476	37167.1
2924.69136	37096.1
2927.16644	37070.5
2929.64	37022.3
2932.11205	36932.9
2934.58258	36882.1
2937.05161	36958.8
2939.51912	36956.5
2941.98513	36917.4
2944.44962	36874.2
2946.91261	36787.1
2949.37409	36904.3
2951.83407	36843.7
2954.29254	36796.4
2956.74951	36794
2959.20498	36813.6
2961.65895	36725.6
2964.11142	36717.4
2966.56239	36696.6
2969.01186	36720.4
2971.45984	36643
2973.90632	36589.7
2976.35131	36525
2978.7948	36513.6
2981.23681	36390.3
2983.67732	36354.1
2986.11635	36287.3
2988.55388	36251.3
2990.98993	36207.8
2993.4245	36131.6
2995.85758	36079
2998.28917	36009.9
3000.71928	35877.3
3003.14791	35854.5
3005.57506	35832.7
3008.00073	35662.1
3010.42493	35656.4
3012.84764	35558.9
3015.26888	35544.4
3017.68865	35498.4
3020.10694	35482.5
3022.52376	35366.1
3024.9391	35394.6
3027.35298	35309.8
3029.76539	35310
3032.17632	35246.6
3034.5858	35156.5
3036.9938	35120.8
3039.40034	35047.5
3041.80542	35025.1
3044.20903	34941.1
3046.61118	34892.8
3049.01187	34762.2
3051.4111	34699.7
3053.80888	34625
3056.20519	34596.6
3058.60005	34497.2
3060.99345	34454.9
3063.3854	34411
3065.7759	34297.8
3068.16494	34157.6
3070.55254	34099.2
3072.93868	34003.2
3075.32338	33881.8
3077.70662	33883.6
3080.08842	33778.9
3082.46878	33712.2
3084.84769	33698.8
3087.22515	33649.6
3089.60118	33630.4
3091.97576	33567.2
3094.3489	33538
3096.72061	33542.9
3099.09087	33540.2
3101.4597	33570.5
3103.82709	33516.3
3106.19305	33502
3108.55757	33458.5
3110.92066	33435.2
3113.28232	33367.7
3115.64255	33278.6
3118.00134	33150.4
3120.35871	33032.2
3122.71466	32933.6
3125.06917	32939
3127.42226	32860.6
3129.77393	32897
3132.12417	32778.1
3134.47299	32775.3
3136.82039	32710.1
3139.16636	32726.1
3141.51092	32668.9
3143.85406	32687.5
3146.19579	32644.8
3148.53609	32697.3
3150.87499	32721.6
3153.21246	32727.5
3155.54853	32741.9
3157.88318	32683
3160.21642	32692.2
3162.54826	32656.2
3164.87868	32603.9
3167.2077	32526.6
3169.5353	32534.1
3171.86151	32438.5
3174.18631	32464.9
3176.5097	32415.1
3178.83169	32326.3
3181.15228	32307.9
3183.47147	32235.8
3185.78926	32200.6
3188.10565	32128.3
3190.42065	32127.1
3192.73424	32052.4
3195.04645	31983.3
3197.35725	31966.3
3199.66667	31955.2
3201.97469	31987.2
3204.28132	31914.1
3206.58656	31921.7
3208.8904	31938.9
3211.19287	31880.5
3213.49394	31871.1
3215.79363	31925.7
3218.09193	31930
3220.38884	31944.4
3222.68438	31953.4
3224.97853	31843.8
3227.2713	31797.2
3229.56269	31695.4
3231.8527	31735.1
3234.14133	31674.6
3236.42858	31603.1
3238.71446	31486.3
3240.99896	31422.9
3243.28209	31469.4
3245.56384	31379.4
3247.84423	31353.4
3250.12324	31301.2
3252.40088	31347
3254.67715	31305.2
3256.95205	31274.6
3259.22558	31236.9
3261.49775	31189.7
3263.76855	31181.2
3266.03799	31095.1
3268.30606	30999
3270.57277	30933.5
3272.83812	30912.6
3275.10211	30858.3
3277.36474	30750.1
3279.62601	30750.3
3281.88593	30676.6
3284.14448	30708
3286.40168	30611.7
3288.65753	30593.7
3290.91202	30564.9
3293.16516	30491.6
3295.41695	30434.8
3297.66738	30227.8
3299.91647	30073.1
3302.16421	29910.9
3304.4106	29786.9
3306.65564	29581
3308.89933	29375.1
3311.14169	29187.9
3313.38269	28992.4
3315.62236	28879.2
3317.86068	28559.4
3320.09766	28325.1
3322.3333	28136.4
3324.5676	28057.7
3326.80056	27584.5
3329.03219	27440
3331.26248	6.1
3333.49143	0.8
3335.71905	-0.5
