Data from AgNPs_FTO_APTES_UA_20uM_CRN_20uM_R6G_10uM_NaF_0.1M_Addition_RamanShift__2__14-52-22-234.txt Node

Date: Thu Feb 17 14:52:22 GMT 2022
User: TCL
Spectrometer: QEP01345
Trigger mode: 4
Integration Time (sec): 7.000000E0
Scans to average: 10
Electric dark correction enabled: true
Nonlinearity correction enabled: false
Boxcar width: 0
XAxis mode: Raman Shifts
Number of Pixels in Spectrum: 1044
>>>>>Begin Spectral Data<<<<<
46.04893	-0.2125
50.45542	-2.7125
54.85868	-3.2125
59.25871	-1.0125
63.6555	128.9875
68.04907	133.8875
72.43941	139.1875
76.82654	142.4875
81.21044	144.6875
85.59113	147.5875
89.96862	157.2875
94.34289	160.8875
98.71396	162.6875
103.08183	168.2875
107.4465	175.5875
111.80798	174.7875
116.16626	183.4875
120.52136	199.4875
124.87327	203.2875
129.222	215.8875
133.56755	227.6875
137.90993	249.1875
142.24913	271.6875
146.58517	313.6875
150.91804	372.4875
155.24774	443.8875
159.57429	555.7875
163.89768	718.4875
168.21792	971.2875
172.53501	1341.5875
176.84895	1883.8875
181.15975	2665.8875
185.46741	3761.6875
189.77193	5211.3875
194.07331	7003.6875
198.37157	9008.8875
202.6667	11177.6875
206.9587	13283.7875
211.24758	15398.7875
215.53334	17455.2875
219.81599	19649.4875
224.09553	22073.1875
228.37195	24699.3875
232.64527	27655.6875
236.91549	30801.3875
241.18261	34003.2875
245.44663	37034.7875
249.70755	39694.1875
253.96539	42096.7875
258.22014	44158.4875
262.4718	45774.6875
266.72039	46991.9875
270.96589	47585.1875
275.20832	47755.9875
279.44768	47434.4875
283.68397	46954.7875
287.91719	46506.7875
292.14735	46262.0875
296.37445	46218.4875
300.59849	46353.8875
304.81948	46600.3875
309.03742	46629.9875
313.25231	46405.5875
317.46415	45977.8875
321.67296	45295.1875
325.87872	44640.4875
330.08145	44311.5875
334.28114	44378.4875
338.47781	44742.7875
342.67145	45267.9875
346.86207	45978.0875
351.04966	46775.3875
355.23424	47597.4875
359.4158	48294.9875
363.59435	48796.7875
367.76989	49272.5875
371.94243	49582.5875
376.11196	49865.0875
380.27849	50152.0875
384.44203	50431.2875
388.60257	50813.5875
392.76012	51279.0875
396.91468	51793.7875
401.06626	52392.5875
405.21485	52792.2875
409.36047	52715.1875
413.50311	52275.2875
417.64277	51906.2875
421.77947	51711.0875
425.9132	51796.7875
430.04396	52077.2875
434.17176	52478.1875
438.2966	52965.7875
442.41849	53837.7875
446.53742	55204.3875
450.6534	56636.9875
454.76644	57619.9875
458.87653	58003.6875
462.98368	57681.7875
467.08789	57037.7875
471.18916	56239.3875
475.2875	55483.4875
479.38291	54949.2875
483.4754	54540.5875
487.56496	54051.8875
491.6516	53639.7875
495.73531	53232.8875
499.81612	53038.1875
503.89401	53296.2875
507.96899	53455.3875
512.04106	53480.1875
516.11023	53399.1875
520.1765	53303.9875
524.23987	53286.7875
528.30034	53111.7875
532.35792	52944.2875
536.41261	52540.1875
540.46441	52121.5875
544.51333	52059.6875
548.55936	52481.4875
552.60252	53278.7875
556.64279	54299.7875
560.6802	54985.0875
564.71473	55265.9875
568.7464	55729.5875
572.7752	56635.3875
576.80114	57601.5875
580.82422	58481.6875
584.84444	59694.6875
588.86181	61279.8875
592.87633	62821.9875
596.888	63145.9875
600.89682	61906.1875
604.9028	62114.6875
608.90594	65568.7875
612.90624	69485.7875
616.90371	66429.2875
620.89834	58569.0875
624.89015	55043.4875
628.87913	54592.5875
632.86528	54692.0875
636.84862	54626.3875
640.82913	54100.4875
644.80683	53241.8875
648.78172	52590.1875
652.75379	52618.0875
656.72306	53167.8875
660.68952	54009.5875
664.65319	53784.8875
668.61405	53151.1875
672.57211	53112.0875
676.52738	53334.6875
680.47986	53331.1875
684.42955	53039.8875
688.37646	52967.4875
692.32058	53285.6875
696.26192	53893.5875
700.20048	54505.4875
704.13626	54849.3875
708.06928	54728.9875
711.99952	54549.9875
715.927	54426.5875
719.85171	54554.1875
723.77365	54577.6875
727.69284	54137.2875
731.60928	53643.2875
735.52295	53554.0875
739.43388	53552.5875
743.34206	53677.7875
747.24749	53873.8875
751.15017	54148.3875
755.05012	54803.1875
758.94733	55898.2875
762.8418	57797.9875
766.73354	60811.5875
770.62254	63745.4875
774.50882	64538.3875
778.39237	62522.1875
782.27321	59318.1875
786.15132	56687.8875
790.02671	54996.4875
793.89938	54230.5875
797.76935	53841.3875
801.6366	53717.0875
805.50115	53493.8875
809.36299	53412.8875
813.22213	53237.8875
817.07857	53061.9875
820.93231	53087.8875
824.78336	53030.2875
828.63172	52966.4875
832.47738	53008.1875
836.32036	53101.2875
840.16066	53327.4875
843.99827	53410.6875
847.8332	53433.0875
851.66546	53350.3875
855.49504	53471.7875
859.32195	53564.2875
863.1462	53543.2875
866.96777	53398.8875
870.78668	53334.8875
874.60293	53382.1875
878.41652	53451.0875
882.22745	53581.4875
886.03573	53741.6875
889.84136	53663.3875
893.64433	53424.8875
897.44466	53262.7875
901.24235	53149.2875
905.0374	53075.1875
908.8298	53091.5875
912.61957	53138.2875
916.40671	53421.5875
920.19121	53990.8875
923.97308	54406.5875
927.75233	54362.9875
931.52895	54001.5875
935.30295	53658.3875
939.07433	53141.0875
942.84309	52727.6875
946.60924	52578.7875
950.37278	52485.6875
954.13371	52508.5875
957.89203	52375.9875
961.64774	52291.0875
965.40086	52215.5875
969.15137	52212.2875
972.89929	52150.9875
976.64461	52147.5875
980.38733	52233.3875
984.12747	52378.0875
987.86502	52686.1875
991.59999	53179.3875
995.33237	53753.0875
999.06217	54551.1875
1002.78939	55583.0875
1006.51404	56394.3875
1010.23611	57071.3875
1013.95561	57522.0875
1017.67255	57646.7875
1021.38692	57328.9875
1025.09872	56643.3875
1028.80796	56444.0875
1032.51465	56920.3875
1036.21877	57588.1875
1039.92035	57838.4875
1043.61937	57588.9875
1047.31584	57031.0875
1051.00976	56446.2875
1054.70114	56143.7875
1058.38998	56183.6875
1062.07627	56347.3875
1065.76003	56688.8875
1069.44126	57133.2875
1073.11995	57741.2875
1076.79611	58319.9875
1080.46974	58701.3875
1084.14085	59105.3875
1087.80943	59571.4875
1091.47549	59857.5875
1095.13903	59820.0875
1098.80005	59274.4875
1102.45857	58547.7875
1106.11456	58023.2875
1109.76805	57893.5875
1113.41903	58076.3875
1117.06751	58354.7875
1120.71348	58700.5875
1124.35696	59035.6875
1127.99793	59434.4875
1131.63641	59497.7875
1135.2724	59275.2875
1138.90589	58998.5875
1142.5369	58908.7875
1146.16542	58930.9875
1149.79145	59171.6875
1153.415	59414.2875
1157.03607	59874.8875
1160.65467	60849.8875
1164.27079	62594.0875
1167.88443	64741.1875
1171.49561	67324.8875
1175.10432	70723.1875
1178.71056	75037.0875
1182.31434	79003.4875
1185.91565	80822.6875
1189.51451	80328.4875
1193.11091	78530.0875
1196.70485	76225.5875
1200.29634	74180.8875
1203.88538	72824.1875
1207.47197	71841.8875
1211.05612	70779.5875
1214.63782	69673.0875
1218.21708	68661.5875
1221.79391	67823.9875
1225.36829	67457.4875
1228.94024	66947.0875
1232.50976	66003.8875
1236.07685	64978.2875
1239.6415	64558.7875
1243.20374	64645.6875
1246.76355	65079.9875
1250.32093	65873.1875
1253.8759	66912.9875
1257.42845	68264.7875
1260.97859	69623.1875
1264.52631	70957.2875
1268.07163	72505.9875
1271.61453	73999.6875
1275.15503	75540.9875
1278.69312	77008.6875
1282.22882	78255.6875
1285.76211	79689.5875
1289.29301	81533.2875
1292.82151	83906.1875
1296.34761	86825.8875
1299.87133	90813.9875
1303.39266	95319.1875
1306.9116	99900.1875
1310.42815	103986.6875
1313.94233	106163.9875
1317.45412	105744.3875
1320.96354	103815.9875
1324.47058	101536.6875
1327.97525	99360.7875
1331.47754	97699.9875
1334.97747	96719.3875
1338.47502	96127.0875
1341.97022	95820.1875
1345.46305	95511.9875
1348.95352	95398.5875
1352.44163	95866.7875
1355.92738	97857.0875
1359.41078	101515.6875
1362.89183	104540.4875
1366.37053	102814.2875
1369.84688	95560.0875
1373.32088	87111.8875
1376.79254	81252.8875
1380.26186	78977.6875
1383.72883	78764.3875
1387.19347	78884.9875
1390.65578	78283.8875
1394.11575	77696.0875
1397.57339	77806.4875
1401.0287	78432.9875
1404.48168	79096.8875
1407.93234	79185.4875
1411.38068	78503.7875
1414.82669	77065.5875
1418.27039	75192.1875
1421.71177	73193.6875
1425.15083	71527.4875
1428.58758	70762.7875
1432.02203	71223.9875
1435.45416	72480.0875
1438.88399	74061.6875
1442.31151	75193.6875
1445.73673	75787.8875
1449.15965	76121.9875
1452.58027	76086.3875
1455.9986	75707.1875
1459.41463	76000.3875
1462.82837	76801.1875
1466.23982	78002.6875
1469.64898	79292.3875
1473.05586	80293.5875
1476.46045	80733.9875
1479.86276	80562.5875
1483.26279	80053.0875
1486.66054	79707.6875
1490.05602	80049.4875
1493.44922	80712.4875
1496.84016	81574.7875
1500.22882	83080.3875
1503.61521	85490.2875
1506.99934	88084.7875
1510.38121	89989.1875
1513.76081	90006.9875
1517.13816	87912.3875
1520.51324	84906.2875
1523.88607	82546.8875
1527.25665	81521.9875
1530.62498	81279.9875
1533.99105	81152.9875
1537.35488	80769.2875
1540.71647	79827.9875
1544.07581	78509.0875
1547.4329	77208.1875
1550.78776	75867.3875
1554.14038	75026.8875
1557.49077	74463.5875
1560.83892	74136.3875
1564.18484	74302.6875
1567.52853	74489.7875
1570.86999	75077.3875
1574.20922	76056.9875
1577.54624	76510.6875
1580.88103	76262.6875
1584.2136	76228.1875
1587.54395	77548.4875
1590.87208	80507.5875
1594.19801	84635.3875
1597.52172	88876.6875
1600.84321	90384.7875
1604.16251	87703.7875
1607.47959	82626.1875
1610.79447	77103.7875
1614.10715	72016.9875
1617.41763	68062.4875
1620.7259	65316.9875
1624.03199	63932.2875
1627.33587	64066.8875
1630.63757	65260.0875
1633.93707	67977.2875
1637.23439	72816.2875
1640.52951	79604.0875
1643.82246	87624.8875
1647.11321	93729.8875
1650.40179	94773.5875
1653.68819	89068.8875
1656.97241	79818.7875
1660.25446	70950.8875
1663.53433	64505.7875
1666.81203	60541.6875
1670.08756	58028.0875
1673.36092	56444.6875
1676.63211	55408.1875
1679.90115	54638.8875
1683.16801	53947.8875
1686.43272	53522.9875
1689.69527	53241.9875
1692.95567	53002.7875
1696.2139	52841.4875
1699.46999	52760.7875
1702.72392	52717.3875
1705.97571	52660.3875
1709.22535	52575.7875
1712.47284	52561.1875
1715.71819	52626.3875
1718.96139	52538.7875
1722.20246	52449.3875
1725.44139	52156.4875
1728.67818	51891.0875
1731.91284	51661.8875
1735.14537	51523.0875
1738.37576	51398.9875
1741.60403	51291.7875
1744.83017	51181.1875
1748.05418	51109.4875
1751.27607	50950.8875
1754.49584	50906.8875
1757.71349	50970.2875
1760.92903	50970.4875
1764.14244	50948.5875
1767.35375	50889.8875
1770.56294	50744.8875
1773.77002	50705.6875
1776.97499	50687.9875
1780.17785	50578.7875
1783.37861	50438.2875
1786.57727	50495.2875
1789.77382	50448.7875
1792.96828	50442.5875
1796.16064	50268.1875
1799.3509	50223.3875
1802.53907	50101.3875
1805.72514	50001.7875
1808.90913	49898.1875
1812.09102	49943.2875
1815.27083	49848.8875
1818.44856	49769.4875
1821.6242	49700.1875
1824.79776	49669.1875
1827.96924	49635.3875
1831.13864	49655.7875
1834.30597	49652.7875
1837.47122	49599.9875
1840.6344	49560.7875
1843.7955	49563.5875
1846.95454	49495.8875
1850.11151	49500.0875
1853.26642	49467.2875
1856.41926	49399.1875
1859.57004	49383.9875
1862.71876	49299.8875
1865.86542	49368.3875
1869.01003	49272.2875
1872.15258	49288.6875
1875.29308	49234.5875
1878.43152	49168.1875
1881.56792	49156.2875
1884.70227	49119.1875
1887.83457	48956.8875
1890.96482	48969.1875
1894.09304	48997.2875
1897.21921	48994.8875
1900.34335	48908.3875
1903.46544	48898.0875
1906.58551	48819.8875
1909.70353	48826.6875
1912.81953	48786.6875
1915.93349	48693.2875
1919.04543	48552.9875
1922.15534	48493.3875
1925.26322	48404.1875
1928.36908	48379.1875
1931.47292	48310.5875
1934.57473	48292.9875
1937.67453	48195.2875
1940.77232	48065.8875
1943.86808	47953.7875
1946.96184	47890.5875
1950.05358	47803.5875
1953.14331	47675.4875
1956.23103	47568.7875
1959.31675	47367.3875
1962.40046	47316.9875
1965.48217	47205.2875
1968.56188	47080.8875
1971.63959	46908.8875
1974.7153	46816.7875
1977.78901	46694.9875
1980.86073	46558.0875
1983.93046	46459.2875
1986.99819	46321.1875
1990.06394	46284.7875
1993.1277	46197.3875
1996.18947	45987.1875
1999.24925	45860.6875
2002.30706	45760.1875
2005.36288	45612.7875
2008.41672	45529.5875
2011.46859	45337.1875
2014.51848	45278.0875
2017.56639	45161.0875
2020.61233	45085.2875
2023.6563	44928.7875
2026.6983	44877.9875
2029.73833	44859.4875
2032.7764	44814.1875
2035.8125	44700.6875
2038.84664	44634.2875
2041.87881	44530.0875
2044.90903	44417.3875
2047.93729	44366.5875
2050.96359	44351.5875
2053.98794	44329.9875
2057.01034	44306.7875
2060.03078	44328.2875
2063.04927	44274.3875
2066.06582	44271.8875
2069.08042	44255.4875
2072.09307	44213.1875
2075.10378	44163.3875
2078.11255	44135.9875
2081.11938	44187.2875
2084.12426	44117.2875
2087.12722	44106.6875
2090.12824	44106.3875
2093.12732	44167.0875
2096.12447	44169.4875
2099.11969	44174.7875
2102.11299	44237.5875
2105.10435	44339.8875
2108.09379	44279.0875
2111.08131	44350.6875
2114.0669	44338.6875
2117.05057	44403.1875
2120.03233	44505.8875
2123.01216	44539.1875
2125.99008	44582.5875
2128.96609	44574.5875
2131.94018	44531.6875
2134.91236	44635.1875
2137.88263	44684.2875
2140.851	44684.6875
2143.81746	44718.9875
2146.78201	44790.9875
2149.74466	44784.9875
2152.7054	44841.8875
2155.66425	44795.1875
2158.6212	44826.9875
2161.57625	44723.3875
2164.52941	44789.3875
2167.48067	44759.2875
2170.43004	44744.9875
2173.37752	44760.0875
2176.32311	44873.0875
2179.26681	44858.4875
2182.20863	44836.3875
2185.14856	44879.1875
2188.08661	44786.0875
2191.02278	44811.5875
2193.95707	44806.6875
2196.88948	44765.4875
2199.82001	44770.5875
2202.74867	44747.7875
2205.67545	44731.0875
2208.60037	44698.7875
2211.52341	44580.4875
2214.44458	44568.4875
2217.36388	44497.3875
2220.28132	44420.6875
2223.1969	44344.1875
2226.11061	44297.3875
2229.02246	44252.7875
2231.93245	44151.6875
2234.84058	44105.4875
2237.74686	44037.2875
2240.65128	44060.3875
2243.55385	43934.8875
2246.45456	43975.3875
2249.35343	43912.3875
2252.25044	43862.8875
2255.14561	43773.7875
2258.03893	43723.0875
2260.93041	43662.9875
2263.82004	43599.0875
2266.70783	43559.3875
2269.59378	43449.7875
2272.4779	43333.3875
2275.36017	43221.8875
2278.24061	43175.6875
2281.11922	43106.2875
2283.996	43047.0875
2286.87094	42997.3875
2289.74405	42992.1875
2292.61534	42965.3875
2295.4848	42983.3875
2298.35243	42965.0875
2301.21824	42930.3875
2304.08223	42860.3875
2306.94439	42905.0875
2309.80474	42908.3875
2312.66327	42920.7875
2315.51999	42836.0875
2318.37489	42830.3875
2321.22797	42830.6875
2324.07925	42789.8875
2326.92871	42679.6875
2329.77637	42649.1875
2332.62222	42632.2875
2335.46626	42562.3875
2338.3085	42602.1875
2341.14893	42569.9875
2343.98756	42608.7875
2346.8244	42537.0875
2349.65943	42548.4875
2352.49267	42505.9875
2355.32411	42511.2875
2358.15376	42489.0875
2360.98161	42467.7875
2363.80768	42350.4875
2366.63195	42416.5875
2369.45444	42318.0875
2372.27514	42266.5875
2375.09405	42182.1875
2377.91118	42080.3875
2380.72652	42040.7875
2383.54009	41959.8875
2386.35187	41936.0875
2389.16188	41856.2875
2391.97011	41782.8875
2394.77657	41722.6875
2397.58125	41660.6875
2400.38416	41619.5875
2403.18529	41511.6875
2405.98466	41521.9875
2408.78226	41428.7875
2411.57809	41359.7875
2414.37216	41377.9875
2417.16446	41326.3875
2419.955	41346.9875
2422.74378	41380.6875
2425.5308	41309.2875
2428.31606	41226.0875
2431.09956	41244.7875
2433.88131	41196.2875
2436.6613	41255.8875
2439.43954	41263.9875
2442.21603	41209.6875
2444.99077	41156.5875
2447.76377	41107.3875
2450.53501	41072.8875
2453.30451	41088.3875
2456.07226	41057.4875
2458.83827	41067.4875
2461.60254	41024.0875
2464.36507	40980.3875
2467.12586	40932.4875
2469.88492	40950.4875
2472.64224	40969.5875
2475.39782	40964.6875
2478.15167	41064.6875
2480.90379	41065.8875
2483.65417	41015.4875
2486.40283	40993.0875
2489.14976	40974.3875
2491.89497	40999.9875
2494.63845	41053.6875
2497.3802	40962.9875
2500.12024	40971.6875
2502.85855	40947.6875
2505.59514	40900.7875
2508.33002	40869.1875
2511.06318	40893.0875
2513.79462	40777.2875
2516.52435	40732.5875
2519.25237	40655.4875
2521.97867	40647.7875
2524.70327	40728.2875
2527.42616	40652.1875
2530.14734	40590.9875
2532.86681	40536.4875
2535.58458	40553.0875
2538.30065	40513.6875
2541.01501	40494.4875
2543.72768	40470.5875
2546.43864	40481.0875
2549.14791	40353.4875
2551.85548	40336.8875
2554.56136	40285.2875
2557.26554	40234.8875
2559.96803	40159.2875
2562.66883	40175.4875
2565.36794	40122.8875
2568.06536	40102.1875
2570.7611	40022.3875
2573.45514	40011.4875
2576.14751	39949.7875
2578.83819	39912.9875
2581.52719	39934.9875
2584.21451	39833.7875
2586.90015	39781.4875
2589.58411	39736.0875
2592.2664	39709.4875
2594.94701	39635.2875
2597.62594	39629.1875
2600.30321	39613.6875
2602.9788	39567.6875
2605.65273	39531.0875
2608.32498	39501.1875
2610.99557	39492.1875
2613.66449	39534.3875
2616.33175	39488.8875
2618.99734	39492.7875
2621.66128	39446.8875
2624.32355	39400.0875
2626.98416	39343.5875
2629.64311	39299.0875
2632.30041	39296.0875
2634.95605	39233.0875
2637.61004	39247.4875
2640.26238	39214.2875
2642.91306	39156.0875
2645.56209	39148.0875
2648.20948	39186.3875
2650.85521	39119.9875
2653.4993	39184.0875
2656.14175	39135.6875
2658.78255	39248.0875
2661.42171	39213.5875
2664.05923	39232.4875
2666.6951	39205.8875
2669.32934	39225.9875
2671.96194	39190.3875
2674.59291	39166.8875
2677.22224	39181.6875
2679.84993	39182.5875
2682.476	39211.9875
2685.10043	39214.6875
2687.72324	39077.6875
2690.34441	39091.0875
2692.96396	39099.6875
2695.58188	39105.3875
2698.19818	39067.9875
2700.81285	39079.2875
2703.4259	39081.1875
2706.03733	39129.4875
2708.64714	39128.9875
2711.25533	39145.0875
2713.86191	39191.1875
2716.46687	39283.1875
2719.07021	39371.2875
2721.67194	39365.4875
2724.27206	39334.1875
2726.87057	39386.4875
2729.46747	39408.7875
2732.06276	39414.2875
2734.65644	39342.3875
2737.24852	39345.9875
2739.83899	39249.1875
2742.42786	39266.7875
2745.01513	39279.7875
2747.60079	39247.1875
2750.18486	39154.0875
2752.76733	39095.1875
2755.3482	39061.5875
2757.92747	39050.5875
2760.50515	38979.6875
2763.08123	39050.2875
2765.65573	38954.7875
2768.22863	38966.2875
2770.79994	38889.6875
2773.36967	38904.9875
2775.9378	38887.9875
2778.50435	38888.5875
2781.06932	38883.6875
2783.6327	38850.8875
2786.1945	38740.9875
2788.75471	38771.7875
2791.31335	38709.3875
2793.87041	38614.9875
2796.42589	38548.6875
2798.97979	38518.1875
2801.53212	38368.9875
2804.08288	38373.4875
2806.63206	38243.4875
2809.17967	38221.3875
2811.72571	38082.5875
2814.27018	37968.6875
2816.81308	37936.0875
2819.35442	37874.3875
2821.89419	37888.1875
2824.43239	37877.5875
2826.96904	37828.5875
2829.50412	37749.5875
2832.03763	37714.1875
2834.56959	37673.7875
2837.1	37600.0875
2839.62884	37611.9875
2842.15613	37544.0875
2844.68186	37574.6875
2847.20604	37525.6875
2849.72867	37455.6875
2852.24974	37414.4875
2854.76927	37433.3875
2857.28724	37385.1875
2859.80367	37353.2875
2862.31855	37245.3875
2864.83189	37216.8875
2867.34368	37268.3875
2869.85393	37280.3875
2872.36264	37234.9875
2874.8698	37164.3875
2877.37543	37119.0875
2879.87952	37138.3875
2882.38207	37077.2875
2884.88308	37079.5875
2887.38256	37077.5875
2889.88051	37012.6875
2892.37692	37091.5875
2894.8718	37135.9875
2897.36515	37191.5875
2899.85698	37147.3875
2902.34727	37156.0875
2904.83604	37178.3875
2907.32328	37303.6875
2909.809	37260.9875
2912.29319	37314.6875
2914.77587	37358.5875
2917.25702	37356.3875
2919.73665	37322.5875
2922.21476	37308.9875
2924.69136	37273.9875
2927.16644	37255.6875
2929.64	37192.8875
2932.11205	37163.1875
2934.58258	36988.7875
2937.05161	37122.4875
2939.51912	37084.8875
2941.98513	37120.4875
2944.44962	37068.2875
2946.91261	37007.7875
2949.37409	37073.8875
2951.83407	37043.4875
2954.29254	37021.2875
2956.74951	37027.4875
2959.20498	37079.2875
2961.65895	37021.1875
2964.11142	36978.2875
2966.56239	36994.1875
2969.01186	36997.7875
2971.45984	36875.3875
2973.90632	36849.4875
2976.35131	36752.4875
2978.7948	36743.6875
2981.23681	36720.9875
2983.67732	36607.6875
2986.11635	36548.4875
2988.55388	36501.0875
2990.98993	36432.9875
2993.4245	36372.5875
2995.85758	36254.1875
2998.28917	36225.6875
3000.71928	36141.7875
3003.14791	36077.1875
3005.57506	36017.0875
3008.00073	35948.8875
3010.42493	35910.7875
3012.84764	35837.5875
3015.26888	35858.2875
3017.68865	35786.7875
3020.10694	35746.8875
3022.52376	35672.7875
3024.9391	35673.9875
3027.35298	35608.2875
3029.76539	35605.4875
3032.17632	35562.1875
3034.5858	35502.9875
3036.9938	35492.5875
3039.40034	35464.2875
3041.80542	35481.0875
3044.20903	35434.0875
3046.61118	35389.9875
3049.01187	35266.6875
3051.4111	35215.6875
3053.80888	35145.7875
3056.20519	35082.7875
3058.60005	35022.1875
3060.99345	35030.5875
3063.3854	34938.8875
3065.7759	34767.5875
3068.16494	34711.3875
3070.55254	34636.3875
3072.93868	34574.0875
3075.32338	34506.3875
3077.70662	34472.7875
3080.08842	34368.6875
3082.46878	34312.2875
3084.84769	34294.8875
3087.22515	34243.5875
3089.60118	34230.0875
3091.97576	34251.3875
3094.3489	34208.1875
3096.72061	34204.5875
3099.09087	34265.4875
3101.4597	34217.9875
3103.82709	34301.4875
3106.19305	34168.8875
3108.55757	34140.9875
3110.92066	34050.6875
3113.28232	33987.2875
3115.64255	33929.1875
3118.00134	33857.5875
3120.35871	33824.7875
3122.71466	33732.9875
3125.06917	33631.0875
3127.42226	33570.9875
3129.77393	33552.8875
3132.12417	33499.9875
3134.47299	33418.8875
3136.82039	33437.3875
3139.16636	33418.2875
3141.51092	33370.5875
3143.85406	33342.3875
3146.19579	33376.8875
3148.53609	33350.4875
3150.87499	33399.1875
3153.21246	33407.2875
3155.54853	33504.0875
3157.88318	33448.2875
3160.21642	33476.0875
3162.54826	33474.4875
3164.87868	33389.5875
3167.2077	33437.2875
3169.5353	33457.5875
3171.86151	33469.1875
3174.18631	33303.9875
3176.5097	33320.9875
3178.83169	33255.4875
3181.15228	33227.4875
3183.47147	33098.0875
3185.78926	33084.7875
3188.10565	33051.2875
3190.42065	33034.3875
3192.73424	33036.2875
3195.04645	32904.8875
3197.35725	32974.1875
3199.66667	32927.7875
3201.97469	32945.0875
3204.28132	32923.1875
3206.58656	32968.4875
3208.8904	32966.9875
3211.19287	32962.3875
3213.49394	32910.7875
3215.79363	32924.1875
3218.09193	32968.7875
3220.38884	32996.1875
3222.68438	33060.6875
3224.97853	32976.3875
3227.2713	33004.4875
3229.56269	32956.6875
3231.8527	32902.3875
3234.14133	32825.5875
3236.42858	32724.0875
3238.71446	32725.3875
3240.99896	32666.8875
3243.28209	32634.5875
3245.56384	32595.1875
3247.84423	32615.3875
3250.12324	32544.4875
3252.40088	32417.7875
3254.67715	32439.4875
3256.95205	32390.0875
3259.22558	32437.7875
3261.49775	32408.8875
3263.76855	32326.1875
3266.03799	32229.9875
3268.30606	32234.8875
3270.57277	32213.8875
3272.83812	32131.4875
3275.10211	32074.1875
3277.36474	31991.3875
3279.62601	32027.6875
3281.88593	32018.5875
3284.14448	31976.5875
3286.40168	31993.1875
3288.65753	31977.7875
3290.91202	31969.8875
3293.16516	31908.6875
3295.41695	31871.0875
3297.66738	31677.5875
3299.91647	31469.4875
3302.16421	31297.7875
3304.4106	31144.0875
3306.65564	30955.8875
3308.89933	30748.2875
3311.14169	30534.8875
3313.38269	30302.0875
3315.62236	30125.8875
3317.86068	29877.9875
3320.09766	29657.9875
3322.3333	29482.4875
3324.5676	29362.7875
3326.80056	28929.0875
3329.03219	28705.7875
3331.26248	7.9875
3333.49143	0.6875
3335.71905	-0.5125
