Data from AgNPs_FTO_APTES_UA_20uM_CRN_0uM_R6G_10uM_NaF_0.1M_Addition_RamanShift__43__11-39-51-982.txt Node

Date: Thu Feb 17 11:39:51 GMT 2022
User: TCL
Spectrometer: QEP01345
Trigger mode: 4
Integration Time (sec): 7.000000E0
Scans to average: 10
Electric dark correction enabled: true
Nonlinearity correction enabled: false
Boxcar width: 0
XAxis mode: Raman Shifts
Number of Pixels in Spectrum: 1044
>>>>>Begin Spectral Data<<<<<
46.04893	-0.725
50.45542	0.175
54.85868	-3.525
59.25871	-1.225
63.6555	105.475
68.04907	105.875
72.43941	111.575
76.82654	113.275
81.21044	116.275
85.59113	122.875
89.96862	125.375
94.34289	128.375
98.71396	132.775
103.08183	134.875
107.4465	138.075
111.80798	144.275
116.16626	153.075
120.52136	155.675
124.87327	158.175
129.222	170.175
133.56755	185.275
137.90993	196.575
142.24913	217.275
146.58517	249.075
150.91804	291.475
155.24774	348.875
159.57429	437.275
163.89768	568.175
168.21792	759.675
172.53501	1046.475
176.84895	1464.775
181.15975	2078.175
185.46741	2934.175
189.77193	4054.475
194.07331	5456.675
198.37157	7024.275
202.6667	8693.775
206.9587	10355.475
211.24758	11977.675
215.53334	13586.375
219.81599	15256.075
224.09553	17097.975
228.37195	19158.175
232.64527	21382.775
236.91549	23784.175
241.18261	26254.975
245.44663	28618.975
249.70755	30757.675
253.96539	32689.275
258.22014	34309.975
262.4718	35606.275
266.72039	36492.475
270.96589	36948.175
275.20832	37044.775
279.44768	36806.075
283.68397	36455.575
287.91719	36150.975
292.14735	35874.175
296.37445	35711.175
300.59849	35619.475
304.81948	35671.175
309.03742	35664.175
313.25231	35601.075
317.46415	35227.475
321.67296	34836.775
325.87872	34485.575
330.08145	34294.275
334.28114	34301.575
338.47781	34573.575
342.67145	34974.875
346.86207	35544.975
351.04966	36138.175
355.23424	36771.175
359.4158	37259.375
363.59435	37707.575
367.76989	37997.675
371.94243	38185.775
376.11196	38389.975
380.27849	38581.675
384.44203	38788.875
388.60257	39148.975
392.76012	39534.575
396.91468	39988.475
401.06626	40525.175
405.21485	40859.575
409.36047	40869.775
413.50311	40707.975
417.64277	40603.075
421.77947	40742.475
425.9132	41082.275
430.04396	41378.475
434.17176	41572.675
438.2966	41825.375
442.41849	42240.275
446.53742	42992.175
450.6534	43814.575
454.76644	44382.775
458.87653	44588.275
462.98368	44538.575
467.08789	44303.375
471.18916	43945.875
475.2875	43471.475
479.38291	43237.375
483.4754	43018.275
487.56496	42776.475
491.6516	42542.375
495.73531	42284.675
499.81612	42179.775
503.89401	42459.875
507.96899	42677.275
512.04106	42690.675
516.11023	42572.975
520.1765	42300.275
524.23987	42029.875
528.30034	41849.375
532.35792	41659.375
536.41261	41397.475
540.46441	41090.475
544.51333	41104.975
548.55936	41324.475
552.60252	41860.775
556.64279	42550.975
560.6802	43141.875
564.71473	43612.175
568.7464	44201.875
572.7752	45208.675
576.80114	46496.075
580.82422	47886.875
584.84444	49194.875
588.86181	50728.575
592.87633	52108.075
596.888	51953.275
600.89682	50333.975
604.9028	49506.575
608.90594	50869.275
612.90624	52684.975
616.90371	50380.075
620.89834	45505.675
624.89015	43384.075
628.87913	43137.375
632.86528	43368.375
636.84862	43494.175
640.82913	43055.375
644.80683	42423.775
648.78172	41974.975
652.75379	41929.075
656.72306	42304.875
660.68952	42780.475
664.65319	42746.875
668.61405	42381.775
672.57211	42341.475
676.52738	42543.175
680.47986	42530.975
684.42955	42375.375
688.37646	42304.075
692.32058	42477.175
696.26192	42949.575
700.20048	43379.975
704.13626	43711.475
708.06928	43830.575
711.99952	43713.375
715.927	43696.775
719.85171	43812.775
723.77365	43735.475
727.69284	43306.675
731.60928	42970.675
735.52295	42763.675
739.43388	42772.775
743.34206	42896.975
747.24749	43066.375
751.15017	43406.575
755.05012	43872.375
758.94733	44633.475
762.8418	45970.075
766.73354	47903.875
770.62254	49664.775
774.50882	49895.575
778.39237	48517.875
782.27321	46688.175
786.15132	45146.675
790.02671	44104.675
793.89938	43531.875
797.76935	43219.075
801.6366	43124.975
805.50115	43092.475
809.36299	42984.275
813.22213	42795.675
817.07857	42711.175
820.93231	42565.575
824.78336	42491.375
828.63172	42435.775
832.47738	42387.875
836.32036	42402.975
840.16066	42464.075
843.99827	42466.975
847.8332	42493.075
851.66546	42663.975
855.49504	42687.675
859.32195	42755.275
863.1462	42775.375
866.96777	42764.875
870.78668	42797.475
874.60293	42832.575
878.41652	42932.675
882.22745	43048.175
886.03573	43182.475
889.84136	43140.975
893.64433	43024.175
897.44466	42943.475
901.24235	42871.475
905.0374	42800.475
908.8298	42695.375
912.61957	42672.775
916.40671	42931.175
920.19121	43249.675
923.97308	43613.475
927.75233	43641.375
931.52895	43297.075
935.30295	42890.875
939.07433	42455.875
942.84309	42168.375
946.60924	42055.575
950.37278	41989.275
954.13371	41995.775
957.89203	41936.675
961.64774	41926.175
965.40086	41929.175
969.15137	41896.975
972.89929	41845.775
976.64461	41747.975
980.38733	41746.075
984.12747	41784.675
987.86502	41900.275
991.59999	42187.875
995.33237	42409.075
999.06217	42861.275
1002.78939	43414.775
1006.51404	44093.975
1010.23611	44781.175
1013.95561	45235.675
1017.67255	45275.475
1021.38692	44945.075
1025.09872	44323.275
1028.80796	43764.475
1032.51465	43663.475
1036.21877	43633.575
1039.92035	43758.175
1043.61937	43808.475
1047.31584	43886.475
1051.00976	43920.775
1054.70114	43995.375
1058.38998	44211.575
1062.07627	44542.575
1065.76003	44915.775
1069.44126	45421.475
1073.11995	46076.975
1076.79611	46656.975
1080.46974	46908.475
1084.14085	47144.175
1087.80943	47466.875
1091.47549	47831.875
1095.13903	47876.275
1098.80005	47476.875
1102.45857	46804.975
1106.11456	46200.775
1109.76805	45847.275
1113.41903	45779.275
1117.06751	45830.775
1120.71348	46088.575
1124.35696	46337.775
1127.99793	46515.075
1131.63641	46792.675
1135.2724	46701.175
1138.90589	46618.675
1142.5369	46699.475
1146.16542	46860.575
1149.79145	47085.375
1153.415	47361.875
1157.03607	47723.975
1160.65467	48476.675
1164.27079	49827.675
1167.88443	51496.075
1171.49561	53323.575
1175.10432	55528.975
1178.71056	58235.675
1182.31434	60687.875
1185.91565	62062.475
1189.51451	62048.775
1193.11091	61286.675
1196.70485	59971.475
1200.29634	58448.475
1203.88538	57409.875
1207.47197	56860.075
1211.05612	56566.775
1214.63782	55898.375
1218.21708	54946.875
1221.79391	53972.475
1225.36829	53300.275
1228.94024	52888.075
1232.50976	52427.975
1236.07685	51874.975
1239.6415	51536.075
1243.20374	51417.175
1246.76355	51635.175
1250.32093	52055.775
1253.8759	52739.675
1257.42845	53811.175
1260.97859	54950.675
1264.52631	56160.675
1268.07163	57430.275
1271.61453	58660.275
1275.15503	59684.075
1278.69312	60715.075
1282.22882	61797.075
1285.76211	63175.475
1289.29301	64837.075
1292.82151	66674.775
1296.34761	68985.875
1299.87133	71751.875
1303.39266	74633.575
1306.9116	77410.875
1310.42815	79632.575
1313.94233	80745.575
1317.45412	80361.875
1320.96354	79364.375
1324.47058	78577.275
1327.97525	78104.875
1331.47754	77872.975
1334.97747	77478.875
1338.47502	77287.575
1341.97022	77052.075
1345.46305	76576.675
1348.95352	75873.875
1352.44163	75441.875
1355.92738	75544.975
1359.41078	76820.575
1362.89183	78042.175
1366.37053	77203.375
1369.84688	73172.675
1373.32088	67806.475
1376.79254	63802.675
1380.26186	62146.575
1383.72883	61946.475
1387.19347	61824.775
1390.65578	61429.875
1394.11575	61195.875
1397.57339	61460.575
1401.0287	62166.775
1404.48168	62820.275
1407.93234	62899.075
1411.38068	62147.175
1414.82669	60871.875
1418.27039	59140.075
1421.71177	57608.175
1425.15083	56359.775
1428.58758	55883.075
1432.02203	56301.875
1435.45416	57374.375
1438.88399	58637.175
1442.31151	59562.475
1445.73673	60062.275
1449.15965	60324.375
1452.58027	60426.875
1455.9986	60533.375
1459.41463	60889.075
1462.82837	61638.275
1466.23982	62498.775
1469.64898	63298.775
1473.05586	63776.075
1476.46045	63816.275
1479.86276	63626.975
1483.26279	63221.975
1486.66054	63028.775
1490.05602	63227.475
1493.44922	63731.875
1496.84016	64319.375
1500.22882	65247.775
1503.61521	66264.275
1506.99934	67400.475
1510.38121	68134.175
1513.76081	68001.375
1517.13816	66864.375
1520.51324	65461.075
1523.88607	64608.975
1527.25665	64330.275
1530.62498	64358.875
1533.99105	64193.975
1537.35488	63578.075
1540.71647	62595.775
1544.07581	61534.675
1547.4329	60394.075
1550.78776	59385.575
1554.14038	58627.475
1557.49077	58331.475
1560.83892	58137.175
1564.18484	58161.375
1567.52853	58226.375
1570.86999	58438.675
1574.20922	59082.175
1577.54624	59569.375
1580.88103	59572.575
1584.2136	59971.975
1587.54395	61276.875
1590.87208	63706.175
1594.19801	66754.075
1597.52172	69538.375
1600.84321	70338.775
1604.16251	68086.075
1607.47959	64173.975
1610.79447	60016.075
1614.10715	56297.775
1617.41763	53201.075
1620.7259	51099.475
1624.03199	49903.475
1627.33587	49790.975
1630.63757	50835.075
1633.93707	53080.775
1637.23439	57018.575
1640.52951	62813.175
1643.82246	69572.575
1647.11321	74664.775
1650.40179	75177.875
1653.68819	70426.575
1656.97241	62972.275
1660.25446	55979.575
1663.53433	50844.175
1666.81203	47646.775
1670.08756	45655.875
1673.36092	44438.275
1676.63211	43522.175
1679.90115	42940.075
1683.16801	42475.975
1686.43272	42154.475
1689.69527	41860.575
1692.95567	41633.675
1696.2139	41515.675
1699.46999	41522.275
1702.72392	41387.575
1705.97571	41356.575
1709.22535	41239.775
1712.47284	41170.775
1715.71819	41224.875
1718.96139	41142.075
1722.20246	41054.575
1725.44139	40902.275
1728.67818	40700.875
1731.91284	40558.575
1735.14537	40414.175
1738.37576	40249.875
1741.60403	40198.875
1744.83017	40048.275
1748.05418	40001.375
1751.27607	39934.775
1754.49584	39886.875
1757.71349	39822.875
1760.92903	39876.775
1764.14244	39792.475
1767.35375	39789.575
1770.56294	39756.875
1773.77002	39759.375
1776.97499	39691.075
1780.17785	39687.675
1783.37861	39618.475
1786.57727	39499.775
1789.77382	39464.075
1792.96828	39470.675
1796.16064	39405.275
1799.3509	39326.775
1802.53907	39239.475
1805.72514	39192.775
1808.90913	39102.275
1812.09102	39053.675
1815.27083	38970.275
1818.44856	39008.275
1821.6242	38813.675
1824.79776	38793.675
1827.96924	38787.475
1831.13864	38821.375
1834.30597	38780.975
1837.47122	38746.475
1840.6344	38664.275
1843.7955	38707.075
1846.95454	38728.575
1850.11151	38698.375
1853.26642	38691.375
1856.41926	38747.275
1859.57004	38737.975
1862.71876	38644.475
1865.86542	38591.575
1869.01003	38548.275
1872.15258	38462.875
1875.29308	38471.475
1878.43152	38407.575
1881.56792	38351.575
1884.70227	38311.375
1887.83457	38306.475
1890.96482	38295.675
1894.09304	38219.675
1897.21921	38202.275
1900.34335	38051.075
1903.46544	37996.575
1906.58551	38042.675
1909.70353	37977.375
1912.81953	37944.575
1915.93349	37924.575
1919.04543	37812.275
1922.15534	37717.575
1925.26322	37669.575
1928.36908	37654.575
1931.47292	37566.375
1934.57473	37430.675
1937.67453	37369.675
1940.77232	37281.175
1943.86808	37191.875
1946.96184	37080.375
1950.05358	36971.375
1953.14331	36857.775
1956.23103	36792.275
1959.31675	36709.375
1962.40046	36543.975
1965.48217	36442.775
1968.56188	36350.775
1971.63959	36271.575
1974.7153	36190.375
1977.78901	36045.775
1980.86073	35919.575
1983.93046	35788.375
1986.99819	35710.575
1990.06394	35661.275
1993.1277	35584.575
1996.18947	35462.975
1999.24925	35358.975
2002.30706	35280.575
2005.36288	35154.275
2008.41672	35074.475
2011.46859	35043.775
2014.51848	34906.675
2017.56639	34834.275
2020.61233	34703.575
2023.6563	34616.575
2026.6983	34480.775
2029.73833	34439.575
2032.7764	34367.975
2035.8125	34315.875
2038.84664	34214.475
2041.87881	34201.875
2044.90903	34108.175
2047.93729	34016.175
2050.96359	34038.675
2053.98794	33950.775
2057.01034	34003.375
2060.03078	34024.575
2063.04927	33973.675
2066.06582	33962.775
2069.08042	33923.675
2072.09307	33909.275
2075.10378	33813.875
2078.11255	33800.375
2081.11938	33810.075
2084.12426	33776.575
2087.12722	33724.075
2090.12824	33719.075
2093.12732	33777.875
2096.12447	33797.475
2099.11969	33721.175
2102.11299	33737.775
2105.10435	33774.075
2108.09379	33798.475
2111.08131	33824.675
2114.0669	33831.175
2117.05057	33797.275
2120.03233	33798.875
2123.01216	33853.475
2125.99008	33849.875
2128.96609	33918.875
2131.94018	33969.275
2134.91236	34018.575
2137.88263	34024.975
2140.851	34018.675
2143.81746	34068.275
2146.78201	34119.475
2149.74466	34150.075
2152.7054	34115.275
2155.66425	34145.475
2158.6212	34126.775
2161.57625	34096.175
2164.52941	34124.575
2167.48067	34022.875
2170.43004	34028.475
2173.37752	34031.275
2176.32311	34048.975
2179.26681	34094.875
2182.20863	34085.175
2185.14856	34094.575
2188.08661	34093.675
2191.02278	34013.975
2193.95707	34012.875
2196.88948	33951.975
2199.82001	33920.475
2202.74867	33887.275
2205.67545	33812.975
2208.60037	33816.175
2211.52341	33765.375
2214.44458	33713.175
2217.36388	33691.375
2220.28132	33622.075
2223.1969	33530.675
2226.11061	33487.375
2229.02246	33361.075
2231.93245	33330.475
2234.84058	33320.675
2237.74686	33304.775
2240.65128	33255.675
2243.55385	33183.375
2246.45456	33172.075
2249.35343	33084.875
2252.25044	33025.575
2255.14561	32982.475
2258.03893	32958.075
2260.93041	32834.575
2263.82004	32790.975
2266.70783	32718.075
2269.59378	32634.075
2272.4779	32550.375
2275.36017	32545.075
2278.24061	32491.575
2281.11922	32407.275
2283.996	32360.575
2286.87094	32285.575
2289.74405	32248.175
2292.61534	32237.975
2295.4848	32225.475
2298.35243	32181.275
2301.21824	32119.675
2304.08223	32165.675
2306.94439	32116.775
2309.80474	32077.475
2312.66327	32075.975
2315.51999	31994.875
2318.37489	32009.275
2321.22797	31903.075
2324.07925	31930.275
2326.92871	31812.175
2329.77637	31802.475
2332.62222	31707.375
2335.46626	31707.475
2338.3085	31701.375
2341.14893	31654.475
2343.98756	31625.975
2346.8244	31609.175
2349.65943	31596.875
2352.49267	31606.475
2355.32411	31596.975
2358.15376	31558.275
2360.98161	31533.375
2363.80768	31541.075
2366.63195	31453.375
2369.45444	31426.675
2372.27514	31419.075
2375.09405	31377.775
2377.91118	31318.975
2380.72652	31222.575
2383.54009	31132.875
2386.35187	31090.575
2389.16188	30996.675
2391.97011	30950.375
2394.77657	30923.475
2397.58125	30890.675
2400.38416	30831.175
2403.18529	30767.975
2405.98466	30705.375
2408.78226	30698.375
2411.57809	30696.975
2414.37216	30649.175
2417.16446	30630.975
2419.955	30592.875
2422.74378	30523.375
2425.5308	30546.675
2428.31606	30538.175
2431.09956	30515.475
2433.88131	30490.875
2436.6613	30530.975
2439.43954	30477.475
2442.21603	30418.375
2444.99077	30393.275
2447.76377	30404.475
2450.53501	30339.775
2453.30451	30361.075
2456.07226	30325.175
2458.83827	30281.375
2461.60254	30234.075
2464.36507	30242.575
2467.12586	30220.975
2469.88492	30169.675
2472.64224	30170.275
2475.39782	30139.175
2478.15167	30226.375
2480.90379	30197.675
2483.65417	30158.775
2486.40283	30156.275
2489.14976	30143.875
2491.89497	30111.875
2494.63845	30104.875
2497.3802	30031.975
2500.12024	30030.175
2502.85855	30014.175
2505.59514	30016.975
2508.33002	29947.275
2511.06318	29908.075
2513.79462	29890.875
2516.52435	29840.975
2519.25237	29878.675
2521.97867	29816.175
2524.70327	29796.675
2527.42616	29733.175
2530.14734	29727.575
2532.86681	29642.875
2535.58458	29634.375
2538.30065	29653.575
2541.01501	29632.275
2543.72768	29608.675
2546.43864	29584.275
2549.14791	29479.675
2551.85548	29440.975
2554.56136	29416.075
2557.26554	29320.375
2559.96803	29260.775
2562.66883	29273.375
2565.36794	29226.075
2568.06536	29204.175
2570.7611	29130.475
2573.45514	29151.575
2576.14751	29019.475
2578.83819	29011.375
2581.52719	29015.375
2584.21451	28900.175
2586.90015	28903.275
2589.58411	28826.975
2592.2664	28829.375
2594.94701	28753.775
2597.62594	28766.675
2600.30321	28755.475
2602.9788	28740.575
2605.65273	28652.075
2608.32498	28683.875
2610.99557	28611.475
2613.66449	28650.075
2616.33175	28564.175
2618.99734	28530.675
2621.66128	28485.475
2624.32355	28459.475
2626.98416	28438.575
2629.64311	28382.875
2632.30041	28361.675
2634.95605	28344.175
2637.61004	28262.075
2640.26238	28280.775
2642.91306	28276.275
2645.56209	28213.775
2648.20948	28249.175
2650.85521	28215.375
2653.4993	28264.575
2656.14175	28254.975
2658.78255	28276.775
2661.42171	28248.075
2664.05923	28272.375
2666.6951	28256.975
2669.32934	28296.975
2671.96194	28228.475
2674.59291	28211.075
2677.22224	28266.075
2679.84993	28251.475
2682.476	28248.175
2685.10043	28217.275
2687.72324	28187.275
2690.34441	28201.575
2692.96396	28167.875
2695.58188	28227.975
2698.19818	28196.175
2700.81285	28180.775
2703.4259	28149.275
2706.03733	28147.175
2708.64714	28170.075
2711.25533	28191.675
2713.86191	28195.675
2716.46687	28255.475
2719.07021	28233.475
2721.67194	28230.775
2724.27206	28232.475
2726.87057	28249.675
2729.46747	28246.775
2732.06276	28254.975
2734.65644	28215.075
2737.24852	28224.475
2739.83899	28197.275
2742.42786	28207.275
2745.01513	28186.375
2747.60079	28098.975
2750.18486	28036.775
2752.76733	28090.475
2755.3482	28064.475
2757.92747	28008.675
2760.50515	27943.975
2763.08123	27917.575
2765.65573	27875.675
2768.22863	27908.575
2770.79994	27841.275
2773.36967	27851.575
2775.9378	27809.775
2778.50435	27814.575
2781.06932	27779.375
2783.6327	27766.275
2786.1945	27754.175
2788.75471	27645.575
2791.31335	27611.075
2793.87041	27577.375
2796.42589	27510.075
2798.97979	27455.075
2801.53212	27382.175
2804.08288	27366.175
2806.63206	27300.275
2809.17967	27264.675
2811.72571	27158.075
2814.27018	27092.675
2816.81308	26996.575
2819.35442	26943.975
2821.89419	26932.475
2824.43239	26926.275
2826.96904	26887.875
2829.50412	26839.375
2832.03763	26801.375
2834.56959	26763.175
2837.1	26656.075
2839.62884	26670.875
2842.15613	26601.975
2844.68186	26693.775
2847.20604	26648.675
2849.72867	26637.975
2852.24974	26588.475
2854.76927	26548.375
2857.28724	26488.975
2859.80367	26476.075
2862.31855	26455.375
2864.83189	26414.575
2867.34368	26353.775
2869.85393	26331.375
2872.36264	26325.975
2874.8698	26270.575
2877.37543	26193.075
2879.87952	26220.475
2882.38207	26186.375
2884.88308	26221.675
2887.38256	26191.875
2889.88051	26214.375
2892.37692	26203.675
2894.8718	26195.175
2897.36515	26240.475
2899.85698	26213.575
2902.34727	26260.275
2904.83604	26212.275
2907.32328	26251.275
2909.809	26235.375
2912.29319	26256.175
2914.77587	26261.975
2917.25702	26190.875
2919.73665	26218.575
2922.21476	26219.775
2924.69136	26144.175
2927.16644	26199.875
2929.64	26141.375
2932.11205	26131.475
2934.58258	26076.975
2937.05161	26053.275
2939.51912	26093.375
2941.98513	26073.275
2944.44962	25966.075
2946.91261	25962.575
2949.37409	25970.375
2951.83407	25961.075
2954.29254	25965.575
2956.74951	25959.375
2959.20498	25936.675
2961.65895	25869.675
2964.11142	25925.775
2966.56239	25873.675
2969.01186	25837.375
2971.45984	25766.375
2973.90632	25735.175
2976.35131	25650.375
2978.7948	25645.475
2981.23681	25603.875
2983.67732	25524.775
2986.11635	25502.875
2988.55388	25437.875
2990.98993	25393.375
2993.4245	25329.375
2995.85758	25275.975
2998.28917	25177.675
3000.71928	25131.575
3003.14791	25059.075
3005.57506	25070.875
3008.00073	24990.575
3010.42493	24996.275
3012.84764	24951.775
3015.26888	24920.875
3017.68865	24858.375
3020.10694	24819.875
3022.52376	24749.275
3024.9391	24743.575
3027.35298	24720.975
3029.76539	24720.175
3032.17632	24653.275
3034.5858	24604.075
3036.9938	24576.675
3039.40034	24575.975
3041.80542	24540.375
3044.20903	24482.575
3046.61118	24493.975
3049.01187	24410.375
3051.4111	24394.375
3053.80888	24273.775
3056.20519	24285.875
3058.60005	24207.175
3060.99345	24201.975
3063.3854	24104.675
3065.7759	24040.675
3068.16494	24000.275
3070.55254	23895.375
3072.93868	23827.575
3075.32338	23789.575
3077.70662	23741.275
3080.08842	23672.575
3082.46878	23599.475
3084.84769	23561.175
3087.22515	23569.875
3089.60118	23562.575
3091.97576	23513.275
3094.3489	23474.675
3096.72061	23509.275
3099.09087	23496.775
3101.4597	23500.575
3103.82709	23478.675
3106.19305	23480.575
3108.55757	23444.975
3110.92066	23388.575
3113.28232	23373.375
3115.64255	23270.275
3118.00134	23207.375
3120.35871	23136.075
3122.71466	23073.675
3125.06917	23014.475
3127.42226	22991.775
3129.77393	22988.975
3132.12417	22936.575
3134.47299	22884.975
3136.82039	22907.875
3139.16636	22851.675
3141.51092	22847.675
3143.85406	22841.875
3146.19579	22821.575
3148.53609	22827.375
3150.87499	22836.275
3153.21246	22810.675
3155.54853	22863.675
3157.88318	22851.375
3160.21642	22847.275
3162.54826	22750.075
3164.87868	22755.575
3167.2077	22705.575
3169.5353	22707.075
3171.86151	22725.575
3174.18631	22713.575
3176.5097	22695.275
3178.83169	22651.975
3181.15228	22638.275
3183.47147	22509.175
3185.78926	22497.175
3188.10565	22459.175
3190.42065	22429.675
3192.73424	22377.975
3195.04645	22355.175
3197.35725	22326.575
3199.66667	22333.175
3201.97469	22314.375
3204.28132	22287.275
3206.58656	22274.475
3208.8904	22315.475
3211.19287	22322.575
3213.49394	22253.675
3215.79363	22281.075
3218.09193	22290.075
3220.38884	22317.175
3222.68438	22323.775
3224.97853	22247.675
3227.2713	22207.175
3229.56269	22130.275
3231.8527	22172.275
3234.14133	22127.475
3236.42858	22071.875
3238.71446	22012.375
3240.99896	21939.775
3243.28209	21992.075
3245.56384	21930.875
3247.84423	21877.175
3250.12324	21864.175
3252.40088	21860.375
3254.67715	21841.375
3256.95205	21775.675
3259.22558	21772.375
3261.49775	21731.975
3263.76855	21716.475
3266.03799	21639.875
3268.30606	21595.075
3270.57277	21575.875
3272.83812	21557.875
3275.10211	21526.175
3277.36474	21447.875
3279.62601	21477.175
3281.88593	21414.075
3284.14448	21418.675
3286.40168	21377.675
3288.65753	21376.975
3290.91202	21339.775
3293.16516	21296.075
3295.41695	21297.575
3297.66738	21162.075
3299.91647	21031.175
3302.16421	20889.875
3304.4106	20791.675
3306.65564	20649.775
3308.89933	20526.675
3311.14169	20368.975
3313.38269	20193.875
3315.62236	20091.175
3317.86068	19870.875
3320.09766	19716.575
3322.3333	19585.375
3324.5676	19488.975
3326.80056	19181.075
3329.03219	19080.275
3331.26248	4.375
3333.49143	0.275
3335.71905	-0.225
