Data from AgNPs_FTO_APTES_UA_20uM_CRN_1uM_R6G_10uM_NaF_0.1M_Addition_RamanShift__29__12-35-52-055.txt Node

Date: Thu Feb 17 12:35:52 GMT 2022
User: TCL
Spectrometer: QEP01345
Trigger mode: 4
Integration Time (sec): 7.000000E0
Scans to average: 10
Electric dark correction enabled: true
Nonlinearity correction enabled: false
Boxcar width: 0
XAxis mode: Raman Shifts
Number of Pixels in Spectrum: 1044
>>>>>Begin Spectral Data<<<<<
46.04893	0.025
50.45542	-0.675
54.85868	-1.675
59.25871	0.225
63.6555	82.125
68.04907	82.025
72.43941	89.525
76.82654	87.425
81.21044	92.625
85.59113	97.125
89.96862	101.825
94.34289	102.225
98.71396	106.225
103.08183	108.925
107.4465	112.125
111.80798	110.925
116.16626	117.525
120.52136	126.125
124.87327	122.925
129.222	135.625
133.56755	140.525
137.90993	145.125
142.24913	161.025
146.58517	183.925
150.91804	219.425
155.24774	249.725
159.57429	315.225
163.89768	403.525
168.21792	544.525
172.53501	740.625
176.84895	1021.925
181.15975	1434.825
185.46741	2013.625
189.77193	2783.525
194.07331	3735.825
198.37157	4811.725
202.6667	5965.625
206.9587	7118.625
211.24758	8246.725
215.53334	9432.825
219.81599	10722.725
224.09553	12184.925
228.37195	13827.125
232.64527	15608.925
236.91549	17445.925
241.18261	19209.525
245.44663	20782.925
249.70755	22114.625
253.96539	23240.825
258.22014	24215.425
262.4718	25020.825
266.72039	25600.025
270.96589	26005.725
275.20832	26080.325
279.44768	25909.825
283.68397	25694.325
287.91719	25513.025
292.14735	25528.725
296.37445	25833.825
300.59849	26431.725
304.81948	27203.125
309.03742	27690.625
313.25231	27536.725
317.46415	26554.825
321.67296	25061.925
325.87872	23822.225
330.08145	23323.325
334.28114	23299.825
338.47781	23714.625
342.67145	24262.725
346.86207	25060.225
351.04966	26212.425
355.23424	27481.925
359.4158	28487.525
363.59435	29076.625
367.76989	29342.225
371.94243	29398.125
376.11196	29390.825
380.27849	29347.825
384.44203	29241.525
388.60257	29058.325
392.76012	29055.725
396.91468	29410.325
401.06626	30123.225
405.21485	30672.225
409.36047	30452.725
413.50311	29517.325
417.64277	28625.825
421.77947	28156.125
425.9132	28074.925
430.04396	28205.625
434.17176	28414.625
438.2966	28796.225
442.41849	29457.725
446.53742	30315.425
450.6534	31292.225
454.76644	31927.625
458.87653	32154.025
462.98368	31939.325
467.08789	31263.525
471.18916	30555.825
475.2875	29783.025
479.38291	29191.525
483.4754	28761.425
487.56496	28474.025
491.6516	28208.925
495.73531	28054.725
499.81612	28049.725
503.89401	28274.125
507.96899	28529.625
512.04106	28807.625
516.11023	29020.125
520.1765	29226.225
524.23987	29093.425
528.30034	28753.825
532.35792	28385.125
536.41261	27923.925
540.46441	27546.925
544.51333	27392.525
548.55936	27585.725
552.60252	28164.425
556.64279	28861.125
560.6802	29153.525
564.71473	29474.225
568.7464	30337.425
572.7752	31186.325
576.80114	30991.625
580.82422	30629.725
584.84444	30612.725
588.86181	30650.625
592.87633	30854.325
596.888	31043.225
600.89682	31667.625
604.9028	34310.325
608.90594	41307.225
612.90624	49891.925
616.90371	47677.725
620.89834	36213.025
624.89015	30986.425
628.87913	30086.325
632.86528	30109.625
636.84862	30140.325
640.82913	29562.425
644.80683	28535.925
648.78172	27892.825
652.75379	27964.425
656.72306	28901.625
660.68952	30052.525
664.65319	29914.925
668.61405	28881.325
672.57211	28431.625
676.52738	28370.425
680.47986	28324.625
684.42955	28254.225
688.37646	28234.425
692.32058	28402.925
696.26192	28670.525
700.20048	29083.225
704.13626	29391.125
708.06928	29365.625
711.99952	29158.925
715.927	29072.025
719.85171	29094.425
723.77365	28998.225
727.69284	28732.525
731.60928	28548.825
735.52295	28564.425
739.43388	28752.425
743.34206	29047.725
747.24749	29313.125
751.15017	29674.825
755.05012	30353.125
758.94733	31559.525
762.8418	34028.625
766.73354	38147.225
770.62254	42198.425
774.50882	43858.825
778.39237	41875.225
782.27321	37372.025
786.15132	33229.025
790.02671	30910.925
793.89938	29880.325
797.76935	29524.325
801.6366	29305.525
805.50115	29172.625
809.36299	29053.225
813.22213	28931.325
817.07857	28949.325
820.93231	28986.625
824.78336	29107.325
828.63172	29204.425
832.47738	29314.725
836.32036	29382.125
840.16066	29378.625
843.99827	29426.325
847.8332	29376.625
851.66546	29248.925
855.49504	29205.225
859.32195	29173.425
863.1462	29034.925
866.96777	29024.625
870.78668	28983.125
874.60293	29047.425
878.41652	29135.025
882.22745	29296.225
886.03573	29413.025
889.84136	29314.225
893.64433	29222.825
897.44466	29181.325
901.24235	29205.125
905.0374	29157.525
908.8298	29136.125
912.61957	29184.325
916.40671	29406.925
920.19121	29843.225
923.97308	30175.525
927.75233	30424.525
931.52895	30403.825
935.30295	30056.025
939.07433	29432.325
942.84309	28993.325
946.60924	28813.925
950.37278	28648.825
954.13371	28493.425
957.89203	28330.225
961.64774	28245.625
965.40086	28187.925
969.15137	28125.825
972.89929	28002.425
976.64461	28024.225
980.38733	28013.425
984.12747	28156.925
987.86502	28309.025
991.59999	28647.625
995.33237	29205.425
999.06217	30208.925
1002.78939	31303.525
1006.51404	32110.025
1010.23611	32739.125
1013.95561	33191.625
1017.67255	33147.225
1021.38692	32755.025
1025.09872	32447.225
1028.80796	32745.025
1032.51465	33672.225
1036.21877	34483.725
1039.92035	34647.725
1043.61937	34180.025
1047.31584	33367.125
1051.00976	32469.425
1054.70114	31988.625
1058.38998	31938.025
1062.07627	32036.925
1065.76003	32238.925
1069.44126	32467.925
1073.11995	32775.725
1076.79611	33036.325
1080.46974	33274.225
1084.14085	33766.825
1087.80943	34385.125
1091.47549	34580.425
1095.13903	34123.825
1098.80005	33303.425
1102.45857	32545.025
1106.11456	32192.125
1109.76805	32233.125
1113.41903	32703.025
1117.06751	33439.125
1120.71348	34266.525
1124.35696	35200.325
1127.99793	35856.825
1131.63641	35664.725
1135.2724	34687.225
1138.90589	33800.525
1142.5369	33205.925
1146.16542	32807.225
1149.79145	32677.625
1153.415	32830.925
1157.03607	33117.825
1160.65467	33678.025
1164.27079	34594.725
1167.88443	36031.325
1171.49561	38360.525
1175.10432	41987.025
1178.71056	46691.625
1182.31434	50493.825
1185.91565	51930.225
1189.51451	51176.725
1193.11091	48722.425
1196.70485	45657.125
1200.29634	43284.425
1203.88538	41520.825
1207.47197	39849.325
1211.05612	38373.525
1214.63782	37619.925
1218.21708	37603.825
1221.79391	37840.125
1225.36829	37969.725
1228.94024	37830.825
1232.50976	37563.225
1236.07685	37428.325
1239.6415	37583.625
1243.20374	37733.125
1246.76355	38095.925
1250.32093	38678.025
1253.8759	39633.025
1257.42845	40865.325
1260.97859	41921.325
1264.52631	42702.625
1268.07163	43560.325
1271.61453	44457.225
1275.15503	45469.625
1278.69312	46420.425
1282.22882	47288.125
1285.76211	48159.225
1289.29301	49308.025
1292.82151	50474.325
1296.34761	51905.225
1299.87133	54151.025
1303.39266	57728.425
1306.9116	62707.825
1310.42815	68001.425
1313.94233	70911.925
1317.45412	69840.525
1320.96354	66494.725
1324.47058	62787.925
1327.97525	59748.825
1331.47754	58072.325
1334.97747	57932.725
1338.47502	59107.825
1341.97022	60679.025
1345.46305	62033.725
1348.95352	63016.725
1352.44163	64280.525
1355.92738	67404.825
1359.41078	73473.325
1362.89183	79062.425
1366.37053	76740.525
1369.84688	67460.925
1373.32088	58474.325
1376.79254	52498.225
1380.26186	49409.625
1383.72883	47808.825
1387.19347	46871.325
1390.65578	46017.625
1394.11575	45516.825
1397.57339	45493.525
1401.0287	46095.125
1404.48168	47072.825
1407.93234	48344.125
1411.38068	49601.725
1414.82669	49922.625
1418.27039	49054.125
1421.71177	47447.325
1425.15083	45951.425
1428.58758	45309.725
1432.02203	45442.325
1435.45416	45692.425
1438.88399	45847.425
1442.31151	45852.725
1445.73673	46162.525
1449.15965	46412.225
1452.58027	46342.325
1455.9986	45983.525
1459.41463	45834.825
1462.82837	46164.725
1466.23982	46895.725
1469.64898	47882.625
1473.05586	48547.425
1476.46045	49158.025
1479.86276	50028.925
1483.26279	51025.725
1486.66054	52185.825
1490.05602	53770.325
1493.44922	55617.525
1496.84016	57975.825
1500.22882	61185.425
1503.61521	65417.125
1506.99934	70068.225
1510.38121	74061.025
1513.76081	74981.625
1517.13816	71434.925
1520.51324	65236.225
1523.88607	59601.325
1527.25665	55813.525
1530.62498	53598.425
1533.99105	52239.225
1537.35488	51415.225
1540.71647	50914.525
1544.07581	50705.725
1547.4329	50355.825
1550.78776	49827.425
1554.14038	49395.225
1557.49077	49301.325
1560.83892	49642.025
1564.18484	50178.525
1567.52853	50705.425
1570.86999	50891.825
1574.20922	51072.225
1577.54624	50627.425
1580.88103	49166.025
1584.2136	47637.925
1587.54395	47582.125
1590.87208	49441.925
1594.19801	53078.725
1597.52172	57214.625
1600.84321	59190.725
1604.16251	57476.825
1607.47959	53550.425
1610.79447	49113.125
1614.10715	45182.625
1617.41763	42182.725
1620.7259	40343.825
1624.03199	39587.725
1627.33587	39706.825
1630.63757	40724.625
1633.93707	42707.125
1637.23439	45444.125
1640.52951	48960.625
1643.82246	52981.425
1647.11321	56949.125
1650.40179	58963.625
1653.68819	56639.025
1656.97241	50533.025
1660.25446	43971.325
1663.53433	39322.325
1666.81203	36421.325
1670.08756	34704.625
1673.36092	33581.825
1676.63211	32898.925
1679.90115	32404.225
1683.16801	32041.725
1686.43272	31731.725
1689.69527	31546.025
1692.95567	31417.525
1696.2139	31404.025
1699.46999	31391.125
1702.72392	31323.625
1705.97571	31305.325
1709.22535	31223.725
1712.47284	31305.225
1715.71819	31268.425
1718.96139	31352.925
1722.20246	31230.025
1725.44139	31132.825
1728.67818	30959.925
1731.91284	30819.025
1735.14537	30683.425
1738.37576	30556.325
1741.60403	30488.125
1744.83017	30384.825
1748.05418	30338.225
1751.27607	30271.125
1754.49584	30271.825
1757.71349	30319.525
1760.92903	30273.125
1764.14244	30247.225
1767.35375	30233.925
1770.56294	30215.825
1773.77002	30216.825
1776.97499	30240.425
1780.17785	30157.025
1783.37861	30128.525
1786.57727	30049.025
1789.77382	30006.925
1792.96828	30054.825
1796.16064	30027.425
1799.3509	30034.525
1802.53907	30030.725
1805.72514	29938.125
1808.90913	29896.225
1812.09102	29854.725
1815.27083	29872.425
1818.44856	29773.425
1821.6242	29717.225
1824.79776	29700.025
1827.96924	29676.125
1831.13864	29685.225
1834.30597	29703.025
1837.47122	29632.425
1840.6344	29620.725
1843.7955	29655.725
1846.95454	29669.425
1850.11151	29671.325
1853.26642	29652.725
1856.41926	29693.425
1859.57004	29721.725
1862.71876	29735.025
1865.86542	29704.425
1869.01003	29728.525
1872.15258	29686.825
1875.29308	29731.725
1878.43152	29726.725
1881.56792	29765.625
1884.70227	29798.425
1887.83457	29791.825
1890.96482	29852.525
1894.09304	29783.325
1897.21921	29778.125
1900.34335	29756.225
1903.46544	29766.525
1906.58551	29844.125
1909.70353	29825.925
1912.81953	29855.525
1915.93349	29817.025
1919.04543	29791.925
1922.15534	29813.625
1925.26322	29742.425
1928.36908	29685.625
1931.47292	29616.525
1934.57473	29531.125
1937.67453	29507.025
1940.77232	29393.825
1943.86808	29260.925
1946.96184	29151.425
1950.05358	29111.625
1953.14331	29017.225
1956.23103	28940.125
1959.31675	28831.225
1962.40046	28714.025
1965.48217	28618.725
1968.56188	28588.725
1971.63959	28508.425
1974.7153	28487.125
1977.78901	28409.625
1980.86073	28253.225
1983.93046	28227.425
1986.99819	28179.125
1990.06394	28071.525
1993.1277	28046.025
1996.18947	27875.725
1999.24925	27878.325
2002.30706	27789.425
2005.36288	27657.525
2008.41672	27648.925
2011.46859	27558.025
2014.51848	27482.125
2017.56639	27435.025
2020.61233	27366.925
2023.6563	27262.125
2026.6983	27223.125
2029.73833	27176.825
2032.7764	27116.125
2035.8125	27101.925
2038.84664	27057.425
2041.87881	27035.425
2044.90903	27006.325
2047.93729	26958.025
2050.96359	26904.625
2053.98794	26860.925
2057.01034	26869.925
2060.03078	26873.425
2063.04927	26879.725
2066.06582	26833.325
2069.08042	26838.525
2072.09307	26760.325
2075.10378	26744.625
2078.11255	26727.825
2081.11938	26746.125
2084.12426	26678.825
2087.12722	26712.925
2090.12824	26669.825
2093.12732	26670.325
2096.12447	26687.325
2099.11969	26658.325
2102.11299	26647.625
2105.10435	26704.525
2108.09379	26727.825
2111.08131	26711.525
2114.0669	26688.425
2117.05057	26703.225
2120.03233	26741.425
2123.01216	26763.125
2125.99008	26827.625
2128.96609	26831.425
2131.94018	26862.925
2134.91236	26928.625
2137.88263	26939.425
2140.851	26936.725
2143.81746	26979.525
2146.78201	26939.325
2149.74466	26961.025
2152.7054	26968.025
2155.66425	26991.125
2158.6212	27008.425
2161.57625	26981.125
2164.52941	26946.725
2167.48067	26991.325
2170.43004	26916.025
2173.37752	26922.425
2176.32311	26961.725
2179.26681	26953.225
2182.20863	26994.725
2185.14856	27033.725
2188.08661	27009.825
2191.02278	27016.725
2193.95707	26967.025
2196.88948	26960.525
2199.82001	26970.825
2202.74867	26947.825
2205.67545	26932.025
2208.60037	26908.725
2211.52341	26924.125
2214.44458	26858.225
2217.36388	26845.925
2220.28132	26843.025
2223.1969	26770.125
2226.11061	26737.025
2229.02246	26626.225
2231.93245	26585.425
2234.84058	26540.325
2237.74686	26518.025
2240.65128	26494.125
2243.55385	26503.825
2246.45456	26501.625
2249.35343	26428.025
2252.25044	26453.725
2255.14561	26374.125
2258.03893	26411.225
2260.93041	26392.325
2263.82004	26314.225
2266.70783	26235.425
2269.59378	26145.025
2272.4779	26099.125
2275.36017	26085.625
2278.24061	26002.625
2281.11922	25958.025
2283.996	25918.425
2286.87094	25921.725
2289.74405	25876.625
2292.61534	25831.925
2295.4848	25812.525
2298.35243	25863.825
2301.21824	25809.225
2304.08223	25828.325
2306.94439	25830.425
2309.80474	25850.025
2312.66327	25885.825
2315.51999	25849.425
2318.37489	25856.325
2321.22797	25842.825
2324.07925	25810.425
2326.92871	25777.125
2329.77637	25769.525
2332.62222	25724.625
2335.46626	25735.025
2338.3085	25713.425
2341.14893	25757.625
2343.98756	25769.225
2346.8244	25745.425
2349.65943	25796.225
2352.49267	25828.325
2355.32411	25867.025
2358.15376	25776.925
2360.98161	25841.725
2363.80768	25795.025
2366.63195	25787.625
2369.45444	25751.825
2372.27514	25701.225
2375.09405	25665.725
2377.91118	25595.525
2380.72652	25495.225
2383.54009	25452.025
2386.35187	25360.225
2389.16188	25284.325
2391.97011	25237.425
2394.77657	25187.125
2397.58125	25167.325
2400.38416	25147.625
2403.18529	25043.725
2405.98466	25025.825
2408.78226	24973.125
2411.57809	24953.625
2414.37216	24838.325
2417.16446	24839.125
2419.955	24804.725
2422.74378	24821.625
2425.5308	24773.925
2428.31606	24802.025
2431.09956	24789.325
2433.88131	24792.125
2436.6613	24807.725
2439.43954	24771.925
2442.21603	24737.425
2444.99077	24713.025
2447.76377	24705.525
2450.53501	24682.225
2453.30451	24665.725
2456.07226	24678.125
2458.83827	24634.625
2461.60254	24594.325
2464.36507	24604.625
2467.12586	24639.725
2469.88492	24641.525
2472.64224	24616.025
2475.39782	24641.825
2478.15167	24657.325
2480.90379	24692.725
2483.65417	24702.525
2486.40283	24776.025
2489.14976	24794.725
2491.89497	24789.025
2494.63845	24809.225
2497.3802	24818.625
2500.12024	24785.725
2502.85855	24781.225
2505.59514	24734.725
2508.33002	24678.925
2511.06318	24662.025
2513.79462	24556.825
2516.52435	24569.725
2519.25237	24545.325
2521.97867	24493.825
2524.70327	24469.925
2527.42616	24415.225
2530.14734	24397.525
2532.86681	24365.925
2535.58458	24396.225
2538.30065	24364.825
2541.01501	24401.125
2543.72768	24358.125
2546.43864	24366.525
2549.14791	24343.825
2551.85548	24273.625
2554.56136	24251.725
2557.26554	24191.825
2559.96803	24159.725
2562.66883	24140.025
2565.36794	24150.825
2568.06536	24120.525
2570.7611	24060.625
2573.45514	24012.425
2576.14751	24016.925
2578.83819	24020.025
2581.52719	24007.425
2584.21451	24032.025
2586.90015	23971.625
2589.58411	23963.025
2592.2664	23963.425
2594.94701	23934.225
2597.62594	23974.425
2600.30321	23946.825
2602.9788	23971.125
2605.65273	23942.625
2608.32498	23939.125
2610.99557	23924.025
2613.66449	23969.025
2616.33175	23961.625
2618.99734	23895.325
2621.66128	23916.525
2624.32355	23949.125
2626.98416	23908.125
2629.64311	23866.025
2632.30041	23849.325
2634.95605	23883.225
2637.61004	23825.925
2640.26238	23792.025
2642.91306	23731.425
2645.56209	23689.125
2648.20948	23674.425
2650.85521	23661.625
2653.4993	23665.525
2656.14175	23621.525
2658.78255	23679.125
2661.42171	23678.825
2664.05923	23749.425
2666.6951	23756.025
2669.32934	23760.325
2671.96194	23789.425
2674.59291	23825.525
2677.22224	23816.025
2679.84993	23831.625
2682.476	23802.025
2685.10043	23792.525
2687.72324	23790.325
2690.34441	23790.325
2692.96396	23785.925
2695.58188	23776.225
2698.19818	23743.525
2700.81285	23717.025
2703.4259	23719.325
2706.03733	23748.025
2708.64714	23736.925
2711.25533	23732.425
2713.86191	23703.225
2716.46687	23770.625
2719.07021	23736.225
2721.67194	23786.125
2724.27206	23755.025
2726.87057	23777.225
2729.46747	23784.725
2732.06276	23792.225
2734.65644	23766.125
2737.24852	23806.425
2739.83899	23753.525
2742.42786	23771.825
2745.01513	23766.725
2747.60079	23729.125
2750.18486	23730.925
2752.76733	23749.025
2755.3482	23727.625
2757.92747	23701.025
2760.50515	23642.625
2763.08123	23655.525
2765.65573	23598.325
2768.22863	23623.925
2770.79994	23562.725
2773.36967	23580.525
2775.9378	23600.025
2778.50435	23584.225
2781.06932	23606.925
2783.6327	23535.325
2786.1945	23531.725
2788.75471	23537.125
2791.31335	23454.625
2793.87041	23421.625
2796.42589	23386.825
2798.97979	23369.325
2801.53212	23326.725
2804.08288	23309.125
2806.63206	23236.825
2809.17967	23232.825
2811.72571	23198.525
2814.27018	23153.525
2816.81308	23143.725
2819.35442	23087.425
2821.89419	23072.425
2824.43239	23139.725
2826.96904	23088.525
2829.50412	23116.025
2832.03763	23098.225
2834.56959	23100.725
2837.1	23085.725
2839.62884	23074.225
2842.15613	23027.125
2844.68186	23051.825
2847.20604	23027.925
2849.72867	23053.125
2852.24974	23030.325
2854.76927	22986.125
2857.28724	22954.425
2859.80367	22947.225
2862.31855	22909.925
2864.83189	22908.625
2867.34368	22858.225
2869.85393	22877.625
2872.36264	22798.825
2874.8698	22821.525
2877.37543	22776.625
2879.87952	22782.125
2882.38207	22784.325
2884.88308	22767.925
2887.38256	22789.025
2889.88051	22758.125
2892.37692	22749.925
2894.8718	22756.825
2897.36515	22794.625
2899.85698	22806.225
2902.34727	22821.725
2904.83604	22817.925
2907.32328	22858.125
2909.809	22851.325
2912.29319	22898.525
2914.77587	22824.925
2917.25702	22852.925
2919.73665	22767.325
2922.21476	22828.625
2924.69136	22747.125
2927.16644	22771.425
2929.64	22737.425
2932.11205	22681.125
2934.58258	22636.925
2937.05161	22675.825
2939.51912	22666.325
2941.98513	22619.825
2944.44962	22580.325
2946.91261	22518.025
2949.37409	22575.425
2951.83407	22526.225
2954.29254	22509.725
2956.74951	22457.325
2959.20498	22467.425
2961.65895	22442.125
2964.11142	22423.825
2966.56239	22372.425
2969.01186	22385.725
2971.45984	22280.425
2973.90632	22277.925
2976.35131	22220.525
2978.7948	22172.025
2981.23681	22153.125
2983.67732	22121.725
2986.11635	22052.725
2988.55388	21993.925
2990.98993	21959.225
2993.4245	21932.225
2995.85758	21888.425
2998.28917	21799.225
3000.71928	21770.025
3003.14791	21701.725
3005.57506	21732.525
3008.00073	21646.425
3010.42493	21673.325
3012.84764	21578.225
3015.26888	21591.925
3017.68865	21503.125
3020.10694	21453.625
3022.52376	21439.825
3024.9391	21394.925
3027.35298	21344.525
3029.76539	21359.525
3032.17632	21281.725
3034.5858	21275.525
3036.9938	21265.725
3039.40034	21278.125
3041.80542	21212.925
3044.20903	21219.225
3046.61118	21165.425
3049.01187	21105.925
3051.4111	21073.425
3053.80888	21027.525
3056.20519	20976.625
3058.60005	20915.925
3060.99345	20885.525
3063.3854	20784.325
3065.7759	20738.225
3068.16494	20655.825
3070.55254	20602.225
3072.93868	20536.725
3075.32338	20413.025
3077.70662	20394.825
3080.08842	20322.725
3082.46878	20258.825
3084.84769	20246.825
3087.22515	20221.025
3089.60118	20209.425
3091.97576	20171.225
3094.3489	20173.825
3096.72061	20179.725
3099.09087	20123.825
3101.4597	20136.925
3103.82709	20137.025
3106.19305	20097.125
3108.55757	20105.125
3110.92066	20020.225
3113.28232	20010.725
3115.64255	19941.625
3118.00134	19916.325
3120.35871	19833.425
3122.71466	19790.225
3125.06917	19755.825
3127.42226	19735.825
3129.77393	19722.825
3132.12417	19680.825
3134.47299	19661.325
3136.82039	19623.725
3139.16636	19636.325
3141.51092	19610.125
3143.85406	19613.525
3146.19579	19600.825
3148.53609	19588.425
3150.87499	19609.825
3153.21246	19597.025
3155.54853	19627.925
3157.88318	19586.925
3160.21642	19622.125
3162.54826	19559.225
3164.87868	19555.625
3167.2077	19514.625
3169.5353	19509.425
3171.86151	19469.625
3174.18631	19438.525
3176.5097	19442.825
3178.83169	19406.925
3181.15228	19391.925
3183.47147	19338.025
3185.78926	19305.025
3188.10565	19312.325
3190.42065	19278.225
3192.73424	19260.125
3195.04645	19241.425
3197.35725	19201.725
3199.66667	19202.925
3201.97469	19200.825
3204.28132	19207.825
3206.58656	19202.325
3208.8904	19207.425
3211.19287	19223.525
3213.49394	19211.325
3215.79363	19219.525
3218.09193	19221.225
3220.38884	19248.025
3222.68438	19265.225
3224.97853	19165.825
3227.2713	19171.225
3229.56269	19123.325
3231.8527	19142.225
3234.14133	19087.625
3236.42858	19082.625
3238.71446	19034.125
3240.99896	18999.925
3243.28209	18982.925
3245.56384	18960.025
3247.84423	18920.625
3250.12324	18895.025
3252.40088	18866.525
3254.67715	18872.025
3256.95205	18826.125
3259.22558	18807.725
3261.49775	18793.825
3263.76855	18791.225
3266.03799	18726.825
3268.30606	18694.825
3270.57277	18681.125
3272.83812	18638.225
3275.10211	18603.725
3277.36474	18583.125
3279.62601	18552.125
3281.88593	18531.225
3284.14448	18527.425
3286.40168	18525.525
3288.65753	18483.725
3290.91202	18493.525
3293.16516	18472.825
3295.41695	18435.825
3297.66738	18320.825
3299.91647	18235.925
3302.16421	18142.425
3304.4106	18011.025
3306.65564	17927.925
3308.89933	17799.725
3311.14169	17677.225
3313.38269	17507.225
3315.62236	17430.325
3317.86068	17249.325
3320.09766	17108.625
3322.3333	16996.425
3324.5676	16936.625
3326.80056	16660.825
3329.03219	16556.625
3331.26248	4.425
3333.49143	-1.675
3335.71905	-0.175
