Data from AgNPs_FTO_APTES_UA_20uM_CRN_0uM_R6G_10uM_NaF_0.1M_Addition_RamanShift__5__10-55-31-924.txt Node

Date: Thu Feb 17 10:55:31 GMT 2022
User: TCL
Spectrometer: QEP01345
Trigger mode: 4
Integration Time (sec): 7.000000E0
Scans to average: 10
Electric dark correction enabled: true
Nonlinearity correction enabled: false
Boxcar width: 0
XAxis mode: Raman Shifts
Number of Pixels in Spectrum: 1044
>>>>>Begin Spectral Data<<<<<
46.04893	0.0375
50.45542	0.5375
54.85868	-1.8625
59.25871	0.3375
63.6555	37.2375
68.04907	35.7375
72.43941	41.3375
76.82654	43.2375
81.21044	42.2375
85.59113	46.9375
89.96862	47.5375
94.34289	50.2375
98.71396	46.4375
103.08183	53.5375
107.4465	52.1375
111.80798	53.0375
116.16626	57.6375
120.52136	61.6375
124.87327	60.9375
129.222	66.2375
133.56755	67.9375
137.90993	71.5375
142.24913	77.6375
146.58517	88.8375
150.91804	107.1375
155.24774	120.0375
159.57429	155.6375
163.89768	201.3375
168.21792	274.9375
172.53501	368.3375
176.84895	514.0375
181.15975	728.4375
185.46741	1026.4375
189.77193	1415.3375
194.07331	1919.8375
198.37157	2490.9375
202.6667	3092.8375
206.9587	3700.4375
211.24758	4301.2375
215.53334	4917.0375
219.81599	5570.2375
224.09553	6324.4375
228.37195	7128.3375
232.64527	7987.2375
236.91549	8833.2375
241.18261	9642.2375
245.44663	10326.6375
249.70755	10823.3375
253.96539	11234.0375
258.22014	11599.2375
262.4718	11929.0375
266.72039	12167.5375
270.96589	12248.8375
275.20832	12177.5375
279.44768	11960.1375
283.68397	11774.5375
287.91719	11581.0375
292.14735	11557.5375
296.37445	11710.0375
300.59849	12070.0375
304.81948	12536.3375
309.03742	13013.7375
313.25231	13201.4375
317.46415	12948.3375
321.67296	12224.9375
325.87872	11418.3375
330.08145	10917.1375
334.28114	10703.8375
338.47781	10792.5375
342.67145	11032.5375
346.86207	11424.4375
351.04966	11969.6375
355.23424	12614.8375
359.4158	13012.0375
363.59435	13083.4375
367.76989	12940.4375
371.94243	12770.8375
376.11196	12579.5375
380.27849	12438.7375
384.44203	12286.4375
388.60257	12214.7375
392.76012	12295.0375
396.91468	12523.2375
401.06626	12807.9375
405.21485	12952.8375
409.36047	12670.3375
413.50311	12036.1375
417.64277	11521.4375
421.77947	11286.8375
425.9132	11199.0375
430.04396	11216.6375
434.17176	11159.6375
438.2966	11183.5375
442.41849	11277.7375
446.53742	11529.6375
450.6534	11738.5375
454.76644	11806.6375
458.87653	11746.4375
462.98368	11623.3375
467.08789	11499.2375
471.18916	11288.9375
475.2875	10975.9375
479.38291	10723.2375
483.4754	10557.7375
487.56496	10461.5375
491.6516	10404.8375
495.73531	10395.0375
499.81612	10405.9375
503.89401	10542.1375
507.96899	10674.3375
512.04106	10787.6375
516.11023	10936.1375
520.1765	11001.6375
524.23987	10984.0375
528.30034	10891.5375
532.35792	10729.5375
536.41261	10522.4375
540.46441	10304.3375
544.51333	10142.5375
548.55936	10172.6375
552.60252	10428.7375
556.64279	10706.5375
560.6802	10882.5375
564.71473	11028.3375
568.7464	11386.0375
572.7752	11694.8375
576.80114	11626.8375
580.82422	11623.7375
584.84444	11861.3375
588.86181	12312.3375
592.87633	12786.0375
596.888	12971.9375
600.89682	12718.3375
604.9028	13242.1375
608.90594	16175.4375
612.90624	20750.0375
616.90371	20448.1375
620.89834	14349.8375
624.89015	10979.5375
628.87913	10362.7375
632.86528	10569.0375
636.84862	10818.5375
640.82913	10552.5375
644.80683	9999.5375
648.78172	9640.2375
652.75379	9647.3375
656.72306	9982.8375
660.68952	10456.5375
664.65319	10347.3375
668.61405	9736.1375
672.57211	9401.0375
676.52738	9359.5375
680.47986	9376.3375
684.42955	9293.3375
688.37646	9217.1375
692.32058	9197.2375
696.26192	9290.2375
700.20048	9428.3375
704.13626	9535.1375
708.06928	9553.6375
711.99952	9496.1375
715.927	9419.6375
719.85171	9473.3375
723.77365	9506.9375
727.69284	9394.3375
731.60928	9218.0375
735.52295	9166.5375
739.43388	9174.9375
743.34206	9205.9375
747.24749	9247.9375
751.15017	9329.5375
755.05012	9537.6375
758.94733	10061.0375
762.8418	11299.6375
766.73354	13577.2375
770.62254	15660.3375
774.50882	16231.7375
778.39237	15196.9375
782.27321	13345.5375
786.15132	11425.4375
790.02671	10150.9375
793.89938	9506.7375
797.76935	9225.6375
801.6366	9103.0375
805.50115	9003.3375
809.36299	8900.5375
813.22213	8802.0375
817.07857	8724.6375
820.93231	8678.8375
824.78336	8679.8375
828.63172	8674.7375
832.47738	8675.0375
836.32036	8647.9375
840.16066	8566.0375
843.99827	8538.1375
847.8332	8535.8375
851.66546	8549.6375
855.49504	8545.6375
859.32195	8536.8375
863.1462	8501.9375
866.96777	8482.1375
870.78668	8448.5375
874.60293	8450.3375
878.41652	8487.4375
882.22745	8539.3375
886.03573	8593.6375
889.84136	8612.2375
893.64433	8598.7375
897.44466	8614.1375
901.24235	8646.4375
905.0374	8599.8375
908.8298	8530.1375
912.61957	8471.5375
916.40671	8507.8375
920.19121	8590.8375
923.97308	8728.3375
927.75233	8914.2375
931.52895	9010.6375
935.30295	8831.3375
939.07433	8455.9375
942.84309	8143.7375
946.60924	7967.5375
950.37278	7866.1375
954.13371	7828.4375
957.89203	7783.3375
961.64774	7741.1375
965.40086	7698.9375
969.15137	7662.3375
972.89929	7611.5375
976.64461	7589.8375
980.38733	7535.4375
984.12747	7501.8375
987.86502	7524.5375
991.59999	7598.0375
995.33237	7655.5375
999.06217	7760.3375
1002.78939	7980.8375
1006.51404	8221.8375
1010.23611	8475.2375
1013.95561	8607.9375
1017.67255	8562.1375
1021.38692	8397.2375
1025.09872	8174.5375
1028.80796	7971.9375
1032.51465	7872.6375
1036.21877	7854.9375
1039.92035	7893.5375
1043.61937	7924.6375
1047.31584	8001.5375
1051.00976	8044.8375
1054.70114	8067.5375
1058.38998	8077.1375
1062.07627	8081.8375
1065.76003	8105.7375
1069.44126	8192.6375
1073.11995	8361.5375
1076.79611	8575.5375
1080.46974	8803.9375
1084.14085	9135.8375
1087.80943	9550.4375
1091.47549	9708.5375
1095.13903	9492.1375
1098.80005	9027.8375
1102.45857	8617.3375
1106.11456	8391.7375
1109.76805	8344.9375
1113.41903	8481.3375
1117.06751	8802.4375
1120.71348	9238.6375
1124.35696	9758.4375
1127.99793	10308.2375
1131.63641	10368.8375
1135.2724	9860.3375
1138.90589	9304.6375
1142.5369	8975.8375
1146.16542	8793.3375
1149.79145	8673.4375
1153.415	8682.5375
1157.03607	8744.9375
1160.65467	9069.7375
1164.27079	9663.3375
1167.88443	10477.1375
1171.49561	11560.1375
1175.10432	13131.0375
1178.71056	15228.1375
1182.31434	17138.1375
1185.91565	17762.4375
1189.51451	17374.4375
1193.11091	16348.5375
1196.70485	15007.4375
1200.29634	13724.5375
1203.88538	12602.7375
1207.47197	11660.7375
1211.05612	10845.1375
1214.63782	10324.4375
1218.21708	9966.8375
1221.79391	9809.5375
1225.36829	9800.7375
1228.94024	9865.3375
1232.50976	9840.9375
1236.07685	9752.8375
1239.6415	9690.4375
1243.20374	9612.0375
1246.76355	9608.4375
1250.32093	9640.5375
1253.8759	9819.0375
1257.42845	10235.2375
1260.97859	10813.7375
1264.52631	11450.9375
1268.07163	12027.4375
1271.61453	12506.4375
1275.15503	12857.4375
1278.69312	13039.9375
1282.22882	13305.8375
1285.76211	13799.0375
1289.29301	14581.5375
1292.82151	15375.0375
1296.34761	16186.6375
1299.87133	17237.0375
1303.39266	18788.7375
1306.9116	20943.0375
1310.42815	23394.3375
1313.94233	24786.1375
1317.45412	23954.5375
1320.96354	21860.8375
1324.47058	19841.2375
1327.97525	18199.6375
1331.47754	17093.0375
1334.97747	16483.7375
1338.47502	16279.3375
1341.97022	16445.9375
1345.46305	17256.1375
1348.95352	18640.5375
1352.44163	20253.9375
1355.92738	22122.7375
1359.41078	25027.0375
1362.89183	28386.0375
1366.37053	28550.9375
1369.84688	24071.3375
1373.32088	18708.4375
1376.79254	15266.0375
1380.26186	13730.6375
1383.72883	12919.8375
1387.19347	12275.4375
1390.65578	11678.8375
1394.11575	11371.0375
1397.57339	11297.0375
1401.0287	11366.5375
1404.48168	11428.0375
1407.93234	11302.5375
1411.38068	11067.0375
1414.82669	10857.2375
1418.27039	10685.8375
1421.71177	10496.7375
1425.15083	10253.5375
1428.58758	10133.2375
1432.02203	10247.9375
1435.45416	10551.8375
1438.88399	10728.6375
1442.31151	10721.9375
1445.73673	10718.8375
1449.15965	10774.7375
1452.58027	10776.0375
1455.9986	10748.0375
1459.41463	10846.1375
1462.82837	11019.1375
1466.23982	11242.9375
1469.64898	11517.3375
1473.05586	11736.7375
1476.46045	11837.5375
1479.86276	11982.6375
1483.26279	12178.1375
1486.66054	12568.3375
1490.05602	13231.6375
1493.44922	14163.8375
1496.84016	15570.7375
1500.22882	17551.4375
1503.61521	20190.2375
1506.99934	23150.5375
1510.38121	25877.1375
1513.76081	26842.4375
1517.13816	25046.5375
1520.51324	21628.3375
1523.88607	18248.3375
1527.25665	15975.5375
1530.62498	14595.5375
1533.99105	13724.6375
1537.35488	13006.9375
1540.71647	12348.5375
1544.07581	11844.0375
1547.4329	11486.4375
1550.78776	11359.7375
1554.14038	11357.0375
1557.49077	11550.0375
1560.83892	11851.2375
1564.18484	12325.0375
1567.52853	12910.2375
1570.86999	13436.0375
1574.20922	13783.6375
1577.54624	13770.0375
1580.88103	13044.6375
1584.2136	11891.9375
1587.54395	11285.9375
1590.87208	11366.1375
1594.19801	12028.2375
1597.52172	12883.8375
1600.84321	13093.3375
1604.16251	12315.9375
1607.47959	11315.5375
1610.79447	10414.1375
1614.10715	9541.1375
1617.41763	8751.6375
1620.7259	8160.8375
1624.03199	7888.9375
1627.33587	7924.1375
1630.63757	8283.1375
1633.93707	9098.5375
1637.23439	10447.9375
1640.52951	12589.2375
1643.82246	15288.5375
1647.11321	18072.3375
1650.40179	19657.4375
1653.68819	18739.5375
1656.97241	15482.1375
1660.25446	11871.7375
1663.53433	9295.2375
1666.81203	7773.4375
1670.08756	6909.1375
1673.36092	6427.5375
1676.63211	6114.2375
1679.90115	5910.6375
1683.16801	5761.1375
1686.43272	5643.4375
1689.69527	5572.7375
1692.95567	5476.9375
1696.2139	5429.9375
1699.46999	5375.5375
1702.72392	5372.1375
1705.97571	5352.5375
1709.22535	5293.0375
1712.47284	5311.9375
1715.71819	5339.9375
1718.96139	5311.7375
1722.20246	5296.2375
1725.44139	5261.4375
1728.67818	5197.6375
1731.91284	5116.4375
1735.14537	5064.2375
1738.37576	4975.7375
1741.60403	4993.5375
1744.83017	5000.2375
1748.05418	4975.4375
1751.27607	4961.4375
1754.49584	4932.1375
1757.71349	4941.2375
1760.92903	4955.8375
1764.14244	4925.3375
1767.35375	4921.0375
1770.56294	4916.2375
1773.77002	4912.0375
1776.97499	4890.5375
1780.17785	4875.7375
1783.37861	4860.1375
1786.57727	4841.8375
1789.77382	4824.8375
1792.96828	4796.3375
1796.16064	4801.7375
1799.3509	4766.6375
1802.53907	4735.4375
1805.72514	4695.1375
1808.90913	4658.3375
1812.09102	4613.9375
1815.27083	4593.6375
1818.44856	4551.2375
1821.6242	4543.9375
1824.79776	4507.8375
1827.96924	4496.1375
1831.13864	4492.3375
1834.30597	4491.6375
1837.47122	4488.4375
1840.6344	4466.6375
1843.7955	4451.7375
1846.95454	4467.8375
1850.11151	4415.8375
1853.26642	4419.0375
1856.41926	4406.9375
1859.57004	4386.3375
1862.71876	4356.8375
1865.86542	4322.9375
1869.01003	4303.5375
1872.15258	4276.7375
1875.29308	4282.2375
1878.43152	4250.5375
1881.56792	4244.3375
1884.70227	4223.5375
1887.83457	4226.2375
1890.96482	4191.5375
1894.09304	4172.5375
1897.21921	4164.4375
1900.34335	4160.9375
1903.46544	4130.5375
1906.58551	4135.5375
1909.70353	4114.8375
1912.81953	4087.8375
1915.93349	4066.9375
1919.04543	4050.2375
1922.15534	4026.9375
1925.26322	4008.5375
1928.36908	3977.1375
1931.47292	3959.3375
1934.57473	3948.1375
1937.67453	3922.2375
1940.77232	3901.1375
1943.86808	3899.3375
1946.96184	3871.7375
1950.05358	3852.5375
1953.14331	3836.9375
1956.23103	3827.2375
1959.31675	3819.4375
1962.40046	3795.7375
1965.48217	3775.2375
1968.56188	3771.8375
1971.63959	3761.7375
1974.7153	3751.3375
1977.78901	3742.6375
1980.86073	3705.0375
1983.93046	3681.3375
1986.99819	3670.0375
1990.06394	3648.8375
1993.1277	3621.0375
1996.18947	3607.6375
1999.24925	3594.6375
2002.30706	3560.7375
2005.36288	3532.6375
2008.41672	3522.2375
2011.46859	3506.3375
2014.51848	3506.6375
2017.56639	3488.2375
2020.61233	3463.3375
2023.6563	3444.3375
2026.6983	3427.8375
2029.73833	3415.2375
2032.7764	3404.6375
2035.8125	3395.4375
2038.84664	3384.8375
2041.87881	3378.0375
2044.90903	3371.3375
2047.93729	3349.7375
2050.96359	3334.8375
2053.98794	3341.8375
2057.01034	3333.9375
2060.03078	3314.7375
2063.04927	3301.6375
2066.06582	3311.5375
2069.08042	3299.6375
2072.09307	3283.8375
2075.10378	3284.3375
2078.11255	3288.4375
2081.11938	3282.4375
2084.12426	3283.9375
2087.12722	3273.1375
2090.12824	3275.4375
2093.12732	3269.6375
2096.12447	3258.6375
2099.11969	3270.6375
2102.11299	3264.3375
2105.10435	3257.3375
2108.09379	3255.2375
2111.08131	3257.4375
2114.0669	3253.2375
2117.05057	3252.9375
2120.03233	3247.3375
2123.01216	3256.1375
2125.99008	3262.8375
2128.96609	3241.6375
2131.94018	3245.7375
2134.91236	3237.6375
2137.88263	3251.6375
2140.851	3226.0375
2143.81746	3214.0375
2146.78201	3195.2375
2149.74466	3191.9375
2152.7054	3182.0375
2155.66425	3171.3375
2158.6212	3161.9375
2161.57625	3155.5375
2164.52941	3156.7375
2167.48067	3131.9375
2170.43004	3127.8375
2173.37752	3124.1375
2176.32311	3134.0375
2179.26681	3120.3375
2182.20863	3121.9375
2185.14856	3119.8375
2188.08661	3100.0375
2191.02278	3085.3375
2193.95707	3089.9375
2196.88948	3070.2375
2199.82001	3070.9375
2202.74867	3062.0375
2205.67545	3054.1375
2208.60037	3041.1375
2211.52341	3024.1375
2214.44458	3025.7375
2217.36388	3014.2375
2220.28132	2992.9375
2223.1969	2989.1375
2226.11061	2981.5375
2229.02246	2971.7375
2231.93245	2960.7375
2234.84058	2953.7375
2237.74686	2966.0375
2240.65128	2945.0375
2243.55385	2932.3375
2246.45456	2935.4375
2249.35343	2917.7375
2252.25044	2925.4375
2255.14561	2920.5375
2258.03893	2930.3375
2260.93041	2919.8375
2263.82004	2914.0375
2266.70783	2905.1375
2269.59378	2889.6375
2272.4779	2878.1375
2275.36017	2868.0375
2278.24061	2860.7375
2281.11922	2858.4375
2283.996	2854.4375
2286.87094	2838.0375
2289.74405	2807.6375
2292.61534	2795.1375
2295.4848	2802.7375
2298.35243	2780.8375
2301.21824	2782.0375
2304.08223	2778.1375
2306.94439	2768.5375
2309.80474	2762.2375
2312.66327	2755.5375
2315.51999	2750.6375
2318.37489	2747.2375
2321.22797	2732.1375
2324.07925	2721.2375
2326.92871	2732.7375
2329.77637	2708.7375
2332.62222	2706.0375
2335.46626	2709.6375
2338.3085	2702.6375
2341.14893	2711.6375
2343.98756	2705.6375
2346.8244	2702.0375
2349.65943	2706.4375
2352.49267	2712.4375
2355.32411	2711.6375
2358.15376	2731.4375
2360.98161	2740.0375
2363.80768	2742.1375
2366.63195	2732.3375
2369.45444	2749.0375
2372.27514	2748.8375
2375.09405	2733.4375
2377.91118	2717.4375
2380.72652	2704.7375
2383.54009	2684.4375
2386.35187	2660.1375
2389.16188	2638.3375
2391.97011	2626.7375
2394.77657	2617.6375
2397.58125	2595.8375
2400.38416	2582.7375
2403.18529	2565.7375
2405.98466	2557.5375
2408.78226	2558.3375
2411.57809	2551.4375
2414.37216	2548.9375
2417.16446	2552.3375
2419.955	2548.3375
2422.74378	2536.0375
2425.5308	2541.6375
2428.31606	2533.8375
2431.09956	2540.8375
2433.88131	2537.2375
2436.6613	2539.0375
2439.43954	2542.9375
2442.21603	2538.4375
2444.99077	2542.8375
2447.76377	2545.9375
2450.53501	2537.9375
2453.30451	2537.6375
2456.07226	2547.6375
2458.83827	2535.3375
2461.60254	2529.9375
2464.36507	2531.6375
2467.12586	2529.9375
2469.88492	2513.1375
2472.64224	2534.3375
2475.39782	2519.9375
2478.15167	2529.2375
2480.90379	2537.3375
2483.65417	2544.8375
2486.40283	2538.5375
2489.14976	2553.0375
2491.89497	2558.9375
2494.63845	2550.1375
2497.3802	2532.9375
2500.12024	2546.6375
2502.85855	2527.0375
2505.59514	2524.3375
2508.33002	2490.2375
2511.06318	2487.1375
2513.79462	2452.8375
2516.52435	2452.6375
2519.25237	2433.6375
2521.97867	2414.0375
2524.70327	2416.6375
2527.42616	2405.2375
2530.14734	2383.2375
2532.86681	2379.8375
2535.58458	2382.2375
2538.30065	2378.6375
2541.01501	2390.8375
2543.72768	2388.9375
2546.43864	2384.4375
2549.14791	2378.3375
2551.85548	2382.9375
2554.56136	2373.9375
2557.26554	2367.5375
2559.96803	2368.1375
2562.66883	2355.9375
2565.36794	2349.1375
2568.06536	2342.0375
2570.7611	2351.7375
2573.45514	2335.0375
2576.14751	2333.8375
2578.83819	2331.0375
2581.52719	2318.8375
2584.21451	2307.1375
2586.90015	2323.2375
2589.58411	2299.3375
2592.2664	2310.3375
2594.94701	2290.5375
2597.62594	2293.3375
2600.30321	2285.9375
2602.9788	2286.5375
2605.65273	2285.4375
2608.32498	2279.4375
2610.99557	2273.8375
2613.66449	2279.8375
2616.33175	2277.8375
2618.99734	2271.4375
2621.66128	2265.0375
2624.32355	2261.4375
2626.98416	2250.7375
2629.64311	2256.2375
2632.30041	2236.0375
2634.95605	2235.3375
2637.61004	2221.6375
2640.26238	2227.6375
2642.91306	2218.4375
2645.56209	2203.8375
2648.20948	2208.9375
2650.85521	2205.7375
2653.4993	2209.6375
2656.14175	2226.1375
2658.78255	2229.7375
2661.42171	2226.1375
2664.05923	2223.4375
2666.6951	2230.8375
2669.32934	2228.5375
2671.96194	2230.4375
2674.59291	2227.9375
2677.22224	2227.7375
2679.84993	2233.8375
2682.476	2215.2375
2685.10043	2209.4375
2687.72324	2213.2375
2690.34441	2191.8375
2692.96396	2204.9375
2695.58188	2204.5375
2698.19818	2199.3375
2700.81285	2194.4375
2703.4259	2193.7375
2706.03733	2191.8375
2708.64714	2186.8375
2711.25533	2187.6375
2713.86191	2194.1375
2716.46687	2195.9375
2719.07021	2191.8375
2721.67194	2195.0375
2724.27206	2202.1375
2726.87057	2192.7375
2729.46747	2189.3375
2732.06276	2188.1375
2734.65644	2185.5375
2737.24852	2173.3375
2739.83899	2172.5375
2742.42786	2169.6375
2745.01513	2155.5375
2747.60079	2150.2375
2750.18486	2139.9375
2752.76733	2138.1375
2755.3482	2136.9375
2757.92747	2124.5375
2760.50515	2133.5375
2763.08123	2120.0375
2765.65573	2109.6375
2768.22863	2111.0375
2770.79994	2105.4375
2773.36967	2090.2375
2775.9378	2104.7375
2778.50435	2119.6375
2781.06932	2106.5375
2783.6327	2109.5375
2786.1945	2105.7375
2788.75471	2090.9375
2791.31335	2093.3375
2793.87041	2098.0375
2796.42589	2095.3375
2798.97979	2099.4375
2801.53212	2078.9375
2804.08288	2095.1375
2806.63206	2091.4375
2809.17967	2082.8375
2811.72571	2079.1375
2814.27018	2080.7375
2816.81308	2088.5375
2819.35442	2074.1375
2821.89419	2089.7375
2824.43239	2092.5375
2826.96904	2101.3375
2829.50412	2091.1375
2832.03763	2093.0375
2834.56959	2104.0375
2837.1	2099.2375
2839.62884	2084.0375
2842.15613	2090.8375
2844.68186	2101.5375
2847.20604	2122.6375
2849.72867	2127.8375
2852.24974	2129.2375
2854.76927	2133.4375
2857.28724	2139.6375
2859.80367	2137.4375
2862.31855	2150.0375
2864.83189	2148.9375
2867.34368	2142.3375
2869.85393	2147.3375
2872.36264	2149.3375
2874.8698	2155.9375
2877.37543	2156.4375
2879.87952	2143.5375
2882.38207	2137.9375
2884.88308	2139.3375
2887.38256	2138.0375
2889.88051	2129.2375
2892.37692	2131.9375
2894.8718	2123.9375
2897.36515	2121.3375
2899.85698	2131.4375
2902.34727	2140.8375
2904.83604	2154.2375
2907.32328	2153.7375
2909.809	2148.5375
2912.29319	2165.1375
2914.77587	2171.8375
2917.25702	2164.5375
2919.73665	2156.9375
2922.21476	2170.4375
2924.69136	2152.9375
2927.16644	2146.2375
2929.64	2140.0375
2932.11205	2132.4375
2934.58258	2118.9375
2937.05161	2109.8375
2939.51912	2094.5375
2941.98513	2096.0375
2944.44962	2073.8375
2946.91261	2064.5375
2949.37409	2063.6375
2951.83407	2058.9375
2954.29254	2043.3375
2956.74951	2045.9375
2959.20498	2039.3375
2961.65895	2021.4375
2964.11142	2021.4375
2966.56239	2021.0375
2969.01186	1997.3375
2971.45984	1982.5375
2973.90632	1980.4375
2976.35131	1967.4375
2978.7948	1964.7375
2981.23681	1954.0375
2983.67732	1948.3375
2986.11635	1942.9375
2988.55388	1931.5375
2990.98993	1933.8375
2993.4245	1932.4375
2995.85758	1915.3375
2998.28917	1906.9375
3000.71928	1911.6375
3003.14791	1902.1375
3005.57506	1902.3375
3008.00073	1895.3375
3010.42493	1892.9375
3012.84764	1895.6375
3015.26888	1890.8375
3017.68865	1884.9375
3020.10694	1883.2375
3022.52376	1872.1375
3024.9391	1858.1375
3027.35298	1855.1375
3029.76539	1844.9375
3032.17632	1846.9375
3034.5858	1841.5375
3036.9938	1844.2375
3039.40034	1829.4375
3041.80542	1838.1375
3044.20903	1818.5375
3046.61118	1825.3375
3049.01187	1815.1375
3051.4111	1811.5375
3053.80888	1814.5375
3056.20519	1810.8375
3058.60005	1806.2375
3060.99345	1796.5375
3063.3854	1799.1375
3065.7759	1795.3375
3068.16494	1800.9375
3070.55254	1786.7375
3072.93868	1787.4375
3075.32338	1777.3375
3077.70662	1773.3375
3080.08842	1773.3375
3082.46878	1773.2375
3084.84769	1750.3375
3087.22515	1765.4375
3089.60118	1761.9375
3091.97576	1763.3375
3094.3489	1770.7375
3096.72061	1770.1375
3099.09087	1767.8375
3101.4597	1770.6375
3103.82709	1773.0375
3106.19305	1771.3375
3108.55757	1764.5375
3110.92066	1770.7375
3113.28232	1768.4375
3115.64255	1762.2375
3118.00134	1772.2375
3120.35871	1763.6375
3122.71466	1762.7375
3125.06917	1754.9375
3127.42226	1759.6375
3129.77393	1771.7375
3132.12417	1765.9375
3134.47299	1765.3375
3136.82039	1762.5375
3139.16636	1770.9375
3141.51092	1771.7375
3143.85406	1781.9375
3146.19579	1781.1375
3148.53609	1789.9375
3150.87499	1797.5375
3153.21246	1792.2375
3155.54853	1802.5375
3157.88318	1807.1375
3160.21642	1816.5375
3162.54826	1816.3375
3164.87868	1813.2375
3167.2077	1823.1375
3169.5353	1828.8375
3171.86151	1822.1375
3174.18631	1824.1375
3176.5097	1828.0375
3178.83169	1831.7375
3181.15228	1816.0375
3183.47147	1810.8375
3185.78926	1818.0375
3188.10565	1813.3375
3190.42065	1809.1375
3192.73424	1816.6375
3195.04645	1819.9375
3197.35725	1811.9375
3199.66667	1830.0375
3201.97469	1828.0375
3204.28132	1838.0375
3206.58656	1820.9375
3208.8904	1825.8375
3211.19287	1841.2375
3213.49394	1840.8375
3215.79363	1847.1375
3218.09193	1857.1375
3220.38884	1850.3375
3222.68438	1857.5375
3224.97853	1843.0375
3227.2713	1845.9375
3229.56269	1848.2375
3231.8527	1847.1375
3234.14133	1837.2375
3236.42858	1836.6375
3238.71446	1835.1375
3240.99896	1825.2375
3243.28209	1839.9375
3245.56384	1832.3375
3247.84423	1829.0375
3250.12324	1824.1375
3252.40088	1822.3375
3254.67715	1833.1375
3256.95205	1820.2375
3259.22558	1814.0375
3261.49775	1801.5375
3263.76855	1805.2375
3266.03799	1807.8375
3268.30606	1803.3375
3270.57277	1800.6375
3272.83812	1799.1375
3275.10211	1801.3375
3277.36474	1808.4375
3279.62601	1799.9375
3281.88593	1799.4375
3284.14448	1802.4375
3286.40168	1811.3375
3288.65753	1799.8375
3290.91202	1794.3375
3293.16516	1790.2375
3295.41695	1798.1375
3297.66738	1787.5375
3299.91647	1779.3375
3302.16421	1773.2375
3304.4106	1755.5375
3306.65564	1738.3375
3308.89933	1727.0375
3311.14169	1719.1375
3313.38269	1704.2375
3315.62236	1694.0375
3317.86068	1668.7375
3320.09766	1659.2375
3322.3333	1653.1375
3324.5676	1644.6375
3326.80056	1611.5375
3329.03219	1608.5375
3331.26248	1.3375
3333.49143	0.1375
3335.71905	-1.1625
