Data from AgNPs_FTO_APTES_UA_20uM_CRN_500uM_R6G_10uM_NaF_0.1M_Addition_RamanShift__14__18-48-24-973.txt Node

Date: Thu Feb 17 18:48:24 GMT 2022
User: TCL
Spectrometer: QEP01345
Trigger mode: 4
Integration Time (sec): 1.000000E1
Scans to average: 7
Electric dark correction enabled: true
Nonlinearity correction enabled: false
Boxcar width: 0
XAxis mode: Raman Shifts
Number of Pixels in Spectrum: 1044
>>>>>Begin Spectral Data<<<<<
46.04893	0.78571
50.45542	-0.78571
54.85868	0.07143
59.25871	-1.78571
63.6555	69.64286
68.04907	66.78571
72.43941	71.92857
76.82654	78.07143
81.21044	82.64286
85.59113	82.78571
89.96862	88.21429
94.34289	82.5
98.71396	89.78571
103.08183	91.5
107.4465	97.35714
111.80798	100.07143
116.16626	95.78571
120.52136	102.78571
124.87327	104.92857
129.222	107.21429
133.56755	114.35714
137.90993	125.35714
142.24913	128.64286
146.58517	143.07143
150.91804	160.5
155.24774	193.5
159.57429	228.92857
163.89768	291.78571
168.21792	388.21429
172.53501	520.35714
176.84895	740.64286
181.15975	1031.64286
185.46741	1463.92857
189.77193	2042.92857
194.07331	2742.5
198.37157	3545.92857
202.6667	4438.07143
206.9587	5308.5
211.24758	6146.21429
215.53334	6984.78571
219.81599	7849.64286
224.09553	8757.64286
228.37195	9798.64286
232.64527	10902.92857
236.91549	12149.35714
241.18261	13423.92857
245.44663	14651.35714
249.70755	15860.21429
253.96539	16854.07143
258.22014	17722.92857
262.4718	18417.78571
266.72039	18835.07143
270.96589	19046.78571
275.20832	19055.5
279.44768	18856.92857
283.68397	18680.92857
287.91719	18421.78571
292.14735	18180.35714
296.37445	18026.5
300.59849	17889.07143
304.81948	17930.21429
309.03742	17848.21429
313.25231	17789.07143
317.46415	17686.21429
321.67296	17530.92857
325.87872	17496.07143
330.08145	17439.5
334.28114	17537.64286
338.47781	17727.35714
342.67145	17922.64286
346.86207	18198.07143
351.04966	18465.07143
355.23424	18806.07143
359.4158	19048.07143
363.59435	19330.92857
367.76989	19553.92857
371.94243	19778.78571
376.11196	19935.92857
380.27849	20111.21429
384.44203	20248.07143
388.60257	20440.21429
392.76012	20524.35714
396.91468	20690.64286
401.06626	20925.35714
405.21485	21082.92857
409.36047	21143.64286
413.50311	21070.64286
417.64277	20968.5
421.77947	20952.21429
425.9132	20973.78571
430.04396	21118.07143
434.17176	21241.21429
438.2966	21385.21429
442.41849	21631.5
446.53742	21826.35714
450.6534	22039.64286
454.76644	22259.92857
458.87653	22401.78571
462.98368	22506.64286
467.08789	22524.64286
471.18916	22522.5
475.2875	22439.35714
479.38291	22385.64286
483.4754	22376.92857
487.56496	22360.92857
491.6516	22375.78571
495.73531	22362.5
499.81612	22362.07143
503.89401	22491.92857
507.96899	22571.5
512.04106	22711.64286
516.11023	22769.07143
520.1765	22813.78571
524.23987	22850.21429
528.30034	22853.64286
532.35792	22828.35714
536.41261	22831.92857
540.46441	22788.21429
544.51333	22825.21429
548.55936	22891.64286
552.60252	23064.78571
556.64279	23174.64286
560.6802	23221.64286
564.71473	23304.92857
568.7464	23330.92857
572.7752	23365.64286
576.80114	23343.5
580.82422	23427.64286
584.84444	23470.21429
588.86181	23528.5
592.87633	23610.5
596.888	23746.64286
600.89682	24000.78571
604.9028	24515.92857
608.90594	25662.78571
612.90624	27024.64286
616.90371	26618.92857
620.89834	24839.78571
624.89015	23948.92857
628.87913	23829.07143
632.86528	23900.21429
636.84862	24074.78571
640.82913	24101.78571
644.80683	23942.78571
648.78172	23828.78571
652.75379	23951.78571
656.72306	24062.35714
660.68952	24265.07143
664.65319	24329.92857
668.61405	24279.64286
672.57211	24390.78571
676.52738	24530.64286
680.47986	24620.92857
684.42955	24672.78571
688.37646	24674.78571
692.32058	24680.92857
696.26192	24769.5
700.20048	24861.21429
704.13626	24955.07143
708.06928	24895.78571
711.99952	24796.35714
715.927	24683.07143
719.85171	24688.21429
723.77365	24711.78571
727.69284	24727.78571
731.60928	24639.21429
735.52295	24640.78571
739.43388	24625.64286
743.34206	24651.07143
747.24749	24707.07143
751.15017	24721.07143
755.05012	24813.5
758.94733	24931.92857
762.8418	25280.92857
766.73354	25895.5
770.62254	26623.5
774.50882	27031.35714
778.39237	26876.78571
782.27321	26249.35714
786.15132	25606.35714
790.02671	25190.07143
793.89938	24882.64286
797.76935	24790.07143
801.6366	24796.78571
805.50115	24731.35714
809.36299	24717.64286
813.22213	24695.92857
817.07857	24683.07143
820.93231	24726.21429
824.78336	24738.07143
828.63172	24762.21429
832.47738	24799.78571
836.32036	24842.92857
840.16066	24810.64286
843.99827	24849.21429
847.8332	24873.78571
851.66546	24887.21429
855.49504	24940.21429
859.32195	24948.35714
863.1462	24992.92857
866.96777	25072.78571
870.78668	25113.5
874.60293	25149.21429
878.41652	25165.78571
882.22745	25229.92857
886.03573	25194.92857
889.84136	25258.64286
893.64433	25191.78571
897.44466	25193.21429
901.24235	25195.5
905.0374	25147.92857
908.8298	25144.92857
912.61957	25092.35714
916.40671	25133.35714
920.19121	25126.35714
923.97308	25144.78571
927.75233	25100.21429
931.52895	25135.92857
935.30295	25121.5
939.07433	25032.5
942.84309	24950.64286
946.60924	24832.5
950.37278	24806.64286
954.13371	24817.5
957.89203	24774.92857
961.64774	24767.21429
965.40086	24738.21429
969.15137	24677.5
972.89929	24684.64286
976.64461	24662.64286
980.38733	24685.07143
984.12747	24728.21429
987.86502	24787.78571
991.59999	24813.92857
995.33237	24847.92857
999.06217	24916.64286
1002.78939	25030.92857
1006.51404	25089.5
1010.23611	25287.21429
1013.95561	25342.21429
1017.67255	25414.92857
1021.38692	25387.07143
1025.09872	25357.78571
1028.80796	25249.21429
1032.51465	25244.78571
1036.21877	25245.21429
1039.92035	25260.35714
1043.61937	25331.64286
1047.31584	25361.78571
1051.00976	25423.35714
1054.70114	25508.5
1058.38998	25514.21429
1062.07627	25563.07143
1065.76003	25667.92857
1069.44126	25708.64286
1073.11995	25824.64286
1076.79611	25958.64286
1080.46974	26036.21429
1084.14085	26128.78571
1087.80943	26131.07143
1091.47549	26154.21429
1095.13903	26172.92857
1098.80005	26086.07143
1102.45857	26021.64286
1106.11456	25999.07143
1109.76805	25940.5
1113.41903	25881.07143
1117.06751	25902.78571
1120.71348	25939.78571
1124.35696	26029.78571
1127.99793	26052.5
1131.63641	26163.35714
1135.2724	26130.78571
1138.90589	25984.78571
1142.5369	25852.21429
1146.16542	25801.5
1149.79145	25719.64286
1153.415	25686.21429
1157.03607	25654.5
1160.65467	25684.78571
1164.27079	25823.21429
1167.88443	26048.5
1171.49561	26449.64286
1175.10432	26889.64286
1178.71056	27559.78571
1182.31434	28222.64286
1185.91565	28642.5
1189.51451	28762.21429
1193.11091	28645.92857
1196.70485	28397.78571
1200.29634	28120.92857
1203.88538	27804.21429
1207.47197	27408.35714
1211.05612	26980.92857
1214.63782	26723.35714
1218.21708	26505.35714
1221.79391	26347.21429
1225.36829	26315.35714
1228.94024	26272.64286
1232.50976	26291.64286
1236.07685	26309.5
1239.6415	26365.78571
1243.20374	26362.92857
1246.76355	26421.5
1250.32093	26516.92857
1253.8759	26590.21429
1257.42845	26804.78571
1260.97859	26965.78571
1264.52631	27125.92857
1268.07163	27297.35714
1271.61453	27464.64286
1275.15503	27517.64286
1278.69312	27618.78571
1282.22882	27576.21429
1285.76211	27663.78571
1289.29301	27692.21429
1292.82151	27883.21429
1296.34761	28034.78571
1299.87133	28264.5
1303.39266	28681.5
1306.9116	29195.64286
1310.42815	29784.35714
1313.94233	30152.78571
1317.45412	30046.64286
1320.96354	29712.07143
1324.47058	29460.07143
1327.97525	29046.21429
1331.47754	28758.21429
1334.97747	28667.64286
1338.47502	28722.78571
1341.97022	29013.92857
1345.46305	29481.21429
1348.95352	30054.07143
1352.44163	30659.5
1355.92738	31012.92857
1359.41078	31522.35714
1362.89183	31961.5
1366.37053	31697.07143
1369.84688	30428.35714
1373.32088	28927.21429
1376.79254	27887.78571
1380.26186	27295.5
1383.72883	26855.07143
1387.19347	26571.78571
1390.65578	26245.78571
1394.11575	25966.07143
1397.57339	25799.21429
1401.0287	25579.64286
1404.48168	25546.07143
1407.93234	25519.5
1411.38068	25504.64286
1414.82669	25543.64286
1418.27039	25499.92857
1421.71177	25455.35714
1425.15083	25344.78571
1428.58758	25205.78571
1432.02203	25119.07143
1435.45416	25088.5
1438.88399	25119.64286
1442.31151	25131.5
1445.73673	25136.5
1449.15965	25134.35714
1452.58027	25142.21429
1455.9986	25085.5
1459.41463	25117.35714
1462.82837	25212.07143
1466.23982	25413.92857
1469.64898	25643.35714
1473.05586	25849.07143
1476.46045	26019.92857
1479.86276	26087.5
1483.26279	26221.35714
1486.66054	26336.92857
1490.05602	26474.35714
1493.44922	26753.78571
1496.84016	27196.07143
1500.22882	27848.78571
1503.61521	28654.92857
1506.99934	29425.92857
1510.38121	29918.21429
1513.76081	29894.5
1517.13816	29270.35714
1520.51324	28368.21429
1523.88607	27694.07143
1527.25665	27141.92857
1530.62498	26836.5
1533.99105	26654.5
1537.35488	26638.78571
1540.71647	26569.21429
1544.07581	26503.64286
1547.4329	26495.21429
1550.78776	26402.64286
1554.14038	26378.21429
1557.49077	26313.35714
1560.83892	26384.78571
1564.18484	26394.64286
1567.52853	26545.21429
1570.86999	26674.07143
1574.20922	26766.78571
1577.54624	26750.78571
1580.88103	26554.92857
1584.2136	26233.35714
1587.54395	26011.35714
1590.87208	25988.92857
1594.19801	26208.21429
1597.52172	26537.5
1600.84321	26747.07143
1604.16251	26750.78571
1607.47959	26564.78571
1610.79447	26301.21429
1614.10715	25849.78571
1617.41763	25423.07143
1620.7259	25053.64286
1624.03199	24715.5
1627.33587	24539.78571
1630.63757	24481.78571
1633.93707	24660.5
1637.23439	24977.92857
1640.52951	25441.5
1643.82246	26085.35714
1647.11321	26817.5
1650.40179	27258.21429
1653.68819	27065.35714
1656.97241	26263.5
1660.25446	25299.78571
1663.53433	24577.92857
1666.81203	24059.07143
1670.08756	23715.5
1673.36092	23493.78571
1676.63211	23319.21429
1679.90115	23194.35714
1683.16801	23076.78571
1686.43272	22982.21429
1689.69527	22919.35714
1692.95567	22918.35714
1696.2139	22854.21429
1699.46999	22870.5
1702.72392	22851.78571
1705.97571	22828.5
1709.22535	22871.21429
1712.47284	22794.21429
1715.71819	22801.64286
1718.96139	22770.64286
1722.20246	22703.92857
1725.44139	22670.78571
1728.67818	22642.5
1731.91284	22520.21429
1735.14537	22524.07143
1738.37576	22501.21429
1741.60403	22401.5
1744.83017	22361.92857
1748.05418	22324.92857
1751.27607	22319.64286
1754.49584	22255.35714
1757.71349	22251.5
1760.92903	22213.64286
1764.14244	22221.78571
1767.35375	22208.07143
1770.56294	22162.92857
1773.77002	22148.21429
1776.97499	22059.07143
1780.17785	22061.35714
1783.37861	21958.78571
1786.57727	21917.5
1789.77382	21882.92857
1792.96828	21854.5
1796.16064	21815.92857
1799.3509	21719.07143
1802.53907	21697.92857
1805.72514	21668.64286
1808.90913	21619.07143
1812.09102	21579.21429
1815.27083	21549.92857
1818.44856	21545.07143
1821.6242	21495.35714
1824.79776	21515.78571
1827.96924	21457.07143
1831.13864	21443.07143
1834.30597	21428.5
1837.47122	21377.35714
1840.6344	21378.07143
1843.7955	21351.5
1846.95454	21298.5
1850.11151	21277.35714
1853.26642	21236.21429
1856.41926	21243.5
1859.57004	21243.92857
1862.71876	21205.07143
1865.86542	21179.64286
1869.01003	21177.35714
1872.15258	21140.5
1875.29308	21118.5
1878.43152	21105.64286
1881.56792	21074.21429
1884.70227	21074.5
1887.83457	21018.35714
1890.96482	20959.5
1894.09304	20915.92857
1897.21921	20878.21429
1900.34335	20964.07143
1903.46544	20869.92857
1906.58551	20828.5
1909.70353	20818.64286
1912.81953	20747.5
1915.93349	20724.21429
1919.04543	20680.21429
1922.15534	20644.64286
1925.26322	20639.78571
1928.36908	20602.21429
1931.47292	20557.78571
1934.57473	20563.92857
1937.67453	20488.92857
1940.77232	20433.92857
1943.86808	20372.07143
1946.96184	20340.78571
1950.05358	20284.21429
1953.14331	20244.5
1956.23103	20184.07143
1959.31675	20163.64286
1962.40046	20083.07143
1965.48217	19983.64286
1968.56188	19968.78571
1971.63959	19893.92857
1974.7153	19810.78571
1977.78901	19819.64286
1980.86073	19747.92857
1983.93046	19629.5
1986.99819	19580.64286
1990.06394	19504.21429
1993.1277	19538.92857
1996.18947	19426.92857
1999.24925	19367.07143
2002.30706	19263.78571
2005.36288	19193.64286
2008.41672	19141.07143
2011.46859	19116.92857
2014.51848	19046.5
2017.56639	18987.21429
2020.61233	18898.92857
2023.6563	18874.21429
2026.6983	18831.64286
2029.73833	18799.78571
2032.7764	18726.35714
2035.8125	18633.64286
2038.84664	18605.21429
2041.87881	18616.07143
2044.90903	18541.5
2047.93729	18505.21429
2050.96359	18522.07143
2053.98794	18491.64286
2057.01034	18464.21429
2060.03078	18459.07143
2063.04927	18414.92857
2066.06582	18428.78571
2069.08042	18420.5
2072.09307	18369.5
2075.10378	18377.21429
2078.11255	18370.92857
2081.11938	18371.07143
2084.12426	18323.78571
2087.12722	18328.92857
2090.12824	18319.21429
2093.12732	18333.64286
2096.12447	18310.35714
2099.11969	18315.64286
2102.11299	18290.35714
2105.10435	18300.07143
2108.09379	18333.35714
2111.08131	18337.21429
2114.0669	18358.5
2117.05057	18401.78571
2120.03233	18420.5
2123.01216	18416.78571
2125.99008	18436.21429
2128.96609	18441.21429
2131.94018	18482.35714
2134.91236	18433.64286
2137.88263	18474.64286
2140.851	18477.92857
2143.81746	18495.35714
2146.78201	18446.64286
2149.74466	18457.07143
2152.7054	18470.92857
2155.66425	18480.07143
2158.6212	18449.78571
2161.57625	18393.35714
2164.52941	18458.07143
2167.48067	18394.64286
2170.43004	18385.07143
2173.37752	18390.5
2176.32311	18379.07143
2179.26681	18377.5
2182.20863	18413.07143
2185.14856	18387.92857
2188.08661	18346.35714
2191.02278	18329.07143
2193.95707	18338.21429
2196.88948	18271.92857
2199.82001	18308.78571
2202.74867	18263.35714
2205.67545	18224.78571
2208.60037	18214.78571
2211.52341	18165.07143
2214.44458	18122.07143
2217.36388	18115.5
2220.28132	18069.35714
2223.1969	18021.92857
2226.11061	17998.5
2229.02246	17945.5
2231.93245	17906.64286
2234.84058	17833.92857
2237.74686	17810.35714
2240.65128	17836.07143
2243.55385	17813.78571
2246.45456	17816.78571
2249.35343	17757.07143
2252.25044	17748.35714
2255.14561	17693.92857
2258.03893	17710.07143
2260.93041	17645.78571
2263.82004	17624.64286
2266.70783	17582.07143
2269.59378	17491.78571
2272.4779	17452.92857
2275.36017	17463.5
2278.24061	17407.92857
2281.11922	17338.78571
2283.996	17362.07143
2286.87094	17311.5
2289.74405	17255.07143
2292.61534	17241.78571
2295.4848	17227.64286
2298.35243	17245.21429
2301.21824	17189.21429
2304.08223	17149.92857
2306.94439	17141.64286
2309.80474	17095.21429
2312.66327	17112.92857
2315.51999	17101.5
2318.37489	17043.35714
2321.22797	17067.35714
2324.07925	17013.92857
2326.92871	16928.64286
2329.77637	16944.5
2332.62222	16880.07143
2335.46626	16888.35714
2338.3085	16826.78571
2341.14893	16805.5
2343.98756	16786.92857
2346.8244	16775.92857
2349.65943	16746.78571
2352.49267	16732.78571
2355.32411	16717.92857
2358.15376	16686.92857
2360.98161	16706.64286
2363.80768	16698.78571
2366.63195	16648.64286
2369.45444	16587.35714
2372.27514	16578.35714
2375.09405	16592.64286
2377.91118	16537.21429
2380.72652	16522.78571
2383.54009	16446.21429
2386.35187	16423.92857
2389.16188	16359.78571
2391.97011	16361.5
2394.77657	16324.07143
2397.58125	16291.64286
2400.38416	16286.5
2403.18529	16267.5
2405.98466	16229.64286
2408.78226	16213.92857
2411.57809	16179.78571
2414.37216	16143.92857
2417.16446	16129.92857
2419.955	16115.78571
2422.74378	16069.78571
2425.5308	16069.78571
2428.31606	16053.78571
2431.09956	16038.35714
2433.88131	15981.92857
2436.6613	15981.5
2439.43954	15988.78571
2442.21603	15962.92857
2444.99077	15908.07143
2447.76377	15915.78571
2450.53501	15855.78571
2453.30451	15868.78571
2456.07226	15850.21429
2458.83827	15815.64286
2461.60254	15781.35714
2464.36507	15765.07143
2467.12586	15740.78571
2469.88492	15706.92857
2472.64224	15690.92857
2475.39782	15648.92857
2478.15167	15661.5
2480.90379	15671.92857
2483.65417	15674.35714
2486.40283	15642.78571
2489.14976	15632.35714
2491.89497	15574.21429
2494.63845	15599.64286
2497.3802	15569.21429
2500.12024	15598.64286
2502.85855	15555.5
2505.59514	15510.21429
2508.33002	15477.78571
2511.06318	15469.92857
2513.79462	15464.78571
2516.52435	15445.78571
2519.25237	15389.07143
2521.97867	15373.35714
2524.70327	15393.35714
2527.42616	15321.5
2530.14734	15320.92857
2532.86681	15293.21429
2535.58458	15264.21429
2538.30065	15207.07143
2541.01501	15205.78571
2543.72768	15181.78571
2546.43864	15144.64286
2549.14791	15127.92857
2551.85548	15090.5
2554.56136	15044.07143
2557.26554	15014.07143
2559.96803	15039.07143
2562.66883	14964.07143
2565.36794	14893.92857
2568.06536	14894.64286
2570.7611	14850.92857
2573.45514	14802.07143
2576.14751	14808.78571
2578.83819	14722.35714
2581.52719	14730.5
2584.21451	14740.21429
2586.90015	14676.64286
2589.58411	14652.35714
2592.2664	14638.78571
2594.94701	14596.78571
2597.62594	14568.64286
2600.30321	14496.64286
2602.9788	14471.5
2605.65273	14451.07143
2608.32498	14422.21429
2610.99557	14432.21429
2613.66449	14438.5
2616.33175	14404.5
2618.99734	14367.21429
2621.66128	14313.64286
2624.32355	14286.5
2626.98416	14256.07143
2629.64311	14255.07143
2632.30041	14216.07143
2634.95605	14207.64286
2637.61004	14130.07143
2640.26238	14128.64286
2642.91306	14127.78571
2645.56209	14109.07143
2648.20948	14102.5
2650.85521	14124.07143
2653.4993	14096.21429
2656.14175	14087.78571
2658.78255	14071.92857
2661.42171	14066.64286
2664.05923	14075.64286
2666.6951	14032.21429
2669.32934	14069.07143
2671.96194	14037.5
2674.59291	14052.92857
2677.22224	13980.35714
2679.84993	13997.92857
2682.476	13986.07143
2685.10043	14005.78571
2687.72324	13976.78571
2690.34441	13970.35714
2692.96396	13970.35714
2695.58188	13990.64286
2698.19818	13984.92857
2700.81285	13963.35714
2703.4259	13945.21429
2706.03733	13918.21429
2708.64714	13919.64286
2711.25533	13949.07143
2713.86191	13934.21429
2716.46687	13933.92857
2719.07021	13887.92857
2721.67194	13936.64286
2724.27206	13875.5
2726.87057	13872.21429
2729.46747	13892.5
2732.06276	13910.21429
2734.65644	13856.21429
2737.24852	13845.21429
2739.83899	13828.35714
2742.42786	13836.64286
2745.01513	13808.07143
2747.60079	13760.64286
2750.18486	13755.35714
2752.76733	13726.35714
2755.3482	13715.5
2757.92747	13708.78571
2760.50515	13689.78571
2763.08123	13662.07143
2765.65573	13580.64286
2768.22863	13597.07143
2770.79994	13561.35714
2773.36967	13531.21429
2775.9378	13518.92857
2778.50435	13512.35714
2781.06932	13514.92857
2783.6327	13491.07143
2786.1945	13430.78571
2788.75471	13413.92857
2791.31335	13369.78571
2793.87041	13319.78571
2796.42589	13311.35714
2798.97979	13291.64286
2801.53212	13277.64286
2804.08288	13209.92857
2806.63206	13168.92857
2809.17967	13154.35714
2811.72571	13140.78571
2814.27018	13068.78571
2816.81308	13040.78571
2819.35442	13036.5
2821.89419	12987.5
2824.43239	12970.35714
2826.96904	13004.21429
2829.50412	12957.21429
2832.03763	12899.92857
2834.56959	12929.35714
2837.1	12915.21429
2839.62884	12867.5
2842.15613	12833.5
2844.68186	12863.21429
2847.20604	12850.78571
2849.72867	12859.78571
2852.24974	12797.92857
2854.76927	12802.21429
2857.28724	12750.78571
2859.80367	12708.07143
2862.31855	12694.5
2864.83189	12674.35714
2867.34368	12672.07143
2869.85393	12669.5
2872.36264	12609.64286
2874.8698	12630.64286
2877.37543	12584.21429
2879.87952	12591.35714
2882.38207	12575.35714
2884.88308	12558.21429
2887.38256	12564.92857
2889.88051	12560.21429
2892.37692	12559.5
2894.8718	12575.35714
2897.36515	12566.07143
2899.85698	12573.21429
2902.34727	12595.21429
2904.83604	12555.64286
2907.32328	12572.21429
2909.809	12580.07143
2912.29319	12547.35714
2914.77587	12576.35714
2917.25702	12552.78571
2919.73665	12541.92857
2922.21476	12557.78571
2924.69136	12543.64286
2927.16644	12552.21429
2929.64	12546.64286
2932.11205	12480.5
2934.58258	12492.78571
2937.05161	12516.78571
2939.51912	12473.92857
2941.98513	12471.21429
2944.44962	12459.07143
2946.91261	12451.5
2949.37409	12458.92857
2951.83407	12428.21429
2954.29254	12407.35714
2956.74951	12407.07143
2959.20498	12401.92857
2961.65895	12370.21429
2964.11142	12366.92857
2966.56239	12354.92857
2969.01186	12328.35714
2971.45984	12298.64286
2973.90632	12301.07143
2976.35131	12266.78571
2978.7948	12249.78571
2981.23681	12231.35714
2983.67732	12212.21429
2986.11635	12189.64286
2988.55388	12155.78571
2990.98993	12161.5
2993.4245	12099.5
2995.85758	12113.35714
2998.28917	12088.64286
3000.71928	12046.21429
3003.14791	12001.78571
3005.57506	12030.64286
3008.00073	11981.64286
3010.42493	11989.21429
3012.84764	11986.07143
3015.26888	11955.07143
3017.68865	11916.64286
3020.10694	11890.35714
3022.52376	11874.5
3024.9391	11859.78571
3027.35298	11837.78571
3029.76539	11843.35714
3032.17632	11822.35714
3034.5858	11796.35714
3036.9938	11781.78571
3039.40034	11774.07143
3041.80542	11745.78571
3044.20903	11727.07143
3046.61118	11742.92857
3049.01187	11717.92857
3051.4111	11699.78571
3053.80888	11662.5
3056.20519	11647.78571
3058.60005	11635.78571
3060.99345	11604.35714
3063.3854	11570.78571
3065.7759	11534.5
3068.16494	11486.07143
3070.55254	11497.35714
3072.93868	11460.07143
3075.32338	11462.07143
3077.70662	11419.21429
3080.08842	11384.35714
3082.46878	11355.35714
3084.84769	11389.5
3087.22515	11376.92857
3089.60118	11359.21429
3091.97576	11372.92857
3094.3489	11381.35714
3096.72061	11375.64286
3099.09087	11374.21429
3101.4597	11356.78571
3103.82709	11375.5
3106.19305	11377.35714
3108.55757	11365.07143
3110.92066	11289.21429
3113.28232	11323.21429
3115.64255	11286.35714
3118.00134	11250.21429
3120.35871	11234.5
3122.71466	11215.5
3125.06917	11205.07143
3127.42226	11201.64286
3129.77393	11178.92857
3132.12417	11195.21429
3134.47299	11190.35714
3136.82039	11154.07143
3139.16636	11168.07143
3141.51092	11155.07143
3143.85406	11159.07143
3146.19579	11179.07143
3148.53609	11179.07143
3150.87499	11191.92857
3153.21246	11202.78571
3155.54853	11209.21429
3157.88318	11203.21429
3160.21642	11242.35714
3162.54826	11209.92857
3164.87868	11224.78571
3167.2077	11229.5
3169.5353	11188.64286
3171.86151	11195.92857
3174.18631	11196.64286
3176.5097	11171.21429
3178.83169	11155.21429
3181.15228	11175.21429
3183.47147	11122.78571
3185.78926	11099.78571
3188.10565	11097.35714
3190.42065	11083.64286
3192.73424	11106.07143
3195.04645	11082.21429
3197.35725	11078.64286
3199.66667	11028.92857
3201.97469	11070.07143
3204.28132	11036.92857
3206.58656	11098.35714
3208.8904	11078.5
3211.19287	11121.5
3213.49394	11124.21429
3215.79363	11098.5
3218.09193	11117.21429
3220.38884	11088.21429
3222.68438	11103.92857
3224.97853	11101.07143
3227.2713	11091.35714
3229.56269	11087.64286
3231.8527	11053.5
3234.14133	11027.78571
3236.42858	10995.92857
3238.71446	10983.07143
3240.99896	10950.35714
3243.28209	10917.07143
3245.56384	10894.5
3247.84423	10924.07143
3250.12324	10915.64286
3252.40088	10888.64286
3254.67715	10878.5
3256.95205	10887.92857
3259.22558	10892.35714
3261.49775	10854.21429
3263.76855	10826.92857
3266.03799	10826.21429
3268.30606	10806.5
3270.57277	10797.35714
3272.83812	10760.64286
3275.10211	10737.64286
3277.36474	10734.5
3279.62601	10736.35714
3281.88593	10672.78571
3284.14448	10702.35714
3286.40168	10675.64286
3288.65753	10680.35714
3290.91202	10687.5
3293.16516	10631.64286
3295.41695	10609.35714
3297.66738	10517.92857
3299.91647	10480.78571
3302.16421	10430.35714
3304.4106	10411.21429
3306.65564	10326.78571
3308.89933	10278.5
3311.14169	10186.78571
3313.38269	10096.21429
3315.62236	10012.35714
3317.86068	9966.92857
3320.09766	9882.21429
3322.3333	9836.5
3324.5676	9793.35714
3326.80056	9631.64286
3329.03219	9596.92857
3331.26248	1.78571
3333.49143	-0.78571
3335.71905	0.35714
