Data from AgNPs_FTO_APTES_UA_20uM_CRN_0uM_R6G_10uM_NaF_0.1M_Addition_RamanShift__57__11-56-12-004.txt Node

Date: Thu Feb 17 11:56:12 GMT 2022
User: TCL
Spectrometer: QEP01345
Trigger mode: 4
Integration Time (sec): 7.000000E0
Scans to average: 10
Electric dark correction enabled: true
Nonlinearity correction enabled: false
Boxcar width: 0
XAxis mode: Raman Shifts
Number of Pixels in Spectrum: 1044
>>>>>Begin Spectral Data<<<<<
46.04893	0.2125
50.45542	-0.7875
54.85868	-3.2875
59.25871	-1.7875
63.6555	85.9125
68.04907	89.5125
72.43941	93.3125
76.82654	88.6125
81.21044	99.0125
85.59113	104.3125
89.96862	104.5125
94.34289	105.8125
98.71396	111.3125
103.08183	113.5125
107.4465	118.7125
111.80798	115.9125
116.16626	123.3125
120.52136	128.5125
124.87327	132.9125
129.222	138.4125
133.56755	152.2125
137.90993	155.5125
142.24913	170.6125
146.58517	192.6125
150.91804	224.1125
155.24774	266.2125
159.57429	332.1125
163.89768	424.5125
168.21792	561.8125
172.53501	764.3125
176.84895	1069.8125
181.15975	1506.8125
185.46741	2119.6125
189.77193	2921.1125
194.07331	3915.8125
198.37157	5068.0125
202.6667	6257.7125
206.9587	7480.4125
211.24758	8674.9125
215.53334	9875.3125
219.81599	11232.8125
224.09553	12737.9125
228.37195	14390.3125
232.64527	16215.7125
236.91549	18092.0125
241.18261	19917.6125
245.44663	21561.2125
249.70755	22985.3125
253.96539	24271.8125
258.22014	25333.8125
262.4718	26182.1125
266.72039	26758.4125
270.96589	27081.1125
275.20832	27041.8125
279.44768	26862.9125
283.68397	26580.9125
287.91719	26426.4125
292.14735	26386.2125
296.37445	26643.8125
300.59849	27157.8125
304.81948	27831.5125
309.03742	28334.1125
313.25231	28321.4125
317.46415	27479.6125
321.67296	26116.7125
325.87872	24998.7125
330.08145	24487.1125
334.28114	24566.0125
338.47781	24938.4125
342.67145	25507.7125
346.86207	26274.7125
351.04966	27430.1125
355.23424	28674.0125
359.4158	29698.7125
363.59435	30236.6125
367.76989	30479.6125
371.94243	30531.4125
376.11196	30582.1125
380.27849	30542.9125
384.44203	30459.1125
388.60257	30336.5125
392.76012	30383.1125
396.91468	30740.1125
401.06626	31459.7125
405.21485	32055.6125
409.36047	31924.6125
413.50311	31186.5125
417.64277	30452.8125
421.77947	30174.4125
425.9132	30171.6125
430.04396	30367.4125
434.17176	30651.3125
438.2966	31099.2125
442.41849	31887.2125
446.53742	32928.3125
450.6534	34084.8125
454.76644	34884.2125
458.87653	35141.3125
462.98368	34739.8125
467.08789	34055.8125
471.18916	33094.4125
475.2875	32248.3125
479.38291	31640.4125
483.4754	31272.9125
487.56496	30873.3125
491.6516	30598.9125
495.73531	30323.0125
499.81612	30259.3125
503.89401	30512.5125
507.96899	30708.2125
512.04106	30832.8125
516.11023	31051.5125
520.1765	31157.0125
524.23987	31163.9125
528.30034	30914.8125
532.35792	30520.6125
536.41261	30100.6125
540.46441	29668.9125
544.51333	29514.9125
548.55936	29774.2125
552.60252	30265.2125
556.64279	30935.3125
560.6802	31300.6125
564.71473	31743.9125
568.7464	32722.4125
572.7752	33584.7125
576.80114	33414.2125
580.82422	33032.2125
584.84444	33093.6125
588.86181	33434.8125
592.87633	33961.7125
596.888	34217.0125
600.89682	34579.3125
604.9028	36940.4125
608.90594	43241.0125
612.90624	51018.6125
616.90371	48904.2125
620.89834	38342.0125
624.89015	33640.2125
628.87913	32884.1125
632.86528	32702.6125
636.84862	32367.5125
640.82913	31666.1125
644.80683	30665.5125
648.78172	29994.7125
652.75379	30084.5125
656.72306	31022.7125
660.68952	32035.2125
664.65319	32020.8125
668.61405	31189.4125
672.57211	30672.7125
676.52738	30657.0125
680.47986	30597.7125
684.42955	30568.3125
688.37646	30577.8125
692.32058	30804.4125
696.26192	31084.4125
700.20048	31428.0125
704.13626	31707.6125
708.06928	31620.9125
711.99952	31343.0125
715.927	31302.2125
719.85171	31385.4125
723.77365	31264.6125
727.69284	30998.2125
731.60928	30798.0125
735.52295	30819.7125
739.43388	31032.2125
743.34206	31289.5125
747.24749	31595.7125
751.15017	31999.3125
755.05012	32607.1125
758.94733	33803.6125
762.8418	36075.7125
766.73354	39692.2125
770.62254	43222.3125
774.50882	44577.0125
778.39237	42923.4125
782.27321	39026.8125
786.15132	35304.8125
790.02671	33162.2125
793.89938	32208.1125
797.76935	31875.3125
801.6366	31727.4125
805.50115	31632.5125
809.36299	31527.6125
813.22213	31342.4125
817.07857	31334.6125
820.93231	31387.4125
824.78336	31470.7125
828.63172	31610.3125
832.47738	31760.7125
836.32036	31830.2125
840.16066	31973.2125
843.99827	32142.1125
847.8332	32029.1125
851.66546	31817.9125
855.49504	31780.6125
859.32195	31738.1125
863.1462	31565.5125
866.96777	31424.5125
870.78668	31423.2125
874.60293	31472.3125
878.41652	31537.9125
882.22745	31726.0125
886.03573	31875.6125
889.84136	31814.6125
893.64433	31591.7125
897.44466	31569.9125
901.24235	31561.9125
905.0374	31500.0125
908.8298	31450.5125
912.61957	31514.9125
916.40671	31800.8125
920.19121	32249.7125
923.97308	32705.2125
927.75233	33091.5125
931.52895	33152.6125
935.30295	32758.5125
939.07433	32111.0125
942.84309	31644.7125
946.60924	31489.4125
950.37278	31330.5125
954.13371	31066.6125
957.89203	30827.5125
961.64774	30682.7125
965.40086	30638.7125
969.15137	30510.3125
972.89929	30435.3125
976.64461	30396.9125
980.38733	30477.1125
984.12747	30587.1125
987.86502	30880.2125
991.59999	31306.0125
995.33237	32128.8125
999.06217	33496.2125
1002.78939	35076.5125
1006.51404	36008.4125
1010.23611	36464.9125
1013.95561	36894.7125
1017.67255	36927.2125
1021.38692	36470.4125
1025.09872	36248.1125
1028.80796	36962.9125
1032.51465	38492.6125
1036.21877	39867.8125
1039.92035	40040.8125
1043.61937	39106.0125
1047.31584	37567.9125
1051.00976	35992.4125
1054.70114	35105.0125
1058.38998	34844.4125
1062.07627	34839.2125
1065.76003	34862.0125
1069.44126	35089.6125
1073.11995	35344.2125
1076.79611	35607.8125
1080.46974	35898.5125
1084.14085	36433.6125
1087.80943	36984.1125
1091.47549	37107.4125
1095.13903	36569.1125
1098.80005	35756.2125
1102.45857	35040.3125
1106.11456	34768.1125
1109.76805	34870.3125
1113.41903	35321.0125
1117.06751	35952.1125
1120.71348	36794.8125
1124.35696	37609.0125
1127.99793	38235.7125
1131.63641	38069.8125
1135.2724	37167.6125
1138.90589	36358.1125
1142.5369	35884.9125
1146.16542	35543.8125
1149.79145	35408.1125
1153.415	35581.6125
1157.03607	35948.4125
1160.65467	36501.9125
1164.27079	37479.6125
1167.88443	39030.5125
1171.49561	41496.2125
1175.10432	45265.5125
1178.71056	50072.6125
1182.31434	54059.4125
1185.91565	55860.0125
1189.51451	55471.2125
1193.11091	53045.2125
1196.70485	49917.2125
1200.29634	47358.2125
1203.88538	45406.9125
1207.47197	43670.2125
1211.05612	42247.4125
1214.63782	41654.7125
1218.21708	41868.6125
1221.79391	42298.2125
1225.36829	42443.9125
1228.94024	42097.0125
1232.50976	41375.4125
1236.07685	40981.5125
1239.6415	40954.1125
1243.20374	41174.9125
1246.76355	41507.7125
1250.32093	42187.7125
1253.8759	43307.9125
1257.42845	44741.9125
1260.97859	45877.9125
1264.52631	46764.2125
1268.07163	47725.9125
1271.61453	48810.9125
1275.15503	50106.8125
1278.69312	51470.8125
1282.22882	52700.0125
1285.76211	53793.7125
1289.29301	54840.1125
1292.82151	56047.5125
1296.34761	57738.1125
1299.87133	60302.0125
1303.39266	64204.8125
1306.9116	69760.9125
1310.42815	75711.7125
1313.94233	79097.0125
1317.45412	78067.8125
1320.96354	74242.2125
1324.47058	70051.6125
1327.97525	66631.0125
1331.47754	64740.0125
1334.97747	64606.2125
1338.47502	65767.8125
1341.97022	67348.1125
1345.46305	68364.1125
1348.95352	68732.8125
1352.44163	69420.3125
1355.92738	72030.1125
1359.41078	77710.8125
1362.89183	82774.0125
1366.37053	80263.1125
1369.84688	71108.8125
1373.32088	62259.1125
1376.79254	56449.9125
1380.26186	53395.2125
1383.72883	51879.0125
1387.19347	50988.1125
1390.65578	50238.0125
1394.11575	50045.9125
1397.57339	50379.5125
1401.0287	51324.9125
1404.48168	52576.8125
1407.93234	53962.8125
1411.38068	55204.4125
1414.82669	55417.7125
1418.27039	54241.6125
1421.71177	52343.0125
1425.15083	50712.4125
1428.58758	50010.1125
1432.02203	50066.1125
1435.45416	50537.1125
1438.88399	50786.5125
1442.31151	50914.9125
1445.73673	51199.9125
1449.15965	51643.4125
1452.58027	51524.2125
1455.9986	51142.8125
1459.41463	50979.3125
1462.82837	51410.0125
1466.23982	52277.0125
1469.64898	53349.8125
1473.05586	54066.0125
1476.46045	54604.0125
1479.86276	55345.9125
1483.26279	56248.9125
1486.66054	57136.0125
1490.05602	58509.6125
1493.44922	60077.2125
1496.84016	61714.2125
1500.22882	63900.3125
1503.61521	66975.1125
1506.99934	70601.6125
1510.38121	74017.2125
1513.76081	75177.4125
1517.13816	72455.0125
1520.51324	67194.4125
1523.88607	62130.5125
1527.25665	58820.4125
1530.62498	56905.6125
1533.99105	55731.7125
1537.35488	55091.0125
1540.71647	54818.8125
1544.07581	54702.6125
1547.4329	54320.2125
1550.78776	53709.5125
1554.14038	53183.5125
1557.49077	52966.9125
1560.83892	53073.5125
1564.18484	53228.3125
1567.52853	53366.4125
1570.86999	53396.2125
1574.20922	53442.8125
1577.54624	53168.3125
1580.88103	52142.9125
1584.2136	51169.3125
1587.54395	51730.9125
1590.87208	54340.6125
1594.19801	58826.4125
1597.52172	63878.5125
1600.84321	66522.9125
1604.16251	64729.9125
1607.47959	59909.2125
1610.79447	54310.7125
1614.10715	49454.4125
1617.41763	45954.2125
1620.7259	43829.3125
1624.03199	42904.4125
1627.33587	43079.5125
1630.63757	44356.6125
1633.93707	46644.0125
1637.23439	49770.1125
1640.52951	53579.6125
1643.82246	57856.1125
1647.11321	61700.8125
1650.40179	63109.6125
1653.68819	60072.2125
1656.97241	53447.8125
1660.25446	46688.1125
1663.53433	41920.4125
1666.81203	38971.4125
1670.08756	37279.9125
1673.36092	36152.0125
1676.63211	35409.3125
1679.90115	34923.6125
1683.16801	34467.4125
1686.43272	34254.4125
1689.69527	34037.2125
1692.95567	33880.5125
1696.2139	33871.2125
1699.46999	33828.4125
1702.72392	33806.5125
1705.97571	33802.3125
1709.22535	33724.4125
1712.47284	33727.2125
1715.71819	33784.4125
1718.96139	33762.1125
1722.20246	33755.2125
1725.44139	33632.5125
1728.67818	33475.9125
1731.91284	33330.9125
1735.14537	33189.8125
1738.37576	33032.4125
1741.60403	32985.0125
1744.83017	32920.7125
1748.05418	32813.2125
1751.27607	32754.7125
1754.49584	32766.5125
1757.71349	32766.6125
1760.92903	32768.3125
1764.14244	32724.4125
1767.35375	32724.3125
1770.56294	32720.7125
1773.77002	32678.2125
1776.97499	32746.8125
1780.17785	32664.3125
1783.37861	32630.2125
1786.57727	32620.9125
1789.77382	32585.1125
1792.96828	32613.7125
1796.16064	32600.4125
1799.3509	32576.6125
1802.53907	32532.7125
1805.72514	32517.7125
1808.90913	32440.7125
1812.09102	32408.1125
1815.27083	32382.6125
1818.44856	32281.1125
1821.6242	32249.7125
1824.79776	32230.4125
1827.96924	32255.1125
1831.13864	32208.0125
1834.30597	32204.1125
1837.47122	32198.9125
1840.6344	32153.8125
1843.7955	32110.7125
1846.95454	32208.2125
1850.11151	32207.7125
1853.26642	32201.7125
1856.41926	32235.5125
1859.57004	32256.2125
1862.71876	32282.6125
1865.86542	32252.0125
1869.01003	32228.8125
1872.15258	32215.3125
1875.29308	32313.3125
1878.43152	32259.2125
1881.56792	32297.4125
1884.70227	32312.8125
1887.83457	32360.7125
1890.96482	32340.8125
1894.09304	32292.9125
1897.21921	32291.6125
1900.34335	32259.5125
1903.46544	32271.3125
1906.58551	32315.6125
1909.70353	32382.3125
1912.81953	32330.0125
1915.93349	32348.4125
1919.04543	32274.3125
1922.15534	32220.9125
1925.26322	32213.8125
1928.36908	32177.5125
1931.47292	32106.8125
1934.57473	32060.0125
1937.67453	31964.6125
1940.77232	31878.8125
1943.86808	31815.8125
1946.96184	31722.0125
1950.05358	31659.6125
1953.14331	31525.3125
1956.23103	31446.3125
1959.31675	31353.5125
1962.40046	31247.8125
1965.48217	31181.9125
1968.56188	31102.2125
1971.63959	31035.3125
1974.7153	31013.5125
1977.78901	30921.4125
1980.86073	30810.4125
1983.93046	30698.8125
1986.99819	30638.0125
1990.06394	30545.5125
1993.1277	30509.9125
1996.18947	30364.3125
1999.24925	30330.4125
2002.30706	30273.7125
2005.36288	30158.4125
2008.41672	30126.4125
2011.46859	30043.2125
2014.51848	29987.4125
2017.56639	29920.2125
2020.61233	29834.5125
2023.6563	29714.7125
2026.6983	29681.9125
2029.73833	29631.0125
2032.7764	29589.9125
2035.8125	29589.4125
2038.84664	29535.1125
2041.87881	29484.5125
2044.90903	29461.6125
2047.93729	29423.4125
2050.96359	29418.0125
2053.98794	29343.6125
2057.01034	29367.2125
2060.03078	29331.2125
2063.04927	29396.3125
2066.06582	29382.7125
2069.08042	29307.2125
2072.09307	29241.3125
2075.10378	29203.3125
2078.11255	29202.3125
2081.11938	29186.3125
2084.12426	29134.3125
2087.12722	29102.7125
2090.12824	29100.2125
2093.12732	29111.8125
2096.12447	29110.4125
2099.11969	29103.8125
2102.11299	29087.5125
2105.10435	29163.6125
2108.09379	29160.7125
2111.08131	29177.1125
2114.0669	29168.1125
2117.05057	29176.4125
2120.03233	29207.3125
2123.01216	29214.7125
2125.99008	29291.5125
2128.96609	29308.1125
2131.94018	29340.7125
2134.91236	29381.1125
2137.88263	29396.5125
2140.851	29451.5125
2143.81746	29455.0125
2146.78201	29414.6125
2149.74466	29473.6125
2152.7054	29496.9125
2155.66425	29465.1125
2158.6212	29495.7125
2161.57625	29431.6125
2164.52941	29447.3125
2167.48067	29422.9125
2170.43004	29459.7125
2173.37752	29443.2125
2176.32311	29479.6125
2179.26681	29521.1125
2182.20863	29527.0125
2185.14856	29583.0125
2188.08661	29570.3125
2191.02278	29548.6125
2193.95707	29557.3125
2196.88948	29485.8125
2199.82001	29527.9125
2202.74867	29553.5125
2205.67545	29488.3125
2208.60037	29495.0125
2211.52341	29507.4125
2214.44458	29495.3125
2217.36388	29514.0125
2220.28132	29444.4125
2223.1969	29404.4125
2226.11061	29359.8125
2229.02246	29261.7125
2231.93245	29200.1125
2234.84058	29181.7125
2237.74686	29127.9125
2240.65128	29111.0125
2243.55385	29062.9125
2246.45456	29010.1125
2249.35343	28978.8125
2252.25044	28974.2125
2255.14561	28940.3125
2258.03893	28948.0125
2260.93041	28950.6125
2263.82004	28837.7125
2266.70783	28790.8125
2269.59378	28683.1125
2272.4779	28620.9125
2275.36017	28572.0125
2278.24061	28573.1125
2281.11922	28503.3125
2283.996	28445.3125
2286.87094	28416.4125
2289.74405	28385.5125
2292.61534	28382.3125
2295.4848	28397.8125
2298.35243	28377.6125
2301.21824	28388.9125
2304.08223	28414.7125
2306.94439	28462.1125
2309.80474	28494.9125
2312.66327	28525.9125
2315.51999	28523.7125
2318.37489	28523.6125
2321.22797	28506.8125
2324.07925	28481.9125
2326.92871	28457.6125
2329.77637	28434.2125
2332.62222	28386.6125
2335.46626	28417.6125
2338.3085	28427.9125
2341.14893	28456.1125
2343.98756	28477.8125
2346.8244	28501.4125
2349.65943	28588.5125
2352.49267	28548.6125
2355.32411	28568.3125
2358.15376	28555.7125
2360.98161	28503.0125
2363.80768	28478.4125
2366.63195	28435.6125
2369.45444	28387.1125
2372.27514	28363.1125
2375.09405	28264.7125
2377.91118	28174.1125
2380.72652	28093.4125
2383.54009	27989.3125
2386.35187	27932.7125
2389.16188	27868.3125
2391.97011	27843.7125
2394.77657	27794.2125
2397.58125	27798.8125
2400.38416	27790.7125
2403.18529	27668.6125
2405.98466	27651.3125
2408.78226	27549.0125
2411.57809	27505.6125
2414.37216	27427.8125
2417.16446	27417.3125
2419.955	27380.9125
2422.74378	27353.7125
2425.5308	27296.1125
2428.31606	27307.9125
2431.09956	27369.4125
2433.88131	27352.0125
2436.6613	27363.8125
2439.43954	27327.0125
2442.21603	27313.1125
2444.99077	27256.0125
2447.76377	27284.5125
2450.53501	27240.2125
2453.30451	27236.5125
2456.07226	27212.3125
2458.83827	27196.0125
2461.60254	27183.9125
2464.36507	27171.4125
2467.12586	27214.6125
2469.88492	27184.3125
2472.64224	27194.0125
2475.39782	27234.6125
2478.15167	27260.1125
2480.90379	27301.7125
2483.65417	27318.6125
2486.40283	27411.8125
2489.14976	27386.9125
2491.89497	27394.1125
2494.63845	27449.3125
2497.3802	27424.1125
2500.12024	27446.8125
2502.85855	27411.1125
2505.59514	27337.3125
2508.33002	27297.6125
2511.06318	27272.1125
2513.79462	27202.1125
2516.52435	27177.5125
2519.25237	27135.1125
2521.97867	27121.8125
2524.70327	27122.3125
2527.42616	27073.7125
2530.14734	27041.2125
2532.86681	27010.8125
2535.58458	27023.6125
2538.30065	27036.4125
2541.01501	27054.1125
2543.72768	27039.8125
2546.43864	27042.4125
2549.14791	26989.0125
2551.85548	26961.5125
2554.56136	26924.7125
2557.26554	26879.2125
2559.96803	26845.9125
2562.66883	26826.4125
2565.36794	26802.1125
2568.06536	26828.4125
2570.7611	26786.9125
2573.45514	26724.0125
2576.14751	26725.5125
2578.83819	26715.1125
2581.52719	26724.0125
2584.21451	26704.0125
2586.90015	26697.3125
2589.58411	26678.9125
2592.2664	26729.3125
2594.94701	26700.3125
2597.62594	26655.4125
2600.30321	26713.1125
2602.9788	26690.3125
2605.65273	26674.9125
2608.32498	26680.0125
2610.99557	26660.8125
2613.66449	26681.9125
2616.33175	26679.6125
2618.99734	26721.1125
2621.66128	26670.6125
2624.32355	26698.4125
2626.98416	26723.2125
2629.64311	26696.4125
2632.30041	26720.3125
2634.95605	26683.1125
2637.61004	26645.7125
2640.26238	26634.5125
2642.91306	26559.5125
2645.56209	26494.2125
2648.20948	26467.0125
2650.85521	26431.9125
2653.4993	26439.9125
2656.14175	26434.7125
2658.78255	26483.0125
2661.42171	26482.7125
2664.05923	26512.2125
2666.6951	26558.3125
2669.32934	26566.8125
2671.96194	26556.2125
2674.59291	26622.7125
2677.22224	26603.9125
2679.84993	26650.9125
2682.476	26564.5125
2685.10043	26557.4125
2687.72324	26541.8125
2690.34441	26545.3125
2692.96396	26509.6125
2695.58188	26535.5125
2698.19818	26468.5125
2700.81285	26463.9125
2703.4259	26434.1125
2706.03733	26499.3125
2708.64714	26466.2125
2711.25533	26476.9125
2713.86191	26521.4125
2716.46687	26539.6125
2719.07021	26496.7125
2721.67194	26529.6125
2724.27206	26524.1125
2726.87057	26537.5125
2729.46747	26533.2125
2732.06276	26562.5125
2734.65644	26548.4125
2737.24852	26591.3125
2739.83899	26544.5125
2742.42786	26536.9125
2745.01513	26530.8125
2747.60079	26523.9125
2750.18486	26528.2125
2752.76733	26529.1125
2755.3482	26457.2125
2757.92747	26480.4125
2760.50515	26416.5125
2763.08123	26408.8125
2765.65573	26409.7125
2768.22863	26363.6125
2770.79994	26364.8125
2773.36967	26392.8125
2775.9378	26375.9125
2778.50435	26395.4125
2781.06932	26399.4125
2783.6327	26408.8125
2786.1945	26351.1125
2788.75471	26346.7125
2791.31335	26263.1125
2793.87041	26257.3125
2796.42589	26216.6125
2798.97979	26184.0125
2801.53212	26104.4125
2804.08288	26121.4125
2806.63206	26027.9125
2809.17967	26045.6125
2811.72571	25964.7125
2814.27018	25914.4125
2816.81308	25865.0125
2819.35442	25873.0125
2821.89419	25866.4125
2824.43239	25893.4125
2826.96904	25911.0125
2829.50412	25897.2125
2832.03763	25857.3125
2834.56959	25848.2125
2837.1	25820.7125
2839.62884	25808.4125
2842.15613	25822.4125
2844.68186	25857.7125
2847.20604	25850.4125
2849.72867	25854.9125
2852.24974	25804.5125
2854.76927	25783.9125
2857.28724	25756.6125
2859.80367	25745.4125
2862.31855	25706.8125
2864.83189	25718.6125
2867.34368	25659.6125
2869.85393	25654.7125
2872.36264	25608.5125
2874.8698	25543.7125
2877.37543	25558.9125
2879.87952	25556.6125
2882.38207	25576.2125
2884.88308	25569.2125
2887.38256	25576.2125
2889.88051	25586.4125
2892.37692	25589.0125
2894.8718	25586.4125
2897.36515	25658.4125
2899.85698	25637.7125
2902.34727	25672.2125
2904.83604	25699.2125
2907.32328	25715.1125
2909.809	25725.5125
2912.29319	25718.4125
2914.77587	25737.8125
2917.25702	25710.1125
2919.73665	25631.5125
2922.21476	25641.4125
2924.69136	25596.3125
2927.16644	25616.6125
2929.64	25575.4125
2932.11205	25517.5125
2934.58258	25495.5125
2937.05161	25486.3125
2939.51912	25498.0125
2941.98513	25495.1125
2944.44962	25402.1125
2946.91261	25373.4125
2949.37409	25373.4125
2951.83407	25370.6125
2954.29254	25339.6125
2956.74951	25348.1125
2959.20498	25333.2125
2961.65895	25264.4125
2964.11142	25250.4125
2966.56239	25216.1125
2969.01186	25215.5125
2971.45984	25102.1125
2973.90632	25036.5125
2976.35131	25004.4125
2978.7948	25038.6125
2981.23681	24943.5125
2983.67732	24861.7125
2986.11635	24820.7125
2988.55388	24769.1125
2990.98993	24791.3125
2993.4245	24729.5125
2995.85758	24644.3125
2998.28917	24544.4125
3000.71928	24498.4125
3003.14791	24458.9125
3005.57506	24485.8125
3008.00073	24408.1125
3010.42493	24381.5125
3012.84764	24336.9125
3015.26888	24318.1125
3017.68865	24221.8125
3020.10694	24248.7125
3022.52376	24154.8125
3024.9391	24139.7125
3027.35298	24088.0125
3029.76539	24048.1125
3032.17632	24080.9125
3034.5858	23991.6125
3036.9938	24018.1125
3039.40034	23929.9125
3041.80542	23972.5125
3044.20903	23923.5125
3046.61118	23911.7125
3049.01187	23833.2125
3051.4111	23814.1125
3053.80888	23764.0125
3056.20519	23714.8125
3058.60005	23618.1125
3060.99345	23558.9125
3063.3854	23506.7125
3065.7759	23434.1125
3068.16494	23386.1125
3070.55254	23257.7125
3072.93868	23216.5125
3075.32338	23138.2125
3077.70662	23069.3125
3080.08842	23009.8125
3082.46878	22934.2125
3084.84769	22926.8125
3087.22515	22896.1125
3089.60118	22898.0125
3091.97576	22872.0125
3094.3489	22884.5125
3096.72061	22889.3125
3099.09087	22864.1125
3101.4597	22854.7125
3103.82709	22863.4125
3106.19305	22847.9125
3108.55757	22836.7125
3110.92066	22735.5125
3113.28232	22717.5125
3115.64255	22679.9125
3118.00134	22574.9125
3120.35871	22538.7125
3122.71466	22505.3125
3125.06917	22460.8125
3127.42226	22407.0125
3129.77393	22433.1125
3132.12417	22391.5125
3134.47299	22362.9125
3136.82039	22357.7125
3139.16636	22351.8125
3141.51092	22314.5125
3143.85406	22288.0125
3146.19579	22322.4125
3148.53609	22279.5125
3150.87499	22296.3125
3153.21246	22306.1125
3155.54853	22346.9125
3157.88318	22288.7125
3160.21642	22312.8125
3162.54826	22271.9125
3164.87868	22213.3125
3167.2077	22227.0125
3169.5353	22193.6125
3171.86151	22196.0125
3174.18631	22216.3125
3176.5097	22176.3125
3178.83169	22160.4125
3181.15228	22148.4125
3183.47147	22073.9125
3185.78926	22085.9125
3188.10565	22054.4125
3190.42065	22044.1125
3192.73424	21996.2125
3195.04645	21988.9125
3197.35725	21959.7125
3199.66667	21956.8125
3201.97469	21990.2125
3204.28132	21969.0125
3206.58656	21964.3125
3208.8904	21964.8125
3211.19287	21957.2125
3213.49394	21959.8125
3215.79363	21993.3125
3218.09193	22006.5125
3220.38884	22056.0125
3222.68438	22044.8125
3224.97853	21961.6125
3227.2713	21932.9125
3229.56269	21910.9125
3231.8527	21914.3125
3234.14133	21878.8125
3236.42858	21851.1125
3238.71446	21842.5125
3240.99896	21746.4125
3243.28209	21751.1125
3245.56384	21718.7125
3247.84423	21695.5125
3250.12324	21675.0125
3252.40088	21646.5125
3254.67715	21649.8125
3256.95205	21610.2125
3259.22558	21608.6125
3261.49775	21620.2125
3263.76855	21580.5125
3266.03799	21516.3125
3268.30606	21526.6125
3270.57277	21469.5125
3272.83812	21466.9125
3275.10211	21443.6125
3277.36474	21359.1125
3279.62601	21363.7125
3281.88593	21378.6125
3284.14448	21343.0125
3286.40168	21313.9125
3288.65753	21309.3125
3290.91202	21254.6125
3293.16516	21264.2125
3295.41695	21250.3125
3297.66738	21090.2125
3299.91647	21011.1125
3302.16421	20897.8125
3304.4106	20785.6125
3306.65564	20668.3125
3308.89933	20504.4125
3311.14169	20426.1125
3313.38269	20256.1125
3315.62236	20148.1125
3317.86068	19949.6125
3320.09766	19749.1125
3322.3333	19655.3125
3324.5676	19567.3125
3326.80056	19298.6125
3329.03219	19171.7125
3331.26248	5.6125
3333.49143	-0.8875
3335.71905	0.7125
