Data from AgNPs_FTO_APTES_UA_20uM_CRN_2uM_R6G_10uM_NaF_0.1M_Addition_RamanShift__11__12-53-22-078.txt Node

Date: Thu Feb 17 12:53:22 GMT 2022
User: TCL
Spectrometer: QEP01345
Trigger mode: 4
Integration Time (sec): 7.000000E0
Scans to average: 10
Electric dark correction enabled: true
Nonlinearity correction enabled: false
Boxcar width: 0
XAxis mode: Raman Shifts
Number of Pixels in Spectrum: 1044
>>>>>Begin Spectral Data<<<<<
46.04893	-0.3125
50.45542	-1.1125
54.85868	-2.7125
59.25871	-1.0125
63.6555	130.2875
68.04907	129.9875
72.43941	135.3875
76.82654	134.2875
81.21044	139.4875
85.59113	144.5875
89.96862	149.7875
94.34289	150.4875
98.71396	155.2875
103.08183	164.0875
107.4465	167.5875
111.80798	170.6875
116.16626	177.6875
120.52136	189.5875
124.87327	192.0875
129.222	208.7875
133.56755	222.1875
137.90993	240.6875
142.24913	265.4875
146.58517	302.3875
150.91804	364.2875
155.24774	433.1875
159.57429	545.7875
163.89768	706.4875
168.21792	951.4875
172.53501	1296.7875
176.84895	1838.0875
181.15975	2594.0875
185.46741	3652.9875
189.77193	5051.1875
194.07331	6775.6875
198.37157	8751.6875
202.6667	10824.5875
206.9587	12934.6875
211.24758	14930.2875
215.53334	16935.1875
219.81599	19027.6875
224.09553	21310.5875
228.37195	23845.0875
232.64527	26666.5875
236.91549	29671.2875
241.18261	32740.9875
245.44663	35631.7875
249.70755	38410.2875
253.96539	40764.1875
258.22014	42773.5875
262.4718	44340.5875
266.72039	45441.1875
270.96589	46083.4875
275.20832	46156.1875
279.44768	45966.8875
283.68397	45647.6875
287.91719	45304.5875
292.14735	45149.9875
296.37445	45010.2875
300.59849	45034.5875
304.81948	45103.8875
309.03742	45139.6875
313.25231	44983.4875
317.46415	44534.0875
321.67296	43881.1875
325.87872	43404.6875
330.08145	43143.2875
334.28114	43237.2875
338.47781	43609.8875
342.67145	44054.4875
346.86207	44689.1875
351.04966	45257.4875
355.23424	45834.9875
359.4158	46376.7875
363.59435	46862.3875
367.76989	47149.6875
371.94243	47426.1875
376.11196	47724.9875
380.27849	47883.5875
384.44203	48109.4875
388.60257	48448.1875
392.76012	48980.8875
396.91468	49707.8875
401.06626	50393.6875
405.21485	50882.5875
409.36047	50813.0875
413.50311	50530.4875
417.64277	50390.1875
421.77947	50543.1875
425.9132	50842.2875
430.04396	51188.7875
434.17176	51502.4875
438.2966	51808.4875
442.41849	52333.5875
446.53742	53267.0875
450.6534	54264.7875
454.76644	55065.6875
458.87653	55497.8875
462.98368	55631.1875
467.08789	55429.6875
471.18916	55052.3875
475.2875	54626.5875
479.38291	54422.5875
483.4754	54180.0875
487.56496	53920.1875
491.6516	53564.6875
495.73531	53020.7875
499.81612	52604.2875
503.89401	52713.6875
507.96899	52955.8875
512.04106	53006.2875
516.11023	52883.7875
520.1765	52636.4875
524.23987	52396.3875
528.30034	52102.3875
532.35792	51862.6875
536.41261	51585.1875
540.46441	51343.9875
544.51333	51384.0875
548.55936	51767.5875
552.60252	52474.8875
556.64279	53404.6875
560.6802	54092.0875
564.71473	54705.7875
568.7464	55578.5875
572.7752	57083.0875
576.80114	59077.8875
580.82422	60871.1875
584.84444	62085.3875
588.86181	63427.0875
592.87633	64682.4875
596.888	64565.1875
600.89682	62852.5875
604.9028	62171.7875
608.90594	63851.8875
612.90624	65422.0875
616.90371	62209.7875
620.89834	56608.3875
624.89015	54371.3875
628.87913	54363.2875
632.86528	54810.5875
636.84862	54946.3875
640.82913	54330.2875
644.80683	53397.3875
648.78172	52664.8875
652.75379	52557.4875
656.72306	52979.1875
660.68952	53597.4875
664.65319	53521.7875
668.61405	53111.1875
672.57211	53066.4875
676.52738	53249.6875
680.47986	53279.5875
684.42955	53181.5875
688.37646	53012.1875
692.32058	53243.7875
696.26192	53715.0875
700.20048	54260.1875
704.13626	54710.7875
708.06928	54976.3875
711.99952	54932.0875
715.927	54793.7875
719.85171	54799.1875
723.77365	54562.4875
727.69284	54098.1875
731.60928	53635.4875
735.52295	53372.1875
739.43388	53395.5875
743.34206	53590.8875
747.24749	53834.2875
751.15017	54205.3875
755.05012	54891.2875
758.94733	55941.6875
762.8418	57722.9875
766.73354	60377.4875
770.62254	62610.5875
774.50882	62606.5875
778.39237	60717.4875
782.27321	58231.5875
786.15132	56177.3875
790.02671	54956.8875
793.89938	54244.5875
797.76935	53777.9875
801.6366	53600.4875
805.50115	53514.1875
809.36299	53430.0875
813.22213	53267.5875
817.07857	53184.9875
820.93231	53228.0875
824.78336	53110.1875
828.63172	53011.4875
832.47738	52878.6875
836.32036	52919.1875
840.16066	52949.5875
843.99827	53104.5875
847.8332	53142.8875
851.66546	53261.0875
855.49504	53427.5875
859.32195	53526.2875
863.1462	53466.7875
866.96777	53467.4875
870.78668	53567.9875
874.60293	53509.1875
878.41652	53605.4875
882.22745	53726.4875
886.03573	53804.2875
889.84136	53798.9875
893.64433	53731.8875
897.44466	53615.6875
901.24235	53581.7875
905.0374	53473.3875
908.8298	53441.3875
912.61957	53507.7875
916.40671	53938.4875
920.19121	54598.7875
923.97308	54951.3875
927.75233	54844.0875
931.52895	54308.7875
935.30295	53739.0875
939.07433	53187.4875
942.84309	52739.9875
946.60924	52542.4875
950.37278	52492.1875
954.13371	52568.0875
957.89203	52563.5875
961.64774	52625.5875
965.40086	52525.0875
969.15137	52527.1875
972.89929	52386.8875
976.64461	52258.6875
980.38733	52204.9875
984.12747	52268.1875
987.86502	52432.4875
991.59999	52673.9875
995.33237	53014.3875
999.06217	53526.4875
1002.78939	54206.6875
1006.51404	55053.1875
1010.23611	55934.8875
1013.95561	56469.8875
1017.67255	56532.0875
1021.38692	56212.6875
1025.09872	55573.3875
1028.80796	54925.1875
1032.51465	54647.3875
1036.21877	54667.5875
1039.92035	54843.3875
1043.61937	54937.4875
1047.31584	55086.3875
1051.00976	55242.1875
1054.70114	55521.6875
1058.38998	55826.7875
1062.07627	56371.8875
1065.76003	56979.6875
1069.44126	57716.0875
1073.11995	58518.0875
1076.79611	59089.4875
1080.46974	59487.5875
1084.14085	59717.0875
1087.80943	60160.2875
1091.47549	60577.2875
1095.13903	60724.3875
1098.80005	60338.0875
1102.45857	59360.5875
1106.11456	58543.3875
1109.76805	57992.5875
1113.41903	57808.8875
1117.06751	57946.5875
1120.71348	58213.8875
1124.35696	58518.6875
1127.99793	58911.0875
1131.63641	59108.1875
1135.2724	59169.8875
1138.90589	59105.5875
1142.5369	59360.0875
1146.16542	59626.2875
1149.79145	59984.9875
1153.415	60470.9875
1157.03607	60953.2875
1160.65467	61874.6875
1164.27079	63335.1875
1167.88443	65232.7875
1171.49561	67460.7875
1175.10432	70061.9875
1178.71056	73258.6875
1182.31434	76152.5875
1185.91565	77941.7875
1189.51451	78425.1875
1193.11091	78069.5875
1196.70485	76880.9875
1200.29634	75162.0875
1203.88538	73868.7875
1207.47197	73340.6875
1211.05612	72884.0875
1214.63782	72057.2875
1218.21708	70691.2875
1221.79391	69170.1875
1225.36829	68003.3875
1228.94024	67265.8875
1232.50976	66707.5875
1236.07685	66191.2875
1239.6415	65901.1875
1243.20374	65936.9875
1246.76355	66330.8875
1250.32093	66983.2875
1253.8759	67898.6875
1257.42845	69234.0875
1260.97859	70721.7875
1264.52631	72177.2875
1268.07163	73659.5875
1271.61453	75064.2875
1275.15503	76255.6875
1278.69312	77559.9875
1282.22882	79032.9875
1285.76211	80888.1875
1289.29301	82977.0875
1292.82151	85404.4875
1296.34761	88345.2875
1299.87133	91690.0875
1303.39266	94831.0875
1306.9116	97684.0875
1310.42815	99899.3875
1313.94233	100838.7875
1317.45412	100455.0875
1320.96354	99613.1875
1324.47058	99069.0875
1327.97525	98897.0875
1331.47754	98843.9875
1334.97747	98808.7875
1338.47502	99060.1875
1341.97022	99505.4875
1345.46305	99897.4875
1348.95352	99863.3875
1352.44163	99034.5875
1355.92738	98316.7875
1359.41078	98573.9875
1362.89183	98756.0875
1366.37053	97097.1875
1369.84688	92481.7875
1373.32088	86564.4875
1376.79254	82199.9875
1380.26186	80397.8875
1383.72883	80224.8875
1387.19347	80448.3875
1390.65578	80161.4875
1394.11575	79760.5875
1397.57339	79750.5875
1401.0287	80022.9875
1404.48168	80307.2875
1407.93234	79826.7875
1411.38068	78689.3875
1414.82669	76888.5875
1418.27039	74894.8875
1421.71177	72958.0875
1425.15083	71450.8875
1428.58758	70768.3875
1432.02203	71218.1875
1435.45416	72442.1875
1438.88399	73856.5875
1442.31151	75168.0875
1445.73673	75978.5875
1449.15965	76544.7875
1452.58027	77100.2875
1455.9986	77367.2875
1459.41463	78086.7875
1462.82837	79058.4875
1466.23982	80049.3875
1469.64898	80938.2875
1473.05586	81563.0875
1476.46045	81742.9875
1479.86276	81626.4875
1483.26279	81247.4875
1486.66054	80815.9875
1490.05602	81120.6875
1493.44922	81875.1875
1496.84016	82818.3875
1500.22882	84264.9875
1503.61521	85964.9875
1506.99934	87624.8875
1510.38121	88571.3875
1513.76081	88394.6875
1517.13816	87152.0875
1520.51324	85993.1875
1523.88607	85415.0875
1527.25665	85587.1875
1530.62498	85797.2875
1533.99105	85627.1875
1537.35488	84647.0875
1540.71647	83113.2875
1544.07581	81403.1875
1547.4329	79812.8875
1550.78776	78441.5875
1554.14038	77503.4875
1557.49077	76800.8875
1560.83892	76414.1875
1564.18484	76225.8875
1567.52853	76133.7875
1570.86999	76473.9875
1574.20922	77229.1875
1577.54624	77974.4875
1580.88103	78100.7875
1584.2136	78400.8875
1587.54395	79900.8875
1590.87208	82237.5875
1594.19801	85273.8875
1597.52172	88154.3875
1600.84321	88647.6875
1604.16251	86050.3875
1607.47959	82134.9875
1610.79447	77852.5875
1614.10715	73623.6875
1617.41763	69801.4875
1620.7259	66953.1875
1624.03199	65321.0875
1627.33587	65082.2875
1630.63757	66009.0875
1633.93707	68664.0875
1637.23439	73263.7875
1640.52951	80247.1875
1643.82246	88426.3875
1647.11321	94820.0875
1650.40179	96038.0875
1653.68819	91137.3875
1656.97241	82491.9875
1660.25446	73816.0875
1663.53433	67052.4875
1666.81203	62568.0875
1670.08756	59696.2875
1673.36092	57926.6875
1676.63211	56712.4875
1679.90115	55843.2875
1683.16801	55176.7875
1686.43272	54708.3875
1689.69527	54367.4875
1692.95567	54019.7875
1696.2139	53865.3875
1699.46999	53770.5875
1702.72392	53644.7875
1705.97571	53521.0875
1709.22535	53423.0875
1712.47284	53359.0875
1715.71819	53369.4875
1718.96139	53244.7875
1722.20246	53136.6875
1725.44139	52950.1875
1728.67818	52798.2875
1731.91284	52564.3875
1735.14537	52315.5875
1738.37576	52182.9875
1741.60403	52050.0875
1744.83017	51900.9875
1748.05418	51732.9875
1751.27607	51638.5875
1754.49584	51583.8875
1757.71349	51584.6875
1760.92903	51591.5875
1764.14244	51508.8875
1767.35375	51471.4875
1770.56294	51425.1875
1773.77002	51386.7875
1776.97499	51368.4875
1780.17785	51350.6875
1783.37861	51253.7875
1786.57727	51094.8875
1789.77382	51005.3875
1792.96828	51013.3875
1796.16064	50935.4875
1799.3509	50902.7875
1802.53907	50845.7875
1805.72514	50738.4875
1808.90913	50565.2875
1812.09102	50518.5875
1815.27083	50419.5875
1818.44856	50339.1875
1821.6242	50309.0875
1824.79776	50285.2875
1827.96924	50234.1875
1831.13864	50188.1875
1834.30597	50208.4875
1837.47122	50158.6875
1840.6344	50113.5875
1843.7955	50063.9875
1846.95454	50092.3875
1850.11151	50088.6875
1853.26642	50034.4875
1856.41926	50048.0875
1859.57004	50029.2875
1862.71876	49909.7875
1865.86542	49861.9875
1869.01003	49795.0875
1872.15258	49753.7875
1875.29308	49650.4875
1878.43152	49602.3875
1881.56792	49605.7875
1884.70227	49597.6875
1887.83457	49576.8875
1890.96482	49522.7875
1894.09304	49459.0875
1897.21921	49374.8875
1900.34335	49266.2875
1903.46544	49224.1875
1906.58551	49234.3875
1909.70353	49179.6875
1912.81953	49137.3875
1915.93349	49077.6875
1919.04543	48918.0875
1922.15534	48854.4875
1925.26322	48883.3875
1928.36908	48789.9875
1931.47292	48693.5875
1934.57473	48639.1875
1937.67453	48524.9875
1940.77232	48392.0875
1943.86808	48287.9875
1946.96184	48134.8875
1950.05358	48004.0875
1953.14331	47897.5875
1956.23103	47743.9875
1959.31675	47638.5875
1962.40046	47510.6875
1965.48217	47271.1875
1968.56188	47194.8875
1971.63959	47074.8875
1974.7153	46996.5875
1977.78901	46830.8875
1980.86073	46659.8875
1983.93046	46575.4875
1986.99819	46477.2875
1990.06394	46380.0875
1993.1277	46254.7875
1996.18947	46094.6875
1999.24925	46046.4875
2002.30706	45887.8875
2005.36288	45729.2875
2008.41672	45579.4875
2011.46859	45430.8875
2014.51848	45310.2875
2017.56639	45214.1875
2020.61233	45106.5875
2023.6563	45000.1875
2026.6983	44875.0875
2029.73833	44826.5875
2032.7764	44694.2875
2035.8125	44644.6875
2038.84664	44535.6875
2041.87881	44484.0875
2044.90903	44447.7875
2047.93729	44275.9875
2050.96359	44286.9875
2053.98794	44204.2875
2057.01034	44155.4875
2060.03078	44234.3875
2063.04927	44214.0875
2066.06582	44212.8875
2069.08042	44192.4875
2072.09307	44166.7875
2075.10378	44038.9875
2078.11255	44012.6875
2081.11938	44083.9875
2084.12426	44050.7875
2087.12722	44027.2875
2090.12824	44020.7875
2093.12732	44034.5875
2096.12447	43980.7875
2099.11969	43950.8875
2102.11299	43967.1875
2105.10435	43977.7875
2108.09379	44034.9875
2111.08131	44040.4875
2114.0669	44036.4875
2117.05057	44101.2875
2120.03233	44120.4875
2123.01216	44190.7875
2125.99008	44228.2875
2128.96609	44260.5875
2131.94018	44308.5875
2134.91236	44383.4875
2137.88263	44454.7875
2140.851	44449.8875
2143.81746	44451.8875
2146.78201	44486.0875
2149.74466	44519.6875
2152.7054	44505.1875
2155.66425	44516.1875
2158.6212	44519.5875
2161.57625	44437.3875
2164.52941	44453.4875
2167.48067	44406.4875
2170.43004	44384.2875
2173.37752	44410.5875
2176.32311	44385.9875
2179.26681	44434.4875
2182.20863	44405.9875
2185.14856	44478.0875
2188.08661	44464.3875
2191.02278	44409.5875
2193.95707	44353.3875
2196.88948	44268.7875
2199.82001	44316.0875
2202.74867	44248.7875
2205.67545	44208.1875
2208.60037	44120.2875
2211.52341	44064.0875
2214.44458	44005.7875
2217.36388	43966.3875
2220.28132	43882.6875
2223.1969	43813.9875
2226.11061	43732.0875
2229.02246	43578.3875
2231.93245	43520.6875
2234.84058	43509.6875
2237.74686	43504.1875
2240.65128	43456.3875
2243.55385	43396.6875
2246.45456	43374.8875
2249.35343	43264.7875
2252.25044	43238.6875
2255.14561	43079.1875
2258.03893	43087.8875
2260.93041	43027.0875
2263.82004	42906.9875
2266.70783	42781.1875
2269.59378	42690.8875
2272.4779	42584.0875
2275.36017	42574.7875
2278.24061	42537.7875
2281.11922	42363.3875
2283.996	42332.3875
2286.87094	42291.5875
2289.74405	42268.0875
2292.61534	42244.8875
2295.4848	42156.2875
2298.35243	42157.5875
2301.21824	42082.6875
2304.08223	42062.8875
2306.94439	42021.7875
2309.80474	42025.4875
2312.66327	41989.5875
2315.51999	41913.4875
2318.37489	41874.0875
2321.22797	41761.4875
2324.07925	41764.9875
2326.92871	41680.1875
2329.77637	41559.1875
2332.62222	41497.6875
2335.46626	41481.9875
2338.3085	41475.5875
2341.14893	41393.2875
2343.98756	41399.8875
2346.8244	41400.0875
2349.65943	41412.5875
2352.49267	41375.5875
2355.32411	41348.3875
2358.15376	41317.4875
2360.98161	41331.4875
2363.80768	41273.3875
2366.63195	41214.7875
2369.45444	41201.5875
2372.27514	41188.3875
2375.09405	41197.3875
2377.91118	41050.6875
2380.72652	40999.7875
2383.54009	40922.5875
2386.35187	40842.3875
2389.16188	40694.1875
2391.97011	40626.7875
2394.77657	40578.3875
2397.58125	40560.5875
2400.38416	40481.0875
2403.18529	40375.6875
2405.98466	40346.6875
2408.78226	40296.9875
2411.57809	40246.5875
2414.37216	40214.8875
2417.16446	40233.1875
2419.955	40201.4875
2422.74378	40192.5875
2425.5308	40129.7875
2428.31606	40127.5875
2431.09956	40126.0875
2433.88131	40127.8875
2436.6613	40076.1875
2439.43954	40016.2875
2442.21603	40033.7875
2444.99077	39977.5875
2447.76377	39943.3875
2450.53501	39861.1875
2453.30451	39894.5875
2456.07226	39872.2875
2458.83827	39791.8875
2461.60254	39770.1875
2464.36507	39752.0875
2467.12586	39746.2875
2469.88492	39681.4875
2472.64224	39749.6875
2475.39782	39654.5875
2478.15167	39670.0875
2480.90379	39646.5875
2483.65417	39686.8875
2486.40283	39641.8875
2489.14976	39628.6875
2491.89497	39602.4875
2494.63845	39613.7875
2497.3802	39549.0875
2500.12024	39581.5875
2502.85855	39551.6875
2505.59514	39517.5875
2508.33002	39421.7875
2511.06318	39363.8875
2513.79462	39350.2875
2516.52435	39353.1875
2519.25237	39301.0875
2521.97867	39328.6875
2524.70327	39296.4875
2527.42616	39201.9875
2530.14734	39178.3875
2532.86681	39090.5875
2535.58458	39104.6875
2538.30065	39121.0875
2541.01501	39050.3875
2543.72768	39029.1875
2546.43864	39002.6875
2549.14791	38916.0875
2551.85548	38850.3875
2554.56136	38754.0875
2557.26554	38690.2875
2559.96803	38631.0875
2562.66883	38566.4875
2565.36794	38567.3875
2568.06536	38493.9875
2570.7611	38414.4875
2573.45514	38309.9875
2576.14751	38280.9875
2578.83819	38262.7875
2581.52719	38248.5875
2584.21451	38185.9875
2586.90015	38123.4875
2589.58411	38002.1875
2592.2664	38102.8875
2594.94701	37958.4875
2597.62594	37963.2875
2600.30321	37965.8875
2602.9788	37973.0875
2605.65273	37901.2875
2608.32498	37876.0875
2610.99557	37837.7875
2613.66449	37849.4875
2616.33175	37737.7875
2618.99734	37670.3875
2621.66128	37565.3875
2624.32355	37566.3875
2626.98416	37525.0875
2629.64311	37432.5875
2632.30041	37393.1875
2634.95605	37389.8875
2637.61004	37307.6875
2640.26238	37349.7875
2642.91306	37306.5875
2645.56209	37318.8875
2648.20948	37328.5875
2650.85521	37297.8875
2653.4993	37313.6875
2656.14175	37297.1875
2658.78255	37333.3875
2661.42171	37351.2875
2664.05923	37383.7875
2666.6951	37339.3875
2669.32934	37348.0875
2671.96194	37299.5875
2674.59291	37336.5875
2677.22224	37341.1875
2679.84993	37384.4875
2682.476	37331.2875
2685.10043	37332.1875
2687.72324	37284.4875
2690.34441	37298.2875
2692.96396	37272.1875
2695.58188	37369.6875
2698.19818	37280.4875
2700.81285	37267.3875
2703.4259	37236.8875
2706.03733	37339.2875
2708.64714	37334.7875
2711.25533	37306.5875
2713.86191	37313.2875
2716.46687	37421.5875
2719.07021	37353.0875
2721.67194	37323.4875
2724.27206	37287.8875
2726.87057	37363.2875
2729.46747	37348.4875
2732.06276	37368.9875
2734.65644	37360.7875
2737.24852	37388.7875
2739.83899	37305.2875
2742.42786	37338.2875
2745.01513	37292.8875
2747.60079	37212.4875
2750.18486	37227.5875
2752.76733	37179.7875
2755.3482	37141.5875
2757.92747	37098.7875
2760.50515	37038.6875
2763.08123	37003.1875
2765.65573	36974.0875
2768.22863	37029.4875
2770.79994	36901.8875
2773.36967	36913.4875
2775.9378	36943.0875
2778.50435	36848.9875
2781.06932	36848.2875
2783.6327	36837.4875
2786.1945	36750.5875
2788.75471	36704.1875
2791.31335	36592.9875
2793.87041	36534.1875
2796.42589	36517.3875
2798.97979	36435.0875
2801.53212	36346.6875
2804.08288	36283.3875
2806.63206	36168.2875
2809.17967	36099.9875
2811.72571	36028.3875
2814.27018	35917.4875
2816.81308	35789.5875
2819.35442	35767.6875
2821.89419	35683.4875
2824.43239	35657.2875
2826.96904	35616.5875
2829.50412	35579.9875
2832.03763	35515.8875
2834.56959	35510.6875
2837.1	35444.4875
2839.62884	35403.1875
2842.15613	35322.7875
2844.68186	35356.8875
2847.20604	35319.9875
2849.72867	35265.4875
2852.24974	35149.0875
2854.76927	35148.7875
2857.28724	35088.1875
2859.80367	35138.1875
2862.31855	35100.7875
2864.83189	35013.3875
2867.34368	34916.3875
2869.85393	34910.8875
2872.36264	34817.2875
2874.8698	34811.4875
2877.37543	34763.6875
2879.87952	34745.2875
2882.38207	34724.5875
2884.88308	34731.0875
2887.38256	34722.6875
2889.88051	34704.6875
2892.37692	34721.1875
2894.8718	34722.8875
2897.36515	34739.1875
2899.85698	34726.0875
2902.34727	34744.4875
2904.83604	34758.9875
2907.32328	34764.4875
2909.809	34777.8875
2912.29319	34819.2875
2914.77587	34790.1875
2917.25702	34818.0875
2919.73665	34779.5875
2922.21476	34769.5875
2924.69136	34688.2875
2927.16644	34734.0875
2929.64	34665.2875
2932.11205	34618.4875
2934.58258	34546.3875
2937.05161	34565.7875
2939.51912	34598.0875
2941.98513	34548.2875
2944.44962	34466.6875
2946.91261	34442.8875
2949.37409	34497.9875
2951.83407	34428.5875
2954.29254	34414.5875
2956.74951	34382.4875
2959.20498	34368.4875
2961.65895	34341.4875
2964.11142	34386.8875
2966.56239	34371.9875
2969.01186	34331.2875
2971.45984	34212.8875
2973.90632	34157.7875
2976.35131	34142.7875
2978.7948	34101.5875
2981.23681	34075.1875
2983.67732	33992.7875
2986.11635	33886.2875
2988.55388	33821.7875
2990.98993	33796.2875
2993.4245	33764.1875
2995.85758	33693.5875
2998.28917	33553.9875
3000.71928	33469.4875
3003.14791	33348.8875
3005.57506	33350.4875
3008.00073	33260.3875
3010.42493	33256.6875
3012.84764	33088.8875
3015.26888	33095.0875
3017.68865	33027.2875
3020.10694	32981.2875
3022.52376	32890.7875
3024.9391	32851.5875
3027.35298	32810.9875
3029.76539	32759.6875
3032.17632	32770.5875
3034.5858	32768.4875
3036.9938	32738.1875
3039.40034	32673.7875
3041.80542	32657.8875
3044.20903	32553.1875
3046.61118	32529.6875
3049.01187	32452.7875
3051.4111	32389.9875
3053.80888	32300.3875
3056.20519	32248.2875
3058.60005	32136.6875
3060.99345	32176.0875
3063.3854	32034.7875
3065.7759	31960.4875
3068.16494	31874.4875
3070.55254	31773.9875
3072.93868	31674.2875
3075.32338	31559.2875
3077.70662	31558.9875
3080.08842	31393.0875
3082.46878	31387.6875
3084.84769	31271.2875
3087.22515	31282.1875
3089.60118	31255.8875
3091.97576	31229.6875
3094.3489	31187.2875
3096.72061	31207.1875
3099.09087	31212.4875
3101.4597	31207.7875
3103.82709	31220.3875
3106.19305	31180.3875
3108.55757	31121.0875
3110.92066	31088.4875
3113.28232	31028.0875
3115.64255	30930.9875
3118.00134	30777.7875
3120.35871	30726.9875
3122.71466	30617.0875
3125.06917	30539.3875
3127.42226	30521.0875
3129.77393	30472.8875
3132.12417	30457.3875
3134.47299	30427.0875
3136.82039	30377.5875
3139.16636	30362.2875
3141.51092	30281.5875
3143.85406	30302.5875
3146.19579	30275.9875
3148.53609	30291.4875
3150.87499	30312.1875
3153.21246	30319.0875
3155.54853	30302.9875
3157.88318	30277.5875
3160.21642	30266.2875
3162.54826	30218.0875
3164.87868	30178.6875
3167.2077	30159.6875
3169.5353	30125.6875
3171.86151	30092.4875
3174.18631	30112.5875
3176.5097	30068.3875
3178.83169	29991.5875
3181.15228	29938.1875
3183.47147	29823.5875
3185.78926	29828.5875
3188.10565	29791.6875
3190.42065	29727.7875
3192.73424	29681.4875
3195.04645	29637.6875
3197.35725	29565.6875
3199.66667	29535.8875
3201.97469	29588.0875
3204.28132	29498.5875
3206.58656	29469.6875
3208.8904	29489.2875
3211.19287	29503.6875
3213.49394	29494.9875
3215.79363	29480.6875
3218.09193	29497.5875
3220.38884	29492.0875
3222.68438	29528.9875
3224.97853	29411.8875
3227.2713	29382.9875
3229.56269	29311.3875
3231.8527	29344.8875
3234.14133	29256.9875
3236.42858	29175.6875
3238.71446	29140.8875
3240.99896	29053.8875
3243.28209	29110.4875
3245.56384	29023.2875
3247.84423	28967.0875
3250.12324	28894.5875
3252.40088	28937.6875
3254.67715	28910.9875
3256.95205	28864.2875
3259.22558	28842.2875
3261.49775	28769.2875
3263.76855	28723.4875
3266.03799	28634.1875
3268.30606	28636.5875
3270.57277	28562.3875
3272.83812	28488.8875
3275.10211	28448.6875
3277.36474	28366.4875
3279.62601	28382.9875
3281.88593	28356.1875
3284.14448	28344.2875
3286.40168	28335.3875
3288.65753	28266.2875
3290.91202	28200.5875
3293.16516	28183.4875
3295.41695	28125.1875
3297.66738	27907.9875
3299.91647	27747.0875
3302.16421	27606.9875
3304.4106	27479.9875
3306.65564	27293.2875
3308.89933	27076.0875
3311.14169	26945.3875
3313.38269	26705.4875
3315.62236	26534.1875
3317.86068	26287.5875
3320.09766	26037.9875
3322.3333	25886.7875
3324.5676	25763.2875
3326.80056	25373.0875
3329.03219	25202.6875
3331.26248	6.1875
3333.49143	1.3875
3335.71905	-1.5125
