Data from AgNPs_FTO_APTES_UA_20uM_CRN_20uM_R6G_10uM_NaF_0.1M_Addition_RamanShift__19__15-12-12-260.txt Node

Date: Thu Feb 17 15:12:12 GMT 2022
User: TCL
Spectrometer: QEP01345
Trigger mode: 4
Integration Time (sec): 7.000000E0
Scans to average: 10
Electric dark correction enabled: true
Nonlinearity correction enabled: false
Boxcar width: 0
XAxis mode: Raman Shifts
Number of Pixels in Spectrum: 1044
>>>>>Begin Spectral Data<<<<<
46.04893	-0.825
50.45542	-0.525
54.85868	-2.625
59.25871	-1.725
63.6555	97.875
68.04907	97.875
72.43941	108.375
76.82654	108.275
81.21044	110.775
85.59113	117.075
89.96862	118.675
94.34289	118.175
98.71396	127.375
103.08183	128.975
107.4465	130.875
111.80798	136.875
116.16626	140.975
120.52136	148.875
124.87327	153.075
129.222	160.275
133.56755	172.075
137.90993	179.775
142.24913	203.075
146.58517	225.275
150.91804	269.075
155.24774	314.975
159.57429	393.575
163.89768	502.975
168.21792	676.775
172.53501	934.075
176.84895	1304.975
181.15975	1851.175
185.46741	2621.075
189.77193	3628.475
194.07331	4876.075
198.37157	6319.275
202.6667	7851.775
206.9587	9338.775
211.24758	10797.175
215.53334	12228.875
219.81599	13753.975
224.09553	15380.275
228.37195	17167.275
232.64527	19223.275
236.91549	21429.175
241.18261	23689.675
245.44663	25874.875
249.70755	27923.375
253.96539	29770.275
258.22014	31249.875
262.4718	32508.375
266.72039	33359.475
270.96589	33766.575
275.20832	33883.875
279.44768	33635.575
283.68397	33260.175
287.91719	32893.375
292.14735	32538.575
296.37445	32330.075
300.59849	32301.175
304.81948	32295.775
309.03742	32228.475
313.25231	32068.275
317.46415	31781.775
321.67296	31400.075
325.87872	31113.075
330.08145	30983.675
334.28114	31135.675
338.47781	31420.875
342.67145	31783.075
346.86207	32204.575
351.04966	32735.775
355.23424	33274.575
359.4158	33822.875
363.59435	34307.075
367.76989	34677.275
371.94243	35023.775
376.11196	35288.175
380.27849	35542.075
384.44203	35806.075
388.60257	35980.475
392.76012	36267.575
396.91468	36582.575
401.06626	36914.275
405.21485	37270.275
409.36047	37344.875
413.50311	37065.475
417.64277	36826.475
421.77947	36697.275
425.9132	36799.775
430.04396	36950.075
434.17176	37178.775
438.2966	37460.075
442.41849	37916.375
446.53742	38513.375
450.6534	39150.775
454.76644	39673.975
458.87653	40018.075
462.98368	39984.875
467.08789	39781.875
471.18916	39494.275
475.2875	39155.975
479.38291	38905.675
483.4754	38599.875
487.56496	38437.675
491.6516	38315.675
495.73531	38232.275
499.81612	38229.175
503.89401	38438.575
507.96899	38610.575
512.04106	38622.475
516.11023	38690.275
520.1765	38728.775
524.23987	38766.275
528.30034	38705.775
532.35792	38574.375
536.41261	38422.175
540.46441	38242.975
544.51333	38243.575
548.55936	38427.675
552.60252	38721.875
556.64279	39034.775
560.6802	39159.675
564.71473	39210.375
568.7464	39295.075
572.7752	39616.875
576.80114	39791.475
580.82422	40025.075
584.84444	40349.075
588.86181	40715.875
592.87633	41053.375
596.888	41373.175
600.89682	41682.775
604.9028	42769.575
608.90594	45407.675
612.90624	48035.675
616.90371	46602.175
620.89834	42427.375
624.89015	40656.975
628.87913	40511.975
632.86528	40472.675
636.84862	40188.775
640.82913	39965.775
644.80683	39501.275
648.78172	39105.775
652.75379	39140.675
656.72306	39474.675
660.68952	39919.175
664.65319	39922.575
668.61405	39627.775
672.57211	39596.875
676.52738	39700.475
680.47986	39671.775
684.42955	39611.775
688.37646	39650.975
692.32058	39832.375
696.26192	40067.575
700.20048	40340.175
704.13626	40459.775
708.06928	40329.075
711.99952	40122.075
715.927	40094.975
719.85171	40146.675
723.77365	40186.775
727.69284	40003.575
731.60928	39896.475
735.52295	39805.275
739.43388	39834.175
743.34206	39886.275
747.24749	40012.075
751.15017	40139.975
755.05012	40293.275
758.94733	40755.775
762.8418	41669.475
766.73354	43173.575
770.62254	44805.675
774.50882	45565.775
778.39237	44753.375
782.27321	43031.875
786.15132	41508.875
790.02671	40569.975
793.89938	40178.475
797.76935	40069.975
801.6366	39975.375
805.50115	39880.375
809.36299	39805.775
813.22213	39690.675
817.07857	39592.375
820.93231	39594.575
824.78336	39712.775
828.63172	39733.175
832.47738	39765.375
836.32036	39878.675
840.16066	40003.575
843.99827	40197.475
847.8332	40209.575
851.66546	40105.975
855.49504	40092.975
859.32195	40184.575
863.1462	40196.475
866.96777	40118.175
870.78668	40098.275
874.60293	40091.575
878.41652	40150.075
882.22745	40226.875
886.03573	40249.575
889.84136	40235.275
893.64433	40094.275
897.44466	40010.875
901.24235	39915.175
905.0374	39807.975
908.8298	39783.375
912.61957	39725.075
916.40671	39947.075
920.19121	40173.475
923.97308	40423.475
927.75233	40534.475
931.52895	40509.675
935.30295	40381.275
939.07433	40076.175
942.84309	39818.675
946.60924	39678.075
950.37278	39681.075
954.13371	39572.675
957.89203	39382.875
961.64774	39281.675
965.40086	39135.075
969.15137	39130.275
972.89929	39096.675
976.64461	39116.775
980.38733	39218.275
984.12747	39311.075
987.86502	39577.775
991.59999	40009.075
995.33237	40457.975
999.06217	41146.575
1002.78939	41861.275
1006.51404	42234.575
1010.23611	42276.875
1013.95561	42421.775
1017.67255	42505.075
1021.38692	42387.575
1025.09872	42354.175
1028.80796	42723.075
1032.51465	43571.875
1036.21877	44256.975
1039.92035	44227.775
1043.61937	43814.575
1047.31584	43047.275
1051.00976	42312.975
1054.70114	41954.375
1058.38998	41890.075
1062.07627	41909.575
1065.76003	41931.875
1069.44126	42003.475
1073.11995	42164.175
1076.79611	42428.975
1080.46974	42642.175
1084.14085	42864.675
1087.80943	43106.475
1091.47549	43240.975
1095.13903	43045.475
1098.80005	42835.175
1102.45857	42547.875
1106.11456	42445.975
1109.76805	42520.475
1113.41903	42704.775
1117.06751	42905.875
1120.71348	43071.575
1124.35696	43206.575
1127.99793	43322.375
1131.63641	43392.375
1135.2724	43149.275
1138.90589	42888.075
1142.5369	42620.375
1146.16542	42477.175
1149.79145	42342.875
1153.415	42399.675
1157.03607	42491.675
1160.65467	42803.175
1164.27079	43463.175
1167.88443	44428.475
1171.49561	45722.675
1175.10432	47432.575
1178.71056	49628.075
1182.31434	51794.975
1185.91565	53032.075
1189.51451	52887.875
1193.11091	51705.275
1196.70485	50202.675
1200.29634	48891.575
1203.88538	47954.875
1207.47197	47314.075
1211.05612	46591.175
1214.63782	46041.175
1218.21708	45937.375
1221.79391	46025.975
1225.36829	46145.575
1228.94024	46021.675
1232.50976	45517.275
1236.07685	45030.675
1239.6415	44847.875
1243.20374	44929.075
1246.76355	45219.275
1250.32093	45588.075
1253.8759	46114.475
1257.42845	46787.175
1260.97859	47401.275
1264.52631	47971.675
1268.07163	48625.875
1271.61453	49429.475
1275.15503	50185.975
1278.69312	51049.375
1282.22882	51620.175
1285.76211	52019.575
1289.29301	52235.975
1292.82151	52621.575
1296.34761	53329.575
1299.87133	54740.975
1303.39266	56706.075
1306.9116	59240.375
1310.42815	61797.175
1313.94233	63427.075
1317.45412	63318.575
1320.96354	62032.075
1324.47058	60329.275
1327.97525	58725.375
1331.47754	57509.475
1334.97747	56958.675
1338.47502	56916.375
1341.97022	57309.775
1345.46305	57683.175
1348.95352	57967.475
1352.44163	58508.075
1355.92738	59716.775
1359.41078	61814.775
1362.89183	63827.875
1366.37053	62941.475
1369.84688	59081.075
1373.32088	54779.775
1376.79254	51722.975
1380.26186	50175.875
1383.72883	49419.075
1387.19347	48992.575
1390.65578	48354.075
1394.11575	47723.875
1397.57339	47465.175
1401.0287	47770.175
1404.48168	48112.575
1407.93234	48343.775
1411.38068	48410.275
1414.82669	48223.575
1418.27039	47801.475
1421.71177	47237.775
1425.15083	46651.175
1428.58758	46284.275
1432.02203	46341.475
1435.45416	46589.275
1438.88399	47056.375
1442.31151	47413.575
1445.73673	47588.975
1449.15965	47768.975
1452.58027	47769.975
1455.9986	47683.175
1459.41463	47800.975
1462.82837	48215.275
1466.23982	48874.975
1469.64898	49639.875
1473.05586	50313.075
1476.46045	50667.875
1479.86276	50787.375
1483.26279	50712.775
1486.66054	50593.375
1490.05602	50769.875
1493.44922	51114.175
1496.84016	51470.275
1500.22882	52290.575
1503.61521	53668.275
1506.99934	55229.575
1510.38121	56409.275
1513.76081	56556.675
1517.13816	55468.675
1520.51324	53660.975
1523.88607	51967.975
1527.25665	50930.775
1530.62498	50347.475
1533.99105	50094.975
1537.35488	49964.875
1540.71647	49871.875
1544.07581	49677.875
1547.4329	49530.475
1550.78776	49342.775
1554.14038	49056.375
1557.49077	48928.375
1560.83892	48763.275
1564.18484	48759.975
1567.52853	48806.875
1570.86999	48982.875
1574.20922	49199.475
1577.54624	49209.075
1580.88103	48766.775
1584.2136	48427.475
1587.54395	48713.775
1590.87208	49871.375
1594.19801	51815.575
1597.52172	54138.375
1600.84321	55254.975
1604.16251	54317.875
1607.47959	52280.175
1610.79447	50070.875
1614.10715	47884.875
1617.41763	46038.675
1620.7259	44749.275
1624.03199	44042.375
1627.33587	43902.975
1630.63757	44372.275
1633.93707	45468.775
1637.23439	47194.875
1640.52951	49392.275
1643.82246	51910.175
1647.11321	53831.875
1650.40179	54247.175
1653.68819	52455.075
1656.97241	49016.375
1660.25446	45674.375
1663.53433	43250.675
1666.81203	41718.875
1670.08756	40743.075
1673.36092	40054.875
1676.63211	39590.375
1679.90115	39280.675
1683.16801	38915.375
1686.43272	38667.475
1689.69527	38578.275
1692.95567	38455.775
1696.2139	38406.575
1699.46999	38390.275
1702.72392	38317.775
1705.97571	38305.775
1709.22535	38243.775
1712.47284	38256.475
1715.71819	38283.975
1718.96139	38241.175
1722.20246	38212.075
1725.44139	38046.175
1728.67818	37931.275
1731.91284	37813.475
1735.14537	37753.675
1738.37576	37633.875
1741.60403	37600.875
1744.83017	37550.475
1748.05418	37456.675
1751.27607	37375.775
1754.49584	37411.875
1757.71349	37458.775
1760.92903	37385.375
1764.14244	37351.775
1767.35375	37361.375
1770.56294	37266.875
1773.77002	37260.375
1776.97499	37198.375
1780.17785	37144.175
1783.37861	37147.375
1786.57727	37116.275
1789.77382	37048.875
1792.96828	37072.775
1796.16064	37028.175
1799.3509	36884.375
1802.53907	36859.675
1805.72514	36806.275
1808.90913	36735.175
1812.09102	36705.875
1815.27083	36667.275
1818.44856	36610.675
1821.6242	36586.175
1824.79776	36558.175
1827.96924	36529.675
1831.13864	36508.275
1834.30597	36534.175
1837.47122	36450.475
1840.6344	36451.375
1843.7955	36462.675
1846.95454	36388.875
1850.11151	36386.975
1853.26642	36360.475
1856.41926	36311.775
1859.57004	36340.075
1862.71876	36286.375
1865.86542	36270.375
1869.01003	36270.575
1872.15258	36250.475
1875.29308	36198.675
1878.43152	36203.575
1881.56792	36211.275
1884.70227	36105.275
1887.83457	36053.175
1890.96482	36064.075
1894.09304	36040.375
1897.21921	36011.875
1900.34335	36003.775
1903.46544	35935.475
1906.58551	35939.975
1909.70353	35892.575
1912.81953	35884.175
1915.93349	35795.875
1919.04543	35781.475
1922.15534	35700.075
1925.26322	35671.075
1928.36908	35587.875
1931.47292	35605.275
1934.57473	35533.275
1937.67453	35490.075
1940.77232	35411.475
1943.86808	35304.375
1946.96184	35293.475
1950.05358	35239.675
1953.14331	35112.975
1956.23103	35045.775
1959.31675	34900.575
1962.40046	34818.775
1965.48217	34743.675
1968.56188	34712.175
1971.63959	34576.875
1974.7153	34452.975
1977.78901	34370.975
1980.86073	34279.475
1983.93046	34251.775
1986.99819	34124.475
1990.06394	34085.175
1993.1277	34012.775
1996.18947	33852.675
1999.24925	33802.175
2002.30706	33707.275
2005.36288	33613.775
2008.41672	33513.375
2011.46859	33442.375
2014.51848	33358.275
2017.56639	33288.575
2020.61233	33176.875
2023.6563	33132.675
2026.6983	33082.175
2029.73833	33043.075
2032.7764	33007.275
2035.8125	32914.875
2038.84664	32822.575
2041.87881	32791.575
2044.90903	32756.075
2047.93729	32719.275
2050.96359	32711.375
2053.98794	32682.375
2057.01034	32648.475
2060.03078	32647.775
2063.04927	32645.475
2066.06582	32612.275
2069.08042	32588.275
2072.09307	32626.875
2075.10378	32544.575
2078.11255	32509.275
2081.11938	32543.675
2084.12426	32495.575
2087.12722	32519.875
2090.12824	32524.575
2093.12732	32520.375
2096.12447	32528.975
2099.11969	32546.875
2102.11299	32605.375
2105.10435	32615.475
2108.09379	32615.875
2111.08131	32650.775
2114.0669	32651.775
2117.05057	32723.375
2120.03233	32794.775
2123.01216	32765.575
2125.99008	32797.775
2128.96609	32814.675
2131.94018	32831.675
2134.91236	32870.075
2137.88263	32872.675
2140.851	32911.075
2143.81746	33017.475
2146.78201	33032.675
2149.74466	33050.975
2152.7054	33027.075
2155.66425	32986.575
2158.6212	33027.975
2161.57625	32984.875
2164.52941	33000.775
2167.48067	32974.775
2170.43004	32966.275
2173.37752	32984.875
2176.32311	33069.975
2179.26681	33080.675
2182.20863	33032.575
2185.14856	33108.375
2188.08661	33052.175
2191.02278	33047.775
2193.95707	33087.375
2196.88948	33053.675
2199.82001	33025.575
2202.74867	33017.075
2205.67545	33007.775
2208.60037	32997.175
2211.52341	32958.075
2214.44458	32914.075
2217.36388	32935.375
2220.28132	32848.575
2223.1969	32778.875
2226.11061	32780.275
2229.02246	32688.575
2231.93245	32682.575
2234.84058	32531.575
2237.74686	32521.275
2240.65128	32459.175
2243.55385	32470.175
2246.45456	32455.575
2249.35343	32423.875
2252.25044	32371.075
2255.14561	32306.075
2258.03893	32314.675
2260.93041	32275.575
2263.82004	32152.275
2266.70783	32204.575
2269.59378	32077.175
2272.4779	32041.075
2275.36017	31925.975
2278.24061	31866.775
2281.11922	31795.275
2283.996	31767.475
2286.87094	31782.075
2289.74405	31715.775
2292.61534	31731.675
2295.4848	31712.475
2298.35243	31747.275
2301.21824	31685.975
2304.08223	31702.075
2306.94439	31725.775
2309.80474	31716.275
2312.66327	31688.175
2315.51999	31672.675
2318.37489	31704.675
2321.22797	31662.975
2324.07925	31645.275
2326.92871	31551.375
2329.77637	31531.775
2332.62222	31484.175
2335.46626	31522.475
2338.3085	31483.075
2341.14893	31501.175
2343.98756	31491.975
2346.8244	31441.275
2349.65943	31432.375
2352.49267	31438.475
2355.32411	31421.775
2358.15376	31411.975
2360.98161	31390.675
2363.80768	31300.775
2366.63195	31314.175
2369.45444	31269.075
2372.27514	31180.375
2375.09405	31151.175
2377.91118	31099.675
2380.72652	30984.975
2383.54009	30979.375
2386.35187	30941.775
2389.16188	30884.275
2391.97011	30842.875
2394.77657	30803.975
2397.58125	30758.375
2400.38416	30720.475
2403.18529	30619.775
2405.98466	30604.875
2408.78226	30578.275
2411.57809	30530.575
2414.37216	30463.375
2417.16446	30472.675
2419.955	30472.975
2422.74378	30442.875
2425.5308	30405.775
2428.31606	30380.475
2431.09956	30392.075
2433.88131	30310.275
2436.6613	30396.975
2439.43954	30402.575
2442.21603	30337.475
2444.99077	30267.675
2447.76377	30285.075
2450.53501	30217.375
2453.30451	30240.275
2456.07226	30213.275
2458.83827	30166.975
2461.60254	30168.475
2464.36507	30137.375
2467.12586	30068.175
2469.88492	30106.375
2472.64224	30107.775
2475.39782	30083.675
2478.15167	30103.475
2480.90379	30156.975
2483.65417	30136.475
2486.40283	30133.875
2489.14976	30102.475
2491.89497	30073.475
2494.63845	30154.775
2497.3802	30074.975
2500.12024	30088.075
2502.85855	30020.975
2505.59514	29962.875
2508.33002	30036.875
2511.06318	29964.175
2513.79462	29882.575
2516.52435	29831.875
2519.25237	29865.175
2521.97867	29806.875
2524.70327	29802.675
2527.42616	29766.175
2530.14734	29746.175
2532.86681	29711.275
2535.58458	29759.375
2538.30065	29662.875
2541.01501	29721.575
2543.72768	29664.675
2546.43864	29686.975
2549.14791	29581.575
2551.85548	29542.575
2554.56136	29486.175
2557.26554	29472.675
2559.96803	29396.075
2562.66883	29369.575
2565.36794	29312.275
2568.06536	29349.175
2570.7611	29267.475
2573.45514	29263.075
2576.14751	29223.575
2578.83819	29166.075
2581.52719	29176.275
2584.21451	29133.275
2586.90015	29077.275
2589.58411	29002.875
2592.2664	29007.075
2594.94701	28973.075
2597.62594	28939.875
2600.30321	28934.875
2602.9788	28926.875
2605.65273	28815.375
2608.32498	28837.575
2610.99557	28768.975
2613.66449	28825.275
2616.33175	28803.275
2618.99734	28846.375
2621.66128	28781.575
2624.32355	28759.275
2626.98416	28747.275
2629.64311	28737.575
2632.30041	28674.275
2634.95605	28654.075
2637.61004	28663.075
2640.26238	28670.675
2642.91306	28575.175
2645.56209	28585.475
2648.20948	28558.475
2650.85521	28503.275
2653.4993	28520.075
2656.14175	28519.175
2658.78255	28517.275
2661.42171	28525.375
2664.05923	28512.575
2666.6951	28528.075
2669.32934	28548.275
2671.96194	28493.675
2674.59291	28500.375
2677.22224	28478.875
2679.84993	28511.275
2682.476	28459.675
2685.10043	28479.475
2687.72324	28418.175
2690.34441	28415.575
2692.96396	28401.075
2695.58188	28406.575
2698.19818	28387.275
2700.81285	28421.475
2703.4259	28391.675
2706.03733	28462.975
2708.64714	28398.675
2711.25533	28414.075
2713.86191	28403.975
2716.46687	28455.675
2719.07021	28497.175
2721.67194	28524.475
2724.27206	28496.275
2726.87057	28512.075
2729.46747	28516.175
2732.06276	28508.175
2734.65644	28500.775
2737.24852	28457.675
2739.83899	28428.275
2742.42786	28423.075
2745.01513	28395.775
2747.60079	28411.375
2750.18486	28305.175
2752.76733	28281.975
2755.3482	28274.175
2757.92747	28241.375
2760.50515	28244.675
2763.08123	28188.575
2765.65573	28148.075
2768.22863	28128.175
2770.79994	28072.975
2773.36967	28104.275
2775.9378	28092.875
2778.50435	28103.875
2781.06932	28049.675
2783.6327	28052.275
2786.1945	27973.675
2788.75471	27983.075
2791.31335	27882.675
2793.87041	27892.975
2796.42589	27800.275
2798.97979	27777.775
2801.53212	27651.975
2804.08288	27643.975
2806.63206	27593.375
2809.17967	27503.775
2811.72571	27462.575
2814.27018	27388.875
2816.81308	27314.675
2819.35442	27305.075
2821.89419	27305.275
2824.43239	27296.475
2826.96904	27266.175
2829.50412	27269.975
2832.03763	27165.175
2834.56959	27191.575
2837.1	27068.775
2839.62884	27094.575
2842.15613	27050.275
2844.68186	27083.675
2847.20604	27009.875
2849.72867	26995.175
2852.24974	26970.375
2854.76927	26945.275
2857.28724	26967.475
2859.80367	26900.475
2862.31855	26839.975
2864.83189	26851.475
2867.34368	26831.975
2869.85393	26842.475
2872.36264	26801.675
2874.8698	26775.175
2877.37543	26762.875
2879.87952	26753.875
2882.38207	26735.775
2884.88308	26709.875
2887.38256	26718.875
2889.88051	26689.375
2892.37692	26693.075
2894.8718	26736.475
2897.36515	26761.675
2899.85698	26739.175
2902.34727	26800.075
2904.83604	26833.275
2907.32328	26844.475
2909.809	26907.175
2912.29319	26945.775
2914.77587	26901.175
2917.25702	26890.975
2919.73665	26876.175
2922.21476	26912.475
2924.69136	26844.475
2927.16644	26841.175
2929.64	26773.375
2932.11205	26780.675
2934.58258	26672.575
2937.05161	26688.275
2939.51912	26695.275
2941.98513	26759.775
2944.44962	26709.975
2946.91261	26671.775
2949.37409	26721.075
2951.83407	26702.375
2954.29254	26676.475
2956.74951	26732.375
2959.20498	26712.675
2961.65895	26633.775
2964.11142	26654.175
2966.56239	26638.475
2969.01186	26645.075
2971.45984	26601.275
2973.90632	26576.775
2976.35131	26533.075
2978.7948	26567.875
2981.23681	26501.175
2983.67732	26410.175
2986.11635	26409.275
2988.55388	26355.975
2990.98993	26291.075
2993.4245	26225.275
2995.85758	26197.975
2998.28917	26145.375
3000.71928	26133.175
3003.14791	26056.775
3005.57506	26030.275
3008.00073	25967.675
3010.42493	25948.175
3012.84764	25924.375
3015.26888	25937.675
3017.68865	25883.075
3020.10694	25848.975
3022.52376	25834.875
3024.9391	25834.175
3027.35298	25801.175
3029.76539	25770.075
3032.17632	25703.675
3034.5858	25698.075
3036.9938	25706.375
3039.40034	25688.575
3041.80542	25700.475
3044.20903	25604.475
3046.61118	25616.075
3049.01187	25568.175
3051.4111	25574.675
3053.80888	25452.875
3056.20519	25435.275
3058.60005	25417.675
3060.99345	25355.575
3063.3854	25334.675
3065.7759	25257.375
3068.16494	25211.975
3070.55254	25109.575
3072.93868	25100.275
3075.32338	25059.175
3077.70662	25010.875
3080.08842	24970.775
3082.46878	24974.175
3084.84769	24912.775
3087.22515	24872.575
3089.60118	24912.775
3091.97576	24929.175
3094.3489	24880.475
3096.72061	24901.475
3099.09087	24934.375
3101.4597	24966.175
3103.82709	24988.675
3106.19305	24921.675
3108.55757	24922.975
3110.92066	24841.675
3113.28232	24836.875
3115.64255	24745.975
3118.00134	24724.375
3120.35871	24709.775
3122.71466	24642.675
3125.06917	24615.675
3127.42226	24531.175
3129.77393	24561.675
3132.12417	24507.575
3134.47299	24454.275
3136.82039	24469.375
3139.16636	24447.075
3141.51092	24427.675
3143.85406	24411.775
3146.19579	24452.275
3148.53609	24461.875
3150.87499	24448.875
3153.21246	24495.775
3155.54853	24609.475
3157.88318	24564.375
3160.21642	24576.775
3162.54826	24539.475
3164.87868	24526.375
3167.2077	24536.175
3169.5353	24606.275
3171.86151	24542.975
3174.18631	24540.875
3176.5097	24512.975
3178.83169	24474.875
3181.15228	24429.475
3183.47147	24356.875
3185.78926	24394.075
3188.10565	24356.275
3190.42065	24341.075
3192.73424	24337.075
3195.04645	24271.375
3197.35725	24263.075
3199.66667	24292.275
3201.97469	24296.775
3204.28132	24323.775
3206.58656	24355.375
3208.8904	24375.875
3211.19287	24368.875
3213.49394	24324.075
3215.79363	24280.475
3218.09193	24367.875
3220.38884	24377.175
3222.68438	24452.975
3224.97853	24421.275
3227.2713	24401.375
3229.56269	24382.175
3231.8527	24377.575
3234.14133	24295.475
3236.42858	24209.075
3238.71446	24219.275
3240.99896	24170.475
3243.28209	24120.675
3245.56384	24128.275
3247.84423	24146.575
3250.12324	24093.575
3252.40088	24048.175
3254.67715	24040.175
3256.95205	24027.775
3259.22558	24055.375
3261.49775	24017.875
3263.76855	24003.175
3266.03799	23975.675
3268.30606	23962.275
3270.57277	23944.875
3272.83812	23912.675
3275.10211	23850.975
3277.36474	23802.675
3279.62601	23783.375
3281.88593	23791.075
3284.14448	23775.275
3286.40168	23774.275
3288.65753	23776.475
3290.91202	23772.175
3293.16516	23720.775
3295.41695	23701.475
3297.66738	23516.775
3299.91647	23425.075
3302.16421	23280.975
3304.4106	23191.775
3306.65564	23034.975
3308.89933	22876.475
3311.14169	22758.675
3313.38269	22583.775
3315.62236	22491.075
3317.86068	22264.975
3320.09766	22100.875
3322.3333	22013.575
3324.5676	21932.375
3326.80056	21569.375
3329.03219	21479.975
3331.26248	5.575
3333.49143	1.375
3335.71905	-1.325
