Data from AgNPs_FTO_APTES_UA_20uM_CRN_1uM_R6G_10uM_NaF_0.1M_Addition_RamanShift__21__12-26-32-043.txt Node

Date: Thu Feb 17 12:26:32 GMT 2022
User: TCL
Spectrometer: QEP01345
Trigger mode: 4
Integration Time (sec): 7.000000E0
Scans to average: 10
Electric dark correction enabled: true
Nonlinearity correction enabled: false
Boxcar width: 0
XAxis mode: Raman Shifts
Number of Pixels in Spectrum: 1044
>>>>>Begin Spectral Data<<<<<
46.04893	0.7125
50.45542	-1.9875
54.85868	-1.9875
59.25871	-1.2875
63.6555	121.2125
68.04907	121.1125
72.43941	129.1125
76.82654	127.1125
81.21044	133.8125
85.59113	139.5125
89.96862	140.4125
94.34289	142.3125
98.71396	149.7125
103.08183	156.6125
107.4465	159.8125
111.80798	160.5125
116.16626	170.5125
120.52136	177.4125
124.87327	177.6125
129.222	199.6125
133.56755	211.9125
137.90993	226.7125
142.24913	247.8125
146.58517	286.8125
150.91804	335.0125
155.24774	401.1125
159.57429	509.0125
163.89768	658.0125
168.21792	886.5125
172.53501	1204.0125
176.84895	1691.6125
181.15975	2392.5125
185.46741	3361.0125
189.77193	4678.5125
194.07331	6269.6125
198.37157	8069.9125
202.6667	9968.5125
206.9587	11875.1125
211.24758	13731.3125
215.53334	15618.7125
219.81599	17616.7125
224.09553	19848.0125
228.37195	22320.4125
232.64527	25025.6125
236.91549	27832.5125
241.18261	30763.3125
245.44663	33448.2125
249.70755	35866.7125
253.96539	37992.7125
258.22014	39810.7125
262.4718	41301.9125
266.72039	42425.1125
270.96589	42991.7125
275.20832	43105.9125
279.44768	42869.3125
283.68397	42508.0125
287.91719	42177.7125
292.14735	41961.7125
296.37445	41926.2125
300.59849	42017.2125
304.81948	42300.8125
309.03742	42319.8125
313.25231	42028.6125
317.46415	41306.6125
321.67296	40236.8125
325.87872	39405.2125
330.08145	39070.2125
334.28114	39115.1125
338.47781	39542.8125
342.67145	40107.7125
346.86207	40873.4125
351.04966	41758.7125
355.23424	42793.2125
359.4158	43614.5125
363.59435	44193.4125
367.76989	44682.9125
371.94243	44980.7125
376.11196	45271.8125
380.27849	45460.2125
384.44203	45706.4125
388.60257	45842.8125
392.76012	46211.3125
396.91468	46722.9125
401.06626	47347.4125
405.21485	47940.3125
409.36047	47904.8125
413.50311	47365.4125
417.64277	46898.1125
421.77947	46819.7125
425.9132	47038.1125
430.04396	47407.5125
434.17176	47712.3125
438.2966	48278.1125
442.41849	49174.7125
446.53742	50483.7125
450.6534	51989.8125
454.76644	53261.3125
458.87653	53582.5125
462.98368	53309.2125
467.08789	52494.8125
471.18916	51506.7125
475.2875	50725.3125
479.38291	50175.4125
483.4754	49812.6125
487.56496	49282.6125
491.6516	48681.1125
495.73531	48181.9125
499.81612	47918.8125
503.89401	48170.7125
507.96899	48274.8125
512.04106	48209.7125
516.11023	48064.3125
520.1765	47872.2125
524.23987	47670.0125
528.30034	47469.0125
532.35792	47149.0125
536.41261	46649.9125
540.46441	46205.8125
544.51333	46165.8125
548.55936	46601.7125
552.60252	47470.4125
556.64279	48540.8125
560.6802	49238.5125
564.71473	49653.8125
568.7464	50497.6125
572.7752	51524.9125
576.80114	52255.2125
580.82422	52726.9125
584.84444	53265.0125
588.86181	54116.0125
592.87633	55125.4125
596.888	55522.5125
600.89682	55206.5125
604.9028	56695.7125
608.90594	61638.6125
612.90624	66806.5125
616.90371	63250.2125
620.89834	53805.9125
624.89015	49779.2125
628.87913	49210.5125
632.86528	49111.7125
636.84862	48718.9125
640.82913	48050.5125
644.80683	46869.2125
648.78172	46095.6125
652.75379	46095.0125
656.72306	46829.9125
660.68952	47725.7125
664.65319	47614.9125
668.61405	46858.0125
672.57211	46641.6125
676.52738	46647.8125
680.47986	46668.7125
684.42955	46511.4125
688.37646	46482.6125
692.32058	46740.8125
696.26192	47297.3125
700.20048	47870.6125
704.13626	48205.2125
708.06928	48035.2125
711.99952	47641.0125
715.927	47564.7125
719.85171	47663.6125
723.77365	47623.9125
727.69284	47236.6125
731.60928	46811.9125
735.52295	46727.0125
739.43388	46860.9125
743.34206	47049.3125
747.24749	47399.0125
751.15017	47808.6125
755.05012	48549.6125
758.94733	49767.1125
762.8418	52043.9125
766.73354	55704.3125
770.62254	59129.6125
774.50882	59843.4125
778.39237	57346.2125
782.27321	53465.4125
786.15132	50208.3125
790.02671	48371.4125
793.89938	47472.4125
797.76935	47159.8125
801.6366	47084.4125
805.50115	46940.5125
809.36299	46725.6125
813.22213	46490.0125
817.07857	46383.3125
820.93231	46314.6125
824.78336	46274.5125
828.63172	46232.5125
832.47738	46245.1125
836.32036	46444.3125
840.16066	46627.7125
843.99827	46758.7125
847.8332	46746.0125
851.66546	46568.1125
855.49504	46507.9125
859.32195	46463.6125
863.1462	46348.0125
866.96777	46207.8125
870.78668	46139.6125
874.60293	46153.6125
878.41652	46223.8125
882.22745	46370.9125
886.03573	46509.7125
889.84136	46470.0125
893.64433	46264.1125
897.44466	46110.2125
901.24235	45956.3125
905.0374	45854.5125
908.8298	45749.1125
912.61957	45828.1125
916.40671	46175.2125
920.19121	46792.8125
923.97308	47378.0125
927.75233	47583.4125
931.52895	47389.0125
935.30295	46873.5125
939.07433	46200.2125
942.84309	45714.5125
946.60924	45610.9125
950.37278	45518.5125
954.13371	45316.3125
957.89203	45077.7125
961.64774	44989.0125
965.40086	44851.1125
969.15137	44732.3125
972.89929	44517.5125
976.64461	44513.2125
980.38733	44513.1125
984.12747	44717.7125
987.86502	45216.3125
991.59999	45817.8125
995.33237	46838.2125
999.06217	48329.7125
1002.78939	50009.1125
1006.51404	51161.2125
1010.23611	51826.2125
1013.95561	52244.6125
1017.67255	52215.8125
1021.38692	51635.8125
1025.09872	51183.2125
1028.80796	51625.7125
1032.51465	52983.2125
1036.21877	54212.9125
1039.92035	54433.9125
1043.61937	53630.1125
1047.31584	52239.8125
1051.00976	50694.1125
1054.70114	49818.1125
1058.38998	49594.6125
1062.07627	49701.3125
1065.76003	49894.4125
1069.44126	50225.9125
1073.11995	50687.7125
1076.79611	51198.6125
1080.46974	51547.9125
1084.14085	52059.1125
1087.80943	52750.9125
1091.47549	52948.6125
1095.13903	52661.5125
1098.80005	51955.7125
1102.45857	51165.4125
1106.11456	50735.3125
1109.76805	50703.1125
1113.41903	51071.3125
1117.06751	51587.1125
1120.71348	52129.5125
1124.35696	52534.6125
1127.99793	52962.6125
1131.63641	52992.9125
1135.2724	52548.2125
1138.90589	52076.3125
1142.5369	51868.1125
1146.16542	51694.4125
1149.79145	51762.1125
1153.415	52166.6125
1157.03607	52818.3125
1160.65467	53893.2125
1164.27079	55588.6125
1167.88443	58097.4125
1171.49561	61408.3125
1175.10432	65871.3125
1178.71056	71361.5125
1182.31434	76620.1125
1185.91565	79148.3125
1189.51451	78784.2125
1193.11091	76304.1125
1196.70485	72972.7125
1200.29634	69891.6125
1203.88538	67659.7125
1207.47197	65829.7125
1211.05612	64363.9125
1214.63782	63366.5125
1218.21708	63097.3125
1221.79391	63286.0125
1225.36829	63314.8125
1228.94024	62553.1125
1232.50976	61282.5125
1236.07685	60224.8125
1239.6415	59739.2125
1243.20374	59690.5125
1246.76355	60101.3125
1250.32093	60953.7125
1253.8759	62243.3125
1257.42845	63909.7125
1260.97859	65466.8125
1264.52631	66919.3125
1268.07163	68483.5125
1271.61453	70381.9125
1275.15503	72305.1125
1278.69312	74344.5125
1282.22882	75957.3125
1285.76211	77399.3125
1289.29301	79041.5125
1292.82151	81103.2125
1296.34761	84052.2125
1299.87133	88136.8125
1303.39266	93226.7125
1306.9116	99330.0125
1310.42815	105555.5125
1313.94233	109557.2125
1317.45412	109782.4125
1320.96354	107406.5125
1324.47058	104511.9125
1327.97525	101599.0125
1331.47754	99934.7125
1334.97747	99408.9125
1338.47502	99938.3125
1341.97022	100506.5125
1345.46305	100037.3125
1348.95352	98720.6125
1352.44163	97854.9125
1355.92738	99275.6125
1359.41078	103444.9125
1362.89183	107218.6125
1366.37053	104795.3125
1369.84688	96080.1125
1373.32088	86345.3125
1376.79254	79838.2125
1380.26186	76850.1125
1383.72883	76034.0125
1387.19347	75604.6125
1390.65578	75034.1125
1394.11575	75113.7125
1397.57339	76168.3125
1401.0287	78003.1125
1404.48168	79856.0125
1407.93234	81285.5125
1411.38068	81581.7125
1414.82669	80636.8125
1418.27039	78206.5125
1421.71177	75184.7125
1425.15083	72393.9125
1428.58758	70883.5125
1432.02203	71006.4125
1435.45416	72177.8125
1438.88399	73484.1125
1442.31151	74736.2125
1445.73673	75643.1125
1449.15965	76458.4125
1452.58027	76951.9125
1455.9986	76763.7125
1459.41463	77099.6125
1462.82837	78067.5125
1466.23982	79578.4125
1469.64898	81039.7125
1473.05586	81966.6125
1476.46045	82378.3125
1479.86276	82196.3125
1483.26279	81916.7125
1486.66054	81738.7125
1490.05602	82186.1125
1493.44922	82737.0125
1496.84016	83093.7125
1500.22882	83817.0125
1503.61521	85473.0125
1506.99934	87937.7125
1510.38121	90209.8125
1513.76081	90672.5125
1517.13816	88408.5125
1520.51324	84590.1125
1523.88607	81401.9125
1527.25665	79551.8125
1530.62498	78869.7125
1533.99105	78650.5125
1537.35488	78443.7125
1540.71647	77963.6125
1544.07581	77387.1125
1547.4329	76309.5125
1550.78776	75097.1125
1554.14038	74151.9125
1557.49077	73513.0125
1560.83892	73147.2125
1564.18484	73040.1125
1567.52853	72777.6125
1570.86999	72800.8125
1574.20922	73284.1125
1577.54624	73592.7125
1580.88103	73349.9125
1584.2136	73507.2125
1587.54395	75264.5125
1590.87208	79129.5125
1594.19801	84864.9125
1597.52172	90875.5125
1600.84321	93546.7125
1604.16251	90666.5125
1607.47959	84309.7125
1610.79447	77136.6125
1614.10715	70624.1125
1617.41763	65406.4125
1620.7259	61802.7125
1624.03199	60119.9125
1627.33587	60060.8125
1630.63757	61584.5125
1633.93707	64989.8125
1637.23439	70181.6125
1640.52951	77204.0125
1643.82246	84951.9125
1647.11321	90621.4125
1650.40179	91038.5125
1653.68819	85008.3125
1656.97241	74959.4125
1660.25446	65438.7125
1663.53433	58450.8125
1666.81203	54098.5125
1670.08756	51331.6125
1673.36092	49604.0125
1676.63211	48415.3125
1679.90115	47513.3125
1683.16801	46873.7125
1686.43272	46450.0125
1689.69527	46091.5125
1692.95567	45791.6125
1696.2139	45611.7125
1699.46999	45601.3125
1702.72392	45452.6125
1705.97571	45391.2125
1709.22535	45289.6125
1712.47284	45312.4125
1715.71819	45293.7125
1718.96139	45255.4125
1722.20246	45023.0125
1725.44139	44846.8125
1728.67818	44695.7125
1731.91284	44400.7125
1735.14537	44221.6125
1738.37576	44023.4125
1741.60403	43928.8125
1744.83017	43731.5125
1748.05418	43652.5125
1751.27607	43638.2125
1754.49584	43561.4125
1757.71349	43583.5125
1760.92903	43527.8125
1764.14244	43445.4125
1767.35375	43496.4125
1770.56294	43446.8125
1773.77002	43438.7125
1776.97499	43449.1125
1780.17785	43347.3125
1783.37861	43289.1125
1786.57727	43194.2125
1789.77382	43119.8125
1792.96828	43143.9125
1796.16064	43097.3125
1799.3509	43002.2125
1802.53907	42941.5125
1805.72514	42934.5125
1808.90913	42831.8125
1812.09102	42732.9125
1815.27083	42680.1125
1818.44856	42613.5125
1821.6242	42568.6125
1824.79776	42463.7125
1827.96924	42517.6125
1831.13864	42521.6125
1834.30597	42466.8125
1837.47122	42450.2125
1840.6344	42365.8125
1843.7955	42390.8125
1846.95454	42425.1125
1850.11151	42466.7125
1853.26642	42453.4125
1856.41926	42448.7125
1859.57004	42394.3125
1862.71876	42399.0125
1865.86542	42353.0125
1869.01003	42365.1125
1872.15258	42346.5125
1875.29308	42382.3125
1878.43152	42343.7125
1881.56792	42402.2125
1884.70227	42406.8125
1887.83457	42483.2125
1890.96482	42398.7125
1894.09304	42336.9125
1897.21921	42289.0125
1900.34335	42246.8125
1903.46544	42200.7125
1906.58551	42241.4125
1909.70353	42285.8125
1912.81953	42258.8125
1915.93349	42147.1125
1919.04543	42064.9125
1922.15534	42019.4125
1925.26322	41960.9125
1928.36908	41880.0125
1931.47292	41770.9125
1934.57473	41659.6125
1937.67453	41549.6125
1940.77232	41489.8125
1943.86808	41341.2125
1946.96184	41197.4125
1950.05358	41050.2125
1953.14331	40945.2125
1956.23103	40858.9125
1959.31675	40731.6125
1962.40046	40608.2125
1965.48217	40433.7125
1968.56188	40348.7125
1971.63959	40269.6125
1974.7153	40213.8125
1977.78901	40073.5125
1980.86073	39912.6125
1983.93046	39847.5125
1986.99819	39768.8125
1990.06394	39661.1125
1993.1277	39576.0125
1996.18947	39428.1125
1999.24925	39331.9125
2002.30706	39238.5125
2005.36288	39140.3125
2008.41672	39025.7125
2011.46859	38945.0125
2014.51848	38881.3125
2017.56639	38742.1125
2020.61233	38668.4125
2023.6563	38575.8125
2026.6983	38450.2125
2029.73833	38424.6125
2032.7764	38364.1125
2035.8125	38340.3125
2038.84664	38224.4125
2041.87881	38237.2125
2044.90903	38111.4125
2047.93729	38086.5125
2050.96359	38051.9125
2053.98794	37985.9125
2057.01034	37989.9125
2060.03078	38055.7125
2063.04927	38020.3125
2066.06582	37978.1125
2069.08042	37957.5125
2072.09307	37921.8125
2075.10378	37856.7125
2078.11255	37749.3125
2081.11938	37806.2125
2084.12426	37749.6125
2087.12722	37737.5125
2090.12824	37732.3125
2093.12732	37731.1125
2096.12447	37757.9125
2099.11969	37663.5125
2102.11299	37710.3125
2105.10435	37721.0125
2108.09379	37775.4125
2111.08131	37765.4125
2114.0669	37736.7125
2117.05057	37761.8125
2120.03233	37773.4125
2123.01216	37817.3125
2125.99008	37881.4125
2128.96609	37908.1125
2131.94018	38008.0125
2134.91236	38019.0125
2137.88263	38085.0125
2140.851	38090.6125
2143.81746	38118.3125
2146.78201	38119.2125
2149.74466	38154.5125
2152.7054	38156.0125
2155.66425	38171.2125
2158.6212	38183.1125
2161.57625	38138.9125
2164.52941	38144.1125
2167.48067	38131.3125
2170.43004	38072.9125
2173.37752	38106.8125
2176.32311	38102.3125
2179.26681	38195.3125
2182.20863	38173.7125
2185.14856	38206.3125
2188.08661	38228.4125
2191.02278	38228.4125
2193.95707	38165.3125
2196.88948	38171.0125
2199.82001	38163.0125
2202.74867	38164.1125
2205.67545	38170.5125
2208.60037	38130.8125
2211.52341	38085.5125
2214.44458	38066.6125
2217.36388	38072.1125
2220.28132	38037.8125
2223.1969	37957.5125
2226.11061	37832.2125
2229.02246	37735.6125
2231.93245	37667.2125
2234.84058	37587.8125
2237.74686	37611.9125
2240.65128	37542.1125
2243.55385	37549.9125
2246.45456	37448.5125
2249.35343	37446.9125
2252.25044	37360.7125
2255.14561	37334.1125
2258.03893	37302.6125
2260.93041	37259.3125
2263.82004	37110.5125
2266.70783	37023.9125
2269.59378	36946.1125
2272.4779	36885.4125
2275.36017	36843.8125
2278.24061	36774.1125
2281.11922	36652.0125
2283.996	36665.4125
2286.87094	36644.6125
2289.74405	36627.1125
2292.61534	36593.2125
2295.4848	36577.2125
2298.35243	36637.3125
2301.21824	36580.6125
2304.08223	36561.4125
2306.94439	36583.3125
2309.80474	36668.0125
2312.66327	36711.6125
2315.51999	36646.7125
2318.37489	36631.5125
2321.22797	36606.4125
2324.07925	36636.5125
2326.92871	36582.4125
2329.77637	36502.3125
2332.62222	36504.7125
2335.46626	36493.2125
2338.3085	36522.3125
2341.14893	36524.3125
2343.98756	36557.9125
2346.8244	36543.8125
2349.65943	36596.0125
2352.49267	36561.7125
2355.32411	36546.4125
2358.15376	36544.1125
2360.98161	36500.6125
2363.80768	36442.0125
2366.63195	36424.4125
2369.45444	36353.1125
2372.27514	36294.9125
2375.09405	36250.0125
2377.91118	36175.8125
2380.72652	36077.1125
2383.54009	35983.8125
2386.35187	35920.0125
2389.16188	35806.0125
2391.97011	35732.4125
2394.77657	35773.4125
2397.58125	35739.2125
2400.38416	35669.2125
2403.18529	35590.5125
2405.98466	35534.1125
2408.78226	35458.4125
2411.57809	35407.9125
2414.37216	35302.3125
2417.16446	35284.9125
2419.955	35255.4125
2422.74378	35274.1125
2425.5308	35207.2125
2428.31606	35222.2125
2431.09956	35211.6125
2433.88131	35215.8125
2436.6613	35268.4125
2439.43954	35179.2125
2442.21603	35182.1125
2444.99077	35129.6125
2447.76377	35148.7125
2450.53501	35079.0125
2453.30451	35140.1125
2456.07226	35068.2125
2458.83827	35109.9125
2461.60254	35040.4125
2464.36507	35026.6125
2467.12586	35075.7125
2469.88492	35060.4125
2472.64224	35108.1125
2475.39782	35077.2125
2478.15167	35151.2125
2480.90379	35192.8125
2483.65417	35161.6125
2486.40283	35208.8125
2489.14976	35240.6125
2491.89497	35215.5125
2494.63845	35285.0125
2497.3802	35205.2125
2500.12024	35269.3125
2502.85855	35243.3125
2505.59514	35233.7125
2508.33002	35116.6125
2511.06318	35116.9125
2513.79462	35118.9125
2516.52435	35127.0125
2519.25237	35076.5125
2521.97867	35031.3125
2524.70327	35017.6125
2527.42616	34971.1125
2530.14734	34954.5125
2532.86681	34926.7125
2535.58458	34948.3125
2538.30065	34935.0125
2541.01501	34939.6125
2543.72768	34911.8125
2546.43864	34968.7125
2549.14791	34841.2125
2551.85548	34796.3125
2554.56136	34731.8125
2557.26554	34694.1125
2559.96803	34671.9125
2562.66883	34617.2125
2565.36794	34609.6125
2568.06536	34650.2125
2570.7611	34553.0125
2573.45514	34520.3125
2576.14751	34532.3125
2578.83819	34504.6125
2581.52719	34530.3125
2584.21451	34456.8125
2586.90015	34470.6125
2589.58411	34425.3125
2592.2664	34513.9125
2594.94701	34448.2125
2597.62594	34503.8125
2600.30321	34470.3125
2602.9788	34463.6125
2605.65273	34431.3125
2608.32498	34493.2125
2610.99557	34463.0125
2613.66449	34465.1125
2616.33175	34501.0125
2618.99734	34460.2125
2621.66128	34407.6125
2624.32355	34439.3125
2626.98416	34488.4125
2629.64311	34433.7125
2632.30041	34459.2125
2634.95605	34433.9125
2637.61004	34415.1125
2640.26238	34378.3125
2642.91306	34298.8125
2645.56209	34254.1125
2648.20948	34210.5125
2650.85521	34204.7125
2653.4993	34250.8125
2656.14175	34240.1125
2658.78255	34300.1125
2661.42171	34295.6125
2664.05923	34357.5125
2666.6951	34415.2125
2669.32934	34433.1125
2671.96194	34387.1125
2674.59291	34408.8125
2677.22224	34457.3125
2679.84993	34415.9125
2682.476	34383.8125
2685.10043	34392.5125
2687.72324	34284.1125
2690.34441	34290.4125
2692.96396	34310.9125
2695.58188	34303.5125
2698.19818	34247.1125
2700.81285	34258.7125
2703.4259	34253.3125
2706.03733	34263.3125
2708.64714	34207.5125
2711.25533	34268.5125
2713.86191	34264.6125
2716.46687	34359.5125
2719.07021	34319.0125
2721.67194	34373.6125
2724.27206	34329.7125
2726.87057	34386.5125
2729.46747	34438.9125
2732.06276	34428.3125
2734.65644	34415.5125
2737.24852	34447.6125
2739.83899	34377.5125
2742.42786	34449.6125
2745.01513	34397.1125
2747.60079	34380.2125
2750.18486	34348.3125
2752.76733	34391.7125
2755.3482	34371.8125
2757.92747	34342.6125
2760.50515	34314.0125
2763.08123	34317.8125
2765.65573	34285.0125
2768.22863	34280.6125
2770.79994	34229.5125
2773.36967	34218.3125
2775.9378	34284.1125
2778.50435	34267.8125
2781.06932	34249.0125
2783.6327	34273.3125
2786.1945	34216.3125
2788.75471	34181.1125
2791.31335	34117.2125
2793.87041	34083.1125
2796.42589	33987.8125
2798.97979	33981.7125
2801.53212	33888.7125
2804.08288	33836.4125
2806.63206	33808.4125
2809.17967	33776.9125
2811.72571	33675.3125
2814.27018	33602.4125
2816.81308	33522.1125
2819.35442	33512.9125
2821.89419	33481.0125
2824.43239	33467.9125
2826.96904	33489.1125
2829.50412	33526.2125
2832.03763	33425.2125
2834.56959	33383.7125
2837.1	33338.4125
2839.62884	33302.5125
2842.15613	33284.4125
2844.68186	33293.3125
2847.20604	33243.4125
2849.72867	33241.7125
2852.24974	33149.2125
2854.76927	33147.8125
2857.28724	33076.1125
2859.80367	33109.2125
2862.31855	33037.5125
2864.83189	33030.2125
2867.34368	32971.6125
2869.85393	32987.2125
2872.36264	32943.6125
2874.8698	32888.1125
2877.37543	32892.1125
2879.87952	32867.4125
2882.38207	32937.5125
2884.88308	32937.0125
2887.38256	32960.4125
2889.88051	32971.5125
2892.37692	32984.2125
2894.8718	32981.2125
2897.36515	33011.8125
2899.85698	33020.1125
2902.34727	33082.1125
2904.83604	33060.0125
2907.32328	33094.4125
2909.809	33125.4125
2912.29319	33187.0125
2914.77587	33200.7125
2917.25702	33129.2125
2919.73665	33121.1125
2922.21476	33096.1125
2924.69136	33052.3125
2927.16644	33088.9125
2929.64	33031.1125
2932.11205	32980.0125
2934.58258	32836.9125
2937.05161	32951.0125
2939.51912	32958.6125
2941.98513	32909.7125
2944.44962	32851.2125
2946.91261	32773.9125
2949.37409	32833.1125
2951.83407	32810.6125
2954.29254	32775.0125
2956.74951	32774.0125
2959.20498	32799.2125
2961.65895	32710.5125
2964.11142	32755.2125
2966.56239	32713.1125
2969.01186	32689.6125
2971.45984	32537.7125
2973.90632	32506.6125
2976.35131	32426.0125
2978.7948	32425.4125
2981.23681	32363.8125
2983.67732	32293.9125
2986.11635	32208.6125
2988.55388	32132.9125
2990.98993	32122.9125
2993.4245	32025.6125
2995.85758	31949.5125
2998.28917	31852.1125
3000.71928	31770.1125
3003.14791	31706.6125
3005.57506	31724.9125
3008.00073	31617.5125
3010.42493	31598.1125
3012.84764	31572.0125
3015.26888	31501.4125
3017.68865	31461.4125
3020.10694	31382.1125
3022.52376	31345.1125
3024.9391	31280.3125
3027.35298	31264.9125
3029.76539	31241.0125
3032.17632	31211.1125
3034.5858	31156.6125
3036.9938	31124.9125
3039.40034	31118.1125
3041.80542	31140.6125
3044.20903	31053.5125
3046.61118	31047.0125
3049.01187	30997.9125
3051.4111	30899.7125
3053.80888	30829.5125
3056.20519	30778.0125
3058.60005	30719.5125
3060.99345	30646.0125
3063.3854	30539.7125
3065.7759	30463.1125
3068.16494	30405.8125
3070.55254	30228.4125
3072.93868	30188.8125
3075.32338	30091.0125
3077.70662	30069.0125
3080.08842	29942.2125
3082.46878	29895.7125
3084.84769	29825.3125
3087.22515	29835.6125
3089.60118	29788.0125
3091.97576	29785.4125
3094.3489	29793.9125
3096.72061	29778.4125
3099.09087	29830.5125
3101.4597	29750.6125
3103.82709	29759.4125
3106.19305	29760.9125
3108.55757	29713.9125
3110.92066	29644.0125
3113.28232	29607.2125
3115.64255	29503.8125
3118.00134	29420.5125
3120.35871	29371.5125
3122.71466	29250.8125
3125.06917	29200.2125
3127.42226	29186.5125
3129.77393	29166.7125
3132.12417	29109.7125
3134.47299	29096.8125
3136.82039	29064.5125
3139.16636	29025.6125
3141.51092	29012.5125
3143.85406	29006.6125
3146.19579	28990.3125
3148.53609	29006.9125
3150.87499	28948.2125
3153.21246	28966.5125
3155.54853	29034.5125
3157.88318	29012.5125
3160.21642	28967.5125
3162.54826	28936.9125
3164.87868	28940.8125
3167.2077	28875.2125
3169.5353	28853.7125
3171.86151	28813.1125
3174.18631	28838.0125
3176.5097	28828.9125
3178.83169	28806.8125
3181.15228	28797.6125
3183.47147	28670.4125
3185.78926	28685.8125
3188.10565	28628.2125
3190.42065	28594.0125
3192.73424	28566.0125
3195.04645	28546.3125
3197.35725	28507.3125
3199.66667	28509.5125
3201.97469	28521.5125
3204.28132	28421.1125
3206.58656	28455.1125
3208.8904	28488.0125
3211.19287	28527.7125
3213.49394	28531.3125
3215.79363	28505.0125
3218.09193	28527.7125
3220.38884	28571.0125
3222.68438	28605.1125
3224.97853	28515.6125
3227.2713	28485.4125
3229.56269	28454.0125
3231.8527	28391.1125
3234.14133	28388.4125
3236.42858	28298.8125
3238.71446	28222.8125
3240.99896	28234.3125
3243.28209	28248.7125
3245.56384	28191.2125
3247.84423	28127.9125
3250.12324	28132.8125
3252.40088	28106.3125
3254.67715	28083.3125
3256.95205	28047.1125
3259.22558	28016.0125
3261.49775	28001.9125
3263.76855	27975.1125
3266.03799	27867.1125
3268.30606	27876.5125
3270.57277	27793.5125
3272.83812	27757.8125
3275.10211	27708.3125
3277.36474	27717.1125
3279.62601	27687.7125
3281.88593	27660.7125
3284.14448	27654.8125
3286.40168	27651.5125
3288.65753	27606.8125
3290.91202	27583.6125
3293.16516	27522.1125
3295.41695	27498.7125
3297.66738	27359.6125
3299.91647	27184.9125
3302.16421	27057.9125
3304.4106	26895.2125
3306.65564	26758.4125
3308.89933	26613.7125
3311.14169	26429.0125
3313.38269	26201.8125
3315.62236	26071.3125
3317.86068	25805.6125
3320.09766	25611.3125
3322.3333	25421.1125
3324.5676	25312.0125
3326.80056	24923.4125
3329.03219	24788.5125
3331.26248	6.1125
3333.49143	1.0125
3335.71905	-1.2875
