Data from AgNPs_FTO_APTES_UA_20uM_CRN_200uM_R6G_10uM_NaF_0.1M_Addition_RamanShift__32__18-29-44-950.txt Node

Date: Thu Feb 17 18:29:44 GMT 2022
User: TCL
Spectrometer: QEP01345
Trigger mode: 4
Integration Time (sec): 1.000000E1
Scans to average: 7
Electric dark correction enabled: true
Nonlinearity correction enabled: false
Boxcar width: 0
XAxis mode: Raman Shifts
Number of Pixels in Spectrum: 1044
>>>>>Begin Spectral Data<<<<<
46.04893	-0.32143
50.45542	-1.75
54.85868	-0.46429
59.25871	-0.32143
63.6555	67.82143
68.04907	69.25
72.43941	74.82143
76.82654	78.96429
81.21044	81.39286
85.59113	83.10714
89.96862	90.67857
94.34289	88.67857
98.71396	97.82143
103.08183	95.53571
107.4465	101.10714
111.80798	95.53571
116.16626	97.39286
120.52136	103.67857
124.87327	108.96429
129.222	108.53571
133.56755	116.96429
137.90993	124.53571
142.24913	142.53571
146.58517	156.25
150.91804	178.82143
155.24774	206.39286
159.57429	256.25
163.89768	329.67857
168.21792	441.25
172.53501	597.67857
176.84895	826.39286
181.15975	1161.96429
185.46741	1621.82143
189.77193	2264.82143
194.07331	3021.39286
198.37157	3943.96429
202.6667	4898.53571
206.9587	5848.82143
211.24758	6840.25
215.53334	7890.10714
219.81599	9076.53571
224.09553	10431.67857
228.37195	11940.96429
232.64527	13596.53571
236.91549	15263.53571
241.18261	16718.96429
245.44663	17845.53571
249.70755	18731.10714
253.96539	19380.10714
258.22014	19853.67857
262.4718	20233.39286
266.72039	20365.67857
270.96589	20330.10714
275.20832	20093.96429
279.44768	19497.96429
283.68397	18940.39286
287.91719	18583.10714
292.14735	18737.39286
296.37445	19379.67857
300.59849	20762.25
304.81948	22418.67857
309.03742	23715.25
313.25231	23921.82143
317.46415	22634.10714
321.67296	20190.53571
325.87872	18125.25
330.08145	17109.25
334.28114	17008.10714
338.47781	17441.96429
342.67145	18131.10714
346.86207	19278.10714
351.04966	21072.25
355.23424	23180.39286
359.4158	24679.39286
363.59435	25306.96429
367.76989	25431.10714
371.94243	25250.10714
376.11196	24992.82143
380.27849	24667.53571
384.44203	24207.10714
388.60257	23532.67857
392.76012	23027.82143
396.91468	23072.53571
401.06626	23730.39286
405.21485	24181.82143
409.36047	23448.53571
413.50311	21563.39286
417.64277	19698.10714
421.77947	18476.67857
425.9132	17964.67857
430.04396	17820.96429
434.17176	17937.82143
438.2966	18283.67857
442.41849	19014.39286
446.53742	19802.82143
450.6534	20522.10714
454.76644	20879.53571
458.87653	20809.67857
462.98368	20410.96429
467.08789	19865.10714
471.18916	19145.82143
475.2875	18346.82143
479.38291	17679.10714
483.4754	17167.53571
487.56496	16866.25
491.6516	16653.53571
495.73531	16600.39286
499.81612	16713.96429
503.89401	17031.10714
507.96899	17551.82143
512.04106	18140.10714
516.11023	18842.67857
520.1765	19353.39286
524.23987	19374.96429
528.30034	18930.39286
532.35792	18372.39286
536.41261	17792.10714
540.46441	17170.25
544.51333	16764.67857
548.55936	16705.39286
552.60252	17136.25
556.64279	17702.25
560.6802	17983.39286
564.71473	18466.25
568.7464	19760.53571
572.7752	20519.53571
576.80114	19382.25
580.82422	17803.10714
584.84444	17090.39286
588.86181	17073.67857
592.87633	17317.82143
596.888	17744.10714
600.89682	18655.25
604.9028	22032.53571
608.90594	31940.53571
612.90624	46079.82143
616.90371	45261.39286
620.89834	28062.10714
624.89015	19434.25
628.87913	17739.39286
632.86528	18007.96429
636.84862	18593.39286
640.82913	18228.53571
644.80683	16882.96429
648.78172	15899.10714
652.75379	15968.96429
656.72306	17153.25
660.68952	18500.82143
664.65319	18133.25
668.61405	16558.96429
672.57211	15781.10714
676.52738	15803.25
680.47986	15807.10714
684.42955	15539.67857
688.37646	15385.82143
692.32058	15419.10714
696.26192	15624.10714
700.20048	15949.10714
704.13626	16134.25
708.06928	16007.82143
711.99952	15783.53571
715.927	15759.10714
719.85171	15949.82143
723.77365	16020.82143
727.69284	15852.25
731.60928	15687.82143
735.52295	15665.82143
739.43388	15767.25
743.34206	15836.53571
747.24749	15872.10714
751.15017	15957.53571
755.05012	16330.39286
758.94733	17556.25
762.8418	20687.25
766.73354	25902.10714
770.62254	31409.25
774.50882	35030.39286
778.39237	34261.25
782.27321	28523.39286
786.15132	22152.39286
790.02671	18370.82143
793.89938	16787.96429
797.76935	16135.10714
801.6366	15817.10714
805.50115	15705.67857
809.36299	15630.53571
813.22213	15559.53571
817.07857	15486.67857
820.93231	15464.25
824.78336	15490.53571
828.63172	15622.82143
832.47738	15695.39286
836.32036	15596.39286
840.16066	15381.82143
843.99827	15235.67857
847.8332	15157.53571
851.66546	15189.25
855.49504	15190.82143
859.32195	15156.96429
863.1462	15059.25
866.96777	14999.53571
870.78668	15044.10714
874.60293	15101.67857
878.41652	15230.39286
882.22745	15419.96429
886.03573	15557.25
889.84136	15514.82143
893.64433	15414.25
897.44466	15364.96429
901.24235	15331.25
905.0374	15209.53571
908.8298	15029.82143
912.61957	14882.25
916.40671	14859.39286
920.19121	14943.96429
923.97308	15133.82143
927.75233	15465.96429
931.52895	15949.53571
935.30295	15769.82143
939.07433	15106.67857
942.84309	14508.53571
946.60924	14128.10714
950.37278	13942.25
954.13371	13831.25
957.89203	13813.82143
961.64774	13765.10714
965.40086	13717.82143
969.15137	13672.25
972.89929	13627.39286
976.64461	13654.53571
980.38733	13659.67857
984.12747	13708.10714
987.86502	13749.67857
991.59999	13832.39286
995.33237	14049.53571
999.06217	14399.10714
1002.78939	14822.82143
1006.51404	15210.53571
1010.23611	15708.96429
1013.95561	15974.10714
1017.67255	15926.67857
1021.38692	15602.39286
1025.09872	15266.67857
1028.80796	15012.25
1032.51465	15051.10714
1036.21877	15229.96429
1039.92035	15369.67857
1043.61937	15457.67857
1047.31584	15430.67857
1051.00976	15406.67857
1054.70114	15240.25
1058.38998	15139.39286
1062.07627	15147.39286
1065.76003	15160.53571
1069.44126	15181.10714
1073.11995	15401.10714
1076.79611	15780.10714
1080.46974	16411.67857
1084.14085	17242.53571
1087.80943	18034.53571
1091.47549	18263.10714
1095.13903	17701.67857
1098.80005	16793.10714
1102.45857	16148.53571
1106.11456	16003.96429
1109.76805	16400.10714
1113.41903	17169.10714
1117.06751	18333.82143
1120.71348	19898.25
1124.35696	21625.39286
1127.99793	22725.10714
1131.63641	22088.25
1135.2724	20198.82143
1138.90589	18545.39286
1142.5369	17531.82143
1146.16542	16849.82143
1149.79145	16457.53571
1153.415	16307.82143
1157.03607	16453.53571
1160.65467	16898.39286
1164.27079	17680.82143
1167.88443	19003.25
1171.49561	21201.67857
1175.10432	24824.10714
1178.71056	29921.96429
1182.31434	33859.67857
1185.91565	34728.25
1189.51451	33134.25
1193.11091	30255.39286
1196.70485	27052.67857
1200.29634	24888.39286
1203.88538	23256.10714
1207.47197	21175.39286
1211.05612	19341.82143
1214.63782	18296.10714
1218.21708	17902.39286
1221.79391	17732.67857
1225.36829	17718.25
1228.94024	17650.53571
1232.50976	17598.67857
1236.07685	17700.82143
1239.6415	17940.96429
1243.20374	18188.96429
1246.76355	18368.10714
1250.32093	18604.39286
1253.8759	19116.96429
1257.42845	19898.82143
1260.97859	20826.96429
1264.52631	21810.25
1268.07163	22681.25
1271.61453	23420.25
1275.15503	23693.39286
1278.69312	23644.96429
1282.22882	23738.25
1285.76211	24382.53571
1289.29301	25583.10714
1292.82151	26712.39286
1296.34761	28074.10714
1299.87133	30051.82143
1303.39266	33707.96429
1306.9116	39349.96429
1310.42815	45235.53571
1313.94233	47566.25
1317.45412	44688.53571
1320.96354	39367.82143
1324.47058	34077.25
1327.97525	30026.67857
1331.47754	27754.67857
1334.97747	27191.25
1338.47502	27925.25
1341.97022	29657.39286
1345.46305	32351.53571
1348.95352	35987.53571
1352.44163	40684.39286
1355.92738	47359.67857
1359.41078	56895.25
1362.89183	64215.67857
1366.37053	60114.67857
1369.84688	48537.25
1373.32088	38191.53571
1376.79254	31608.53571
1380.26186	27959.39286
1383.72883	25758.39286
1387.19347	24095.96429
1390.65578	22474.25
1394.11575	21243.53571
1397.57339	20661.82143
1401.0287	20604.39286
1404.48168	20765.67857
1407.93234	21144.67857
1411.38068	21634.53571
1414.82669	21977.96429
1418.27039	21905.10714
1421.71177	21660.82143
1425.15083	21279.25
1428.58758	21223.82143
1432.02203	21525.39286
1435.45416	21906.53571
1438.88399	21906.10714
1442.31151	21865.53571
1445.73673	21882.67857
1449.15965	21972.39286
1452.58027	21755.96429
1455.9986	21318.82143
1459.41463	21131.96429
1462.82837	21409.25
1466.23982	22077.39286
1469.64898	22820.82143
1473.05586	23342.53571
1476.46045	23792.67857
1479.86276	24468.39286
1483.26279	25352.67857
1486.66054	26436.96429
1490.05602	27808.25
1493.44922	29782.53571
1496.84016	32747.10714
1500.22882	37677.39286
1503.61521	44736.10714
1506.99934	52759.25
1510.38121	59112.67857
1513.76081	60497.25
1517.13816	54805.10714
1520.51324	44983.10714
1523.88607	36287.10714
1527.25665	30852.10714
1530.62498	27910.82143
1533.99105	26219.96429
1537.35488	25354.25
1540.71647	24994.82143
1544.07581	25016.67857
1547.4329	25195.39286
1550.78776	25312.25
1554.14038	25289.96429
1557.49077	25396.82143
1560.83892	25899.53571
1564.18484	26924.10714
1567.52853	28383.82143
1570.86999	29659.25
1574.20922	30346.82143
1577.54624	29889.82143
1580.88103	27610.10714
1584.2136	24656.67857
1587.54395	22884.10714
1590.87208	22803.53571
1594.19801	24401.82143
1597.52172	26856.10714
1600.84321	28151.53571
1604.16251	27463.25
1607.47959	25550.10714
1610.79447	23232.10714
1614.10715	20923.25
1617.41763	19180.82143
1620.7259	18148.96429
1624.03199	17717.82143
1627.33587	17775.67857
1630.63757	18226.53571
1633.93707	19358.39286
1637.23439	21205.39286
1640.52951	24250.67857
1643.82246	28809.96429
1647.11321	34408.53571
1650.40179	38396.10714
1653.68819	37060.53571
1656.97241	30869.10714
1660.25446	24402.53571
1663.53433	20054.53571
1666.81203	17526.53571
1670.08756	16163.53571
1673.36092	15254.10714
1676.63211	14724.82143
1679.90115	14309.39286
1683.16801	14043.39286
1686.43272	13793.10714
1689.69527	13645.25
1692.95567	13534.25
1696.2139	13479.96429
1699.46999	13415.25
1702.72392	13385.25
1705.97571	13373.39286
1709.22535	13366.39286
1712.47284	13378.39286
1715.71819	13390.39286
1718.96139	13359.53571
1722.20246	13316.82143
1725.44139	13228.25
1728.67818	13099.82143
1731.91284	12948.10714
1735.14537	12857.53571
1738.37576	12775.67857
1741.60403	12721.67857
1744.83017	12627.82143
1748.05418	12584.67857
1751.27607	12534.25
1754.49584	12506.96429
1757.71349	12463.82143
1760.92903	12441.25
1764.14244	12371.82143
1767.35375	12368.67857
1770.56294	12322.67857
1773.77002	12242.67857
1776.97499	12203.39286
1780.17785	12163.25
1783.37861	12088.82143
1786.57727	12059.82143
1789.77382	12033.82143
1792.96828	11989.53571
1796.16064	11945.39286
1799.3509	11960.82143
1802.53907	11927.96429
1805.72514	11886.82143
1808.90913	11848.39286
1812.09102	11817.10714
1815.27083	11753.25
1818.44856	11708.25
1821.6242	11705.67857
1824.79776	11686.10714
1827.96924	11657.82143
1831.13864	11637.96429
1834.30597	11607.53571
1837.47122	11582.39286
1840.6344	11577.82143
1843.7955	11546.39286
1846.95454	11541.53571
1850.11151	11551.10714
1853.26642	11532.39286
1856.41926	11526.53571
1859.57004	11540.39286
1862.71876	11530.67857
1865.86542	11538.10714
1869.01003	11518.53571
1872.15258	11511.96429
1875.29308	11532.67857
1878.43152	11500.96429
1881.56792	11544.96429
1884.70227	11519.82143
1887.83457	11494.96429
1890.96482	11487.67857
1894.09304	11482.10714
1897.21921	11434.82143
1900.34335	11443.96429
1903.46544	11441.10714
1906.58551	11457.39286
1909.70353	11414.53571
1912.81953	11411.67857
1915.93349	11367.82143
1919.04543	11375.25
1922.15534	11358.53571
1925.26322	11333.82143
1928.36908	11331.39286
1931.47292	11307.96429
1934.57473	11267.53571
1937.67453	11175.10714
1940.77232	11151.53571
1943.86808	11100.10714
1946.96184	11085.96429
1950.05358	11005.39286
1953.14331	10981.82143
1956.23103	10998.82143
1959.31675	10963.67857
1962.40046	10919.67857
1965.48217	10921.39286
1968.56188	10892.82143
1971.63959	10856.53571
1974.7153	10857.53571
1977.78901	10806.96429
1980.86073	10779.82143
1983.93046	10703.67857
1986.99819	10666.82143
1990.06394	10625.67857
1993.1277	10592.10714
1996.18947	10509.25
1999.24925	10488.10714
2002.30706	10436.96429
2005.36288	10408.96429
2008.41672	10382.39286
2011.46859	10334.96429
2014.51848	10286.82143
2017.56639	10276.82143
2020.61233	10235.25
2023.6563	10197.82143
2026.6983	10176.53571
2029.73833	10153.39286
2032.7764	10152.25
2035.8125	10094.67857
2038.84664	10078.96429
2041.87881	10094.96429
2044.90903	10060.82143
2047.93729	10058.39286
2050.96359	10045.53571
2053.98794	10035.39286
2057.01034	9991.96429
2060.03078	9999.25
2063.04927	9972.39286
2066.06582	9983.25
2069.08042	9941.82143
2072.09307	9920.53571
2075.10378	9908.53571
2078.11255	9898.39286
2081.11938	9888.96429
2084.12426	9882.10714
2087.12722	9900.96429
2090.12824	9878.67857
2093.12732	9903.82143
2096.12447	9914.67857
2099.11969	9902.25
2102.11299	9894.10714
2105.10435	9898.10714
2108.09379	9898.96429
2111.08131	9902.67857
2114.0669	9883.96429
2117.05057	9898.67857
2120.03233	9910.96429
2123.01216	9904.53571
2125.99008	9935.67857
2128.96609	9949.53571
2131.94018	9989.39286
2134.91236	9968.82143
2137.88263	9944.67857
2140.851	9947.53571
2143.81746	9952.25
2146.78201	9905.25
2149.74466	9921.96429
2152.7054	9904.53571
2155.66425	9895.96429
2158.6212	9880.67857
2161.57625	9829.53571
2164.52941	9845.10714
2167.48067	9830.96429
2170.43004	9811.96429
2173.37752	9838.53571
2176.32311	9853.25
2179.26681	9840.96429
2182.20863	9844.67857
2185.14856	9858.82143
2188.08661	9813.53571
2191.02278	9812.39286
2193.95707	9799.96429
2196.88948	9803.10714
2199.82001	9765.67857
2202.74867	9760.25
2205.67545	9747.39286
2208.60037	9754.39286
2211.52341	9726.67857
2214.44458	9700.10714
2217.36388	9684.53571
2220.28132	9690.39286
2223.1969	9620.25
2226.11061	9610.10714
2229.02246	9590.67857
2231.93245	9570.53571
2234.84058	9533.10714
2237.74686	9556.10714
2240.65128	9531.67857
2243.55385	9545.96429
2246.45456	9510.10714
2249.35343	9486.96429
2252.25044	9516.10714
2255.14561	9524.39286
2258.03893	9538.25
2260.93041	9547.39286
2263.82004	9510.53571
2266.70783	9488.10714
2269.59378	9472.53571
2272.4779	9436.96429
2275.36017	9393.39286
2278.24061	9416.96429
2281.11922	9379.53571
2283.996	9376.25
2286.87094	9345.96429
2289.74405	9298.82143
2292.61534	9286.10714
2295.4848	9231.39286
2298.35243	9254.67857
2301.21824	9241.10714
2304.08223	9206.82143
2306.94439	9207.25
2309.80474	9217.67857
2312.66327	9205.96429
2315.51999	9195.25
2318.37489	9166.96429
2321.22797	9168.53571
2324.07925	9173.82143
2326.92871	9140.96429
2329.77637	9148.82143
2332.62222	9132.39286
2335.46626	9125.10714
2338.3085	9130.82143
2341.14893	9112.82143
2343.98756	9113.96429
2346.8244	9146.10714
2349.65943	9130.25
2352.49267	9131.67857
2355.32411	9173.82143
2358.15376	9195.67857
2360.98161	9202.67857
2363.80768	9232.82143
2366.63195	9236.96429
2369.45444	9276.67857
2372.27514	9230.39286
2375.09405	9215.82143
2377.91118	9203.53571
2380.72652	9124.39286
2383.54009	9074.25
2386.35187	9048.39286
2389.16188	8974.10714
2391.97011	8975.39286
2394.77657	8939.53571
2397.58125	8904.82143
2400.38416	8879.53571
2403.18529	8863.25
2405.98466	8841.53571
2408.78226	8790.53571
2411.57809	8787.39286
2414.37216	8776.25
2417.16446	8776.39286
2419.955	8759.25
2422.74378	8731.39286
2425.5308	8767.82143
2428.31606	8730.53571
2431.09956	8758.10714
2433.88131	8764.82143
2436.6613	8738.25
2439.43954	8770.53571
2442.21603	8733.96429
2444.99077	8762.67857
2447.76377	8746.67857
2450.53501	8752.10714
2453.30451	8771.25
2456.07226	8755.82143
2458.83827	8772.39286
2461.60254	8750.25
2464.36507	8715.25
2467.12586	8713.39286
2469.88492	8727.96429
2472.64224	8745.53571
2475.39782	8730.53571
2478.15167	8752.53571
2480.90379	8759.10714
2483.65417	8815.67857
2486.40283	8846.39286
2489.14976	8893.39286
2491.89497	8924.82143
2494.63845	8893.67857
2497.3802	8888.67857
2500.12024	8885.67857
2502.85855	8817.25
2505.59514	8766.53571
2508.33002	8705.82143
2511.06318	8706.10714
2513.79462	8621.39286
2516.52435	8592.25
2519.25237	8554.25
2521.97867	8479.53571
2524.70327	8498.96429
2527.42616	8478.82143
2530.14734	8476.53571
2532.86681	8457.10714
2535.58458	8443.53571
2538.30065	8452.67857
2541.01501	8456.10714
2543.72768	8468.25
2546.43864	8471.10714
2549.14791	8454.25
2551.85548	8473.10714
2554.56136	8431.53571
2557.26554	8436.25
2559.96803	8438.39286
2562.66883	8434.67857
2565.36794	8407.67857
2568.06536	8379.53571
2570.7611	8358.82143
2573.45514	8358.10714
2576.14751	8333.53571
2578.83819	8305.67857
2581.52719	8293.39286
2584.21451	8268.10714
2586.90015	8254.39286
2589.58411	8249.67857
2592.2664	8242.53571
2594.94701	8238.25
2597.62594	8238.39286
2600.30321	8203.10714
2602.9788	8193.39286
2605.65273	8204.25
2608.32498	8187.10714
2610.99557	8206.96429
2613.66449	8212.10714
2616.33175	8199.39286
2618.99734	8204.96429
2621.66128	8220.96429
2624.32355	8176.82143
2626.98416	8184.53571
2629.64311	8151.53571
2632.30041	8150.82143
2634.95605	8103.53571
2637.61004	8081.67857
2640.26238	8059.53571
2642.91306	8048.39286
2645.56209	8062.39286
2648.20948	8033.82143
2650.85521	8031.67857
2653.4993	8041.53571
2656.14175	8073.67857
2658.78255	8073.10714
2661.42171	8099.25
2664.05923	8099.96429
2666.6951	8094.96429
2669.32934	8114.39286
2671.96194	8132.25
2674.59291	8169.25
2677.22224	8128.10714
2679.84993	8133.10714
2682.476	8126.96429
2685.10043	8140.10714
2687.72324	8091.25
2690.34441	8110.53571
2692.96396	8097.82143
2695.58188	8116.25
2698.19818	8131.82143
2700.81285	8107.10714
2703.4259	8117.25
2706.03733	8092.25
2708.64714	8118.39286
2711.25533	8122.10714
2713.86191	8135.82143
2716.46687	8165.53571
2719.07021	8143.82143
2721.67194	8152.82143
2724.27206	8187.96429
2726.87057	8141.67857
2729.46747	8144.39286
2732.06276	8134.25
2734.65644	8104.67857
2737.24852	8097.96429
2739.83899	8099.67857
2742.42786	8091.39286
2745.01513	8069.82143
2747.60079	8055.10714
2750.18486	8053.39286
2752.76733	8028.53571
2755.3482	8034.82143
2757.92747	8047.67857
2760.50515	7998.39286
2763.08123	7991.39286
2765.65573	7956.96429
2768.22863	7954.53571
2770.79994	7932.96429
2773.36967	7960.67857
2775.9378	7967.10714
2778.50435	7974.53571
2781.06932	7954.53571
2783.6327	7939.39286
2786.1945	7969.25
2788.75471	7952.53571
2791.31335	7945.39286
2793.87041	7898.53571
2796.42589	7960.53571
2798.97979	7951.82143
2801.53212	7968.39286
2804.08288	7938.53571
2806.63206	7924.67857
2809.17967	7947.67857
2811.72571	7929.96429
2814.27018	7965.10714
2816.81308	7961.82143
2819.35442	7934.39286
2821.89419	7956.10714
2824.43239	7997.25
2826.96904	7985.82143
2829.50412	8004.25
2832.03763	7982.67857
2834.56959	8009.25
2837.1	8010.82143
2839.62884	8011.39286
2842.15613	8009.25
2844.68186	8023.96429
2847.20604	8057.25
2849.72867	8094.82143
2852.24974	8141.82143
2854.76927	8123.96429
2857.28724	8130.39286
2859.80367	8109.82143
2862.31855	8096.10714
2864.83189	8092.39286
2867.34368	8120.67857
2869.85393	8110.67857
2872.36264	8112.10714
2874.8698	8086.39286
2877.37543	8045.53571
2879.87952	8062.53571
2882.38207	8048.82143
2884.88308	8015.96429
2887.38256	8014.39286
2889.88051	8003.82143
2892.37692	7959.82143
2894.8718	7972.96429
2897.36515	7976.39286
2899.85698	7993.82143
2902.34727	8007.39286
2904.83604	7993.39286
2907.32328	7998.25
2909.809	8012.25
2912.29319	8003.10714
2914.77587	7981.82143
2917.25702	8014.10714
2919.73665	7980.10714
2922.21476	7959.96429
2924.69136	7953.10714
2927.16644	7938.96429
2929.64	7907.53571
2932.11205	7908.10714
2934.58258	7858.39286
2937.05161	7865.96429
2939.51912	7861.39286
2941.98513	7837.67857
2944.44962	7801.10714
2946.91261	7750.82143
2949.37409	7729.67857
2951.83407	7728.96429
2954.29254	7711.82143
2956.74951	7705.39286
2959.20498	7681.67857
2961.65895	7654.10714
2964.11142	7640.39286
2966.56239	7618.10714
2969.01186	7616.25
2971.45984	7583.10714
2973.90632	7604.39286
2976.35131	7576.53571
2978.7948	7554.25
2981.23681	7537.10714
2983.67732	7446.67857
2986.11635	7488.96429
2988.55388	7453.10714
2990.98993	7434.10714
2993.4245	7424.39286
2995.85758	7436.53571
2998.28917	7416.82143
3000.71928	7388.53571
3003.14791	7377.10714
3005.57506	7372.39286
3008.00073	7374.39286
3010.42493	7359.10714
3012.84764	7351.82143
3015.26888	7351.53571
3017.68865	7316.39286
3020.10694	7304.67857
3022.52376	7290.96429
3024.9391	7292.53571
3027.35298	7269.25
3029.76539	7257.25
3032.17632	7255.25
3034.5858	7211.10714
3036.9938	7215.67857
3039.40034	7192.25
3041.80542	7186.82143
3044.20903	7175.53571
3046.61118	7186.67857
3049.01187	7151.39286
3051.4111	7156.10714
3053.80888	7104.82143
3056.20519	7100.53571
3058.60005	7093.39286
3060.99345	7102.82143
3063.3854	7050.53571
3065.7759	7024.53571
3068.16494	7003.82143
3070.55254	7011.39286
3072.93868	6958.10714
3075.32338	6944.53571
3077.70662	6921.82143
3080.08842	6906.53571
3082.46878	6884.96429
3084.84769	6881.82143
3087.22515	6867.96429
3089.60118	6890.10714
3091.97576	6872.82143
3094.3489	6849.82143
3096.72061	6842.25
3099.09087	6848.67857
3101.4597	6854.25
3103.82709	6838.25
3106.19305	6820.10714
3108.55757	6832.25
3110.92066	6791.82143
3113.28232	6805.25
3115.64255	6800.67857
3118.00134	6765.67857
3120.35871	6758.25
3122.71466	6769.39286
3125.06917	6763.67857
3127.42226	6735.25
3129.77393	6743.96429
3132.12417	6739.25
3134.47299	6748.53571
3136.82039	6731.82143
3139.16636	6761.25
3141.51092	6761.96429
3143.85406	6769.67857
3146.19579	6750.96429
3148.53609	6750.25
3150.87499	6776.25
3153.21246	6776.67857
3155.54853	6793.53571
3157.88318	6786.39286
3160.21642	6797.39286
3162.54826	6805.10714
3164.87868	6781.96429
3167.2077	6779.10714
3169.5353	6799.67857
3171.86151	6801.10714
3174.18631	6826.39286
3176.5097	6812.39286
3178.83169	6783.39286
3181.15228	6805.67857
3183.47147	6766.67857
3185.78926	6766.67857
3188.10565	6778.39286
3190.42065	6769.25
3192.73424	6799.96429
3195.04645	6780.25
3197.35725	6794.82143
3199.66667	6795.82143
3201.97469	6792.53571
3204.28132	6799.53571
3206.58656	6836.82143
3208.8904	6826.96429
3211.19287	6840.39286
3213.49394	6856.67857
3215.79363	6870.39286
3218.09193	6869.96429
3220.38884	6884.67857
3222.68438	6887.67857
3224.97853	6878.53571
3227.2713	6877.53571
3229.56269	6861.96429
3231.8527	6883.67857
3234.14133	6834.53571
3236.42858	6836.53571
3238.71446	6816.53571
3240.99896	6793.39286
3243.28209	6783.10714
3245.56384	6803.96429
3247.84423	6810.82143
3250.12324	6757.96429
3252.40088	6770.67857
3254.67715	6771.67857
3256.95205	6753.39286
3259.22558	6746.82143
3261.49775	6722.39286
3263.76855	6731.67857
3266.03799	6735.39286
3268.30606	6741.82143
3270.57277	6725.39286
3272.83812	6706.10714
3275.10211	6697.96429
3277.36474	6699.39286
3279.62601	6684.67857
3281.88593	6655.67857
3284.14448	6663.25
3286.40168	6680.96429
3288.65753	6665.96429
3290.91202	6668.10714
3293.16516	6651.53571
3295.41695	6628.82143
3297.66738	6630.39286
3299.91647	6580.53571
3302.16421	6553.67857
3304.4106	6488.67857
3306.65564	6466.96429
3308.89933	6397.82143
3311.14169	6374.39286
3313.38269	6292.82143
3315.62236	6263.67857
3317.86068	6221.25
3320.09766	6174.53571
3322.3333	6132.25
3324.5676	6100.10714
3326.80056	6002.67857
3329.03219	5938.67857
3331.26248	1.67857
3333.49143	-0.17857
3335.71905	-0.75
