Data from AgNPs_FTO_APTES_UA_20uM_CRN_1000uM_R6G_10uM_NaF_0.1M_Addition_RamanShift__21__19-36-15-034.txt Node

Date: Thu Feb 17 19:36:15 GMT 2022
User: TCL
Spectrometer: QEP01345
Trigger mode: 4
Integration Time (sec): 1.000000E1
Scans to average: 7
Electric dark correction enabled: true
Nonlinearity correction enabled: false
Boxcar width: 0
XAxis mode: Raman Shifts
Number of Pixels in Spectrum: 1044
>>>>>Begin Spectral Data<<<<<
46.04893	0.21429
50.45542	-1.07143
54.85868	-1.07143
59.25871	-0.35714
63.6555	57.07143
68.04907	56.21429
72.43941	63.07143
76.82654	63.5
81.21044	75.5
85.59113	71.78571
89.96862	73.07143
94.34289	77.21429
98.71396	83.5
103.08183	83.21429
107.4465	87.78571
111.80798	87.92857
116.16626	86.5
120.52136	90.78571
124.87327	95.35714
129.222	97.64286
133.56755	103.35714
137.90993	116.35714
142.24913	121.5
146.58517	132.07143
150.91804	155.07143
155.24774	179.07143
159.57429	223.5
163.89768	282.35714
168.21792	370.64286
172.53501	506.78571
176.84895	701.92857
181.15975	995.21429
185.46741	1395.35714
189.77193	1952.92857
194.07331	2620.78571
198.37157	3406.21429
202.6667	4239.35714
206.9587	5082.35714
211.24758	5920.78571
215.53334	6759.35714
219.81599	7647.21429
224.09553	8618.5
228.37195	9682.21429
232.64527	10906.92857
236.91549	12127.92857
241.18261	13332.35714
245.44663	14398.64286
249.70755	15320.5
253.96539	16126.21429
258.22014	16747.21429
262.4718	17215.78571
266.72039	17525.21429
270.96589	17654.78571
275.20832	17574.21429
279.44768	17344.5
283.68397	17039.92857
287.91719	16758.07143
292.14735	16633.5
296.37445	16635.21429
300.59849	16771.21429
304.81948	16995.64286
309.03742	17160.07143
313.25231	17123.21429
317.46415	16803.78571
321.67296	16320.5
325.87872	15883.5
330.08145	15736.35714
334.28114	15739.64286
338.47781	15932.92857
342.67145	16211.35714
346.86207	16499.21429
351.04966	16966.78571
355.23424	17539.5
359.4158	18009.07143
363.59435	18344.64286
367.76989	18574.5
371.94243	18675.64286
376.11196	18741.35714
380.27849	18815.64286
384.44203	18812.5
388.60257	18799.5
392.76012	18832.35714
396.91468	18940.64286
401.06626	19153.35714
405.21485	19308.07143
409.36047	19224.35714
413.50311	18852.21429
417.64277	18514.21429
421.77947	18305.21429
425.9132	18234.64286
430.04396	18245.92857
434.17176	18392.21429
438.2966	18628.35714
442.41849	18953.07143
446.53742	19352.92857
450.6534	19802.78571
454.76644	20144.92857
458.87653	20218.92857
462.98368	20153.35714
467.08789	19943.07143
471.18916	19650.07143
475.2875	19387.64286
479.38291	19173.5
483.4754	19014.92857
487.56496	18868.07143
491.6516	18757.5
495.73531	18723.07143
499.81612	18733.21429
503.89401	18871.64286
507.96899	18938.21429
512.04106	19037.21429
516.11023	19185.64286
520.1765	19226.64286
524.23987	19294.92857
528.30034	19235.78571
532.35792	19219.5
536.41261	19101.64286
540.46441	18939.64286
544.51333	18827.64286
548.55936	18860.35714
552.60252	18996.64286
556.64279	19237.78571
560.6802	19379.07143
564.71473	19407.92857
568.7464	19619.78571
572.7752	19781.5
576.80114	19673.35714
580.82422	19518.78571
584.84444	19592.35714
588.86181	19793.35714
592.87633	20238.07143
596.888	20452.07143
600.89682	20632.64286
604.9028	21475.21429
608.90594	23904.92857
612.90624	27057.92857
616.90371	26237.64286
620.89834	22015.64286
624.89015	19903.64286
628.87913	19537.78571
632.86528	19629.78571
636.84862	19766.92857
640.82913	19673.5
644.80683	19318.07143
648.78172	18937.78571
652.75379	18884.21429
656.72306	19185.35714
660.68952	19585.78571
664.65319	19503.78571
668.61405	19205.35714
672.57211	19208.21429
676.52738	19383.64286
680.47986	19441.5
684.42955	19335.07143
688.37646	19219.64286
692.32058	19082.07143
696.26192	19105.35714
700.20048	19182.35714
704.13626	19266.21429
708.06928	19157.78571
711.99952	18994.64286
715.927	18892.5
719.85171	18880.78571
723.77365	18952.64286
727.69284	18938.5
731.60928	18862.92857
735.52295	18861.64286
739.43388	18880.35714
743.34206	18884.21429
747.24749	18898.92857
751.15017	18917.21429
755.05012	19010.21429
758.94733	19319.5
762.8418	20137.21429
766.73354	21557.64286
770.62254	23152.92857
774.50882	24027.92857
778.39237	23491.78571
782.27321	21875.5
786.15132	20258.35714
790.02671	19198.92857
793.89938	18726.35714
797.76935	18536.64286
801.6366	18466.92857
805.50115	18422.07143
809.36299	18426.21429
813.22213	18287.64286
817.07857	18291.5
820.93231	18226.64286
824.78336	18215.92857
828.63172	18228.07143
832.47738	18206.21429
836.32036	18141.07143
840.16066	18165.5
843.99827	18193.92857
847.8332	18222.78571
851.66546	18159.78571
855.49504	18206.64286
859.32195	18266.21429
863.1462	18327.35714
866.96777	18356.5
870.78668	18368.5
874.60293	18326.07143
878.41652	18328.35714
882.22745	18339.21429
886.03573	18387.78571
889.84136	18368.21429
893.64433	18288.5
897.44466	18212.21429
901.24235	18113.35714
905.0374	18003.64286
908.8298	17917.21429
912.61957	17855.35714
916.40671	17900.21429
920.19121	17916.21429
923.97308	18050.64286
927.75233	18187.5
931.52895	18326.78571
935.30295	18236.5
939.07433	18035.21429
942.84309	17865.35714
946.60924	17634.21429
950.37278	17539.92857
954.13371	17493.21429
957.89203	17427.21429
961.64774	17386.64286
965.40086	17307.35714
969.15137	17240.78571
972.89929	17189.64286
976.64461	17205.5
980.38733	17208.07143
984.12747	17209.07143
987.86502	17309.21429
991.59999	17426.92857
995.33237	17609.07143
999.06217	17841.07143
1002.78939	18120.35714
1006.51404	18376.5
1010.23611	18537.64286
1013.95561	18633.5
1017.67255	18676.21429
1021.38692	18581.35714
1025.09872	18488.64286
1028.80796	18407.92857
1032.51465	18521.35714
1036.21877	18739.21429
1039.92035	18725.21429
1043.61937	18735.5
1047.31584	18548.64286
1051.00976	18398.35714
1054.70114	18254.92857
1058.38998	18229.92857
1062.07627	18232.92857
1065.76003	18237.35714
1069.44126	18243.21429
1073.11995	18309.92857
1076.79611	18423.07143
1080.46974	18537.21429
1084.14085	18702.64286
1087.80943	18887.64286
1091.47549	18975.35714
1095.13903	18836.5
1098.80005	18631.92857
1102.45857	18430.07143
1106.11456	18370.92857
1109.76805	18475.64286
1113.41903	18656.5
1117.06751	18904.21429
1120.71348	19251.92857
1124.35696	19583.64286
1127.99793	19925.35714
1131.63641	20032.21429
1135.2724	19705.78571
1138.90589	19364.21429
1142.5369	19058.64286
1146.16542	18835.92857
1149.79145	18653.35714
1153.415	18552.5
1157.03607	18590.64286
1160.65467	18773.78571
1164.27079	19161.07143
1167.88443	19729.5
1171.49561	20488.07143
1175.10432	21629.78571
1178.71056	23139.07143
1182.31434	24583.5
1185.91565	25199.92857
1189.51451	24945.5
1193.11091	24058.21429
1196.70485	23084.92857
1200.29634	22341.35714
1203.88538	21748.21429
1207.47197	21109.64286
1211.05612	20496.07143
1214.63782	20053.35714
1218.21708	19944.21429
1221.79391	19971.92857
1225.36829	20036.07143
1228.94024	19904.78571
1232.50976	19765.5
1236.07685	19623.07143
1239.6415	19584.78571
1243.20374	19593.78571
1246.76355	19667.07143
1250.32093	19892.78571
1253.8759	20070.92857
1257.42845	20405.92857
1260.97859	20761.78571
1264.52631	21076.21429
1268.07163	21409.92857
1271.61453	21792.21429
1275.15503	22152.35714
1278.69312	22456.78571
1282.22882	22690.21429
1285.76211	22934.5
1289.29301	23304.92857
1292.82151	23823.64286
1296.34761	24420.5
1299.87133	25334.21429
1303.39266	26573.5
1306.9116	28318.21429
1310.42815	30210.64286
1313.94233	31088.35714
1317.45412	30519.21429
1320.96354	29190.78571
1324.47058	27742.35714
1327.97525	26511.21429
1331.47754	25729.64286
1334.97747	25408.35714
1338.47502	25551.07143
1341.97022	25948.78571
1345.46305	26482.07143
1348.95352	27319.78571
1352.44163	28475.92857
1355.92738	30081.92857
1359.41078	32318.5
1362.89183	34432.64286
1366.37053	33790.35714
1369.84688	30239.21429
1373.32088	26559.07143
1376.79254	24214.35714
1380.26186	23047.21429
1383.72883	22434.5
1387.19347	21933.78571
1390.65578	21516.35714
1394.11575	21161.5
1397.57339	21092.35714
1401.0287	21198.21429
1404.48168	21391.78571
1407.93234	21565.21429
1411.38068	21722.78571
1414.82669	21784.21429
1418.27039	21669.21429
1421.71177	21388.35714
1425.15083	21098.21429
1428.58758	20865.35714
1432.02203	20865.21429
1435.45416	21021.92857
1438.88399	21206.78571
1442.31151	21224.07143
1445.73673	21288.78571
1449.15965	21366.64286
1452.58027	21289.92857
1455.9986	21250.21429
1459.41463	21214.21429
1462.82837	21365.92857
1466.23982	21682.35714
1469.64898	22032.21429
1473.05586	22355.5
1476.46045	22498.07143
1479.86276	22646.64286
1483.26279	22687.21429
1486.66054	22852.5
1490.05602	23121.07143
1493.44922	23492.5
1496.84016	23995.78571
1500.22882	24950.92857
1503.61521	26419.78571
1506.99934	28357.78571
1510.38121	29802.5
1513.76081	29894.5
1517.13816	28461.92857
1520.51324	26315.07143
1523.88607	24417.07143
1527.25665	23160.35714
1530.62498	22575.78571
1533.99105	22224.64286
1537.35488	22053.5
1540.71647	21953.78571
1544.07581	21857.64286
1547.4329	21816.21429
1550.78776	21726.92857
1554.14038	21695.07143
1557.49077	21705.92857
1560.83892	21788.35714
1564.18484	22019.92857
1567.52853	22185.92857
1570.86999	22464.21429
1574.20922	22631.78571
1577.54624	22588.78571
1580.88103	22176.92857
1584.2136	21594.78571
1587.54395	21267.07143
1590.87208	21555.35714
1594.19801	22405.64286
1597.52172	23496.78571
1600.84321	24128.78571
1604.16251	23854.92857
1607.47959	22910.21429
1610.79447	21790.21429
1614.10715	20603.35714
1617.41763	19720.5
1620.7259	19101.78571
1624.03199	18706.21429
1627.33587	18651.21429
1630.63757	18875.35714
1633.93707	19419.92857
1637.23439	20306.35714
1640.52951	21643.35714
1643.82246	23369.21429
1647.11321	25151.5
1650.40179	25970.35714
1653.68819	25048.64286
1656.97241	22799.5
1660.25446	20494.21429
1663.53433	18861.5
1666.81203	17924.78571
1670.08756	17267.07143
1673.36092	16871.5
1676.63211	16609.07143
1679.90115	16366.78571
1683.16801	16238.64286
1686.43272	16067.78571
1689.69527	15962.64286
1692.95567	15890.92857
1696.2139	15834.35714
1699.46999	15802.07143
1702.72392	15736.07143
1705.97571	15701.64286
1709.22535	15684.64286
1712.47284	15624.92857
1715.71819	15615.5
1718.96139	15565.78571
1722.20246	15551.64286
1725.44139	15479.35714
1728.67818	15400.78571
1731.91284	15389.64286
1735.14537	15324.07143
1738.37576	15277.64286
1741.60403	15266.35714
1744.83017	15238.92857
1748.05418	15247.64286
1751.27607	15215.92857
1754.49584	15204.78571
1757.71349	15166.92857
1760.92903	15173.64286
1764.14244	15092.78571
1767.35375	15047.35714
1770.56294	15043.92857
1773.77002	14952.35714
1776.97499	14909.07143
1780.17785	14882.64286
1783.37861	14854.21429
1786.57727	14814.35714
1789.77382	14763.64286
1792.96828	14748.64286
1796.16064	14700.21429
1799.3509	14639.92857
1802.53907	14620.35714
1805.72514	14593.07143
1808.90913	14630.64286
1812.09102	14556.92857
1815.27083	14482.78571
1818.44856	14482.5
1821.6242	14471.64286
1824.79776	14464.78571
1827.96924	14403.92857
1831.13864	14399.92857
1834.30597	14377.07143
1837.47122	14355.64286
1840.6344	14370.35714
1843.7955	14383.07143
1846.95454	14351.07143
1850.11151	14359.78571
1853.26642	14322.5
1856.41926	14303.78571
1859.57004	14312.64286
1862.71876	14292.21429
1865.86542	14315.5
1869.01003	14313.21429
1872.15258	14283.5
1875.29308	14305.64286
1878.43152	14268.78571
1881.56792	14270.07143
1884.70227	14236.92857
1887.83457	14248.21429
1890.96482	14187.78571
1894.09304	14132.92857
1897.21921	14137.78571
1900.34335	14168.21429
1903.46544	14153.5
1906.58551	14137.5
1909.70353	14095.64286
1912.81953	14091.92857
1915.93349	14067.78571
1919.04543	14010.07143
1922.15534	14045.92857
1925.26322	14029.07143
1928.36908	14008.5
1931.47292	14005.92857
1934.57473	13980.64286
1937.67453	13935.07143
1940.77232	13916.92857
1943.86808	13849.92857
1946.96184	13800.92857
1950.05358	13757.78571
1953.14331	13738.92857
1956.23103	13723.35714
1959.31675	13713.78571
1962.40046	13649.21429
1965.48217	13583.07143
1968.56188	13567.5
1971.63959	13544.35714
1974.7153	13525.5
1977.78901	13461.78571
1980.86073	13433.21429
1983.93046	13410.21429
1986.99819	13354.5
1990.06394	13273.35714
1993.1277	13248.21429
1996.18947	13219.21429
1999.24925	13200.07143
2002.30706	13128.64286
2005.36288	13092.21429
2008.41672	13099.78571
2011.46859	13021.78571
2014.51848	12972.35714
2017.56639	12952.92857
2020.61233	12905.78571
2023.6563	12897.21429
2026.6983	12844.21429
2029.73833	12840.64286
2032.7764	12846.35714
2035.8125	12793.64286
2038.84664	12764.5
2041.87881	12727.35714
2044.90903	12709.64286
2047.93729	12679.07143
2050.96359	12704.78571
2053.98794	12696.78571
2057.01034	12678.07143
2060.03078	12656.07143
2063.04927	12663.64286
2066.06582	12650.21429
2069.08042	12620.35714
2072.09307	12626.35714
2075.10378	12625.21429
2078.11255	12622.07143
2081.11938	12593.35714
2084.12426	12603.21429
2087.12722	12624.64286
2090.12824	12600.21429
2093.12732	12597.5
2096.12447	12603.64286
2099.11969	12592.64286
2102.11299	12583.78571
2105.10435	12592.21429
2108.09379	12606.64286
2111.08131	12610.35714
2114.0669	12611.5
2117.05057	12597.92857
2120.03233	12655.35714
2123.01216	12676.64286
2125.99008	12714.78571
2128.96609	12704.64286
2131.94018	12725.35714
2134.91236	12719.5
2137.88263	12677.07143
2140.851	12736.92857
2143.81746	12733.07143
2146.78201	12736.64286
2149.74466	12744.64286
2152.7054	12756.92857
2155.66425	12735.35714
2158.6212	12734.21429
2161.57625	12729.21429
2164.52941	12727.07143
2167.48067	12673.35714
2170.43004	12691.64286
2173.37752	12695.07143
2176.32311	12708.92857
2179.26681	12701.07143
2182.20863	12722.5
2185.14856	12711.64286
2188.08661	12676.64286
2191.02278	12702.35714
2193.95707	12713.5
2196.88948	12681.07143
2199.82001	12698.92857
2202.74867	12690.78571
2205.67545	12671.92857
2208.60037	12632.07143
2211.52341	12605.5
2214.44458	12621.35714
2217.36388	12639.92857
2220.28132	12586.78571
2223.1969	12560.07143
2226.11061	12547.21429
2229.02246	12497.35714
2231.93245	12491.5
2234.84058	12432.35714
2237.74686	12451.78571
2240.65128	12479.07143
2243.55385	12460.07143
2246.45456	12406.21429
2249.35343	12388.64286
2252.25044	12384.07143
2255.14561	12404.35714
2258.03893	12379.5
2260.93041	12360.35714
2263.82004	12315.5
2266.70783	12327.78571
2269.59378	12252.64286
2272.4779	12246.35714
2275.36017	12223.78571
2278.24061	12220.35714
2281.11922	12163.64286
2283.996	12146.21429
2286.87094	12124.64286
2289.74405	12141.07143
2292.61534	12093.92857
2295.4848	12104.35714
2298.35243	12087.5
2301.21824	12094.21429
2304.08223	12094.78571
2306.94439	12085.78571
2309.80474	12069.78571
2312.66327	12065.92857
2315.51999	12056.78571
2318.37489	12043.35714
2321.22797	12046.5
2324.07925	12041.64286
2326.92871	12014.35714
2329.77637	12000.5
2332.62222	11961.07143
2335.46626	11955.78571
2338.3085	11941.21429
2341.14893	11943.21429
2343.98756	11952.21429
2346.8244	11956.78571
2349.65943	11931.78571
2352.49267	11942.21429
2355.32411	11954.35714
2358.15376	11919.78571
2360.98161	11922.92857
2363.80768	11909.07143
2366.63195	11923.5
2369.45444	11866.78571
2372.27514	11870.64286
2375.09405	11865.78571
2377.91118	11841.64286
2380.72652	11808.5
2383.54009	11762.92857
2386.35187	11747.78571
2389.16188	11722.92857
2391.97011	11721.07143
2394.77657	11674.5
2397.58125	11674.78571
2400.38416	11661.07143
2403.18529	11685.07143
2405.98466	11650.64286
2408.78226	11622.07143
2411.57809	11578.78571
2414.37216	11561.5
2417.16446	11558.64286
2419.955	11546.07143
2422.74378	11525.35714
2425.5308	11538.21429
2428.31606	11506.78571
2431.09956	11524.35714
2433.88131	11465.5
2436.6613	11518.92857
2439.43954	11501.5
2442.21603	11496.92857
2444.99077	11490.64286
2447.76377	11470.78571
2450.53501	11439.21429
2453.30451	11471.78571
2456.07226	11469.78571
2458.83827	11445.64286
2461.60254	11419.64286
2464.36507	11410.78571
2467.12586	11403.21429
2469.88492	11391.5
2472.64224	11395.78571
2475.39782	11396.92857
2478.15167	11386.07143
2480.90379	11388.21429
2483.65417	11428.21429
2486.40283	11425.5
2489.14976	11429.21429
2491.89497	11430.21429
2494.63845	11427.5
2497.3802	11444.35714
2500.12024	11420.21429
2502.85855	11386.92857
2505.59514	11346.78571
2508.33002	11332.78571
2511.06318	11325.35714
2513.79462	11327.07143
2516.52435	11309.07143
2519.25237	11256.21429
2521.97867	11278.92857
2524.70327	11268.21429
2527.42616	11241.21429
2530.14734	11244.78571
2532.86681	11226.5
2535.58458	11219.64286
2538.30065	11219.78571
2541.01501	11227.64286
2543.72768	11183.21429
2546.43864	11164.07143
2549.14791	11171.5
2551.85548	11183.35714
2554.56136	11135.92857
2557.26554	11117.92857
2559.96803	11104.92857
2562.66883	11085.35714
2565.36794	11025.5
2568.06536	11043.92857
2570.7611	11037.07143
2573.45514	11008.21429
2576.14751	11004.07143
2578.83819	10978.07143
2581.52719	10969.5
2584.21451	10984.21429
2586.90015	10963.78571
2589.58411	10958.21429
2592.2664	10940.07143
2594.94701	10909.92857
2597.62594	10911.64286
2600.30321	10856.21429
2602.9788	10862.64286
2605.65273	10836.5
2608.32498	10840.78571
2610.99557	10849.64286
2613.66449	10839.21429
2616.33175	10849.92857
2618.99734	10872.35714
2621.66128	10813.92857
2624.32355	10825.78571
2626.98416	10812.5
2629.64311	10770.5
2632.30041	10786.35714
2634.95605	10766.21429
2637.61004	10741.64286
2640.26238	10751.92857
2642.91306	10729.5
2645.56209	10734.21429
2648.20948	10737.35714
2650.85521	10707.78571
2653.4993	10722.64286
2656.14175	10709.64286
2658.78255	10714.78571
2661.42171	10719.64286
2664.05923	10717.35714
2666.6951	10718.5
2669.32934	10731.92857
2671.96194	10747.5
2674.59291	10748.92857
2677.22224	10743.92857
2679.84993	10757.35714
2682.476	10712.21429
2685.10043	10744.21429
2687.72324	10705.21429
2690.34441	10718.07143
2692.96396	10724.35714
2695.58188	10744.92857
2698.19818	10721.92857
2700.81285	10748.35714
2703.4259	10715.35714
2706.03733	10708.07143
2708.64714	10737.35714
2711.25533	10736.5
2713.86191	10744.5
2716.46687	10740.92857
2719.07021	10727.5
2721.67194	10736.78571
2724.27206	10745.5
2726.87057	10726.35714
2729.46747	10754.35714
2732.06276	10736.64286
2734.65644	10717.78571
2737.24852	10714.21429
2739.83899	10702.35714
2742.42786	10729.78571
2745.01513	10720.5
2747.60079	10675.07143
2750.18486	10705.78571
2752.76733	10658.35714
2755.3482	10653.35714
2757.92747	10706.07143
2760.50515	10657.35714
2763.08123	10669.07143
2765.65573	10621.07143
2768.22863	10612.64286
2770.79994	10610.35714
2773.36967	10613.07143
2775.9378	10612.64286
2778.50435	10608.35714
2781.06932	10581.64286
2783.6327	10607.5
2786.1945	10569.21429
2788.75471	10562.64286
2791.31335	10515.5
2793.87041	10520.92857
2796.42589	10514.21429
2798.97979	10524.78571
2801.53212	10513.21429
2804.08288	10500.21429
2806.63206	10426.5
2809.17967	10433.64286
2811.72571	10399.78571
2814.27018	10425.5
2816.81308	10384.78571
2819.35442	10401.5
2821.89419	10396.78571
2824.43239	10376.92857
2826.96904	10382.5
2829.50412	10386.92857
2832.03763	10339.92857
2834.56959	10369.21429
2837.1	10349.5
2839.62884	10325.64286
2842.15613	10310.64286
2844.68186	10325.64286
2847.20604	10321.78571
2849.72867	10295.64286
2852.24974	10307.5
2854.76927	10289.5
2857.28724	10293.92857
2859.80367	10269.07143
2862.31855	10256.5
2864.83189	10239.07143
2867.34368	10243.21429
2869.85393	10253.78571
2872.36264	10230.64286
2874.8698	10224.78571
2877.37543	10227.21429
2879.87952	10247.07143
2882.38207	10269.64286
2884.88308	10244.07143
2887.38256	10273.78571
2889.88051	10271.78571
2892.37692	10279.07143
2894.8718	10299.07143
2897.36515	10333.21429
2899.85698	10339.92857
2902.34727	10375.64286
2904.83604	10357.92857
2907.32328	10367.78571
2909.809	10405.35714
2912.29319	10431.21429
2914.77587	10438.92857
2917.25702	10464.35714
2919.73665	10425.35714
2922.21476	10429.64286
2924.69136	10451.21429
2927.16644	10445.35714
2929.64	10429.78571
2932.11205	10438.5
2934.58258	10398.92857
2937.05161	10427.07143
2939.51912	10416.35714
2941.98513	10429.5
2944.44962	10404.07143
2946.91261	10354.92857
2949.37409	10385.92857
2951.83407	10348.35714
2954.29254	10344.35714
2956.74951	10317.35714
2959.20498	10347.07143
2961.65895	10288.35714
2964.11142	10278.78571
2966.56239	10288.64286
2969.01186	10241.92857
2971.45984	10204.64286
2973.90632	10207.07143
2976.35131	10171.92857
2978.7948	10173.92857
2981.23681	10128.92857
2983.67732	10125.78571
2986.11635	10105.5
2988.55388	10087.07143
2990.98993	10047.21429
2993.4245	10016.64286
2995.85758	10012.07143
2998.28917	9990.35714
3000.71928	9995.35714
3003.14791	9993.78571
3005.57506	9944.92857
3008.00073	9935.92857
3010.42493	9940.78571
3012.84764	9912.5
3015.26888	9902.64286
3017.68865	9886.92857
3020.10694	9874.35714
3022.52376	9887.92857
3024.9391	9874.21429
3027.35298	9837.07143
3029.76539	9820.78571
3032.17632	9830.64286
3034.5858	9778.35714
3036.9938	9788.35714
3039.40034	9791.64286
3041.80542	9818.07143
3044.20903	9774.21429
3046.61118	9760.92857
3049.01187	9745.21429
3051.4111	9744.35714
3053.80888	9701.5
3056.20519	9705.5
3058.60005	9662.5
3060.99345	9662.78571
3063.3854	9627.5
3065.7759	9606.92857
3068.16494	9606.64286
3070.55254	9565.21429
3072.93868	9535.21429
3075.32338	9534.21429
3077.70662	9538.92857
3080.08842	9497.21429
3082.46878	9483.07143
3084.84769	9486.07143
3087.22515	9494.35714
3089.60118	9502.5
3091.97576	9504.35714
3094.3489	9525.92857
3096.72061	9540.5
3099.09087	9537.78571
3101.4597	9505.21429
3103.82709	9518.21429
3106.19305	9516.78571
3108.55757	9536.64286
3110.92066	9495.78571
3113.28232	9483.92857
3115.64255	9459.78571
3118.00134	9479.5
3120.35871	9440.5
3122.71466	9440.07143
3125.06917	9439.5
3127.42226	9422.21429
3129.77393	9441.21429
3132.12417	9413.21429
3134.47299	9427.92857
3136.82039	9424.21429
3139.16636	9425.92857
3141.51092	9436.64286
3143.85406	9442.64286
3146.19579	9464.92857
3148.53609	9422.21429
3150.87499	9451.78571
3153.21246	9485.5
3155.54853	9483.64286
3157.88318	9499.21429
3160.21642	9509.92857
3162.54826	9528.21429
3164.87868	9540.21429
3167.2077	9506.35714
3169.5353	9540.21429
3171.86151	9536.78571
3174.18631	9538.07143
3176.5097	9537.64286
3178.83169	9528.07143
3181.15228	9532.35714
3183.47147	9497.07143
3185.78926	9487.92857
3188.10565	9470.78571
3190.42065	9455.78571
3192.73424	9479.07143
3195.04645	9495.21429
3197.35725	9472.64286
3199.66667	9475.5
3201.97469	9511.64286
3204.28132	9500.92857
3206.58656	9522.21429
3208.8904	9542.35714
3211.19287	9555.07143
3213.49394	9564.07143
3215.79363	9578.35714
3218.09193	9586.92857
3220.38884	9561.21429
3222.68438	9568.78571
3224.97853	9587.92857
3227.2713	9555.5
3229.56269	9533.64286
3231.8527	9561.21429
3234.14133	9514.35714
3236.42858	9513.07143
3238.71446	9504.78571
3240.99896	9509.92857
3243.28209	9482.21429
3245.56384	9479.92857
3247.84423	9482.07143
3250.12324	9457.5
3252.40088	9421.64286
3254.67715	9465.92857
3256.95205	9481.21429
3259.22558	9460.78571
3261.49775	9461.5
3263.76855	9418.78571
3266.03799	9457.5
3268.30606	9428.21429
3270.57277	9433.92857
3272.83812	9386.5
3275.10211	9361.21429
3277.36474	9354.78571
3279.62601	9368.07143
3281.88593	9348.92857
3284.14448	9354.92857
3286.40168	9330.64286
3288.65753	9357.07143
3290.91202	9363.78571
3293.16516	9319.78571
3295.41695	9312.5
3297.66738	9267.78571
3299.91647	9247.78571
3302.16421	9173.5
3304.4106	9117.5
3306.65564	9065.92857
3308.89933	9011.21429
3311.14169	8958.78571
3313.38269	8891.78571
3315.62236	8883.64286
3317.86068	8783.78571
3320.09766	8723.07143
3322.3333	8635.35714
3324.5676	8606.21429
3326.80056	8512.64286
3329.03219	8474.07143
3331.26248	1.07143
3333.49143	-0.07143
3335.71905	0.07143
