Data from AgNPs_FTO_APTES_UA_20uM_CRN_5uM_R6G_10uM_NaF_0.1M_Addition_RamanShift__7__13-40-02-139.txt Node

Date: Thu Feb 17 13:40:02 GMT 2022
User: TCL
Spectrometer: QEP01345
Trigger mode: 4
Integration Time (sec): 7.000000E0
Scans to average: 10
Electric dark correction enabled: true
Nonlinearity correction enabled: false
Boxcar width: 0
XAxis mode: Raman Shifts
Number of Pixels in Spectrum: 1044
>>>>>Begin Spectral Data<<<<<
46.04893	-0.3
50.45542	-1.6
54.85868	-3.5
59.25871	-1.2
63.6555	133.7
68.04907	129.8
72.43941	134.5
76.82654	141.2
81.21044	147.9
85.59113	148.7
89.96862	150.7
94.34289	155.5
98.71396	160.7
103.08183	166.3
107.4465	170.7
111.80798	177.6
116.16626	184.5
120.52136	193.5
124.87327	198.8
129.222	213.9
133.56755	227.9
137.90993	245
142.24913	276.2
146.58517	312.6
150.91804	369.6
155.24774	439.5
159.57429	557.1
163.89768	723.8
168.21792	963.8
172.53501	1328.8
176.84895	1871.2
181.15975	2636.8
185.46741	3721.5
189.77193	5158.6
194.07331	6943.7
198.37157	8952.5
202.6667	11137.1
206.9587	13262.2
211.24758	15306.2
215.53334	17404.9
219.81599	19528.6
224.09553	21951.7
228.37195	24567.1
232.64527	27428.6
236.91549	30530.1
241.18261	33679.3
245.44663	36727.9
249.70755	39487.8
253.96539	41905.6
258.22014	44018.2
262.4718	45616.6
266.72039	46795.9
270.96589	47406.9
275.20832	47539.4
279.44768	47390.5
283.68397	47023.3
287.91719	46665
292.14735	46444
296.37445	46382.3
300.59849	46438.5
304.81948	46578.1
309.03742	46639.8
313.25231	46412.9
317.46415	45970.1
321.67296	45391.3
325.87872	44863.2
330.08145	44641.3
334.28114	44721.5
338.47781	45029.5
342.67145	45548
346.86207	46218.4
351.04966	46938.3
355.23424	47620.3
359.4158	48167.1
363.59435	48653.9
367.76989	49035.9
371.94243	49348
376.11196	49558.6
380.27849	49860.9
384.44203	50127
388.60257	50593.2
392.76012	51057
396.91468	51686.3
401.06626	52298.7
405.21485	52746.7
409.36047	52835.6
413.50311	52419
417.64277	52209.1
421.77947	52339.8
425.9132	52581.5
430.04396	52959.7
434.17176	53240.5
438.2966	53588.9
442.41849	54276.9
446.53742	55288.1
450.6534	56434.2
454.76644	57279.6
458.87653	57691.8
462.98368	57703.7
467.08789	57404.8
471.18916	56905.6
475.2875	56404.4
479.38291	56123.2
483.4754	55906.9
487.56496	55575.7
491.6516	55131.7
495.73531	54659.2
499.81612	54306.3
503.89401	54500.2
507.96899	54728.9
512.04106	54753.9
516.11023	54655.2
520.1765	54411.9
524.23987	54282
528.30034	54038.8
532.35792	53833.1
536.41261	53527.1
540.46441	53257.1
544.51333	53242.3
548.55936	53688.4
552.60252	54528.6
556.64279	55504.8
560.6802	56238.7
564.71473	56694.3
568.7464	57451
572.7752	58726.2
576.80114	60241.3
580.82422	61830.8
584.84444	63191.1
588.86181	64749.7
592.87633	66138
596.888	65856.4
600.89682	64133.7
604.9028	63657.7
608.90594	65850.7
612.90624	68182.6
616.90371	65019.9
620.89834	58731.7
624.89015	56060.2
628.87913	55877.3
632.86528	56352
636.84862	56445
640.82913	55951.2
644.80683	55059
648.78172	54464.7
652.75379	54411.8
656.72306	54873.7
660.68952	55505.1
664.65319	55429.1
668.61405	54890.9
672.57211	54979.1
676.52738	55225.5
680.47986	55192.3
684.42955	55003.2
688.37646	54902.6
692.32058	55179.9
696.26192	55735
700.20048	56274.5
704.13626	56800
708.06928	56937.6
711.99952	56800.3
715.927	56664.5
719.85171	56716.4
723.77365	56597.8
727.69284	56200.7
731.60928	55725.1
735.52295	55477.8
739.43388	55523.1
743.34206	55727.2
747.24749	56034.7
751.15017	56380
755.05012	57006.9
758.94733	58029.7
762.8418	59841.4
766.73354	62647.8
770.62254	65077.8
774.50882	65303.8
778.39237	63296.3
782.27321	60643.4
786.15132	58425.1
790.02671	57101.2
793.89938	56328.6
797.76935	55927.3
801.6366	55795.8
805.50115	55623
809.36299	55536.9
813.22213	55419.6
817.07857	55388.1
820.93231	55353.8
824.78336	55321.8
828.63172	55175.5
832.47738	55103.2
836.32036	55077.3
840.16066	55125.9
843.99827	55220.3
847.8332	55325.5
851.66546	55429.6
855.49504	55520.8
859.32195	55578.5
863.1462	55618.7
866.96777	55605.2
870.78668	55574.4
874.60293	55612.3
878.41652	55680.9
882.22745	55839.5
886.03573	55851.1
889.84136	55885.7
893.64433	55737.3
897.44466	55626.7
901.24235	55509.7
905.0374	55532
908.8298	55416.1
912.61957	55494.1
916.40671	55853.9
920.19121	56417.2
923.97308	56767.7
927.75233	56665.5
931.52895	56248
935.30295	55664.6
939.07433	55166.9
942.84309	54721.8
946.60924	54516.7
950.37278	54514.4
954.13371	54614.6
957.89203	54647.8
961.64774	54611.9
965.40086	54534.3
969.15137	54534.4
972.89929	54351.7
976.64461	54276.4
980.38733	54306.3
984.12747	54357.6
987.86502	54598.4
991.59999	54895.1
995.33237	55167.4
999.06217	55743.8
1002.78939	56539
1006.51404	57358.6
1010.23611	58195
1013.95561	58669.3
1017.67255	58779.3
1021.38692	58457.4
1025.09872	57840.7
1028.80796	57235.7
1032.51465	57112.2
1036.21877	57157.3
1039.92035	57286.5
1043.61937	57406.6
1047.31584	57426.9
1051.00976	57438.4
1054.70114	57593
1058.38998	57872
1062.07627	58316.5
1065.76003	58917.5
1069.44126	59579.7
1073.11995	60361.5
1076.79611	60998.8
1080.46974	61339.7
1084.14085	61670.5
1087.80943	62017
1091.47549	62334.1
1095.13903	62478.8
1098.80005	62047
1102.45857	61142.8
1106.11456	60417.4
1109.76805	59949.3
1113.41903	59808.6
1117.06751	59938.5
1120.71348	60284.2
1124.35696	60644.2
1127.99793	60966.9
1131.63641	61120
1135.2724	61004.6
1138.90589	60974.5
1142.5369	61124.2
1146.16542	61328.3
1149.79145	61756.4
1153.415	62117.9
1157.03607	62572
1160.65467	63526.3
1164.27079	65126.6
1167.88443	67105.1
1171.49561	69549.1
1175.10432	72422.5
1178.71056	75950.4
1182.31434	79268.8
1185.91565	81072.4
1189.51451	81139.4
1193.11091	80198.4
1196.70485	78659.5
1200.29634	76818.6
1203.88538	75529.3
1207.47197	74774.9
1211.05612	74134.1
1214.63782	73280
1218.21708	71890.7
1221.79391	70511.1
1225.36829	69492.9
1228.94024	68898.5
1232.50976	68279.7
1236.07685	67634.3
1239.6415	67259.5
1243.20374	67168.8
1246.76355	67578.1
1250.32093	68253.6
1253.8759	69198.3
1257.42845	70503.4
1260.97859	71897.2
1264.52631	73376
1268.07163	74817.9
1271.61453	76053.5
1275.15503	77277.9
1278.69312	78601.2
1282.22882	80095.4
1285.76211	81948.6
1289.29301	84129.7
1292.82151	86801.9
1296.34761	89995.9
1299.87133	93606.1
1303.39266	97333.6
1306.9116	100777.6
1310.42815	103412.9
1313.94233	104700.6
1317.45412	104329.8
1320.96354	103110.7
1324.47058	102026.6
1327.97525	101296.1
1331.47754	100615.8
1334.97747	100103.4
1338.47502	99871.3
1341.97022	99890.9
1345.46305	100018.2
1348.95352	99912
1352.44163	99441.8
1355.92738	99925.1
1359.41078	101230
1362.89183	102564.4
1366.37053	101054.5
1369.84688	95628.6
1373.32088	88696.9
1376.79254	83628.9
1380.26186	81670.2
1383.72883	81651.9
1387.19347	81807.5
1390.65578	81437.5
1394.11575	80959.7
1397.57339	80961.6
1401.0287	81361.2
1404.48168	81630.9
1407.93234	81260
1411.38068	80184
1414.82669	78489.3
1418.27039	76447.8
1421.71177	74418.8
1425.15083	72806.8
1428.58758	72153.2
1432.02203	72621.8
1435.45416	73918.4
1438.88399	75455.6
1442.31151	76581.2
1445.73673	77379.1
1449.15965	77776.1
1452.58027	77983
1455.9986	78053.8
1459.41463	78494
1462.82837	79304.5
1466.23982	80441.7
1469.64898	81448.1
1473.05586	82117.6
1476.46045	82374.7
1479.86276	82113.6
1483.26279	81607.4
1486.66054	81293.5
1490.05602	81636.8
1493.44922	82362.1
1496.84016	83252.2
1500.22882	84636.5
1503.61521	86560.2
1506.99934	88732.9
1510.38121	90122.2
1513.76081	89956.5
1517.13816	88565.1
1520.51324	86747.6
1523.88607	85630.1
1527.25665	85531.5
1530.62498	85870.3
1533.99105	85841.6
1537.35488	85081.5
1540.71647	83598
1544.07581	82022.3
1547.4329	80360.4
1550.78776	78905.8
1554.14038	77835.2
1557.49077	77176.8
1560.83892	76807.7
1564.18484	76645.1
1567.52853	76744.6
1570.86999	77238.7
1574.20922	78020.5
1577.54624	78836.4
1580.88103	78757.8
1584.2136	78986.3
1587.54395	80442.7
1590.87208	83031.6
1594.19801	86395.8
1597.52172	89665
1600.84321	90439.5
1604.16251	87749.3
1607.47959	83438.7
1610.79447	78846.1
1614.10715	74347.1
1617.41763	70523.1
1620.7259	67714.7
1624.03199	66176.8
1627.33587	65844.6
1630.63757	66887.4
1633.93707	69589.9
1637.23439	74349.8
1640.52951	81494.8
1643.82246	89828
1647.11321	96518.8
1650.40179	97419.5
1653.68819	92118.8
1656.97241	82995.9
1660.25446	74091.9
1663.53433	67416.4
1666.81203	63056.8
1670.08756	60240.1
1673.36092	58589.6
1676.63211	57409.4
1679.90115	56559.2
1683.16801	55844.7
1686.43272	55427.2
1689.69527	55090.7
1692.95567	54803.3
1696.2139	54723.9
1699.46999	54571.9
1702.72392	54470.6
1705.97571	54388.1
1709.22535	54225.1
1712.47284	54223.7
1715.71819	54238
1718.96139	54114.5
1722.20246	53955.4
1725.44139	53831.7
1728.67818	53594.9
1731.91284	53366.8
1735.14537	53158
1738.37576	52991.8
1741.60403	52847.4
1744.83017	52687.2
1748.05418	52573.9
1751.27607	52489.3
1754.49584	52424.8
1757.71349	52452.4
1760.92903	52379.6
1764.14244	52365.8
1767.35375	52253.6
1770.56294	52192.9
1773.77002	52170
1776.97499	52165.6
1780.17785	52064
1783.37861	51964
1786.57727	51913.2
1789.77382	51783.5
1792.96828	51823.5
1796.16064	51713.7
1799.3509	51633
1802.53907	51575.6
1805.72514	51394.6
1808.90913	51288.7
1812.09102	51232.3
1815.27083	51210.4
1818.44856	51098.5
1821.6242	51060.4
1824.79776	50986.3
1827.96924	50935.3
1831.13864	50959
1834.30597	50889.2
1837.47122	50855.4
1840.6344	50843.1
1843.7955	50877.5
1846.95454	50772.6
1850.11151	50764.4
1853.26642	50723.1
1856.41926	50710.8
1859.57004	50644.2
1862.71876	50552.1
1865.86542	50562.9
1869.01003	50476
1872.15258	50363.1
1875.29308	50354.2
1878.43152	50278.7
1881.56792	50268.5
1884.70227	50234.4
1887.83457	50258.9
1890.96482	50187.6
1894.09304	50140.4
1897.21921	50108.3
1900.34335	50024.3
1903.46544	49940.7
1906.58551	49909.3
1909.70353	49909
1912.81953	49799.4
1915.93349	49765.5
1919.04543	49614.6
1922.15534	49589.4
1925.26322	49540.2
1928.36908	49487.3
1931.47292	49400.6
1934.57473	49221.1
1937.67453	49086.3
1940.77232	49014.7
1943.86808	48936.7
1946.96184	48782.4
1950.05358	48693.7
1953.14331	48555.5
1956.23103	48429.7
1959.31675	48296.9
1962.40046	48160.3
1965.48217	47965.9
1968.56188	47825.2
1971.63959	47691
1974.7153	47606.1
1977.78901	47445.3
1980.86073	47329.4
1983.93046	47287.1
1986.99819	47108.6
1990.06394	46980.6
1993.1277	46937.1
1996.18947	46692.8
1999.24925	46582.3
2002.30706	46516.2
2005.36288	46348.4
2008.41672	46219
2011.46859	46082.5
2014.51848	45976
2017.56639	45847.4
2020.61233	45692.8
2023.6563	45579.4
2026.6983	45475.9
2029.73833	45392
2032.7764	45328.9
2035.8125	45180.5
2038.84664	45166.3
2041.87881	45073.1
2044.90903	45106.5
2047.93729	45035.5
2050.96359	44957
2053.98794	44840
2057.01034	44854.6
2060.03078	44844.4
2063.04927	44771.2
2066.06582	44740.7
2069.08042	44713.1
2072.09307	44689
2075.10378	44613.8
2078.11255	44618.6
2081.11938	44628.3
2084.12426	44595.4
2087.12722	44579.3
2090.12824	44535.6
2093.12732	44576.5
2096.12447	44571.7
2099.11969	44524.9
2102.11299	44553.7
2105.10435	44635.8
2108.09379	44555.6
2111.08131	44618.8
2114.0669	44623.4
2117.05057	44675.9
2120.03233	44722
2123.01216	44808.1
2125.99008	44856
2128.96609	44926
2131.94018	44943
2134.91236	44982.5
2137.88263	44976.3
2140.851	44988.5
2143.81746	44996.3
2146.78201	45023.2
2149.74466	45048.7
2152.7054	45045.8
2155.66425	45056.2
2158.6212	45039.4
2161.57625	45038.9
2164.52941	44960.4
2167.48067	45020.7
2170.43004	44983.2
2173.37752	44957.9
2176.32311	44960.4
2179.26681	44966
2182.20863	44950
2185.14856	44996.4
2188.08661	45032.7
2191.02278	44943.2
2193.95707	44867.7
2196.88948	44841.9
2199.82001	44863.3
2202.74867	44740.2
2205.67545	44684.8
2208.60037	44642
2211.52341	44650.9
2214.44458	44622.7
2217.36388	44525.6
2220.28132	44409.5
2223.1969	44392.9
2226.11061	44217.8
2229.02246	44054.7
2231.93245	44067.9
2234.84058	44014.2
2237.74686	43931.7
2240.65128	43926.2
2243.55385	43881.1
2246.45456	43815.4
2249.35343	43817
2252.25044	43755.1
2255.14561	43649
2258.03893	43625.1
2260.93041	43480.6
2263.82004	43398.5
2266.70783	43289.4
2269.59378	43181.3
2272.4779	43143.4
2275.36017	43030.8
2278.24061	42984.1
2281.11922	42936.4
2283.996	42793.2
2286.87094	42819.8
2289.74405	42775.7
2292.61534	42686.7
2295.4848	42594.2
2298.35243	42604.7
2301.21824	42574.3
2304.08223	42572.2
2306.94439	42518.6
2309.80474	42586.2
2312.66327	42568.4
2315.51999	42430.8
2318.37489	42408
2321.22797	42380.7
2324.07925	42341.1
2326.92871	42202.3
2329.77637	42137
2332.62222	42092.8
2335.46626	42049.9
2338.3085	42022.2
2341.14893	41980.2
2343.98756	41946.6
2346.8244	41935.4
2349.65943	41947.8
2352.49267	41898.4
2355.32411	41854.8
2358.15376	41790.2
2360.98161	41838.5
2363.80768	41780.2
2366.63195	41797.2
2369.45444	41795.2
2372.27514	41692.6
2375.09405	41706.7
2377.91118	41585.6
2380.72652	41437.5
2383.54009	41427.1
2386.35187	41318.8
2389.16188	41172.3
2391.97011	41129.7
2394.77657	41063
2397.58125	40984.7
2400.38416	40943.6
2403.18529	40843.9
2405.98466	40844.8
2408.78226	40790.8
2411.57809	40757.3
2414.37216	40734.4
2417.16446	40674.5
2419.955	40649.5
2422.74378	40652.2
2425.5308	40530.7
2428.31606	40588.7
2431.09956	40539
2433.88131	40470.6
2436.6613	40475.7
2439.43954	40476.5
2442.21603	40438
2444.99077	40347.2
2447.76377	40371.5
2450.53501	40299.3
2453.30451	40276.5
2456.07226	40218.1
2458.83827	40212.3
2461.60254	40149.9
2464.36507	40195.2
2467.12586	40152.7
2469.88492	40094.2
2472.64224	40078.5
2475.39782	40057.9
2478.15167	40052.6
2480.90379	40059.2
2483.65417	40175.1
2486.40283	40089.6
2489.14976	40064.9
2491.89497	40006.8
2494.63845	40020.5
2497.3802	39951.1
2500.12024	39901.5
2502.85855	39902.3
2505.59514	39880.5
2508.33002	39777
2511.06318	39762.4
2513.79462	39710.4
2516.52435	39730.1
2519.25237	39674.4
2521.97867	39663.1
2524.70327	39650.4
2527.42616	39595.5
2530.14734	39597.6
2532.86681	39481
2535.58458	39467.2
2538.30065	39401.4
2541.01501	39431.7
2543.72768	39364.4
2546.43864	39333.4
2549.14791	39280.7
2551.85548	39216.8
2554.56136	39093.9
2557.26554	39044.8
2559.96803	38953.4
2562.66883	38884.3
2565.36794	38916.4
2568.06536	38852.4
2570.7611	38738.3
2573.45514	38692.1
2576.14751	38653.8
2578.83819	38575.5
2581.52719	38552.9
2584.21451	38497.2
2586.90015	38462.2
2589.58411	38350.8
2592.2664	38362.5
2594.94701	38303.7
2597.62594	38290.3
2600.30321	38246.8
2602.9788	38237.1
2605.65273	38183.3
2608.32498	38152.8
2610.99557	38094.8
2613.66449	38104.9
2616.33175	38041.9
2618.99734	37973.3
2621.66128	37904.8
2624.32355	37893.7
2626.98416	37835.9
2629.64311	37771.6
2632.30041	37786.3
2634.95605	37761.8
2637.61004	37651.9
2640.26238	37659.5
2642.91306	37638.2
2645.56209	37494.4
2648.20948	37562.4
2650.85521	37554.7
2653.4993	37539.7
2656.14175	37556.7
2658.78255	37582.6
2661.42171	37571
2664.05923	37610.4
2666.6951	37551.6
2669.32934	37599
2671.96194	37550.3
2674.59291	37653.2
2677.22224	37664.6
2679.84993	37645.1
2682.476	37568.9
2685.10043	37519.6
2687.72324	37497.3
2690.34441	37465
2692.96396	37503.2
2695.58188	37521.5
2698.19818	37466.2
2700.81285	37468.3
2703.4259	37454.3
2706.03733	37505.1
2708.64714	37471.7
2711.25533	37484.9
2713.86191	37500.2
2716.46687	37564.7
2719.07021	37532.2
2721.67194	37550.3
2724.27206	37520.7
2726.87057	37571.4
2729.46747	37543
2732.06276	37509.1
2734.65644	37521.2
2737.24852	37528.4
2739.83899	37470.6
2742.42786	37553
2745.01513	37472.4
2747.60079	37412.8
2750.18486	37370.3
2752.76733	37355.6
2755.3482	37285.4
2757.92747	37205.2
2760.50515	37172.8
2763.08123	37141.2
2765.65573	37177
2768.22863	37167.6
2770.79994	37053.5
2773.36967	37063
2775.9378	37055.1
2778.50435	37078.4
2781.06932	37016.9
2783.6327	36953
2786.1945	36852.7
2788.75471	36838.5
2791.31335	36745
2793.87041	36706.1
2796.42589	36627.3
2798.97979	36588.8
2801.53212	36522
2804.08288	36453.8
2806.63206	36377.4
2809.17967	36317.7
2811.72571	36121.1
2814.27018	36026.8
2816.81308	35949.9
2819.35442	35815.6
2821.89419	35824
2824.43239	35795.3
2826.96904	35804.3
2829.50412	35718.6
2832.03763	35649
2834.56959	35617.8
2837.1	35514.7
2839.62884	35464.4
2842.15613	35428
2844.68186	35455.7
2847.20604	35408.2
2849.72867	35404.3
2852.24974	35341
2854.76927	35265.7
2857.28724	35267.7
2859.80367	35262.1
2862.31855	35229.4
2864.83189	35101.7
2867.34368	35038.6
2869.85393	35078.8
2872.36264	35001.5
2874.8698	34964.5
2877.37543	34923
2879.87952	34869
2882.38207	34908.2
2884.88308	34841.1
2887.38256	34861.7
2889.88051	34845.3
2892.37692	34884.6
2894.8718	34862.6
2897.36515	34942.9
2899.85698	34857.4
2902.34727	34880.5
2904.83604	34838.3
2907.32328	34925.3
2909.809	34908
2912.29319	34958.5
2914.77587	34940.5
2917.25702	34954.4
2919.73665	34895.1
2922.21476	34875.7
2924.69136	34807
2927.16644	34861.6
2929.64	34754.8
2932.11205	34753.4
2934.58258	34658.8
2937.05161	34785.7
2939.51912	34748.5
2941.98513	34720.4
2944.44962	34657.7
2946.91261	34587.6
2949.37409	34665
2951.83407	34596.3
2954.29254	34528.3
2956.74951	34535
2959.20498	34592.3
2961.65895	34520.3
2964.11142	34585.3
2966.56239	34509.2
2969.01186	34457.4
2971.45984	34369.7
2973.90632	34309.6
2976.35131	34294.7
2978.7948	34218
2981.23681	34179.3
2983.67732	34105.3
2986.11635	34065.9
2988.55388	34011.7
2990.98993	33932.7
2993.4245	33866.9
2995.85758	33807.2
2998.28917	33641.3
3000.71928	33621.9
3003.14791	33556
3005.57506	33530.8
3008.00073	33403.9
3010.42493	33395
3012.84764	33247.1
3015.26888	33272.7
3017.68865	33201.7
3020.10694	33189.6
3022.52376	33068.6
3024.9391	33067.4
3027.35298	33051.4
3029.76539	33038.4
3032.17632	32979.6
3034.5858	32942.1
3036.9938	32865.1
3039.40034	32841.8
3041.80542	32819.8
3044.20903	32722.2
3046.61118	32689.3
3049.01187	32563.3
3051.4111	32511.7
3053.80888	32409.4
3056.20519	32380.2
3058.60005	32307
3060.99345	32277.8
3063.3854	32199.1
3065.7759	32049
3068.16494	31996
3070.55254	31883.5
3072.93868	31820.4
3075.32338	31708.5
3077.70662	31638.4
3080.08842	31578.2
3082.46878	31517.3
3084.84769	31492
3087.22515	31440.7
3089.60118	31421.4
3091.97576	31380.5
3094.3489	31349.7
3096.72061	31327.7
3099.09087	31374.7
3101.4597	31377.7
3103.82709	31381.5
3106.19305	31284.3
3108.55757	31265.8
3110.92066	31231.8
3113.28232	31214.5
3115.64255	31058.7
3118.00134	30913
3120.35871	30888.3
3122.71466	30762.8
3125.06917	30711
3127.42226	30727.6
3129.77393	30714.3
3132.12417	30598.9
3134.47299	30603.6
3136.82039	30558
3139.16636	30520
3141.51092	30496
3143.85406	30476.1
3146.19579	30444.5
3148.53609	30472.9
3150.87499	30527.1
3153.21246	30521.7
3155.54853	30530.1
3157.88318	30477.5
3160.21642	30507.9
3162.54826	30438.2
3164.87868	30413
3167.2077	30352
3169.5353	30337.5
3171.86151	30287.4
3174.18631	30283.1
3176.5097	30266
3178.83169	30224.7
3181.15228	30163.3
3183.47147	30071.4
3185.78926	30073.5
3188.10565	30036.5
3190.42065	29980.3
3192.73424	29935.4
3195.04645	29836
3197.35725	29820.8
3199.66667	29776.2
3201.97469	29800.3
3204.28132	29719.5
3206.58656	29717.2
3208.8904	29730.9
3211.19287	29739.5
3213.49394	29754.8
3215.79363	29727.2
3218.09193	29746.9
3220.38884	29693.2
3222.68438	29738.8
3224.97853	29668
3227.2713	29601.1
3229.56269	29610.6
3231.8527	29569.7
3234.14133	29565.1
3236.42858	29482.2
3238.71446	29330.2
3240.99896	29355.8
3243.28209	29351
3245.56384	29286.9
3247.84423	29208.5
3250.12324	29171.6
3252.40088	29123.4
3254.67715	29101.9
3256.95205	29112.2
3259.22558	29094.6
3261.49775	29049.5
3263.76855	28998.6
3266.03799	28922.9
3268.30606	28849.8
3270.57277	28766
3272.83812	28735
3275.10211	28656.6
3277.36474	28620.8
3279.62601	28594.8
3281.88593	28556.5
3284.14448	28597.6
3286.40168	28605.5
3288.65753	28528.1
3290.91202	28526.6
3293.16516	28434.4
3295.41695	28384.8
3297.66738	28184.2
3299.91647	28098.3
3302.16421	27927
3304.4106	27753.4
3306.65564	27537.4
3308.89933	27379.1
3311.14169	27223.1
3313.38269	26987.6
3315.62236	26852.1
3317.86068	26581.8
3320.09766	26336.1
3322.3333	26166.5
3324.5676	26086.1
3326.80056	25686.4
3329.03219	25547.3
3331.26248	7.2
3333.49143	1
3335.71905	-1.3
