Data from AgNPs_FTO_APTES_UA_20uM_CRN_0uM_R6G_10uM_NaF_0.1M_Addition_RamanShift__14__11-06-01-938.txt Node

Date: Thu Feb 17 11:06:01 GMT 2022
User: TCL
Spectrometer: QEP01345
Trigger mode: 4
Integration Time (sec): 7.000000E0
Scans to average: 10
Electric dark correction enabled: true
Nonlinearity correction enabled: false
Boxcar width: 0
XAxis mode: Raman Shifts
Number of Pixels in Spectrum: 1044
>>>>>Begin Spectral Data<<<<<
46.04893	0.925
50.45542	0.625
54.85868	-2.175
59.25871	-1.675
63.6555	41.625
68.04907	41.625
72.43941	44.025
76.82654	46.425
81.21044	48.225
85.59113	51.425
89.96862	52.725
94.34289	56.925
98.71396	53.325
103.08183	61.025
107.4465	60.725
111.80798	58.325
116.16626	61.025
120.52136	64.925
124.87327	64.125
129.222	70.725
133.56755	76.825
137.90993	76.425
142.24913	83.025
146.58517	96.025
150.91804	111.025
155.24774	129.325
159.57429	164.725
163.89768	215.525
168.21792	283.125
172.53501	390.025
176.84895	542.225
181.15975	772.925
185.46741	1078.525
189.77193	1478.425
194.07331	1989.325
198.37157	2543.825
202.6667	3124.625
206.9587	3728.225
211.24758	4327.125
215.53334	4944.725
219.81599	5652.725
224.09553	6446.625
228.37195	7324.525
232.64527	8282.825
236.91549	9222.325
241.18261	10084.725
245.44663	10758.525
249.70755	11259.425
253.96539	11697.925
258.22014	12059.525
262.4718	12395.725
266.72039	12654.025
270.96589	12757.025
275.20832	12679.225
279.44768	12475.825
283.68397	12242.225
287.91719	12068.925
292.14735	12068.125
296.37445	12276.225
300.59849	12637.825
304.81948	13208.425
309.03742	13679.125
313.25231	13843.725
317.46415	13462.325
321.67296	12661.725
325.87872	11887.825
330.08145	11458.325
334.28114	11336.925
338.47781	11409.925
342.67145	11696.725
346.86207	12097.225
351.04966	12665.425
355.23424	13355.025
359.4158	13855.325
363.59435	13991.525
367.76989	14029.125
371.94243	13928.325
376.11196	13844.525
380.27849	13767.525
384.44203	13658.125
388.60257	13555.325
392.76012	13541.625
396.91468	13642.125
401.06626	13951.825
405.21485	14113.625
409.36047	13821.425
413.50311	13133.725
417.64277	12518.125
421.77947	12204.825
425.9132	12135.425
430.04396	12164.725
434.17176	12189.425
438.2966	12324.325
442.41849	12631.325
446.53742	13129.125
450.6534	13573.725
454.76644	13748.925
458.87653	13580.225
462.98368	13223.625
467.08789	12869.625
471.18916	12539.625
475.2875	12166.425
479.38291	11869.725
483.4754	11666.025
487.56496	11507.825
491.6516	11425.425
495.73531	11345.025
499.81612	11357.425
503.89401	11485.025
507.96899	11690.225
512.04106	11860.625
516.11023	11947.725
520.1765	11986.125
524.23987	11923.425
528.30034	11820.325
532.35792	11617.225
536.41261	11408.925
540.46441	11068.725
544.51333	10838.525
548.55936	10847.725
552.60252	11166.825
556.64279	11654.825
560.6802	12013.425
564.71473	12253.925
568.7464	12720.225
572.7752	13236.525
576.80114	13149.525
580.82422	12864.225
584.84444	12989.625
588.86181	13432.725
592.87633	14141.925
596.888	14468.625
600.89682	14016.925
604.9028	14437.325
608.90594	17765.825
612.90624	22862.325
616.90371	22296.125
620.89834	15430.925
624.89015	11732.325
628.87913	10975.625
632.86528	11095.325
636.84862	11379.525
640.82913	11198.125
644.80683	10619.225
648.78172	10205.525
652.75379	10189.825
656.72306	10564.325
660.68952	11103.225
664.65319	10984.625
668.61405	10293.525
672.57211	9964.725
676.52738	9997.925
680.47986	9971.325
684.42955	9840.725
688.37646	9695.125
692.32058	9717.725
696.26192	9798.825
700.20048	10002.625
704.13626	10134.225
708.06928	10142.625
711.99952	10060.825
715.927	10007.025
719.85171	10089.525
723.77365	10116.425
727.69284	10019.425
731.60928	9848.525
735.52295	9836.825
739.43388	9907.525
743.34206	9958.125
747.24749	9990.525
751.15017	10075.925
755.05012	10249.925
758.94733	10805.225
762.8418	12168.125
766.73354	14589.825
770.62254	17119.625
774.50882	18118.225
778.39237	17048.025
782.27321	14729.325
786.15132	12444.425
790.02671	10960.225
793.89938	10248.125
797.76935	9917.725
801.6366	9792.225
805.50115	9695.625
809.36299	9586.225
813.22213	9470.125
817.07857	9386.225
820.93231	9323.425
824.78336	9315.725
828.63172	9329.425
832.47738	9332.925
836.32036	9287.925
840.16066	9205.725
843.99827	9193.325
847.8332	9200.825
851.66546	9162.825
855.49504	9172.025
859.32195	9141.625
863.1462	9082.025
866.96777	9065.125
870.78668	9057.425
874.60293	9066.525
878.41652	9092.925
882.22745	9145.225
886.03573	9199.125
889.84136	9209.625
893.64433	9158.325
897.44466	9167.725
901.24235	9167.825
905.0374	9073.625
908.8298	8973.125
912.61957	8911.125
916.40671	8947.525
920.19121	9041.225
923.97308	9194.225
927.75233	9352.525
931.52895	9436.625
935.30295	9275.725
939.07433	8898.525
942.84309	8581.825
946.60924	8391.025
950.37278	8296.525
954.13371	8286.525
957.89203	8246.725
961.64774	8199.325
965.40086	8172.525
969.15137	8136.725
972.89929	8066.825
976.64461	8018.525
980.38733	7986.425
984.12747	7972.325
987.86502	8010.125
991.59999	8092.525
995.33237	8208.325
999.06217	8401.225
1002.78939	8690.625
1006.51404	8966.425
1010.23611	9234.725
1013.95561	9400.125
1017.67255	9394.925
1021.38692	9202.325
1025.09872	8872.125
1028.80796	8614.525
1032.51465	8475.225
1036.21877	8443.925
1039.92035	8458.425
1043.61937	8493.925
1047.31584	8523.325
1051.00976	8568.825
1054.70114	8584.625
1058.38998	8571.625
1062.07627	8579.225
1065.76003	8631.425
1069.44126	8690.525
1073.11995	8870.925
1076.79611	9060.225
1080.46974	9317.325
1084.14085	9669.325
1087.80943	10086.425
1091.47549	10274.425
1095.13903	10098.325
1098.80005	9664.525
1102.45857	9252.525
1106.11456	9020.825
1109.76805	9033.825
1113.41903	9261.625
1117.06751	9609.325
1120.71348	10091.825
1124.35696	10660.125
1127.99793	11207.325
1131.63641	11246.825
1135.2724	10666.425
1138.90589	10101.725
1142.5369	9752.025
1146.16542	9555.825
1149.79145	9462.425
1153.415	9453.125
1157.03607	9576.925
1160.65467	9909.525
1164.27079	10512.225
1167.88443	11497.125
1171.49561	12889.325
1175.10432	14955.725
1178.71056	17646.925
1182.31434	19975.925
1185.91565	20665.825
1189.51451	19928.025
1193.11091	18557.125
1196.70485	16916.725
1200.29634	15485.325
1203.88538	14235.925
1207.47197	13128.525
1211.05612	12235.625
1214.63782	11717.825
1218.21708	11588.225
1221.79391	11693.625
1225.36829	11883.025
1228.94024	11833.725
1232.50976	11521.025
1236.07685	11175.625
1239.6415	10940.925
1243.20374	10824.525
1246.76355	10826.625
1250.32093	10878.125
1253.8759	11123.625
1257.42845	11585.425
1260.97859	12214.425
1264.52631	12951.125
1268.07163	13659.125
1271.61453	14233.725
1275.15503	14700.725
1278.69312	15032.225
1282.22882	15285.325
1285.76211	15810.625
1289.29301	16679.125
1292.82151	17664.925
1296.34761	18815.925
1299.87133	20250.525
1303.39266	22234.625
1306.9116	24981.125
1310.42815	28194.325
1313.94233	30339.525
1317.45412	29999.725
1320.96354	27843.025
1324.47058	25262.825
1327.97525	23004.725
1331.47754	21425.825
1334.97747	20552.925
1338.47502	20198.925
1341.97022	20259.525
1345.46305	20789.125
1348.95352	21842.425
1352.44163	23502.625
1355.92738	26029.425
1359.41078	29937.625
1362.89183	33959.825
1366.37053	33647.625
1369.84688	28299.325
1373.32088	22213.425
1376.79254	18467.825
1380.26186	16676.525
1383.72883	15877.725
1387.19347	15239.225
1390.65578	14691.725
1394.11575	14439.425
1397.57339	14602.125
1401.0287	14896.325
1404.48168	15171.625
1407.93234	15127.925
1411.38068	14801.925
1414.82669	14334.625
1418.27039	13829.125
1421.71177	13292.425
1425.15083	12843.825
1428.58758	12633.425
1432.02203	12770.125
1435.45416	13135.925
1438.88399	13468.125
1442.31151	13623.625
1445.73673	13726.025
1449.15965	13854.825
1452.58027	13936.125
1455.9986	13877.425
1459.41463	13952.625
1462.82837	14206.325
1466.23982	14571.425
1469.64898	14934.025
1473.05586	15149.825
1476.46045	15156.825
1479.86276	15162.525
1483.26279	15191.925
1486.66054	15400.725
1490.05602	15861.525
1493.44922	16637.525
1496.84016	17751.225
1500.22882	19519.825
1503.61521	22041.325
1506.99934	25128.425
1510.38121	28111.725
1513.76081	29487.325
1517.13816	27970.725
1520.51324	24245.825
1523.88607	20572.325
1527.25665	18130.825
1530.62498	16804.725
1533.99105	16004.825
1537.35488	15323.325
1540.71647	14747.825
1544.07581	14276.725
1547.4329	13915.925
1550.78776	13679.825
1554.14038	13617.225
1557.49077	13733.525
1560.83892	14022.525
1564.18484	14451.325
1567.52853	15035.625
1570.86999	15522.625
1574.20922	15898.325
1577.54624	15885.325
1580.88103	15100.025
1584.2136	13978.025
1587.54395	13481.625
1590.87208	13921.825
1594.19801	15159.425
1597.52172	16729.925
1600.84321	17439.525
1604.16251	16664.425
1607.47959	15005.625
1610.79447	13303.425
1614.10715	11785.525
1617.41763	10523.425
1620.7259	9682.025
1624.03199	9277.525
1627.33587	9271.625
1630.63757	9680.925
1633.93707	10644.325
1637.23439	12363.425
1640.52951	15108.925
1643.82246	18738.725
1647.11321	22314.225
1650.40179	24137.125
1653.68819	22608.425
1656.97241	18454.425
1660.25446	13988.925
1663.53433	10855.025
1666.81203	8994.225
1670.08756	7982.025
1673.36092	7360.425
1676.63211	6994.725
1679.90115	6734.725
1683.16801	6555.725
1686.43272	6432.725
1689.69527	6342.325
1692.95567	6251.825
1696.2139	6215.525
1699.46999	6192.625
1702.72392	6154.025
1705.97571	6109.325
1709.22535	6033.725
1712.47284	6056.025
1715.71819	6075.125
1718.96139	6046.525
1722.20246	6011.925
1725.44139	5953.125
1728.67818	5873.925
1731.91284	5799.425
1735.14537	5735.725
1738.37576	5619.625
1741.60403	5632.025
1744.83017	5612.825
1748.05418	5571.825
1751.27607	5556.025
1754.49584	5521.725
1757.71349	5496.225
1760.92903	5493.125
1764.14244	5483.625
1767.35375	5447.525
1770.56294	5428.525
1773.77002	5392.825
1776.97499	5378.225
1780.17785	5358.925
1783.37861	5337.725
1786.57727	5310.825
1789.77382	5285.025
1792.96828	5267.925
1796.16064	5267.025
1799.3509	5244.525
1802.53907	5252.625
1805.72514	5230.025
1808.90913	5188.825
1812.09102	5166.725
1815.27083	5155.525
1818.44856	5138.925
1821.6242	5131.525
1824.79776	5106.025
1827.96924	5114.725
1831.13864	5098.225
1834.30597	5103.425
1837.47122	5091.225
1840.6344	5087.325
1843.7955	5098.825
1846.95454	5078.425
1850.11151	5075.325
1853.26642	5078.525
1856.41926	5067.425
1859.57004	5043.425
1862.71876	5040.225
1865.86542	5033.425
1869.01003	4995.925
1872.15258	4989.825
1875.29308	4981.325
1878.43152	4986.725
1881.56792	4982.625
1884.70227	4967.625
1887.83457	4966.425
1890.96482	4968.525
1894.09304	4962.725
1897.21921	4938.525
1900.34335	4924.225
1903.46544	4925.625
1906.58551	4927.325
1909.70353	4906.725
1912.81953	4885.025
1915.93349	4883.325
1919.04543	4844.225
1922.15534	4827.525
1925.26322	4794.925
1928.36908	4786.925
1931.47292	4716.525
1934.57473	4709.025
1937.67453	4695.825
1940.77232	4657.325
1943.86808	4646.825
1946.96184	4632.625
1950.05358	4612.525
1953.14331	4591.125
1956.23103	4559.325
1959.31675	4565.825
1962.40046	4543.225
1965.48217	4533.825
1968.56188	4524.125
1971.63959	4518.025
1974.7153	4526.925
1977.78901	4495.825
1980.86073	4467.625
1983.93046	4438.425
1986.99819	4433.325
1990.06394	4397.225
1993.1277	4377.525
1996.18947	4368.425
1999.24925	4360.325
2002.30706	4321.125
2005.36288	4308.825
2008.41672	4293.625
2011.46859	4270.325
2014.51848	4252.125
2017.56639	4246.425
2020.61233	4230.925
2023.6563	4210.525
2026.6983	4183.625
2029.73833	4182.625
2032.7764	4166.125
2035.8125	4137.825
2038.84664	4142.825
2041.87881	4138.225
2044.90903	4127.625
2047.93729	4117.625
2050.96359	4116.425
2053.98794	4107.025
2057.01034	4102.225
2060.03078	4084.025
2063.04927	4074.025
2066.06582	4068.725
2069.08042	4079.925
2072.09307	4050.425
2075.10378	4047.425
2078.11255	4051.225
2081.11938	4046.625
2084.12426	4035.825
2087.12722	4028.725
2090.12824	4029.425
2093.12732	4034.725
2096.12447	4041.925
2099.11969	4026.725
2102.11299	4015.925
2105.10435	4021.425
2108.09379	4032.625
2111.08131	4027.825
2114.0669	4031.925
2117.05057	4027.325
2120.03233	4022.625
2123.01216	4042.425
2125.99008	4042.625
2128.96609	4047.225
2131.94018	4047.325
2134.91236	4033.525
2137.88263	4030.025
2140.851	4023.625
2143.81746	4018.225
2146.78201	4012.225
2149.74466	4005.925
2152.7054	4008.925
2155.66425	4002.825
2158.6212	3986.225
2161.57625	3982.825
2164.52941	3985.025
2167.48067	3973.425
2170.43004	3985.525
2173.37752	3969.125
2176.32311	3974.925
2179.26681	3969.825
2182.20863	3982.025
2185.14856	3973.425
2188.08661	3978.125
2191.02278	3963.825
2193.95707	3958.025
2196.88948	3955.325
2199.82001	3945.925
2202.74867	3935.225
2205.67545	3923.725
2208.60037	3915.725
2211.52341	3913.825
2214.44458	3899.425
2217.36388	3892.525
2220.28132	3883.625
2223.1969	3873.425
2226.11061	3859.825
2229.02246	3860.825
2231.93245	3839.425
2234.84058	3853.025
2237.74686	3848.825
2240.65128	3839.425
2243.55385	3826.925
2246.45456	3807.725
2249.35343	3814.725
2252.25044	3817.125
2255.14561	3814.225
2258.03893	3817.125
2260.93041	3815.125
2263.82004	3812.825
2266.70783	3790.025
2269.59378	3782.925
2272.4779	3781.925
2275.36017	3770.625
2278.24061	3763.525
2281.11922	3740.625
2283.996	3743.025
2286.87094	3721.125
2289.74405	3713.125
2292.61534	3693.225
2295.4848	3688.625
2298.35243	3691.825
2301.21824	3687.625
2304.08223	3677.725
2306.94439	3672.825
2309.80474	3677.625
2312.66327	3672.625
2315.51999	3689.925
2318.37489	3667.225
2321.22797	3655.425
2324.07925	3654.425
2326.92871	3665.825
2329.77637	3656.625
2332.62222	3639.425
2335.46626	3634.025
2338.3085	3635.425
2341.14893	3639.125
2343.98756	3640.125
2346.8244	3653.425
2349.65943	3654.725
2352.49267	3677.725
2355.32411	3674.925
2358.15376	3684.225
2360.98161	3709.425
2363.80768	3702.825
2366.63195	3717.225
2369.45444	3713.925
2372.27514	3707.125
2375.09405	3711.225
2377.91118	3704.025
2380.72652	3672.425
2383.54009	3658.425
2386.35187	3638.625
2389.16188	3608.425
2391.97011	3600.725
2394.77657	3592.425
2397.58125	3569.425
2400.38416	3558.825
2403.18529	3540.825
2405.98466	3527.525
2408.78226	3521.525
2411.57809	3523.125
2414.37216	3525.025
2417.16446	3537.925
2419.955	3520.525
2422.74378	3534.625
2425.5308	3533.825
2428.31606	3524.625
2431.09956	3530.225
2433.88131	3511.425
2436.6613	3542.525
2439.43954	3541.525
2442.21603	3540.925
2444.99077	3545.625
2447.76377	3545.825
2450.53501	3548.625
2453.30451	3569.325
2456.07226	3574.625
2458.83827	3559.425
2461.60254	3545.225
2464.36507	3545.725
2467.12586	3559.225
2469.88492	3566.625
2472.64224	3550.825
2475.39782	3564.925
2478.15167	3585.525
2480.90379	3597.425
2483.65417	3596.025
2486.40283	3610.825
2489.14976	3618.925
2491.89497	3627.325
2494.63845	3631.125
2497.3802	3610.225
2500.12024	3625.225
2502.85855	3618.225
2505.59514	3604.925
2508.33002	3580.025
2511.06318	3562.025
2513.79462	3543.225
2516.52435	3513.525
2519.25237	3507.225
2521.97867	3485.425
2524.70327	3496.625
2527.42616	3477.225
2530.14734	3462.725
2532.86681	3475.225
2535.58458	3479.425
2538.30065	3466.325
2541.01501	3462.225
2543.72768	3478.825
2546.43864	3465.925
2549.14791	3482.025
2551.85548	3485.125
2554.56136	3469.225
2557.26554	3464.525
2559.96803	3463.425
2562.66883	3458.025
2565.36794	3454.325
2568.06536	3454.125
2570.7611	3446.525
2573.45514	3452.725
2576.14751	3437.625
2578.83819	3424.125
2581.52719	3444.725
2584.21451	3440.425
2586.90015	3429.525
2589.58411	3420.225
2592.2664	3406.925
2594.94701	3425.925
2597.62594	3422.525
2600.30321	3417.025
2602.9788	3400.725
2605.65273	3414.025
2608.32498	3419.525
2610.99557	3402.325
2613.66449	3430.525
2616.33175	3413.625
2618.99734	3432.525
2621.66128	3423.925
2624.32355	3415.925
2626.98416	3407.925
2629.64311	3404.425
2632.30041	3392.425
2634.95605	3395.625
2637.61004	3392.525
2640.26238	3382.325
2642.91306	3387.925
2645.56209	3379.425
2648.20948	3375.225
2650.85521	3384.025
2653.4993	3379.825
2656.14175	3386.125
2658.78255	3400.825
2661.42171	3401.125
2664.05923	3406.425
2666.6951	3416.825
2669.32934	3409.625
2671.96194	3415.125
2674.59291	3408.025
2677.22224	3414.225
2679.84993	3430.925
2682.476	3404.525
2685.10043	3407.125
2687.72324	3409.925
2690.34441	3405.725
2692.96396	3392.025
2695.58188	3406.825
2698.19818	3402.925
2700.81285	3396.525
2703.4259	3403.925
2706.03733	3398.025
2708.64714	3411.725
2711.25533	3417.225
2713.86191	3414.225
2716.46687	3425.425
2719.07021	3428.225
2721.67194	3440.125
2724.27206	3429.025
2726.87057	3437.725
2729.46747	3429.425
2732.06276	3425.425
2734.65644	3413.025
2737.24852	3429.025
2739.83899	3412.225
2742.42786	3404.925
2745.01513	3405.625
2747.60079	3401.525
2750.18486	3392.225
2752.76733	3391.725
2755.3482	3392.525
2757.92747	3381.925
2760.50515	3384.325
2763.08123	3369.525
2765.65573	3373.825
2768.22863	3372.925
2770.79994	3372.425
2773.36967	3370.825
2775.9378	3381.925
2778.50435	3376.125
2781.06932	3375.125
2783.6327	3376.225
2786.1945	3382.325
2788.75471	3371.425
2791.31335	3374.425
2793.87041	3359.625
2796.42589	3367.625
2798.97979	3366.125
2801.53212	3364.425
2804.08288	3367.325
2806.63206	3346.925
2809.17967	3370.725
2811.72571	3342.625
2814.27018	3346.625
2816.81308	3360.025
2819.35442	3359.825
2821.89419	3364.325
2824.43239	3374.425
2826.96904	3374.125
2829.50412	3369.225
2832.03763	3366.825
2834.56959	3376.225
2837.1	3366.725
2839.62884	3385.825
2842.15613	3378.825
2844.68186	3423.825
2847.20604	3435.525
2849.72867	3455.925
2852.24974	3460.425
2854.76927	3453.825
2857.28724	3465.225
2859.80367	3462.025
2862.31855	3472.825
2864.83189	3479.925
2867.34368	3461.925
2869.85393	3478.725
2872.36264	3469.725
2874.8698	3482.325
2877.37543	3477.425
2879.87952	3470.825
2882.38207	3471.625
2884.88308	3463.725
2887.38256	3460.425
2889.88051	3445.625
2892.37692	3451.625
2894.8718	3459.225
2897.36515	3453.925
2899.85698	3467.725
2902.34727	3474.825
2904.83604	3474.925
2907.32328	3482.825
2909.809	3471.625
2912.29319	3492.525
2914.77587	3482.525
2917.25702	3494.625
2919.73665	3480.625
2922.21476	3480.425
2924.69136	3481.225
2927.16644	3460.725
2929.64	3450.825
2932.11205	3437.725
2934.58258	3430.925
2937.05161	3433.725
2939.51912	3420.525
2941.98513	3405.725
2944.44962	3381.025
2946.91261	3357.125
2949.37409	3359.825
2951.83407	3344.425
2954.29254	3343.525
2956.74951	3330.825
2959.20498	3322.625
2961.65895	3330.825
2964.11142	3324.825
2966.56239	3317.625
2969.01186	3288.725
2971.45984	3253.525
2973.90632	3264.825
2976.35131	3259.325
2978.7948	3240.325
2981.23681	3220.425
2983.67732	3234.025
2986.11635	3200.025
2988.55388	3184.225
2990.98993	3191.625
2993.4245	3179.025
2995.85758	3157.825
2998.28917	3163.425
3000.71928	3160.525
3003.14791	3161.925
3005.57506	3159.925
3008.00073	3160.025
3010.42493	3141.525
3012.84764	3144.725
3015.26888	3148.125
3017.68865	3136.325
3020.10694	3138.025
3022.52376	3122.725
3024.9391	3105.325
3027.35298	3105.225
3029.76539	3088.425
3032.17632	3095.925
3034.5858	3089.225
3036.9938	3078.025
3039.40034	3077.825
3041.80542	3060.825
3044.20903	3053.025
3046.61118	3041.125
3049.01187	3056.325
3051.4111	3065.125
3053.80888	3043.525
3056.20519	3032.925
3058.60005	3040.825
3060.99345	3012.225
3063.3854	3015.325
3065.7759	3011.725
3068.16494	3010.225
3070.55254	2989.325
3072.93868	2983.925
3075.32338	2989.425
3077.70662	2962.725
3080.08842	2952.225
3082.46878	2956.425
3084.84769	2950.125
3087.22515	2945.225
3089.60118	2946.325
3091.97576	2952.025
3094.3489	2945.225
3096.72061	2954.525
3099.09087	2949.325
3101.4597	2955.325
3103.82709	2941.325
3106.19305	2947.425
3108.55757	2938.825
3110.92066	2937.525
3113.28232	2939.225
3115.64255	2926.825
3118.00134	2936.125
3120.35871	2928.725
3122.71466	2909.825
3125.06917	2913.325
3127.42226	2929.925
3129.77393	2923.225
3132.12417	2910.825
3134.47299	2928.925
3136.82039	2916.625
3139.16636	2924.725
3141.51092	2920.025
3143.85406	2932.925
3146.19579	2925.425
3148.53609	2944.125
3150.87499	2947.825
3153.21246	2932.925
3155.54853	2943.925
3157.88318	2948.925
3160.21642	2965.825
3162.54826	2968.625
3164.87868	2953.325
3167.2077	2962.325
3169.5353	2960.725
3171.86151	2966.825
3174.18631	2971.225
3176.5097	2973.225
3178.83169	2969.025
3181.15228	2968.325
3183.47147	2960.825
3185.78926	2964.625
3188.10565	2949.925
3190.42065	2961.725
3192.73424	2958.225
3195.04645	2950.325
3197.35725	2957.425
3199.66667	2962.425
3201.97469	2970.825
3204.28132	2971.125
3206.58656	2971.125
3208.8904	2961.525
3211.19287	2977.025
3213.49394	2979.125
3215.79363	2986.825
3218.09193	2995.225
3220.38884	3004.225
3222.68438	3006.725
3224.97853	2996.625
3227.2713	2996.425
3229.56269	2981.225
3231.8527	2995.825
3234.14133	2989.925
3236.42858	2988.525
3238.71446	2978.925
3240.99896	2969.825
3243.28209	2977.825
3245.56384	2974.625
3247.84423	2970.625
3250.12324	2971.625
3252.40088	2961.725
3254.67715	2965.225
3256.95205	2949.025
3259.22558	2957.825
3261.49775	2957.925
3263.76855	2947.025
3266.03799	2935.325
3268.30606	2932.725
3270.57277	2932.025
3272.83812	2928.725
3275.10211	2941.225
3277.36474	2943.425
3279.62601	2940.525
3281.88593	2942.525
3284.14448	2946.625
3286.40168	2959.825
3288.65753	2941.725
3290.91202	2931.925
3293.16516	2940.225
3295.41695	2942.925
3297.66738	2927.625
3299.91647	2903.925
3302.16421	2888.525
3304.4106	2870.125
3306.65564	2849.225
3308.89933	2831.825
3311.14169	2795.325
3313.38269	2785.325
3315.62236	2762.525
3317.86068	2734.025
3320.09766	2713.325
3322.3333	2709.825
3324.5676	2691.825
3326.80056	2632.825
3329.03219	2631.325
3331.26248	1.425
3333.49143	0.725
3335.71905	0.125
