Data from AgNPs_FTO_APTES_UA_20uM_CRN_10uM_R6G_10uM_NaF_0.1M_Addition_RamanShift__10__14-22-02-194.txt Node

Date: Thu Feb 17 14:22:02 GMT 2022
User: TCL
Spectrometer: QEP01345
Trigger mode: 4
Integration Time (sec): 7.000000E0
Scans to average: 10
Electric dark correction enabled: true
Nonlinearity correction enabled: false
Boxcar width: 0
XAxis mode: Raman Shifts
Number of Pixels in Spectrum: 1044
>>>>>Begin Spectral Data<<<<<
46.04893	0.5375
50.45542	-1.4625
54.85868	-3.5625
59.25871	-1.3625
63.6555	126.6375
68.04907	125.5375
72.43941	131.0375
76.82654	132.5375
81.21044	139.2375
85.59113	142.7375
89.96862	148.2375
94.34289	149.6375
98.71396	155.7375
103.08183	159.9375
107.4465	164.7375
111.80798	169.5375
116.16626	175.0375
120.52136	179.4375
124.87327	193.4375
129.222	203.1375
133.56755	220.5375
137.90993	236.2375
142.24913	259.4375
146.58517	297.0375
150.91804	353.1375
155.24774	417.3375
159.57429	524.8375
163.89768	679.9375
168.21792	909.2375
172.53501	1251.5375
176.84895	1761.7375
181.15975	2476.7375
185.46741	3510.5375
189.77193	4847.2375
194.07331	6526.0375
198.37157	8452.7375
202.6667	10476.6375
206.9587	12503.6375
211.24758	14451.9375
215.53334	16389.2375
219.81599	18452.2375
224.09553	20687.8375
228.37195	23144.5375
232.64527	25861.0375
236.91549	28731.8375
241.18261	31733.0375
245.44663	34579.0375
249.70755	37202.1375
253.96539	39484.1375
258.22014	41407.9375
262.4718	42961.6375
266.72039	44122.3375
270.96589	44712.8375
275.20832	44881.9375
279.44768	44726.8375
283.68397	44425.3375
287.91719	44063.0375
292.14735	43956.3375
296.37445	43900.3375
300.59849	43982.3375
304.81948	44063.6375
309.03742	44129.6375
313.25231	43911.5375
317.46415	43414.5375
321.67296	42773.6375
325.87872	42224.3375
330.08145	41984.8375
334.28114	41999.7375
338.47781	42342.5375
342.67145	42807.3375
346.86207	43383.1375
351.04966	43987.4375
355.23424	44626.2375
359.4158	45212.2375
363.59435	45678.6375
367.76989	45958.4375
371.94243	46294.6375
376.11196	46527.7375
380.27849	46748.1375
384.44203	46968.3375
388.60257	47374.6375
392.76012	47809.7375
396.91468	48379.2375
401.06626	49027.9375
405.21485	49460.8375
409.36047	49436.0375
413.50311	49031.8375
417.64277	48726.4375
421.77947	48780.3375
425.9132	48962.7375
430.04396	49298.9375
434.17176	49553.3375
438.2966	49841.2375
442.41849	50399.1375
446.53742	51317.4375
450.6534	52286.9375
454.76644	53095.3375
458.87653	53423.2375
462.98368	53552.6375
467.08789	53269.4375
471.18916	52940.5375
475.2875	52536.0375
479.38291	52306.4375
483.4754	52055.3375
487.56496	51737.2375
491.6516	51369.0375
495.73531	51005.4375
499.81612	50692.1375
503.89401	50884.3375
507.96899	51003.9375
512.04106	51081.3375
516.11023	51018.0375
520.1765	50880.8375
524.23987	50698.1375
528.30034	50531.4375
532.35792	50307.5375
536.41261	50059.6375
540.46441	49842.4375
544.51333	49853.1375
548.55936	50312.7375
552.60252	50991.8375
556.64279	51879.4375
560.6802	52458.5375
564.71473	52839.9375
568.7464	53429.0375
572.7752	54578.2375
576.80114	55889.2375
580.82422	57115.5375
584.84444	58009.5375
588.86181	58910.3375
592.87633	59737.7375
596.888	59526.8375
600.89682	58594.4375
604.9028	58840.0375
608.90594	61294.6375
612.90624	63723.4375
616.90371	60950.3375
620.89834	54994.5375
624.89015	52365.4375
628.87913	52202.8375
632.86528	52612.4375
636.84862	52753.8375
640.82913	52328.5375
644.80683	51605.2375
648.78172	50964.2375
652.75379	50845.8375
656.72306	51310.6375
660.68952	51921.0375
664.65319	51836.1375
668.61405	51431.9375
672.57211	51439.2375
676.52738	51688.8375
680.47986	51646.4375
684.42955	51458.9375
688.37646	51371.0375
692.32058	51560.3375
696.26192	52076.1375
700.20048	52629.8375
704.13626	53045.6375
708.06928	53172.8375
711.99952	53005.9375
715.927	52860.9375
719.85171	52888.8375
723.77365	52765.0375
727.69284	52407.9375
731.60928	51953.7375
735.52295	51721.1375
739.43388	51723.3375
743.34206	51915.5375
747.24749	52166.3375
751.15017	52414.6375
755.05012	53054.8375
758.94733	54009.9375
762.8418	55625.9375
766.73354	58297.5375
770.62254	60695.5375
774.50882	61058.8375
778.39237	59325.9375
782.27321	56762.0375
786.15132	54633.5375
790.02671	53207.9375
793.89938	52530.5375
797.76935	52125.4375
801.6366	51985.5375
805.50115	51898.7375
809.36299	51813.5375
813.22213	51689.9375
817.07857	51622.7375
820.93231	51630.5375
824.78336	51591.4375
828.63172	51494.4375
832.47738	51422.1375
836.32036	51390.0375
840.16066	51452.6375
843.99827	51505.0375
847.8332	51538.8375
851.66546	51698.5375
855.49504	51790.3375
859.32195	51793.9375
863.1462	51797.6375
866.96777	51858.8375
870.78668	51847.6375
874.60293	51911.0375
878.41652	51963.2375
882.22745	52016.3375
886.03573	52090.6375
889.84136	52107.2375
893.64433	52042.6375
897.44466	51874.9375
901.24235	51768.4375
905.0374	51795.2375
908.8298	51686.9375
912.61957	51813.2375
916.40671	52076.7375
920.19121	52550.8375
923.97308	52921.9375
927.75233	52761.2375
931.52895	52364.5375
935.30295	51957.9375
939.07433	51470.4375
942.84309	51058.6375
946.60924	50877.1375
950.37278	50877.2375
954.13371	50933.4375
957.89203	50930.2375
961.64774	50890.3375
965.40086	50836.7375
969.15137	50876.1375
972.89929	50747.3375
976.64461	50670.5375
980.38733	50646.6375
984.12747	50684.9375
987.86502	50872.3375
991.59999	51101.6375
995.33237	51386.5375
999.06217	51889.7375
1002.78939	52429.5375
1006.51404	53144.6375
1010.23611	53823.8375
1013.95561	54331.9375
1017.67255	54410.9375
1021.38692	54216.7375
1025.09872	53714.3375
1028.80796	53259.5375
1032.51465	53063.0375
1036.21877	53166.3375
1039.92035	53275.1375
1043.61937	53331.7375
1047.31584	53432.6375
1051.00976	53444.1375
1054.70114	53663.2375
1058.38998	53991.1375
1062.07627	54435.9375
1065.76003	54983.4375
1069.44126	55537.1375
1073.11995	56251.8375
1076.79611	56766.5375
1080.46974	57193.7375
1084.14085	57317.8375
1087.80943	57727.2375
1091.47549	58026.5375
1095.13903	58092.8375
1098.80005	57723.1375
1102.45857	56961.1375
1106.11456	56295.7375
1109.76805	55780.0375
1113.41903	55772.3375
1117.06751	55792.3375
1120.71348	56094.0375
1124.35696	56498.5375
1127.99793	56846.9375
1131.63641	56911.5375
1135.2724	56839.7375
1138.90589	56744.9375
1142.5369	56770.4375
1146.16542	57013.9375
1149.79145	57208.5375
1153.415	57524.5375
1157.03607	57905.2375
1160.65467	58629.7375
1164.27079	59906.8375
1167.88443	61655.3375
1171.49561	63640.1375
1175.10432	66132.7375
1178.71056	69223.3375
1182.31434	72204.2375
1185.91565	73993.8375
1189.51451	74374.2375
1193.11091	73858.5375
1196.70485	72544.8375
1200.29634	70876.3375
1203.88538	69508.0375
1207.47197	68548.0375
1211.05612	67839.7375
1214.63782	66818.8375
1218.21708	65664.1375
1221.79391	64452.9375
1225.36829	63665.5375
1228.94024	63135.4375
1232.50976	62677.6375
1236.07685	62201.9375
1239.6415	62007.8375
1243.20374	62024.0375
1246.76355	62375.8375
1250.32093	62970.6375
1253.8759	63752.2375
1257.42845	64957.9375
1260.97859	66236.2375
1264.52631	67462.9375
1268.07163	68631.9375
1271.61453	69733.3375
1275.15503	70692.3375
1278.69312	71805.6375
1282.22882	72946.0375
1285.76211	74316.6375
1289.29301	76043.9375
1292.82151	78121.2375
1296.34761	80545.0375
1299.87133	83381.8375
1303.39266	86228.9375
1306.9116	89071.1375
1310.42815	91289.3375
1313.94233	92490.1375
1317.45412	92043.2375
1320.96354	91191.4375
1324.47058	90507.2375
1327.97525	89846.9375
1331.47754	89451.6375
1334.97747	89390.0375
1338.47502	89621.8375
1341.97022	90081.6375
1345.46305	90670.9375
1348.95352	91031.7375
1352.44163	90923.2375
1355.92738	91089.5375
1359.41078	92005.5375
1362.89183	92878.2375
1366.37053	91192.9375
1369.84688	86286.1375
1373.32088	80325.8375
1376.79254	75960.3375
1380.26186	74079.5375
1383.72883	73852.9375
1387.19347	73804.8375
1390.65578	73401.5375
1394.11575	72813.4375
1397.57339	72614.3375
1401.0287	72646.5375
1404.48168	72704.2375
1407.93234	72370.2375
1411.38068	71619.9375
1414.82669	70305.9375
1418.27039	68776.4375
1421.71177	67228.1375
1425.15083	65936.0375
1428.58758	65391.9375
1432.02203	65683.6375
1435.45416	66563.6375
1438.88399	67772.3375
1442.31151	68674.3375
1445.73673	69273.0375
1449.15965	69729.1375
1452.58027	70030.9375
1455.9986	70248.2375
1459.41463	70635.3375
1462.82837	71414.8375
1466.23982	72304.1375
1469.64898	73257.3375
1473.05586	73961.7375
1476.46045	74230.2375
1479.86276	74098.4375
1483.26279	73809.0375
1486.66054	73716.3375
1490.05602	74041.8375
1493.44922	74832.7375
1496.84016	75881.3375
1500.22882	77404.0375
1503.61521	79645.8375
1506.99934	81982.3375
1510.38121	83506.6375
1513.76081	83407.1375
1517.13816	81797.8375
1520.51324	79876.7375
1523.88607	78493.7375
1527.25665	78104.0375
1530.62498	78069.6375
1533.99105	77871.0375
1537.35488	77058.0375
1540.71647	75911.6375
1544.07581	74535.4375
1547.4329	73228.8375
1550.78776	72064.7375
1554.14038	71260.3375
1557.49077	70739.5375
1560.83892	70416.8375
1564.18484	70291.6375
1567.52853	70443.5375
1570.86999	70943.7375
1574.20922	71660.3375
1577.54624	72148.1375
1580.88103	71926.1375
1584.2136	71768.6375
1587.54395	72609.2375
1590.87208	74367.2375
1594.19801	76834.1375
1597.52172	79325.1375
1600.84321	79984.1375
1604.16251	78107.7375
1607.47959	74979.3375
1610.79447	71430.5375
1614.10715	67934.1375
1617.41763	64735.7375
1620.7259	62308.9375
1624.03199	60839.7375
1627.33587	60505.3375
1630.63757	61202.6375
1633.93707	63299.6375
1637.23439	66954.7375
1640.52951	72659.7375
1643.82246	79292.1375
1647.11321	84637.3375
1650.40179	85934.2375
1653.68819	82092.9375
1656.97241	74963.0375
1660.25446	67716.8375
1663.53433	62052.5375
1666.81203	58245.7375
1670.08756	55890.8375
1673.36092	54301.0375
1676.63211	53265.6375
1679.90115	52562.0375
1683.16801	51945.8375
1686.43272	51500.7375
1689.69527	51251.5375
1692.95567	51025.3375
1696.2139	50849.5375
1699.46999	50763.4375
1702.72392	50648.1375
1705.97571	50545.4375
1709.22535	50484.9375
1712.47284	50511.7375
1715.71819	50446.7375
1718.96139	50372.0375
1722.20246	50261.1375
1725.44139	50091.3375
1728.67818	49904.2375
1731.91284	49731.0375
1735.14537	49494.4375
1738.37576	49359.6375
1741.60403	49219.9375
1744.83017	49081.4375
1748.05418	49023.3375
1751.27607	48898.8375
1754.49584	48886.5375
1757.71349	48909.0375
1760.92903	48864.2375
1764.14244	48804.6375
1767.35375	48718.7375
1770.56294	48701.0375
1773.77002	48632.9375
1776.97499	48664.7375
1780.17785	48542.5375
1783.37861	48499.6375
1786.57727	48345.3375
1789.77382	48284.2375
1792.96828	48290.3375
1796.16064	48189.2375
1799.3509	48169.2375
1802.53907	48077.7375
1805.72514	47975.8375
1808.90913	47835.0375
1812.09102	47816.1375
1815.27083	47706.3375
1818.44856	47676.9375
1821.6242	47590.5375
1824.79776	47615.4375
1827.96924	47597.5375
1831.13864	47529.6375
1834.30597	47514.0375
1837.47122	47410.3375
1840.6344	47393.2375
1843.7955	47370.8375
1846.95454	47384.0375
1850.11151	47392.8375
1853.26642	47382.3375
1856.41926	47316.7375
1859.57004	47301.1375
1862.71876	47257.3375
1865.86542	47189.6375
1869.01003	47134.6375
1872.15258	47029.0375
1875.29308	46981.3375
1878.43152	46919.8375
1881.56792	46914.2375
1884.70227	46942.4375
1887.83457	46897.3375
1890.96482	46822.8375
1894.09304	46802.0375
1897.21921	46711.9375
1900.34335	46647.6375
1903.46544	46494.9375
1906.58551	46602.7375
1909.70353	46560.8375
1912.81953	46490.7375
1915.93349	46422.0375
1919.04543	46350.8375
1922.15534	46316.1375
1925.26322	46222.3375
1928.36908	46106.2375
1931.47292	46047.6375
1934.57473	45951.5375
1937.67453	45917.1375
1940.77232	45765.9375
1943.86808	45692.2375
1946.96184	45575.2375
1950.05358	45447.6375
1953.14331	45335.6375
1956.23103	45248.2375
1959.31675	45129.3375
1962.40046	44980.8375
1965.48217	44875.7375
1968.56188	44733.1375
1971.63959	44616.3375
1974.7153	44468.0375
1977.78901	44350.6375
1980.86073	44213.1375
1983.93046	44102.1375
1986.99819	43958.7375
1990.06394	43904.2375
1993.1277	43755.5375
1996.18947	43643.7375
1999.24925	43572.8375
2002.30706	43483.9375
2005.36288	43309.9375
2008.41672	43195.4375
2011.46859	43076.8375
2014.51848	42994.5375
2017.56639	42863.5375
2020.61233	42732.1375
2023.6563	42657.1375
2026.6983	42537.9375
2029.73833	42448.8375
2032.7764	42307.2375
2035.8125	42265.9375
2038.84664	42166.8375
2041.87881	42164.1375
2044.90903	42053.7375
2047.93729	42043.0375
2050.96359	41948.6375
2053.98794	41906.6375
2057.01034	41896.0375
2060.03078	41882.3375
2063.04927	41823.4375
2066.06582	41834.6375
2069.08042	41774.3375
2072.09307	41747.3375
2075.10378	41680.8375
2078.11255	41692.6375
2081.11938	41713.6375
2084.12426	41717.4375
2087.12722	41683.1375
2090.12824	41666.3375
2093.12732	41682.3375
2096.12447	41698.9375
2099.11969	41668.0375
2102.11299	41653.5375
2105.10435	41701.4375
2108.09379	41732.4375
2111.08131	41781.5375
2114.0669	41732.9375
2117.05057	41821.5375
2120.03233	41860.4375
2123.01216	41912.6375
2125.99008	41981.3375
2128.96609	42027.9375
2131.94018	42025.7375
2134.91236	42007.3375
2137.88263	42085.6375
2140.851	42092.6375
2143.81746	42119.5375
2146.78201	42165.2375
2149.74466	42210.9375
2152.7054	42200.6375
2155.66425	42148.5375
2158.6212	42199.4375
2161.57625	42151.8375
2164.52941	42134.7375
2167.48067	42104.4375
2170.43004	42034.5375
2173.37752	42078.3375
2176.32311	42095.2375
2179.26681	42085.8375
2182.20863	42076.4375
2185.14856	42185.0375
2188.08661	42154.2375
2191.02278	42099.8375
2193.95707	42041.2375
2196.88948	42007.6375
2199.82001	42034.6375
2202.74867	41916.1375
2205.67545	41888.5375
2208.60037	41839.2375
2211.52341	41751.3375
2214.44458	41734.3375
2217.36388	41676.0375
2220.28132	41583.7375
2223.1969	41474.0375
2226.11061	41408.3375
2229.02246	41313.3375
2231.93245	41299.3375
2234.84058	41232.7375
2237.74686	41157.9375
2240.65128	41163.9375
2243.55385	41092.4375
2246.45456	41068.6375
2249.35343	41036.9375
2252.25044	40976.7375
2255.14561	40859.8375
2258.03893	40851.1375
2260.93041	40768.2375
2263.82004	40690.2375
2266.70783	40617.5375
2269.59378	40531.5375
2272.4779	40416.6375
2275.36017	40411.8375
2278.24061	40316.5375
2281.11922	40244.0375
2283.996	40107.5375
2286.87094	40147.5375
2289.74405	40096.8375
2292.61534	40004.5375
2295.4848	39961.3375
2298.35243	39962.6375
2301.21824	39954.3375
2304.08223	39924.9375
2306.94439	39868.3375
2309.80474	39850.7375
2312.66327	39874.5375
2315.51999	39777.5375
2318.37489	39749.1375
2321.22797	39723.8375
2324.07925	39662.2375
2326.92871	39533.3375
2329.77637	39501.9375
2332.62222	39411.8375
2335.46626	39422.4375
2338.3085	39388.4375
2341.14893	39309.1375
2343.98756	39290.9375
2346.8244	39309.5375
2349.65943	39258.2375
2352.49267	39258.4375
2355.32411	39276.4375
2358.15376	39249.4375
2360.98161	39230.4375
2363.80768	39205.4375
2366.63195	39186.6375
2369.45444	39111.1375
2372.27514	39085.9375
2375.09405	39065.3375
2377.91118	38992.6375
2380.72652	38905.6375
2383.54009	38833.2375
2386.35187	38781.6375
2389.16188	38648.6375
2391.97011	38576.4375
2394.77657	38588.2375
2397.58125	38493.1375
2400.38416	38446.6375
2403.18529	38408.5375
2405.98466	38326.7375
2408.78226	38271.9375
2411.57809	38221.2375
2414.37216	38237.6375
2417.16446	38167.9375
2419.955	38118.4375
2422.74378	38075.3375
2425.5308	38098.7375
2428.31606	38099.1375
2431.09956	38027.9375
2433.88131	37956.1375
2436.6613	37979.3375
2439.43954	37992.7375
2442.21603	37949.1375
2444.99077	37840.9375
2447.76377	37842.3375
2450.53501	37742.6375
2453.30451	37780.1375
2456.07226	37758.3375
2458.83827	37706.3375
2461.60254	37627.5375
2464.36507	37610.3375
2467.12586	37605.8375
2469.88492	37690.7375
2472.64224	37654.1375
2475.39782	37602.6375
2478.15167	37681.5375
2480.90379	37617.0375
2483.65417	37622.4375
2486.40283	37589.2375
2489.14976	37552.9375
2491.89497	37480.2375
2494.63845	37556.1375
2497.3802	37482.9375
2500.12024	37523.9375
2502.85855	37450.5375
2505.59514	37403.9375
2508.33002	37339.6375
2511.06318	37321.2375
2513.79462	37266.2375
2516.52435	37243.8375
2519.25237	37155.4375
2521.97867	37175.8375
2524.70327	37208.0375
2527.42616	37130.0375
2530.14734	37115.0375
2532.86681	37042.0375
2535.58458	36998.2375
2538.30065	36916.1375
2541.01501	36907.0375
2543.72768	36920.0375
2546.43864	36919.8375
2549.14791	36796.3375
2551.85548	36763.1375
2554.56136	36670.4375
2557.26554	36578.6375
2559.96803	36540.1375
2562.66883	36481.0375
2565.36794	36439.6375
2568.06536	36408.5375
2570.7611	36309.6375
2573.45514	36311.7375
2576.14751	36248.4375
2578.83819	36139.2375
2581.52719	36127.2375
2584.21451	36045.7375
2586.90015	35999.7375
2589.58411	35986.5375
2592.2664	35916.7375
2594.94701	35858.1375
2597.62594	35810.8375
2600.30321	35843.1375
2602.9788	35798.6375
2605.65273	35676.5375
2608.32498	35758.9375
2610.99557	35683.2375
2613.66449	35702.0375
2616.33175	35592.8375
2618.99734	35611.3375
2621.66128	35517.9375
2624.32355	35478.4375
2626.98416	35470.1375
2629.64311	35367.7375
2632.30041	35369.6375
2634.95605	35318.3375
2637.61004	35295.8375
2640.26238	35258.3375
2642.91306	35171.7375
2645.56209	35188.9375
2648.20948	35168.4375
2650.85521	35138.5375
2653.4993	35163.1375
2656.14175	35170.8375
2658.78255	35180.8375
2661.42171	35234.2375
2664.05923	35276.8375
2666.6951	35229.4375
2669.32934	35212.7375
2671.96194	35151.8375
2674.59291	35228.4375
2677.22224	35218.4375
2679.84993	35204.0375
2682.476	35160.2375
2685.10043	35167.0375
2687.72324	35139.9375
2690.34441	35149.2375
2692.96396	35151.3375
2695.58188	35152.3375
2698.19818	35134.1375
2700.81285	35075.3375
2703.4259	35021.5375
2706.03733	35157.8375
2708.64714	35065.7375
2711.25533	35126.2375
2713.86191	35173.5375
2716.46687	35225.3375
2719.07021	35177.6375
2721.67194	35188.6375
2724.27206	35106.7375
2726.87057	35155.4375
2729.46747	35121.6375
2732.06276	35139.3375
2734.65644	35139.4375
2737.24852	35155.4375
2739.83899	35141.0375
2742.42786	35183.1375
2745.01513	35176.2375
2747.60079	35101.9375
2750.18486	35013.2375
2752.76733	34988.0375
2755.3482	34920.8375
2757.92747	34879.7375
2760.50515	34837.5375
2763.08123	34830.8375
2765.65573	34810.5375
2768.22863	34772.7375
2770.79994	34693.6375
2773.36967	34669.8375
2775.9378	34716.7375
2778.50435	34726.7375
2781.06932	34595.7375
2783.6327	34607.1375
2786.1945	34563.1375
2788.75471	34553.4375
2791.31335	34431.5375
2793.87041	34380.1375
2796.42589	34306.3375
2798.97979	34271.6375
2801.53212	34176.3375
2804.08288	34140.1375
2806.63206	34057.6375
2809.17967	33951.8375
2811.72571	33867.6375
2814.27018	33781.2375
2816.81308	33662.8375
2819.35442	33583.9375
2821.89419	33556.2375
2824.43239	33559.2375
2826.96904	33502.7375
2829.50412	33523.8375
2832.03763	33419.4375
2834.56959	33401.7375
2837.1	33353.1375
2839.62884	33314.0375
2842.15613	33197.4375
2844.68186	33246.7375
2847.20604	33165.3375
2849.72867	33184.2375
2852.24974	33135.1375
2854.76927	33035.2375
2857.28724	33036.3375
2859.80367	33042.6375
2862.31855	32995.7375
2864.83189	32886.4375
2867.34368	32838.5375
2869.85393	32849.4375
2872.36264	32789.4375
2874.8698	32769.3375
2877.37543	32751.6375
2879.87952	32668.2375
2882.38207	32681.3375
2884.88308	32658.3375
2887.38256	32657.5375
2889.88051	32615.5375
2892.37692	32673.6375
2894.8718	32629.1375
2897.36515	32709.0375
2899.85698	32649.0375
2902.34727	32720.2375
2904.83604	32682.5375
2907.32328	32716.0375
2909.809	32718.6375
2912.29319	32732.2375
2914.77587	32759.7375
2917.25702	32727.4375
2919.73665	32703.4375
2922.21476	32676.9375
2924.69136	32623.4375
2927.16644	32641.9375
2929.64	32599.7375
2932.11205	32554.6375
2934.58258	32474.2375
2937.05161	32542.2375
2939.51912	32557.2375
2941.98513	32512.0375
2944.44962	32460.5375
2946.91261	32410.7375
2949.37409	32494.4375
2951.83407	32398.5375
2954.29254	32388.8375
2956.74951	32360.1375
2959.20498	32424.6375
2961.65895	32346.6375
2964.11142	32347.8375
2966.56239	32336.3375
2969.01186	32300.9375
2971.45984	32206.6375
2973.90632	32215.2375
2976.35131	32143.7375
2978.7948	32135.3375
2981.23681	32049.6375
2983.67732	32034.9375
2986.11635	31977.1375
2988.55388	31897.1375
2990.98993	31846.3375
2993.4245	31811.1375
2995.85758	31742.3375
2998.28917	31653.8375
3000.71928	31619.4375
3003.14791	31534.6375
3005.57506	31542.9375
3008.00073	31377.0375
3010.42493	31347.2375
3012.84764	31273.5375
3015.26888	31248.5375
3017.68865	31199.5375
3020.10694	31208.3375
3022.52376	31080.2375
3024.9391	31115.1375
3027.35298	31073.5375
3029.76539	31023.9375
3032.17632	30995.5375
3034.5858	30935.3375
3036.9938	30890.0375
3039.40034	30900.8375
3041.80542	30829.0375
3044.20903	30760.2375
3046.61118	30744.9375
3049.01187	30632.7375
3051.4111	30564.4375
3053.80888	30475.7375
3056.20519	30441.6375
3058.60005	30381.4375
3060.99345	30319.1375
3063.3854	30300.2375
3065.7759	30191.3375
3068.16494	30094.5375
3070.55254	30028.1375
3072.93868	29969.7375
3075.32338	29832.9375
3077.70662	29756.6375
3080.08842	29692.1375
3082.46878	29627.1375
3084.84769	29653.2375
3087.22515	29566.8375
3089.60118	29561.9375
3091.97576	29533.7375
3094.3489	29516.4375
3096.72061	29482.8375
3099.09087	29507.4375
3101.4597	29483.2375
3103.82709	29503.0375
3106.19305	29474.4375
3108.55757	29452.2375
3110.92066	29379.6375
3113.28232	29382.5375
3115.64255	29250.2375
3118.00134	29168.7375
3120.35871	29069.9375
3122.71466	28982.9375
3125.06917	28949.8375
3127.42226	28936.1375
3129.77393	28918.3375
3132.12417	28807.2375
3134.47299	28830.6375
3136.82039	28815.5375
3139.16636	28847.2375
3141.51092	28743.5375
3143.85406	28780.2375
3146.19579	28729.7375
3148.53609	28785.9375
3150.87499	28766.8375
3153.21246	28778.8375
3155.54853	28804.6375
3157.88318	28755.3375
3160.21642	28795.7375
3162.54826	28733.2375
3164.87868	28694.6375
3167.2077	28654.2375
3169.5353	28630.0375
3171.86151	28621.1375
3174.18631	28569.0375
3176.5097	28533.8375
3178.83169	28490.8375
3181.15228	28466.9375
3183.47147	28366.1375
3185.78926	28358.7375
3188.10565	28343.4375
3190.42065	28268.1375
3192.73424	28218.8375
3195.04645	28151.9375
3197.35725	28167.6375
3199.66667	28138.1375
3201.97469	28136.4375
3204.28132	28096.1375
3206.58656	28100.7375
3208.8904	28106.2375
3211.19287	28124.8375
3213.49394	28026.1375
3215.79363	28095.7375
3218.09193	28143.7375
3220.38884	28124.1375
3222.68438	28128.5375
3224.97853	28064.1375
3227.2713	28014.5375
3229.56269	27972.3375
3231.8527	27997.3375
3234.14133	27908.3375
3236.42858	27844.7375
3238.71446	27779.2375
3240.99896	27747.2375
3243.28209	27717.0375
3245.56384	27697.0375
3247.84423	27622.6375
3250.12324	27606.6375
3252.40088	27587.4375
3254.67715	27604.9375
3256.95205	27549.5375
3259.22558	27479.8375
3261.49775	27457.2375
3263.76855	27435.1375
3266.03799	27382.9375
3268.30606	27323.5375
3270.57277	27256.0375
3272.83812	27189.4375
3275.10211	27150.1375
3277.36474	27117.4375
3279.62601	27140.4375
3281.88593	27040.3375
3284.14448	27074.4375
3286.40168	27020.5375
3288.65753	27002.6375
3290.91202	27006.2375
3293.16516	26918.0375
3295.41695	26817.2375
3297.66738	26676.4375
3299.91647	26558.5375
3302.16421	26363.0375
3304.4106	26282.9375
3306.65564	26061.2375
3308.89933	25874.9375
3311.14169	25736.0375
3313.38269	25541.6375
3315.62236	25426.9375
3317.86068	25207.4375
3320.09766	24940.2375
3322.3333	24822.3375
3324.5676	24701.2375
3326.80056	24326.3375
3329.03219	24173.0375
3331.26248	5.8375
3333.49143	0.2375
3335.71905	0.1375
