Data from AgNPs_FTO_APTES_UA_20uM_CRN_2uM_R6G_10uM_NaF_0.1M_Addition_RamanShift__7__12-48-42-072.txt Node

Date: Thu Feb 17 12:48:42 GMT 2022
User: TCL
Spectrometer: QEP01345
Trigger mode: 4
Integration Time (sec): 7.000000E0
Scans to average: 10
Electric dark correction enabled: true
Nonlinearity correction enabled: false
Boxcar width: 0
XAxis mode: Raman Shifts
Number of Pixels in Spectrum: 1044
>>>>>Begin Spectral Data<<<<<
46.04893	-0.925
50.45542	-1.225
54.85868	-2.625
59.25871	-1.225
63.6555	122.375
68.04907	123.975
72.43941	130.175
76.82654	129.675
81.21044	138.175
85.59113	141.075
89.96862	144.175
94.34289	148.175
98.71396	152.275
103.08183	161.075
107.4465	164.975
111.80798	166.475
116.16626	173.875
120.52136	180.575
124.87327	188.575
129.222	198.275
133.56755	215.975
137.90993	232.975
142.24913	258.675
146.58517	295.475
150.91804	345.675
155.24774	412.375
159.57429	522.875
163.89768	681.475
168.21792	906.475
172.53501	1246.175
176.84895	1750.875
181.15975	2483.475
185.46741	3495.675
189.77193	4833.075
194.07331	6477.775
198.37157	8372.275
202.6667	10339.575
206.9587	12316.775
211.24758	14242.975
215.53334	16132.375
219.81599	18173.575
224.09553	20366.475
228.37195	22870.675
232.64527	25562.775
236.91549	28474.875
241.18261	31392.375
245.44663	34179.375
249.70755	36595.875
253.96539	38756.775
258.22014	40607.475
262.4718	42091.575
266.72039	43130.875
270.96589	43691.575
275.20832	43763.175
279.44768	43554.675
283.68397	43130.875
287.91719	42786.275
292.14735	42580.075
296.37445	42431.575
300.59849	42512.875
304.81948	42745.675
309.03742	42857.075
313.25231	42680.475
317.46415	42374.175
321.67296	41797.475
325.87872	41325.575
330.08145	40991.675
334.28114	41075.775
338.47781	41403.175
342.67145	41863.975
346.86207	42534.375
351.04966	43253.775
355.23424	43865.275
359.4158	44414.775
363.59435	44865.975
367.76989	45132.675
371.94243	45463.375
376.11196	45620.275
380.27849	45907.075
384.44203	46159.475
388.60257	46489.375
392.76012	47016.575
396.91468	47573.575
401.06626	48226.875
405.21485	48638.175
409.36047	48607.475
413.50311	48255.275
417.64277	48114.875
421.77947	48325.675
425.9132	48615.175
430.04396	48851.375
434.17176	49148.875
438.2966	49556.275
442.41849	50281.675
446.53742	51470.675
450.6534	52790.075
454.76644	53807.575
458.87653	54205.475
462.98368	53972.375
467.08789	53414.275
471.18916	52667.275
475.2875	51955.875
479.38291	51537.575
483.4754	51262.475
487.56496	50844.075
491.6516	50351.475
495.73531	49840.575
499.81612	49459.075
503.89401	49642.275
507.96899	49830.375
512.04106	49927.275
516.11023	49633.675
520.1765	49321.675
524.23987	49125.175
528.30034	48889.375
532.35792	48649.875
536.41261	48232.575
540.46441	47906.275
544.51333	47963.775
548.55936	48288.075
552.60252	49142.675
556.64279	50283.375
560.6802	51110.075
564.71473	51689.175
568.7464	52517.775
572.7752	53982.775
576.80114	55763.875
580.82422	57584.675
584.84444	59321.875
588.86181	61777.175
592.87633	64181.875
596.888	64026.575
600.89682	61221.375
604.9028	59754.875
608.90594	61479.075
612.90624	63472.475
616.90371	59947.875
620.89834	53385.175
624.89015	50667.275
628.87913	50464.875
632.86528	50858.675
636.84862	50821.375
640.82913	50034.475
644.80683	49136.875
648.78172	48527.775
652.75379	48491.075
656.72306	48969.875
660.68952	49592.375
664.65319	49389.875
668.61405	48815.175
672.57211	48832.475
676.52738	49076.475
680.47986	49028.975
684.42955	48822.975
688.37646	48689.675
692.32058	48989.575
696.26192	49602.475
700.20048	50249.875
704.13626	50732.075
708.06928	50832.875
711.99952	50727.375
715.927	50722.475
719.85171	50818.875
723.77365	50545.875
727.69284	50052.875
731.60928	49433.475
735.52295	49231.175
739.43388	49274.375
743.34206	49528.475
747.24749	49808.075
751.15017	50251.575
755.05012	50928.275
758.94733	52128.475
762.8418	54007.775
766.73354	56796.975
770.62254	59220.575
774.50882	59279.975
778.39237	57117.775
782.27321	54324.275
786.15132	52106.875
790.02671	50736.575
793.89938	49986.775
797.76935	49656.675
801.6366	49430.375
805.50115	49342.675
809.36299	49220.375
813.22213	48994.275
817.07857	48911.775
820.93231	48902.375
824.78336	48624.075
828.63172	48525.875
832.47738	48427.275
836.32036	48481.375
840.16066	48518.775
843.99827	48675.775
847.8332	48744.375
851.66546	48872.575
855.49504	48943.775
859.32195	48966.875
863.1462	48931.375
866.96777	48909.175
870.78668	48864.175
874.60293	48795.275
878.41652	48954.275
882.22745	49026.075
886.03573	49162.675
889.84136	49188.875
893.64433	49032.075
897.44466	48859.075
901.24235	48733.275
905.0374	48654.975
908.8298	48559.275
912.61957	48696.275
916.40671	49092.475
920.19121	49757.975
923.97308	50267.375
927.75233	50240.575
931.52895	49720.475
935.30295	49008.975
939.07433	48423.275
942.84309	48000.675
946.60924	47857.175
950.37278	47871.675
954.13371	48001.175
957.89203	47958.575
961.64774	47906.075
965.40086	47913.375
969.15137	47861.575
972.89929	47755.175
976.64461	47654.975
980.38733	47708.275
984.12747	47744.075
987.86502	48028.975
991.59999	48357.375
995.33237	48750.575
999.06217	49437.975
1002.78939	50374.675
1006.51404	51362.375
1010.23611	52299.375
1013.95561	52933.875
1017.67255	52995.275
1021.38692	52543.775
1025.09872	51678.575
1028.80796	51077.775
1032.51465	50955.975
1036.21877	51159.275
1039.92035	51265.475
1043.61937	51307.475
1047.31584	51235.475
1051.00976	51106.075
1054.70114	51209.175
1058.38998	51422.875
1062.07627	51824.175
1065.76003	52476.975
1069.44126	53125.875
1073.11995	53926.075
1076.79611	54657.675
1080.46974	55001.775
1084.14085	55350.675
1087.80943	55866.875
1091.47549	56284.875
1095.13903	56343.975
1098.80005	55790.475
1102.45857	54777.675
1106.11456	53969.775
1109.76805	53531.575
1113.41903	53484.375
1117.06751	53657.175
1120.71348	54009.475
1124.35696	54434.675
1127.99793	54706.475
1131.63641	54955.875
1135.2724	54955.175
1138.90589	54918.075
1142.5369	55195.675
1146.16542	55526.675
1149.79145	56059.175
1153.415	56574.975
1157.03607	57214.975
1160.65467	58443.675
1164.27079	60398.275
1167.88443	62838.175
1171.49561	65619.875
1175.10432	68779.075
1178.71056	72793.375
1182.31434	76523.275
1185.91565	78267.775
1189.51451	77967.075
1193.11091	76557.675
1196.70485	74677.175
1200.29634	72733.375
1203.88538	71467.075
1207.47197	70916.475
1211.05612	70564.075
1214.63782	69614.175
1218.21708	68125.775
1221.79391	66576.175
1225.36829	65617.075
1228.94024	64971.175
1232.50976	64152.175
1236.07685	63186.675
1239.6415	62502.875
1243.20374	62483.375
1246.76355	62888.475
1250.32093	63720.375
1253.8759	64810.875
1257.42845	66230.075
1260.97859	67897.175
1264.52631	69583.775
1268.07163	71327.375
1271.61453	73060.475
1275.15503	74638.575
1278.69312	76404.875
1282.22882	78278.775
1285.76211	80654.375
1289.29301	83451.175
1292.82151	86816.275
1296.34761	90873.475
1299.87133	95438.075
1303.39266	100110.075
1306.9116	104199.575
1310.42815	107243.575
1313.94233	108719.575
1317.45412	108121.075
1320.96354	106408.575
1324.47058	105040.975
1327.97525	104073.875
1331.47754	103235.775
1334.97747	102378.075
1338.47502	101634.975
1341.97022	101025.175
1345.46305	100081.375
1348.95352	99193.975
1352.44163	98613.175
1355.92738	99539.475
1359.41078	102000.275
1362.89183	104041.975
1366.37053	102718.175
1369.84688	96622.775
1373.32088	88246.475
1376.79254	82344.475
1380.26186	80258.175
1383.72883	80558.975
1387.19347	80951.775
1390.65578	80482.075
1394.11575	80256.675
1397.57339	80733.375
1401.0287	81692.675
1404.48168	82417.475
1407.93234	82271.075
1411.38068	80873.875
1414.82669	78636.175
1418.27039	76089.775
1421.71177	73526.375
1425.15083	71506.475
1428.58758	70749.575
1432.02203	71402.675
1435.45416	73163.575
1438.88399	75192.475
1442.31151	76736.875
1445.73673	77443.675
1449.15965	77825.175
1452.58027	77730.375
1455.9986	77613.975
1459.41463	78024.275
1462.82837	79034.975
1466.23982	80221.675
1469.64898	81386.175
1473.05586	82219.775
1476.46045	82426.775
1479.86276	82078.075
1483.26279	81471.975
1486.66054	81042.775
1490.05602	81213.875
1493.44922	81937.775
1496.84016	82558.975
1500.22882	83574.675
1503.61521	85027.475
1506.99934	86509.475
1510.38121	87545.575
1513.76081	87385.475
1517.13816	86168.075
1520.51324	84679.875
1523.88607	84062.575
1527.25665	84466.675
1530.62498	85171.975
1533.99105	85244.375
1537.35488	84241.875
1540.71647	82483.775
1544.07581	80402.975
1547.4329	78326.775
1550.78776	76604.975
1554.14038	75320.075
1557.49077	74535.575
1560.83892	74053.875
1564.18484	73794.475
1567.52853	73801.475
1570.86999	74218.475
1574.20922	75378.375
1577.54624	76371.575
1580.88103	76808.075
1584.2136	77609.175
1587.54395	79907.375
1590.87208	83727.175
1594.19801	88342.975
1597.52172	92502.275
1600.84321	93451.475
1604.16251	89601.775
1607.47959	83533.475
1610.79447	77044.175
1614.10715	71482.275
1617.41763	66837.275
1620.7259	63679.875
1624.03199	62202.575
1627.33587	62218.875
1630.63757	63788.975
1633.93707	67394.575
1637.23439	73511.475
1640.52951	82613.575
1643.82246	93149.975
1647.11321	101017.575
1650.40179	101440.075
1653.68819	93813.375
1656.97241	82190.575
1660.25446	71525.075
1663.53433	63722.975
1666.81203	58760.475
1670.08756	55769.875
1673.36092	53775.575
1676.63211	52476.075
1679.90115	51597.575
1683.16801	50810.475
1686.43272	50358.775
1689.69527	49979.375
1692.95567	49670.675
1696.2139	49487.175
1699.46999	49403.075
1702.72392	49272.975
1705.97571	49149.375
1709.22535	49108.175
1712.47284	48966.575
1715.71819	49020.875
1718.96139	48897.675
1722.20246	48723.575
1725.44139	48601.475
1728.67818	48434.975
1731.91284	48181.575
1735.14537	47925.875
1738.37576	47755.675
1741.60403	47697.375
1744.83017	47467.175
1748.05418	47376.275
1751.27607	47244.175
1754.49584	47211.475
1757.71349	47214.875
1760.92903	47184.575
1764.14244	47156.375
1767.35375	47171.375
1770.56294	47095.875
1773.77002	47019.475
1776.97499	47026.175
1780.17785	46910.175
1783.37861	46881.075
1786.57727	46756.975
1789.77382	46675.675
1792.96828	46630.575
1796.16064	46604.575
1799.3509	46537.675
1802.53907	46459.375
1805.72514	46373.075
1808.90913	46258.875
1812.09102	46153.675
1815.27083	46159.075
1818.44856	46106.875
1821.6242	46033.275
1824.79776	46005.775
1827.96924	45969.875
1831.13864	45941.375
1834.30597	46007.075
1837.47122	45922.275
1840.6344	45860.575
1843.7955	45937.375
1846.95454	45951.375
1850.11151	45874.875
1853.26642	45872.175
1856.41926	45825.675
1859.57004	45762.675
1862.71876	45729.375
1865.86542	45660.975
1869.01003	45652.275
1872.15258	45607.375
1875.29308	45561.975
1878.43152	45507.975
1881.56792	45508.375
1884.70227	45515.075
1887.83457	45520.775
1890.96482	45483.775
1894.09304	45368.075
1897.21921	45331.375
1900.34335	45258.075
1903.46544	45227.475
1906.58551	45267.375
1909.70353	45228.275
1912.81953	45201.975
1915.93349	45113.375
1919.04543	44977.975
1922.15534	44926.275
1925.26322	44896.275
1928.36908	44793.175
1931.47292	44750.175
1934.57473	44664.375
1937.67453	44584.275
1940.77232	44466.775
1943.86808	44301.575
1946.96184	44246.575
1950.05358	44134.875
1953.14331	44055.475
1956.23103	43975.875
1959.31675	43807.975
1962.40046	43639.575
1965.48217	43499.775
1968.56188	43384.075
1971.63959	43277.875
1974.7153	43252.375
1977.78901	43081.675
1980.86073	42969.775
1983.93046	42861.275
1986.99819	42689.275
1990.06394	42735.675
1993.1277	42642.575
1996.18947	42480.075
1999.24925	42436.675
2002.30706	42277.475
2005.36288	42140.675
2008.41672	42010.175
2011.46859	41906.875
2014.51848	41813.875
2017.56639	41631.275
2020.61233	41565.975
2023.6563	41515.875
2026.6983	41423.075
2029.73833	41285.775
2032.7764	41282.575
2035.8125	41190.875
2038.84664	41149.775
2041.87881	41132.775
2044.90903	40942.575
2047.93729	40912.075
2050.96359	40900.575
2053.98794	40856.275
2057.01034	40886.075
2060.03078	40881.875
2063.04927	40862.375
2066.06582	40856.775
2069.08042	40865.275
2072.09307	40789.475
2075.10378	40721.975
2078.11255	40668.675
2081.11938	40773.275
2084.12426	40696.575
2087.12722	40707.375
2090.12824	40637.475
2093.12732	40748.275
2096.12447	40717.775
2099.11969	40693.075
2102.11299	40674.175
2105.10435	40692.875
2108.09379	40720.975
2111.08131	40872.575
2114.0669	40721.575
2117.05057	40747.975
2120.03233	40862.475
2123.01216	40894.875
2125.99008	40893.875
2128.96609	40972.675
2131.94018	41027.775
2134.91236	41100.575
2137.88263	41144.375
2140.851	41130.675
2143.81746	41193.475
2146.78201	41175.375
2149.74466	41243.475
2152.7054	41194.775
2155.66425	41237.675
2158.6212	41204.175
2161.57625	41203.075
2164.52941	41192.475
2167.48067	41166.075
2170.43004	41170.475
2173.37752	41126.575
2176.32311	41197.275
2179.26681	41277.075
2182.20863	41210.675
2185.14856	41242.575
2188.08661	41263.375
2191.02278	41241.575
2193.95707	41204.975
2196.88948	41159.575
2199.82001	41154.375
2202.74867	41098.475
2205.67545	41048.675
2208.60037	40949.675
2211.52341	40978.475
2214.44458	40905.575
2217.36388	40867.175
2220.28132	40784.775
2223.1969	40788.075
2226.11061	40698.175
2229.02246	40549.375
2231.93245	40499.975
2234.84058	40468.575
2237.74686	40486.375
2240.65128	40481.275
2243.55385	40390.275
2246.45456	40352.375
2249.35343	40305.675
2252.25044	40215.175
2255.14561	40107.875
2258.03893	40111.375
2260.93041	40029.575
2263.82004	39898.075
2266.70783	39841.475
2269.59378	39730.075
2272.4779	39683.675
2275.36017	39639.475
2278.24061	39579.675
2281.11922	39472.075
2283.996	39419.075
2286.87094	39390.375
2289.74405	39360.575
2292.61534	39372.875
2295.4848	39322.775
2298.35243	39335.175
2301.21824	39286.275
2304.08223	39259.875
2306.94439	39256.475
2309.80474	39259.575
2312.66327	39210.675
2315.51999	39229.975
2318.37489	39126.775
2321.22797	39038.775
2324.07925	39104.375
2326.92871	38968.275
2329.77637	38926.275
2332.62222	38857.375
2335.46626	38887.775
2338.3085	38835.075
2341.14893	38850.475
2343.98756	38800.375
2346.8244	38792.675
2349.65943	38786.575
2352.49267	38795.675
2355.32411	38823.175
2358.15376	38757.875
2360.98161	38778.675
2363.80768	38722.275
2366.63195	38675.875
2369.45444	38653.275
2372.27514	38699.275
2375.09405	38668.275
2377.91118	38556.175
2380.72652	38496.275
2383.54009	38397.775
2386.35187	38283.475
2389.16188	38234.675
2391.97011	38184.375
2394.77657	38119.275
2397.58125	38073.975
2400.38416	38016.275
2403.18529	37913.775
2405.98466	37947.975
2408.78226	37876.975
2411.57809	37850.575
2414.37216	37796.475
2417.16446	37807.475
2419.955	37808.375
2422.74378	37783.775
2425.5308	37765.775
2428.31606	37723.475
2431.09956	37744.175
2433.88131	37736.875
2436.6613	37699.875
2439.43954	37691.375
2442.21603	37697.775
2444.99077	37605.075
2447.76377	37649.875
2450.53501	37572.775
2453.30451	37567.275
2456.07226	37551.475
2458.83827	37540.275
2461.60254	37478.075
2464.36507	37501.075
2467.12586	37475.475
2469.88492	37525.175
2472.64224	37474.875
2475.39782	37483.575
2478.15167	37499.675
2480.90379	37514.175
2483.65417	37527.575
2486.40283	37490.075
2489.14976	37501.175
2491.89497	37464.075
2494.63845	37479.775
2497.3802	37517.175
2500.12024	37476.575
2502.85855	37406.175
2505.59514	37384.175
2508.33002	37351.475
2511.06318	37342.875
2513.79462	37325.275
2516.52435	37283.275
2519.25237	37317.575
2521.97867	37307.075
2524.70327	37235.075
2527.42616	37187.975
2530.14734	37184.775
2532.86681	37138.775
2535.58458	37147.075
2538.30065	37128.875
2541.01501	37089.175
2543.72768	37106.775
2546.43864	37092.575
2549.14791	37004.175
2551.85548	36995.175
2554.56136	36869.975
2557.26554	36772.675
2559.96803	36772.975
2562.66883	36762.975
2565.36794	36754.675
2568.06536	36694.075
2570.7611	36608.375
2573.45514	36573.875
2576.14751	36531.575
2578.83819	36531.075
2581.52719	36526.175
2584.21451	36440.575
2586.90015	36420.175
2589.58411	36387.375
2592.2664	36421.575
2594.94701	36310.875
2597.62594	36335.375
2600.30321	36304.775
2602.9788	36339.375
2605.65273	36309.575
2608.32498	36312.375
2610.99557	36256.275
2613.66449	36283.275
2616.33175	36240.175
2618.99734	36171.975
2621.66128	36083.075
2624.32355	36045.375
2626.98416	36021.175
2629.64311	35956.175
2632.30041	35986.175
2634.95605	35942.975
2637.61004	35915.575
2640.26238	35877.375
2642.91306	35891.675
2645.56209	35849.675
2648.20948	35869.875
2650.85521	35873.375
2653.4993	35898.675
2656.14175	35908.775
2658.78255	35943.875
2661.42171	35970.675
2664.05923	36017.775
2666.6951	35960.275
2669.32934	36045.875
2671.96194	36033.875
2674.59291	36059.275
2677.22224	36028.675
2679.84993	36075.675
2682.476	35963.475
2685.10043	35973.375
2687.72324	35961.975
2690.34441	35941.775
2692.96396	35969.975
2695.58188	36025.275
2698.19818	35963.775
2700.81285	35957.775
2703.4259	35959.575
2706.03733	36011.275
2708.64714	36008.775
2711.25533	36031.575
2713.86191	36041.275
2716.46687	36099.475
2719.07021	36097.075
2721.67194	36115.275
2724.27206	36086.075
2726.87057	36133.475
2729.46747	36142.975
2732.06276	36151.075
2734.65644	36151.075
2737.24852	36160.275
2739.83899	36117.875
2742.42786	36115.375
2745.01513	36101.475
2747.60079	36081.175
2750.18486	36087.275
2752.76733	36041.275
2755.3482	35979.175
2757.92747	36001.975
2760.50515	35950.875
2763.08123	35883.175
2765.65573	35887.875
2768.22863	35918.775
2770.79994	35836.475
2773.36967	35843.375
2775.9378	35890.875
2778.50435	35868.575
2781.06932	35820.375
2783.6327	35809.475
2786.1945	35802.275
2788.75471	35704.275
2791.31335	35649.375
2793.87041	35607.175
2796.42589	35538.975
2798.97979	35520.075
2801.53212	35370.975
2804.08288	35329.175
2806.63206	35284.575
2809.17967	35250.675
2811.72571	35145.775
2814.27018	34989.075
2816.81308	34913.875
2819.35442	34835.675
2821.89419	34774.975
2824.43239	34789.275
2826.96904	34809.175
2829.50412	34809.875
2832.03763	34664.475
2834.56959	34665.675
2837.1	34588.075
2839.62884	34577.175
2842.15613	34539.175
2844.68186	34554.875
2847.20604	34519.175
2849.72867	34519.775
2852.24974	34439.175
2854.76927	34355.375
2857.28724	34389.175
2859.80367	34390.975
2862.31855	34347.675
2864.83189	34283.075
2867.34368	34188.675
2869.85393	34146.275
2872.36264	34120.275
2874.8698	34081.475
2877.37543	34047.275
2879.87952	34029.575
2882.38207	34038.075
2884.88308	34051.775
2887.38256	34058.275
2889.88051	34045.275
2892.37692	34055.475
2894.8718	34039.275
2897.36515	34103.175
2899.85698	34100.375
2902.34727	34160.875
2904.83604	34160.075
2907.32328	34174.975
2909.809	34175.375
2912.29319	34272.375
2914.77587	34239.975
2917.25702	34209.475
2919.73665	34170.875
2922.21476	34163.175
2924.69136	34134.775
2927.16644	34163.175
2929.64	34105.475
2932.11205	34128.875
2934.58258	33990.975
2937.05161	34100.575
2939.51912	34066.375
2941.98513	33955.175
2944.44962	33952.375
2946.91261	33914.975
2949.37409	33976.675
2951.83407	33916.975
2954.29254	33841.375
2956.74951	33839.675
2959.20498	33913.275
2961.65895	33865.875
2964.11142	33869.775
2966.56239	33848.275
2969.01186	33847.575
2971.45984	33701.875
2973.90632	33680.775
2976.35131	33636.675
2978.7948	33571.875
2981.23681	33551.175
2983.67732	33468.775
2986.11635	33423.375
2988.55388	33350.475
2990.98993	33328.275
2993.4245	33238.975
2995.85758	33162.975
2998.28917	33044.175
3000.71928	32961.475
3003.14791	32886.175
3005.57506	32918.975
3008.00073	32803.075
3010.42493	32773.875
3012.84764	32661.775
3015.26888	32630.875
3017.68865	32580.975
3020.10694	32531.675
3022.52376	32438.475
3024.9391	32434.175
3027.35298	32380.675
3029.76539	32392.575
3032.17632	32373.475
3034.5858	32352.475
3036.9938	32330.775
3039.40034	32243.175
3041.80542	32264.375
3044.20903	32192.175
3046.61118	32165.775
3049.01187	32066.175
3051.4111	32034.275
3053.80888	31953.575
3056.20519	31888.575
3058.60005	31799.575
3060.99345	31767.575
3063.3854	31676.075
3065.7759	31561.875
3068.16494	31533.975
3070.55254	31388.675
3072.93868	31300.575
3075.32338	31225.775
3077.70662	31177.375
3080.08842	31088.375
3082.46878	31005.675
3084.84769	30955.175
3087.22515	30965.775
3089.60118	30937.475
3091.97576	30899.775
3094.3489	30836.175
3096.72061	30858.175
3099.09087	30896.275
3101.4597	30845.275
3103.82709	30850.375
3106.19305	30806.675
3108.55757	30808.375
3110.92066	30720.675
3113.28232	30723.775
3115.64255	30602.075
3118.00134	30469.875
3120.35871	30409.575
3122.71466	30305.675
3125.06917	30296.775
3127.42226	30234.475
3129.77393	30230.975
3132.12417	30177.875
3134.47299	30133.575
3136.82039	30103.775
3139.16636	30108.675
3141.51092	30046.275
3143.85406	30058.975
3146.19579	30043.175
3148.53609	29982.775
3150.87499	30053.475
3153.21246	29979.175
3155.54853	30075.275
3157.88318	29996.175
3160.21642	30039.775
3162.54826	30005.075
3164.87868	29905.975
3167.2077	29896.575
3169.5353	29888.875
3171.86151	29864.775
3174.18631	29887.475
3176.5097	29844.575
3178.83169	29755.475
3181.15228	29754.475
3183.47147	29636.275
3185.78926	29650.375
3188.10565	29587.975
3190.42065	29547.175
3192.73424	29490.175
3195.04645	29464.975
3197.35725	29439.275
3199.66667	29367.575
3201.97469	29374.075
3204.28132	29308.875
3206.58656	29358.575
3208.8904	29288.075
3211.19287	29371.775
3213.49394	29316.675
3215.79363	29337.975
3218.09193	29362.675
3220.38884	29336.575
3222.68438	29368.175
3224.97853	29270.175
3227.2713	29211.075
3229.56269	29198.675
3231.8527	29245.575
3234.14133	29177.775
3236.42858	29032.675
3238.71446	29022.175
3240.99896	28985.775
3243.28209	28978.475
3245.56384	28950.875
3247.84423	28899.975
3250.12324	28832.175
3252.40088	28842.475
3254.67715	28811.575
3256.95205	28743.375
3259.22558	28740.075
3261.49775	28725.975
3263.76855	28627.575
3266.03799	28576.575
3268.30606	28545.875
3270.57277	28461.475
3272.83812	28444.775
3275.10211	28391.275
3277.36474	28336.675
3279.62601	28313.475
3281.88593	28294.575
3284.14448	28331.875
3286.40168	28320.575
3288.65753	28257.075
3290.91202	28218.275
3293.16516	28161.775
3295.41695	28141.875
3297.66738	27923.575
3299.91647	27779.375
3302.16421	27592.975
3304.4106	27496.375
3306.65564	27312.375
3308.89933	27121.775
3311.14169	26896.975
3313.38269	26710.175
3315.62236	26550.275
3317.86068	26309.975
3320.09766	26075.475
3322.3333	25888.175
3324.5676	25761.875
3326.80056	25415.275
3329.03219	25226.075
3331.26248	5.775
3333.49143	0.975
3335.71905	-0.625
