Data from AgNPs_FTO_APTES_UA_20uM_CRN_1uM_R6G_10uM_NaF_0.1M_Addition_RamanShift__26__12-32-22-051.txt Node

Date: Thu Feb 17 12:32:22 GMT 2022
User: TCL
Spectrometer: QEP01345
Trigger mode: 4
Integration Time (sec): 7.000000E0
Scans to average: 10
Electric dark correction enabled: true
Nonlinearity correction enabled: false
Boxcar width: 0
XAxis mode: Raman Shifts
Number of Pixels in Spectrum: 1044
>>>>>Begin Spectral Data<<<<<
46.04893	-0.275
50.45542	-0.675
54.85868	-3.775
59.25871	-1.175
63.6555	116.525
68.04907	118.425
72.43941	123.825
76.82654	128.825
81.21044	132.025
85.59113	133.625
89.96862	133.625
94.34289	142.525
98.71396	144.625
103.08183	146.125
107.4465	152.925
111.80798	156.325
116.16626	160.625
120.52136	169.425
124.87327	172.125
129.222	182.425
133.56755	199.325
137.90993	214.025
142.24913	238.125
146.58517	264.725
150.91804	309.325
155.24774	369.525
159.57429	466.425
163.89768	595.025
168.21792	801.025
172.53501	1102.125
176.84895	1538.525
181.15975	2167.925
185.46741	3041.525
189.77193	4194.125
194.07331	5647.725
198.37157	7251.525
202.6667	9001.525
206.9587	10726.025
211.24758	12436.025
215.53334	14166.925
219.81599	16021.825
224.09553	18067.725
228.37195	20394.125
232.64527	22916.125
236.91549	25591.825
241.18261	28250.425
245.44663	30593.925
249.70755	32771.725
253.96539	34652.825
258.22014	36274.525
262.4718	37647.925
266.72039	38691.725
270.96589	39196.925
275.20832	39298.425
279.44768	39108.625
283.68397	38826.725
287.91719	38536.225
292.14735	38414.525
296.37445	38538.125
300.59849	38852.925
304.81948	39302.325
309.03742	39599.425
313.25231	39289.025
317.46415	38369.225
321.67296	37018.525
325.87872	36011.425
330.08145	35532.825
334.28114	35605.925
338.47781	36126.425
342.67145	36734.225
346.86207	37643.125
351.04966	38784.625
355.23424	40087.225
359.4158	41155.525
363.59435	41868.925
367.76989	42270.225
371.94243	42554.925
376.11196	42736.425
380.27849	42923.425
384.44203	42998.025
388.60257	43042.425
392.76012	43250.225
396.91468	43742.525
401.06626	44537.525
405.21485	45269.825
409.36047	45174.725
413.50311	44443.225
417.64277	43762.825
421.77947	43594.225
425.9132	43701.225
430.04396	43997.025
434.17176	44393.325
438.2966	45029.125
442.41849	45936.825
446.53742	47313.225
450.6534	48765.725
454.76644	50011.225
458.87653	50456.425
462.98368	50221.725
467.08789	49395.825
471.18916	48335.725
475.2875	47286.625
479.38291	46670.425
483.4754	46143.825
487.56496	45520.525
491.6516	45028.425
495.73531	44527.425
499.81612	44293.025
503.89401	44491.425
507.96899	44623.725
512.04106	44704.825
516.11023	44690.825
520.1765	44825.325
524.23987	44712.425
528.30034	44370.125
532.35792	43940.225
536.41261	43477.025
540.46441	43029.525
544.51333	42921.625
548.55936	43333.025
552.60252	44139.325
556.64279	45120.625
560.6802	45697.425
564.71473	46158.225
568.7464	47120.225
572.7752	48203.025
576.80114	48413.025
580.82422	48408.125
584.84444	48665.925
588.86181	49180.025
592.87633	50023.425
596.888	50527.125
600.89682	50776.925
604.9028	53257.325
608.90594	60033.425
612.90624	67409.825
616.90371	64060.025
620.89834	52645.025
624.89015	47769.825
628.87913	47029.225
632.86528	46797.025
636.84862	46303.925
640.82913	45442.225
644.80683	44256.825
648.78172	43408.225
652.75379	43474.125
656.72306	44367.425
660.68952	45533.825
664.65319	45505.925
668.61405	44601.525
672.57211	44160.025
676.52738	44132.125
680.47986	44126.925
684.42955	44123.525
688.37646	44075.925
692.32058	44392.925
696.26192	44781.525
700.20048	45302.925
704.13626	45624.825
708.06928	45455.125
711.99952	45116.525
715.927	45067.325
719.85171	45172.725
723.77365	45019.625
727.69284	44623.425
731.60928	44308.025
735.52295	44323.525
739.43388	44513.325
743.34206	44857.025
747.24749	45214.525
751.15017	45666.225
755.05012	46551.125
758.94733	47995.625
762.8418	50694.125
766.73354	54828.925
770.62254	58886.525
774.50882	60004.225
778.39237	57474.225
782.27321	52917.025
786.15132	48908.525
790.02671	46656.625
793.89938	45616.025
797.76935	45256.625
801.6366	45136.425
805.50115	45001.525
809.36299	44832.625
813.22213	44589.325
817.07857	44558.125
820.93231	44626.825
824.78336	44640.725
828.63172	44787.625
832.47738	44886.225
836.32036	45065.125
840.16066	45256.625
843.99827	45480.425
847.8332	45395.725
851.66546	45174.525
855.49504	44981.325
859.32195	45032.025
863.1462	44796.925
866.96777	44607.025
870.78668	44526.225
874.60293	44566.225
878.41652	44655.125
882.22745	44862.925
886.03573	45006.925
889.84136	44976.225
893.64433	44780.325
897.44466	44646.925
901.24235	44536.025
905.0374	44546.825
908.8298	44472.025
912.61957	44636.725
916.40671	44957.925
920.19121	45644.425
923.97308	46294.125
927.75233	46657.825
931.52895	46606.525
935.30295	46039.925
939.07433	45282.425
942.84309	44708.425
946.60924	44575.225
950.37278	44392.825
954.13371	44129.025
957.89203	43721.225
961.64774	43620.625
965.40086	43523.025
969.15137	43383.025
972.89929	43234.925
976.64461	43145.125
980.38733	43246.825
984.12747	43433.325
987.86502	43854.625
991.59999	44465.225
995.33237	45609.625
999.06217	47365.725
1002.78939	49483.125
1006.51404	50845.325
1010.23611	51588.425
1013.95561	52005.525
1017.67255	52078.025
1021.38692	51542.625
1025.09872	51355.425
1028.80796	52229.725
1032.51465	54248.125
1036.21877	55914.925
1039.92035	56052.425
1043.61937	54906.625
1047.31584	52905.225
1051.00976	50741.225
1054.70114	49544.525
1058.38998	49088.725
1062.07627	49123.625
1065.76003	49248.325
1069.44126	49485.825
1073.11995	49854.225
1076.79611	50182.125
1080.46974	50575.125
1084.14085	51070.525
1087.80943	51758.825
1091.47549	51864.725
1095.13903	51403.325
1098.80005	50540.425
1102.45857	49699.225
1106.11456	49233.625
1109.76805	49406.425
1113.41903	49912.925
1117.06751	50615.025
1120.71348	51355.425
1124.35696	51988.225
1127.99793	52555.825
1131.63641	52479.125
1135.2724	51792.425
1138.90589	51076.525
1142.5369	50595.625
1146.16542	50372.325
1149.79145	50410.425
1153.415	50766.225
1157.03607	51356.025
1160.65467	52270.625
1164.27079	53728.925
1167.88443	55909.025
1171.49561	59205.025
1175.10432	63835.425
1178.71056	69943.825
1182.31434	75426.325
1185.91565	78096.425
1189.51451	77773.725
1193.11091	74855.525
1196.70485	70929.125
1200.29634	67694.125
1203.88538	65256.425
1207.47197	63219.725
1211.05612	61582.225
1214.63782	60747.125
1218.21708	60829.225
1221.79391	61358.225
1225.36829	61465.525
1228.94024	60784.425
1232.50976	59760.925
1236.07685	58974.725
1239.6415	58821.925
1243.20374	58931.625
1246.76355	59410.525
1250.32093	60378.325
1253.8759	61823.625
1257.42845	63699.525
1260.97859	65255.525
1264.52631	66402.825
1268.07163	67740.425
1271.61453	69378.425
1275.15503	71364.725
1278.69312	73419.725
1282.22882	75083.125
1285.76211	76551.225
1289.29301	78000.125
1292.82151	79776.225
1296.34761	82197.725
1299.87133	86063.925
1303.39266	91155.625
1306.9116	98027.425
1310.42815	105108.425
1313.94233	109336.125
1317.45412	108910.825
1320.96354	105475.925
1324.47058	101234.925
1327.97525	97589.225
1331.47754	95313.925
1334.97747	95017.925
1338.47502	96295.125
1341.97022	97920.025
1345.46305	98340.125
1348.95352	97764.725
1352.44163	97286.125
1355.92738	99530.925
1359.41078	105187.725
1362.89183	110387.025
1366.37053	107557.625
1369.84688	97146.425
1373.32088	86426.225
1376.79254	79401.525
1380.26186	75886.925
1383.72883	74458.025
1387.19347	73553.425
1390.65578	72842.125
1394.11575	72952.525
1397.57339	73975.925
1401.0287	75697.725
1404.48168	77662.025
1407.93234	79626.525
1411.38068	80947.725
1414.82669	80785.825
1418.27039	78764.525
1421.71177	75682.125
1425.15083	72924.625
1428.58758	71469.425
1432.02203	71412.925
1435.45416	72054.025
1438.88399	72740.725
1442.31151	73421.025
1445.73673	74241.825
1449.15965	74964.325
1452.58027	75263.625
1455.9986	74964.325
1459.41463	75039.325
1462.82837	75772.225
1466.23982	77071.325
1469.64898	78536.425
1473.05586	79576.425
1476.46045	80113.325
1479.86276	80755.725
1483.26279	81384.625
1486.66054	82095.425
1490.05602	83262.525
1493.44922	84603.925
1496.84016	85726.425
1500.22882	87274.425
1503.61521	89772.825
1506.99934	93167.125
1510.38121	96356.025
1513.76081	97215.625
1517.13816	94378.725
1520.51324	89242.225
1523.88607	84672.225
1527.25665	81644.425
1530.62498	79965.725
1533.99105	79007.225
1537.35488	78462.825
1540.71647	78110.125
1544.07581	77727.725
1547.4329	77035.825
1550.78776	76130.225
1554.14038	75297.225
1557.49077	74979.725
1560.83892	74757.925
1564.18484	74739.925
1567.52853	74497.825
1570.86999	74269.825
1574.20922	74325.525
1577.54624	74284.625
1580.88103	73645.825
1584.2136	73200.625
1587.54395	74757.725
1590.87208	78648.925
1594.19801	84706.725
1597.52172	91277.425
1600.84321	94324.525
1604.16251	91399.125
1607.47959	84834.525
1610.79447	77422.625
1614.10715	70807.425
1617.41763	65756.925
1620.7259	62527.725
1624.03199	61091.625
1627.33587	61228.125
1630.63757	62927.725
1633.93707	66247.125
1637.23439	70788.925
1640.52951	76468.725
1643.82246	82491.525
1647.11321	87422.325
1650.40179	88373.325
1653.68819	83567.225
1656.97241	74488.125
1660.25446	65429.925
1663.53433	58918.025
1666.81203	54812.425
1670.08756	52244.825
1673.36092	50651.125
1676.63211	49562.225
1679.90115	48756.125
1683.16801	48101.025
1686.43272	47751.325
1689.69527	47466.325
1692.95567	47182.325
1696.2139	47082.825
1699.46999	47055.425
1702.72392	46945.525
1705.97571	46946.625
1709.22535	46882.425
1712.47284	46849.525
1715.71819	46883.825
1718.96139	46822.425
1722.20246	46749.325
1725.44139	46541.525
1728.67818	46371.825
1731.91284	46146.325
1735.14537	45969.325
1738.37576	45793.825
1741.60403	45717.225
1744.83017	45527.325
1748.05418	45408.725
1751.27607	45402.325
1754.49584	45348.825
1757.71349	45386.225
1760.92903	45469.625
1764.14244	45319.725
1767.35375	45271.725
1770.56294	45296.425
1773.77002	45318.325
1776.97499	45293.725
1780.17785	45229.725
1783.37861	45233.125
1786.57727	45125.825
1789.77382	45103.325
1792.96828	45074.025
1796.16064	45128.825
1799.3509	45083.425
1802.53907	45064.725
1805.72514	44973.925
1808.90913	44871.525
1812.09102	44807.825
1815.27083	44740.425
1818.44856	44646.625
1821.6242	44624.325
1824.79776	44546.225
1827.96924	44603.025
1831.13864	44558.825
1834.30597	44565.625
1837.47122	44524.425
1840.6344	44462.025
1843.7955	44480.925
1846.95454	44515.725
1850.11151	44592.825
1853.26642	44563.925
1856.41926	44554.525
1859.57004	44612.825
1862.71876	44586.825
1865.86542	44580.825
1869.01003	44558.825
1872.15258	44581.925
1875.29308	44647.925
1878.43152	44607.625
1881.56792	44690.925
1884.70227	44689.525
1887.83457	44705.225
1890.96482	44737.525
1894.09304	44665.125
1897.21921	44599.325
1900.34335	44637.425
1903.46544	44605.225
1906.58551	44658.225
1909.70353	44706.725
1912.81953	44727.025
1915.93349	44685.125
1919.04543	44584.525
1922.15534	44538.325
1925.26322	44497.925
1928.36908	44420.225
1931.47292	44350.925
1934.57473	44249.825
1937.67453	44166.525
1940.77232	44020.525
1943.86808	43855.225
1946.96184	43703.825
1950.05358	43622.225
1953.14331	43470.125
1956.23103	43306.425
1959.31675	43202.525
1962.40046	43076.725
1965.48217	42895.125
1968.56188	42886.325
1971.63959	42779.625
1974.7153	42683.925
1977.78901	42558.425
1980.86073	42429.125
1983.93046	42307.625
1986.99819	42233.225
1990.06394	42100.425
1993.1277	42019.725
1996.18947	41879.525
1999.24925	41814.425
2002.30706	41676.625
2005.36288	41578.325
2008.41672	41477.125
2011.46859	41361.025
2014.51848	41262.525
2017.56639	41238.925
2020.61233	41106.925
2023.6563	40979.425
2026.6983	40872.625
2029.73833	40844.225
2032.7764	40773.225
2035.8125	40739.225
2038.84664	40686.725
2041.87881	40689.325
2044.90903	40636.125
2047.93729	40547.125
2050.96359	40544.525
2053.98794	40467.425
2057.01034	40448.125
2060.03078	40466.825
2063.04927	40468.725
2066.06582	40436.825
2069.08042	40340.625
2072.09307	40345.325
2075.10378	40234.725
2078.11255	40203.625
2081.11938	40202.025
2084.12426	40156.425
2087.12722	40126.525
2090.12824	40137.225
2093.12732	40119.025
2096.12447	40107.125
2099.11969	40114.725
2102.11299	40104.425
2105.10435	40122.525
2108.09379	40134.025
2111.08131	40200.125
2114.0669	40190.425
2117.05057	40205.425
2120.03233	40274.225
2123.01216	40243.225
2125.99008	40313.825
2128.96609	40373.025
2131.94018	40401.125
2134.91236	40487.325
2137.88263	40512.425
2140.851	40558.925
2143.81746	40556.925
2146.78201	40574.625
2149.74466	40627.225
2152.7054	40655.625
2155.66425	40627.925
2158.6212	40686.725
2161.57625	40550.325
2164.52941	40595.525
2167.48067	40592.025
2170.43004	40619.425
2173.37752	40559.525
2176.32311	40631.525
2179.26681	40680.225
2182.20863	40687.825
2185.14856	40752.025
2188.08661	40708.725
2191.02278	40726.225
2193.95707	40644.525
2196.88948	40651.125
2199.82001	40709.125
2202.74867	40675.625
2205.67545	40703.125
2208.60037	40679.525
2211.52341	40665.325
2214.44458	40718.725
2217.36388	40626.425
2220.28132	40585.525
2223.1969	40503.425
2226.11061	40461.225
2229.02246	40314.025
2231.93245	40292.125
2234.84058	40208.025
2237.74686	40158.725
2240.65128	40161.625
2243.55385	40054.625
2246.45456	40022.325
2249.35343	39969.425
2252.25044	39928.225
2255.14561	39896.325
2258.03893	39865.125
2260.93041	39835.325
2263.82004	39691.925
2266.70783	39642.225
2269.59378	39488.225
2272.4779	39434.625
2275.36017	39365.625
2278.24061	39346.925
2281.11922	39249.025
2283.996	39242.025
2286.87094	39194.625
2289.74405	39161.725
2292.61534	39145.025
2295.4848	39141.325
2298.35243	39248.125
2301.21824	39140.125
2304.08223	39158.425
2306.94439	39203.225
2309.80474	39240.225
2312.66327	39287.925
2315.51999	39282.425
2318.37489	39313.725
2321.22797	39218.825
2324.07925	39291.325
2326.92871	39215.025
2329.77637	39143.325
2332.62222	39150.925
2335.46626	39167.425
2338.3085	39200.825
2341.14893	39261.125
2343.98756	39273.625
2346.8244	39301.125
2349.65943	39324.425
2352.49267	39316.125
2355.32411	39317.525
2358.15376	39261.325
2360.98161	39311.425
2363.80768	39176.925
2366.63195	39154.325
2369.45444	39093.825
2372.27514	39034.825
2375.09405	38949.025
2377.91118	38837.425
2380.72652	38739.825
2383.54009	38603.025
2386.35187	38586.525
2389.16188	38436.125
2391.97011	38415.625
2394.77657	38403.925
2397.58125	38347.625
2400.38416	38294.025
2403.18529	38149.225
2405.98466	38131.925
2408.78226	38019.325
2411.57809	37962.725
2414.37216	37841.425
2417.16446	37841.725
2419.955	37784.425
2422.74378	37811.325
2425.5308	37748.225
2428.31606	37750.325
2431.09956	37755.725
2433.88131	37757.325
2436.6613	37772.325
2439.43954	37702.225
2442.21603	37700.925
2444.99077	37647.425
2447.76377	37649.425
2450.53501	37625.825
2453.30451	37609.925
2456.07226	37574.525
2458.83827	37570.725
2461.60254	37519.225
2464.36507	37531.425
2467.12586	37577.425
2469.88492	37599.625
2472.64224	37606.025
2475.39782	37649.925
2478.15167	37629.425
2480.90379	37675.325
2483.65417	37754.225
2486.40283	37774.825
2489.14976	37832.325
2491.89497	37801.025
2494.63845	37870.225
2497.3802	37862.325
2500.12024	37883.025
2502.85855	37874.025
2505.59514	37831.025
2508.33002	37764.725
2511.06318	37693.625
2513.79462	37645.225
2516.52435	37699.025
2519.25237	37626.425
2521.97867	37622.925
2524.70327	37545.725
2527.42616	37516.925
2530.14734	37515.225
2532.86681	37468.625
2535.58458	37474.825
2538.30065	37498.025
2541.01501	37488.125
2543.72768	37494.425
2546.43864	37476.225
2549.14791	37386.925
2551.85548	37388.225
2554.56136	37314.725
2557.26554	37230.025
2559.96803	37223.925
2562.66883	37190.725
2565.36794	37163.525
2568.06536	37163.525
2570.7611	37094.625
2573.45514	37056.525
2576.14751	37018.425
2578.83819	37077.025
2581.52719	37108.125
2584.21451	37084.025
2586.90015	37032.325
2589.58411	37025.225
2592.2664	37101.825
2594.94701	37033.925
2597.62594	37084.025
2600.30321	37059.925
2602.9788	37058.925
2605.65273	37050.325
2608.32498	37056.725
2610.99557	37053.225
2613.66449	37123.825
2616.33175	37099.425
2618.99734	37126.925
2621.66128	37071.225
2624.32355	37113.925
2626.98416	37117.325
2629.64311	37104.825
2632.30041	37124.925
2634.95605	37065.825
2637.61004	37038.725
2640.26238	36989.525
2642.91306	36918.425
2645.56209	36856.425
2648.20948	36802.425
2650.85521	36776.725
2653.4993	36807.125
2656.14175	36793.625
2658.78255	36825.325
2661.42171	36896.425
2664.05923	36947.225
2666.6951	36924.225
2669.32934	36972.925
2671.96194	37018.125
2674.59291	37051.825
2677.22224	37081.825
2679.84993	37105.625
2682.476	36980.725
2685.10043	36975.025
2687.72324	36927.325
2690.34441	36914.825
2692.96396	36909.325
2695.58188	36942.325
2698.19818	36844.625
2700.81285	36857.725
2703.4259	36789.725
2706.03733	36889.925
2708.64714	36834.525
2711.25533	36835.225
2713.86191	36862.525
2716.46687	36925.525
2719.07021	36956.025
2721.67194	36969.425
2724.27206	36920.925
2726.87057	36956.025
2729.46747	36966.125
2732.06276	36993.225
2734.65644	37020.925
2737.24852	37025.825
2739.83899	36974.425
2742.42786	36983.225
2745.01513	36988.725
2747.60079	36985.325
2750.18486	36967.725
2752.76733	37018.825
2755.3482	36986.525
2757.92747	36972.925
2760.50515	36936.225
2763.08123	36920.425
2765.65573	36881.525
2768.22863	36944.325
2770.79994	36841.425
2773.36967	36827.425
2775.9378	36850.325
2778.50435	36915.425
2781.06932	36885.625
2783.6327	36860.625
2786.1945	36857.625
2788.75471	36812.625
2791.31335	36765.225
2793.87041	36705.025
2796.42589	36633.425
2798.97979	36621.025
2801.53212	36472.225
2804.08288	36422.425
2806.63206	36397.925
2809.17967	36339.625
2811.72571	36291.625
2814.27018	36226.625
2816.81308	36129.425
2819.35442	36082.525
2821.89419	36080.625
2824.43239	36133.725
2826.96904	36142.425
2829.50412	36180.225
2832.03763	36079.625
2834.56959	36100.525
2837.1	35968.425
2839.62884	36030.225
2842.15613	35970.525
2844.68186	35952.425
2847.20604	35934.125
2849.72867	35996.925
2852.24974	35879.825
2854.76927	35841.925
2857.28724	35819.725
2859.80367	35827.925
2862.31855	35741.325
2864.83189	35784.825
2867.34368	35657.225
2869.85393	35643.225
2872.36264	35605.825
2874.8698	35564.425
2877.37543	35561.725
2879.87952	35513.225
2882.38207	35627.925
2884.88308	35562.025
2887.38256	35631.725
2889.88051	35618.425
2892.37692	35634.125
2894.8718	35689.225
2897.36515	35735.025
2899.85698	35734.025
2902.34727	35794.025
2904.83604	35789.925
2907.32328	35814.725
2909.809	35788.725
2912.29319	35880.925
2914.77587	35821.125
2917.25702	35851.625
2919.73665	35769.325
2922.21476	35810.425
2924.69136	35714.025
2927.16644	35716.925
2929.64	35694.225
2932.11205	35645.225
2934.58258	35551.925
2937.05161	35582.825
2939.51912	35609.825
2941.98513	35545.925
2944.44962	35502.225
2946.91261	35455.025
2949.37409	35480.425
2951.83407	35478.625
2954.29254	35452.525
2956.74951	35426.225
2959.20498	35371.725
2961.65895	35419.625
2964.11142	35377.025
2966.56239	35349.225
2969.01186	35305.525
2971.45984	35127.425
2973.90632	35111.125
2976.35131	35033.125
2978.7948	35011.325
2981.23681	34925.925
2983.67732	34918.225
2986.11635	34799.625
2988.55388	34729.725
2990.98993	34693.925
2993.4245	34611.425
2995.85758	34554.525
2998.28917	34430.825
3000.71928	34397.025
3003.14791	34284.725
3005.57506	34261.725
3008.00073	34194.725
3010.42493	34182.425
3012.84764	34103.325
3015.26888	34113.525
3017.68865	33979.825
3020.10694	33984.125
3022.52376	33884.825
3024.9391	33852.025
3027.35298	33803.325
3029.76539	33729.525
3032.17632	33729.225
3034.5858	33705.825
3036.9938	33696.425
3039.40034	33605.425
3041.80542	33630.725
3044.20903	33622.225
3046.61118	33569.925
3049.01187	33478.525
3051.4111	33450.925
3053.80888	33310.525
3056.20519	33244.525
3058.60005	33150.025
3060.99345	33095.625
3063.3854	33008.125
3065.7759	32918.225
3068.16494	32806.425
3070.55254	32648.625
3072.93868	32612.125
3075.32338	32505.825
3077.70662	32395.525
3080.08842	32338.625
3082.46878	32282.525
3084.84769	32204.125
3087.22515	32169.525
3089.60118	32172.425
3091.97576	32150.425
3094.3489	32126.525
3096.72061	32168.925
3099.09087	32120.725
3101.4597	32105.325
3103.82709	32092.425
3106.19305	32058.725
3108.55757	32078.025
3110.92066	31972.125
3113.28232	31925.625
3115.64255	31861.625
3118.00134	31732.425
3120.35871	31688.625
3122.71466	31594.025
3125.06917	31528.725
3127.42226	31485.525
3129.77393	31478.425
3132.12417	31407.225
3134.47299	31367.825
3136.82039	31350.425
3139.16636	31363.525
3141.51092	31296.125
3143.85406	31325.225
3146.19579	31311.825
3148.53609	31278.725
3150.87499	31287.625
3153.21246	31281.025
3155.54853	31321.025
3157.88318	31261.625
3160.21642	31307.325
3162.54826	31266.125
3164.87868	31204.525
3167.2077	31181.725
3169.5353	31130.725
3171.86151	31144.925
3174.18631	31145.125
3176.5097	31119.625
3178.83169	31073.025
3181.15228	31056.325
3183.47147	30945.025
3185.78926	30921.925
3188.10565	30889.625
3190.42065	30887.225
3192.73424	30855.025
3195.04645	30814.525
3197.35725	30844.025
3199.66667	30780.625
3201.97469	30826.825
3204.28132	30732.625
3206.58656	30740.325
3208.8904	30777.725
3211.19287	30769.125
3213.49394	30798.925
3215.79363	30782.925
3218.09193	30831.025
3220.38884	30842.725
3222.68438	30851.825
3224.97853	30765.625
3227.2713	30730.025
3229.56269	30747.625
3231.8527	30722.725
3234.14133	30650.925
3236.42858	30583.625
3238.71446	30537.525
3240.99896	30472.325
3243.28209	30481.325
3245.56384	30462.525
3247.84423	30413.625
3250.12324	30363.225
3252.40088	30340.125
3254.67715	30338.525
3256.95205	30306.625
3259.22558	30294.225
3261.49775	30277.425
3263.76855	30245.525
3266.03799	30142.525
3268.30606	30164.225
3270.57277	30078.125
3272.83812	30048.025
3275.10211	29997.125
3277.36474	29947.425
3279.62601	29945.025
3281.88593	29882.225
3284.14448	29888.825
3286.40168	29898.625
3288.65753	29869.425
3290.91202	29829.025
3293.16516	29811.125
3295.41695	29777.425
3297.66738	29572.325
3299.91647	29440.825
3302.16421	29251.825
3304.4106	29150.525
3306.65564	28928.725
3308.89933	28785.425
3311.14169	28580.125
3313.38269	28381.025
3315.62236	28229.725
3317.86068	27991.325
3320.09766	27694.225
3322.3333	27557.625
3324.5676	27439.925
3326.80056	26999.225
3329.03219	26866.525
3331.26248	6.625
3333.49143	0.425
3335.71905	-1.475
