Data from AgNPs_FTO_APTES_UA_20uM_CRN_2uM_R6G_10uM_NaF_0.1M_Addition_RamanShift__16__12-59-12-086.txt Node

Date: Thu Feb 17 12:59:12 GMT 2022
User: TCL
Spectrometer: QEP01345
Trigger mode: 4
Integration Time (sec): 7.000000E0
Scans to average: 10
Electric dark correction enabled: true
Nonlinearity correction enabled: false
Boxcar width: 0
XAxis mode: Raman Shifts
Number of Pixels in Spectrum: 1044
>>>>>Begin Spectral Data<<<<<
46.04893	0.5
50.45542	-2.2
54.85868	-2.5
59.25871	-0.6
63.6555	126.9
68.04907	125.5
72.43941	133.9
76.82654	139.2
81.21044	142.3
85.59113	149.4
89.96862	148.4
94.34289	152.1
98.71396	158.1
103.08183	165.6
107.4465	168.1
111.80798	171.3
116.16626	182.1
120.52136	187.7
124.87327	196.7
129.222	209.3
133.56755	225.6
137.90993	248.4
142.24913	270.4
146.58517	308.3
150.91804	366
155.24774	437.8
159.57429	556.2
163.89768	726
168.21792	962.2
172.53501	1339.3
176.84895	1881.6
181.15975	2649.2
185.46741	3739.1
189.77193	5180.3
194.07331	6963.3
198.37157	8978.8
202.6667	11135.2
206.9587	13260.3
211.24758	15310.3
215.53334	17364.6
219.81599	19581.7
224.09553	21949.3
228.37195	24663.6
232.64527	27605
236.91549	30747.9
241.18261	33911.8
245.44663	36916
249.70755	39615
253.96539	42044
258.22014	44132.7
262.4718	45764.4
266.72039	47039.4
270.96589	47756.8
275.20832	47859.4
279.44768	47687.4
283.68397	47365.7
287.91719	47021.4
292.14735	46741.1
296.37445	46604.3
300.59849	46675.4
304.81948	46744.6
309.03742	46627
313.25231	46269.4
317.46415	45513.9
321.67296	44595.3
325.87872	43869.4
330.08145	43546
334.28114	43667.9
338.47781	43996.7
342.67145	44600.8
346.86207	45258.6
351.04966	46087.5
355.23424	46958.1
359.4158	47622.7
363.59435	48207.3
367.76989	48663.7
371.94243	48978.9
376.11196	49312.5
380.27849	49599.1
384.44203	49915
388.60257	50233.8
392.76012	50639
396.91468	51202
401.06626	51762.3
405.21485	52229.2
409.36047	52149.5
413.50311	51667.5
417.64277	51289.4
421.77947	51208.6
425.9132	51420.4
430.04396	51716.2
434.17176	52056.7
438.2966	52512.4
442.41849	53256.4
446.53742	54383.6
450.6534	55628.2
454.76644	56670.9
458.87653	57123.9
462.98368	57039.5
467.08789	56580.7
471.18916	56073
475.2875	55555.5
479.38291	55314.8
483.4754	55000.1
487.56496	54596.5
491.6516	53953.9
495.73531	53350.3
499.81612	53045.6
503.89401	53273.9
507.96899	53490.7
512.04106	53376.3
516.11023	53127.3
520.1765	52748.8
524.23987	52465
528.30034	52293
532.35792	51966.6
536.41261	51631.2
540.46441	51350.2
544.51333	51425.2
548.55936	51851.2
552.60252	52806.7
556.64279	53843.5
560.6802	54640.4
564.71473	55133
568.7464	55852.4
572.7752	56933.1
576.80114	57923.1
580.82422	58641.2
584.84444	59330.9
588.86181	59959.1
592.87633	60455.3
596.888	60292.7
600.89682	59821.1
604.9028	61073.4
608.90594	64980.1
612.90624	68742.7
616.90371	65338.2
620.89834	57350.9
624.89015	53829.2
628.87913	53358.3
632.86528	53562.2
636.84862	53594.5
640.82913	53134.9
644.80683	52286.8
648.78172	51491.7
652.75379	51448.9
656.72306	51908.9
660.68952	52745.7
664.65319	52569.4
668.61405	51926.8
672.57211	51880.4
676.52738	51985.4
680.47986	51969.3
684.42955	51775.8
688.37646	51678.7
692.32058	51973.9
696.26192	52418.9
700.20048	53013.6
704.13626	53384.4
708.06928	53410.9
711.99952	53121.6
715.927	53020.8
719.85171	53138.5
723.77365	53117.6
727.69284	52786.9
731.60928	52372.7
735.52295	52147.7
739.43388	52195
743.34206	52358.6
747.24749	52553.6
751.15017	52853.4
755.05012	53466
758.94733	54589.4
762.8418	56664.8
766.73354	59875.9
770.62254	62830
774.50882	63263.1
778.39237	61043.1
782.27321	57767.7
786.15132	55077.5
790.02671	53454.6
793.89938	52603.9
797.76935	52261.7
801.6366	52148.1
805.50115	52060.9
809.36299	51909.6
813.22213	51612.4
817.07857	51544.2
820.93231	51454.6
824.78336	51356.6
828.63172	51211.3
832.47738	51172.5
836.32036	51226.3
840.16066	51249.3
843.99827	51381.8
847.8332	51375.6
851.66546	51357.5
855.49504	51320.5
859.32195	51490.3
863.1462	51395.1
866.96777	51390.6
870.78668	51361
874.60293	51399.3
878.41652	51398.1
882.22745	51501.4
886.03573	51608.4
889.84136	51634.6
893.64433	51409.7
897.44466	51210.2
901.24235	51145.7
905.0374	50996.1
908.8298	50877.7
912.61957	50883
916.40671	51233.9
920.19121	51731
923.97308	52073.4
927.75233	52039.1
931.52895	51687.4
935.30295	51270.4
939.07433	50650.8
942.84309	50277.2
946.60924	50119
950.37278	50184.8
954.13371	50208.5
957.89203	50132.3
961.64774	50027.5
965.40086	49959.2
969.15137	49862.3
972.89929	49700.9
976.64461	49609.6
980.38733	49637.3
984.12747	49754.6
987.86502	50033.9
991.59999	50556.1
995.33237	51126.1
999.06217	52011.6
1002.78939	52929
1006.51404	53815.9
1010.23611	54457.9
1013.95561	54900.8
1017.67255	54954.9
1021.38692	54478.2
1025.09872	53851.9
1028.80796	53511.9
1032.51465	53702.9
1036.21877	54183.3
1039.92035	54244.6
1043.61937	54119.2
1047.31584	53747.9
1051.00976	53384.5
1054.70114	53312.7
1058.38998	53446
1062.07627	53808.8
1065.76003	54269.9
1069.44126	54753.9
1073.11995	55430
1076.79611	55986.3
1080.46974	56403.4
1084.14085	56823.7
1087.80943	57330.1
1091.47549	57724.3
1095.13903	57706.7
1098.80005	57223.2
1102.45857	56527.4
1106.11456	55913.9
1109.76805	55653.2
1113.41903	55751.7
1117.06751	55992.8
1120.71348	56334.1
1124.35696	56696.4
1127.99793	57080.4
1131.63641	57176.5
1135.2724	56944.6
1138.90589	56648.1
1142.5369	56575.6
1146.16542	56655.1
1149.79145	56836.2
1153.415	57213
1157.03607	57906.1
1160.65467	59001.2
1164.27079	60789.9
1167.88443	63164.8
1171.49561	66101.6
1175.10432	69792.6
1178.71056	74320.8
1182.31434	78469.7
1185.91565	80564.1
1189.51451	80588
1193.11091	79148
1196.70485	76695.8
1200.29634	74313.6
1203.88538	72430.5
1207.47197	71107.4
1211.05612	69893.1
1214.63782	68720.7
1218.21708	67842.7
1221.79391	67168.7
1225.36829	66674.8
1228.94024	66036.7
1232.50976	65066.1
1236.07685	64194.7
1239.6415	63762.2
1243.20374	63801.1
1246.76355	64141.4
1250.32093	64862.7
1253.8759	65852.8
1257.42845	67148.5
1260.97859	68697.3
1264.52631	70108.6
1268.07163	71729.6
1271.61453	73323.6
1275.15503	74779.9
1278.69312	76313.1
1282.22882	77630.7
1285.76211	79168.5
1289.29301	80996.1
1292.82151	83482.8
1296.34761	86454
1299.87133	90280.9
1303.39266	94494.9
1306.9116	98928.5
1310.42815	103130.8
1313.94233	105887
1317.45412	106419.5
1320.96354	105432.5
1324.47058	104485.2
1327.97525	103409
1331.47754	102536.9
1334.97747	102143
1338.47502	102060.6
1341.97022	102218.4
1345.46305	101706.9
1348.95352	100586.3
1352.44163	99235.7
1355.92738	99316.2
1359.41078	101206.7
1362.89183	102898.3
1366.37053	100922.3
1369.84688	94351.9
1373.32088	86673.1
1376.79254	81485.3
1380.26186	79331.9
1383.72883	79121.2
1387.19347	79200.7
1390.65578	78863.4
1394.11575	78803.2
1397.57339	79431.5
1401.0287	80550.4
1404.48168	81608.6
1407.93234	81991.6
1411.38068	81115.6
1414.82669	79287.9
1418.27039	76762.9
1421.71177	74210.4
1425.15083	72000.3
1428.58758	70958.8
1432.02203	71265
1435.45416	72605.2
1438.88399	74267.1
1442.31151	75793.8
1445.73673	76848
1449.15965	77766.3
1452.58027	78360.9
1455.9986	78528.9
1459.41463	79201.3
1462.82837	80155.1
1466.23982	81361.6
1469.64898	82424.2
1473.05586	83015
1476.46045	82949.6
1479.86276	82275.6
1483.26279	81324.8
1486.66054	80781.9
1490.05602	80727.2
1493.44922	81083.7
1496.84016	81678.7
1500.22882	82939.1
1503.61521	84943
1506.99934	87409.3
1510.38121	89252.4
1513.76081	89374.2
1517.13816	87473
1520.51324	84581.8
1523.88607	82312
1527.25665	81297.8
1530.62498	81151.8
1533.99105	81279.2
1537.35488	81117.1
1540.71647	80399.1
1544.07581	79283.3
1547.4329	78024.6
1550.78776	76702.5
1554.14038	75874.3
1557.49077	75248.6
1560.83892	75071
1564.18484	74960.4
1567.52853	74988.5
1570.86999	75306.4
1574.20922	76018.8
1577.54624	76574.9
1580.88103	76591
1584.2136	76711.4
1587.54395	78177.7
1590.87208	81078
1594.19801	85242.7
1597.52172	89379.1
1600.84321	90668.4
1604.16251	87892.4
1607.47959	82884.1
1610.79447	77552.3
1614.10715	72391.6
1617.41763	67773.3
1620.7259	64433.3
1624.03199	62655.2
1627.33587	62425.2
1630.63757	63519.2
1633.93707	66597.1
1637.23439	71698.6
1640.52951	79061.9
1643.82246	87305.5
1647.11321	93182.2
1650.40179	93613.4
1653.68819	87808.6
1656.97241	78242.7
1660.25446	69010.2
1663.53433	62263.3
1666.81203	57867.6
1670.08756	55033.5
1673.36092	53352.1
1676.63211	52107
1679.90115	51257
1683.16801	50523.6
1686.43272	50095.8
1689.69527	49728.6
1692.95567	49407.8
1696.2139	49241.3
1699.46999	49148.3
1702.72392	49016.3
1705.97571	48928
1709.22535	48812.5
1712.47284	48838.2
1715.71819	48749.9
1718.96139	48628.5
1722.20246	48512.9
1725.44139	48320.9
1728.67818	48074.1
1731.91284	47864.6
1735.14537	47655
1738.37576	47543.3
1741.60403	47419.9
1744.83017	47209.7
1748.05418	47068.5
1751.27607	46972.4
1754.49584	46934.4
1757.71349	46928.1
1760.92903	46857.3
1764.14244	46792.1
1767.35375	46785.4
1770.56294	46756.7
1773.77002	46708.9
1776.97499	46643.9
1780.17785	46602.6
1783.37861	46524.6
1786.57727	46390.2
1789.77382	46319.9
1792.96828	46320.7
1796.16064	46196.7
1799.3509	46165.8
1802.53907	46113.3
1805.72514	45965.6
1808.90913	45884.2
1812.09102	45781.1
1815.27083	45699
1818.44856	45645.8
1821.6242	45663.4
1824.79776	45564.9
1827.96924	45574.9
1831.13864	45554.8
1834.30597	45559.6
1837.47122	45414.4
1840.6344	45430.6
1843.7955	45444.1
1846.95454	45441.1
1850.11151	45382.5
1853.26642	45411.5
1856.41926	45349
1859.57004	45355
1862.71876	45208.4
1865.86542	45241.9
1869.01003	45196.4
1872.15258	45127.6
1875.29308	45083.8
1878.43152	45026.5
1881.56792	44992.6
1884.70227	45024.9
1887.83457	45031.8
1890.96482	45020.7
1894.09304	44930
1897.21921	44874.6
1900.34335	44775.5
1903.46544	44710.4
1906.58551	44722.6
1909.70353	44677.5
1912.81953	44603.3
1915.93349	44566.6
1919.04543	44462.7
1922.15534	44402.8
1925.26322	44321.5
1928.36908	44259.9
1931.47292	44127.3
1934.57473	44021.2
1937.67453	44003.2
1940.77232	43845.4
1943.86808	43738.5
1946.96184	43607.2
1950.05358	43459.3
1953.14331	43395.5
1956.23103	43262.1
1959.31675	43125.8
1962.40046	43000.1
1965.48217	42843.1
1968.56188	42799.3
1971.63959	42656.4
1974.7153	42559.5
1977.78901	42441.3
1980.86073	42257.7
1983.93046	42194.5
1986.99819	42080.9
1990.06394	41981.8
1993.1277	41911.4
1996.18947	41787.8
1999.24925	41671.3
2002.30706	41556.3
2005.36288	41360.6
2008.41672	41276
2011.46859	41106.6
2014.51848	41057.6
2017.56639	40940.7
2020.61233	40858.3
2023.6563	40717.3
2026.6983	40624
2029.73833	40522
2032.7764	40493.5
2035.8125	40440.4
2038.84664	40385.1
2041.87881	40303.8
2044.90903	40213.7
2047.93729	40128
2050.96359	40119.5
2053.98794	40042.5
2057.01034	40041.1
2060.03078	40043.5
2063.04927	40051.1
2066.06582	40044.4
2069.08042	39970.1
2072.09307	39961.5
2075.10378	39872.6
2078.11255	39882.5
2081.11938	39878.1
2084.12426	39847.2
2087.12722	39833.8
2090.12824	39731.5
2093.12732	39758.2
2096.12447	39796.2
2099.11969	39722.4
2102.11299	39759.1
2105.10435	39781.7
2108.09379	39780
2111.08131	39838.8
2114.0669	39839.6
2117.05057	39850.9
2120.03233	39873.3
2123.01216	39904.9
2125.99008	39965.8
2128.96609	40024.1
2131.94018	40065
2134.91236	40127.3
2137.88263	40163
2140.851	40146.9
2143.81746	40195.3
2146.78201	40168.1
2149.74466	40244.1
2152.7054	40230.7
2155.66425	40252.5
2158.6212	40201.8
2161.57625	40155.8
2164.52941	40153.1
2167.48067	40129.4
2170.43004	40118.1
2173.37752	40106.9
2176.32311	40158.4
2179.26681	40207.6
2182.20863	40144.7
2185.14856	40224.4
2188.08661	40176.6
2191.02278	40158.5
2193.95707	40117.2
2196.88948	40050.1
2199.82001	40105.4
2202.74867	40011.6
2205.67545	39987.4
2208.60037	39955.6
2211.52341	39873.9
2214.44458	39868.8
2217.36388	39826.3
2220.28132	39796.8
2223.1969	39657.9
2226.11061	39570.2
2229.02246	39389
2231.93245	39343.4
2234.84058	39315.1
2237.74686	39316.3
2240.65128	39258.8
2243.55385	39177.1
2246.45456	39172.5
2249.35343	39105.5
2252.25044	39057.7
2255.14561	38956.4
2258.03893	38999
2260.93041	38893.8
2263.82004	38780.4
2266.70783	38707.2
2269.59378	38642.7
2272.4779	38517.8
2275.36017	38464
2278.24061	38430.7
2281.11922	38353.3
2283.996	38272.2
2286.87094	38271.2
2289.74405	38213.8
2292.61534	38190
2295.4848	38107.7
2298.35243	38193.6
2301.21824	38083.7
2304.08223	38074.4
2306.94439	38033
2309.80474	38055.5
2312.66327	38074.2
2315.51999	38010
2318.37489	37980.5
2321.22797	37916.9
2324.07925	37922
2326.92871	37781.1
2329.77637	37782.6
2332.62222	37750.8
2335.46626	37671.1
2338.3085	37644.9
2341.14893	37632.8
2343.98756	37637.7
2346.8244	37599.5
2349.65943	37668.1
2352.49267	37616.1
2355.32411	37620.1
2358.15376	37595.9
2360.98161	37575.7
2363.80768	37533.6
2366.63195	37470.4
2369.45444	37448.5
2372.27514	37490.5
2375.09405	37406
2377.91118	37295.6
2380.72652	37180.2
2383.54009	37128.1
2386.35187	37060.1
2389.16188	36925.6
2391.97011	36899.3
2394.77657	36846.6
2397.58125	36847.5
2400.38416	36737.4
2403.18529	36653.2
2405.98466	36655.9
2408.78226	36574.4
2411.57809	36520.7
2414.37216	36500.1
2417.16446	36469.3
2419.955	36451.4
2422.74378	36431.4
2425.5308	36373.9
2428.31606	36378.6
2431.09956	36347.9
2433.88131	36352.4
2436.6613	36342.8
2439.43954	36337.7
2442.21603	36304.9
2444.99077	36237.6
2447.76377	36252.2
2450.53501	36187.5
2453.30451	36236.1
2456.07226	36139.3
2458.83827	36128.9
2461.60254	36078.8
2464.36507	36093.6
2467.12586	36101.7
2469.88492	36092.3
2472.64224	36121.2
2475.39782	36042.2
2478.15167	36075.6
2480.90379	36088.3
2483.65417	36079.2
2486.40283	36097.1
2489.14976	36089.1
2491.89497	36052.8
2494.63845	36127.5
2497.3802	36082.4
2500.12024	36053.9
2502.85855	36034.6
2505.59514	35971.7
2508.33002	35964.5
2511.06318	35923.7
2513.79462	35899.7
2516.52435	35840.4
2519.25237	35844.4
2521.97867	35781.7
2524.70327	35802
2527.42616	35737.4
2530.14734	35773.5
2532.86681	35653.1
2535.58458	35673.3
2538.30065	35669.4
2541.01501	35669.3
2543.72768	35617.7
2546.43864	35594.1
2549.14791	35530.6
2551.85548	35482.9
2554.56136	35410.6
2557.26554	35306.9
2559.96803	35275.9
2562.66883	35261.1
2565.36794	35230.1
2568.06536	35203.4
2570.7611	35124.1
2573.45514	35026.3
2576.14751	35036.2
2578.83819	34992.3
2581.52719	35022.4
2584.21451	34947
2586.90015	34897.2
2589.58411	34864.3
2592.2664	34873.9
2594.94701	34814
2597.62594	34822.8
2600.30321	34827.7
2602.9788	34792.1
2605.65273	34771.2
2608.32498	34716.2
2610.99557	34709.2
2613.66449	34682.9
2616.33175	34691.4
2618.99734	34609.8
2621.66128	34541.4
2624.32355	34535.9
2626.98416	34557.9
2629.64311	34514.2
2632.30041	34491.6
2634.95605	34434.4
2637.61004	34361.2
2640.26238	34421.5
2642.91306	34365.6
2645.56209	34358.1
2648.20948	34321.5
2650.85521	34329.4
2653.4993	34341
2656.14175	34290.4
2658.78255	34354.1
2661.42171	34412.5
2664.05923	34438.6
2666.6951	34382.4
2669.32934	34432.5
2671.96194	34398.6
2674.59291	34438
2677.22224	34422.1
2679.84993	34435.4
2682.476	34405.3
2685.10043	34384.9
2687.72324	34299.6
2690.34441	34334.4
2692.96396	34313
2695.58188	34364.4
2698.19818	34261.4
2700.81285	34268.4
2703.4259	34244.8
2706.03733	34339.2
2708.64714	34295.3
2711.25533	34320.3
2713.86191	34371.3
2716.46687	34388.8
2719.07021	34374.6
2721.67194	34375.2
2724.27206	34340.2
2726.87057	34395.2
2729.46747	34405.9
2732.06276	34409.3
2734.65644	34388.2
2737.24852	34432.6
2739.83899	34385.6
2742.42786	34401.4
2745.01513	34351.7
2747.60079	34320.8
2750.18486	34324.3
2752.76733	34267.8
2755.3482	34250.6
2757.92747	34232
2760.50515	34183
2763.08123	34193.3
2765.65573	34154.9
2768.22863	34167.8
2770.79994	34071.8
2773.36967	34119.1
2775.9378	34100.3
2778.50435	34105.5
2781.06932	34054.2
2783.6327	34038.9
2786.1945	33978.9
2788.75471	33957
2791.31335	33890.1
2793.87041	33848
2796.42589	33779.6
2798.97979	33751.8
2801.53212	33599.6
2804.08288	33591
2806.63206	33512.4
2809.17967	33496
2811.72571	33357.5
2814.27018	33242.8
2816.81308	33134.6
2819.35442	33074.3
2821.89419	33050.9
2824.43239	33037.9
2826.96904	32998.9
2829.50412	32979.1
2832.03763	32870.3
2834.56959	32881.5
2837.1	32852.6
2839.62884	32813.9
2842.15613	32740.3
2844.68186	32777
2847.20604	32711.8
2849.72867	32707.3
2852.24974	32646.2
2854.76927	32604.5
2857.28724	32590.5
2859.80367	32585.3
2862.31855	32572.7
2864.83189	32453.2
2867.34368	32382.5
2869.85393	32391.2
2872.36264	32404.6
2874.8698	32338.4
2877.37543	32311.3
2879.87952	32288.5
2882.38207	32265.8
2884.88308	32284.6
2887.38256	32296.2
2889.88051	32276.8
2892.37692	32282.7
2894.8718	32300.1
2897.36515	32358.9
2899.85698	32335.3
2902.34727	32364
2904.83604	32382.4
2907.32328	32414.1
2909.809	32405.1
2912.29319	32472
2914.77587	32440.5
2917.25702	32463.9
2919.73665	32383
2922.21476	32409.5
2924.69136	32363
2927.16644	32389.9
2929.64	32350.9
2932.11205	32250.3
2934.58258	32206.6
2937.05161	32213.1
2939.51912	32242.4
2941.98513	32181
2944.44962	32124.5
2946.91261	32065.1
2949.37409	32107.5
2951.83407	32065.2
2954.29254	32035.6
2956.74951	32033.4
2959.20498	32047.7
2961.65895	32015.3
2964.11142	32011.4
2966.56239	32004.2
2969.01186	31951.5
2971.45984	31853
2973.90632	31790.4
2976.35131	31735
2978.7948	31712.5
2981.23681	31722.2
2983.67732	31655.1
2986.11635	31552.7
2988.55388	31497
2990.98993	31414.3
2993.4245	31391.6
2995.85758	31298.4
2998.28917	31232.8
3000.71928	31111.1
3003.14791	31053.4
3005.57506	31074.7
3008.00073	30956.8
3010.42493	30935.6
3012.84764	30839.8
3015.26888	30841.2
3017.68865	30747
3020.10694	30758.9
3022.52376	30617.2
3024.9391	30627.9
3027.35298	30529.1
3029.76539	30564.2
3032.17632	30537.6
3034.5858	30517.2
3036.9938	30460.3
3039.40034	30448.3
3041.80542	30449.7
3044.20903	30377.9
3046.61118	30331.2
3049.01187	30275.3
3051.4111	30214.1
3053.80888	30134.5
3056.20519	30103.5
3058.60005	30031.9
3060.99345	29971.6
3063.3854	29885.2
3065.7759	29794.8
3068.16494	29715.3
3070.55254	29596.4
3072.93868	29518.1
3075.32338	29402.6
3077.70662	29356.8
3080.08842	29267.8
3082.46878	29261.6
3084.84769	29184.8
3087.22515	29166.3
3089.60118	29168.4
3091.97576	29141.6
3094.3489	29070.8
3096.72061	29105
3099.09087	29128
3101.4597	29113.6
3103.82709	29061.6
3106.19305	29063.6
3108.55757	29047.9
3110.92066	28954.7
3113.28232	28950.7
3115.64255	28843.2
3118.00134	28771.6
3120.35871	28666.7
3122.71466	28566.7
3125.06917	28551.2
3127.42226	28457
3129.77393	28489.1
3132.12417	28418.5
3134.47299	28366.3
3136.82039	28353.3
3139.16636	28376.7
3141.51092	28303.9
3143.85406	28301.5
3146.19579	28271.7
3148.53609	28291.7
3150.87499	28303.4
3153.21246	28282.4
3155.54853	28275.9
3157.88318	28242.8
3160.21642	28290.8
3162.54826	28242.3
3164.87868	28195.2
3167.2077	28139.8
3169.5353	28149.3
3171.86151	28155.7
3174.18631	28163.9
3176.5097	28150.7
3178.83169	28106.6
3181.15228	28003
3183.47147	27963.2
3185.78926	27916.4
3188.10565	27902.2
3190.42065	27843.4
3192.73424	27798.5
3195.04645	27777.9
3197.35725	27759.2
3199.66667	27694.1
3201.97469	27740.6
3204.28132	27699.2
3206.58656	27678.5
3208.8904	27702.3
3211.19287	27712
3213.49394	27680.6
3215.79363	27681.4
3218.09193	27689.4
3220.38884	27717.7
3222.68438	27704
3224.97853	27632.7
3227.2713	27589.1
3229.56269	27617.3
3231.8527	27573.8
3234.14133	27529.5
3236.42858	27443.8
3238.71446	27406.7
3240.99896	27326.6
3243.28209	27330.1
3245.56384	27273.2
3247.84423	27277.7
3250.12324	27189.8
3252.40088	27222.2
3254.67715	27190.8
3256.95205	27142.5
3259.22558	27178
3261.49775	27093.6
3263.76855	27055.7
3266.03799	26997.2
3268.30606	26913
3270.57277	26892.8
3272.83812	26847.7
3275.10211	26756.9
3277.36474	26706.4
3279.62601	26704.9
3281.88593	26686.6
3284.14448	26700
3286.40168	26661.3
3288.65753	26640.4
3290.91202	26622.1
3293.16516	26564.8
3295.41695	26537.4
3297.66738	26331.1
3299.91647	26205
3302.16421	26045.9
3304.4106	25922
3306.65564	25765.4
3308.89933	25572.6
3311.14169	25396
3313.38269	25190.7
3315.62236	25048.2
3317.86068	24827.7
3320.09766	24574.8
3322.3333	24457.1
3324.5676	24346
3326.80056	23954.9
3329.03219	23811.9
3331.26248	5.6
3333.49143	1.5
3335.71905	-0.8
