Data from AgNPs_FTO_APTES_UA_20uM_CRN_1uM_R6G_10uM_NaF_0.1M_Addition_RamanShift__24__12-30-02-048.txt Node

Date: Thu Feb 17 12:30:02 GMT 2022
User: TCL
Spectrometer: QEP01345
Trigger mode: 4
Integration Time (sec): 7.000000E0
Scans to average: 10
Electric dark correction enabled: true
Nonlinearity correction enabled: false
Boxcar width: 0
XAxis mode: Raman Shifts
Number of Pixels in Spectrum: 1044
>>>>>Begin Spectral Data<<<<<
46.04893	-1.025
50.45542	-0.325
54.85868	-2.725
59.25871	-1.625
63.6555	125.175
68.04907	125.375
72.43941	129.075
76.82654	131.875
81.21044	138.675
85.59113	143.775
89.96862	144.375
94.34289	146.875
98.71396	151.775
103.08183	155.675
107.4465	165.775
111.80798	164.575
116.16626	174.175
120.52136	180.075
124.87327	186.975
129.222	198.575
133.56755	214.775
137.90993	225.975
142.24913	246.675
146.58517	284.475
150.91804	339.875
155.24774	400.575
159.57429	503.675
163.89768	649.575
168.21792	871.475
172.53501	1193.475
176.84895	1677.875
181.15975	2362.775
185.46741	3332.375
189.77193	4594.075
194.07331	6145.275
198.37157	7921.875
202.6667	9793.575
206.9587	11704.975
211.24758	13545.175
215.53334	15420.575
219.81599	17407.175
224.09553	19623.875
228.37195	22085.375
232.64527	24802.675
236.91549	27627.375
241.18261	30511.075
245.44663	33165.675
249.70755	35546.575
253.96539	37650.375
258.22014	39461.475
262.4718	40906.475
266.72039	41966.375
270.96589	42676.775
275.20832	42763.875
279.44768	42561.375
283.68397	42182.475
287.91719	41890.075
292.14735	41749.075
296.37445	41788.975
300.59849	41930.475
304.81948	42258.275
309.03742	42395.975
313.25231	42131.375
317.46415	41325.575
321.67296	40162.175
325.87872	39257.675
330.08145	38917.075
334.28114	38975.175
338.47781	39400.875
342.67145	40056.575
346.86207	40896.275
351.04966	41880.875
355.23424	43074.275
359.4158	44002.775
363.59435	44683.875
367.76989	45125.075
371.94243	45463.475
376.11196	45694.475
380.27849	45900.375
384.44203	46100.775
388.60257	46186.875
392.76012	46498.775
396.91468	47050.675
401.06626	47801.775
405.21485	48458.475
409.36047	48452.075
413.50311	47888.675
417.64277	47304.875
421.77947	47239.275
425.9132	47474.575
430.04396	47864.175
434.17176	48210.175
438.2966	48800.275
442.41849	49765.275
446.53742	51165.275
450.6534	52678.875
454.76644	53958.875
458.87653	54362.075
462.98368	54067.275
467.08789	53291.475
471.18916	52251.575
475.2875	51279.275
479.38291	50593.875
483.4754	50083.475
487.56496	49623.875
491.6516	49084.875
495.73531	48503.375
499.81612	48295.075
503.89401	48507.875
507.96899	48714.375
512.04106	48626.675
516.11023	48575.675
520.1765	48436.375
524.23987	48361.475
528.30034	48084.975
532.35792	47764.575
536.41261	47224.775
540.46441	46852.275
544.51333	46797.675
548.55936	47239.975
552.60252	48120.775
556.64279	49138.175
560.6802	49777.775
564.71473	50177.275
568.7464	50988.475
572.7752	52018.775
576.80114	52594.175
580.82422	52915.075
584.84444	53338.975
588.86181	54056.575
592.87633	55061.875
596.888	55569.375
600.89682	55642.675
604.9028	57517.475
608.90594	63256.775
612.90624	69438.475
616.90371	65920.775
620.89834	55667.175
624.89015	51164.675
628.87913	50540.275
632.86528	50346.675
636.84862	49968.175
640.82913	49164.175
644.80683	47977.775
648.78172	47129.175
652.75379	47172.875
656.72306	47966.675
660.68952	49031.475
664.65319	48993.075
668.61405	48149.675
672.57211	47851.075
676.52738	47883.175
680.47986	47862.975
684.42955	47706.275
688.37646	47778.375
692.32058	48099.075
696.26192	48581.475
700.20048	49139.175
704.13626	49447.575
708.06928	49219.075
711.99952	48868.275
715.927	48813.675
719.85171	48920.675
723.77365	48824.275
727.69284	48407.275
731.60928	48045.175
735.52295	47990.275
739.43388	48174.875
743.34206	48495.275
747.24749	48817.275
751.15017	49240.775
755.05012	50060.975
758.94733	51438.575
762.8418	53930.875
766.73354	57898.475
770.62254	61538.775
774.50882	62498.575
778.39237	59967.075
782.27321	55673.175
786.15132	52090.775
790.02671	50004.575
793.89938	49092.075
797.76935	48724.575
801.6366	48651.975
805.50115	48451.375
809.36299	48328.775
813.22213	48042.975
817.07857	48005.275
820.93231	47985.475
824.78336	48001.275
828.63172	48022.675
832.47738	48123.575
836.32036	48267.675
840.16066	48472.975
843.99827	48677.275
847.8332	48669.175
851.66546	48417.075
855.49504	48315.675
859.32195	48262.375
863.1462	48125.075
866.96777	48028.675
870.78668	47913.575
874.60293	47918.375
878.41652	48018.875
882.22745	48187.475
886.03573	48376.075
889.84136	48272.975
893.64433	48056.575
897.44466	47944.275
901.24235	47817.175
905.0374	47773.275
908.8298	47684.875
912.61957	47782.975
916.40671	48225.975
920.19121	48799.875
923.97308	49404.775
927.75233	49730.375
931.52895	49542.875
935.30295	49049.575
939.07433	48265.675
942.84309	47822.375
946.60924	47683.275
950.37278	47540.975
954.13371	47351.875
957.89203	46964.775
961.64774	46822.375
965.40086	46697.375
969.15137	46538.875
972.89929	46428.375
976.64461	46402.675
980.38733	46451.775
984.12747	46643.475
987.86502	47063.175
991.59999	47723.475
995.33237	48761.275
999.06217	50491.575
1002.78939	52449.375
1006.51404	53791.175
1010.23611	54489.775
1013.95561	55007.775
1017.67255	55077.275
1021.38692	54519.375
1025.09872	54188.475
1028.80796	54893.175
1032.51465	56567.775
1036.21877	58056.575
1039.92035	58193.575
1043.61937	57194.575
1047.31584	55460.175
1051.00976	53552.875
1054.70114	52475.875
1058.38998	52158.675
1062.07627	52289.175
1065.76003	52460.575
1069.44126	52699.775
1073.11995	53135.275
1076.79611	53551.075
1080.46974	53893.875
1084.14085	54423.675
1087.80943	54954.175
1091.47549	55206.475
1095.13903	54835.175
1098.80005	54009.875
1102.45857	53199.975
1106.11456	52742.775
1109.76805	52776.775
1113.41903	53251.875
1117.06751	53814.375
1120.71348	54430.075
1124.35696	55002.275
1127.99793	55461.575
1131.63641	55423.775
1135.2724	54899.275
1138.90589	54337.275
1142.5369	54010.575
1146.16542	53809.575
1149.79145	53906.675
1153.415	54237.675
1157.03607	54978.575
1160.65467	55914.675
1164.27079	57557.475
1167.88443	59874.975
1171.49561	63228.175
1175.10432	67794.575
1178.71056	73651.475
1182.31434	79077.875
1185.91565	81902.475
1189.51451	81638.575
1193.11091	78984.575
1196.70485	75301.475
1200.29634	72073.175
1203.88538	69596.875
1207.47197	67691.875
1211.05612	65992.975
1214.63782	65111.375
1218.21708	65069.475
1221.79391	65489.275
1225.36829	65506.575
1228.94024	64873.975
1232.50976	63667.975
1236.07685	62777.275
1239.6415	62432.775
1243.20374	62485.575
1246.76355	62951.775
1250.32093	63879.075
1253.8759	65253.775
1257.42845	67122.775
1260.97859	68663.075
1264.52631	69946.775
1268.07163	71456.375
1271.61453	73193.075
1275.15503	75251.775
1278.69312	77323.175
1282.22882	79045.275
1285.76211	80582.975
1289.29301	82160.975
1292.82151	83937.975
1296.34761	86756.475
1299.87133	90756.275
1303.39266	95936.275
1306.9116	102492.175
1310.42815	109239.575
1313.94233	113533.575
1317.45412	113510.675
1320.96354	110565.575
1324.47058	106892.875
1327.97525	103755.975
1331.47754	101778.175
1334.97747	101438.375
1338.47502	102424.075
1341.97022	103592.875
1345.46305	103634.675
1348.95352	102649.075
1352.44163	101794.475
1355.92738	103408.675
1359.41078	108224.175
1362.89183	112662.475
1366.37053	110034.875
1369.84688	100429.475
1373.32088	90117.375
1376.79254	83273.875
1380.26186	79933.675
1383.72883	78822.375
1387.19347	78127.375
1390.65578	77484.975
1394.11575	77678.375
1397.57339	78693.375
1401.0287	80417.975
1404.48168	82478.175
1407.93234	84186.875
1411.38068	85192.775
1414.82669	84645.275
1418.27039	82405.875
1421.71177	79228.575
1425.15083	76453.475
1428.58758	75011.875
1432.02203	75010.875
1435.45416	75824.475
1438.88399	76895.175
1442.31151	77836.375
1445.73673	78649.075
1449.15965	79452.875
1452.58027	79744.875
1455.9986	79569.675
1459.41463	79702.075
1462.82837	80543.075
1466.23982	81954.975
1469.64898	83580.775
1473.05586	84541.075
1476.46045	84999.275
1479.86276	85377.475
1483.26279	85570.875
1486.66054	85812.375
1490.05602	86694.475
1493.44922	87621.875
1496.84016	88329.775
1500.22882	89409.075
1503.61521	91418.975
1506.99934	94368.075
1510.38121	96957.875
1513.76081	97495.175
1517.13816	94928.775
1520.51324	90582.275
1523.88607	86701.975
1527.25665	84342.775
1530.62498	83122.275
1533.99105	82606.075
1537.35488	82195.675
1540.71647	81897.875
1544.07581	81325.975
1547.4329	80504.075
1550.78776	79435.275
1554.14038	78529.075
1557.49077	78023.775
1560.83892	77711.275
1564.18484	77597.775
1567.52853	77304.875
1570.86999	77161.875
1574.20922	77341.675
1577.54624	77511.175
1580.88103	77026.975
1584.2136	76956.175
1587.54395	78684.075
1590.87208	82738.975
1594.19801	88720.175
1597.52172	95108.375
1600.84321	98011.575
1604.16251	95181.075
1607.47959	88720.175
1610.79447	81328.375
1614.10715	74558.675
1617.41763	69249.875
1620.7259	65764.575
1624.03199	64072.575
1627.33587	64165.175
1630.63757	65773.975
1633.93707	69195.075
1637.23439	74210.875
1640.52951	80562.375
1643.82246	87535.275
1647.11321	92856.375
1650.40179	93404.975
1653.68819	87858.275
1656.97241	78198.475
1660.25446	68780.875
1663.53433	61966.975
1666.81203	57595.075
1670.08756	54878.775
1673.36092	53188.275
1676.63211	52007.475
1679.90115	51203.475
1683.16801	50527.175
1686.43272	50119.875
1689.69527	49787.975
1692.95567	49495.975
1696.2139	49396.975
1699.46999	49291.775
1702.72392	49227.675
1705.97571	49147.775
1709.22535	49061.775
1712.47284	49073.275
1715.71819	49113.375
1718.96139	49001.675
1722.20246	48877.375
1725.44139	48690.875
1728.67818	48517.375
1731.91284	48309.175
1735.14537	48106.375
1738.37576	47928.775
1741.60403	47780.875
1744.83017	47642.175
1748.05418	47532.975
1751.27607	47475.275
1754.49584	47454.875
1757.71349	47428.775
1760.92903	47423.275
1764.14244	47360.075
1767.35375	47382.975
1770.56294	47362.375
1773.77002	47310.775
1776.97499	47342.875
1780.17785	47278.575
1783.37861	47183.975
1786.57727	47167.175
1789.77382	47066.375
1792.96828	47042.675
1796.16064	47065.675
1799.3509	47004.375
1802.53907	46942.575
1805.72514	46857.375
1808.90913	46781.475
1812.09102	46685.675
1815.27083	46664.375
1818.44856	46598.775
1821.6242	46545.775
1824.79776	46540.075
1827.96924	46496.975
1831.13864	46533.975
1834.30597	46475.975
1837.47122	46473.275
1840.6344	46403.775
1843.7955	46376.375
1846.95454	46457.475
1850.11151	46513.275
1853.26642	46437.675
1856.41926	46497.275
1859.57004	46503.675
1862.71876	46475.875
1865.86542	46456.475
1869.01003	46446.575
1872.15258	46433.775
1875.29308	46467.675
1878.43152	46439.175
1881.56792	46554.475
1884.70227	46546.975
1887.83457	46645.675
1890.96482	46585.475
1894.09304	46503.375
1897.21921	46403.875
1900.34335	46404.775
1903.46544	46424.075
1906.58551	46525.775
1909.70353	46483.175
1912.81953	46490.575
1915.93349	46408.575
1919.04543	46339.775
1922.15534	46284.775
1925.26322	46217.175
1928.36908	46161.775
1931.47292	46058.875
1934.57473	45939.775
1937.67453	45851.575
1940.77232	45677.375
1943.86808	45511.875
1946.96184	45440.875
1950.05358	45296.175
1953.14331	45174.275
1956.23103	45027.375
1959.31675	44915.575
1962.40046	44774.975
1965.48217	44596.875
1968.56188	44521.175
1971.63959	44415.075
1974.7153	44334.375
1977.78901	44197.175
1980.86073	44061.775
1983.93046	43994.375
1986.99819	43815.775
1990.06394	43768.875
1993.1277	43656.275
1996.18947	43510.575
1999.24925	43459.875
2002.30706	43292.675
2005.36288	43151.175
2008.41672	43101.975
2011.46859	43015.875
2014.51848	42875.175
2017.56639	42764.375
2020.61233	42705.075
2023.6563	42590.775
2026.6983	42478.475
2029.73833	42420.775
2032.7764	42359.475
2035.8125	42356.475
2038.84664	42264.275
2041.87881	42185.075
2044.90903	42134.175
2047.93729	42053.675
2050.96359	42069.575
2053.98794	42047.775
2057.01034	42001.275
2060.03078	42031.975
2063.04927	42008.675
2066.06582	42010.475
2069.08042	41936.475
2072.09307	41856.575
2075.10378	41800.975
2078.11255	41767.375
2081.11938	41789.375
2084.12426	41752.075
2087.12722	41677.375
2090.12824	41677.375
2093.12732	41708.875
2096.12447	41687.575
2099.11969	41684.875
2102.11299	41717.875
2105.10435	41682.975
2108.09379	41729.675
2111.08131	41807.075
2114.0669	41729.875
2117.05057	41754.575
2120.03233	41816.575
2123.01216	41851.075
2125.99008	41896.075
2128.96609	41979.475
2131.94018	42028.075
2134.91236	42074.875
2137.88263	42137.275
2140.851	42177.775
2143.81746	42211.375
2146.78201	42150.875
2149.74466	42230.075
2152.7054	42238.175
2155.66425	42275.175
2158.6212	42244.675
2161.57625	42271.575
2164.52941	42223.075
2167.48067	42162.775
2170.43004	42186.775
2173.37752	42185.275
2176.32311	42236.475
2179.26681	42306.975
2182.20863	42368.375
2185.14856	42357.775
2188.08661	42370.475
2191.02278	42366.275
2193.95707	42283.275
2196.88948	42309.275
2199.82001	42312.475
2202.74867	42287.375
2205.67545	42268.975
2208.60037	42270.675
2211.52341	42251.275
2214.44458	42263.875
2217.36388	42249.175
2220.28132	42219.975
2223.1969	42068.575
2226.11061	42023.675
2229.02246	41869.575
2231.93245	41828.075
2234.84058	41791.275
2237.74686	41777.475
2240.65128	41741.175
2243.55385	41659.575
2246.45456	41590.375
2249.35343	41548.475
2252.25044	41530.675
2255.14561	41394.175
2258.03893	41429.075
2260.93041	41422.075
2263.82004	41298.375
2266.70783	41131.075
2269.59378	41057.175
2272.4779	41000.675
2275.36017	40937.575
2278.24061	40854.775
2281.11922	40786.075
2283.996	40752.575
2286.87094	40796.375
2289.74405	40694.475
2292.61534	40649.575
2295.4848	40699.175
2298.35243	40738.275
2301.21824	40684.475
2304.08223	40702.875
2306.94439	40690.875
2309.80474	40770.475
2312.66327	40825.575
2315.51999	40798.975
2318.37489	40809.975
2321.22797	40792.675
2324.07925	40764.375
2326.92871	40713.375
2329.77637	40636.975
2332.62222	40626.575
2335.46626	40643.275
2338.3085	40675.575
2341.14893	40708.575
2343.98756	40740.075
2346.8244	40743.075
2349.65943	40763.875
2352.49267	40784.275
2355.32411	40835.975
2358.15376	40712.475
2360.98161	40723.175
2363.80768	40676.675
2366.63195	40590.575
2369.45444	40506.775
2372.27514	40465.275
2375.09405	40407.975
2377.91118	40312.475
2380.72652	40210.675
2383.54009	40085.775
2386.35187	40043.875
2389.16188	39893.175
2391.97011	39881.975
2394.77657	39858.475
2397.58125	39819.075
2400.38416	39794.275
2403.18529	39675.975
2405.98466	39603.175
2408.78226	39537.175
2411.57809	39470.975
2414.37216	39362.575
2417.16446	39361.475
2419.955	39322.375
2422.74378	39337.875
2425.5308	39230.275
2428.31606	39283.575
2431.09956	39298.675
2433.88131	39274.675
2436.6613	39274.775
2439.43954	39240.575
2442.21603	39223.175
2444.99077	39205.675
2447.76377	39190.675
2450.53501	39125.075
2453.30451	39162.275
2456.07226	39099.275
2458.83827	39100.175
2461.60254	39061.875
2464.36507	39106.475
2467.12586	39101.775
2469.88492	39112.275
2472.64224	39125.175
2475.39782	39109.275
2478.15167	39178.575
2480.90379	39218.975
2483.65417	39269.675
2486.40283	39277.875
2489.14976	39293.475
2491.89497	39275.675
2494.63845	39363.275
2497.3802	39332.975
2500.12024	39377.175
2502.85855	39343.475
2505.59514	39296.675
2508.33002	39248.875
2511.06318	39167.775
2513.79462	39162.575
2516.52435	39207.375
2519.25237	39118.475
2521.97867	39079.075
2524.70327	39046.575
2527.42616	39011.675
2530.14734	39059.275
2532.86681	38978.575
2535.58458	38952.775
2538.30065	39015.975
2541.01501	39029.775
2543.72768	39044.075
2546.43864	38973.675
2549.14791	38896.275
2551.85548	38853.475
2554.56136	38803.775
2557.26554	38731.675
2559.96803	38677.775
2562.66883	38650.675
2565.36794	38621.175
2568.06536	38633.575
2570.7611	38549.975
2573.45514	38557.675
2576.14751	38575.675
2578.83819	38535.475
2581.52719	38575.675
2584.21451	38562.675
2586.90015	38580.875
2589.58411	38475.875
2592.2664	38497.475
2594.94701	38509.775
2597.62594	38524.775
2600.30321	38535.075
2602.9788	38562.375
2605.65273	38560.575
2608.32498	38560.875
2610.99557	38564.975
2613.66449	38596.875
2616.33175	38567.875
2618.99734	38549.375
2621.66128	38547.575
2624.32355	38534.175
2626.98416	38522.775
2629.64311	38492.775
2632.30041	38488.575
2634.95605	38515.575
2637.61004	38454.175
2640.26238	38444.475
2642.91306	38377.875
2645.56209	38329.175
2648.20948	38313.775
2650.85521	38284.375
2653.4993	38275.975
2656.14175	38296.275
2658.78255	38323.975
2661.42171	38376.775
2664.05923	38410.075
2666.6951	38420.075
2669.32934	38463.575
2671.96194	38478.075
2674.59291	38518.475
2677.22224	38500.375
2679.84993	38541.675
2682.476	38504.575
2685.10043	38420.675
2687.72324	38393.875
2690.34441	38414.975
2692.96396	38397.075
2695.58188	38442.575
2698.19818	38396.775
2700.81285	38364.075
2703.4259	38347.375
2706.03733	38401.475
2708.64714	38360.075
2711.25533	38389.175
2713.86191	38366.975
2716.46687	38501.875
2719.07021	38459.175
2721.67194	38525.675
2724.27206	38409.575
2726.87057	38500.375
2729.46747	38502.475
2732.06276	38549.075
2734.65644	38539.575
2737.24852	38597.175
2739.83899	38509.575
2742.42786	38573.975
2745.01513	38536.175
2747.60079	38520.475
2750.18486	38523.775
2752.76733	38511.675
2755.3482	38463.275
2757.92747	38505.175
2760.50515	38453.275
2763.08123	38433.175
2765.65573	38410.075
2768.22863	38447.775
2770.79994	38351.575
2773.36967	38356.775
2775.9378	38387.775
2778.50435	38420.075
2781.06932	38411.475
2783.6327	38387.275
2786.1945	38350.375
2788.75471	38281.975
2791.31335	38254.975
2793.87041	38186.075
2796.42589	38122.475
2798.97979	38115.275
2801.53212	37913.875
2804.08288	37912.675
2806.63206	37929.775
2809.17967	37836.675
2811.72571	37780.975
2814.27018	37697.775
2816.81308	37601.975
2819.35442	37591.675
2821.89419	37563.475
2824.43239	37558.475
2826.96904	37532.575
2829.50412	37560.075
2832.03763	37493.675
2834.56959	37517.675
2837.1	37426.675
2839.62884	37419.875
2842.15613	37369.675
2844.68186	37387.075
2847.20604	37319.575
2849.72867	37326.775
2852.24974	37274.875
2854.76927	37274.375
2857.28724	37190.575
2859.80367	37150.975
2862.31855	37157.475
2864.83189	37098.375
2867.34368	37049.875
2869.85393	37067.175
2872.36264	37040.975
2874.8698	37015.175
2877.37543	36958.375
2879.87952	36931.775
2882.38207	36982.675
2884.88308	37006.575
2887.38256	37027.875
2889.88051	37042.375
2892.37692	37070.775
2894.8718	37070.675
2897.36515	37120.775
2899.85698	37143.375
2902.34727	37219.575
2904.83604	37198.575
2907.32328	37260.175
2909.809	37267.975
2912.29319	37285.375
2914.77587	37271.475
2917.25702	37229.875
2919.73665	37225.975
2922.21476	37222.775
2924.69136	37176.675
2927.16644	37168.275
2929.64	37114.075
2932.11205	37087.975
2934.58258	37004.075
2937.05161	37080.975
2939.51912	37103.175
2941.98513	36934.675
2944.44962	36950.375
2946.91261	36854.575
2949.37409	36971.275
2951.83407	36957.475
2954.29254	36926.375
2956.74951	36906.175
2959.20498	36890.975
2961.65895	36882.575
2964.11142	36853.275
2966.56239	36828.175
2969.01186	36775.675
2971.45984	36646.475
2973.90632	36579.175
2976.35131	36517.575
2978.7948	36476.375
2981.23681	36448.975
2983.67732	36360.775
2986.11635	36276.375
2988.55388	36202.375
2990.98993	36175.275
2993.4245	36087.475
2995.85758	36011.075
2998.28917	35913.975
3000.71928	35817.175
3003.14791	35730.175
3005.57506	35728.375
3008.00073	35659.675
3010.42493	35675.075
3012.84764	35548.675
3015.26888	35526.075
3017.68865	35442.375
3020.10694	35408.975
3022.52376	35304.975
3024.9391	35303.375
3027.35298	35241.075
3029.76539	35221.075
3032.17632	35184.875
3034.5858	35157.375
3036.9938	35071.175
3039.40034	35079.075
3041.80542	35131.375
3044.20903	35061.775
3046.61118	35077.275
3049.01187	34921.775
3051.4111	34833.175
3053.80888	34789.875
3056.20519	34702.375
3058.60005	34602.775
3060.99345	34582.275
3063.3854	34447.475
3065.7759	34356.375
3068.16494	34250.675
3070.55254	34103.575
3072.93868	34049.475
3075.32338	33970.975
3077.70662	33876.275
3080.08842	33780.175
3082.46878	33690.075
3084.84769	33629.875
3087.22515	33633.875
3089.60118	33600.075
3091.97576	33567.275
3094.3489	33609.875
3096.72061	33577.775
3099.09087	33622.175
3101.4597	33565.675
3103.82709	33577.875
3106.19305	33570.675
3108.55757	33542.575
3110.92066	33411.575
3113.28232	33405.375
3115.64255	33309.975
3118.00134	33217.375
3120.35871	33146.575
3122.71466	33029.975
3125.06917	32972.175
3127.42226	32924.975
3129.77393	32919.375
3132.12417	32848.675
3134.47299	32852.975
3136.82039	32800.775
3139.16636	32811.275
3141.51092	32745.575
3143.85406	32727.475
3146.19579	32755.175
3148.53609	32740.775
3150.87499	32713.275
3153.21246	32771.675
3155.54853	32765.575
3157.88318	32786.975
3160.21642	32752.975
3162.54826	32727.675
3164.87868	32661.775
3167.2077	32623.675
3169.5353	32624.675
3171.86151	32585.975
3174.18631	32604.375
3176.5097	32607.975
3178.83169	32552.075
3181.15228	32494.775
3183.47147	32385.075
3185.78926	32400.375
3188.10565	32347.475
3190.42065	32324.275
3192.73424	32308.575
3195.04645	32286.575
3197.35725	32262.675
3199.66667	32257.075
3201.97469	32228.275
3204.28132	32214.875
3206.58656	32213.775
3208.8904	32227.875
3211.19287	32258.875
3213.49394	32203.375
3215.79363	32316.475
3218.09193	32310.275
3220.38884	32325.075
3222.68438	32345.875
3224.97853	32225.475
3227.2713	32206.575
3229.56269	32173.375
3231.8527	32185.275
3234.14133	32127.875
3236.42858	32016.275
3238.71446	32027.575
3240.99896	31922.075
3243.28209	31931.175
3245.56384	31875.375
3247.84423	31836.175
3250.12324	31812.575
3252.40088	31762.675
3254.67715	31791.975
3256.95205	31770.175
3259.22558	31746.975
3261.49775	31746.675
3263.76855	31688.775
3266.03799	31603.075
3268.30606	31573.875
3270.57277	31535.975
3272.83812	31463.175
3275.10211	31412.375
3277.36474	31373.775
3279.62601	31335.175
3281.88593	31281.575
3284.14448	31358.775
3286.40168	31286.575
3288.65753	31255.875
3290.91202	31261.475
3293.16516	31249.375
3295.41695	31182.875
3297.66738	30991.875
3299.91647	30830.375
3302.16421	30634.775
3304.4106	30525.775
3306.65564	30350.775
3308.89933	30147.875
3311.14169	29973.175
3313.38269	29718.775
3315.62236	29562.875
3317.86068	29282.675
3320.09766	29060.975
3322.3333	28854.475
3324.5676	28790.375
3326.80056	28322.475
3329.03219	28131.775
3331.26248	6.275
3333.49143	0.675
3335.71905	-1.025
