Data from AgNPs_FTO_APTES_UA_20uM_CRN_2uM_R6G_10uM_NaF_0.1M_Addition_RamanShift__37__13-23-42-118.txt Node

Date: Thu Feb 17 13:23:42 GMT 2022
User: TCL
Spectrometer: QEP01345
Trigger mode: 4
Integration Time (sec): 7.000000E0
Scans to average: 10
Electric dark correction enabled: true
Nonlinearity correction enabled: false
Boxcar width: 0
XAxis mode: Raman Shifts
Number of Pixels in Spectrum: 1044
>>>>>Begin Spectral Data<<<<<
46.04893	-0.3625
50.45542	-0.6625
54.85868	-3.7625
59.25871	-2.1625
63.6555	147.9375
68.04907	147.3375
72.43941	153.8375
76.82654	155.3375
81.21044	162.1375
85.59113	169.8375
89.96862	171.2375
94.34289	174.2375
98.71396	180.7375
103.08183	184.3375
107.4465	190.5375
111.80798	194.1375
116.16626	205.3375
120.52136	213.1375
124.87327	222.4375
129.222	239.1375
133.56755	259.5375
137.90993	277.7375
142.24913	306.7375
146.58517	349.7375
150.91804	409.8375
155.24774	497.2375
159.57429	616.5375
163.89768	811.5375
168.21792	1080.9375
172.53501	1500.1375
176.84895	2106.1375
181.15975	2965.3375
185.46741	4195.7375
189.77193	5805.6375
194.07331	7811.3375
198.37157	10062.7375
202.6667	12470.7375
206.9587	14837.4375
211.24758	17147.7375
215.53334	19452.2375
219.81599	21881.7375
224.09553	24563.0375
228.37195	27548.9375
232.64527	30808.7375
236.91549	34268.3375
241.18261	37839.8375
245.44663	41137.9375
249.70755	44213.1375
253.96539	46865.7375
258.22014	49175.1375
262.4718	50940.8375
266.72039	52305.1375
270.96589	53091.8375
275.20832	53076.3375
279.44768	52783.3375
283.68397	52306.6375
287.91719	51771.8375
292.14735	51344.9375
296.37445	51149.9375
300.59849	51193.7375
304.81948	51407.6375
309.03742	51472.5375
313.25231	51359.0375
317.46415	51060.7375
321.67296	50579.4375
325.87872	50253.3375
330.08145	50076.2375
334.28114	50180.9375
338.47781	50561.0375
342.67145	51230.4375
346.86207	51942.4375
351.04966	52822.3375
355.23424	53608.3375
359.4158	54181.2375
363.59435	54708.1375
367.76989	55125.2375
371.94243	55454.5375
376.11196	55853.1375
380.27849	56201.9375
384.44203	56706.1375
388.60257	57079.4375
392.76012	57591.9375
396.91468	58219.9375
401.06626	58829.5375
405.21485	59280.3375
409.36047	59268.0375
413.50311	58952.4375
417.64277	58805.4375
421.77947	58914.9375
425.9132	59217.2375
430.04396	59657.4375
434.17176	60148.0375
438.2966	60761.2375
442.41849	62017.0375
446.53742	63697.7375
450.6534	65469.8375
454.76644	66679.0375
458.87653	67016.4375
462.98368	66582.4375
467.08789	65677.4375
471.18916	64790.8375
475.2875	63764.1375
479.38291	63223.4375
483.4754	62711.4375
487.56496	62219.3375
491.6516	61698.9375
495.73531	61036.5375
499.81612	60615.2375
503.89401	60857.1375
507.96899	61135.3375
512.04106	61067.1375
516.11023	60874.9375
520.1765	60590.1375
524.23987	60575.9375
528.30034	60492.7375
532.35792	60369.0375
536.41261	59918.7375
540.46441	59469.9375
544.51333	59379.2375
548.55936	59733.2375
552.60252	60684.8375
556.64279	61966.1375
560.6802	63132.7375
564.71473	63691.7375
568.7464	64303.8375
572.7752	65715.4375
576.80114	67276.9375
580.82422	68817.2375
584.84444	70768.0375
588.86181	73903.2375
592.87633	77261.3375
596.888	77882.1375
600.89682	74747.5375
604.9028	72671.7375
608.90594	74405.6375
612.90624	76824.0375
616.90371	73200.0375
620.89834	65936.6375
624.89015	62746.7375
628.87913	62391.9375
632.86528	62601.2375
636.84862	62398.9375
640.82913	61564.4375
644.80683	60667.7375
648.78172	60020.6375
652.75379	60072.5375
656.72306	60719.8375
660.68952	61509.6375
664.65319	61273.5375
668.61405	60620.1375
672.57211	60661.0375
676.52738	60878.2375
680.47986	60917.4375
684.42955	60660.2375
688.37646	60534.2375
692.32058	60899.9375
696.26192	61646.3375
700.20048	62422.3375
704.13626	62809.7375
708.06928	62832.6375
711.99952	62719.0375
715.927	62750.3375
719.85171	63006.5375
723.77365	62801.9375
727.69284	62284.9375
731.60928	61707.6375
735.52295	61548.5375
739.43388	61646.1375
743.34206	61932.2375
747.24749	62279.9375
751.15017	62635.7375
755.05012	63385.5375
758.94733	64548.0375
762.8418	66533.4375
766.73354	69534.6375
770.62254	72287.3375
774.50882	72466.5375
778.39237	70251.5375
782.27321	67123.4375
786.15132	64634.0375
790.02671	63053.9375
793.89938	62285.7375
797.76935	61936.9375
801.6366	61716.4375
805.50115	61580.9375
809.36299	61494.8375
813.22213	61269.1375
817.07857	61170.4375
820.93231	61147.1375
824.78336	60983.8375
828.63172	60892.6375
832.47738	60927.7375
836.32036	60924.2375
840.16066	61114.1375
843.99827	61277.8375
847.8332	61355.1375
851.66546	61320.9375
855.49504	61419.3375
859.32195	61499.7375
863.1462	61499.8375
866.96777	61442.5375
870.78668	61312.1375
874.60293	61397.1375
878.41652	61493.0375
882.22745	61620.2375
886.03573	61721.6375
889.84136	61688.3375
893.64433	61444.0375
897.44466	61265.1375
901.24235	61092.0375
905.0374	61027.1375
908.8298	60968.6375
912.61957	61029.0375
916.40671	61498.9375
920.19121	62176.9375
923.97308	62761.1375
927.75233	62738.7375
931.52895	62314.2375
935.30295	61601.7375
939.07433	60972.7375
942.84309	60535.1375
946.60924	60448.5375
950.37278	60342.6375
954.13371	60468.8375
957.89203	60402.1375
961.64774	60347.5375
965.40086	60254.2375
969.15137	60239.9375
972.89929	60129.4375
976.64461	60113.2375
980.38733	60198.2375
984.12747	60309.1375
987.86502	60601.8375
991.59999	61117.4375
995.33237	61727.4375
999.06217	62602.2375
1002.78939	63731.1375
1006.51404	64827.1375
1010.23611	65776.0375
1013.95561	66414.3375
1017.67255	66600.3375
1021.38692	66114.1375
1025.09872	65107.7375
1028.80796	64466.7375
1032.51465	64632.7375
1036.21877	65201.5375
1039.92035	65315.6375
1043.61937	65137.5375
1047.31584	64773.6375
1051.00976	64330.3375
1054.70114	64232.6375
1058.38998	64316.0375
1062.07627	64622.2375
1065.76003	65163.8375
1069.44126	65771.2375
1073.11995	66552.6375
1076.79611	67229.1375
1080.46974	67701.7375
1084.14085	68097.6375
1087.80943	68661.3375
1091.47549	69065.7375
1095.13903	69019.9375
1098.80005	68413.3375
1102.45857	67476.9375
1106.11456	66814.5375
1109.76805	66601.0375
1113.41903	66723.2375
1117.06751	66977.8375
1120.71348	67330.2375
1124.35696	67776.6375
1127.99793	68078.1375
1131.63641	68205.6375
1135.2724	68104.4375
1138.90589	67929.8375
1142.5369	68222.3375
1146.16542	68528.7375
1149.79145	69120.4375
1153.415	69639.4375
1157.03607	70394.5375
1160.65467	71670.1375
1164.27079	73857.6375
1167.88443	76617.6375
1171.49561	79908.5375
1175.10432	83756.2375
1178.71056	88726.4375
1182.31434	93188.7375
1185.91565	94848.8375
1189.51451	93591.3375
1193.11091	91124.2375
1196.70485	88705.9375
1200.29634	86626.3375
1203.88538	85307.3375
1207.47197	84758.6375
1211.05612	84127.5375
1214.63782	83027.1375
1218.21708	81714.0375
1221.79391	80576.5375
1225.36829	80064.9375
1228.94024	79480.6375
1232.50976	78294.9375
1236.07685	76939.7375
1239.6415	76075.5375
1243.20374	75998.8375
1246.76355	76499.7375
1250.32093	77480.2375
1253.8759	78542.9375
1257.42845	80024.6375
1260.97859	81668.4375
1264.52631	83338.7375
1268.07163	85362.8375
1271.61453	87137.3375
1275.15503	88944.3375
1278.69312	90863.7375
1282.22882	92987.1375
1285.76211	95712.2375
1289.29301	99027.5375
1292.82151	102926.8375
1296.34761	107549.4375
1299.87133	113030.3375
1303.39266	118661.0375
1306.9116	124019.5375
1310.42815	128225.0375
1313.94233	130495.7375
1317.45412	129762.7375
1320.96354	127114.0375
1324.47058	124383.3375
1327.97525	122001.2375
1331.47754	120129.2375
1334.97747	118698.2375
1338.47502	117361.8375
1341.97022	116043.8375
1345.46305	114499.0375
1348.95352	113390.8375
1352.44163	113437.0375
1355.92738	116123.6375
1359.41078	120582.7375
1362.89183	123877.4375
1366.37053	122510.1375
1369.84688	114744.9375
1373.32088	104601.5375
1376.79254	97655.7375
1380.26186	95336.2375
1383.72883	95788.6375
1387.19347	96383.1375
1390.65578	95787.7375
1394.11575	95611.1375
1397.57339	96336.1375
1401.0287	97569.7375
1404.48168	98412.4375
1407.93234	98275.0375
1411.38068	96858.6375
1414.82669	94598.2375
1418.27039	91924.1375
1421.71177	89049.6375
1425.15083	86599.6375
1428.58758	85511.5375
1432.02203	86182.8375
1435.45416	88103.8375
1438.88399	90391.8375
1442.31151	92064.0375
1445.73673	92795.3375
1449.15965	93144.1375
1452.58027	92949.6375
1455.9986	92394.8375
1459.41463	92511.1375
1462.82837	93414.6375
1466.23982	94821.9375
1469.64898	96279.7375
1473.05586	97572.3375
1476.46045	98147.3375
1479.86276	98029.0375
1483.26279	97278.6375
1486.66054	96685.2375
1490.05602	96932.9375
1493.44922	97411.0375
1496.84016	97810.8375
1500.22882	98568.4375
1503.61521	99719.7375
1506.99934	101206.6375
1510.38121	102379.0375
1513.76081	102219.6375
1517.13816	100500.0375
1520.51324	98560.1375
1523.88607	97612.1375
1527.25665	97838.4375
1530.62498	98790.4375
1533.99105	99082.6375
1537.35488	98454.6375
1540.71647	96681.8375
1544.07581	94578.1375
1547.4329	92349.1375
1550.78776	90318.5375
1554.14038	88849.0375
1557.49077	88082.2375
1560.83892	87603.0375
1564.18484	87380.3375
1567.52853	87567.4375
1570.86999	88236.3375
1574.20922	89490.7375
1577.54624	90737.4375
1580.88103	91167.1375
1584.2136	92067.3375
1587.54395	94671.6375
1590.87208	99067.5375
1594.19801	104693.7375
1597.52172	110045.6375
1600.84321	111717.3375
1604.16251	107705.2375
1607.47959	100274.3375
1610.79447	92281.8375
1614.10715	85416.1375
1617.41763	80276.9375
1620.7259	77097.8375
1624.03199	75662.4375
1627.33587	75897.8375
1630.63757	77773.2375
1633.93707	81665.0375
1637.23439	88353.7375
1640.52951	98328.6375
1643.82246	110175.2375
1647.11321	119266.7375
1650.40179	119925.3375
1653.68819	111175.1375
1656.97241	97763.7375
1660.25446	85691.8375
1663.53433	77238.8375
1666.81203	71825.2375
1670.08756	68496.7375
1673.36092	66470.8375
1676.63211	65122.6375
1679.90115	64093.4375
1683.16801	63316.8375
1686.43272	62816.2375
1689.69527	62436.4375
1692.95567	62116.8375
1696.2139	61993.2375
1699.46999	61880.2375
1702.72392	61711.6375
1705.97571	61696.3375
1709.22535	61521.9375
1712.47284	61543.3375
1715.71819	61521.2375
1718.96139	61419.8375
1722.20246	61220.3375
1725.44139	61097.9375
1728.67818	60852.7375
1731.91284	60568.0375
1735.14537	60381.0375
1738.37576	60137.3375
1741.60403	60043.4375
1744.83017	59776.3375
1748.05418	59683.1375
1751.27607	59553.8375
1754.49584	59438.7375
1757.71349	59536.0375
1760.92903	59496.9375
1764.14244	59421.1375
1767.35375	59381.6375
1770.56294	59437.9375
1773.77002	59366.7375
1776.97499	59324.6375
1780.17785	59232.1375
1783.37861	59180.1375
1786.57727	59073.4375
1789.77382	58962.4375
1792.96828	58941.0375
1796.16064	58834.0375
1799.3509	58768.0375
1802.53907	58712.1375
1805.72514	58562.5375
1808.90913	58509.5375
1812.09102	58394.8375
1815.27083	58335.1375
1818.44856	58252.9375
1821.6242	58161.0375
1824.79776	58106.2375
1827.96924	58017.2375
1831.13864	58064.6375
1834.30597	57981.6375
1837.47122	57947.8375
1840.6344	57911.6375
1843.7955	57936.9375
1846.95454	57902.6375
1850.11151	57902.5375
1853.26642	57876.6375
1856.41926	57858.0375
1859.57004	57824.8375
1862.71876	57702.7375
1865.86542	57678.6375
1869.01003	57626.4375
1872.15258	57549.2375
1875.29308	57590.8375
1878.43152	57454.6375
1881.56792	57440.5375
1884.70227	57510.7375
1887.83457	57532.6375
1890.96482	57526.4375
1894.09304	57430.3375
1897.21921	57313.4375
1900.34335	57244.4375
1903.46544	57218.4375
1906.58551	57204.3375
1909.70353	57198.6375
1912.81953	57118.9375
1915.93349	57101.2375
1919.04543	56918.0375
1922.15534	56885.8375
1925.26322	56858.4375
1928.36908	56768.9375
1931.47292	56688.8375
1934.57473	56495.7375
1937.67453	56462.3375
1940.77232	56370.6375
1943.86808	56206.8375
1946.96184	56017.2375
1950.05358	55896.0375
1953.14331	55759.4375
1956.23103	55678.1375
1959.31675	55521.1375
1962.40046	55325.5375
1965.48217	55148.6375
1968.56188	54989.0375
1971.63959	54910.8375
1974.7153	54827.9375
1977.78901	54614.0375
1980.86073	54499.5375
1983.93046	54351.4375
1986.99819	54216.5375
1990.06394	54163.8375
1993.1277	54061.3375
1996.18947	53875.5375
1999.24925	53784.3375
2002.30706	53617.4375
2005.36288	53416.3375
2008.41672	53271.4375
2011.46859	53123.1375
2014.51848	52936.4375
2017.56639	52888.8375
2020.61233	52721.6375
2023.6563	52641.3375
2026.6983	52492.7375
2029.73833	52377.4375
2032.7764	52364.3375
2035.8125	52327.4375
2038.84664	52204.5375
2041.87881	52155.5375
2044.90903	52043.7375
2047.93729	51945.7375
2050.96359	51965.9375
2053.98794	51879.0375
2057.01034	51894.6375
2060.03078	51901.9375
2063.04927	51834.3375
2066.06582	51827.7375
2069.08042	51788.3375
2072.09307	51747.4375
2075.10378	51667.1375
2078.11255	51681.6375
2081.11938	51719.2375
2084.12426	51703.7375
2087.12722	51679.6375
2090.12824	51688.6375
2093.12732	51640.9375
2096.12447	51675.0375
2099.11969	51587.7375
2102.11299	51651.4375
2105.10435	51664.8375
2108.09379	51705.9375
2111.08131	51737.6375
2114.0669	51695.1375
2117.05057	51769.9375
2120.03233	51802.9375
2123.01216	51837.5375
2125.99008	51970.9375
2128.96609	52022.0375
2131.94018	52081.8375
2134.91236	52130.1375
2137.88263	52221.4375
2140.851	52252.8375
2143.81746	52308.5375
2146.78201	52265.7375
2149.74466	52309.6375
2152.7054	52306.6375
2155.66425	52393.8375
2158.6212	52381.0375
2161.57625	52335.9375
2164.52941	52324.3375
2167.48067	52278.3375
2170.43004	52252.9375
2173.37752	52332.9375
2176.32311	52359.6375
2179.26681	52430.8375
2182.20863	52380.2375
2185.14856	52412.4375
2188.08661	52428.1375
2191.02278	52375.2375
2193.95707	52358.4375
2196.88948	52265.2375
2199.82001	52324.2375
2202.74867	52263.1375
2205.67545	52223.2375
2208.60037	52075.4375
2211.52341	52081.9375
2214.44458	52032.6375
2217.36388	51957.9375
2220.28132	51934.8375
2223.1969	51822.3375
2226.11061	51722.1375
2229.02246	51555.2375
2231.93245	51498.9375
2234.84058	51500.4375
2237.74686	51504.6375
2240.65128	51438.7375
2243.55385	51334.5375
2246.45456	51299.6375
2249.35343	51220.9375
2252.25044	51123.5375
2255.14561	51052.7375
2258.03893	51046.0375
2260.93041	50960.8375
2263.82004	50772.9375
2266.70783	50660.1375
2269.59378	50559.8375
2272.4779	50455.2375
2275.36017	50403.1375
2278.24061	50319.9375
2281.11922	50217.6375
2283.996	50198.3375
2286.87094	50198.1375
2289.74405	50154.6375
2292.61534	50118.4375
2295.4848	50058.3375
2298.35243	50065.4375
2301.21824	49997.1375
2304.08223	49952.1375
2306.94439	49989.6375
2309.80474	50013.5375
2312.66327	49978.1375
2315.51999	49920.2375
2318.37489	49830.6375
2321.22797	49803.2375
2324.07925	49858.8375
2326.92871	49627.7375
2329.77637	49538.6375
2332.62222	49490.4375
2335.46626	49517.0375
2338.3085	49465.8375
2341.14893	49454.9375
2343.98756	49441.3375
2346.8244	49460.8375
2349.65943	49467.8375
2352.49267	49461.0375
2355.32411	49388.6375
2358.15376	49354.8375
2360.98161	49345.4375
2363.80768	49287.3375
2366.63195	49240.2375
2369.45444	49235.9375
2372.27514	49181.9375
2375.09405	49208.1375
2377.91118	49028.6375
2380.72652	48948.4375
2383.54009	48869.0375
2386.35187	48819.6375
2389.16188	48631.7375
2391.97011	48617.9375
2394.77657	48510.8375
2397.58125	48536.7375
2400.38416	48425.6375
2403.18529	48357.8375
2405.98466	48352.8375
2408.78226	48263.6375
2411.57809	48192.8375
2414.37216	48089.6375
2417.16446	48123.4375
2419.955	48108.0375
2422.74378	48075.5375
2425.5308	48034.4375
2428.31606	48046.6375
2431.09956	48055.1375
2433.88131	47979.5375
2436.6613	48028.8375
2439.43954	47964.8375
2442.21603	47946.1375
2444.99077	47868.4375
2447.76377	47887.1375
2450.53501	47805.1375
2453.30451	47847.8375
2456.07226	47760.7375
2458.83827	47774.4375
2461.60254	47713.3375
2464.36507	47711.7375
2467.12586	47667.3375
2469.88492	47718.3375
2472.64224	47706.6375
2475.39782	47722.2375
2478.15167	47668.2375
2480.90379	47735.3375
2483.65417	47734.1375
2486.40283	47760.4375
2489.14976	47746.7375
2491.89497	47623.1375
2494.63845	47732.3375
2497.3802	47615.6375
2500.12024	47671.1375
2502.85855	47622.9375
2505.59514	47627.6375
2508.33002	47572.5375
2511.06318	47515.8375
2513.79462	47450.0375
2516.52435	47460.0375
2519.25237	47416.9375
2521.97867	47413.7375
2524.70327	47365.6375
2527.42616	47270.4375
2530.14734	47319.3375
2532.86681	47253.7375
2535.58458	47250.3375
2538.30065	47236.8375
2541.01501	47196.9375
2543.72768	47137.5375
2546.43864	47160.7375
2549.14791	46996.7375
2551.85548	46992.5375
2554.56136	46937.0375
2557.26554	46784.7375
2559.96803	46786.0375
2562.66883	46728.6375
2565.36794	46701.4375
2568.06536	46721.7375
2570.7611	46521.8375
2573.45514	46515.5375
2576.14751	46468.0375
2578.83819	46423.9375
2581.52719	46438.1375
2584.21451	46378.1375
2586.90015	46366.0375
2589.58411	46264.5375
2592.2664	46285.8375
2594.94701	46203.1375
2597.62594	46208.6375
2600.30321	46161.2375
2602.9788	46146.0375
2605.65273	46073.5375
2608.32498	46099.0375
2610.99557	46078.7375
2613.66449	46082.6375
2616.33175	46034.9375
2618.99734	45936.4375
2621.66128	45845.9375
2624.32355	45825.3375
2626.98416	45775.9375
2629.64311	45722.8375
2632.30041	45689.2375
2634.95605	45668.8375
2637.61004	45603.0375
2640.26238	45625.9375
2642.91306	45576.6375
2645.56209	45480.9375
2648.20948	45585.5375
2650.85521	45579.7375
2653.4993	45558.8375
2656.14175	45545.6375
2658.78255	45600.6375
2661.42171	45671.4375
2664.05923	45736.3375
2666.6951	45684.5375
2669.32934	45688.2375
2671.96194	45632.6375
2674.59291	45735.0375
2677.22224	45799.9375
2679.84993	45750.4375
2682.476	45674.6375
2685.10043	45622.3375
2687.72324	45567.7375
2690.34441	45623.2375
2692.96396	45637.9375
2695.58188	45685.7375
2698.19818	45612.6375
2700.81285	45582.3375
2703.4259	45650.6375
2706.03733	45701.3375
2708.64714	45682.9375
2711.25533	45704.1375
2713.86191	45703.3375
2716.46687	45783.5375
2719.07021	45761.5375
2721.67194	45820.4375
2724.27206	45760.8375
2726.87057	45821.4375
2729.46747	45886.8375
2732.06276	45824.1375
2734.65644	45846.8375
2737.24852	45904.7375
2739.83899	45757.8375
2742.42786	45848.6375
2745.01513	45808.8375
2747.60079	45727.5375
2750.18486	45689.3375
2752.76733	45687.3375
2755.3482	45644.3375
2757.92747	45589.7375
2760.50515	45548.5375
2763.08123	45510.8375
2765.65573	45552.7375
2768.22863	45502.8375
2770.79994	45461.4375
2773.36967	45520.8375
2775.9378	45553.0375
2778.50435	45467.5375
2781.06932	45443.9375
2783.6327	45384.2375
2786.1945	45394.2375
2788.75471	45292.8375
2791.31335	45229.9375
2793.87041	45176.7375
2796.42589	45110.4375
2798.97979	45007.1375
2801.53212	44846.9375
2804.08288	44800.9375
2806.63206	44726.8375
2809.17967	44683.7375
2811.72571	44546.7375
2814.27018	44388.8375
2816.81308	44214.0375
2819.35442	44131.5375
2821.89419	44133.9375
2824.43239	44097.8375
2826.96904	44084.5375
2829.50412	44105.8375
2832.03763	43958.2375
2834.56959	43999.5375
2837.1	43902.3375
2839.62884	43911.9375
2842.15613	43838.9375
2844.68186	43797.9375
2847.20604	43755.8375
2849.72867	43690.2375
2852.24974	43707.2375
2854.76927	43574.9375
2857.28724	43534.6375
2859.80367	43551.7375
2862.31855	43466.0375
2864.83189	43413.2375
2867.34368	43323.8375
2869.85393	43328.7375
2872.36264	43251.0375
2874.8698	43219.6375
2877.37543	43226.2375
2879.87952	43146.7375
2882.38207	43195.7375
2884.88308	43199.5375
2887.38256	43195.9375
2889.88051	43180.1375
2892.37692	43182.8375
2894.8718	43210.4375
2897.36515	43290.6375
2899.85698	43251.9375
2902.34727	43328.0375
2904.83604	43361.4375
2907.32328	43379.6375
2909.809	43390.1375
2912.29319	43455.8375
2914.77587	43439.1375
2917.25702	43438.4375
2919.73665	43344.8375
2922.21476	43325.9375
2924.69136	43303.5375
2927.16644	43329.8375
2929.64	43285.7375
2932.11205	43280.0375
2934.58258	43130.0375
2937.05161	43217.1375
2939.51912	43208.5375
2941.98513	43107.2375
2944.44962	43136.5375
2946.91261	42982.7375
2949.37409	43121.7375
2951.83407	43066.4375
2954.29254	43083.1375
2956.74951	43021.8375
2959.20498	43059.9375
2961.65895	43048.7375
2964.11142	43166.8375
2966.56239	43085.9375
2969.01186	43027.4375
2971.45984	42883.6375
2973.90632	42759.0375
2976.35131	42720.0375
2978.7948	42690.6375
2981.23681	42664.1375
2983.67732	42634.0375
2986.11635	42520.9375
2988.55388	42407.4375
2990.98993	42389.6375
2993.4245	42290.5375
2995.85758	42187.5375
2998.28917	42055.2375
3000.71928	42017.7375
3003.14791	41884.9375
3005.57506	41937.1375
3008.00073	41772.4375
3010.42493	41750.1375
3012.84764	41640.4375
3015.26888	41635.1375
3017.68865	41571.9375
3020.10694	41470.2375
3022.52376	41384.3375
3024.9391	41391.7375
3027.35298	41335.3375
3029.76539	41245.8375
3032.17632	41282.8375
3034.5858	41217.7375
3036.9938	41170.6375
3039.40034	41149.5375
3041.80542	41126.1375
3044.20903	41027.0375
3046.61118	40956.6375
3049.01187	40898.3375
3051.4111	40805.5375
3053.80888	40692.8375
3056.20519	40681.1375
3058.60005	40584.3375
3060.99345	40558.0375
3063.3854	40439.7375
3065.7759	40297.2375
3068.16494	40227.0375
3070.55254	40044.6375
3072.93868	39998.1375
3075.32338	39879.5375
3077.70662	39873.9375
3080.08842	39728.2375
3082.46878	39636.4375
3084.84769	39551.2375
3087.22515	39564.5375
3089.60118	39495.9375
3091.97576	39484.8375
3094.3489	39472.3375
3096.72061	39486.7375
3099.09087	39440.6375
3101.4597	39449.1375
3103.82709	39463.9375
3106.19305	39413.3375
3108.55757	39432.0375
3110.92066	39339.4375
3113.28232	39297.4375
3115.64255	39096.8375
3118.00134	39071.5375
3120.35871	38926.4375
3122.71466	38806.3375
3125.06917	38752.5375
3127.42226	38722.0375
3129.77393	38711.0375
3132.12417	38665.2375
3134.47299	38548.9375
3136.82039	38539.2375
3139.16636	38559.5375
3141.51092	38498.5375
3143.85406	38545.6375
3146.19579	38473.5375
3148.53609	38502.5375
3150.87499	38512.6375
3153.21246	38492.1375
3155.54853	38488.9375
3157.88318	38433.6375
3160.21642	38493.7375
3162.54826	38459.6375
3164.87868	38344.1375
3167.2077	38318.4375
3169.5353	38306.8375
3171.86151	38313.6375
3174.18631	38258.5375
3176.5097	38297.5375
3178.83169	38252.7375
3181.15228	38194.8375
3183.47147	38023.1375
3185.78926	38029.5375
3188.10565	37957.6375
3190.42065	37903.5375
3192.73424	37872.0375
3195.04645	37796.9375
3197.35725	37779.7375
3199.66667	37696.2375
3201.97469	37673.2375
3204.28132	37652.1375
3206.58656	37689.1375
3208.8904	37641.2375
3211.19287	37684.6375
3213.49394	37663.4375
3215.79363	37692.7375
3218.09193	37680.8375
3220.38884	37701.4375
3222.68438	37727.1375
3224.97853	37650.7375
3227.2713	37634.2375
3229.56269	37544.5375
3231.8527	37593.0375
3234.14133	37490.3375
3236.42858	37400.6375
3238.71446	37350.3375
3240.99896	37259.2375
3243.28209	37232.6375
3245.56384	37216.7375
3247.84423	37167.7375
3250.12324	37080.4375
3252.40088	37118.3375
3254.67715	37094.8375
3256.95205	37022.0375
3259.22558	36987.8375
3261.49775	36937.6375
3263.76855	36944.9375
3266.03799	36764.6375
3268.30606	36758.0375
3270.57277	36673.7375
3272.83812	36613.4375
3275.10211	36557.7375
3277.36474	36493.3375
3279.62601	36465.6375
3281.88593	36444.7375
3284.14448	36441.5375
3286.40168	36478.6375
3288.65753	36373.2375
3290.91202	36380.1375
3293.16516	36315.8375
3295.41695	36250.9375
3297.66738	36041.9375
3299.91647	35808.3375
3302.16421	35600.0375
3304.4106	35430.7375
3306.65564	35158.0375
3308.89933	34957.9375
3311.14169	34748.5375
3313.38269	34550.5375
3315.62236	34305.6375
3317.86068	33963.6375
3320.09766	33633.9375
3322.3333	33466.8375
3324.5676	33305.1375
3326.80056	32803.2375
3329.03219	32591.8375
3331.26248	7.8375
3333.49143	0.3375
3335.71905	-0.3625
