Data from AgNPs_FTO_APTES_UA_20uM_CRN_500uM_R6G_10uM_NaF_0.1M_Addition_RamanShift__18__18-53-04-979.txt Node

Date: Thu Feb 17 18:53:04 GMT 2022
User: TCL
Spectrometer: QEP01345
Trigger mode: 4
Integration Time (sec): 1.000000E1
Scans to average: 7
Electric dark correction enabled: true
Nonlinearity correction enabled: false
Boxcar width: 0
XAxis mode: Raman Shifts
Number of Pixels in Spectrum: 1044
>>>>>Begin Spectral Data<<<<<
46.04893	1.25
50.45542	-1.17857
54.85868	-0.32143
59.25871	-2.17857
63.6555	68.53571
68.04907	67.53571
72.43941	70.82143
76.82654	75.39286
81.21044	80.25
85.59113	84.25
89.96862	87.82143
94.34289	84.82143
98.71396	88.82143
103.08183	93.82143
107.4465	98.96429
111.80798	97.39286
116.16626	100.10714
120.52136	103.67857
124.87327	105.96429
129.222	112.39286
133.56755	107.82143
137.90993	129.96429
142.24913	132.39286
146.58517	151.25
150.91804	170.82143
155.24774	201.82143
159.57429	245.25
163.89768	316.67857
168.21792	419.25
172.53501	570.96429
176.84895	794.53571
181.15975	1116.96429
185.46741	1576.10714
189.77193	2196.96429
194.07331	2957.25
198.37157	3841.96429
202.6667	4774.96429
206.9587	5690.25
211.24758	6624.96429
215.53334	7503.96429
219.81599	8470.53571
224.09553	9491.96429
228.37195	10593.67857
232.64527	11866.96429
236.91549	13211.25
241.18261	14529.53571
245.44663	15804.82143
249.70755	16949.39286
253.96539	17956.25
258.22014	18724.53571
262.4718	19377.82143
266.72039	19794.67857
270.96589	20014.10714
275.20832	19973.67857
279.44768	19813.25
283.68397	19548.25
287.91719	19288.96429
292.14735	19066.82143
296.37445	18970.39286
300.59849	18996.25
304.81948	19005.25
309.03742	19075.96429
313.25231	18980.67857
317.46415	18826.82143
321.67296	18494.53571
325.87872	18257.96429
330.08145	18192.10714
334.28114	18216.96429
338.47781	18399.25
342.67145	18630.96429
346.86207	18916.39286
351.04966	19272.96429
355.23424	19688.53571
359.4158	20043.67857
363.59435	20374.25
367.76989	20575.25
371.94243	20725.25
376.11196	20909.10714
380.27849	21036.10714
384.44203	21167.39286
388.60257	21241.25
392.76012	21321.67857
396.91468	21525.25
401.06626	21725.53571
405.21485	21923.53571
409.36047	21862.82143
413.50311	21637.67857
417.64277	21405.10714
421.77947	21282.10714
425.9132	21321.96429
430.04396	21401.82143
434.17176	21541.53571
438.2966	21801.67857
442.41849	22063.96429
446.53742	22478.25
450.6534	22972.25
454.76644	23326.67857
458.87653	23414.39286
462.98368	23403.25
467.08789	23190.53571
471.18916	22954.96429
475.2875	22728.10714
479.38291	22536.96429
483.4754	22399.25
487.56496	22274.39286
491.6516	22206.82143
495.73531	22149.96429
499.81612	22155.53571
503.89401	22267.53571
507.96899	22420.53571
512.04106	22449.39286
516.11023	22530.25
520.1765	22530.39286
524.23987	22567.39286
528.30034	22531.10714
532.35792	22524.53571
536.41261	22409.39286
540.46441	22326.25
544.51333	22260.25
548.55936	22297.96429
552.60252	22436.96429
556.64279	22648.67857
560.6802	22758.96429
564.71473	22806.39286
568.7464	22903.39286
572.7752	23058.10714
576.80114	23123.96429
580.82422	23146.67857
584.84444	23330.53571
588.86181	23657.53571
592.87633	24101.82143
596.888	24379.96429
600.89682	24443.25
604.9028	24952.67857
608.90594	26655.10714
612.90624	28776.67857
616.90371	28008.82143
620.89834	24749.53571
624.89015	23175.82143
628.87913	22932.82143
632.86528	22948.10714
636.84862	23032.53571
640.82913	22961.67857
644.80683	22667.10714
648.78172	22417.10714
652.75379	22382.96429
656.72306	22664.25
660.68952	22973.10714
664.65319	22922.53571
668.61405	22645.96429
672.57211	22706.82143
676.52738	22944.53571
680.47986	23061.39286
684.42955	22959.39286
688.37646	22883.25
692.32058	22777.25
696.26192	22765.10714
700.20048	22920.10714
704.13626	23011.10714
708.06928	22901.53571
711.99952	22739.25
715.927	22668.53571
719.85171	22662.82143
723.77365	22680.53571
727.69284	22648.53571
731.60928	22592.67857
735.52295	22573.67857
739.43388	22611.67857
743.34206	22542.96429
747.24749	22605.67857
751.15017	22602.67857
755.05012	22753.82143
758.94733	23013.25
762.8418	23638.96429
766.73354	24751.67857
770.62254	26020.39286
774.50882	26714.10714
778.39237	26187.10714
782.27321	24894.67857
786.15132	23711.96429
790.02671	22887.96429
793.89938	22494.53571
797.76935	22365.82143
801.6366	22297.39286
805.50115	22227.25
809.36299	22145.53571
813.22213	22075.39286
817.07857	21988.96429
820.93231	21940.39286
824.78336	21948.53571
828.63172	21923.10714
832.47738	21966.39286
836.32036	21913.67857
840.16066	21992.10714
843.99827	22040.39286
847.8332	22032.96429
851.66546	22010.25
855.49504	21972.82143
859.32195	22086.25
863.1462	22113.25
866.96777	22153.25
870.78668	22102.82143
874.60293	22134.53571
878.41652	22151.25
882.22745	22179.67857
886.03573	22210.53571
889.84136	22224.53571
893.64433	22079.10714
897.44466	22052.39286
901.24235	21952.10714
905.0374	21884.53571
908.8298	21816.53571
912.61957	21808.82143
916.40671	21832.67857
920.19121	21852.96429
923.97308	22025.67857
927.75233	22056.39286
931.52895	22053.10714
935.30295	22006.82143
939.07433	21841.10714
942.84309	21648.96429
946.60924	21499.25
950.37278	21446.25
954.13371	21381.82143
957.89203	21272.53571
961.64774	21244.96429
965.40086	21188.67857
969.15137	21135.96429
972.89929	21129.10714
976.64461	21069.53571
980.38733	21097.82143
984.12747	21163.53571
987.86502	21263.96429
991.59999	21390.96429
995.33237	21570.25
999.06217	21835.82143
1002.78939	22133.10714
1006.51404	22245.10714
1010.23611	22412.25
1013.95561	22558.25
1017.67255	22588.96429
1021.38692	22511.25
1025.09872	22386.53571
1028.80796	22343.67857
1032.51465	22500.82143
1036.21877	22702.25
1039.92035	22737.10714
1043.61937	22698.39286
1047.31584	22508.53571
1051.00976	22333.25
1054.70114	22272.53571
1058.38998	22224.53571
1062.07627	22249.67857
1065.76003	22253.96429
1069.44126	22255.96429
1073.11995	22386.53571
1076.79611	22497.82143
1080.46974	22678.67857
1084.14085	22771.67857
1087.80943	22895.10714
1091.47549	22914.67857
1095.13903	22851.96429
1098.80005	22715.82143
1102.45857	22534.82143
1106.11456	22448.67857
1109.76805	22516.25
1113.41903	22636.96429
1117.06751	22746.82143
1120.71348	22942.39286
1124.35696	23083.96429
1127.99793	23273.82143
1131.63641	23411.96429
1135.2724	23271.53571
1138.90589	23066.10714
1142.5369	22846.10714
1146.16542	22749.96429
1149.79145	22620.67857
1153.415	22555.96429
1157.03607	22639.10714
1160.65467	22873.67857
1164.27079	23278.96429
1167.88443	23827.67857
1171.49561	24650.25
1175.10432	25690.82143
1178.71056	27063.96429
1182.31434	28388.67857
1185.91565	29047.82143
1189.51451	28944.53571
1193.11091	28268.67857
1196.70485	27395.25
1200.29634	26636.25
1203.88538	25980.67857
1207.47197	25375.39286
1211.05612	24808.96429
1214.63782	24423.39286
1218.21708	24258.39286
1221.79391	24252.67857
1225.36829	24332.39286
1228.94024	24280.67857
1232.50976	24099.25
1236.07685	23880.10714
1239.6415	23755.67857
1243.20374	23731.39286
1246.76355	23855.82143
1250.32093	24025.25
1253.8759	24234.96429
1257.42845	24572.67857
1260.97859	24900.67857
1264.52631	25220.39286
1268.07163	25578.53571
1271.61453	25947.82143
1275.15503	26359.96429
1278.69312	26717.10714
1282.22882	26963.10714
1285.76211	27275.10714
1289.29301	27579.96429
1292.82151	27990.25
1296.34761	28602.25
1299.87133	29471.67857
1303.39266	30611.67857
1306.9116	32036.96429
1310.42815	33621.39286
1313.94233	34563.39286
1317.45412	34480.67857
1320.96354	33583.39286
1324.47058	32449.96429
1327.97525	31375.67857
1331.47754	30712.25
1334.97747	30318.39286
1338.47502	30255.25
1341.97022	30423.25
1345.46305	30806.96429
1348.95352	31330.39286
1352.44163	32108.39286
1355.92738	33361.10714
1359.41078	35013.82143
1362.89183	36443.25
1366.37053	35902.96429
1369.84688	33303.10714
1373.32088	30137.39286
1376.79254	27991.53571
1380.26186	26906.67857
1383.72883	26455.39286
1387.19347	26093.25
1390.65578	25686.96429
1394.11575	25277.25
1397.57339	25242.39286
1401.0287	25340.39286
1404.48168	25512.82143
1407.93234	25605.53571
1411.38068	25595.25
1414.82669	25483.10714
1418.27039	25295.39286
1421.71177	25025.10714
1425.15083	24660.39286
1428.58758	24404.53571
1432.02203	24379.25
1435.45416	24578.10714
1438.88399	24828.10714
1442.31151	24997.39286
1445.73673	25077.10714
1449.15965	25128.39286
1452.58027	25174.82143
1455.9986	25093.82143
1459.41463	25098.25
1462.82837	25239.25
1466.23982	25625.67857
1469.64898	25993.10714
1473.05586	26356.10714
1476.46045	26491.25
1479.86276	26600.96429
1483.26279	26573.39286
1486.66054	26621.25
1490.05602	26707.67857
1493.44922	27006.39286
1496.84016	27359.96429
1500.22882	27927.10714
1503.61521	28897.39286
1506.99934	30110.10714
1510.38121	31066.96429
1513.76081	31229.10714
1517.13816	30487.25
1520.51324	29028.82143
1523.88607	27734.10714
1527.25665	26906.67857
1530.62498	26411.10714
1533.99105	26225.25
1537.35488	26132.10714
1540.71647	25985.10714
1544.07581	25844.82143
1547.4329	25684.25
1550.78776	25519.82143
1554.14038	25370.39286
1557.49077	25350.25
1560.83892	25305.25
1564.18484	25441.10714
1567.52853	25522.10714
1570.86999	25712.53571
1574.20922	25837.67857
1577.54624	25896.67857
1580.88103	25627.96429
1584.2136	25274.39286
1587.54395	25170.96429
1590.87208	25518.39286
1594.19801	26430.82143
1597.52172	27572.39286
1600.84321	28203.96429
1604.16251	27913.82143
1607.47959	26917.82143
1610.79447	25751.82143
1614.10715	24577.53571
1617.41763	23582.39286
1620.7259	22865.39286
1624.03199	22445.10714
1627.33587	22291.53571
1630.63757	22452.39286
1633.93707	23031.82143
1637.23439	23971.25
1640.52951	25347.10714
1643.82246	27162.39286
1647.11321	28726.39286
1650.40179	29300.39286
1653.68819	28338.10714
1656.97241	26127.67857
1660.25446	23939.67857
1663.53433	22349.25
1666.81203	21385.82143
1670.08756	20767.39286
1673.36092	20311.25
1676.63211	20028.39286
1679.90115	19825.25
1683.16801	19659.82143
1686.43272	19500.67857
1689.69527	19377.10714
1692.95567	19339.67857
1696.2139	19263.82143
1699.46999	19224.10714
1702.72392	19187.67857
1705.97571	19154.96429
1709.22535	19115.53571
1712.47284	19079.67857
1715.71819	19047.82143
1718.96139	19032.39286
1722.20246	18946.10714
1725.44139	18890.25
1728.67818	18836.25
1731.91284	18767.67857
1735.14537	18738.96429
1738.37576	18707.96429
1741.60403	18667.25
1744.83017	18598.67857
1748.05418	18574.96429
1751.27607	18590.67857
1754.49584	18542.10714
1757.71349	18550.96429
1760.92903	18509.67857
1764.14244	18464.39286
1767.35375	18467.53571
1770.56294	18402.53571
1773.77002	18304.96429
1776.97499	18293.96429
1780.17785	18263.96429
1783.37861	18237.67857
1786.57727	18161.67857
1789.77382	18121.82143
1792.96828	18115.67857
1796.16064	18030.25
1799.3509	17957.53571
1802.53907	17977.25
1805.72514	17941.67857
1808.90913	17872.10714
1812.09102	17833.82143
1815.27083	17780.67857
1818.44856	17807.39286
1821.6242	17782.39286
1824.79776	17771.53571
1827.96924	17740.53571
1831.13864	17656.39286
1834.30597	17681.10714
1837.47122	17625.82143
1840.6344	17639.25
1843.7955	17647.82143
1846.95454	17655.25
1850.11151	17594.53571
1853.26642	17590.25
1856.41926	17555.96429
1859.57004	17554.96429
1862.71876	17531.25
1865.86542	17522.67857
1869.01003	17498.67857
1872.15258	17525.67857
1875.29308	17478.10714
1878.43152	17501.39286
1881.56792	17473.25
1884.70227	17432.82143
1887.83457	17410.10714
1890.96482	17345.53571
1894.09304	17362.67857
1897.21921	17328.67857
1900.34335	17332.25
1903.46544	17265.82143
1906.58551	17286.25
1909.70353	17249.96429
1912.81953	17240.10714
1915.93349	17236.39286
1919.04543	17221.10714
1922.15534	17175.67857
1925.26322	17119.39286
1928.36908	17103.53571
1931.47292	17104.67857
1934.57473	17088.67857
1937.67453	17052.96429
1940.77232	16966.10714
1943.86808	16953.39286
1946.96184	16898.96429
1950.05358	16832.10714
1953.14331	16837.96429
1956.23103	16766.10714
1959.31675	16720.67857
1962.40046	16702.96429
1965.48217	16643.39286
1968.56188	16579.67857
1971.63959	16501.25
1974.7153	16512.10714
1977.78901	16471.82143
1980.86073	16386.96429
1983.93046	16325.96429
1986.99819	16276.39286
1990.06394	16249.10714
1993.1277	16196.39286
1996.18947	16192.10714
1999.24925	16090.25
2002.30706	16024.96429
2005.36288	16015.39286
2008.41672	15959.96429
2011.46859	15929.39286
2014.51848	15883.25
2017.56639	15840.96429
2020.61233	15800.82143
2023.6563	15749.96429
2026.6983	15693.96429
2029.73833	15669.25
2032.7764	15653.39286
2035.8125	15628.67857
2038.84664	15532.53571
2041.87881	15553.10714
2044.90903	15540.39286
2047.93729	15487.10714
2050.96359	15512.10714
2053.98794	15472.39286
2057.01034	15449.67857
2060.03078	15470.53571
2063.04927	15419.10714
2066.06582	15401.53571
2069.08042	15443.96429
2072.09307	15395.53571
2075.10378	15391.53571
2078.11255	15368.39286
2081.11938	15365.25
2084.12426	15351.53571
2087.12722	15350.96429
2090.12824	15363.53571
2093.12732	15344.39286
2096.12447	15386.25
2099.11969	15343.39286
2102.11299	15338.39286
2105.10435	15365.96429
2108.09379	15391.10714
2111.08131	15366.67857
2114.0669	15400.25
2117.05057	15411.82143
2120.03233	15407.53571
2123.01216	15431.25
2125.99008	15470.10714
2128.96609	15468.10714
2131.94018	15483.10714
2134.91236	15521.53571
2137.88263	15481.25
2140.851	15475.67857
2143.81746	15501.25
2146.78201	15486.67857
2149.74466	15527.96429
2152.7054	15516.10714
2155.66425	15498.25
2158.6212	15494.10714
2161.57625	15497.25
2164.52941	15486.67857
2167.48067	15475.25
2170.43004	15455.53571
2173.37752	15452.25
2176.32311	15471.39286
2179.26681	15461.25
2182.20863	15471.82143
2185.14856	15465.53571
2188.08661	15439.53571
2191.02278	15469.96429
2193.95707	15437.82143
2196.88948	15437.67857
2199.82001	15418.53571
2202.74867	15415.10714
2205.67545	15406.53571
2208.60037	15375.25
2211.52341	15362.53571
2214.44458	15336.67857
2217.36388	15304.25
2220.28132	15326.67857
2223.1969	15248.82143
2226.11061	15224.10714
2229.02246	15186.25
2231.93245	15173.10714
2234.84058	15100.82143
2237.74686	15079.25
2240.65128	15130.25
2243.55385	15114.67857
2246.45456	15084.53571
2249.35343	15064.53571
2252.25044	15028.82143
2255.14561	15014.82143
2258.03893	15004.39286
2260.93041	14973.10714
2263.82004	14939.67857
2266.70783	14944.39286
2269.59378	14860.25
2272.4779	14825.39286
2275.36017	14815.82143
2278.24061	14770.53571
2281.11922	14734.53571
2283.996	14732.67857
2286.87094	14696.82143
2289.74405	14693.67857
2292.61534	14674.82143
2295.4848	14653.25
2298.35243	14635.96429
2301.21824	14660.39286
2304.08223	14635.96429
2306.94439	14612.10714
2309.80474	14628.82143
2312.66327	14610.53571
2315.51999	14591.82143
2318.37489	14571.10714
2321.22797	14595.82143
2324.07925	14557.82143
2326.92871	14513.82143
2329.77637	14474.53571
2332.62222	14471.67857
2335.46626	14469.82143
2338.3085	14471.96429
2341.14893	14436.67857
2343.98756	14435.96429
2346.8244	14477.67857
2349.65943	14381.39286
2352.49267	14402.25
2355.32411	14380.53571
2358.15376	14380.25
2360.98161	14377.67857
2363.80768	14380.10714
2366.63195	14350.96429
2369.45444	14359.39286
2372.27514	14297.96429
2375.09405	14288.39286
2377.91118	14266.96429
2380.72652	14258.39286
2383.54009	14212.10714
2386.35187	14186.25
2389.16188	14119.67857
2391.97011	14133.10714
2394.77657	14100.82143
2397.58125	14077.53571
2400.38416	14043.96429
2403.18529	14058.82143
2405.98466	14018.53571
2408.78226	13985.96429
2411.57809	13961.10714
2414.37216	13934.96429
2417.16446	13929.10714
2419.955	13901.96429
2422.74378	13938.25
2425.5308	13897.96429
2428.31606	13879.10714
2431.09956	13912.25
2433.88131	13871.25
2436.6613	13860.67857
2439.43954	13841.10714
2442.21603	13831.39286
2444.99077	13793.39286
2447.76377	13779.39286
2450.53501	13782.53571
2453.30451	13803.82143
2456.07226	13763.96429
2458.83827	13742.82143
2461.60254	13745.39286
2464.36507	13726.67857
2467.12586	13710.39286
2469.88492	13678.67857
2472.64224	13713.53571
2475.39782	13713.53571
2478.15167	13711.53571
2480.90379	13710.25
2483.65417	13673.96429
2486.40283	13687.39286
2489.14976	13678.10714
2491.89497	13696.39286
2494.63845	13687.25
2497.3802	13687.67857
2500.12024	13657.67857
2502.85855	13640.82143
2505.59514	13618.25
2508.33002	13590.10714
2511.06318	13573.25
2513.79462	13555.53571
2516.52435	13571.82143
2519.25237	13539.39286
2521.97867	13518.82143
2524.70327	13484.53571
2527.42616	13483.53571
2530.14734	13472.67857
2532.86681	13481.82143
2535.58458	13471.10714
2538.30065	13436.39286
2541.01501	13418.10714
2543.72768	13425.39286
2546.43864	13419.67857
2549.14791	13367.10714
2551.85548	13355.82143
2554.56136	13334.39286
2557.26554	13274.96429
2559.96803	13304.39286
2562.66883	13283.10714
2565.36794	13245.25
2568.06536	13201.39286
2570.7611	13155.25
2573.45514	13175.67857
2576.14751	13143.67857
2578.83819	13119.67857
2581.52719	13097.67857
2584.21451	13107.82143
2586.90015	13077.53571
2589.58411	13083.82143
2592.2664	13083.82143
2594.94701	13073.67857
2597.62594	12991.25
2600.30321	12998.10714
2602.9788	12948.67857
2605.65273	12929.82143
2608.32498	12935.82143
2610.99557	12913.25
2613.66449	12945.82143
2616.33175	12936.25
2618.99734	12922.53571
2621.66128	12908.82143
2624.32355	12880.39286
2626.98416	12846.39286
2629.64311	12848.10714
2632.30041	12856.10714
2634.95605	12821.25
2637.61004	12767.10714
2640.26238	12759.82143
2642.91306	12804.53571
2645.56209	12757.10714
2648.20948	12771.39286
2650.85521	12778.39286
2653.4993	12755.96429
2656.14175	12744.53571
2658.78255	12766.53571
2661.42171	12784.96429
2664.05923	12748.39286
2666.6951	12739.25
2669.32934	12782.39286
2671.96194	12758.25
2674.59291	12727.10714
2677.22224	12752.39286
2679.84993	12742.82143
2682.476	12730.96429
2685.10043	12737.25
2687.72324	12726.39286
2690.34441	12711.67857
2692.96396	12705.96429
2695.58188	12721.67857
2698.19818	12717.10714
2700.81285	12721.10714
2703.4259	12723.96429
2706.03733	12701.53571
2708.64714	12706.39286
2711.25533	12731.96429
2713.86191	12695.10714
2716.46687	12718.10714
2719.07021	12730.39286
2721.67194	12712.67857
2724.27206	12735.10714
2726.87057	12760.67857
2729.46747	12723.82143
2732.06276	12712.25
2734.65644	12693.39286
2737.24852	12682.25
2739.83899	12684.67857
2742.42786	12672.10714
2745.01513	12651.67857
2747.60079	12649.67857
2750.18486	12588.53571
2752.76733	12595.82143
2755.3482	12609.82143
2757.92747	12633.25
2760.50515	12589.39286
2763.08123	12580.39286
2765.65573	12517.53571
2768.22863	12535.39286
2770.79994	12508.53571
2773.36967	12534.96429
2775.9378	12522.67857
2778.50435	12502.67857
2781.06932	12441.96429
2783.6327	12484.39286
2786.1945	12471.82143
2788.75471	12437.25
2791.31335	12428.53571
2793.87041	12385.25
2796.42589	12382.25
2798.97979	12373.39286
2801.53212	12352.10714
2804.08288	12334.39286
2806.63206	12271.10714
2809.17967	12274.67857
2811.72571	12252.53571
2814.27018	12231.96429
2816.81308	12200.82143
2819.35442	12157.39286
2821.89419	12172.67857
2824.43239	12142.96429
2826.96904	12127.82143
2829.50412	12163.82143
2832.03763	12086.53571
2834.56959	12140.25
2837.1	12093.25
2839.62884	12096.67857
2842.15613	12060.39286
2844.68186	12097.82143
2847.20604	12083.53571
2849.72867	12071.53571
2852.24974	12032.82143
2854.76927	12049.39286
2857.28724	12030.67857
2859.80367	12025.67857
2862.31855	11935.53571
2864.83189	11950.67857
2867.34368	11951.39286
2869.85393	11970.53571
2872.36264	11937.67857
2874.8698	11934.67857
2877.37543	11911.96429
2879.87952	11956.67857
2882.38207	11936.53571
2884.88308	11915.25
2887.38256	11933.53571
2889.88051	11960.82143
2892.37692	11965.25
2894.8718	11955.96429
2897.36515	11965.25
2899.85698	11992.96429
2902.34727	11999.10714
2904.83604	11978.53571
2907.32328	12023.10714
2909.809	12031.10714
2912.29319	12059.25
2914.77587	12076.53571
2917.25702	12049.53571
2919.73665	12062.67857
2922.21476	12047.10714
2924.69136	12051.10714
2927.16644	12066.25
2929.64	12036.39286
2932.11205	12024.67857
2934.58258	11992.67857
2937.05161	12023.25
2939.51912	12012.53571
2941.98513	12054.10714
2944.44962	12001.67857
2946.91261	11995.53571
2949.37409	11990.25
2951.83407	11987.96429
2954.29254	11949.96429
2956.74951	11954.25
2959.20498	11923.10714
2961.65895	11940.96429
2964.11142	11923.53571
2966.56239	11911.25
2969.01186	11889.39286
2971.45984	11842.39286
2973.90632	11857.67857
2976.35131	11796.10714
2978.7948	11795.82143
2981.23681	11752.82143
2983.67732	11768.10714
2986.11635	11729.96429
2988.55388	11722.39286
2990.98993	11672.25
2993.4245	11679.39286
2995.85758	11627.10714
2998.28917	11633.67857
3000.71928	11595.82143
3003.14791	11582.53571
3005.57506	11586.53571
3008.00073	11567.39286
3010.42493	11545.82143
3012.84764	11517.39286
3015.26888	11507.25
3017.68865	11489.10714
3020.10694	11447.82143
3022.52376	11438.25
3024.9391	11432.10714
3027.35298	11417.96429
3029.76539	11413.10714
3032.17632	11407.67857
3034.5858	11392.82143
3036.9938	11392.67857
3039.40034	11377.96429
3041.80542	11379.67857
3044.20903	11333.53571
3046.61118	11350.82143
3049.01187	11306.25
3051.4111	11313.10714
3053.80888	11271.53571
3056.20519	11246.39286
3058.60005	11264.53571
3060.99345	11255.25
3063.3854	11211.53571
3065.7759	11165.96429
3068.16494	11146.25
3070.55254	11135.10714
3072.93868	11113.96429
3075.32338	11098.10714
3077.70662	11092.82143
3080.08842	11042.96429
3082.46878	11060.96429
3084.84769	11061.10714
3087.22515	11046.67857
3089.60118	11062.82143
3091.97576	11077.10714
3094.3489	11066.25
3096.72061	11068.25
3099.09087	11056.96429
3101.4597	11031.96429
3103.82709	11068.25
3106.19305	11021.25
3108.55757	11077.82143
3110.92066	11031.82143
3113.28232	11033.25
3115.64255	10992.10714
3118.00134	10977.25
3120.35871	10968.25
3122.71466	10968.82143
3125.06917	10954.96429
3127.42226	10909.25
3129.77393	10935.25
3132.12417	10953.25
3134.47299	10953.82143
3136.82039	10893.53571
3139.16636	10921.25
3141.51092	10945.82143
3143.85406	10932.25
3146.19579	10939.10714
3148.53609	10960.53571
3150.87499	10973.82143
3153.21246	10960.39286
3155.54853	10976.39286
3157.88318	10968.39286
3160.21642	11021.10714
3162.54826	11027.67857
3164.87868	10997.82143
3167.2077	11010.39286
3169.5353	11022.67857
3171.86151	11014.53571
3174.18631	10987.25
3176.5097	11013.67857
3178.83169	11002.25
3181.15228	11004.53571
3183.47147	10932.82143
3185.78926	10924.39286
3188.10565	10913.53571
3190.42065	10943.25
3192.73424	10942.53571
3195.04645	10928.39286
3197.35725	10953.10714
3199.66667	10953.39286
3201.97469	10934.25
3204.28132	10950.25
3206.58656	10989.67857
3208.8904	10991.10714
3211.19287	10990.67857
3213.49394	11010.25
3215.79363	11018.67857
3218.09193	11029.67857
3220.38884	11009.39286
3222.68438	11046.25
3224.97853	11013.25
3227.2713	11017.96429
3229.56269	11006.25
3231.8527	11021.67857
3234.14133	10979.96429
3236.42858	10918.25
3238.71446	10934.82143
3240.99896	10928.10714
3243.28209	10871.39286
3245.56384	10867.82143
3247.84423	10900.82143
3250.12324	10879.96429
3252.40088	10875.25
3254.67715	10868.39286
3256.95205	10903.53571
3259.22558	10882.39286
3261.49775	10844.25
3263.76855	10837.53571
3266.03799	10844.82143
3268.30606	10835.39286
3270.57277	10793.96429
3272.83812	10790.25
3275.10211	10774.96429
3277.36474	10749.39286
3279.62601	10755.39286
3281.88593	10719.82143
3284.14448	10741.82143
3286.40168	10739.39286
3288.65753	10737.39286
3290.91202	10713.39286
3293.16516	10678.82143
3295.41695	10695.96429
3297.66738	10646.10714
3299.91647	10572.10714
3302.16421	10496.67857
3304.4106	10502.25
3306.65564	10402.10714
3308.89933	10345.96429
3311.14169	10277.25
3313.38269	10204.25
3315.62236	10144.96429
3317.86068	10045.67857
3320.09766	9990.39286
3322.3333	9906.67857
3324.5676	9901.53571
3326.80056	9741.10714
3329.03219	9673.25
3331.26248	2.25
3333.49143	0.53571
3335.71905	-1.03571
