Data from AgNPs_FTO_APTES_UA_20uM_CRN_0uM_R6G_10uM_NaF_0.1M_Addition_RamanShift__50__11-48-01-994.txt Node

Date: Thu Feb 17 11:48:01 GMT 2022
User: TCL
Spectrometer: QEP01345
Trigger mode: 4
Integration Time (sec): 7.000000E0
Scans to average: 10
Electric dark correction enabled: true
Nonlinearity correction enabled: false
Boxcar width: 0
XAxis mode: Raman Shifts
Number of Pixels in Spectrum: 1044
>>>>>Begin Spectral Data<<<<<
46.04893	0.375
50.45542	-1.725
54.85868	-3.325
59.25871	-0.925
63.6555	107.175
68.04907	107.675
72.43941	113.875
76.82654	114.875
81.21044	117.675
85.59113	125.175
89.96862	122.075
94.34289	129.875
98.71396	130.175
103.08183	137.275
107.4465	143.175
111.80798	144.575
116.16626	148.875
120.52136	156.275
124.87327	157.575
129.222	169.175
133.56755	181.275
137.90993	198.175
142.24913	215.675
146.58517	243.775
150.91804	284.375
155.24774	341.475
159.57429	436.075
163.89768	556.175
168.21792	741.975
172.53501	1026.975
176.84895	1433.275
181.15975	2034.075
185.46741	2858.375
189.77193	3932.375
194.07331	5287.575
198.37157	6782.875
202.6667	8417.975
206.9587	10018.675
211.24758	11586.775
215.53334	13191.475
219.81599	14929.375
224.09553	16863.175
228.37195	18971.775
232.64527	21282.375
236.91549	23707.975
241.18261	26107.975
245.44663	28300.175
249.70755	30255.475
253.96539	31994.275
258.22014	33481.275
262.4718	34713.875
266.72039	35590.275
270.96589	36057.275
275.20832	36096.575
279.44768	35816.675
283.68397	35490.475
287.91719	35196.775
292.14735	35060.275
296.37445	35123.475
300.59849	35346.175
304.81948	35765.875
309.03742	35987.675
313.25231	35811.975
317.46415	35089.375
321.67296	34058.475
325.87872	33100.675
330.08145	32711.675
334.28114	32694.075
338.47781	33072.775
342.67145	33590.975
346.86207	34327.475
351.04966	35359.175
355.23424	36338.075
359.4158	37198.375
363.59435	37779.475
367.76989	38088.775
371.94243	38296.975
376.11196	38477.475
380.27849	38622.575
384.44203	38774.575
388.60257	38843.475
392.76012	39015.175
396.91468	39449.375
401.06626	40075.375
405.21485	40650.775
409.36047	40638.875
413.50311	40017.575
417.64277	39526.275
421.77947	39346.275
425.9132	39571.975
430.04396	39845.475
434.17176	40149.775
438.2966	40567.875
442.41849	41399.075
446.53742	42613.975
450.6534	43961.775
454.76644	44938.275
458.87653	45284.575
462.98368	44920.375
467.08789	44100.375
471.18916	43161.175
475.2875	42255.275
479.38291	41644.175
483.4754	41270.475
487.56496	40893.775
491.6516	40434.275
495.73531	40148.175
499.81612	40047.775
503.89401	40224.975
507.96899	40431.775
512.04106	40360.775
516.11023	40303.375
520.1765	40214.375
524.23987	40041.875
528.30034	39816.575
532.35792	39509.675
536.41261	38990.275
540.46441	38529.875
544.51333	38396.875
548.55936	38722.175
552.60252	39497.075
556.64279	40343.475
560.6802	40956.975
564.71473	41346.075
568.7464	42245.875
572.7752	43254.175
576.80114	43664.075
580.82422	43975.475
584.84444	44408.775
588.86181	45110.275
592.87633	45995.375
596.888	46307.675
600.89682	45978.175
604.9028	47470.075
608.90594	52752.175
612.90624	58671.675
616.90371	55885.275
620.89834	46284.275
624.89015	42065.975
628.87913	41505.275
632.86528	41276.575
636.84862	40830.175
640.82913	40070.675
644.80683	39079.275
648.78172	38322.375
652.75379	38323.975
656.72306	39033.775
660.68952	39987.075
664.65319	39958.175
668.61405	39265.875
672.57211	38957.475
676.52738	38946.975
680.47986	38910.375
684.42955	38801.775
688.37646	38756.075
692.32058	39034.275
696.26192	39480.175
700.20048	39958.275
704.13626	40230.675
708.06928	40013.375
711.99952	39674.575
715.927	39609.375
719.85171	39815.575
723.77365	39690.275
727.69284	39336.875
731.60928	38956.075
735.52295	38895.075
739.43388	39072.475
743.34206	39222.175
747.24749	39515.875
751.15017	39866.975
755.05012	40475.675
758.94733	41610.975
762.8418	43803.075
766.73354	47341.375
770.62254	50629.075
774.50882	51594.075
778.39237	49551.475
782.27321	45897.375
786.15132	42728.275
790.02671	40826.875
793.89938	39910.275
797.76935	39615.275
801.6366	39498.875
805.50115	39400.375
809.36299	39178.375
813.22213	38926.775
817.07857	38775.475
820.93231	38747.375
824.78336	38750.275
828.63172	38753.375
832.47738	38857.575
836.32036	39037.875
840.16066	39245.475
843.99827	39421.075
847.8332	39322.075
851.66546	39139.575
855.49504	39014.175
859.32195	39002.075
863.1462	38866.075
866.96777	38719.875
870.78668	38590.975
874.60293	38621.975
878.41652	38694.875
882.22745	38875.575
886.03573	39072.075
889.84136	39000.275
893.64433	38777.175
897.44466	38584.175
901.24235	38468.375
905.0374	38397.675
908.8298	38303.875
912.61957	38330.375
916.40671	38707.975
920.19121	39227.375
923.97308	39786.775
927.75233	40142.875
931.52895	40055.475
935.30295	39614.575
939.07433	38901.875
942.84309	38475.375
946.60924	38330.975
950.37278	38171.775
954.13371	37960.775
957.89203	37689.475
961.64774	37510.275
965.40086	37447.775
969.15137	37352.175
972.89929	37169.575
976.64461	37178.375
980.38733	37238.775
984.12747	37467.275
987.86502	37946.775
991.59999	38534.075
995.33237	39479.275
999.06217	41005.375
1002.78939	42738.075
1006.51404	43812.675
1010.23611	44259.275
1013.95561	44557.875
1017.67255	44529.375
1021.38692	43961.075
1025.09872	43648.075
1028.80796	44355.175
1032.51465	46014.075
1036.21877	47567.875
1039.92035	47789.375
1043.61937	46863.775
1047.31584	45190.675
1051.00976	43411.875
1054.70114	42291.675
1058.38998	41928.775
1062.07627	41910.975
1065.76003	41954.875
1069.44126	42197.175
1073.11995	42561.375
1076.79611	42995.575
1080.46974	43396.575
1084.14085	43964.775
1087.80943	44595.675
1091.47549	44815.175
1095.13903	44420.675
1098.80005	43568.275
1102.45857	42921.275
1106.11456	42510.975
1109.76805	42581.875
1113.41903	42961.575
1117.06751	43446.275
1120.71348	44045.775
1124.35696	44590.875
1127.99793	44998.075
1131.63641	45048.575
1135.2724	44418.175
1138.90589	43800.275
1142.5369	43502.975
1146.16542	43277.075
1149.79145	43268.775
1153.415	43520.975
1157.03607	43901.775
1160.65467	44788.275
1164.27079	46278.475
1167.88443	48386.975
1171.49561	51395.775
1175.10432	55561.575
1178.71056	60798.375
1182.31434	65595.375
1185.91565	68016.475
1189.51451	67576.875
1193.11091	65086.675
1196.70485	61830.775
1200.29634	58909.275
1203.88538	56773.475
1207.47197	55045.075
1211.05612	53569.275
1214.63782	52769.375
1218.21708	52819.975
1221.79391	53147.075
1225.36829	53343.575
1228.94024	52519.275
1232.50976	51189.075
1236.07685	50146.375
1239.6415	49796.575
1243.20374	49793.775
1246.76355	50120.475
1250.32093	50953.375
1253.8759	52191.575
1257.42845	53652.375
1260.97859	55146.675
1264.52631	56505.175
1268.07163	58041.675
1271.61453	59801.775
1275.15503	61678.975
1278.69312	63558.175
1282.22882	64936.975
1285.76211	66178.175
1289.29301	67436.675
1292.82151	69060.175
1296.34761	71497.775
1299.87133	75094.975
1303.39266	79858.875
1306.9116	86064.975
1310.42815	92399.675
1313.94233	96321.075
1317.45412	96050.875
1320.96354	92835.275
1324.47058	89161.575
1327.97525	85952.475
1331.47754	83844.475
1334.97747	83249.375
1338.47502	83708.175
1341.97022	84332.675
1345.46305	83903.775
1348.95352	83213.675
1352.44163	82903.775
1355.92738	84993.875
1359.41078	89979.975
1362.89183	94694.875
1366.37053	92645.275
1369.84688	83640.475
1373.32088	74059.275
1376.79254	67772.875
1380.26186	64673.375
1383.72883	63623.875
1387.19347	62984.775
1390.65578	62217.375
1394.11575	62217.575
1397.57339	63017.875
1401.0287	64480.775
1404.48168	66027.575
1407.93234	67223.975
1411.38068	67729.375
1414.82669	67061.275
1418.27039	65299.675
1421.71177	62852.575
1425.15083	60682.875
1428.58758	59580.575
1432.02203	59669.575
1435.45416	60579.475
1438.88399	61595.975
1442.31151	62432.975
1445.73673	63144.875
1449.15965	63733.475
1452.58027	63958.375
1455.9986	63801.275
1459.41463	63906.775
1462.82837	64714.375
1466.23982	66047.675
1469.64898	67489.375
1473.05586	68409.575
1476.46045	68768.275
1479.86276	68943.075
1483.26279	68811.275
1486.66054	68997.775
1490.05602	69701.375
1493.44922	70389.475
1496.84016	71051.075
1500.22882	71988.075
1503.61521	73851.875
1506.99934	76581.375
1510.38121	79236.175
1513.76081	80152.675
1517.13816	77941.875
1520.51324	73822.375
1523.88607	69875.275
1527.25665	67514.375
1530.62498	66369.975
1533.99105	65779.075
1537.35488	65383.375
1540.71647	65011.075
1544.07581	64508.475
1547.4329	63742.975
1550.78776	62882.275
1554.14038	62056.475
1557.49077	61636.575
1560.83892	61458.175
1564.18484	61392.875
1567.52853	61368.675
1570.86999	61361.575
1574.20922	61670.475
1577.54624	61910.775
1580.88103	61491.975
1584.2136	61300.075
1587.54395	62739.275
1590.87208	66274.075
1594.19801	71581.475
1597.52172	77177.675
1600.84321	79881.975
1604.16251	77250.775
1607.47959	71397.775
1610.79447	64756.375
1614.10715	58864.575
1617.41763	54253.575
1620.7259	51386.875
1624.03199	49976.375
1627.33587	49989.675
1630.63757	51496.975
1633.93707	54406.075
1637.23439	58782.475
1640.52951	64634.375
1643.82246	71197.875
1647.11321	76466.975
1650.40179	77419.175
1653.68819	72444.875
1656.97241	63555.575
1660.25446	54983.075
1663.53433	48869.075
1666.81203	45056.375
1670.08756	42739.375
1673.36092	41244.275
1676.63211	40276.875
1679.90115	39555.675
1683.16801	39006.175
1686.43272	38672.275
1689.69527	38403.175
1692.95567	38182.475
1696.2139	38078.475
1699.46999	38002.975
1702.72392	37942.875
1705.97571	37870.775
1709.22535	37807.875
1712.47284	37774.075
1715.71819	37791.475
1718.96139	37783.975
1722.20246	37645.975
1725.44139	37480.875
1728.67818	37308.075
1731.91284	37120.175
1735.14537	36979.975
1738.37576	36763.975
1741.60403	36724.975
1744.83017	36548.875
1748.05418	36506.875
1751.27607	36462.275
1754.49584	36384.475
1757.71349	36350.275
1760.92903	36376.175
1764.14244	36333.275
1767.35375	36276.575
1770.56294	36308.575
1773.77002	36272.475
1776.97499	36273.075
1780.17785	36150.275
1783.37861	36127.575
1786.57727	36064.675
1789.77382	36031.875
1792.96828	36048.775
1796.16064	36021.375
1799.3509	35892.275
1802.53907	35914.575
1805.72514	35860.775
1808.90913	35777.375
1812.09102	35762.675
1815.27083	35695.775
1818.44856	35639.575
1821.6242	35564.675
1824.79776	35479.475
1827.96924	35519.975
1831.13864	35531.675
1834.30597	35507.375
1837.47122	35483.875
1840.6344	35424.675
1843.7955	35430.475
1846.95454	35451.575
1850.11151	35473.575
1853.26642	35440.975
1856.41926	35452.175
1859.57004	35503.375
1862.71876	35488.475
1865.86542	35479.575
1869.01003	35458.275
1872.15258	35427.675
1875.29308	35439.175
1878.43152	35421.975
1881.56792	35461.575
1884.70227	35450.475
1887.83457	35492.775
1890.96482	35458.775
1894.09304	35393.775
1897.21921	35414.275
1900.34335	35341.475
1903.46544	35341.875
1906.58551	35411.775
1909.70353	35363.175
1912.81953	35339.075
1915.93349	35330.775
1919.04543	35248.075
1922.15534	35191.775
1925.26322	35121.275
1928.36908	35097.275
1931.47292	34990.475
1934.57473	34883.675
1937.67453	34853.375
1940.77232	34731.375
1943.86808	34630.175
1946.96184	34514.775
1950.05358	34407.775
1953.14331	34335.175
1956.23103	34217.375
1959.31675	34128.575
1962.40046	34019.975
1965.48217	33934.875
1968.56188	33833.775
1971.63959	33823.075
1974.7153	33737.475
1977.78901	33619.675
1980.86073	33472.075
1983.93046	33371.175
1986.99819	33297.975
1990.06394	33186.475
1993.1277	33177.175
1996.18947	33040.275
1999.24925	33005.175
2002.30706	32888.275
2005.36288	32833.875
2008.41672	32687.275
2011.46859	32648.075
2014.51848	32580.675
2017.56639	32495.975
2020.61233	32444.075
2023.6563	32326.375
2026.6983	32251.175
2029.73833	32211.975
2032.7764	32193.775
2035.8125	32150.275
2038.84664	32120.175
2041.87881	32059.475
2044.90903	32022.575
2047.93729	31992.075
2050.96359	31991.375
2053.98794	31922.375
2057.01034	31918.075
2060.03078	31957.975
2063.04927	31915.875
2066.06582	31943.075
2069.08042	31875.175
2072.09307	31827.575
2075.10378	31781.675
2078.11255	31721.575
2081.11938	31722.475
2084.12426	31624.175
2087.12722	31591.175
2090.12824	31641.775
2093.12732	31655.875
2096.12447	31642.375
2099.11969	31614.475
2102.11299	31636.475
2105.10435	31684.975
2108.09379	31716.975
2111.08131	31759.975
2114.0669	31709.875
2117.05057	31709.875
2120.03233	31676.775
2123.01216	31735.275
2125.99008	31819.675
2128.96609	31816.075
2131.94018	31913.675
2134.91236	31921.675
2137.88263	31970.075
2140.851	32031.875
2143.81746	31991.675
2146.78201	32006.275
2149.74466	32031.975
2152.7054	32121.875
2155.66425	32063.375
2158.6212	32102.075
2161.57625	32054.475
2164.52941	32035.075
2167.48067	32053.575
2170.43004	32023.375
2173.37752	32055.475
2176.32311	32069.475
2179.26681	32077.775
2182.20863	32113.575
2185.14856	32167.175
2188.08661	32138.375
2191.02278	32159.975
2193.95707	32089.375
2196.88948	32097.775
2199.82001	32125.475
2202.74867	32128.775
2205.67545	32099.775
2208.60037	32081.475
2211.52341	32072.275
2214.44458	32100.375
2217.36388	32064.675
2220.28132	32087.675
2223.1969	31990.475
2226.11061	31927.675
2229.02246	31825.275
2231.93245	31802.075
2234.84058	31752.275
2237.74686	31717.675
2240.65128	31674.275
2243.55385	31577.775
2246.45456	31572.475
2249.35343	31503.975
2252.25044	31486.275
2255.14561	31476.975
2258.03893	31452.175
2260.93041	31389.975
2263.82004	31333.875
2266.70783	31246.875
2269.59378	31153.175
2272.4779	31081.375
2275.36017	31042.675
2278.24061	31015.975
2281.11922	30955.175
2283.996	30881.575
2286.87094	30914.175
2289.74405	30854.975
2292.61534	30853.475
2295.4848	30912.775
2298.35243	30927.175
2301.21824	30913.475
2304.08223	30913.375
2306.94439	30993.975
2309.80474	31009.675
2312.66327	31037.075
2315.51999	31007.575
2318.37489	31018.575
2321.22797	31025.475
2324.07925	31014.275
2326.92871	30970.375
2329.77637	30918.175
2332.62222	30917.975
2335.46626	30980.275
2338.3085	31016.075
2341.14893	31014.375
2343.98756	30985.675
2346.8244	31057.475
2349.65943	31048.075
2352.49267	31058.375
2355.32411	31050.175
2358.15376	31033.975
2360.98161	31014.175
2363.80768	30970.675
2366.63195	30890.675
2369.45444	30877.875
2372.27514	30813.875
2375.09405	30728.875
2377.91118	30666.075
2380.72652	30549.675
2383.54009	30491.475
2386.35187	30457.075
2389.16188	30349.275
2391.97011	30301.675
2394.77657	30266.175
2397.58125	30279.075
2400.38416	30262.775
2403.18529	30166.975
2405.98466	30140.975
2408.78226	30046.175
2411.57809	30014.375
2414.37216	29944.675
2417.16446	29895.475
2419.955	29840.775
2422.74378	29851.775
2425.5308	29776.675
2428.31606	29818.975
2431.09956	29836.275
2433.88131	29797.775
2436.6613	29835.775
2439.43954	29842.575
2442.21603	29820.175
2444.99077	29790.375
2447.76377	29738.075
2450.53501	29741.075
2453.30451	29763.775
2456.07226	29764.875
2458.83827	29709.275
2461.60254	29713.575
2464.36507	29725.475
2467.12586	29783.275
2469.88492	29755.375
2472.64224	29759.475
2475.39782	29782.775
2478.15167	29840.975
2480.90379	29862.175
2483.65417	29900.075
2486.40283	29925.975
2489.14976	29968.975
2491.89497	29916.875
2494.63845	30002.175
2497.3802	29987.075
2500.12024	30001.775
2502.85855	29976.175
2505.59514	29932.575
2508.33002	29871.075
2511.06318	29812.175
2513.79462	29812.375
2516.52435	29794.975
2519.25237	29762.075
2521.97867	29734.875
2524.70327	29725.475
2527.42616	29662.075
2530.14734	29658.875
2532.86681	29653.075
2535.58458	29621.075
2538.30065	29666.975
2541.01501	29686.775
2543.72768	29681.475
2546.43864	29622.975
2549.14791	29580.875
2551.85548	29603.675
2554.56136	29537.275
2557.26554	29470.075
2559.96803	29464.675
2562.66883	29436.975
2565.36794	29458.975
2568.06536	29439.075
2570.7611	29417.975
2573.45514	29398.275
2576.14751	29350.475
2578.83819	29366.475
2581.52719	29373.775
2584.21451	29356.375
2586.90015	29368.375
2589.58411	29365.075
2592.2664	29365.675
2594.94701	29359.075
2597.62594	29370.175
2600.30321	29383.575
2602.9788	29404.075
2605.65273	29368.475
2608.32498	29306.375
2610.99557	29385.575
2613.66449	29408.975
2616.33175	29403.675
2618.99734	29401.275
2621.66128	29384.275
2624.32355	29373.775
2626.98416	29391.575
2629.64311	29400.075
2632.30041	29400.875
2634.95605	29390.175
2637.61004	29377.275
2640.26238	29331.675
2642.91306	29268.375
2645.56209	29227.575
2648.20948	29210.275
2650.85521	29174.875
2653.4993	29167.075
2656.14175	29160.775
2658.78255	29226.375
2661.42171	29217.675
2664.05923	29286.075
2666.6951	29313.075
2669.32934	29321.075
2671.96194	29310.675
2674.59291	29370.375
2677.22224	29364.975
2679.84993	29350.775
2682.476	29314.875
2685.10043	29272.675
2687.72324	29244.375
2690.34441	29189.375
2692.96396	29182.975
2695.58188	29224.775
2698.19818	29172.975
2700.81285	29182.475
2703.4259	29137.175
2706.03733	29167.475
2708.64714	29106.975
2711.25533	29200.775
2713.86191	29199.775
2716.46687	29221.175
2719.07021	29226.175
2721.67194	29259.575
2724.27206	29269.175
2726.87057	29287.175
2729.46747	29261.375
2732.06276	29335.875
2734.65644	29269.475
2737.24852	29326.575
2739.83899	29303.575
2742.42786	29344.975
2745.01513	29300.375
2747.60079	29239.575
2750.18486	29248.775
2752.76733	29301.875
2755.3482	29245.475
2757.92747	29249.075
2760.50515	29182.675
2763.08123	29197.375
2765.65573	29170.975
2768.22863	29157.875
2770.79994	29163.675
2773.36967	29172.675
2775.9378	29190.675
2778.50435	29206.575
2781.06932	29190.675
2783.6327	29166.475
2786.1945	29169.275
2788.75471	29135.375
2791.31335	29107.575
2793.87041	29060.875
2796.42589	28980.675
2798.97979	29003.875
2801.53212	28890.675
2804.08288	28900.375
2806.63206	28836.975
2809.17967	28794.175
2811.72571	28726.375
2814.27018	28658.475
2816.81308	28601.075
2819.35442	28593.875
2821.89419	28578.175
2824.43239	28602.475
2826.96904	28587.075
2829.50412	28589.575
2832.03763	28551.775
2834.56959	28496.075
2837.1	28497.075
2839.62884	28513.675
2842.15613	28441.775
2844.68186	28500.275
2847.20604	28421.675
2849.72867	28468.875
2852.24974	28417.075
2854.76927	28398.975
2857.28724	28355.575
2859.80367	28316.975
2862.31855	28303.475
2864.83189	28284.175
2867.34368	28279.675
2869.85393	28258.575
2872.36264	28252.975
2874.8698	28162.975
2877.37543	28172.575
2879.87952	28190.875
2882.38207	28221.075
2884.88308	28214.275
2887.38256	28255.075
2889.88051	28240.875
2892.37692	28257.275
2894.8718	28304.775
2897.36515	28341.075
2899.85698	28361.075
2902.34727	28406.875
2904.83604	28370.775
2907.32328	28447.175
2909.809	28481.275
2912.29319	28518.875
2914.77587	28512.575
2917.25702	28453.275
2919.73665	28442.775
2922.21476	28440.375
2924.69136	28378.475
2927.16644	28339.575
2929.64	28321.175
2932.11205	28290.575
2934.58258	28204.775
2937.05161	28251.675
2939.51912	28285.075
2941.98513	28238.075
2944.44962	28138.075
2946.91261	28098.375
2949.37409	28198.575
2951.83407	28087.875
2954.29254	28129.275
2956.74951	28131.875
2959.20498	28155.175
2961.65895	28089.175
2964.11142	28064.575
2966.56239	28056.775
2969.01186	28013.775
2971.45984	27896.975
2973.90632	27883.575
2976.35131	27796.475
2978.7948	27775.075
2981.23681	27708.175
2983.67732	27670.575
2986.11635	27635.175
2988.55388	27572.375
2990.98993	27523.775
2993.4245	27466.575
2995.85758	27423.875
2998.28917	27271.775
3000.71928	27268.375
3003.14791	27247.875
3005.57506	27190.475
3008.00073	27124.175
3010.42493	27107.475
3012.84764	27092.875
3015.26888	27096.975
3017.68865	26999.275
3020.10694	26973.475
3022.52376	26860.575
3024.9391	26868.975
3027.35298	26835.375
3029.76539	26830.975
3032.17632	26793.375
3034.5858	26745.375
3036.9938	26714.975
3039.40034	26710.875
3041.80542	26719.175
3044.20903	26704.075
3046.61118	26695.675
3049.01187	26573.375
3051.4111	26595.375
3053.80888	26531.575
3056.20519	26463.375
3058.60005	26419.375
3060.99345	26359.275
3063.3854	26295.175
3065.7759	26205.675
3068.16494	26145.075
3070.55254	26059.875
3072.93868	25980.175
3075.32338	25921.575
3077.70662	25857.375
3080.08842	25767.875
3082.46878	25745.575
3084.84769	25675.275
3087.22515	25675.875
3089.60118	25688.275
3091.97576	25679.875
3094.3489	25648.875
3096.72061	25700.175
3099.09087	25674.875
3101.4597	25644.175
3103.82709	25637.075
3106.19305	25637.475
3108.55757	25613.775
3110.92066	25557.875
3113.28232	25543.675
3115.64255	25482.475
3118.00134	25422.575
3120.35871	25359.075
3122.71466	25287.475
3125.06917	25225.175
3127.42226	25215.775
3129.77393	25186.175
3132.12417	25136.875
3134.47299	25136.775
3136.82039	25099.575
3139.16636	25107.075
3141.51092	25090.075
3143.85406	25082.175
3146.19579	25088.475
3148.53609	25062.975
3150.87499	25071.175
3153.21246	25081.275
3155.54853	25110.575
3157.88318	25063.475
3160.21642	25115.575
3162.54826	25020.775
3164.87868	25019.775
3167.2077	25018.275
3169.5353	25005.775
3171.86151	25016.175
3174.18631	25024.275
3176.5097	25044.075
3178.83169	25009.175
3181.15228	24984.875
3183.47147	24862.575
3185.78926	24874.775
3188.10565	24842.775
3190.42065	24813.875
3192.73424	24828.975
3195.04645	24786.375
3197.35725	24763.375
3199.66667	24790.475
3201.97469	24822.775
3204.28132	24764.975
3206.58656	24796.475
3208.8904	24781.375
3211.19287	24819.075
3213.49394	24772.575
3215.79363	24789.775
3218.09193	24835.975
3220.38884	24834.475
3222.68438	24859.975
3224.97853	24779.275
3227.2713	24757.875
3229.56269	24738.575
3231.8527	24747.975
3234.14133	24706.775
3236.42858	24694.575
3238.71446	24642.675
3240.99896	24579.575
3243.28209	24603.675
3245.56384	24578.075
3247.84423	24513.075
3250.12324	24497.575
3252.40088	24513.475
3254.67715	24463.775
3256.95205	24470.175
3259.22558	24454.875
3261.49775	24435.575
3263.76855	24434.675
3266.03799	24353.075
3268.30606	24320.075
3270.57277	24304.675
3272.83812	24259.175
3275.10211	24230.075
3277.36474	24193.575
3279.62601	24153.075
3281.88593	24175.075
3284.14448	24161.375
3286.40168	24163.875
3288.65753	24143.975
3290.91202	24123.875
3293.16516	24056.775
3295.41695	24070.075
3297.66738	23956.675
3299.91647	23830.575
3302.16421	23670.575
3304.4106	23559.675
3306.65564	23441.275
3308.89933	23303.775
3311.14169	23121.775
3313.38269	22992.075
3315.62236	22873.475
3317.86068	22629.675
3320.09766	22481.575
3322.3333	22300.275
3324.5676	22218.275
3326.80056	21863.875
3329.03219	21730.975
3331.26248	5.975
3333.49143	0.775
3335.71905	-0.625
