Data from AgNPs_FTO_APTES_UA_10uM_CRN_50uM_R6G_10uM_NaF_0.1M_Addition_RamanShift__31__17-11-34-852.txt Node

Date: Thu Feb 17 17:11:34 GMT 2022
User: TCL
Spectrometer: QEP01345
Trigger mode: 4
Integration Time (sec): 1.000000E1
Scans to average: 7
Electric dark correction enabled: true
Nonlinearity correction enabled: false
Boxcar width: 0
XAxis mode: Raman Shifts
Number of Pixels in Spectrum: 1044
>>>>>Begin Spectral Data<<<<<
46.04893	0.10714
50.45542	-1.46429
54.85868	0.39286
59.25871	-0.75
63.6555	53.82143
68.04907	56.82143
72.43941	52.53571
76.82654	63.53571
81.21044	62.67857
85.59113	66.25
89.96862	74.82143
94.34289	68.39286
98.71396	77.96429
103.08183	74.53571
107.4465	77.10714
111.80798	76.96429
116.16626	78.10714
120.52136	80.67857
124.87327	86.39286
129.222	89.10714
133.56755	89.96429
137.90993	99.96429
142.24913	104.53571
146.58517	114.25
150.91804	132.25
155.24774	147.39286
159.57429	178.25
163.89768	228.67857
168.21792	299.82143
172.53501	405.96429
176.84895	561.96429
181.15975	787.10714
185.46741	1105.96429
189.77193	1520.67857
194.07331	2041.39286
198.37157	2656.10714
202.6667	3260.53571
206.9587	3927.10714
211.24758	4563.53571
215.53334	5262.53571
219.81599	6047.96429
224.09553	6994.67857
228.37195	7997.67857
232.64527	9136.10714
236.91549	10201.67857
241.18261	11183.82143
245.44663	11963.39286
249.70755	12502.67857
253.96539	12961.53571
258.22014	13221.96429
262.4718	13420.10714
266.72039	13471.10714
270.96589	13393.82143
275.20832	13219.96429
279.44768	12875.39286
283.68397	12453.53571
287.91719	12211.67857
292.14735	12299.39286
296.37445	12860.39286
300.59849	13853.53571
304.81948	15069.67857
309.03742	15927.82143
313.25231	16068.39286
317.46415	15046.53571
321.67296	13306.96429
325.87872	11872.25
330.08145	11189.67857
334.28114	11135.82143
338.47781	11481.39286
342.67145	12017.10714
346.86207	12871.82143
351.04966	14159.25
355.23424	15610.39286
359.4158	16698.25
363.59435	17125.10714
367.76989	17151.53571
371.94243	16971.96429
376.11196	16761.67857
380.27849	16460.96429
384.44203	16104.25
388.60257	15600.25
392.76012	15255.10714
396.91468	15269.82143
401.06626	15749.96429
405.21485	16071.67857
409.36047	15508.96429
413.50311	14081.25
417.64277	12770.25
421.77947	11928.53571
425.9132	11519.82143
430.04396	11417.25
434.17176	11447.53571
438.2966	11700.96429
442.41849	12108.82143
446.53742	12559.53571
450.6534	12976.53571
454.76644	13158.10714
458.87653	13096.67857
462.98368	12874.25
467.08789	12521.96429
471.18916	12120.39286
475.2875	11639.39286
479.38291	11231.10714
483.4754	10958.96429
487.56496	10763.53571
491.6516	10696.82143
495.73531	10675.25
499.81612	10750.39286
503.89401	10966.67857
507.96899	11345.82143
512.04106	11830.39286
516.11023	12318.82143
520.1765	12676.82143
524.23987	12699.67857
528.30034	12356.53571
532.35792	11918.39286
536.41261	11476.96429
540.46441	11035.82143
544.51333	10728.39286
548.55936	10761.25
552.60252	11020.39286
556.64279	11399.96429
560.6802	11599.10714
564.71473	11950.96429
568.7464	12845.67857
572.7752	13322.53571
576.80114	12387.10714
580.82422	11298.25
584.84444	10789.25
588.86181	10695.96429
592.87633	10780.82143
596.888	11041.10714
600.89682	11758.10714
604.9028	14205.39286
608.90594	21324.25
612.90624	31338.67857
616.90371	30389.10714
620.89834	18328.53571
624.89015	12516.39286
628.87913	11413.96429
632.86528	11575.96429
636.84862	12006.10714
640.82913	11779.67857
644.80683	10905.10714
648.78172	10268.53571
652.75379	10328.67857
656.72306	11125.82143
660.68952	12120.39286
664.65319	11798.53571
668.61405	10715.53571
672.57211	10161.10714
676.52738	10126.67857
680.47986	10127.10714
684.42955	9990.39286
688.37646	9875.67857
692.32058	9895.67857
696.26192	9992.67857
700.20048	10225.96429
704.13626	10324.25
708.06928	10257.82143
711.99952	10109.82143
715.927	10122.96429
719.85171	10272.10714
723.77365	10338.96429
727.69284	10252.67857
731.60928	10144.10714
735.52295	10117.25
739.43388	10143.82143
743.34206	10215.25
747.24749	10210.82143
751.15017	10223.53571
755.05012	10499.39286
758.94733	11350.39286
762.8418	13485.67857
766.73354	17128.53571
770.62254	21055.25
774.50882	23660.39286
778.39237	23109.67857
782.27321	18942.53571
786.15132	14540.10714
790.02671	11935.10714
793.89938	10938.10714
797.76935	10479.39286
801.6366	10271.96429
805.50115	10196.39286
809.36299	10142.10714
813.22213	10080.67857
817.07857	10026.82143
820.93231	10019.10714
824.78336	10081.39286
828.63172	10115.53571
832.47738	10170.96429
836.32036	10086.82143
840.16066	9956.10714
843.99827	9857.10714
847.8332	9820.53571
851.66546	9813.39286
855.49504	9850.39286
859.32195	9827.39286
863.1462	9763.53571
866.96777	9749.10714
870.78668	9726.96429
874.60293	9807.82143
878.41652	9890.67857
882.22745	10047.82143
886.03573	10104.10714
889.84136	10086.10714
893.64433	10001.39286
897.44466	9970.96429
901.24235	9993.25
905.0374	9892.25
908.8298	9790.53571
912.61957	9658.67857
916.40671	9646.67857
920.19121	9666.39286
923.97308	9778.39286
927.75233	10052.10714
931.52895	10356.53571
935.30295	10286.25
939.07433	9819.96429
942.84309	9397.96429
946.60924	9123.82143
950.37278	8999.53571
954.13371	8961.67857
957.89203	8926.82143
961.64774	8904.82143
965.40086	8882.82143
969.15137	8840.67857
972.89929	8830.10714
976.64461	8843.67857
980.38733	8836.25
984.12747	8843.82143
987.86502	8893.96429
991.59999	8939.96429
995.33237	9056.67857
999.06217	9202.39286
1002.78939	9426.39286
1006.51404	9661.82143
1010.23611	9984.53571
1013.95561	10155.39286
1017.67255	10102.10714
1021.38692	9960.67857
1025.09872	9753.82143
1028.80796	9588.10714
1032.51465	9587.39286
1036.21877	9689.25
1039.92035	9821.67857
1043.61937	9880.10714
1047.31584	9910.67857
1051.00976	9872.82143
1054.70114	9798.82143
1058.38998	9744.96429
1062.07627	9754.96429
1065.76003	9738.39286
1069.44126	9736.82143
1073.11995	9843.53571
1076.79611	10137.25
1080.46974	10571.53571
1084.14085	11185.96429
1087.80943	11733.67857
1091.47549	11897.25
1095.13903	11481.82143
1098.80005	10842.39286
1102.45857	10365.67857
1106.11456	10298.67857
1109.76805	10591.82143
1113.41903	11152.39286
1117.06751	11993.67857
1120.71348	13069.82143
1124.35696	14280.53571
1127.99793	15070.39286
1131.63641	14589.39286
1135.2724	13267.96429
1138.90589	12057.25
1142.5369	11299.67857
1146.16542	10840.82143
1149.79145	10544.82143
1153.415	10472.39286
1157.03607	10538.10714
1160.65467	10801.96429
1164.27079	11327.53571
1167.88443	12189.10714
1171.49561	13669.10714
1175.10432	16225.25
1178.71056	19726.67857
1182.31434	22289.39286
1185.91565	22654.82143
1189.51451	21383.82143
1193.11091	19252.96429
1196.70485	17035.53571
1200.29634	15640.39286
1203.88538	14587.10714
1207.47197	13234.67857
1211.05612	12011.10714
1214.63782	11296.10714
1218.21708	11038.39286
1221.79391	10907.67857
1225.36829	10944.82143
1228.94024	10958.82143
1232.50976	10952.39286
1236.07685	11015.96429
1239.6415	11185.96429
1243.20374	11347.10714
1246.76355	11493.10714
1250.32093	11612.39286
1253.8759	11937.53571
1257.42845	12413.53571
1260.97859	13009.39286
1264.52631	13627.96429
1268.07163	14277.10714
1271.61453	14712.39286
1275.15503	14922.39286
1278.69312	14839.96429
1282.22882	14798.67857
1285.76211	15185.10714
1289.29301	15898.96429
1292.82151	16661.39286
1296.34761	17453.25
1299.87133	18756.67857
1303.39266	21238.39286
1306.9116	25140.53571
1310.42815	29346.53571
1313.94233	30951.96429
1317.45412	28829.82143
1320.96354	24998.25
1324.47058	21221.96429
1327.97525	18263.53571
1331.47754	16561.25
1334.97747	16086.96429
1338.47502	16499.39286
1341.97022	17647.25
1345.46305	19547.53571
1348.95352	22317.25
1352.44163	25849.25
1355.92738	30814.82143
1359.41078	37728.39286
1362.89183	43183.96429
1366.37053	40344.53571
1369.84688	32029.82143
1373.32088	24677.39286
1376.79254	19971.53571
1380.26186	17438.67857
1383.72883	15922.25
1387.19347	14791.96429
1390.65578	13618.25
1394.11575	12738.39286
1397.57339	12239.10714
1401.0287	12066.96429
1404.48168	12101.96429
1407.93234	12183.53571
1411.38068	12412.82143
1414.82669	12688.10714
1418.27039	12782.39286
1421.71177	12754.82143
1425.15083	12637.10714
1428.58758	12624.53571
1432.02203	12831.39286
1435.45416	13073.39286
1438.88399	13085.67857
1442.31151	12965.39286
1445.73673	13008.39286
1449.15965	13053.82143
1452.58027	12934.25
1455.9986	12659.82143
1459.41463	12533.10714
1462.82837	12717.53571
1466.23982	13108.53571
1469.64898	13506.67857
1473.05586	13784.82143
1476.46045	14072.96429
1479.86276	14488.53571
1483.26279	15079.25
1486.66054	15853.39286
1490.05602	16857.96429
1493.44922	18302.67857
1496.84016	20599.96429
1500.22882	24345.96429
1503.61521	29514.10714
1506.99934	35400.10714
1510.38121	40236.10714
1513.76081	41573.39286
1517.13816	37593.53571
1520.51324	30469.39286
1523.88607	23963.67857
1527.25665	19782.67857
1530.62498	17554.25
1533.99105	16266.96429
1537.35488	15511.25
1540.71647	15239.82143
1544.07581	15234.39286
1547.4329	15385.53571
1550.78776	15614.82143
1554.14038	15715.25
1557.49077	15949.10714
1560.83892	16337.96429
1564.18484	17151.25
1567.52853	18263.10714
1570.86999	19201.96429
1574.20922	19679.82143
1577.54624	19413.53571
1580.88103	17707.10714
1584.2136	15490.53571
1587.54395	14107.39286
1590.87208	13885.39286
1594.19801	14728.25
1597.52172	16125.67857
1600.84321	16873.67857
1604.16251	16341.10714
1607.47959	15185.25
1610.79447	13927.10714
1614.10715	12634.25
1617.41763	11695.25
1620.7259	11145.96429
1624.03199	10896.53571
1627.33587	10990.53571
1630.63757	11320.96429
1633.93707	11922.39286
1637.23439	13049.39286
1640.52951	14926.10714
1643.82246	17903.25
1647.11321	21769.67857
1650.40179	24822.10714
1653.68819	24185.10714
1656.97241	20095.67857
1660.25446	15710.82143
1663.53433	12774.53571
1666.81203	11135.39286
1670.08756	10267.25
1673.36092	9712.96429
1676.63211	9388.96429
1679.90115	9115.25
1683.16801	8953.25
1686.43272	8779.39286
1689.69527	8710.53571
1692.95567	8625.67857
1696.2139	8555.25
1699.46999	8534.53571
1702.72392	8514.25
1705.97571	8546.10714
1709.22535	8515.96429
1712.47284	8550.67857
1715.71819	8563.10714
1718.96139	8546.10714
1722.20246	8557.39286
1725.44139	8470.39286
1728.67818	8414.25
1731.91284	8271.39286
1735.14537	8224.67857
1738.37576	8158.53571
1741.60403	8117.25
1744.83017	8064.25
1748.05418	8034.96429
1751.27607	8029.10714
1754.49584	7954.25
1757.71349	7983.96429
1760.92903	7927.25
1764.14244	7926.67857
1767.35375	7874.25
1770.56294	7841.67857
1773.77002	7827.67857
1776.97499	7763.67857
1780.17785	7725.96429
1783.37861	7705.39286
1786.57727	7654.39286
1789.77382	7694.96429
1792.96828	7641.10714
1796.16064	7637.53571
1799.3509	7614.53571
1802.53907	7598.39286
1805.72514	7592.67857
1808.90913	7548.39286
1812.09102	7513.25
1815.27083	7495.96429
1818.44856	7472.82143
1821.6242	7453.10714
1824.79776	7439.96429
1827.96924	7388.25
1831.13864	7381.67857
1834.30597	7385.10714
1837.47122	7362.67857
1840.6344	7375.53571
1843.7955	7350.53571
1846.95454	7343.10714
1850.11151	7328.25
1853.26642	7344.10714
1856.41926	7298.82143
1859.57004	7314.53571
1862.71876	7312.82143
1865.86542	7307.39286
1869.01003	7323.96429
1872.15258	7322.10714
1875.29308	7315.67857
1878.43152	7305.96429
1881.56792	7313.96429
1884.70227	7323.25
1887.83457	7306.53571
1890.96482	7287.39286
1894.09304	7252.96429
1897.21921	7259.53571
1900.34335	7276.39286
1903.46544	7273.10714
1906.58551	7235.10714
1909.70353	7230.39286
1912.81953	7243.39286
1915.93349	7239.96429
1919.04543	7213.53571
1922.15534	7225.96429
1925.26322	7188.39286
1928.36908	7173.25
1931.47292	7135.10714
1934.57473	7117.82143
1937.67453	7084.39286
1940.77232	7084.39286
1943.86808	7034.67857
1946.96184	7010.67857
1950.05358	6992.39286
1953.14331	6978.82143
1956.23103	6963.10714
1959.31675	6959.39286
1962.40046	6928.67857
1965.48217	6940.67857
1968.56188	6901.10714
1971.63959	6900.53571
1974.7153	6929.53571
1977.78901	6882.10714
1980.86073	6852.39286
1983.93046	6804.39286
1986.99819	6798.39286
1990.06394	6754.96429
1993.1277	6718.25
1996.18947	6706.53571
1999.24925	6676.96429
2002.30706	6655.39286
2005.36288	6601.96429
2008.41672	6600.96429
2011.46859	6576.10714
2014.51848	6571.82143
2017.56639	6540.67857
2020.61233	6515.96429
2023.6563	6484.39286
2026.6983	6465.25
2029.73833	6463.10714
2032.7764	6468.96429
2035.8125	6436.25
2038.84664	6422.67857
2041.87881	6412.82143
2044.90903	6396.96429
2047.93729	6400.39286
2050.96359	6403.10714
2053.98794	6396.39286
2057.01034	6362.53571
2060.03078	6348.53571
2063.04927	6343.67857
2066.06582	6327.39286
2069.08042	6296.53571
2072.09307	6304.39286
2075.10378	6299.96429
2078.11255	6301.39286
2081.11938	6296.82143
2084.12426	6301.10714
2087.12722	6289.53571
2090.12824	6292.10714
2093.12732	6291.82143
2096.12447	6268.82143
2099.11969	6281.10714
2102.11299	6280.25
2105.10435	6294.25
2108.09379	6285.25
2111.08131	6311.25
2114.0669	6294.67857
2117.05057	6309.82143
2120.03233	6312.25
2123.01216	6333.82143
2125.99008	6336.82143
2128.96609	6341.67857
2131.94018	6355.39286
2134.91236	6350.82143
2137.88263	6344.10714
2140.851	6345.53571
2143.81746	6328.96429
2146.78201	6355.10714
2149.74466	6326.39286
2152.7054	6338.96429
2155.66425	6297.53571
2158.6212	6305.25
2161.57625	6272.96429
2164.52941	6280.96429
2167.48067	6282.10714
2170.43004	6297.10714
2173.37752	6260.67857
2176.32311	6269.67857
2179.26681	6278.10714
2182.20863	6265.53571
2185.14856	6258.82143
2188.08661	6273.96429
2191.02278	6285.25
2193.95707	6263.10714
2196.88948	6262.25
2199.82001	6227.96429
2202.74867	6217.82143
2205.67545	6229.53571
2208.60037	6218.39286
2211.52341	6210.10714
2214.44458	6196.96429
2217.36388	6199.96429
2220.28132	6183.82143
2223.1969	6153.96429
2226.11061	6152.96429
2229.02246	6097.39286
2231.93245	6101.10714
2234.84058	6073.10714
2237.74686	6073.67857
2240.65128	6068.96429
2243.55385	6068.82143
2246.45456	6093.39286
2249.35343	6085.96429
2252.25044	6080.25
2255.14561	6096.96429
2258.03893	6074.53571
2260.93041	6069.53571
2263.82004	6057.39286
2266.70783	6043.96429
2269.59378	6039.67857
2272.4779	6025.39286
2275.36017	6035.82143
2278.24061	5990.53571
2281.11922	5995.25
2283.996	5971.10714
2286.87094	5975.96429
2289.74405	5942.96429
2292.61534	5926.53571
2295.4848	5920.39286
2298.35243	5888.10714
2301.21824	5907.67857
2304.08223	5909.53571
2306.94439	5896.67857
2309.80474	5888.67857
2312.66327	5893.96429
2315.51999	5889.25
2318.37489	5870.82143
2321.22797	5857.82143
2324.07925	5850.10714
2326.92871	5841.25
2329.77637	5840.53571
2332.62222	5839.39286
2335.46626	5830.25
2338.3085	5818.10714
2341.14893	5834.10714
2343.98756	5833.82143
2346.8244	5826.96429
2349.65943	5846.39286
2352.49267	5840.82143
2355.32411	5860.96429
2358.15376	5872.39286
2360.98161	5893.53571
2363.80768	5910.96429
2366.63195	5926.53571
2369.45444	5942.67857
2372.27514	5951.96429
2375.09405	5918.39286
2377.91118	5914.10714
2380.72652	5872.67857
2383.54009	5820.67857
2386.35187	5796.82143
2389.16188	5777.53571
2391.97011	5741.96429
2394.77657	5699.96429
2397.58125	5688.67857
2400.38416	5669.82143
2403.18529	5660.96429
2405.98466	5648.39286
2408.78226	5630.39286
2411.57809	5625.25
2414.37216	5602.10714
2417.16446	5609.25
2419.955	5600.82143
2422.74378	5616.39286
2425.5308	5601.10714
2428.31606	5585.96429
2431.09956	5592.25
2433.88131	5597.82143
2436.6613	5612.39286
2439.43954	5621.96429
2442.21603	5594.53571
2444.99077	5621.10714
2447.76377	5615.10714
2450.53501	5598.67857
2453.30451	5638.82143
2456.07226	5609.67857
2458.83827	5616.96429
2461.60254	5600.96429
2464.36507	5601.67857
2467.12586	5608.25
2469.88492	5572.96429
2472.64224	5591.82143
2475.39782	5593.39286
2478.15167	5611.25
2480.90379	5644.53571
2483.65417	5658.53571
2486.40283	5702.67857
2489.14976	5704.25
2491.89497	5701.67857
2494.63845	5712.96429
2497.3802	5713.39286
2500.12024	5692.39286
2502.85855	5666.25
2505.59514	5649.67857
2508.33002	5618.67857
2511.06318	5562.53571
2513.79462	5543.96429
2516.52435	5494.53571
2519.25237	5462.53571
2521.97867	5429.67857
2524.70327	5428.53571
2527.42616	5424.96429
2530.14734	5400.82143
2532.86681	5386.25
2535.58458	5396.53571
2538.30065	5390.39286
2541.01501	5407.10714
2543.72768	5398.53571
2546.43864	5377.39286
2549.14791	5409.67857
2551.85548	5400.82143
2554.56136	5394.53571
2557.26554	5388.39286
2559.96803	5389.25
2562.66883	5377.53571
2565.36794	5365.67857
2568.06536	5349.10714
2570.7611	5353.39286
2573.45514	5336.10714
2576.14751	5315.96429
2578.83819	5294.67857
2581.52719	5294.25
2584.21451	5277.96429
2586.90015	5256.10714
2589.58411	5264.67857
2592.2664	5253.39286
2594.94701	5239.82143
2597.62594	5226.10714
2600.30321	5220.82143
2602.9788	5232.82143
2605.65273	5205.39286
2608.32498	5215.82143
2610.99557	5227.25
2613.66449	5227.96429
2616.33175	5221.67857
2618.99734	5212.53571
2621.66128	5197.96429
2624.32355	5201.10714
2626.98416	5177.82143
2629.64311	5169.53571
2632.30041	5163.96429
2634.95605	5149.10714
2637.61004	5137.96429
2640.26238	5092.25
2642.91306	5111.39286
2645.56209	5128.82143
2648.20948	5100.53571
2650.85521	5077.10714
2653.4993	5103.10714
2656.14175	5085.10714
2658.78255	5118.25
2661.42171	5126.82143
2664.05923	5121.82143
2666.6951	5147.82143
2669.32934	5139.39286
2671.96194	5150.25
2674.59291	5154.53571
2677.22224	5153.25
2679.84993	5153.82143
2682.476	5149.10714
2685.10043	5145.39286
2687.72324	5138.53571
2690.34441	5145.53571
2692.96396	5145.82143
2695.58188	5139.82143
2698.19818	5141.96429
2700.81285	5147.39286
2703.4259	5127.25
2706.03733	5129.25
2708.64714	5134.10714
2711.25533	5153.10714
2713.86191	5161.53571
2716.46687	5191.53571
2719.07021	5178.53571
2721.67194	5188.53571
2724.27206	5174.53571
2726.87057	5181.67857
2729.46747	5170.53571
2732.06276	5157.10714
2734.65644	5153.10714
2737.24852	5143.96429
2739.83899	5117.39286
2742.42786	5122.39286
2745.01513	5104.39286
2747.60079	5093.82143
2750.18486	5083.39286
2752.76733	5076.39286
2755.3482	5055.67857
2757.92747	5037.25
2760.50515	5040.82143
2763.08123	5028.10714
2765.65573	5032.39286
2768.22863	5026.82143
2770.79994	5011.82143
2773.36967	5023.82143
2775.9378	5001.10714
2778.50435	5014.82143
2781.06932	4992.67857
2783.6327	4995.82143
2786.1945	5009.53571
2788.75471	5015.39286
2791.31335	5000.10714
2793.87041	5015.96429
2796.42589	5000.82143
2798.97979	5002.96429
2801.53212	5006.39286
2804.08288	5019.67857
2806.63206	5013.82143
2809.17967	5000.39286
2811.72571	5006.25
2814.27018	5017.82143
2816.81308	5033.25
2819.35442	5040.67857
2821.89419	5029.67857
2824.43239	5035.10714
2826.96904	5051.67857
2829.50412	5082.10714
2832.03763	5063.96429
2834.56959	5052.39286
2837.1	5051.82143
2839.62884	5077.25
2842.15613	5090.10714
2844.68186	5137.25
2847.20604	5154.53571
2849.72867	5208.96429
2852.24974	5235.82143
2854.76927	5224.67857
2857.28724	5231.67857
2859.80367	5246.25
2862.31855	5214.96429
2864.83189	5216.82143
2867.34368	5207.10714
2869.85393	5219.82143
2872.36264	5205.96429
2874.8698	5203.82143
2877.37543	5187.39286
2879.87952	5176.96429
2882.38207	5170.39286
2884.88308	5133.25
2887.38256	5134.53571
2889.88051	5131.96429
2892.37692	5137.82143
2894.8718	5138.67857
2897.36515	5136.10714
2899.85698	5127.10714
2902.34727	5139.39286
2904.83604	5145.67857
2907.32328	5145.25
2909.809	5150.96429
2912.29319	5155.10714
2914.77587	5139.39286
2917.25702	5131.39286
2919.73665	5119.25
2922.21476	5126.96429
2924.69136	5118.67857
2927.16644	5094.10714
2929.64	5097.67857
2932.11205	5083.53571
2934.58258	5057.96429
2937.05161	5061.96429
2939.51912	5033.25
2941.98513	5028.82143
2944.44962	4997.10714
2946.91261	4948.53571
2949.37409	4935.10714
2951.83407	4917.39286
2954.29254	4910.67857
2956.74951	4930.25
2959.20498	4889.39286
2961.65895	4892.53571
2964.11142	4892.96429
2966.56239	4874.67857
2969.01186	4861.39286
2971.45984	4849.67857
2973.90632	4833.39286
2976.35131	4811.53571
2978.7948	4833.25
2981.23681	4803.82143
2983.67732	4785.96429
2986.11635	4775.10714
2988.55388	4769.67857
2990.98993	4737.25
2993.4245	4755.39286
2995.85758	4732.53571
2998.28917	4721.96429
3000.71928	4722.39286
3003.14791	4715.96429
3005.57506	4719.96429
3008.00073	4702.82143
3010.42493	4704.82143
3012.84764	4713.67857
3015.26888	4702.82143
3017.68865	4686.67857
3020.10694	4690.96429
3022.52376	4675.39286
3024.9391	4670.96429
3027.35298	4648.39286
3029.76539	4644.39286
3032.17632	4642.53571
3034.5858	4627.39286
3036.9938	4621.96429
3039.40034	4591.10714
3041.80542	4616.53571
3044.20903	4595.96429
3046.61118	4588.82143
3049.01187	4584.96429
3051.4111	4592.10714
3053.80888	4581.82143
3056.20519	4553.53571
3058.60005	4547.67857
3060.99345	4541.25
3063.3854	4523.67857
3065.7759	4530.96429
3068.16494	4504.82143
3070.55254	4507.25
3072.93868	4497.96429
3075.32338	4479.39286
3077.70662	4482.96429
3080.08842	4478.39286
3082.46878	4453.96429
3084.84769	4460.53571
3087.22515	4464.96429
3089.60118	4451.39286
3091.97576	4442.67857
3094.3489	4458.10714
3096.72061	4452.10714
3099.09087	4453.67857
3101.4597	4459.82143
3103.82709	4455.67857
3106.19305	4430.25
3108.55757	4438.82143
3110.92066	4443.53571
3113.28232	4442.82143
3115.64255	4428.82143
3118.00134	4442.10714
3120.35871	4421.25
3122.71466	4418.82143
3125.06917	4433.82143
3127.42226	4419.10714
3129.77393	4416.82143
3132.12417	4406.25
3134.47299	4441.25
3136.82039	4436.96429
3139.16636	4444.82143
3141.51092	4448.10714
3143.85406	4469.25
3146.19579	4453.82143
3148.53609	4463.82143
3150.87499	4484.39286
3153.21246	4485.67857
3155.54853	4507.25
3157.88318	4489.82143
3160.21642	4524.67857
3162.54826	4524.67857
3164.87868	4538.25
3167.2077	4521.53571
3169.5353	4532.82143
3171.86151	4532.82143
3174.18631	4531.10714
3176.5097	4537.53571
3178.83169	4544.82143
3181.15228	4541.53571
3183.47147	4547.25
3185.78926	4560.39286
3188.10565	4539.82143
3190.42065	4551.39286
3192.73424	4566.39286
3195.04645	4555.82143
3197.35725	4575.25
3199.66667	4573.39286
3201.97469	4558.96429
3204.28132	4589.82143
3206.58656	4604.39286
3208.8904	4623.53571
3211.19287	4615.10714
3213.49394	4637.10714
3215.79363	4639.96429
3218.09193	4650.96429
3220.38884	4647.67857
3222.68438	4644.67857
3224.97853	4660.53571
3227.2713	4656.53571
3229.56269	4640.25
3231.8527	4653.39286
3234.14133	4640.67857
3236.42858	4622.39286
3238.71446	4631.96429
3240.99896	4615.67857
3243.28209	4601.53571
3245.56384	4597.82143
3247.84423	4602.10714
3250.12324	4611.10714
3252.40088	4578.96429
3254.67715	4615.10714
3256.95205	4598.67857
3259.22558	4593.96429
3261.49775	4585.25
3263.76855	4587.39286
3266.03799	4583.39286
3268.30606	4579.82143
3270.57277	4584.96429
3272.83812	4586.67857
3275.10211	4561.53571
3277.36474	4537.67857
3279.62601	4552.10714
3281.88593	4539.96429
3284.14448	4563.53571
3286.40168	4552.53571
3288.65753	4551.10714
3290.91202	4543.53571
3293.16516	4542.10714
3295.41695	4528.10714
3297.66738	4524.96429
3299.91647	4495.39286
3302.16421	4465.10714
3304.4106	4447.67857
3306.65564	4406.96429
3308.89933	4377.82143
3311.14169	4350.25
3313.38269	4315.96429
3315.62236	4286.67857
3317.86068	4254.82143
3320.09766	4216.10714
3322.3333	4187.82143
3324.5676	4163.82143
3326.80056	4102.96429
3329.03219	4079.96429
3331.26248	-0.17857
3333.49143	-0.03571
3335.71905	-0.32143
