Data from AgNPs_FTO_APTES_UA_20uM_CRN_500uM_R6G_10uM_NaF_0.1M_Addition_RamanShift__13__18-47-14-972.txt Node

Date: Thu Feb 17 18:47:14 GMT 2022
User: TCL
Spectrometer: QEP01345
Trigger mode: 4
Integration Time (sec): 1.000000E1
Scans to average: 7
Electric dark correction enabled: true
Nonlinearity correction enabled: false
Boxcar width: 0
XAxis mode: Raman Shifts
Number of Pixels in Spectrum: 1044
>>>>>Begin Spectral Data<<<<<
46.04893	-0.96429
50.45542	0.32143
54.85868	-0.10714
59.25871	-0.67857
63.6555	58.75
68.04907	60.03571
72.43941	64.75
76.82654	64.17857
81.21044	70.60714
85.59113	75.32143
89.96862	78.03571
94.34289	79.17857
98.71396	81.60714
103.08183	81.17857
107.4465	88.32143
111.80798	84.89286
116.16626	84.17857
120.52136	87.60714
124.87327	94.89286
129.222	96.17857
133.56755	98.89286
137.90993	107.32143
142.24913	112.60714
146.58517	123.17857
150.91804	139.89286
155.24774	164.89286
159.57429	194.46429
163.89768	248.03571
168.21792	322.89286
172.53501	426.60714
176.84895	605.17857
181.15975	852.32143
185.46741	1185.60714
189.77193	1664.75
194.07331	2236.32143
198.37157	2897.46429
202.6667	3622.32143
206.9587	4314.32143
211.24758	5022.32143
215.53334	5703.75
219.81599	6397.60714
224.09553	7157.75
228.37195	7988.46429
232.64527	8914.89286
236.91549	9927.46429
241.18261	10951.75
245.44663	11946.75
249.70755	12875.60714
253.96539	13721.46429
258.22014	14384.60714
262.4718	14873.17857
266.72039	15195.32143
270.96589	15369.03571
275.20832	15361.03571
279.44768	15175.46429
283.68397	15001.32143
287.91719	14752.03571
292.14735	14573.17857
296.37445	14409.75
300.59849	14346.75
304.81948	14325.46429
309.03742	14299.17857
313.25231	14236.03571
317.46415	14141.32143
321.67296	14065.32143
325.87872	13951.32143
330.08145	13958.03571
334.28114	14022.75
338.47781	14180.89286
342.67145	14324.75
346.86207	14525.32143
351.04966	14727.89286
355.23424	14939.89286
359.4158	15208.17857
363.59435	15390.89286
367.76989	15544.32143
371.94243	15700.17857
376.11196	15860.03571
380.27849	15962.32143
384.44203	16093.60714
388.60257	16196.17857
392.76012	16336.75
396.91468	16494.17857
401.06626	16674.03571
405.21485	16792.17857
409.36047	16835.03571
413.50311	16803.75
417.64277	16746.17857
421.77947	16764.89286
425.9132	16747.60714
430.04396	16872.03571
434.17176	16939.89286
438.2966	17097.32143
442.41849	17253.17857
446.53742	17409.32143
450.6534	17641.32143
454.76644	17803.03571
458.87653	17861.17857
462.98368	17972.03571
467.08789	18022.75
471.18916	18012.17857
475.2875	17948.46429
479.38291	17916.89286
483.4754	17837.75
487.56496	17799.03571
491.6516	17820.03571
495.73531	17837.46429
499.81612	17830.46429
503.89401	17919.89286
507.96899	17960.46429
512.04106	18053.89286
516.11023	18084.17857
520.1765	18116.89286
524.23987	18147.32143
528.30034	18171.89286
532.35792	18166.60714
536.41261	18145.03571
540.46441	18129.03571
544.51333	18149.89286
548.55936	18250.03571
552.60252	18343.17857
556.64279	18445.60714
560.6802	18501.32143
564.71473	18514.03571
568.7464	18583.89286
572.7752	18641.89286
576.80114	18645.03571
580.82422	18711.75
584.84444	18825.17857
588.86181	18904.32143
592.87633	18980.03571
596.888	19033.32143
600.89682	19277.32143
604.9028	19702.75
608.90594	20590.32143
612.90624	21581.46429
616.90371	21270.60714
620.89834	19781.32143
624.89015	19048.03571
628.87913	18950.75
632.86528	19012.75
636.84862	19184.17857
640.82913	19149.32143
644.80683	19006.75
648.78172	18928.17857
652.75379	18955.03571
656.72306	19085.46429
660.68952	19246.03571
664.65319	19354.89286
668.61405	19248.46429
672.57211	19301.32143
676.52738	19418.32143
680.47986	19558.75
684.42955	19556.17857
688.37646	19597.03571
692.32058	19613.75
696.26192	19616.75
700.20048	19751.32143
704.13626	19851.03571
708.06928	19774.32143
711.99952	19660.17857
715.927	19605.89286
719.85171	19577.03571
723.77365	19601.75
727.69284	19545.03571
731.60928	19522.89286
735.52295	19470.89286
739.43388	19496.46429
743.34206	19539.46429
747.24749	19546.32143
751.15017	19567.46429
755.05012	19685.32143
758.94733	19843.03571
762.8418	20098.89286
766.73354	20639.89286
770.62254	21239.75
774.50882	21564.75
778.39237	21402.75
782.27321	20872.89286
786.15132	20319.60714
790.02671	19952.89286
793.89938	19676.89286
797.76935	19613.46429
801.6366	19607.89286
805.50115	19563.89286
809.36299	19492.03571
813.22213	19492.46429
817.07857	19508.17857
820.93231	19507.32143
824.78336	19527.75
828.63172	19553.46429
832.47738	19554.46429
836.32036	19583.60714
840.16066	19583.32143
843.99827	19613.89286
847.8332	19644.89286
851.66546	19671.60714
855.49504	19677.46429
859.32195	19728.60714
863.1462	19740.75
866.96777	19772.75
870.78668	19741.89286
874.60293	19813.17857
878.41652	19802.60714
882.22745	19886.89286
886.03573	19884.32143
889.84136	19892.60714
893.64433	19882.75
897.44466	19859.46429
901.24235	19809.03571
905.0374	19848.32143
908.8298	19813.03571
912.61957	19807.17857
916.40671	19832.89286
920.19121	19885.32143
923.97308	19887.17857
927.75233	19864.03571
931.52895	19814.75
935.30295	19803.89286
939.07433	19723.60714
942.84309	19682.60714
946.60924	19627.32143
950.37278	19580.03571
954.13371	19492.46429
957.89203	19475.75
961.64774	19545.03571
965.40086	19509.17857
969.15137	19463.03571
972.89929	19456.32143
976.64461	19470.89286
980.38733	19446.03571
984.12747	19472.89286
987.86502	19515.03571
991.59999	19534.89286
995.33237	19594.32143
999.06217	19670.75
1002.78939	19743.46429
1006.51404	19827.89286
1010.23611	19942.32143
1013.95561	20028.75
1017.67255	20104.03571
1021.38692	20061.17857
1025.09872	20030.32143
1028.80796	19972.17857
1032.51465	19899.60714
1036.21877	19922.32143
1039.92035	19932.60714
1043.61937	19985.03571
1047.31584	20012.03571
1051.00976	20084.17857
1054.70114	20134.17857
1058.38998	20157.46429
1062.07627	20190.17857
1065.76003	20268.32143
1069.44126	20396.75
1073.11995	20436.17857
1076.79611	20569.03571
1080.46974	20632.89286
1084.14085	20652.60714
1087.80943	20673.60714
1091.47549	20672.32143
1095.13903	20650.46429
1098.80005	20667.89286
1102.45857	20565.60714
1106.11456	20483.32143
1109.76805	20430.46429
1113.41903	20425.89286
1117.06751	20469.89286
1120.71348	20525.46429
1124.35696	20604.17857
1127.99793	20641.89286
1131.63641	20779.17857
1135.2724	20709.89286
1138.90589	20601.17857
1142.5369	20528.60714
1146.16542	20502.75
1149.79145	20422.32143
1153.415	20437.17857
1157.03607	20393.46429
1160.65467	20485.60714
1164.27079	20594.32143
1167.88443	20825.46429
1171.49561	21153.75
1175.10432	21541.60714
1178.71056	22132.89286
1182.31434	22645.75
1185.91565	23089.46429
1189.51451	23227.03571
1193.11091	23134.75
1196.70485	22982.03571
1200.29634	22728.17857
1203.88538	22482.60714
1207.47197	22068.03571
1211.05612	21738.89286
1214.63782	21451.46429
1218.21708	21301.03571
1221.79391	21166.75
1225.36829	21081.17857
1228.94024	21072.89286
1232.50976	21075.60714
1236.07685	21083.03571
1239.6415	21137.75
1243.20374	21149.60714
1246.76355	21191.32143
1250.32093	21265.03571
1253.8759	21379.46429
1257.42845	21499.89286
1260.97859	21727.03571
1264.52631	21859.89286
1268.07163	21984.89286
1271.61453	22120.75
1275.15503	22171.32143
1278.69312	22245.60714
1282.22882	22305.17857
1285.76211	22370.75
1289.29301	22462.75
1292.82151	22637.89286
1296.34761	22815.89286
1299.87133	23085.17857
1303.39266	23379.75
1306.9116	23849.17857
1310.42815	24293.03571
1313.94233	24546.75
1317.45412	24510.75
1320.96354	24288.32143
1324.47058	24040.46429
1327.97525	23696.60714
1331.47754	23559.32143
1334.97747	23529.17857
1338.47502	23597.75
1341.97022	23911.89286
1345.46305	24325.60714
1348.95352	24772.17857
1352.44163	25241.46429
1355.92738	25578.60714
1359.41078	26009.17857
1362.89183	26318.46429
1366.37053	26071.32143
1369.84688	24986.17857
1373.32088	23746.17857
1376.79254	22798.17857
1380.26186	22266.60714
1383.72883	21929.60714
1387.19347	21655.75
1390.65578	21402.32143
1394.11575	21160.89286
1397.57339	20951.75
1401.0287	20889.46429
1404.48168	20790.46429
1407.93234	20794.32143
1411.38068	20804.89286
1414.82669	20801.75
1418.27039	20702.75
1421.71177	20639.03571
1425.15083	20456.75
1428.58758	20397.60714
1432.02203	20259.17857
1435.45416	20283.32143
1438.88399	20320.89286
1442.31151	20341.17857
1445.73673	20328.17857
1449.15965	20357.46429
1452.58027	20371.03571
1455.9986	20414.32143
1459.41463	20465.46429
1462.82837	20577.32143
1466.23982	20769.32143
1469.64898	20941.17857
1473.05586	21183.46429
1476.46045	21287.75
1479.86276	21394.75
1483.26279	21428.60714
1486.66054	21585.75
1490.05602	21700.03571
1493.44922	21930.46429
1496.84016	22328.75
1500.22882	22837.75
1503.61521	23512.89286
1506.99934	24198.32143
1510.38121	24552.60714
1513.76081	24478.32143
1517.13816	23918.75
1520.51324	23263.89286
1523.88607	22632.17857
1527.25665	22233.17857
1530.62498	22034.75
1533.99105	21903.17857
1537.35488	21880.46429
1540.71647	21845.75
1544.07581	21765.46429
1547.4329	21745.89286
1550.78776	21621.03571
1554.14038	21532.60714
1557.49077	21487.46429
1560.83892	21491.03571
1564.18484	21518.46429
1567.52853	21614.17857
1570.86999	21753.46429
1574.20922	21817.60714
1577.54624	21807.17857
1580.88103	21631.89286
1584.2136	21338.32143
1587.54395	21140.32143
1590.87208	21155.17857
1594.19801	21350.75
1597.52172	21689.89286
1600.84321	21918.89286
1604.16251	21866.03571
1607.47959	21746.89286
1610.79447	21398.03571
1614.10715	21046.75
1617.41763	20644.75
1620.7259	20257.89286
1624.03199	19971.75
1627.33587	19859.03571
1630.63757	19790.75
1633.93707	19927.17857
1637.23439	20164.89286
1640.52951	20602.60714
1643.82246	21218.32143
1647.11321	21914.03571
1650.40179	22270.60714
1653.68819	22130.17857
1656.97241	21403.32143
1660.25446	20547.03571
1663.53433	19868.46429
1666.81203	19318.89286
1670.08756	19013.46429
1673.36092	18799.03571
1676.63211	18659.89286
1679.90115	18544.32143
1683.16801	18439.46429
1686.43272	18338.46429
1689.69527	18290.32143
1692.95567	18257.89286
1696.2139	18210.60714
1699.46999	18187.75
1702.72392	18162.03571
1705.97571	18209.03571
1709.22535	18179.89286
1712.47284	18174.17857
1715.71819	18133.32143
1718.96139	18090.17857
1722.20246	18068.03571
1725.44139	18041.60714
1728.67818	17977.89286
1731.91284	17932.17857
1735.14537	17936.75
1738.37576	17898.32143
1741.60403	17821.60714
1744.83017	17739.75
1748.05418	17734.46429
1751.27607	17743.60714
1754.49584	17689.03571
1757.71349	17692.32143
1760.92903	17694.32143
1764.14244	17676.60714
1767.35375	17675.17857
1770.56294	17609.89286
1773.77002	17572.89286
1776.97499	17549.60714
1780.17785	17458.60714
1783.37861	17455.17857
1786.57727	17436.60714
1789.77382	17389.03571
1792.96828	17320.32143
1796.16064	17273.17857
1799.3509	17263.46429
1802.53907	17228.60714
1805.72514	17219.17857
1808.90913	17163.17857
1812.09102	17113.17857
1815.27083	17075.46429
1818.44856	17057.89286
1821.6242	17058.17857
1824.79776	17062.17857
1827.96924	17025.46429
1831.13864	16982.75
1834.30597	16994.75
1837.47122	16944.32143
1840.6344	16951.03571
1843.7955	16937.60714
1846.95454	16890.89286
1850.11151	16895.03571
1853.26642	16893.03571
1856.41926	16847.60714
1859.57004	16837.17857
1862.71876	16804.46429
1865.86542	16808.32143
1869.01003	16805.75
1872.15258	16806.46429
1875.29308	16780.89286
1878.43152	16767.17857
1881.56792	16687.60714
1884.70227	16704.60714
1887.83457	16694.03571
1890.96482	16671.17857
1894.09304	16647.46429
1897.21921	16607.89286
1900.34335	16588.17857
1903.46544	16565.03571
1906.58551	16535.60714
1909.70353	16501.46429
1912.81953	16485.03571
1915.93349	16473.60714
1919.04543	16451.75
1922.15534	16387.60714
1925.26322	16370.46429
1928.36908	16345.75
1931.47292	16332.60714
1934.57473	16299.60714
1937.67453	16274.60714
1940.77232	16224.03571
1943.86808	16161.17857
1946.96184	16139.89286
1950.05358	16112.03571
1953.14331	16081.60714
1956.23103	16021.89286
1959.31675	15996.17857
1962.40046	15904.03571
1965.48217	15882.46429
1968.56188	15854.03571
1971.63959	15762.17857
1974.7153	15752.75
1977.78901	15694.32143
1980.86073	15634.46429
1983.93046	15587.32143
1986.99819	15546.89286
1990.06394	15517.89286
1993.1277	15519.17857
1996.18947	15436.60714
1999.24925	15365.03571
2002.30706	15301.89286
2005.36288	15254.46429
2008.41672	15227.32143
2011.46859	15169.60714
2014.51848	15109.89286
2017.56639	15090.32143
2020.61233	15040.03571
2023.6563	15017.32143
2026.6983	14941.03571
2029.73833	14933.89286
2032.7764	14845.03571
2035.8125	14802.46429
2038.84664	14810.60714
2041.87881	14792.03571
2044.90903	14717.32143
2047.93729	14703.46429
2050.96359	14752.60714
2053.98794	14701.03571
2057.01034	14676.46429
2060.03078	14668.46429
2063.04927	14659.32143
2066.06582	14604.89286
2069.08042	14639.60714
2072.09307	14607.60714
2075.10378	14570.60714
2078.11255	14601.89286
2081.11938	14617.03571
2084.12426	14578.17857
2087.12722	14552.89286
2090.12824	14582.60714
2093.12732	14612.46429
2096.12447	14577.75
2099.11969	14552.89286
2102.11299	14578.75
2105.10435	14534.32143
2108.09379	14540.60714
2111.08131	14602.46429
2114.0669	14579.60714
2117.05057	14600.32143
2120.03233	14570.75
2123.01216	14598.46429
2125.99008	14618.60714
2128.96609	14693.75
2131.94018	14688.46429
2134.91236	14681.17857
2137.88263	14690.46429
2140.851	14664.03571
2143.81746	14693.60714
2146.78201	14680.03571
2149.74466	14696.75
2152.7054	14697.75
2155.66425	14695.03571
2158.6212	14641.32143
2161.57625	14652.46429
2164.52941	14656.17857
2167.48067	14623.17857
2170.43004	14635.03571
2173.37752	14620.89286
2176.32311	14646.03571
2179.26681	14621.89286
2182.20863	14608.32143
2185.14856	14594.46429
2188.08661	14616.17857
2191.02278	14584.89286
2193.95707	14569.17857
2196.88948	14531.32143
2199.82001	14519.89286
2202.74867	14530.60714
2205.67545	14514.46429
2208.60037	14479.89286
2211.52341	14469.03571
2214.44458	14411.60714
2217.36388	14409.32143
2220.28132	14388.03571
2223.1969	14339.03571
2226.11061	14317.75
2229.02246	14283.03571
2231.93245	14252.60714
2234.84058	14198.75
2237.74686	14184.32143
2240.65128	14198.60714
2243.55385	14220.32143
2246.45456	14186.46429
2249.35343	14146.17857
2252.25044	14108.17857
2255.14561	14121.46429
2258.03893	14090.32143
2260.93041	14077.03571
2263.82004	14009.03571
2266.70783	13994.03571
2269.59378	13954.89286
2272.4779	13883.89286
2275.36017	13884.03571
2278.24061	13851.32143
2281.11922	13811.75
2283.996	13832.32143
2286.87094	13791.60714
2289.74405	13744.89286
2292.61534	13742.17857
2295.4848	13741.32143
2298.35243	13700.32143
2301.21824	13711.03571
2304.08223	13694.75
2306.94439	13651.89286
2309.80474	13618.46429
2312.66327	13579.03571
2315.51999	13608.32143
2318.37489	13610.46429
2321.22797	13555.32143
2324.07925	13563.03571
2326.92871	13508.17857
2329.77637	13502.75
2332.62222	13455.17857
2335.46626	13426.89286
2338.3085	13415.17857
2341.14893	13383.46429
2343.98756	13433.17857
2346.8244	13365.03571
2349.65943	13359.60714
2352.49267	13285.03571
2355.32411	13330.03571
2358.15376	13307.03571
2360.98161	13285.17857
2363.80768	13297.03571
2366.63195	13266.89286
2369.45444	13243.46429
2372.27514	13226.60714
2375.09405	13194.17857
2377.91118	13201.03571
2380.72652	13174.17857
2383.54009	13132.03571
2386.35187	13119.32143
2389.16188	13037.46429
2391.97011	13035.17857
2394.77657	13008.75
2397.58125	13019.89286
2400.38416	12990.32143
2403.18529	12989.60714
2405.98466	12921.03571
2408.78226	12934.17857
2411.57809	12897.03571
2414.37216	12866.46429
2417.16446	12902.03571
2419.955	12844.75
2422.74378	12827.03571
2425.5308	12850.32143
2428.31606	12829.17857
2431.09956	12840.17857
2433.88131	12778.03571
2436.6613	12763.32143
2439.43954	12744.89286
2442.21603	12748.46429
2444.99077	12719.60714
2447.76377	12706.60714
2450.53501	12677.89286
2453.30451	12687.03571
2456.07226	12659.32143
2458.83827	12640.46429
2461.60254	12622.75
2464.36507	12583.17857
2467.12586	12591.17857
2469.88492	12571.75
2472.64224	12523.60714
2475.39782	12497.17857
2478.15167	12524.75
2480.90379	12516.89286
2483.65417	12531.60714
2486.40283	12530.17857
2489.14976	12488.89286
2491.89497	12485.89286
2494.63845	12452.03571
2497.3802	12473.89286
2500.12024	12470.03571
2502.85855	12419.89286
2505.59514	12419.32143
2508.33002	12397.32143
2511.06318	12341.60714
2513.79462	12339.17857
2516.52435	12337.32143
2519.25237	12318.46429
2521.97867	12277.03571
2524.70327	12290.60714
2527.42616	12276.32143
2530.14734	12276.03571
2532.86681	12262.60714
2535.58458	12200.60714
2538.30065	12158.60714
2541.01501	12153.46429
2543.72768	12133.46429
2546.43864	12120.89286
2549.14791	12104.75
2551.85548	12078.03571
2554.56136	12057.89286
2557.26554	12027.32143
2559.96803	12023.17857
2562.66883	11977.75
2565.36794	11953.46429
2568.06536	11911.89286
2570.7611	11913.75
2573.45514	11876.03571
2576.14751	11820.03571
2578.83819	11813.46429
2581.52719	11778.46429
2584.21451	11779.60714
2586.90015	11762.03571
2589.58411	11746.17857
2592.2664	11737.03571
2594.94701	11667.17857
2597.62594	11669.89286
2600.30321	11627.03571
2602.9788	11597.89286
2605.65273	11543.60714
2608.32498	11561.89286
2610.99557	11545.03571
2613.66449	11534.89286
2616.33175	11503.75
2618.99734	11492.32143
2621.66128	11472.46429
2624.32355	11430.89286
2626.98416	11433.89286
2629.64311	11399.32143
2632.30041	11408.46429
2634.95605	11367.75
2637.61004	11338.75
2640.26238	11337.17857
2642.91306	11327.32143
2645.56209	11325.17857
2648.20948	11312.89286
2650.85521	11288.03571
2653.4993	11287.89286
2656.14175	11283.89286
2658.78255	11317.17857
2661.42171	11270.32143
2664.05923	11271.32143
2666.6951	11292.03571
2669.32934	11301.46429
2671.96194	11270.75
2674.59291	11265.60714
2677.22224	11265.03571
2679.84993	11231.60714
2682.476	11214.89286
2685.10043	11264.75
2687.72324	11214.32143
2690.34441	11186.46429
2692.96396	11226.32143
2695.58188	11199.75
2698.19818	11184.03571
2700.81285	11217.60714
2703.4259	11172.89286
2706.03733	11202.46429
2708.64714	11227.89286
2711.25533	11212.32143
2713.86191	11235.46429
2716.46687	11226.17857
2719.07021	11186.03571
2721.67194	11197.32143
2724.27206	11178.32143
2726.87057	11183.60714
2729.46747	11176.60714
2732.06276	11118.32143
2734.65644	11132.03571
2737.24852	11135.89286
2739.83899	11111.46429
2742.42786	11106.46429
2745.01513	11099.89286
2747.60079	11082.32143
2750.18486	11038.89286
2752.76733	11025.75
2755.3482	10993.60714
2757.92747	11034.32143
2760.50515	10987.46429
2763.08123	10997.32143
2765.65573	10955.32143
2768.22863	10942.75
2770.79994	10905.32143
2773.36967	10901.75
2775.9378	10888.46429
2778.50435	10852.46429
2781.06932	10867.32143
2783.6327	10837.03571
2786.1945	10778.03571
2788.75471	10785.17857
2791.31335	10763.75
2793.87041	10725.75
2796.42589	10703.03571
2798.97979	10699.89286
2801.53212	10684.60714
2804.08288	10656.75
2806.63206	10610.46429
2809.17967	10604.17857
2811.72571	10557.46429
2814.27018	10564.60714
2816.81308	10486.75
2819.35442	10489.32143
2821.89419	10471.60714
2824.43239	10466.03571
2826.96904	10448.60714
2829.50412	10434.32143
2832.03763	10409.32143
2834.56959	10398.60714
2837.1	10404.60714
2839.62884	10373.32143
2842.15613	10372.03571
2844.68186	10384.17857
2847.20604	10372.89286
2849.72867	10350.46429
2852.24974	10312.89286
2854.76927	10309.17857
2857.28724	10304.03571
2859.80367	10264.17857
2862.31855	10231.75
2864.83189	10239.03571
2867.34368	10223.89286
2869.85393	10216.46429
2872.36264	10212.89286
2874.8698	10188.17857
2877.37543	10160.60714
2879.87952	10150.03571
2882.38207	10133.46429
2884.88308	10118.75
2887.38256	10141.46429
2889.88051	10135.46429
2892.37692	10171.60714
2894.8718	10156.89286
2897.36515	10141.75
2899.85698	10120.89286
2902.34727	10144.89286
2904.83604	10130.46429
2907.32328	10147.17857
2909.809	10157.03571
2912.29319	10150.17857
2914.77587	10153.60714
2917.25702	10139.89286
2919.73665	10154.46429
2922.21476	10128.32143
2924.69136	10122.60714
2927.16644	10147.75
2929.64	10125.32143
2932.11205	10099.32143
2934.58258	10067.60714
2937.05161	10087.89286
2939.51912	10089.46429
2941.98513	10086.46429
2944.44962	10089.32143
2946.91261	10055.46429
2949.37409	10078.03571
2951.83407	10051.60714
2954.29254	10060.46429
2956.74951	10017.17857
2959.20498	10010.32143
2961.65895	10005.03571
2964.11142	10007.75
2966.56239	9981.89286
2969.01186	9962.03571
2971.45984	9946.75
2973.90632	9921.89286
2976.35131	9925.32143
2978.7948	9907.60714
2981.23681	9897.46429
2983.67732	9872.03571
2986.11635	9875.03571
2988.55388	9842.60714
2990.98993	9822.32143
2993.4245	9804.60714
2995.85758	9774.03571
2998.28917	9762.17857
3000.71928	9728.75
3003.14791	9703.75
3005.57506	9706.32143
3008.00073	9708.89286
3010.42493	9677.75
3012.84764	9641.75
3015.26888	9652.17857
3017.68865	9629.60714
3020.10694	9625.32143
3022.52376	9603.60714
3024.9391	9575.89286
3027.35298	9580.03571
3029.76539	9556.75
3032.17632	9569.17857
3034.5858	9540.75
3036.9938	9543.89286
3039.40034	9546.32143
3041.80542	9517.03571
3044.20903	9489.03571
3046.61118	9503.75
3049.01187	9456.32143
3051.4111	9456.03571
3053.80888	9451.60714
3056.20519	9426.03571
3058.60005	9393.17857
3060.99345	9398.32143
3063.3854	9356.17857
3065.7759	9335.60714
3068.16494	9333.75
3070.55254	9306.46429
3072.93868	9275.32143
3075.32338	9302.60714
3077.70662	9253.89286
3080.08842	9232.32143
3082.46878	9220.03571
3084.84769	9222.46429
3087.22515	9230.75
3089.60118	9228.60714
3091.97576	9232.75
3094.3489	9238.60714
3096.72061	9239.17857
3099.09087	9229.32143
3101.4597	9198.89286
3103.82709	9235.32143
3106.19305	9231.03571
3108.55757	9229.32143
3110.92066	9188.89286
3113.28232	9211.17857
3115.64255	9164.17857
3118.00134	9149.75
3120.35871	9116.60714
3122.71466	9141.75
3125.06917	9111.89286
3127.42226	9098.89286
3129.77393	9092.46429
3132.12417	9089.60714
3134.47299	9084.03571
3136.82039	9096.46429
3139.16636	9068.17857
3141.51092	9069.75
3143.85406	9092.89286
3146.19579	9116.03571
3148.53609	9117.17857
3150.87499	9107.89286
3153.21246	9107.32143
3155.54853	9120.17857
3157.88318	9122.17857
3160.21642	9145.03571
3162.54826	9159.32143
3164.87868	9164.03571
3167.2077	9132.89286
3169.5353	9142.17857
3171.86151	9133.75
3174.18631	9149.32143
3176.5097	9157.89286
3178.83169	9123.32143
3181.15228	9117.03571
3183.47147	9092.17857
3185.78926	9063.46429
3188.10565	9057.89286
3190.42065	9080.89286
3192.73424	9071.60714
3195.04645	9061.89286
3197.35725	9061.46429
3199.66667	9062.89286
3201.97469	9036.46429
3204.28132	9034.46429
3206.58656	9069.60714
3208.8904	9085.89286
3211.19287	9054.89286
3213.49394	9106.17857
3215.79363	9120.32143
3218.09193	9084.75
3220.38884	9089.17857
3222.68438	9108.32143
3224.97853	9102.17857
3227.2713	9060.46429
3229.56269	9050.75
3231.8527	9054.46429
3234.14133	9050.46429
3236.42858	9014.60714
3238.71446	8996.89286
3240.99896	8958.46429
3243.28209	8958.89286
3245.56384	8946.17857
3247.84423	8949.32143
3250.12324	8940.32143
3252.40088	8924.17857
3254.67715	8924.32143
3256.95205	8924.75
3259.22558	8903.03571
3261.49775	8906.17857
3263.76855	8898.89286
3266.03799	8888.03571
3268.30606	8865.03571
3270.57277	8887.60714
3272.83812	8819.17857
3275.10211	8824.17857
3277.36474	8774.89286
3279.62601	8815.75
3281.88593	8749.17857
3284.14448	8784.17857
3286.40168	8747.32143
3288.65753	8768.32143
3290.91202	8748.03571
3293.16516	8725.32143
3295.41695	8696.03571
3297.66738	8642.60714
3299.91647	8600.17857
3302.16421	8565.46429
3304.4106	8509.03571
3306.65564	8496.60714
3308.89933	8436.89286
3311.14169	8365.32143
3313.38269	8285.89286
3315.62236	8249.89286
3317.86068	8161.17857
3320.09766	8143.75
3322.3333	8072.03571
3324.5676	8049.75
3326.80056	7920.89286
3329.03219	7868.46429
3331.26248	1.32143
3333.49143	-0.96429
3335.71905	-0.82143
