Data from AgNPs_FTO_APTES_UA_20uM_CRN_5uM_R6G_10uM_NaF_0.1M_Addition_RamanShift__21__13-56-22-161.txt Node

Date: Thu Feb 17 13:56:22 GMT 2022
User: TCL
Spectrometer: QEP01345
Trigger mode: 4
Integration Time (sec): 7.000000E0
Scans to average: 10
Electric dark correction enabled: true
Nonlinearity correction enabled: false
Boxcar width: 0
XAxis mode: Raman Shifts
Number of Pixels in Spectrum: 1044
>>>>>Begin Spectral Data<<<<<
46.04893	-0.6625
50.45542	-1.9625
54.85868	-3.4625
59.25871	-2.7625
63.6555	126.0375
68.04907	128.3375
72.43941	137.6375
76.82654	139.3375
81.21044	143.5375
85.59113	146.6375
89.96862	155.3375
94.34289	158.4375
98.71396	162.1375
103.08183	165.3375
107.4465	171.7375
111.80798	172.5375
116.16626	181.8375
120.52136	191.6375
124.87327	201.2375
129.222	213.2375
133.56755	227.2375
137.90993	245.8375
142.24913	270.6375
146.58517	312.4375
150.91804	367.6375
155.24774	436.8375
159.57429	552.4375
163.89768	723.2375
168.21792	957.4375
172.53501	1323.3375
176.84895	1862.8375
181.15975	2625.3375
185.46741	3707.6375
189.77193	5110.1375
194.07331	6888.7375
198.37157	8903.1375
202.6667	11015.6375
206.9587	13119.2375
211.24758	15202.7375
215.53334	17233.9375
219.81599	19445.3375
224.09553	21796.2375
228.37195	24499.1375
232.64527	27435.3375
236.91549	30618.7375
241.18261	33764.8375
245.44663	36822.9375
249.70755	39534.4375
253.96539	41997.6375
258.22014	44050.0375
262.4718	45745.2375
266.72039	47036.9375
270.96589	47729.4375
275.20832	47890.5375
279.44768	47709.9375
283.68397	47369.9375
287.91719	47014.2375
292.14735	46796.2375
296.37445	46765.5375
300.59849	46813.5375
304.81948	46923.1375
309.03742	46821.2375
313.25231	46344.9375
317.46415	45576.7375
321.67296	44586.1375
325.87872	43861.5375
330.08145	43498.9375
334.28114	43629.2375
338.47781	44063.6375
342.67145	44618.8375
346.86207	45342.9375
351.04966	46203.3375
355.23424	47158.0375
359.4158	48033.1375
363.59435	48578.5375
367.76989	49025.5375
371.94243	49340.1375
376.11196	49605.0375
380.27849	49912.2375
384.44203	50245.3375
388.60257	50570.8375
392.76012	50869.0375
396.91468	51336.6375
401.06626	52036.3375
405.21485	52591.5375
409.36047	52565.4375
413.50311	52069.7375
417.64277	51591.2375
421.77947	51391.7375
425.9132	51626.7375
430.04396	52059.0375
434.17176	52465.0375
438.2966	53052.6375
442.41849	53975.3375
446.53742	55215.8375
450.6534	56627.7375
454.76644	57783.3375
458.87653	58201.1375
462.98368	58024.7375
467.08789	57359.1375
471.18916	56674.1375
475.2875	55975.2375
479.38291	55527.3375
483.4754	55175.3375
487.56496	54676.4375
491.6516	53994.7375
495.73531	53412.5375
499.81612	53072.7375
503.89401	53278.6375
507.96899	53367.7375
512.04106	53275.5375
516.11023	53048.5375
520.1765	52930.7375
524.23987	52762.5375
528.30034	52534.1375
532.35792	52218.1375
536.41261	51828.6375
540.46441	51446.5375
544.51333	51514.0375
548.55936	51970.2375
552.60252	52901.9375
556.64279	53939.0375
560.6802	54567.9375
564.71473	54978.8375
568.7464	55644.5375
572.7752	56533.0375
576.80114	57125.5375
580.82422	57628.1375
584.84444	58097.9375
588.86181	58877.6375
592.87633	59763.3375
596.888	60183.9375
600.89682	60116.0375
604.9028	61685.9375
608.90594	66281.2375
612.90624	70841.8375
616.90371	67291.1375
620.89834	58524.6375
624.89015	54770.1375
628.87913	54317.1375
632.86528	54228.5375
636.84862	53910.3375
640.82913	53217.0375
644.80683	52189.5375
648.78172	51424.7375
652.75379	51344.9375
656.72306	51937.4375
660.68952	52850.7375
664.65319	52700.1375
668.61405	52034.4375
672.57211	51823.2375
676.52738	51909.5375
680.47986	51875.4375
684.42955	51726.2375
688.37646	51782.1375
692.32058	52014.5375
696.26192	52523.3375
700.20048	53017.0375
704.13626	53375.4375
708.06928	53207.2375
711.99952	52853.2375
715.927	52719.1375
719.85171	52843.9375
723.77365	52777.6375
727.69284	52404.7375
731.60928	52093.9375
735.52295	52000.1375
739.43388	52114.3375
743.34206	52341.7375
747.24749	52614.2375
751.15017	52968.1375
755.05012	53637.9375
758.94733	54800.5375
762.8418	57055.2375
766.73354	60551.5375
770.62254	63861.6375
774.50882	64517.6375
778.39237	62049.4375
782.27321	58186.3375
786.15132	55078.9375
790.02671	53265.2375
793.89938	52392.6375
797.76935	52064.1375
801.6366	51949.8375
805.50115	51851.3375
809.36299	51672.6375
813.22213	51466.6375
817.07857	51400.7375
820.93231	51421.6375
824.78336	51289.0375
828.63172	51297.6375
832.47738	51279.7375
836.32036	51368.4375
840.16066	51541.2375
843.99827	51721.7375
847.8332	51689.5375
851.66546	51525.9375
855.49504	51385.6375
859.32195	51401.7375
863.1462	51314.8375
866.96777	51267.3375
870.78668	51214.5375
874.60293	51209.5375
878.41652	51250.2375
882.22745	51350.8375
886.03573	51438.1375
889.84136	51357.8375
893.64433	51176.3375
897.44466	51014.7375
901.24235	50861.6375
905.0374	50843.4375
908.8298	50779.6375
912.61957	50781.2375
916.40671	51133.8375
920.19121	51722.3375
923.97308	52177.1375
927.75233	52250.1375
931.52895	52036.4375
935.30295	51551.2375
939.07433	50882.5375
942.84309	50440.1375
946.60924	50242.4375
950.37278	50225.4375
954.13371	50084.7375
957.89203	49937.2375
961.64774	49806.6375
965.40086	49572.7375
969.15137	49464.3375
972.89929	49298.3375
976.64461	49274.9375
980.38733	49243.1375
984.12747	49450.6375
987.86502	49872.1375
991.59999	50434.0375
995.33237	51295.5375
999.06217	52619.4375
1002.78939	54158.6375
1006.51404	55149.5375
1010.23611	55789.6375
1013.95561	56111.1375
1017.67255	56177.2375
1021.38692	55800.3375
1025.09872	55403.5375
1028.80796	55739.6375
1032.51465	56891.8375
1036.21877	57883.0375
1039.92035	57943.0375
1043.61937	57318.7375
1047.31584	56131.8375
1051.00976	54896.8375
1054.70114	54240.2375
1058.38998	54071.3375
1062.07627	54208.9375
1065.76003	54496.6375
1069.44126	54744.6375
1073.11995	55254.4375
1076.79611	55686.6375
1080.46974	56003.0375
1084.14085	56409.0375
1087.80943	56986.3375
1091.47549	57218.2375
1095.13903	56978.5375
1098.80005	56283.1375
1102.45857	55634.2375
1106.11456	55242.7375
1109.76805	55199.2375
1113.41903	55585.7375
1117.06751	55982.0375
1120.71348	56484.7375
1124.35696	56999.0375
1127.99793	57308.6375
1131.63641	57282.4375
1135.2724	56962.3375
1138.90589	56520.9375
1142.5369	56330.4375
1146.16542	56190.2375
1149.79145	56380.7375
1153.415	56773.0375
1157.03607	57386.7375
1160.65467	58452.5375
1164.27079	60159.3375
1167.88443	62569.4375
1171.49561	65666.2375
1175.10432	69871.5375
1178.71056	74997.7375
1182.31434	79885.2375
1185.91565	82330.1375
1189.51451	82073.8375
1193.11091	79844.7375
1196.70485	76778.4375
1200.29634	73892.2375
1203.88538	71689.1375
1207.47197	70000.9375
1211.05612	68509.2375
1214.63782	67509.6375
1218.21708	67146.0375
1221.79391	67127.0375
1225.36829	67040.8375
1228.94024	66417.6375
1232.50976	65171.9375
1236.07685	64254.6375
1239.6415	63904.1375
1243.20374	63959.4375
1246.76355	64391.9375
1250.32093	65157.3375
1253.8759	66339.7375
1257.42845	67871.7375
1260.97859	69199.1375
1264.52631	70510.2375
1268.07163	71919.4375
1271.61453	73594.8375
1275.15503	75375.9375
1278.69312	77162.1375
1282.22882	78648.9375
1285.76211	80190.3375
1289.29301	81842.6375
1292.82151	83986.6375
1296.34761	86885.6375
1299.87133	90704.6375
1303.39266	95421.0375
1306.9116	100891.3375
1310.42815	106395.2375
1313.94233	109892.2375
1317.45412	110273.9375
1320.96354	108476.7375
1324.47058	106098.1375
1327.97525	103840.1375
1331.47754	102308.4375
1334.97747	101762.6375
1338.47502	102427.1375
1341.97022	103070.5375
1345.46305	102876.0375
1348.95352	101786.8375
1352.44163	100723.2375
1355.92738	101586.1375
1359.41078	104900.3375
1362.89183	107994.0375
1366.37053	105912.8375
1369.84688	97818.3375
1373.32088	88900.7375
1376.79254	82767.7375
1380.26186	80076.9375
1383.72883	79452.6375
1387.19347	79179.2375
1390.65578	78801.6375
1394.11575	78816.7375
1397.57339	79734.5375
1401.0287	81274.7375
1404.48168	82861.0375
1407.93234	83962.9375
1411.38068	84040.3375
1414.82669	82891.5375
1418.27039	80440.6375
1421.71177	77498.2375
1425.15083	74854.8375
1428.58758	73361.2375
1432.02203	73389.6375
1435.45416	74326.1375
1438.88399	75717.2375
1442.31151	77004.4375
1445.73673	78035.3375
1449.15965	78857.0375
1452.58027	79480.4375
1455.9986	79574.2375
1459.41463	79900.9375
1462.82837	80809.8375
1466.23982	82077.4375
1469.64898	83599.8375
1473.05586	84526.7375
1476.46045	84833.1375
1479.86276	84569.8375
1483.26279	84197.6375
1486.66054	83960.9375
1490.05602	84222.3375
1493.44922	84723.8375
1496.84016	84936.8375
1500.22882	85808.9375
1503.61521	87479.9375
1506.99934	90028.5375
1510.38121	92152.6375
1513.76081	92447.7375
1517.13816	90274.5375
1520.51324	87039.1375
1523.88607	84204.6375
1527.25665	82686.7375
1530.62498	82190.2375
1533.99105	82096.0375
1537.35488	81954.1375
1540.71647	81452.3375
1544.07581	80653.8375
1547.4329	79585.5375
1550.78776	78422.6375
1554.14038	77442.5375
1557.49077	76912.4375
1560.83892	76527.8375
1564.18484	76423.7375
1567.52853	76292.3375
1570.86999	76375.0375
1574.20922	76785.9375
1577.54624	77226.2375
1580.88103	76921.8375
1584.2136	77065.1375
1587.54395	78699.9375
1590.87208	82113.6375
1594.19801	87153.5375
1597.52172	92353.4375
1600.84321	94631.7375
1604.16251	91936.0375
1607.47959	86248.5375
1610.79447	79816.5375
1614.10715	73924.6375
1617.41763	69068.3375
1620.7259	65665.2375
1624.03199	63865.5375
1627.33587	63707.3375
1630.63757	65052.4375
1633.93707	68144.9375
1637.23439	72955.1375
1640.52951	79609.6375
1643.82246	86849.2375
1647.11321	92255.5375
1650.40179	92721.5375
1653.68819	87188.2375
1656.97241	77888.7375
1660.25446	68861.9375
1663.53433	62203.6375
1666.81203	57903.2375
1670.08756	55292.7375
1673.36092	53473.8375
1676.63211	52262.3375
1679.90115	51396.0375
1683.16801	50726.3375
1686.43272	50243.0375
1689.69527	49928.7375
1692.95567	49554.1375
1696.2139	49421.0375
1699.46999	49387.8375
1702.72392	49254.0375
1705.97571	49184.5375
1709.22535	49021.7375
1712.47284	49049.0375
1715.71819	48992.2375
1718.96139	48900.7375
1722.20246	48798.1375
1725.44139	48621.3375
1728.67818	48365.1375
1731.91284	48137.2375
1735.14537	47901.9375
1738.37576	47803.9375
1741.60403	47701.3375
1744.83017	47483.9375
1748.05418	47364.2375
1751.27607	47231.4375
1754.49584	47235.3375
1757.71349	47210.5375
1760.92903	47158.7375
1764.14244	47167.3375
1767.35375	47064.9375
1770.56294	47024.6375
1773.77002	47066.8375
1776.97499	46973.2375
1780.17785	46877.9375
1783.37861	46854.5375
1786.57727	46772.2375
1789.77382	46657.4375
1792.96828	46706.4375
1796.16064	46633.7375
1799.3509	46629.6375
1802.53907	46519.1375
1805.72514	46405.1375
1808.90913	46314.0375
1812.09102	46237.8375
1815.27083	46167.2375
1818.44856	46071.2375
1821.6242	46029.3375
1824.79776	45981.5375
1827.96924	45983.8375
1831.13864	45920.6375
1834.30597	45949.7375
1837.47122	45915.5375
1840.6344	45883.3375
1843.7955	45839.6375
1846.95454	45815.9375
1850.11151	45827.8375
1853.26642	45808.5375
1856.41926	45801.9375
1859.57004	45785.6375
1862.71876	45729.6375
1865.86542	45711.8375
1869.01003	45707.6375
1872.15258	45664.7375
1875.29308	45633.4375
1878.43152	45543.2375
1881.56792	45569.8375
1884.70227	45656.3375
1887.83457	45640.1375
1890.96482	45589.1375
1894.09304	45540.7375
1897.21921	45516.3375
1900.34335	45431.5375
1903.46544	45397.4375
1906.58551	45403.0375
1909.70353	45384.8375
1912.81953	45339.7375
1915.93349	45291.8375
1919.04543	45154.3375
1922.15534	45163.2375
1925.26322	45128.9375
1928.36908	45029.8375
1931.47292	44944.3375
1934.57473	44864.9375
1937.67453	44767.5375
1940.77232	44567.1375
1943.86808	44515.9375
1946.96184	44412.9375
1950.05358	44287.5375
1953.14331	44132.5375
1956.23103	44026.4375
1959.31675	43885.9375
1962.40046	43753.1375
1965.48217	43645.1375
1968.56188	43467.9375
1971.63959	43333.7375
1974.7153	43234.4375
1977.78901	43137.4375
1980.86073	43057.7375
1983.93046	42947.1375
1986.99819	42782.2375
1990.06394	42662.8375
1993.1277	42553.9375
1996.18947	42451.5375
1999.24925	42346.4375
2002.30706	42289.3375
2005.36288	42106.6375
2008.41672	41988.6375
2011.46859	41857.5375
2014.51848	41784.1375
2017.56639	41635.6375
2020.61233	41558.0375
2023.6563	41452.6375
2026.6983	41360.9375
2029.73833	41341.1375
2032.7764	41200.5375
2035.8125	41177.8375
2038.84664	41123.1375
2041.87881	41077.9375
2044.90903	41066.5375
2047.93729	40994.6375
2050.96359	40946.7375
2053.98794	40849.3375
2057.01034	40844.9375
2060.03078	40821.0375
2063.04927	40836.5375
2066.06582	40797.5375
2069.08042	40793.0375
2072.09307	40725.9375
2075.10378	40647.8375
2078.11255	40625.5375
2081.11938	40622.8375
2084.12426	40594.0375
2087.12722	40577.0375
2090.12824	40497.5375
2093.12732	40545.2375
2096.12447	40546.4375
2099.11969	40478.7375
2102.11299	40510.1375
2105.10435	40523.2375
2108.09379	40530.2375
2111.08131	40589.7375
2114.0669	40541.4375
2117.05057	40566.1375
2120.03233	40591.9375
2123.01216	40687.6375
2125.99008	40751.7375
2128.96609	40783.7375
2131.94018	40811.6375
2134.91236	40894.3375
2137.88263	40869.2375
2140.851	40877.3375
2143.81746	40932.8375
2146.78201	40934.1375
2149.74466	40936.7375
2152.7054	40966.0375
2155.66425	40984.7375
2158.6212	40938.7375
2161.57625	40926.8375
2164.52941	40939.5375
2167.48067	40929.6375
2170.43004	40895.9375
2173.37752	40870.0375
2176.32311	40973.8375
2179.26681	40957.6375
2182.20863	40931.1375
2185.14856	41019.5375
2188.08661	40975.7375
2191.02278	40977.1375
2193.95707	40931.4375
2196.88948	40903.0375
2199.82001	40904.8375
2202.74867	40871.4375
2205.67545	40832.1375
2208.60037	40801.4375
2211.52341	40843.2375
2214.44458	40786.2375
2217.36388	40775.3375
2220.28132	40708.0375
2223.1969	40628.7375
2226.11061	40522.8375
2229.02246	40380.4375
2231.93245	40309.0375
2234.84058	40245.4375
2237.74686	40200.7375
2240.65128	40163.7375
2243.55385	40102.2375
2246.45456	40141.5375
2249.35343	40081.6375
2252.25044	40072.7375
2255.14561	39976.9375
2258.03893	39931.8375
2260.93041	39830.7375
2263.82004	39740.0375
2266.70783	39649.8375
2269.59378	39545.0375
2272.4779	39521.3375
2275.36017	39448.5375
2278.24061	39355.3375
2281.11922	39256.1375
2283.996	39205.4375
2286.87094	39236.7375
2289.74405	39216.5375
2292.61534	39121.5375
2295.4848	39097.6375
2298.35243	39109.5375
2301.21824	39068.7375
2304.08223	39118.5375
2306.94439	39085.4375
2309.80474	39221.9375
2312.66327	39177.2375
2315.51999	39110.1375
2318.37489	39148.5375
2321.22797	39120.1375
2324.07925	39114.2375
2326.92871	38993.3375
2329.77637	38995.3375
2332.62222	38954.4375
2335.46626	38989.4375
2338.3085	38929.2375
2341.14893	38933.2375
2343.98756	38964.0375
2346.8244	38963.1375
2349.65943	38963.0375
2352.49267	38983.7375
2355.32411	38953.4375
2358.15376	38925.9375
2360.98161	38884.7375
2363.80768	38787.7375
2366.63195	38799.5375
2369.45444	38753.6375
2372.27514	38689.0375
2375.09405	38639.8375
2377.91118	38523.4375
2380.72652	38441.9375
2383.54009	38319.5375
2386.35187	38286.0375
2389.16188	38180.9375
2391.97011	38131.4375
2394.77657	38062.9375
2397.58125	37983.2375
2400.38416	37947.6375
2403.18529	37900.5375
2405.98466	37907.5375
2408.78226	37809.5375
2411.57809	37744.5375
2414.37216	37677.5375
2417.16446	37633.2375
2419.955	37617.4375
2422.74378	37566.1375
2425.5308	37538.4375
2428.31606	37573.3375
2431.09956	37523.2375
2433.88131	37477.4375
2436.6613	37523.4375
2439.43954	37455.6375
2442.21603	37487.4375
2444.99077	37446.0375
2447.76377	37412.1375
2450.53501	37343.5375
2453.30451	37403.5375
2456.07226	37352.5375
2458.83827	37312.3375
2461.60254	37291.0375
2464.36507	37272.9375
2467.12586	37296.5375
2469.88492	37299.0375
2472.64224	37285.7375
2475.39782	37273.9375
2478.15167	37380.4375
2480.90379	37346.1375
2483.65417	37410.5375
2486.40283	37453.4375
2489.14976	37427.6375
2491.89497	37398.5375
2494.63845	37496.2375
2497.3802	37421.2375
2500.12024	37418.6375
2502.85855	37380.2375
2505.59514	37379.1375
2508.33002	37291.5375
2511.06318	37271.2375
2513.79462	37241.4375
2516.52435	37203.5375
2519.25237	37166.0375
2521.97867	37155.2375
2524.70327	37150.3375
2527.42616	37178.8375
2530.14734	37179.2375
2532.86681	36994.4375
2535.58458	36999.6375
2538.30065	37013.6375
2541.01501	37031.3375
2543.72768	36986.6375
2546.43864	37035.4375
2549.14791	36926.5375
2551.85548	36817.9375
2554.56136	36793.5375
2557.26554	36777.7375
2559.96803	36668.4375
2562.66883	36653.0375
2565.36794	36659.0375
2568.06536	36630.0375
2570.7611	36574.9375
2573.45514	36515.1375
2576.14751	36498.6375
2578.83819	36475.9375
2581.52719	36473.9375
2584.21451	36455.9375
2586.90015	36409.0375
2589.58411	36409.0375
2592.2664	36344.7375
2594.94701	36388.1375
2597.62594	36411.4375
2600.30321	36404.1375
2602.9788	36395.8375
2605.65273	36351.7375
2608.32498	36347.5375
2610.99557	36331.7375
2613.66449	36338.8375
2616.33175	36320.2375
2618.99734	36284.9375
2621.66128	36265.2375
2624.32355	36261.5375
2626.98416	36298.2375
2629.64311	36292.0375
2632.30041	36308.0375
2634.95605	36249.2375
2637.61004	36247.3375
2640.26238	36186.8375
2642.91306	36152.3375
2645.56209	36067.7375
2648.20948	36033.1375
2650.85521	36030.2375
2653.4993	36014.6375
2656.14175	36031.1375
2658.78255	36108.3375
2661.42171	36107.4375
2664.05923	36155.1375
2666.6951	36100.4375
2669.32934	36143.1375
2671.96194	36143.5375
2674.59291	36240.8375
2677.22224	36230.3375
2679.84993	36264.6375
2682.476	36173.1375
2685.10043	36144.0375
2687.72324	36031.4375
2690.34441	36071.2375
2692.96396	36079.3375
2695.58188	36079.0375
2698.19818	36005.5375
2700.81285	36008.3375
2703.4259	35966.2375
2706.03733	36030.7375
2708.64714	36019.0375
2711.25533	36013.4375
2713.86191	36069.0375
2716.46687	36165.0375
2719.07021	36127.2375
2721.67194	36146.1375
2724.27206	36126.1375
2726.87057	36138.7375
2729.46747	36154.7375
2732.06276	36100.9375
2734.65644	36164.6375
2737.24852	36225.4375
2739.83899	36204.6375
2742.42786	36224.8375
2745.01513	36177.1375
2747.60079	36124.8375
2750.18486	36082.3375
2752.76733	36104.4375
2755.3482	36052.9375
2757.92747	36055.9375
2760.50515	35969.0375
2763.08123	36043.1375
2765.65573	35995.0375
2768.22863	36038.7375
2770.79994	35973.1375
2773.36967	35972.8375
2775.9378	35946.2375
2778.50435	35978.1375
2781.06932	35962.6375
2783.6327	35915.3375
2786.1945	35871.8375
2788.75471	35865.7375
2791.31335	35795.9375
2793.87041	35758.5375
2796.42589	35722.9375
2798.97979	35660.0375
2801.53212	35544.9375
2804.08288	35538.4375
2806.63206	35445.6375
2809.17967	35443.5375
2811.72571	35317.2375
2814.27018	35181.7375
2816.81308	35117.5375
2819.35442	35100.0375
2821.89419	35082.3375
2824.43239	35078.4375
2826.96904	35063.6375
2829.50412	35100.2375
2832.03763	34972.0375
2834.56959	34915.7375
2837.1	34849.5375
2839.62884	34854.6375
2842.15613	34780.2375
2844.68186	34799.1375
2847.20604	34723.4375
2849.72867	34764.1375
2852.24974	34680.1375
2854.76927	34684.2375
2857.28724	34625.4375
2859.80367	34650.8375
2862.31855	34596.9375
2864.83189	34515.3375
2867.34368	34464.6375
2869.85393	34478.5375
2872.36264	34487.1375
2874.8698	34474.3375
2877.37543	34401.7375
2879.87952	34373.2375
2882.38207	34361.9375
2884.88308	34337.5375
2887.38256	34433.7375
2889.88051	34427.5375
2892.37692	34471.1375
2894.8718	34425.4375
2897.36515	34484.6375
2899.85698	34527.7375
2902.34727	34571.2375
2904.83604	34523.8375
2907.32328	34626.4375
2909.809	34592.0375
2912.29319	34632.4375
2914.77587	34651.3375
2917.25702	34666.5375
2919.73665	34581.8375
2922.21476	34557.2375
2924.69136	34543.4375
2927.16644	34541.2375
2929.64	34442.0375
2932.11205	34413.1375
2934.58258	34352.8375
2937.05161	34450.2375
2939.51912	34413.9375
2941.98513	34397.4375
2944.44962	34331.3375
2946.91261	34329.9375
2949.37409	34391.7375
2951.83407	34287.2375
2954.29254	34252.8375
2956.74951	34279.3375
2959.20498	34316.4375
2961.65895	34202.5375
2964.11142	34238.0375
2966.56239	34245.0375
2969.01186	34175.3375
2971.45984	34048.2375
2973.90632	34023.1375
2976.35131	33990.5375
2978.7948	33939.8375
2981.23681	33880.0375
2983.67732	33822.6375
2986.11635	33726.5375
2988.55388	33686.1375
2990.98993	33607.2375
2993.4245	33579.9375
2995.85758	33527.1375
2998.28917	33396.6375
3000.71928	33344.4375
3003.14791	33261.9375
3005.57506	33251.6375
3008.00073	33149.0375
3010.42493	33151.6375
3012.84764	33007.3375
3015.26888	32994.6375
3017.68865	32961.3375
3020.10694	32896.2375
3022.52376	32832.3375
3024.9391	32785.2375
3027.35298	32776.2375
3029.76539	32769.2375
3032.17632	32729.0375
3034.5858	32677.7375
3036.9938	32671.3375
3039.40034	32643.0375
3041.80542	32634.1375
3044.20903	32529.9375
3046.61118	32524.7375
3049.01187	32399.0375
3051.4111	32354.1375
3053.80888	32291.3375
3056.20519	32273.0375
3058.60005	32146.1375
3060.99345	32076.8375
3063.3854	32036.8375
3065.7759	31874.9375
3068.16494	31812.9375
3070.55254	31734.0375
3072.93868	31577.1375
3075.32338	31526.8375
3077.70662	31456.0375
3080.08842	31357.3375
3082.46878	31305.7375
3084.84769	31274.4375
3087.22515	31268.6375
3089.60118	31278.2375
3091.97576	31245.0375
3094.3489	31192.7375
3096.72061	31227.5375
3099.09087	31238.3375
3101.4597	31175.4375
3103.82709	31148.9375
3106.19305	31132.1375
3108.55757	31146.0375
3110.92066	31075.9375
3113.28232	31045.0375
3115.64255	30949.9375
3118.00134	30829.1375
3120.35871	30723.3375
3122.71466	30669.9375
3125.06917	30634.6375
3127.42226	30598.2375
3129.77393	30577.7375
3132.12417	30524.4375
3134.47299	30481.4375
3136.82039	30437.0375
3139.16636	30445.5375
3141.51092	30397.1375
3143.85406	30395.2375
3146.19579	30407.9375
3148.53609	30389.1375
3150.87499	30390.5375
3153.21246	30429.8375
3155.54853	30436.7375
3157.88318	30429.9375
3160.21642	30418.3375
3162.54826	30423.2375
3164.87868	30351.6375
3167.2077	30278.3375
3169.5353	30243.3375
3171.86151	30311.5375
3174.18631	30291.4375
3176.5097	30265.5375
3178.83169	30199.4375
3181.15228	30146.3375
3183.47147	30076.2375
3185.78926	30099.6375
3188.10565	30104.3375
3190.42065	30019.7375
3192.73424	29997.0375
3195.04645	29936.3375
3197.35725	29954.9375
3199.66667	29932.9375
3201.97469	29929.3375
3204.28132	29855.5375
3206.58656	29909.4375
3208.8904	29892.9375
3211.19287	29910.1375
3213.49394	29874.0375
3215.79363	29922.7375
3218.09193	29938.1375
3220.38884	29903.1375
3222.68438	29974.3375
3224.97853	29883.9375
3227.2713	29857.3375
3229.56269	29814.0375
3231.8527	29842.8375
3234.14133	29829.9375
3236.42858	29697.8375
3238.71446	29629.8375
3240.99896	29588.3375
3243.28209	29646.6375
3245.56384	29563.1375
3247.84423	29493.2375
3250.12324	29464.5375
3252.40088	29461.7375
3254.67715	29464.4375
3256.95205	29420.3375
3259.22558	29399.9375
3261.49775	29328.8375
3263.76855	29361.4375
3266.03799	29249.3375
3268.30606	29204.7375
3270.57277	29169.5375
3272.83812	29129.7375
3275.10211	29076.0375
3277.36474	29047.3375
3279.62601	29017.3375
3281.88593	28921.7375
3284.14448	28973.5375
3286.40168	28998.6375
3288.65753	28957.2375
3290.91202	28944.8375
3293.16516	28852.8375
3295.41695	28812.4375
3297.66738	28612.2375
3299.91647	28542.2375
3302.16421	28339.8375
3304.4106	28215.2375
3306.65564	28039.3375
3308.89933	27837.4375
3311.14169	27693.0375
3313.38269	27472.4375
3315.62236	27384.5375
3317.86068	27043.5375
3320.09766	26837.1375
3322.3333	26706.4375
3324.5676	26626.6375
3326.80056	26172.4375
3329.03219	26036.1375
3331.26248	7.8375
3333.49143	1.3375
3335.71905	-0.4625
