Data from AgNPs_FTO_APTES_UA_20uM_CRN_0uM_R6G_10uM_NaF_0.1M_Addition_RamanShift__33__11-28-11-968.txt Node

Date: Thu Feb 17 11:28:11 GMT 2022
User: TCL
Spectrometer: QEP01345
Trigger mode: 4
Integration Time (sec): 7.000000E0
Scans to average: 10
Electric dark correction enabled: true
Nonlinearity correction enabled: false
Boxcar width: 0
XAxis mode: Raman Shifts
Number of Pixels in Spectrum: 1044
>>>>>Begin Spectral Data<<<<<
46.04893	0.025
50.45542	-1.175
54.85868	-1.275
59.25871	-1.175
63.6555	95.725
68.04907	95.625
72.43941	100.725
76.82654	105.125
81.21044	105.825
85.59113	111.525
89.96862	112.925
94.34289	117.525
98.71396	118.525
103.08183	118.025
107.4465	125.825
111.80798	128.625
116.16626	133.225
120.52136	139.325
124.87327	145.825
129.222	150.825
133.56755	160.625
137.90993	174.925
142.24913	189.925
146.58517	208.625
150.91804	253.225
155.24774	297.925
159.57429	376.825
163.89768	485.425
168.21792	644.525
172.53501	890.625
176.84895	1245.725
181.15975	1762.725
185.46741	2491.625
189.77193	3415.625
194.07331	4572.825
198.37157	5900.225
202.6667	7275.825
206.9587	8658.725
211.24758	10016.325
215.53334	11365.725
219.81599	12835.925
224.09553	14426.925
228.37195	16240.025
232.64527	18214.325
236.91549	20279.325
241.18261	22314.725
245.44663	24205.525
249.70755	25848.725
253.96539	27223.425
258.22014	28405.425
262.4718	29364.725
266.72039	30038.225
270.96589	30329.525
275.20832	30242.925
279.44768	29937.825
283.68397	29506.525
287.91719	29154.025
292.14735	28938.225
296.37445	28858.325
300.59849	28991.025
304.81948	29280.625
309.03742	29557.725
313.25231	29771.525
317.46415	29743.525
321.67296	29554.625
325.87872	29341.725
330.08145	29350.525
334.28114	29326.125
338.47781	29553.125
342.67145	30000.625
346.86207	30571.025
351.04966	31176.525
355.23424	31710.225
359.4158	32120.525
363.59435	32358.325
367.76989	32442.725
371.94243	32515.225
376.11196	32753.125
380.27849	32974.325
384.44203	33248.825
388.60257	33527.125
392.76012	33745.925
396.91468	33995.425
401.06626	34365.125
405.21485	34665.325
409.36047	34641.425
413.50311	34435.425
417.64277	34446.025
421.77947	34613.625
425.9132	34895.025
430.04396	35194.725
434.17176	35535.725
438.2966	35961.825
442.41849	36932.425
446.53742	38531.725
450.6534	40217.525
454.76644	41015.325
458.87653	40759.725
462.98368	39725.125
467.08789	38638.925
471.18916	37539.225
475.2875	36327.925
479.38291	35355.625
483.4754	34803.125
487.56496	34424.325
491.6516	34283.125
495.73531	34218.925
499.81612	34369.525
503.89401	34739.725
507.96899	34874.325
512.04106	34763.525
516.11023	34591.625
520.1765	34492.425
524.23987	34605.425
528.30034	34896.125
532.35792	34905.225
536.41261	34439.025
540.46441	33867.325
544.51333	33517.425
548.55936	33705.925
552.60252	34425.625
556.64279	35586.925
560.6802	36517.125
564.71473	36499.125
568.7464	36407.225
572.7752	36988.725
576.80114	37880.225
580.82422	39167.725
584.84444	41401.025
588.86181	45152.725
592.87633	49595.325
596.888	50980.125
600.89682	47178.825
604.9028	43686.725
608.90594	44659.725
612.90624	47170.125
616.90371	44920.125
620.89834	38901.825
624.89015	36112.225
628.87913	35614.425
632.86528	35544.125
636.84862	35233.525
640.82913	34544.325
644.80683	33760.325
648.78172	33362.025
652.75379	33446.825
656.72306	33961.325
660.68952	34586.425
664.65319	34483.725
668.61405	33970.925
672.57211	33935.225
676.52738	34152.525
680.47986	34136.025
684.42955	33801.125
688.37646	33666.925
692.32058	34008.125
696.26192	34661.725
700.20048	35301.625
704.13626	35480.225
708.06928	35312.125
711.99952	35083.325
715.927	35179.025
719.85171	35521.925
723.77365	35493.225
727.69284	34949.225
731.60928	34533.025
735.52295	34526.525
739.43388	34695.125
743.34206	34839.825
747.24749	34993.125
751.15017	35263.725
755.05012	35713.525
758.94733	36424.925
762.8418	37844.425
766.73354	40086.625
770.62254	42263.625
774.50882	42713.025
778.39237	41368.725
782.27321	39243.725
786.15132	37277.425
790.02671	36021.525
793.89938	35411.825
797.76935	35128.925
801.6366	35018.425
805.50115	34923.925
809.36299	34788.525
813.22213	34557.225
817.07857	34363.625
820.93231	34167.325
824.78336	34030.825
828.63172	34033.125
832.47738	34087.225
836.32036	34156.925
840.16066	34377.725
843.99827	34513.725
847.8332	34474.425
851.66546	34419.625
855.49504	34448.925
859.32195	34401.225
863.1462	34342.025
866.96777	34274.925
870.78668	34185.325
874.60293	34310.425
878.41652	34401.325
882.22745	34594.325
886.03573	34685.725
889.84136	34676.225
893.64433	34435.525
897.44466	34259.225
901.24235	34180.825
905.0374	34096.325
908.8298	33976.625
912.61957	34025.925
916.40671	34214.725
920.19121	34584.125
923.97308	35006.125
927.75233	35337.825
931.52895	35147.425
935.30295	34751.525
939.07433	34264.225
942.84309	33893.325
946.60924	33806.725
950.37278	33800.125
954.13371	33813.725
957.89203	33660.025
961.64774	33502.625
965.40086	33556.825
969.15137	33542.925
972.89929	33502.025
976.64461	33518.425
980.38733	33572.225
984.12747	33692.425
987.86502	33979.025
991.59999	34348.425
995.33237	34879.425
999.06217	35874.825
1002.78939	36930.625
1006.51404	37935.925
1010.23611	38532.325
1013.95561	39102.525
1017.67255	39330.125
1021.38692	38858.425
1025.09872	37943.825
1028.80796	37630.425
1032.51465	38205.625
1036.21877	38934.125
1039.92035	39122.725
1043.61937	38703.625
1047.31584	38000.925
1051.00976	37203.925
1054.70114	36776.025
1058.38998	36631.725
1062.07627	36542.125
1065.76003	36672.625
1069.44126	36976.325
1073.11995	37505.625
1076.79611	38040.225
1080.46974	38467.325
1084.14085	38979.225
1087.80943	39434.325
1091.47549	39549.625
1095.13903	39233.825
1098.80005	38525.025
1102.45857	37907.525
1106.11456	37610.925
1109.76805	37652.025
1113.41903	37847.325
1117.06751	38124.125
1120.71348	38440.025
1124.35696	38744.225
1127.99793	39007.425
1131.63641	39142.325
1135.2724	38930.825
1138.90589	38669.925
1142.5369	38689.425
1146.16542	38966.525
1149.79145	39247.825
1153.415	39444.825
1157.03607	39681.425
1160.65467	40526.225
1164.27079	42127.325
1167.88443	44269.025
1171.49561	46873.925
1175.10432	50328.525
1178.71056	54912.325
1182.31434	59253.225
1185.91565	60860.625
1189.51451	59068.625
1193.11091	56104.325
1196.70485	53460.725
1200.29634	51330.625
1203.88538	49756.125
1207.47197	48694.125
1211.05612	47898.925
1214.63782	47203.325
1218.21708	46925.025
1221.79391	47074.725
1225.36829	47559.525
1228.94024	47599.325
1232.50976	46455.025
1236.07685	44769.725
1239.6415	43660.625
1243.20374	43353.825
1246.76355	43574.225
1250.32093	44159.325
1253.8759	45056.825
1257.42845	46207.425
1260.97859	47512.825
1264.52631	48883.125
1268.07163	50466.425
1271.61453	52013.025
1275.15503	53372.025
1278.69312	54872.925
1282.22882	56452.525
1285.76211	58454.625
1289.29301	60899.425
1292.82151	63694.525
1296.34761	67093.525
1299.87133	71493.925
1303.39266	76675.125
1306.9116	82000.625
1310.42815	87164.825
1313.94233	90322.125
1317.45412	89102.325
1320.96354	84675.425
1324.47058	79829.425
1327.97525	75769.325
1331.47754	73050.025
1334.97747	71308.625
1338.47502	70069.125
1341.97022	68558.225
1345.46305	67188.225
1348.95352	67153.725
1352.44163	69423.225
1355.92738	74333.825
1359.41078	80602.525
1362.89183	84996.025
1366.37053	83935.425
1369.84688	76495.825
1373.32088	66582.125
1376.79254	60116.325
1380.26186	57938.625
1383.72883	57888.625
1387.19347	57517.725
1390.65578	56475.725
1394.11575	56253.225
1397.57339	57064.325
1401.0287	58165.325
1404.48168	58951.725
1407.93234	59085.425
1411.38068	58564.525
1414.82669	57562.125
1418.27039	56175.525
1421.71177	54379.925
1425.15083	52800.125
1428.58758	52298.725
1432.02203	53194.425
1435.45416	54926.125
1438.88399	56298.925
1442.31151	56764.225
1445.73673	56732.325
1449.15965	56358.325
1452.58027	55521.925
1455.9986	54600.825
1459.41463	54352.125
1462.82837	55216.325
1466.23982	56732.425
1469.64898	58287.625
1473.05586	59359.625
1476.46045	60017.425
1479.86276	60079.925
1483.26279	59724.625
1486.66054	59599.025
1490.05602	59956.125
1493.44922	60398.125
1496.84016	60311.425
1500.22882	60352.025
1503.61521	60896.025
1506.99934	61996.925
1510.38121	63036.225
1513.76081	63003.925
1517.13816	61464.225
1520.51324	59277.425
1523.88607	57921.325
1527.25665	57818.625
1530.62498	58430.925
1533.99105	58773.825
1537.35488	58344.025
1540.71647	57296.025
1544.07581	56018.725
1547.4329	54466.825
1550.78776	52958.025
1554.14038	51657.325
1557.49077	50772.625
1560.83892	50315.325
1564.18484	50229.125
1567.52853	50457.625
1570.86999	50891.325
1574.20922	51724.725
1577.54624	52299.825
1580.88103	52278.725
1584.2136	52573.525
1587.54395	54470.025
1590.87208	58268.425
1594.19801	63680.025
1597.52172	69342.825
1600.84321	72409.525
1604.16251	70130.525
1607.47959	63633.325
1610.79447	56075.125
1614.10715	49869.325
1617.41763	45749.125
1620.7259	43486.825
1624.03199	42655.825
1627.33587	42959.725
1630.63757	44436.625
1633.93707	47345.325
1637.23439	52336.125
1640.52951	60310.725
1643.82246	70207.825
1647.11321	77849.625
1650.40179	77940.325
1653.68819	69708.325
1656.97241	58426.125
1660.25446	49198.925
1663.53433	43331.425
1666.81203	40044.225
1670.08756	38176.325
1673.36092	36981.925
1676.63211	36171.425
1679.90115	35627.425
1683.16801	35170.825
1686.43272	34856.925
1689.69527	34620.025
1692.95567	34427.325
1696.2139	34381.125
1699.46999	34339.225
1702.72392	34211.825
1705.97571	34191.825
1709.22535	34049.725
1712.47284	34103.825
1715.71819	34142.125
1718.96139	34095.325
1722.20246	33990.625
1725.44139	33885.025
1728.67818	33709.525
1731.91284	33538.725
1735.14537	33429.625
1738.37576	33239.125
1741.60403	33182.225
1744.83017	33048.725
1748.05418	33022.825
1751.27607	32975.225
1754.49584	32916.025
1757.71349	32906.225
1760.92903	32923.225
1764.14244	32851.225
1767.35375	32857.625
1770.56294	32774.525
1773.77002	32839.425
1776.97499	32845.025
1780.17785	32730.225
1783.37861	32675.125
1786.57727	32666.125
1789.77382	32563.125
1792.96828	32575.325
1796.16064	32526.325
1799.3509	32480.825
1802.53907	32432.625
1805.72514	32360.725
1808.90913	32289.825
1812.09102	32252.625
1815.27083	32207.725
1818.44856	32176.525
1821.6242	32154.625
1824.79776	32097.825
1827.96924	32122.825
1831.13864	32081.125
1834.30597	32073.325
1837.47122	32041.125
1840.6344	31957.725
1843.7955	31978.125
1846.95454	32046.925
1850.11151	32012.625
1853.26642	31954.625
1856.41926	31997.725
1859.57004	31981.225
1862.71876	31967.425
1865.86542	31941.125
1869.01003	31932.025
1872.15258	31916.225
1875.29308	31874.625
1878.43152	31871.325
1881.56792	31873.025
1884.70227	31853.725
1887.83457	31871.225
1890.96482	31855.525
1894.09304	31828.825
1897.21921	31794.725
1900.34335	31700.525
1903.46544	31713.325
1906.58551	31737.625
1909.70353	31764.525
1912.81953	31725.725
1915.93349	31668.425
1919.04543	31579.325
1922.15534	31503.725
1925.26322	31509.425
1928.36908	31434.825
1931.47292	31397.625
1934.57473	31301.425
1937.67453	31249.025
1940.77232	31193.725
1943.86808	31103.525
1946.96184	31032.525
1950.05358	30979.825
1953.14331	30923.925
1956.23103	30872.225
1959.31675	30774.025
1962.40046	30667.125
1965.48217	30528.025
1968.56188	30506.725
1971.63959	30446.325
1974.7153	30399.625
1977.78901	30307.325
1980.86073	30156.325
1983.93046	30124.925
1986.99819	30059.725
1990.06394	29966.525
1993.1277	29943.725
1996.18947	29849.025
1999.24925	29797.925
2002.30706	29724.925
2005.36288	29653.425
2008.41672	29558.325
2011.46859	29483.025
2014.51848	29459.925
2017.56639	29365.425
2020.61233	29252.525
2023.6563	29229.825
2026.6983	29145.825
2029.73833	29110.825
2032.7764	29080.225
2035.8125	29025.525
2038.84664	28986.625
2041.87881	28967.525
2044.90903	28904.825
2047.93729	28897.725
2050.96359	28880.825
2053.98794	28850.125
2057.01034	28864.525
2060.03078	28843.025
2063.04927	28838.025
2066.06582	28877.725
2069.08042	28829.425
2072.09307	28775.525
2075.10378	28719.525
2078.11255	28698.225
2081.11938	28694.425
2084.12426	28665.925
2087.12722	28666.825
2090.12824	28682.525
2093.12732	28707.525
2096.12447	28741.325
2099.11969	28696.325
2102.11299	28697.525
2105.10435	28747.625
2108.09379	28757.225
2111.08131	28821.925
2114.0669	28764.525
2117.05057	28787.625
2120.03233	28768.525
2123.01216	28852.225
2125.99008	28878.825
2128.96609	28926.625
2131.94018	28947.725
2134.91236	29013.125
2137.88263	29051.525
2140.851	29015.425
2143.81746	29046.425
2146.78201	29054.425
2149.74466	29138.625
2152.7054	29105.225
2155.66425	29109.525
2158.6212	29164.425
2161.57625	29125.825
2164.52941	29108.225
2167.48067	29092.025
2170.43004	29083.625
2173.37752	29111.425
2176.32311	29156.825
2179.26681	29140.825
2182.20863	29150.225
2185.14856	29187.725
2188.08661	29202.825
2191.02278	29211.525
2193.95707	29217.325
2196.88948	29189.925
2199.82001	29140.825
2202.74867	29159.425
2205.67545	29126.725
2208.60037	29095.325
2211.52341	29075.625
2214.44458	29029.125
2217.36388	29050.325
2220.28132	29002.825
2223.1969	28928.425
2226.11061	28860.525
2229.02246	28830.025
2231.93245	28772.725
2234.84058	28788.025
2237.74686	28769.625
2240.65128	28805.125
2243.55385	28673.425
2246.45456	28656.025
2249.35343	28578.525
2252.25044	28578.025
2255.14561	28533.925
2258.03893	28504.025
2260.93041	28428.925
2263.82004	28381.725
2266.70783	28310.025
2269.59378	28228.325
2272.4779	28191.825
2275.36017	28160.325
2278.24061	28153.625
2281.11922	28086.625
2283.996	28051.625
2286.87094	28023.225
2289.74405	28001.525
2292.61534	27974.425
2295.4848	28033.925
2298.35243	28020.825
2301.21824	28019.525
2304.08223	28020.925
2306.94439	28053.425
2309.80474	28043.125
2312.66327	28079.125
2315.51999	28056.225
2318.37489	28008.125
2321.22797	27985.425
2324.07925	27995.225
2326.92871	27964.725
2329.77637	27897.225
2332.62222	27907.725
2335.46626	27895.025
2338.3085	27910.725
2341.14893	27894.025
2343.98756	27893.725
2346.8244	27858.125
2349.65943	27856.625
2352.49267	27889.225
2355.32411	27887.725
2358.15376	27862.025
2360.98161	27844.025
2363.80768	27837.625
2366.63195	27786.625
2369.45444	27752.325
2372.27514	27743.725
2375.09405	27716.825
2377.91118	27640.225
2380.72652	27591.825
2383.54009	27527.425
2386.35187	27513.925
2389.16188	27362.425
2391.97011	27384.025
2394.77657	27357.525
2397.58125	27370.325
2400.38416	27287.825
2403.18529	27213.925
2405.98466	27223.225
2408.78226	27184.025
2411.57809	27215.225
2414.37216	27105.425
2417.16446	27094.625
2419.955	27083.325
2422.74378	27025.725
2425.5308	27036.925
2428.31606	27061.525
2431.09956	27059.625
2433.88131	27028.325
2436.6613	27031.025
2439.43954	27034.525
2442.21603	27035.525
2444.99077	26984.825
2447.76377	26976.825
2450.53501	27008.925
2453.30451	27030.725
2456.07226	26994.925
2458.83827	26957.925
2461.60254	26974.125
2464.36507	27000.825
2467.12586	27009.825
2469.88492	26979.625
2472.64224	26996.525
2475.39782	26961.525
2478.15167	27039.425
2480.90379	27021.125
2483.65417	27049.825
2486.40283	27076.525
2489.14976	27091.925
2491.89497	27038.425
2494.63845	27081.825
2497.3802	27040.125
2500.12024	27066.225
2502.85855	27050.025
2505.59514	27002.725
2508.33002	26986.625
2511.06318	26944.525
2513.79462	26891.725
2516.52435	26917.825
2519.25237	26915.625
2521.97867	26901.825
2524.70327	26916.425
2527.42616	26873.325
2530.14734	26843.525
2532.86681	26815.625
2535.58458	26815.125
2538.30065	26796.725
2541.01501	26841.725
2543.72768	26825.425
2546.43864	26803.225
2549.14791	26761.225
2551.85548	26713.925
2554.56136	26680.525
2557.26554	26643.125
2559.96803	26618.425
2562.66883	26595.425
2565.36794	26607.525
2568.06536	26622.825
2570.7611	26604.725
2573.45514	26564.025
2576.14751	26528.225
2578.83819	26500.625
2581.52719	26534.125
2584.21451	26510.125
2586.90015	26507.925
2589.58411	26470.125
2592.2664	26442.625
2594.94701	26450.225
2597.62594	26484.325
2600.30321	26489.525
2602.9788	26479.625
2605.65273	26389.125
2608.32498	26416.625
2610.99557	26399.925
2613.66449	26464.425
2616.33175	26377.625
2618.99734	26425.725
2621.66128	26382.025
2624.32355	26353.925
2626.98416	26339.425
2629.64311	26333.925
2632.30041	26324.425
2634.95605	26270.825
2637.61004	26245.725
2640.26238	26253.125
2642.91306	26230.725
2645.56209	26206.225
2648.20948	26184.625
2650.85521	26189.925
2653.4993	26220.925
2656.14175	26246.425
2658.78255	26232.025
2661.42171	26239.025
2664.05923	26304.925
2666.6951	26331.325
2669.32934	26354.125
2671.96194	26314.025
2674.59291	26343.425
2677.22224	26340.925
2679.84993	26353.425
2682.476	26315.525
2685.10043	26306.725
2687.72324	26270.625
2690.34441	26256.425
2692.96396	26267.925
2695.58188	26319.125
2698.19818	26275.225
2700.81285	26251.425
2703.4259	26246.325
2706.03733	26335.525
2708.64714	26270.525
2711.25533	26298.725
2713.86191	26376.025
2716.46687	26411.425
2719.07021	26456.625
2721.67194	26468.725
2724.27206	26430.225
2726.87057	26459.925
2729.46747	26490.225
2732.06276	26466.625
2734.65644	26467.825
2737.24852	26496.225
2739.83899	26455.525
2742.42786	26532.525
2745.01513	26480.725
2747.60079	26444.225
2750.18486	26406.025
2752.76733	26469.325
2755.3482	26402.425
2757.92747	26398.325
2760.50515	26362.825
2763.08123	26367.025
2765.65573	26345.625
2768.22863	26341.125
2770.79994	26315.925
2773.36967	26348.025
2775.9378	26361.825
2778.50435	26359.725
2781.06932	26335.425
2783.6327	26339.225
2786.1945	26346.125
2788.75471	26296.825
2791.31335	26216.625
2793.87041	26202.325
2796.42589	26160.925
2798.97979	26149.725
2801.53212	26050.525
2804.08288	26010.325
2806.63206	26017.725
2809.17967	25973.425
2811.72571	25854.025
2814.27018	25802.325
2816.81308	25748.825
2819.35442	25709.125
2821.89419	25736.025
2824.43239	25738.225
2826.96904	25742.525
2829.50412	25773.925
2832.03763	25695.625
2834.56959	25658.525
2837.1	25661.625
2839.62884	25646.925
2842.15613	25620.725
2844.68186	25663.025
2847.20604	25645.325
2849.72867	25636.425
2852.24974	25569.725
2854.76927	25548.925
2857.28724	25531.825
2859.80367	25506.225
2862.31855	25503.825
2864.83189	25495.925
2867.34368	25468.825
2869.85393	25445.825
2872.36264	25436.725
2874.8698	25380.825
2877.37543	25383.225
2879.87952	25342.125
2882.38207	25435.225
2884.88308	25448.225
2887.38256	25471.625
2889.88051	25462.725
2892.37692	25488.625
2894.8718	25465.725
2897.36515	25531.525
2899.85698	25559.225
2902.34727	25597.425
2904.83604	25587.025
2907.32328	25622.025
2909.809	25646.825
2912.29319	25674.625
2914.77587	25666.925
2917.25702	25646.525
2919.73665	25654.425
2922.21476	25627.725
2924.69136	25593.225
2927.16644	25619.925
2929.64	25587.825
2932.11205	25528.625
2934.58258	25475.225
2937.05161	25551.525
2939.51912	25554.425
2941.98513	25506.425
2944.44962	25452.025
2946.91261	25418.725
2949.37409	25469.525
2951.83407	25464.925
2954.29254	25490.225
2956.74951	25484.125
2959.20498	25494.625
2961.65895	25452.825
2964.11142	25501.525
2966.56239	25457.825
2969.01186	25416.425
2971.45984	25284.925
2973.90632	25276.225
2976.35131	25232.225
2978.7948	25205.525
2981.23681	25119.725
2983.67732	25085.525
2986.11635	25069.025
2988.55388	24993.725
2990.98993	24978.925
2993.4245	24927.225
2995.85758	24871.025
2998.28917	24799.325
3000.71928	24771.825
3003.14791	24719.925
3005.57506	24731.925
3008.00073	24701.025
3010.42493	24667.025
3012.84764	24628.825
3015.26888	24629.225
3017.68865	24551.625
3020.10694	24548.625
3022.52376	24475.625
3024.9391	24426.325
3027.35298	24428.125
3029.76539	24435.025
3032.17632	24388.025
3034.5858	24317.625
3036.9938	24324.325
3039.40034	24301.125
3041.80542	24330.525
3044.20903	24305.625
3046.61118	24327.925
3049.01187	24236.425
3051.4111	24253.425
3053.80888	24167.325
3056.20519	24141.725
3058.60005	24093.125
3060.99345	24051.925
3063.3854	24005.025
3065.7759	23951.425
3068.16494	23877.825
3070.55254	23805.225
3072.93868	23786.425
3075.32338	23706.925
3077.70662	23690.425
3080.08842	23645.925
3082.46878	23565.225
3084.84769	23549.125
3087.22515	23543.725
3089.60118	23522.725
3091.97576	23566.725
3094.3489	23544.525
3096.72061	23562.925
3099.09087	23548.425
3101.4597	23510.325
3103.82709	23516.525
3106.19305	23520.525
3108.55757	23523.125
3110.92066	23449.625
3113.28232	23437.025
3115.64255	23372.125
3118.00134	23322.725
3120.35871	23253.425
3122.71466	23186.525
3125.06917	23196.225
3127.42226	23161.125
3129.77393	23154.625
3132.12417	23128.525
3134.47299	23128.425
3136.82039	23071.925
3139.16636	23077.725
3141.51092	23068.425
3143.85406	23076.225
3146.19579	23088.425
3148.53609	23060.025
3150.87499	23048.125
3153.21246	23059.225
3155.54853	23107.525
3157.88318	23138.725
3160.21642	23126.025
3162.54826	23073.425
3164.87868	23006.825
3167.2077	23026.925
3169.5353	23017.025
3171.86151	23064.825
3174.18631	23098.525
3176.5097	23075.425
3178.83169	23073.025
3181.15228	23024.625
3183.47147	22932.525
3185.78926	22955.125
3188.10565	22898.625
3190.42065	22909.325
3192.73424	22857.225
3195.04645	22852.825
3197.35725	22805.225
3199.66667	22811.525
3201.97469	22832.525
3204.28132	22791.825
3206.58656	22795.425
3208.8904	22804.225
3211.19287	22844.325
3213.49394	22780.125
3215.79363	22839.525
3218.09193	22875.825
3220.38884	22888.925
3222.68438	22893.025
3224.97853	22827.125
3227.2713	22769.825
3229.56269	22753.925
3231.8527	22783.925
3234.14133	22725.925
3236.42858	22711.825
3238.71446	22671.025
3240.99896	22624.825
3243.28209	22658.325
3245.56384	22616.325
3247.84423	22618.525
3250.12324	22548.025
3252.40088	22601.125
3254.67715	22573.125
3256.95205	22491.325
3259.22558	22490.625
3261.49775	22478.325
3263.76855	22427.725
3266.03799	22404.925
3268.30606	22335.625
3270.57277	22350.725
3272.83812	22324.725
3275.10211	22273.525
3277.36474	22238.825
3279.62601	22254.825
3281.88593	22211.425
3284.14448	22277.425
3286.40168	22247.325
3288.65753	22228.525
3290.91202	22192.425
3293.16516	22225.925
3295.41695	22171.325
3297.66738	22090.925
3299.91647	21959.125
3302.16421	21820.225
3304.4106	21679.325
3306.65564	21541.725
3308.89933	21434.525
3311.14169	21315.125
3313.38269	21144.325
3315.62236	21035.725
3317.86068	20834.725
3320.09766	20633.125
3322.3333	20521.425
3324.5676	20444.425
3326.80056	20136.625
3329.03219	19992.725
3331.26248	5.525
3333.49143	0.825
3335.71905	-0.975
