Data from AgNPs_FTO_APTES_UA_20uM_CRN_2uM_R6G_10uM_NaF_0.1M_Addition_RamanShift__3__12-44-02-066.txt Node

Date: Thu Feb 17 12:44:02 GMT 2022
User: TCL
Spectrometer: QEP01345
Trigger mode: 4
Integration Time (sec): 7.000000E0
Scans to average: 10
Electric dark correction enabled: true
Nonlinearity correction enabled: false
Boxcar width: 0
XAxis mode: Raman Shifts
Number of Pixels in Spectrum: 1044
>>>>>Begin Spectral Data<<<<<
46.04893	0.2125
50.45542	-1.8875
54.85868	-3.0875
59.25871	-0.8875
63.6555	115.2125
68.04907	118.5125
72.43941	124.3125
76.82654	125.5125
81.21044	134.0125
85.59113	135.5125
89.96862	140.2125
94.34289	143.4125
98.71396	145.9125
103.08183	153.5125
107.4465	154.8125
111.80798	159.7125
116.16626	163.8125
120.52136	177.4125
124.87327	178.6125
129.222	192.7125
133.56755	208.7125
137.90993	219.3125
142.24913	246.4125
146.58517	281.2125
150.91804	332.0125
155.24774	402.5125
159.57429	497.3125
163.89768	648.8125
168.21792	862.6125
172.53501	1194.1125
176.84895	1677.6125
181.15975	2361.3125
185.46741	3325.7125
189.77193	4596.7125
194.07331	6175.8125
198.37157	7937.6125
202.6667	9824.3125
206.9587	11694.8125
211.24758	13537.5125
215.53334	15381.0125
219.81599	17299.7125
224.09553	19491.9125
228.37195	21879.5125
232.64527	24459.6125
236.91549	27201.7125
241.18261	29981.1125
245.44663	32562.9125
249.70755	34873.9125
253.96539	36905.3125
258.22014	38583.2125
262.4718	39987.7125
266.72039	41011.3125
270.96589	41543.4125
275.20832	41562.7125
279.44768	41270.3125
283.68397	40899.6125
287.91719	40441.3125
292.14735	40219.2125
296.37445	40151.3125
300.59849	40278.1125
304.81948	40504.7125
309.03742	40666.0125
313.25231	40600.7125
317.46415	40177.6125
321.67296	39562.4125
325.87872	39003.0125
330.08145	38776.0125
334.28114	38812.6125
338.47781	39123.5125
342.67145	39586.4125
346.86207	40244.7125
351.04966	40985.1125
355.23424	41759.8125
359.4158	42309.7125
363.59435	42819.4125
367.76989	43168.5125
371.94243	43449.6125
376.11196	43765.9125
380.27849	43965.5125
384.44203	44271.3125
388.60257	44633.1125
392.76012	45063.4125
396.91468	45551.0125
401.06626	46068.3125
405.21485	46445.8125
409.36047	46431.2125
413.50311	46028.7125
417.64277	45837.9125
421.77947	45872.4125
425.9132	46075.5125
430.04396	46360.7125
434.17176	46690.0125
438.2966	47076.0125
442.41849	48032.5125
446.53742	49450.0125
450.6534	51051.1125
454.76644	52180.7125
458.87653	52406.1125
462.98368	51932.0125
467.08789	51092.2125
471.18916	50167.1125
475.2875	49261.8125
479.38291	48672.7125
483.4754	48263.2125
487.56496	47824.3125
491.6516	47379.4125
495.73531	46919.3125
499.81612	46672.5125
503.89401	46856.2125
507.96899	47048.2125
512.04106	46956.5125
516.11023	46769.1125
520.1765	46491.8125
524.23987	46357.1125
528.30034	46295.3125
532.35792	46039.7125
536.41261	45548.8125
540.46441	45119.5125
544.51333	44990.5125
548.55936	45395.4125
552.60252	46215.0125
556.64279	47429.0125
560.6802	48337.4125
564.71473	48831.5125
568.7464	49555.2125
572.7752	50786.4125
576.80114	52052.5125
580.82422	53358.6125
584.84444	54985.1125
588.86181	57509.5125
592.87633	59830.8125
596.888	59796.1125
600.89682	57248.4125
604.9028	56346.8125
608.90594	59004.5125
612.90624	62298.8125
616.90371	58871.9125
620.89834	51270.3125
624.89015	47915.3125
628.87913	47418.9125
632.86528	47544.4125
636.84862	47340.8125
640.82913	46660.2125
644.80683	45689.2125
648.78172	45076.9125
652.75379	45231.3125
656.72306	45824.3125
660.68952	46488.1125
664.65319	46249.3125
668.61405	45550.7125
672.57211	45491.0125
676.52738	45738.5125
680.47986	45687.1125
684.42955	45438.7125
688.37646	45298.0125
692.32058	45578.6125
696.26192	46290.0125
700.20048	47013.7125
704.13626	47446.9125
708.06928	47335.4125
711.99952	47072.4125
715.927	47131.9125
719.85171	47367.2125
723.77365	47301.8125
727.69284	46805.5125
731.60928	46283.4125
735.52295	46055.2125
739.43388	46133.3125
743.34206	46343.0125
747.24749	46548.2125
751.15017	46993.2125
755.05012	47586.1125
758.94733	48737.6125
762.8418	50627.4125
766.73354	53478.9125
770.62254	56205.6125
774.50882	56548.3125
778.39237	54466.1125
782.27321	51454.5125
786.15132	48976.9125
790.02671	47479.9125
793.89938	46800.5125
797.76935	46439.7125
801.6366	46341.8125
805.50115	46212.2125
809.36299	46073.2125
813.22213	45806.0125
817.07857	45673.9125
820.93231	45495.3125
824.78336	45356.4125
828.63172	45221.7125
832.47738	45293.2125
836.32036	45364.6125
840.16066	45525.2125
843.99827	45703.7125
847.8332	45653.3125
851.66546	45628.2125
855.49504	45634.2125
859.32195	45682.5125
863.1462	45571.1125
866.96777	45548.1125
870.78668	45572.4125
874.60293	45482.9125
878.41652	45606.5125
882.22745	45733.1125
886.03573	45877.9125
889.84136	45868.3125
893.64433	45622.6125
897.44466	45459.6125
901.24235	45360.6125
905.0374	45168.9125
908.8298	45168.5125
912.61957	45262.9125
916.40671	45621.9125
920.19121	46162.7125
923.97308	46633.2125
927.75233	46796.4125
931.52895	46443.7125
935.30295	45908.6125
939.07433	45277.7125
942.84309	44830.0125
946.60924	44684.3125
950.37278	44733.4125
954.13371	44728.0125
957.89203	44681.4125
961.64774	44552.2125
965.40086	44561.8125
969.15137	44496.0125
972.89929	44436.6125
976.64461	44385.2125
980.38733	44398.9125
984.12747	44572.0125
987.86502	44908.0125
991.59999	45372.8125
995.33237	46061.8125
999.06217	47031.3125
1002.78939	48207.9125
1006.51404	49295.7125
1010.23611	50190.3125
1013.95561	50674.3125
1017.67255	50738.8125
1021.38692	50212.9125
1025.09872	49412.4125
1028.80796	49040.8125
1032.51465	49523.6125
1036.21877	50168.9125
1039.92035	50365.4125
1043.61937	50117.5125
1047.31584	49476.7125
1051.00976	48744.3125
1054.70114	48399.9125
1058.38998	48370.1125
1062.07627	48640.8125
1065.76003	48968.8125
1069.44126	49498.4125
1073.11995	50214.0125
1076.79611	50861.0125
1080.46974	51341.0125
1084.14085	51739.2125
1087.80943	52340.7125
1091.47549	52669.0125
1095.13903	52596.8125
1098.80005	51982.2125
1102.45857	51106.9125
1106.11456	50541.6125
1109.76805	50340.2125
1113.41903	50434.6125
1117.06751	50698.3125
1120.71348	51000.8125
1124.35696	51383.9125
1127.99793	51696.2125
1131.63641	51904.6125
1135.2724	51800.3125
1138.90589	51597.5125
1142.5369	51719.6125
1146.16542	51946.0125
1149.79145	52323.3125
1153.415	52793.6125
1157.03607	53457.5125
1160.65467	54783.8125
1164.27079	56897.0125
1167.88443	59523.2125
1171.49561	62554.2125
1175.10432	66293.0125
1178.71056	71151.1125
1182.31434	75529.2125
1185.91565	77338.0125
1189.51451	76478.1125
1193.11091	74128.2125
1196.70485	71556.4125
1200.29634	69296.5125
1203.88538	67805.7125
1207.47197	67025.3125
1211.05612	66395.2125
1214.63782	65232.9125
1218.21708	64162.1125
1221.79391	63351.2125
1225.36829	62770.0125
1228.94024	62151.6125
1232.50976	61079.3125
1236.07685	59761.5125
1239.6415	59015.2125
1243.20374	58912.3125
1246.76355	59368.5125
1250.32093	60332.3125
1253.8759	61481.5125
1257.42845	62905.3125
1260.97859	64561.3125
1264.52631	66310.1125
1268.07163	68209.7125
1271.61453	70141.4125
1275.15503	71997.6125
1278.69312	73756.9125
1282.22882	75561.9125
1285.76211	77706.0125
1289.29301	80338.4125
1292.82151	83645.8125
1296.34761	87696.0125
1299.87133	92629.3125
1303.39266	98126.2125
1306.9116	103586.3125
1310.42815	108041.8125
1313.94233	110474.1125
1317.45412	109802.0125
1320.96354	107465.4125
1324.47058	104986.9125
1327.97525	102831.2125
1331.47754	101021.3125
1334.97747	99627.5125
1338.47502	98364.0125
1341.97022	97083.5125
1345.46305	95515.8125
1348.95352	94450.9125
1352.44163	94519.6125
1355.92738	96910.5125
1359.41078	101336.1125
1362.89183	104807.6125
1366.37053	103368.5125
1369.84688	95795.2125
1373.32088	86109.8125
1376.79254	79509.3125
1380.26186	77224.2125
1383.72883	77430.8125
1387.19347	77695.1125
1390.65578	77059.4125
1394.11575	76889.0125
1397.57339	77680.0125
1401.0287	78898.3125
1404.48168	80066.1125
1407.93234	80210.8125
1411.38068	79150.3125
1414.82669	77173.2125
1418.27039	74559.2125
1421.71177	71898.5125
1425.15083	69671.4125
1428.58758	68726.5125
1432.02203	69568.2125
1435.45416	71377.0125
1438.88399	73510.6125
1442.31151	75002.6125
1445.73673	75649.6125
1449.15965	75854.0125
1452.58027	75611.6125
1455.9986	75137.9125
1459.41463	75273.5125
1462.82837	76264.7125
1466.23982	77596.0125
1469.64898	78937.8125
1473.05586	79896.7125
1476.46045	80300.7125
1479.86276	79957.4125
1483.26279	79172.7125
1486.66054	78698.0125
1490.05602	78888.4125
1493.44922	79448.9125
1496.84016	79815.0125
1500.22882	80695.7125
1503.61521	82107.3125
1506.99934	83936.3125
1510.38121	85292.1125
1513.76081	85256.3125
1517.13816	83466.2125
1520.51324	81026.6125
1523.88607	79404.0125
1527.25665	79207.1125
1530.62498	79656.4125
1533.99105	79878.3125
1537.35488	79377.4125
1540.71647	77951.9125
1544.07581	76299.8125
1547.4329	74357.2125
1550.78776	72668.7125
1554.14038	71438.3125
1557.49077	70656.6125
1560.83892	70212.7125
1564.18484	69976.0125
1567.52853	70128.0125
1570.86999	70613.9125
1574.20922	71617.2125
1577.54624	72619.3125
1580.88103	72996.5125
1584.2136	73772.9125
1587.54395	76259.7125
1590.87208	80684.9125
1594.19801	86246.8125
1597.52172	91538.9125
1600.84321	93011.6125
1604.16251	89039.9125
1607.47959	81879.1125
1610.79447	74359.7125
1614.10715	67920.3125
1617.41763	63105.9125
1620.7259	59982.3125
1624.03199	58695.2125
1627.33587	58835.3125
1630.63757	60731.9125
1633.93707	64469.6125
1637.23439	70706.8125
1640.52951	79918.3125
1643.82246	90543.5125
1647.11321	98234.3125
1650.40179	98405.6125
1653.68819	90272.8125
1656.97241	78110.3125
1660.25446	67215.3125
1663.53433	59527.2125
1666.81203	54796.4125
1670.08756	51895.9125
1673.36092	50098.1125
1676.63211	48884.1125
1679.90115	48042.6125
1683.16801	47283.7125
1686.43272	46914.0125
1689.69527	46593.5125
1692.95567	46258.4125
1696.2139	46082.7125
1699.46999	46030.6125
1702.72392	45868.3125
1705.97571	45812.5125
1709.22535	45728.0125
1712.47284	45696.3125
1715.71819	45726.6125
1718.96139	45626.8125
1722.20246	45548.9125
1725.44139	45336.7125
1728.67818	45160.8125
1731.91284	44909.6125
1735.14537	44735.4125
1738.37576	44520.5125
1741.60403	44441.5125
1744.83017	44258.8125
1748.05418	44117.0125
1751.27607	44049.0125
1754.49584	44025.2125
1757.71349	44071.0125
1760.92903	44012.3125
1764.14244	43940.0125
1767.35375	43932.9125
1770.56294	43917.7125
1773.77002	43885.1125
1776.97499	43838.8125
1780.17785	43747.7125
1783.37861	43704.8125
1786.57727	43631.8125
1789.77382	43530.6125
1792.96828	43541.9125
1796.16064	43454.9125
1799.3509	43386.4125
1802.53907	43354.1125
1805.72514	43254.9125
1808.90913	43174.8125
1812.09102	43089.4125
1815.27083	43008.5125
1818.44856	42969.8125
1821.6242	42940.2125
1824.79776	42909.3125
1827.96924	42924.8125
1831.13864	42865.5125
1834.30597	42867.4125
1837.47122	42864.9125
1840.6344	42830.8125
1843.7955	42870.2125
1846.95454	42815.8125
1850.11151	42833.5125
1853.26642	42825.4125
1856.41926	42793.6125
1859.57004	42816.0125
1862.71876	42726.1125
1865.86542	42656.6125
1869.01003	42654.8125
1872.15258	42585.1125
1875.29308	42539.0125
1878.43152	42554.7125
1881.56792	42523.6125
1884.70227	42576.2125
1887.83457	42597.0125
1890.96482	42577.4125
1894.09304	42484.2125
1897.21921	42486.5125
1900.34335	42359.5125
1903.46544	42312.5125
1906.58551	42346.6125
1909.70353	42332.7125
1912.81953	42284.7125
1915.93349	42227.9125
1919.04543	42108.3125
1922.15534	42122.6125
1925.26322	42014.9125
1928.36908	41962.7125
1931.47292	41909.9125
1934.57473	41821.6125
1937.67453	41753.9125
1940.77232	41685.4125
1943.86808	41571.2125
1946.96184	41415.0125
1950.05358	41299.0125
1953.14331	41231.5125
1956.23103	41138.7125
1959.31675	40982.2125
1962.40046	40909.8125
1965.48217	40764.0125
1968.56188	40642.8125
1971.63959	40574.9125
1974.7153	40493.3125
1977.78901	40313.8125
1980.86073	40260.6125
1983.93046	40134.5125
1986.99819	40033.5125
1990.06394	40002.2125
1993.1277	39927.1125
1996.18947	39789.2125
1999.24925	39747.2125
2002.30706	39620.9125
2005.36288	39456.9125
2008.41672	39398.0125
2011.46859	39287.5125
2014.51848	39189.9125
2017.56639	39091.9125
2020.61233	39016.7125
2023.6563	38911.3125
2026.6983	38812.2125
2029.73833	38775.2125
2032.7764	38740.3125
2035.8125	38689.7125
2038.84664	38630.5125
2041.87881	38628.9125
2044.90903	38503.9125
2047.93729	38440.4125
2050.96359	38451.7125
2053.98794	38453.7125
2057.01034	38450.8125
2060.03078	38435.5125
2063.04927	38408.6125
2066.06582	38421.0125
2069.08042	38358.3125
2072.09307	38364.9125
2075.10378	38255.3125
2078.11255	38221.4125
2081.11938	38275.4125
2084.12426	38232.2125
2087.12722	38226.0125
2090.12824	38249.0125
2093.12732	38252.9125
2096.12447	38275.5125
2099.11969	38245.9125
2102.11299	38270.4125
2105.10435	38273.6125
2108.09379	38304.3125
2111.08131	38363.8125
2114.0669	38267.5125
2117.05057	38311.2125
2120.03233	38354.2125
2123.01216	38402.6125
2125.99008	38498.3125
2128.96609	38587.3125
2131.94018	38565.3125
2134.91236	38653.9125
2137.88263	38722.1125
2140.851	38723.8125
2143.81746	38753.3125
2146.78201	38728.6125
2149.74466	38773.4125
2152.7054	38790.5125
2155.66425	38829.0125
2158.6212	38818.0125
2161.57625	38793.3125
2164.52941	38789.5125
2167.48067	38798.6125
2170.43004	38771.7125
2173.37752	38779.5125
2176.32311	38769.2125
2179.26681	38842.6125
2182.20863	38819.5125
2185.14856	38870.6125
2188.08661	38896.4125
2191.02278	38879.6125
2193.95707	38866.1125
2196.88948	38821.6125
2199.82001	38826.4125
2202.74867	38787.0125
2205.67545	38737.9125
2208.60037	38728.7125
2211.52341	38663.1125
2214.44458	38701.9125
2217.36388	38644.5125
2220.28132	38607.1125
2223.1969	38552.4125
2226.11061	38407.7125
2229.02246	38311.4125
2231.93245	38302.2125
2234.84058	38283.8125
2237.74686	38250.6125
2240.65128	38245.1125
2243.55385	38131.2125
2246.45456	38133.4125
2249.35343	38054.8125
2252.25044	38039.3125
2255.14561	37974.2125
2258.03893	37938.3125
2260.93041	37819.5125
2263.82004	37747.0125
2266.70783	37626.1125
2269.59378	37580.9125
2272.4779	37518.9125
2275.36017	37466.3125
2278.24061	37444.2125
2281.11922	37353.7125
2283.996	37303.0125
2286.87094	37298.0125
2289.74405	37286.2125
2292.61534	37259.9125
2295.4848	37264.2125
2298.35243	37251.1125
2301.21824	37259.2125
2304.08223	37260.1125
2306.94439	37215.9125
2309.80474	37314.7125
2312.66327	37277.7125
2315.51999	37222.5125
2318.37489	37193.2125
2321.22797	37197.8125
2324.07925	37171.2125
2326.92871	37088.3125
2329.77637	37021.2125
2332.62222	37001.5125
2335.46626	36980.7125
2338.3085	37042.1125
2341.14893	37030.6125
2343.98756	37016.5125
2346.8244	36990.6125
2349.65943	37035.9125
2352.49267	36991.7125
2355.32411	36970.3125
2358.15376	36920.9125
2360.98161	36963.2125
2363.80768	36883.2125
2366.63195	36874.5125
2369.45444	36795.3125
2372.27514	36788.7125
2375.09405	36794.6125
2377.91118	36701.5125
2380.72652	36631.3125
2383.54009	36574.5125
2386.35187	36515.1125
2389.16188	36387.4125
2391.97011	36379.1125
2394.77657	36316.2125
2397.58125	36298.8125
2400.38416	36247.1125
2403.18529	36193.6125
2405.98466	36182.3125
2408.78226	36116.1125
2411.57809	36080.6125
2414.37216	35981.4125
2417.16446	36008.2125
2419.955	36017.1125
2422.74378	35992.0125
2425.5308	35976.4125
2428.31606	35938.5125
2431.09956	36013.3125
2433.88131	35913.7125
2436.6613	35963.4125
2439.43954	35950.1125
2442.21603	35890.8125
2444.99077	35928.4125
2447.76377	35891.9125
2450.53501	35847.2125
2453.30451	35916.2125
2456.07226	35875.0125
2458.83827	35846.6125
2461.60254	35815.1125
2464.36507	35811.2125
2467.12586	35827.5125
2469.88492	35834.6125
2472.64224	35868.7125
2475.39782	35890.8125
2478.15167	35890.7125
2480.90379	35915.7125
2483.65417	35930.5125
2486.40283	35934.8125
2489.14976	35928.5125
2491.89497	35892.5125
2494.63845	35987.8125
2497.3802	35869.0125
2500.12024	35887.6125
2502.85855	35875.3125
2505.59514	35857.4125
2508.33002	35784.8125
2511.06318	35757.5125
2513.79462	35781.5125
2516.52435	35771.8125
2519.25237	35736.9125
2521.97867	35762.2125
2524.70327	35714.2125
2527.42616	35691.7125
2530.14734	35694.8125
2532.86681	35640.6125
2535.58458	35659.2125
2538.30065	35662.2125
2541.01501	35680.1125
2543.72768	35672.5125
2546.43864	35608.8125
2549.14791	35562.7125
2551.85548	35529.9125
2554.56136	35493.6125
2557.26554	35450.1125
2559.96803	35373.8125
2562.66883	35341.1125
2565.36794	35366.2125
2568.06536	35375.7125
2570.7611	35263.2125
2573.45514	35208.2125
2576.14751	35214.6125
2578.83819	35205.1125
2581.52719	35177.7125
2584.21451	35153.5125
2586.90015	35151.3125
2589.58411	35056.3125
2592.2664	35123.5125
2594.94701	35108.5125
2597.62594	35105.2125
2600.30321	35113.9125
2602.9788	35109.0125
2605.65273	35074.4125
2608.32498	35122.0125
2610.99557	35050.2125
2613.66449	35072.1125
2616.33175	35070.6125
2618.99734	34977.9125
2621.66128	34958.9125
2624.32355	34921.3125
2626.98416	34896.6125
2629.64311	34864.3125
2632.30041	34897.1125
2634.95605	34813.8125
2637.61004	34802.3125
2640.26238	34813.3125
2642.91306	34749.0125
2645.56209	34759.6125
2648.20948	34729.6125
2650.85521	34756.6125
2653.4993	34771.9125
2656.14175	34742.4125
2658.78255	34842.2125
2661.42171	34842.5125
2664.05923	34930.0125
2666.6951	34850.6125
2669.32934	34908.9125
2671.96194	34885.2125
2674.59291	34951.8125
2677.22224	34934.3125
2679.84993	34971.4125
2682.476	34903.9125
2685.10043	34843.0125
2687.72324	34839.0125
2690.34441	34842.4125
2692.96396	34841.4125
2695.58188	34906.7125
2698.19818	34830.9125
2700.81285	34852.1125
2703.4259	34873.5125
2706.03733	34902.5125
2708.64714	34897.5125
2711.25533	34949.5125
2713.86191	34924.1125
2716.46687	34997.6125
2719.07021	35022.6125
2721.67194	35076.2125
2724.27206	35028.4125
2726.87057	35059.6125
2729.46747	35097.4125
2732.06276	35094.3125
2734.65644	35127.7125
2737.24852	35108.2125
2739.83899	35108.2125
2742.42786	35104.1125
2745.01513	35064.5125
2747.60079	35071.8125
2750.18486	35005.6125
2752.76733	35060.6125
2755.3482	35000.8125
2757.92747	34996.5125
2760.50515	34925.6125
2763.08123	34928.9125
2765.65573	34907.5125
2768.22863	34895.4125
2770.79994	34860.1125
2773.36967	34933.1125
2775.9378	34923.2125
2778.50435	34975.4125
2781.06932	34930.8125
2783.6327	34912.6125
2786.1945	34872.2125
2788.75471	34834.4125
2791.31335	34764.3125
2793.87041	34761.5125
2796.42589	34645.0125
2798.97979	34651.1125
2801.53212	34555.2125
2804.08288	34485.4125
2806.63206	34407.8125
2809.17967	34408.5125
2811.72571	34313.1125
2814.27018	34209.8125
2816.81308	34079.2125
2819.35442	34074.0125
2821.89419	33972.7125
2824.43239	34001.1125
2826.96904	33974.5125
2829.50412	33989.7125
2832.03763	33911.4125
2834.56959	33861.8125
2837.1	33845.9125
2839.62884	33792.2125
2842.15613	33821.7125
2844.68186	33836.1125
2847.20604	33802.8125
2849.72867	33754.9125
2852.24974	33751.7125
2854.76927	33658.8125
2857.28724	33627.8125
2859.80367	33626.2125
2862.31855	33601.6125
2864.83189	33618.8125
2867.34368	33523.4125
2869.85393	33520.7125
2872.36264	33500.6125
2874.8698	33451.6125
2877.37543	33427.1125
2879.87952	33394.5125
2882.38207	33415.0125
2884.88308	33444.9125
2887.38256	33449.6125
2889.88051	33445.2125
2892.37692	33491.1125
2894.8718	33452.1125
2897.36515	33568.0125
2899.85698	33528.5125
2902.34727	33601.1125
2904.83604	33625.5125
2907.32328	33675.1125
2909.809	33660.7125
2912.29319	33722.2125
2914.77587	33677.7125
2917.25702	33713.8125
2919.73665	33645.2125
2922.21476	33687.3125
2924.69136	33615.1125
2927.16644	33666.6125
2929.64	33571.5125
2932.11205	33582.2125
2934.58258	33490.9125
2937.05161	33547.1125
2939.51912	33526.2125
2941.98513	33492.2125
2944.44962	33467.0125
2946.91261	33427.2125
2949.37409	33463.0125
2951.83407	33468.5125
2954.29254	33399.7125
2956.74951	33450.3125
2959.20498	33416.3125
2961.65895	33398.4125
2964.11142	33397.8125
2966.56239	33367.8125
2969.01186	33373.5125
2971.45984	33247.6125
2973.90632	33200.1125
2976.35131	33156.4125
2978.7948	33095.5125
2981.23681	33088.7125
2983.67732	33057.5125
2986.11635	32967.7125
2988.55388	32871.5125
2990.98993	32836.0125
2993.4245	32798.9125
2995.85758	32737.9125
2998.28917	32616.6125
3000.71928	32548.4125
3003.14791	32456.6125
3005.57506	32463.2125
3008.00073	32433.7125
3010.42493	32419.6125
3012.84764	32296.9125
3015.26888	32294.6125
3017.68865	32208.7125
3020.10694	32159.0125
3022.52376	32126.7125
3024.9391	32052.8125
3027.35298	32007.2125
3029.76539	32021.7125
3032.17632	32002.0125
3034.5858	31998.9125
3036.9938	31939.4125
3039.40034	31937.8125
3041.80542	31938.5125
3044.20903	31891.4125
3046.61118	31819.9125
3049.01187	31748.1125
3051.4111	31695.5125
3053.80888	31661.1125
3056.20519	31597.1125
3058.60005	31529.0125
3060.99345	31505.9125
3063.3854	31379.0125
3065.7759	31327.8125
3068.16494	31274.8125
3070.55254	31137.7125
3072.93868	31069.7125
3075.32338	31010.7125
3077.70662	30956.5125
3080.08842	30884.4125
3082.46878	30822.1125
3084.84769	30745.1125
3087.22515	30714.4125
3089.60118	30734.2125
3091.97576	30700.8125
3094.3489	30687.4125
3096.72061	30659.8125
3099.09087	30722.8125
3101.4597	30654.6125
3103.82709	30689.4125
3106.19305	30599.8125
3108.55757	30660.3125
3110.92066	30557.0125
3113.28232	30559.7125
3115.64255	30459.7125
3118.00134	30364.4125
3120.35871	30284.3125
3122.71466	30212.4125
3125.06917	30147.1125
3127.42226	30109.9125
3129.77393	30109.3125
3132.12417	30048.0125
3134.47299	30041.6125
3136.82039	29997.4125
3139.16636	30026.3125
3141.51092	29991.7125
3143.85406	30016.3125
3146.19579	29951.3125
3148.53609	29955.0125
3150.87499	29954.2125
3153.21246	29979.6125
3155.54853	29978.5125
3157.88318	29957.5125
3160.21642	29990.7125
3162.54826	29944.3125
3164.87868	29921.9125
3167.2077	29876.1125
3169.5353	29826.8125
3171.86151	29851.2125
3174.18631	29863.2125
3176.5097	29882.0125
3178.83169	29809.5125
3181.15228	29759.7125
3183.47147	29670.0125
3185.78926	29696.6125
3188.10565	29615.9125
3190.42065	29620.4125
3192.73424	29546.9125
3195.04645	29532.3125
3197.35725	29518.9125
3199.66667	29485.4125
3201.97469	29448.1125
3204.28132	29432.9125
3206.58656	29415.3125
3208.8904	29439.4125
3211.19287	29481.2125
3213.49394	29473.5125
3215.79363	29463.8125
3218.09193	29484.5125
3220.38884	29486.1125
3222.68438	29503.8125
3224.97853	29414.0125
3227.2713	29379.5125
3229.56269	29367.3125
3231.8527	29387.4125
3234.14133	29328.0125
3236.42858	29255.5125
3238.71446	29201.4125
3240.99896	29198.9125
3243.28209	29166.2125
3245.56384	29149.1125
3247.84423	29099.2125
3250.12324	29063.1125
3252.40088	29030.7125
3254.67715	29055.4125
3256.95205	29006.1125
3259.22558	28958.7125
3261.49775	28937.2125
3263.76855	28885.1125
3266.03799	28821.6125
3268.30606	28757.8125
3270.57277	28711.6125
3272.83812	28678.5125
3275.10211	28627.1125
3277.36474	28597.4125
3279.62601	28572.7125
3281.88593	28569.5125
3284.14448	28571.6125
3286.40168	28614.8125
3288.65753	28589.1125
3290.91202	28520.8125
3293.16516	28464.9125
3295.41695	28441.0125
3297.66738	28251.7125
3299.91647	28129.6125
3302.16421	27969.9125
3304.4106	27837.4125
3306.65564	27630.2125
3308.89933	27458.7125
3311.14169	27264.0125
3313.38269	27088.0125
3315.62236	26933.5125
3317.86068	26657.5125
3320.09766	26411.1125
3322.3333	26304.0125
3324.5676	26175.7125
3326.80056	25773.3125
3329.03219	25625.9125
3331.26248	6.7125
3333.49143	0.7125
3335.71905	-0.6875
