Data from AgNPs_FTO_APTES_UA_20uM_CRN_0uM_R6G_10uM_NaF_0.1M_Addition_RamanShift__11__11-02-31-934.txt Node

Date: Thu Feb 17 11:02:31 GMT 2022
User: TCL
Spectrometer: QEP01345
Trigger mode: 4
Integration Time (sec): 7.000000E0
Scans to average: 10
Electric dark correction enabled: true
Nonlinearity correction enabled: false
Boxcar width: 0
XAxis mode: Raman Shifts
Number of Pixels in Spectrum: 1044
>>>>>Begin Spectral Data<<<<<
46.04893	0.6375
50.45542	-0.2625
54.85868	-1.3625
59.25871	0.7375
63.6555	38.8375
68.04907	38.2375
72.43941	45.3375
76.82654	44.6375
81.21044	46.3375
85.59113	49.0375
89.96862	50.4375
94.34289	54.8375
98.71396	53.1375
103.08183	57.7375
107.4465	59.3375
111.80798	56.0375
116.16626	62.0375
120.52136	62.8375
124.87327	64.5375
129.222	68.4375
133.56755	72.1375
137.90993	75.1375
142.24913	79.0375
146.58517	92.2375
150.91804	109.2375
155.24774	129.0375
159.57429	159.1375
163.89768	208.3375
168.21792	275.6375
172.53501	379.8375
176.84895	531.4375
181.15975	751.8375
185.46741	1064.5375
189.77193	1463.6375
194.07331	1956.4375
198.37157	2532.8375
202.6667	3124.5375
206.9587	3729.8375
211.24758	4335.2375
215.53334	4940.5375
219.81599	5633.0375
224.09553	6384.8375
228.37195	7220.0375
232.64527	8103.9375
236.91549	8980.9375
241.18261	9805.6375
245.44663	10463.8375
249.70755	10973.7375
253.96539	11432.2375
258.22014	11782.0375
262.4718	12134.3375
266.72039	12410.3375
270.96589	12506.3375
275.20832	12425.5375
279.44768	12212.2375
283.68397	11999.5375
287.91719	11834.7375
292.14735	11836.3375
296.37445	12032.6375
300.59849	12448.4375
304.81948	12952.3375
309.03742	13433.7375
313.25231	13648.0375
317.46415	13331.0375
321.67296	12518.0375
325.87872	11647.4375
330.08145	11134.3375
334.28114	10937.6375
338.47781	11032.5375
342.67145	11320.3375
346.86207	11764.9375
351.04966	12385.5375
355.23424	13079.9375
359.4158	13510.4375
363.59435	13641.4375
367.76989	13562.8375
371.94243	13383.2375
376.11196	13239.6375
380.27849	13100.1375
384.44203	12975.1375
388.60257	12894.2375
392.76012	12945.3375
396.91468	13078.2375
401.06626	13383.9375
405.21485	13570.6375
409.36047	13298.4375
413.50311	12629.1375
417.64277	12029.2375
421.77947	11754.4375
425.9132	11623.4375
430.04396	11611.8375
434.17176	11620.9375
438.2966	11629.4375
442.41849	11841.1375
446.53742	12138.7375
450.6534	12401.4375
454.76644	12546.7375
458.87653	12471.1375
462.98368	12306.8375
467.08789	12156.0375
471.18916	11908.2375
475.2875	11585.8375
479.38291	11358.6375
483.4754	11187.0375
487.56496	11068.1375
491.6516	11023.3375
495.73531	10941.6375
499.81612	10999.9375
503.89401	11132.7375
507.96899	11279.1375
512.04106	11423.5375
516.11023	11536.2375
520.1765	11561.7375
524.23987	11511.0375
528.30034	11390.2375
532.35792	11240.7375
536.41261	11000.5375
540.46441	10725.8375
544.51333	10580.6375
548.55936	10609.8375
552.60252	10853.5375
556.64279	11249.7375
560.6802	11502.8375
564.71473	11703.5375
568.7464	12170.0375
572.7752	12571.1375
576.80114	12446.7375
580.82422	12279.3375
584.84444	12402.7375
588.86181	12609.4375
592.87633	12839.4375
596.888	12892.4375
600.89682	12743.6375
604.9028	13612.6375
608.90594	16979.8375
612.90624	22034.9375
616.90371	21617.8375
620.89834	15049.5375
624.89015	11478.0375
628.87913	10781.1375
632.86528	10974.7375
636.84862	11253.8375
640.82913	11029.5375
644.80683	10460.0375
648.78172	10088.2375
652.75379	10072.4375
656.72306	10447.9375
660.68952	10927.2375
664.65319	10832.1375
668.61405	10191.9375
672.57211	9829.1375
676.52738	9794.7375
680.47986	9822.2375
684.42955	9755.8375
688.37646	9595.2375
692.32058	9588.3375
696.26192	9678.0375
700.20048	9846.5375
704.13626	9982.1375
708.06928	9994.8375
711.99952	9908.1375
715.927	9854.0375
719.85171	9909.1375
723.77365	9938.6375
727.69284	9826.0375
731.60928	9687.2375
735.52295	9627.0375
739.43388	9635.5375
743.34206	9696.9375
747.24749	9732.1375
751.15017	9819.9375
755.05012	10019.6375
758.94733	10541.5375
762.8418	11918.2375
766.73354	14234.1375
770.62254	16475.2375
774.50882	17198.2375
778.39237	16142.5375
782.27321	14151.8375
786.15132	12057.3375
790.02671	10668.6375
793.89938	10026.1375
797.76935	9727.2375
801.6366	9578.7375
805.50115	9491.8375
809.36299	9412.6375
813.22213	9286.6375
817.07857	9204.8375
820.93231	9150.3375
824.78336	9144.7375
828.63172	9157.8375
832.47738	9147.4375
836.32036	9114.8375
840.16066	9052.2375
843.99827	9017.9375
847.8332	8996.4375
851.66546	8991.6375
855.49504	9024.8375
859.32195	9000.4375
863.1462	8952.6375
866.96777	8939.1375
870.78668	8919.9375
874.60293	8932.6375
878.41652	8952.5375
882.22745	9001.8375
886.03573	9076.4375
889.84136	9079.5375
893.64433	9047.1375
897.44466	9082.6375
901.24235	9069.9375
905.0374	9024.6375
908.8298	8920.5375
912.61957	8863.8375
916.40671	8871.7375
920.19121	8969.1375
923.97308	9110.9375
927.75233	9281.1375
931.52895	9405.1375
935.30295	9235.6375
939.07433	8886.1375
942.84309	8542.6375
946.60924	8375.5375
950.37278	8273.3375
954.13371	8244.4375
957.89203	8196.9375
961.64774	8154.7375
965.40086	8134.6375
969.15137	8104.1375
972.89929	8051.8375
976.64461	8001.9375
980.38733	7983.1375
984.12747	7954.4375
987.86502	7991.8375
991.59999	8040.1375
995.33237	8143.0375
999.06217	8279.8375
1002.78939	8500.3375
1006.51404	8724.0375
1010.23611	8977.1375
1013.95561	9110.5375
1017.67255	9124.3375
1021.38692	8977.3375
1025.09872	8726.1375
1028.80796	8506.1375
1032.51465	8408.7375
1036.21877	8396.0375
1039.92035	8410.9375
1043.61937	8442.4375
1047.31584	8494.7375
1051.00976	8545.5375
1054.70114	8554.7375
1058.38998	8554.7375
1062.07627	8583.4375
1065.76003	8604.9375
1069.44126	8710.8375
1073.11995	8871.8375
1076.79611	9088.8375
1080.46974	9326.3375
1084.14085	9655.7375
1087.80943	10061.3375
1091.47549	10247.7375
1095.13903	10055.2375
1098.80005	9607.3375
1102.45857	9219.3375
1106.11456	8975.5375
1109.76805	8924.1375
1113.41903	9099.1375
1117.06751	9399.2375
1120.71348	9841.8375
1124.35696	10407.2375
1127.99793	10978.8375
1131.63641	11050.5375
1135.2724	10501.9375
1138.90589	9918.1375
1142.5369	9542.1375
1146.16542	9340.5375
1149.79145	9233.6375
1153.415	9197.3375
1157.03607	9320.8375
1160.65467	9642.0375
1164.27079	10229.9375
1167.88443	11122.8375
1171.49561	12306.0375
1175.10432	14018.7375
1178.71056	16310.4375
1182.31434	18258.2375
1185.91565	18900.7375
1189.51451	18449.5375
1193.11091	17364.3375
1196.70485	15952.8375
1200.29634	14638.9375
1203.88538	13561.3375
1207.47197	12561.3375
1211.05612	11728.2375
1214.63782	11160.0375
1218.21708	10842.6375
1221.79391	10753.4375
1225.36829	10797.3375
1228.94024	10796.2375
1232.50976	10724.4375
1236.07685	10592.3375
1239.6415	10518.5375
1243.20374	10434.4375
1246.76355	10418.1375
1250.32093	10481.0375
1253.8759	10681.9375
1257.42845	11097.5375
1260.97859	11689.8375
1264.52631	12340.2375
1268.07163	12959.2375
1271.61453	13444.4375
1275.15503	13823.0375
1278.69312	14016.3375
1282.22882	14247.5375
1285.76211	14731.6375
1289.29301	15464.3375
1292.82151	16222.2375
1296.34761	17048.2375
1299.87133	18157.7375
1303.39266	19791.0375
1306.9116	22161.4375
1310.42815	24955.5375
1313.94233	26693.0375
1317.45412	26166.7375
1320.96354	24159.5375
1324.47058	22054.5375
1327.97525	20305.2375
1331.47754	19072.5375
1334.97747	18426.9375
1338.47502	18187.3375
1341.97022	18367.8375
1345.46305	19113.0375
1348.95352	20363.2375
1352.44163	21858.9375
1355.92738	23768.1375
1359.41078	26970.1375
1362.89183	30562.3375
1366.37053	30488.1375
1369.84688	25644.3375
1373.32088	20068.5375
1376.79254	16613.7375
1380.26186	14968.4375
1383.72883	14166.2375
1387.19347	13555.2375
1390.65578	12975.1375
1394.11575	12676.9375
1397.57339	12742.8375
1401.0287	12894.7375
1404.48168	13032.1375
1407.93234	12949.1375
1411.38068	12727.4375
1414.82669	12427.2375
1418.27039	12160.6375
1421.71177	11842.1375
1425.15083	11502.1375
1428.58758	11304.9375
1432.02203	11442.3375
1435.45416	11779.3375
1438.88399	12045.3375
1442.31151	12166.4375
1445.73673	12222.0375
1449.15965	12346.6375
1452.58027	12403.9375
1455.9986	12375.9375
1459.41463	12468.8375
1462.82837	12666.8375
1466.23982	12932.4375
1469.64898	13205.7375
1473.05586	13405.6375
1476.46045	13423.8375
1479.86276	13454.2375
1483.26279	13558.3375
1486.66054	13819.8375
1490.05602	14380.7375
1493.44922	15209.9375
1496.84016	16472.0375
1500.22882	18365.5375
1503.61521	21004.8375
1506.99934	24268.0375
1510.38121	27312.7375
1513.76081	28656.1375
1517.13816	27059.7375
1520.51324	23400.2375
1523.88607	19710.8375
1527.25665	17191.4375
1530.62498	15648.3375
1533.99105	14747.3375
1537.35488	14022.4375
1540.71647	13457.7375
1544.07581	13035.0375
1547.4329	12729.3375
1550.78776	12595.3375
1554.14038	12591.5375
1557.49077	12796.2375
1560.83892	13087.1375
1564.18484	13585.8375
1567.52853	14130.5375
1570.86999	14639.9375
1574.20922	14963.0375
1577.54624	14954.6375
1580.88103	14163.4375
1584.2136	13018.5375
1587.54395	12383.0375
1590.87208	12517.6375
1594.19801	13321.5375
1597.52172	14393.6375
1600.84321	14810.7375
1604.16251	14109.0375
1607.47959	13012.8375
1610.79447	11971.9375
1614.10715	10902.7375
1617.41763	9945.0375
1620.7259	9217.3375
1624.03199	8853.5375
1627.33587	8812.8375
1630.63757	9164.1375
1633.93707	9978.1375
1637.23439	11414.8375
1640.52951	13595.5375
1643.82246	16495.4375
1647.11321	19575.4375
1650.40179	21359.7375
1653.68819	20485.2375
1656.97241	17025.2375
1660.25446	13138.2375
1663.53433	10342.4375
1666.81203	8650.4375
1670.08756	7706.1375
1673.36092	7160.4375
1676.63211	6833.1375
1679.90115	6600.7375
1683.16801	6442.0375
1686.43272	6322.8375
1689.69527	6233.3375
1692.95567	6156.2375
1696.2139	6117.0375
1699.46999	6070.5375
1702.72392	6040.2375
1705.97571	6027.6375
1709.22535	5952.5375
1712.47284	5968.2375
1715.71819	5977.7375
1718.96139	5969.3375
1722.20246	5942.7375
1725.44139	5883.6375
1728.67818	5831.3375
1731.91284	5749.5375
1735.14537	5678.6375
1738.37576	5569.4375
1741.60403	5594.5375
1744.83017	5579.8375
1748.05418	5563.1375
1751.27607	5529.6375
1754.49584	5518.6375
1757.71349	5497.2375
1760.92903	5492.9375
1764.14244	5465.6375
1767.35375	5476.6375
1770.56294	5470.0375
1773.77002	5433.5375
1776.97499	5424.4375
1780.17785	5400.6375
1783.37861	5393.0375
1786.57727	5365.8375
1789.77382	5354.5375
1792.96828	5342.5375
1796.16064	5339.2375
1799.3509	5344.3375
1802.53907	5300.4375
1805.72514	5288.3375
1808.90913	5250.8375
1812.09102	5254.6375
1815.27083	5211.9375
1818.44856	5198.2375
1821.6242	5178.2375
1824.79776	5150.2375
1827.96924	5146.2375
1831.13864	5147.6375
1834.30597	5130.8375
1837.47122	5111.5375
1840.6344	5119.5375
1843.7955	5117.7375
1846.95454	5091.9375
1850.11151	5081.8375
1853.26642	5064.7375
1856.41926	5050.0375
1859.57004	5030.6375
1862.71876	5005.9375
1865.86542	4979.0375
1869.01003	4973.0375
1872.15258	4945.2375
1875.29308	4937.3375
1878.43152	4921.4375
1881.56792	4923.9375
1884.70227	4898.3375
1887.83457	4897.0375
1890.96482	4886.1375
1894.09304	4871.2375
1897.21921	4847.9375
1900.34335	4822.8375
1903.46544	4810.1375
1906.58551	4802.6375
1909.70353	4804.2375
1912.81953	4788.5375
1915.93349	4756.9375
1919.04543	4741.7375
1922.15534	4706.4375
1925.26322	4689.6375
1928.36908	4659.1375
1931.47292	4651.9375
1934.57473	4624.5375
1937.67453	4589.3375
1940.77232	4576.8375
1943.86808	4559.0375
1946.96184	4542.2375
1950.05358	4520.7375
1953.14331	4494.6375
1956.23103	4485.2375
1959.31675	4471.3375
1962.40046	4448.2375
1965.48217	4452.7375
1968.56188	4431.1375
1971.63959	4429.3375
1974.7153	4425.9375
1977.78901	4394.0375
1980.86073	4369.7375
1983.93046	4346.6375
1986.99819	4332.3375
1990.06394	4298.7375
1993.1277	4298.6375
1996.18947	4264.2375
1999.24925	4254.0375
2002.30706	4234.9375
2005.36288	4211.9375
2008.41672	4190.0375
2011.46859	4180.3375
2014.51848	4146.0375
2017.56639	4133.2375
2020.61233	4119.7375
2023.6563	4103.6375
2026.6983	4092.5375
2029.73833	4072.2375
2032.7764	4072.3375
2035.8125	4053.0375
2038.84664	4040.3375
2041.87881	4036.0375
2044.90903	4021.0375
2047.93729	4005.6375
2050.96359	3996.7375
2053.98794	3994.1375
2057.01034	3979.7375
2060.03078	3969.5375
2063.04927	3964.9375
2066.06582	3949.1375
2069.08042	3963.4375
2072.09307	3954.3375
2075.10378	3935.8375
2078.11255	3928.0375
2081.11938	3915.2375
2084.12426	3914.1375
2087.12722	3908.3375
2090.12824	3908.5375
2093.12732	3911.4375
2096.12447	3908.6375
2099.11969	3905.7375
2102.11299	3911.5375
2105.10435	3912.1375
2108.09379	3899.7375
2111.08131	3904.1375
2114.0669	3894.6375
2117.05057	3904.8375
2120.03233	3903.3375
2123.01216	3906.0375
2125.99008	3922.7375
2128.96609	3909.0375
2131.94018	3907.3375
2134.91236	3912.2375
2137.88263	3907.6375
2140.851	3899.1375
2143.81746	3879.4375
2146.78201	3886.9375
2149.74466	3884.7375
2152.7054	3875.6375
2155.66425	3870.4375
2158.6212	3866.5375
2161.57625	3844.0375
2164.52941	3846.2375
2167.48067	3820.1375
2170.43004	3834.8375
2173.37752	3819.4375
2176.32311	3834.3375
2179.26681	3819.1375
2182.20863	3832.6375
2185.14856	3809.4375
2188.08661	3820.0375
2191.02278	3812.1375
2193.95707	3795.0375
2196.88948	3784.9375
2199.82001	3783.0375
2202.74867	3769.8375
2205.67545	3769.6375
2208.60037	3762.2375
2211.52341	3744.3375
2214.44458	3756.0375
2217.36388	3731.5375
2220.28132	3733.9375
2223.1969	3704.5375
2226.11061	3679.1375
2229.02246	3681.5375
2231.93245	3683.6375
2234.84058	3675.7375
2237.74686	3651.7375
2240.65128	3660.9375
2243.55385	3665.1375
2246.45456	3643.0375
2249.35343	3636.2375
2252.25044	3625.6375
2255.14561	3649.0375
2258.03893	3634.4375
2260.93041	3630.9375
2263.82004	3618.1375
2266.70783	3625.4375
2269.59378	3608.9375
2272.4779	3604.9375
2275.36017	3596.3375
2278.24061	3579.2375
2281.11922	3577.6375
2283.996	3564.1375
2286.87094	3539.6375
2289.74405	3544.0375
2292.61534	3525.4375
2295.4848	3503.2375
2298.35243	3504.2375
2301.21824	3494.8375
2304.08223	3485.3375
2306.94439	3500.4375
2309.80474	3473.8375
2312.66327	3492.7375
2315.51999	3465.7375
2318.37489	3476.7375
2321.22797	3462.4375
2324.07925	3449.7375
2326.92871	3457.7375
2329.77637	3440.9375
2332.62222	3424.1375
2335.46626	3439.6375
2338.3085	3431.7375
2341.14893	3433.6375
2343.98756	3436.6375
2346.8244	3429.3375
2349.65943	3425.9375
2352.49267	3451.0375
2355.32411	3455.5375
2358.15376	3455.8375
2360.98161	3466.7375
2363.80768	3477.1375
2366.63195	3485.6375
2369.45444	3481.9375
2372.27514	3469.4375
2375.09405	3486.9375
2377.91118	3465.2375
2380.72652	3434.4375
2383.54009	3415.4375
2386.35187	3395.2375
2389.16188	3370.5375
2391.97011	3352.7375
2394.77657	3339.1375
2397.58125	3325.0375
2400.38416	3317.9375
2403.18529	3300.4375
2405.98466	3305.4375
2408.78226	3284.1375
2411.57809	3282.8375
2414.37216	3290.1375
2417.16446	3274.9375
2419.955	3276.1375
2422.74378	3282.6375
2425.5308	3254.5375
2428.31606	3274.2375
2431.09956	3272.4375
2433.88131	3265.9375
2436.6613	3277.5375
2439.43954	3276.2375
2442.21603	3280.4375
2444.99077	3292.1375
2447.76377	3272.5375
2450.53501	3276.4375
2453.30451	3287.0375
2456.07226	3298.2375
2458.83827	3281.8375
2461.60254	3289.5375
2464.36507	3285.8375
2467.12586	3280.8375
2469.88492	3268.9375
2472.64224	3276.0375
2475.39782	3281.4375
2478.15167	3284.0375
2480.90379	3285.1375
2483.65417	3294.5375
2486.40283	3295.4375
2489.14976	3312.8375
2491.89497	3324.2375
2494.63845	3309.8375
2497.3802	3297.3375
2500.12024	3302.3375
2502.85855	3303.9375
2505.59514	3280.3375
2508.33002	3245.5375
2511.06318	3243.8375
2513.79462	3212.4375
2516.52435	3200.9375
2519.25237	3180.2375
2521.97867	3169.4375
2524.70327	3168.3375
2527.42616	3160.4375
2530.14734	3161.6375
2532.86681	3141.7375
2535.58458	3145.6375
2538.30065	3145.7375
2541.01501	3140.9375
2543.72768	3141.2375
2546.43864	3140.6375
2549.14791	3142.1375
2551.85548	3142.1375
2554.56136	3137.7375
2557.26554	3123.0375
2559.96803	3131.0375
2562.66883	3121.0375
2565.36794	3107.4375
2568.06536	3111.6375
2570.7611	3103.0375
2573.45514	3092.6375
2576.14751	3090.2375
2578.83819	3076.4375
2581.52719	3078.2375
2584.21451	3068.8375
2586.90015	3059.0375
2589.58411	3066.9375
2592.2664	3053.7375
2594.94701	3048.7375
2597.62594	3059.9375
2600.30321	3050.4375
2602.9788	3053.0375
2605.65273	3038.3375
2608.32498	3039.2375
2610.99557	3043.0375
2613.66449	3049.0375
2616.33175	3045.7375
2618.99734	3043.9375
2621.66128	3047.3375
2624.32355	3034.5375
2626.98416	3013.5375
2629.64311	3025.3375
2632.30041	3014.6375
2634.95605	2998.9375
2637.61004	3006.6375
2640.26238	2988.5375
2642.91306	2985.2375
2645.56209	2987.2375
2648.20948	2988.0375
2650.85521	2972.5375
2653.4993	2994.5375
2656.14175	2984.3375
2658.78255	2988.3375
2661.42171	3000.4375
2664.05923	3007.5375
2666.6951	3013.9375
2669.32934	3009.1375
2671.96194	3010.3375
2674.59291	3005.9375
2677.22224	3011.8375
2679.84993	3003.2375
2682.476	3003.8375
2685.10043	3001.6375
2687.72324	2995.3375
2690.34441	2987.4375
2692.96396	2973.5375
2695.58188	2991.8375
2698.19818	2976.6375
2700.81285	2984.2375
2703.4259	2975.0375
2706.03733	2977.7375
2708.64714	2963.0375
2711.25533	2984.5375
2713.86191	2977.4375
2716.46687	2989.3375
2719.07021	2992.3375
2721.67194	3009.2375
2724.27206	3000.7375
2726.87057	2985.5375
2729.46747	3006.4375
2732.06276	2992.7375
2734.65644	2976.5375
2737.24852	2980.5375
2739.83899	2974.9375
2742.42786	2964.4375
2745.01513	2970.1375
2747.60079	2948.6375
2750.18486	2956.6375
2752.76733	2946.9375
2755.3482	2935.0375
2757.92747	2937.9375
2760.50515	2943.7375
2763.08123	2933.7375
2765.65573	2922.7375
2768.22863	2919.2375
2770.79994	2916.7375
2773.36967	2923.9375
2775.9378	2915.2375
2778.50435	2917.1375
2781.06932	2913.9375
2783.6327	2921.2375
2786.1945	2908.5375
2788.75471	2906.0375
2791.31335	2919.9375
2793.87041	2907.8375
2796.42589	2896.1375
2798.97979	2905.5375
2801.53212	2899.3375
2804.08288	2888.5375
2806.63206	2903.9375
2809.17967	2887.8375
2811.72571	2893.3375
2814.27018	2895.6375
2816.81308	2893.0375
2819.35442	2895.5375
2821.89419	2888.7375
2824.43239	2894.9375
2826.96904	2904.7375
2829.50412	2898.2375
2832.03763	2895.8375
2834.56959	2901.3375
2837.1	2890.0375
2839.62884	2889.6375
2842.15613	2905.4375
2844.68186	2918.9375
2847.20604	2942.8375
2849.72867	2948.4375
2852.24974	2952.4375
2854.76927	2941.7375
2857.28724	2953.8375
2859.80367	2955.3375
2862.31855	2949.9375
2864.83189	2967.6375
2867.34368	2957.5375
2869.85393	2953.6375
2872.36264	2963.4375
2874.8698	2973.5375
2877.37543	2962.0375
2879.87952	2968.5375
2882.38207	2946.8375
2884.88308	2964.7375
2887.38256	2941.9375
2889.88051	2945.9375
2892.37692	2942.5375
2894.8718	2953.6375
2897.36515	2949.7375
2899.85698	2947.9375
2902.34727	2958.4375
2904.83604	2960.3375
2907.32328	2961.7375
2909.809	2973.5375
2912.29319	2993.6375
2914.77587	2983.2375
2917.25702	3000.7375
2919.73665	2990.1375
2922.21476	2975.7375
2924.69136	2970.5375
2927.16644	2968.7375
2929.64	2944.8375
2932.11205	2942.9375
2934.58258	2933.4375
2937.05161	2928.6375
2939.51912	2917.4375
2941.98513	2909.0375
2944.44962	2898.2375
2946.91261	2877.6375
2949.37409	2875.8375
2951.83407	2862.6375
2954.29254	2852.8375
2956.74951	2856.0375
2959.20498	2856.0375
2961.65895	2839.3375
2964.11142	2855.7375
2966.56239	2828.9375
2969.01186	2824.5375
2971.45984	2795.1375
2973.90632	2790.3375
2976.35131	2780.4375
2978.7948	2771.2375
2981.23681	2766.8375
2983.67732	2766.7375
2986.11635	2756.4375
2988.55388	2739.2375
2990.98993	2751.1375
2993.4245	2737.5375
2995.85758	2723.3375
2998.28917	2715.0375
3000.71928	2714.1375
3003.14791	2702.0375
3005.57506	2708.7375
3008.00073	2702.5375
3010.42493	2711.4375
3012.84764	2703.7375
3015.26888	2708.3375
3017.68865	2696.5375
3020.10694	2681.2375
3022.52376	2689.2375
3024.9391	2668.5375
3027.35298	2663.8375
3029.76539	2657.1375
3032.17632	2663.3375
3034.5858	2648.5375
3036.9938	2654.8375
3039.40034	2644.5375
3041.80542	2626.3375
3044.20903	2632.9375
3046.61118	2631.2375
3049.01187	2624.6375
3051.4111	2631.4375
3053.80888	2613.8375
3056.20519	2607.6375
3058.60005	2606.1375
3060.99345	2610.5375
3063.3854	2598.4375
3065.7759	2598.5375
3068.16494	2584.5375
3070.55254	2581.5375
3072.93868	2565.5375
3075.32338	2570.9375
3077.70662	2564.8375
3080.08842	2552.6375
3082.46878	2544.1375
3084.84769	2547.0375
3087.22515	2543.2375
3089.60118	2537.0375
3091.97576	2543.2375
3094.3489	2551.1375
3096.72061	2554.1375
3099.09087	2553.5375
3101.4597	2561.0375
3103.82709	2549.2375
3106.19305	2558.5375
3108.55757	2553.7375
3110.92066	2545.2375
3113.28232	2554.6375
3115.64255	2542.4375
3118.00134	2543.7375
3120.35871	2542.6375
3122.71466	2536.4375
3125.06917	2531.7375
3127.42226	2534.4375
3129.77393	2537.9375
3132.12417	2533.9375
3134.47299	2538.6375
3136.82039	2533.8375
3139.16636	2547.3375
3141.51092	2542.9375
3143.85406	2557.3375
3146.19579	2558.9375
3148.53609	2551.8375
3150.87499	2569.4375
3153.21246	2563.4375
3155.54853	2579.4375
3157.88318	2578.0375
3160.21642	2590.1375
3162.54826	2594.8375
3164.87868	2584.7375
3167.2077	2593.3375
3169.5353	2592.8375
3171.86151	2603.3375
3174.18631	2609.2375
3176.5097	2611.8375
3178.83169	2603.9375
3181.15228	2607.8375
3183.47147	2592.7375
3185.78926	2594.1375
3188.10565	2584.7375
3190.42065	2586.5375
3192.73424	2592.4375
3195.04645	2593.6375
3197.35725	2589.6375
3199.66667	2589.5375
3201.97469	2592.7375
3204.28132	2607.1375
3206.58656	2608.9375
3208.8904	2604.8375
3211.19287	2606.4375
3213.49394	2611.8375
3215.79363	2619.0375
3218.09193	2628.4375
3220.38884	2626.8375
3222.68438	2635.6375
3224.97853	2643.2375
3227.2713	2627.8375
3229.56269	2625.9375
3231.8527	2617.1375
3234.14133	2623.2375
3236.42858	2616.2375
3238.71446	2616.5375
3240.99896	2609.6375
3243.28209	2616.9375
3245.56384	2614.3375
3247.84423	2603.9375
3250.12324	2612.2375
3252.40088	2607.3375
3254.67715	2599.8375
3256.95205	2582.3375
3259.22558	2589.8375
3261.49775	2588.6375
3263.76855	2579.2375
3266.03799	2576.4375
3268.30606	2580.5375
3270.57277	2579.4375
3272.83812	2570.2375
3275.10211	2582.0375
3277.36474	2566.7375
3279.62601	2580.0375
3281.88593	2578.8375
3284.14448	2581.4375
3286.40168	2583.0375
3288.65753	2570.7375
3290.91202	2569.0375
3293.16516	2570.4375
3295.41695	2571.0375
3297.66738	2567.2375
3299.91647	2551.2375
3302.16421	2542.7375
3304.4106	2518.5375
3306.65564	2503.5375
3308.89933	2481.0375
3311.14169	2473.3375
3313.38269	2443.2375
3315.62236	2430.1375
3317.86068	2417.1375
3320.09766	2398.3375
3322.3333	2371.8375
3324.5676	2371.2375
3326.80056	2327.0375
3329.03219	2316.1375
3331.26248	0.3375
3333.49143	0.9375
3335.71905	-1.4625
