Data from AgNPs_FTO_APTES_UA_20uM_CRN_0uM_R6G_10uM_NaF_0.1M_Addition_RamanShift__60__11-59-42-008.txt Node

Date: Thu Feb 17 11:59:42 GMT 2022
User: TCL
Spectrometer: QEP01345
Trigger mode: 4
Integration Time (sec): 7.000000E0
Scans to average: 10
Electric dark correction enabled: true
Nonlinearity correction enabled: false
Boxcar width: 0
XAxis mode: Raman Shifts
Number of Pixels in Spectrum: 1044
>>>>>Begin Spectral Data<<<<<
46.04893	0.1375
50.45542	-0.4625
54.85868	-2.5625
59.25871	-0.2625
63.6555	61.8375
68.04907	59.0375
72.43941	64.1375
76.82654	69.1375
81.21044	72.2375
85.59113	72.3375
89.96862	75.1375
94.34289	76.7375
98.71396	79.8375
103.08183	83.4375
107.4465	87.2375
111.80798	83.7375
116.16626	88.0375
120.52136	90.1375
124.87327	92.8375
129.222	97.8375
133.56755	103.0375
137.90993	107.4375
142.24913	120.0375
146.58517	135.3375
150.91804	155.6375
155.24774	180.7375
159.57429	231.2375
163.89768	295.7375
168.21792	390.2375
172.53501	533.3375
176.84895	744.5375
181.15975	1040.7375
185.46741	1457.5375
189.77193	2004.4375
194.07331	2709.4375
198.37157	3489.4375
202.6667	4309.8375
206.9587	5148.0375
211.24758	5971.5375
215.53334	6836.9375
219.81599	7811.7375
224.09553	8933.2375
228.37195	10214.8375
232.64527	11579.0375
236.91549	12942.4375
241.18261	14184.0375
245.44663	15220.7375
249.70755	16089.2375
253.96539	16776.6375
258.22014	17336.4375
262.4718	17765.8375
266.72039	18130.5375
270.96589	18261.4375
275.20832	18235.8375
279.44768	18022.1375
283.68397	17724.3375
287.91719	17621.1375
292.14735	17732.9375
296.37445	18125.1375
300.59849	18874.8375
304.81948	19859.8375
309.03742	20582.7375
313.25231	20626.2375
317.46415	19675.8375
321.67296	18065.1375
325.87872	16690.1375
330.08145	16022.1375
334.28114	16021.5375
338.47781	16313.3375
342.67145	16836.6375
346.86207	17645.6375
351.04966	18798.3375
355.23424	20165.4375
359.4158	21164.3375
363.59435	21640.1375
367.76989	21744.2375
371.94243	21612.5375
376.11196	21462.1375
380.27849	21383.2375
384.44203	21050.9375
388.60257	20753.6375
392.76012	20592.5375
396.91468	20786.1375
401.06626	21379.1375
405.21485	21867.9375
409.36047	21549.0375
413.50311	20406.8375
417.64277	19359.2375
421.77947	18791.5375
425.9132	18634.8375
430.04396	18649.9375
434.17176	18796.7375
438.2966	19113.5375
442.41849	19699.9375
446.53742	20470.6375
450.6534	21213.9375
454.76644	21690.3375
458.87653	21717.4375
462.98368	21367.9375
467.08789	20850.7375
471.18916	20175.1375
475.2875	19477.1375
479.38291	19030.0375
483.4754	18654.3375
487.56496	18385.0375
491.6516	18158.5375
495.73531	18035.6375
499.81612	18089.9375
503.89401	18332.8375
507.96899	18620.6375
512.04106	18889.9375
516.11023	19195.1375
520.1765	19460.4375
524.23987	19384.0375
528.30034	19055.7375
532.35792	18665.5375
536.41261	18267.6375
540.46441	17780.7375
544.51333	17536.2375
548.55936	17633.3375
552.60252	18056.3375
556.64279	18641.6375
560.6802	18930.1375
564.71473	19339.4375
568.7464	20362.7375
572.7752	21141.3375
576.80114	20625.8375
580.82422	19893.2375
584.84444	19631.2375
588.86181	19674.9375
592.87633	19873.2375
596.888	20059.5375
600.89682	20588.7375
604.9028	22972.8375
608.90594	29706.4375
612.90624	38624.9375
616.90371	37162.1375
620.89834	25583.5375
624.89015	20137.1375
628.87913	19089.8375
632.86528	19194.1375
636.84862	19350.2375
640.82913	18986.0375
644.80683	17968.0375
648.78172	17395.5375
652.75379	17479.3375
656.72306	18361.7375
660.68952	19468.0375
664.65319	19286.1375
668.61405	18241.9375
672.57211	17690.5375
676.52738	17631.6375
680.47986	17619.2375
684.42955	17498.9375
688.37646	17424.3375
692.32058	17538.9375
696.26192	17726.3375
700.20048	18010.5375
704.13626	18252.1375
708.06928	18211.9375
711.99952	18068.9375
715.927	18026.4375
719.85171	18043.7375
723.77365	18036.2375
727.69284	17885.8375
731.60928	17716.2375
735.52295	17760.6375
739.43388	17880.0375
743.34206	18039.8375
747.24749	18216.6375
751.15017	18449.4375
755.05012	18909.1375
758.94733	19932.9375
762.8418	22225.2375
766.73354	26059.0375
770.62254	29927.3375
774.50882	31880.4375
778.39237	30540.8375
782.27321	26394.9375
786.15132	22251.9375
790.02671	19912.5375
793.89938	18879.0375
797.76935	18427.2375
801.6366	18249.7375
805.50115	18102.5375
809.36299	18042.3375
813.22213	17934.3375
817.07857	17899.4375
820.93231	17926.6375
824.78336	18048.6375
828.63172	18171.3375
832.47738	18211.5375
836.32036	18228.2375
840.16066	18156.4375
843.99827	18098.7375
847.8332	18040.7375
851.66546	17995.7375
855.49504	17963.2375
859.32195	17918.2375
863.1462	17857.2375
866.96777	17774.9375
870.78668	17783.6375
874.60293	17841.1375
878.41652	17926.5375
882.22745	18059.8375
886.03573	18182.2375
889.84136	18121.9375
893.64433	18028.4375
897.44466	17999.1375
901.24235	17985.7375
905.0374	17939.1375
908.8298	17876.8375
912.61957	17853.9375
916.40671	17991.6375
920.19121	18190.4375
923.97308	18475.8375
927.75233	18725.4375
931.52895	18852.9375
935.30295	18627.9375
939.07433	18089.4375
942.84309	17637.3375
946.60924	17432.0375
950.37278	17269.9375
954.13371	17140.5375
957.89203	17064.9375
961.64774	17016.4375
965.40086	16989.0375
969.15137	16936.2375
972.89929	16924.0375
976.64461	16863.0375
980.38733	16877.8375
984.12747	16964.3375
987.86502	17059.6375
991.59999	17236.1375
995.33237	17604.4375
999.06217	18233.1375
1002.78939	18955.1375
1006.51404	19549.4375
1010.23611	20013.5375
1013.95561	20328.2375
1017.67255	20239.9375
1021.38692	19897.0375
1025.09872	19553.8375
1028.80796	19559.3375
1032.51465	20026.8375
1036.21877	20503.7375
1039.92035	20685.6375
1043.61937	20495.6375
1047.31584	20075.4375
1051.00976	19582.5375
1054.70114	19301.2375
1058.38998	19198.7375
1062.07627	19222.2375
1065.76003	19340.4375
1069.44126	19546.5375
1073.11995	19778.5375
1076.79611	20073.0375
1080.46974	20378.3375
1084.14085	20950.2375
1087.80943	21522.9375
1091.47549	21717.2375
1095.13903	21269.4375
1098.80005	20500.7375
1102.45857	19897.3375
1106.11456	19632.1375
1109.76805	19763.0375
1113.41903	20238.3375
1117.06751	20929.9375
1120.71348	21836.4375
1124.35696	22795.3375
1127.99793	23543.1375
1131.63641	23328.1375
1135.2724	22226.6375
1138.90589	21209.4375
1142.5369	20673.2375
1146.16542	20248.1375
1149.79145	20066.7375
1153.415	20103.4375
1157.03607	20342.1375
1160.65467	20746.2375
1164.27079	21494.1375
1167.88443	22706.9375
1171.49561	24749.2375
1175.10432	27993.9375
1178.71056	32266.7375
1182.31434	35338.0375
1185.91565	36180.4375
1189.51451	35269.1375
1193.11091	32990.5375
1196.70485	30357.7375
1200.29634	28313.9375
1203.88538	26815.5375
1207.47197	25161.3375
1211.05612	23894.1375
1214.63782	23323.8375
1218.21708	23279.6375
1221.79391	23408.8375
1225.36829	23451.2375
1228.94024	23255.0375
1232.50976	23013.5375
1236.07685	23016.6375
1239.6415	23154.2375
1243.20374	23345.9375
1246.76355	23500.0375
1250.32093	23863.6375
1253.8759	24554.6375
1257.42845	25499.2375
1260.97859	26344.7375
1264.52631	27119.3375
1268.07163	27797.0375
1271.61453	28535.9375
1275.15503	29175.4375
1278.69312	29634.7375
1282.22882	30043.0375
1285.76211	30789.5375
1289.29301	31756.0375
1292.82151	32826.2375
1296.34761	33990.7375
1299.87133	35772.6375
1303.39266	38706.0375
1306.9116	43103.2375
1310.42815	48072.4375
1313.94233	50742.2375
1317.45412	49550.9375
1320.96354	46180.5375
1324.47058	42467.7375
1327.97525	39410.1375
1331.47754	37779.3375
1334.97747	37437.9375
1338.47502	38070.0375
1341.97022	39350.2375
1345.46305	40623.7375
1348.95352	42278.3375
1352.44163	44455.4375
1355.92738	48123.0375
1359.41078	54325.2375
1362.89183	60134.8375
1366.37053	57973.4375
1369.84688	49254.5375
1373.32088	40784.9375
1376.79254	35356.1375
1380.26186	32578.4375
1383.72883	31143.8375
1387.19347	30166.8375
1390.65578	29237.2375
1394.11575	28631.6375
1397.57339	28547.1375
1401.0287	28902.8375
1404.48168	29603.2375
1407.93234	30442.7375
1411.38068	31261.9375
1414.82669	31426.1375
1418.27039	30775.6375
1421.71177	29680.7375
1425.15083	28753.6375
1428.58758	28346.3375
1432.02203	28512.7375
1435.45416	28827.4375
1438.88399	29010.6375
1442.31151	29013.0375
1445.73673	29272.0375
1449.15965	29436.0375
1452.58027	29343.8375
1455.9986	29004.6375
1459.41463	28881.1375
1462.82837	29181.1375
1466.23982	29792.8375
1469.64898	30498.1375
1473.05586	30972.5375
1476.46045	31419.7375
1479.86276	32042.2375
1483.26279	32893.9375
1486.66054	33793.3375
1490.05602	35005.2375
1493.44922	36657.3375
1496.84016	38677.2375
1500.22882	41766.7375
1503.61521	46020.6375
1506.99934	50858.9375
1510.38121	55250.6375
1513.76081	56785.2375
1517.13816	53735.1375
1520.51324	47394.7375
1523.88607	41327.8375
1527.25665	37372.5375
1530.62498	35037.6375
1533.99105	33718.8375
1537.35488	32848.2375
1540.71647	32436.0375
1544.07581	32242.4375
1547.4329	31955.4375
1550.78776	31651.4375
1554.14038	31366.1375
1557.49077	31363.9375
1560.83892	31697.9375
1564.18484	32353.3375
1567.52853	33068.6375
1570.86999	33561.5375
1574.20922	33896.8375
1577.54624	33630.1375
1580.88103	32125.7375
1584.2136	30329.7375
1587.54395	29737.9375
1590.87208	30910.6375
1594.19801	33471.3375
1597.52172	36683.1375
1600.84321	38383.9375
1604.16251	37246.8375
1607.47959	34330.9375
1610.79447	30946.1375
1614.10715	27882.5375
1617.41763	25671.4375
1620.7259	24351.6375
1624.03199	23838.3375
1627.33587	23922.5375
1630.63757	24619.5375
1633.93707	26036.4375
1637.23439	28070.9375
1640.52951	30957.0375
1643.82246	34684.8375
1647.11321	38788.2375
1650.40179	41357.9375
1653.68819	39802.8375
1656.97241	34438.3375
1660.25446	28649.2375
1663.53433	24590.8375
1666.81203	22229.6375
1670.08756	20868.3375
1673.36092	20047.9375
1676.63211	19523.9375
1679.90115	19150.5375
1683.16801	18846.2375
1686.43272	18699.8375
1689.69527	18581.5375
1692.95567	18452.1375
1696.2139	18421.4375
1699.46999	18443.2375
1702.72392	18385.6375
1705.97571	18381.0375
1709.22535	18304.0375
1712.47284	18353.3375
1715.71819	18382.9375
1718.96139	18385.7375
1722.20246	18347.7375
1725.44139	18250.6375
1728.67818	18139.0375
1731.91284	18000.4375
1735.14537	17903.3375
1738.37576	17751.6375
1741.60403	17783.9375
1744.83017	17714.9375
1748.05418	17637.6375
1751.27607	17629.7375
1754.49584	17606.5375
1757.71349	17661.9375
1760.92903	17611.0375
1764.14244	17557.4375
1767.35375	17569.0375
1770.56294	17545.0375
1773.77002	17498.3375
1776.97499	17465.6375
1780.17785	17453.8375
1783.37861	17440.6375
1786.57727	17352.1375
1789.77382	17377.0375
1792.96828	17357.0375
1796.16064	17365.1375
1799.3509	17367.8375
1802.53907	17329.2375
1805.72514	17269.4375
1808.90913	17227.2375
1812.09102	17206.1375
1815.27083	17180.4375
1818.44856	17142.8375
1821.6242	17101.7375
1824.79776	17085.7375
1827.96924	17076.0375
1831.13864	17065.7375
1834.30597	17077.2375
1837.47122	17017.3375
1840.6344	17039.7375
1843.7955	16977.6375
1846.95454	16998.1375
1850.11151	17021.9375
1853.26642	17027.6375
1856.41926	17023.8375
1859.57004	17050.4375
1862.71876	17052.1375
1865.86542	17041.5375
1869.01003	17053.0375
1872.15258	17042.6375
1875.29308	17063.0375
1878.43152	17079.1375
1881.56792	17061.5375
1884.70227	17085.0375
1887.83457	17070.2375
1890.96482	17068.5375
1894.09304	17028.6375
1897.21921	17058.0375
1900.34335	17041.5375
1903.46544	17014.9375
1906.58551	17069.8375
1909.70353	17103.9375
1912.81953	17083.8375
1915.93349	17072.7375
1919.04543	17060.7375
1922.15534	17052.1375
1925.26322	17031.4375
1928.36908	16980.5375
1931.47292	16976.5375
1934.57473	16906.5375
1937.67453	16829.1375
1940.77232	16829.7375
1943.86808	16764.5375
1946.96184	16690.7375
1950.05358	16633.0375
1953.14331	16581.6375
1956.23103	16514.1375
1959.31675	16492.8375
1962.40046	16441.1375
1965.48217	16383.1375
1968.56188	16364.6375
1971.63959	16294.0375
1974.7153	16315.5375
1977.78901	16224.0375
1980.86073	16172.3375
1983.93046	16120.9375
1986.99819	16068.8375
1990.06394	16012.1375
1993.1277	15984.8375
1996.18947	15900.9375
1999.24925	15911.9375
2002.30706	15820.6375
2005.36288	15786.1375
2008.41672	15785.4375
2011.46859	15729.1375
2014.51848	15670.4375
2017.56639	15640.9375
2020.61233	15596.2375
2023.6563	15541.2375
2026.6983	15486.4375
2029.73833	15477.3375
2032.7764	15449.7375
2035.8125	15403.0375
2038.84664	15399.3375
2041.87881	15373.8375
2044.90903	15363.9375
2047.93729	15307.9375
2050.96359	15314.3375
2053.98794	15291.8375
2057.01034	15298.1375
2060.03078	15294.1375
2063.04927	15260.3375
2066.06582	15298.6375
2069.08042	15244.1375
2072.09307	15215.8375
2075.10378	15173.9375
2078.11255	15177.3375
2081.11938	15181.3375
2084.12426	15146.1375
2087.12722	15137.2375
2090.12824	15142.9375
2093.12732	15131.9375
2096.12447	15113.9375
2099.11969	15097.1375
2102.11299	15126.3375
2105.10435	15137.5375
2108.09379	15146.2375
2111.08131	15138.9375
2114.0669	15162.1375
2117.05057	15143.6375
2120.03233	15159.7375
2123.01216	15166.2375
2125.99008	15178.6375
2128.96609	15230.9375
2131.94018	15210.8375
2134.91236	15220.7375
2137.88263	15253.2375
2140.851	15254.5375
2143.81746	15242.4375
2146.78201	15229.6375
2149.74466	15280.8375
2152.7054	15248.5375
2155.66425	15237.1375
2158.6212	15244.5375
2161.57625	15214.2375
2164.52941	15228.0375
2167.48067	15225.3375
2170.43004	15224.8375
2173.37752	15198.6375
2176.32311	15222.1375
2179.26681	15212.1375
2182.20863	15236.4375
2185.14856	15262.7375
2188.08661	15255.3375
2191.02278	15215.9375
2193.95707	15209.3375
2196.88948	15180.7375
2199.82001	15180.4375
2202.74867	15176.3375
2205.67545	15171.7375
2208.60037	15161.2375
2211.52341	15133.7375
2214.44458	15144.6375
2217.36388	15106.6375
2220.28132	15107.7375
2223.1969	15068.4375
2226.11061	15028.0375
2229.02246	15024.9375
2231.93245	15006.6375
2234.84058	14911.7375
2237.74686	14896.4375
2240.65128	14921.4375
2243.55385	14900.7375
2246.45456	14875.9375
2249.35343	14833.3375
2252.25044	14844.5375
2255.14561	14829.7375
2258.03893	14859.6375
2260.93041	14826.9375
2263.82004	14816.6375
2266.70783	14756.1375
2269.59378	14695.8375
2272.4779	14673.9375
2275.36017	14644.7375
2278.24061	14642.2375
2281.11922	14607.8375
2283.996	14582.4375
2286.87094	14548.4375
2289.74405	14518.5375
2292.61534	14492.0375
2295.4848	14477.3375
2298.35243	14501.1375
2301.21824	14497.3375
2304.08223	14477.5375
2306.94439	14486.3375
2309.80474	14481.8375
2312.66327	14512.2375
2315.51999	14471.1375
2318.37489	14484.7375
2321.22797	14474.3375
2324.07925	14481.3375
2326.92871	14439.1375
2329.77637	14436.5375
2332.62222	14417.9375
2335.46626	14398.9375
2338.3085	14396.0375
2341.14893	14425.1375
2343.98756	14425.9375
2346.8244	14441.7375
2349.65943	14473.1375
2352.49267	14459.1375
2355.32411	14471.0375
2358.15376	14487.7375
2360.98161	14517.3375
2363.80768	14508.9375
2366.63195	14496.6375
2369.45444	14492.8375
2372.27514	14481.2375
2375.09405	14438.8375
2377.91118	14390.3375
2380.72652	14297.5375
2383.54009	14243.4375
2386.35187	14215.1375
2389.16188	14162.6375
2391.97011	14097.5375
2394.77657	14105.4375
2397.58125	14089.1375
2400.38416	14049.8375
2403.18529	14014.9375
2405.98466	13974.3375
2408.78226	13944.4375
2411.57809	13931.4375
2414.37216	13881.6375
2417.16446	13877.0375
2419.955	13864.0375
2422.74378	13863.1375
2425.5308	13862.5375
2428.31606	13839.5375
2431.09956	13859.6375
2433.88131	13834.9375
2436.6613	13882.4375
2439.43954	13863.2375
2442.21603	13845.7375
2444.99077	13833.5375
2447.76377	13799.7375
2450.53501	13825.7375
2453.30451	13796.3375
2456.07226	13816.1375
2458.83827	13779.7375
2461.60254	13776.4375
2464.36507	13814.4375
2467.12586	13794.4375
2469.88492	13757.5375
2472.64224	13798.3375
2475.39782	13790.7375
2478.15167	13829.4375
2480.90379	13831.6375
2483.65417	13877.4375
2486.40283	13906.8375
2489.14976	13931.2375
2491.89497	13906.1375
2494.63845	13946.9375
2497.3802	13931.8375
2500.12024	13911.2375
2502.85855	13898.1375
2505.59514	13886.0375
2508.33002	13802.9375
2511.06318	13792.4375
2513.79462	13742.2375
2516.52435	13707.9375
2519.25237	13662.8375
2521.97867	13625.8375
2524.70327	13642.2375
2527.42616	13605.8375
2530.14734	13577.1375
2532.86681	13575.5375
2535.58458	13576.9375
2538.30065	13585.1375
2541.01501	13571.1375
2543.72768	13590.7375
2546.43864	13566.6375
2549.14791	13567.6375
2551.85548	13538.3375
2554.56136	13548.2375
2557.26554	13499.8375
2559.96803	13474.6375
2562.66883	13462.4375
2565.36794	13457.7375
2568.06536	13440.1375
2570.7611	13430.2375
2573.45514	13401.2375
2576.14751	13382.0375
2578.83819	13374.9375
2581.52719	13397.0375
2584.21451	13337.9375
2586.90015	13346.4375
2589.58411	13318.4375
2592.2664	13342.7375
2594.94701	13342.2375
2597.62594	13348.7375
2600.30321	13339.3375
2602.9788	13322.1375
2605.65273	13315.2375
2608.32498	13348.2375
2610.99557	13287.7375
2613.66449	13334.4375
2616.33175	13324.1375
2618.99734	13319.3375
2621.66128	13322.3375
2624.32355	13317.3375
2626.98416	13297.5375
2629.64311	13284.2375
2632.30041	13282.4375
2634.95605	13256.4375
2637.61004	13223.9375
2640.26238	13233.0375
2642.91306	13220.3375
2645.56209	13158.7375
2648.20948	13145.8375
2650.85521	13140.2375
2653.4993	13152.8375
2656.14175	13149.2375
2658.78255	13166.5375
2661.42171	13154.4375
2664.05923	13203.0375
2666.6951	13202.4375
2669.32934	13253.8375
2671.96194	13248.5375
2674.59291	13284.9375
2677.22224	13261.1375
2679.84993	13301.7375
2682.476	13255.5375
2685.10043	13260.3375
2687.72324	13269.0375
2690.34441	13231.4375
2692.96396	13248.9375
2695.58188	13237.5375
2698.19818	13224.1375
2700.81285	13218.8375
2703.4259	13190.1375
2706.03733	13237.4375
2708.64714	13223.8375
2711.25533	13229.1375
2713.86191	13207.3375
2716.46687	13259.5375
2719.07021	13225.9375
2721.67194	13265.8375
2724.27206	13226.8375
2726.87057	13237.5375
2729.46747	13236.2375
2732.06276	13253.4375
2734.65644	13265.5375
2737.24852	13238.0375
2739.83899	13229.0375
2742.42786	13195.6375
2745.01513	13229.2375
2747.60079	13192.0375
2750.18486	13203.7375
2752.76733	13203.3375
2755.3482	13199.1375
2757.92747	13174.5375
2760.50515	13157.6375
2763.08123	13120.4375
2765.65573	13098.2375
2768.22863	13119.0375
2770.79994	13099.7375
2773.36967	13086.9375
2775.9378	13095.3375
2778.50435	13113.6375
2781.06932	13088.2375
2783.6327	13080.2375
2786.1945	13133.3375
2788.75471	13093.8375
2791.31335	13046.3375
2793.87041	13039.3375
2796.42589	13037.7375
2798.97979	13010.1375
2801.53212	12992.1375
2804.08288	12995.6375
2806.63206	12950.4375
2809.17967	12959.3375
2811.72571	12922.2375
2814.27018	12911.6375
2816.81308	12884.1375
2819.35442	12899.1375
2821.89419	12898.3375
2824.43239	12936.6375
2826.96904	12945.1375
2829.50412	12972.6375
2832.03763	12939.2375
2834.56959	12935.1375
2837.1	12925.1375
2839.62884	12924.0375
2842.15613	12910.2375
2844.68186	12955.5375
2847.20604	12976.3375
2849.72867	12984.7375
2852.24974	12972.5375
2854.76927	12946.3375
2857.28724	12944.3375
2859.80367	12950.1375
2862.31855	12920.5375
2864.83189	12906.6375
2867.34368	12884.5375
2869.85393	12900.9375
2872.36264	12861.2375
2874.8698	12835.7375
2877.37543	12837.4375
2879.87952	12819.7375
2882.38207	12829.9375
2884.88308	12822.9375
2887.38256	12813.8375
2889.88051	12791.5375
2892.37692	12808.7375
2894.8718	12785.5375
2897.36515	12822.5375
2899.85698	12804.3375
2902.34727	12822.3375
2904.83604	12803.0375
2907.32328	12828.6375
2909.809	12855.0375
2912.29319	12839.6375
2914.77587	12864.2375
2917.25702	12809.6375
2919.73665	12807.0375
2922.21476	12789.5375
2924.69136	12776.9375
2927.16644	12736.0375
2929.64	12737.1375
2932.11205	12710.8375
2934.58258	12696.3375
2937.05161	12684.9375
2939.51912	12674.0375
2941.98513	12633.3375
2944.44962	12612.0375
2946.91261	12586.3375
2949.37409	12566.6375
2951.83407	12572.0375
2954.29254	12542.9375
2956.74951	12506.0375
2959.20498	12522.0375
2961.65895	12475.8375
2964.11142	12461.4375
2966.56239	12425.0375
2969.01186	12434.9375
2971.45984	12375.0375
2973.90632	12364.1375
2976.35131	12323.1375
2978.7948	12291.0375
2981.23681	12262.2375
2983.67732	12272.1375
2986.11635	12190.5375
2988.55388	12157.1375
2990.98993	12145.1375
2993.4245	12130.2375
2995.85758	12099.8375
2998.28917	12061.0375
3000.71928	12035.9375
3003.14791	12017.0375
3005.57506	11996.6375
3008.00073	11963.8375
3010.42493	11995.2375
3012.84764	11962.4375
3015.26888	11930.3375
3017.68865	11871.0375
3020.10694	11874.2375
3022.52376	11808.8375
3024.9391	11813.1375
3027.35298	11791.7375
3029.76539	11792.6375
3032.17632	11763.0375
3034.5858	11752.2375
3036.9938	11709.3375
3039.40034	11693.5375
3041.80542	11718.0375
3044.20903	11708.4375
3046.61118	11669.2375
3049.01187	11638.7375
3051.4111	11628.1375
3053.80888	11591.6375
3056.20519	11544.3375
3058.60005	11506.9375
3060.99345	11502.2375
3063.3854	11430.7375
3065.7759	11411.1375
3068.16494	11380.9375
3070.55254	11310.6375
3072.93868	11273.7375
3075.32338	11228.6375
3077.70662	11210.1375
3080.08842	11163.4375
3082.46878	11118.2375
3084.84769	11100.0375
3087.22515	11092.1375
3089.60118	11062.2375
3091.97576	11065.8375
3094.3489	11060.7375
3096.72061	11043.1375
3099.09087	11062.0375
3101.4597	11019.5375
3103.82709	11057.4375
3106.19305	11016.5375
3108.55757	11020.2375
3110.92066	10992.7375
3113.28232	10984.9375
3115.64255	10920.8375
3118.00134	10896.5375
3120.35871	10860.3375
3122.71466	10823.2375
3125.06917	10816.9375
3127.42226	10789.7375
3129.77393	10823.8375
3132.12417	10773.8375
3134.47299	10770.0375
3136.82039	10739.4375
3139.16636	10752.4375
3141.51092	10745.5375
3143.85406	10729.1375
3146.19579	10745.9375
3148.53609	10732.6375
3150.87499	10731.4375
3153.21246	10713.1375
3155.54853	10751.3375
3157.88318	10729.8375
3160.21642	10743.5375
3162.54826	10704.7375
3164.87868	10676.7375
3167.2077	10685.3375
3169.5353	10695.9375
3171.86151	10673.1375
3174.18631	10662.7375
3176.5097	10650.9375
3178.83169	10625.7375
3181.15228	10635.5375
3183.47147	10560.5375
3185.78926	10584.8375
3188.10565	10551.1375
3190.42065	10557.5375
3192.73424	10543.1375
3195.04645	10544.9375
3197.35725	10522.9375
3199.66667	10544.5375
3201.97469	10561.2375
3204.28132	10528.5375
3206.58656	10557.1375
3208.8904	10542.9375
3211.19287	10560.0375
3213.49394	10534.8375
3215.79363	10563.2375
3218.09193	10556.7375
3220.38884	10541.8375
3222.68438	10563.2375
3224.97853	10548.8375
3227.2713	10519.3375
3229.56269	10491.1375
3231.8527	10503.8375
3234.14133	10455.8375
3236.42858	10466.1375
3238.71446	10417.3375
3240.99896	10409.8375
3243.28209	10410.4375
3245.56384	10380.4375
3247.84423	10376.2375
3250.12324	10348.0375
3252.40088	10342.4375
3254.67715	10334.5375
3256.95205	10326.7375
3259.22558	10324.3375
3261.49775	10310.3375
3263.76855	10313.4375
3266.03799	10243.5375
3268.30606	10259.8375
3270.57277	10228.1375
3272.83812	10221.9375
3275.10211	10215.2375
3277.36474	10164.0375
3279.62601	10178.2375
3281.88593	10150.5375
3284.14448	10164.5375
3286.40168	10191.9375
3288.65753	10141.4375
3290.91202	10131.9375
3293.16516	10108.8375
3295.41695	10081.2375
3297.66738	10041.5375
3299.91647	9969.0375
3302.16421	9924.8375
3304.4106	9867.6375
3306.65564	9793.1375
3308.89933	9741.6375
3311.14169	9666.2375
3313.38269	9584.4375
3315.62236	9533.8375
3317.86068	9437.6375
3320.09766	9344.8375
3322.3333	9290.2375
3324.5676	9255.5375
3326.80056	9127.9375
3329.03219	9053.0375
3331.26248	3.7375
3333.49143	0.7375
3335.71905	-0.4625
