Data from AgNPs_FTO_APTES_UA_10uM_CRN_50uM_R6G_10uM_NaF_0.1M_Addition_RamanShift__10__16-47-04-821.txt Node

Date: Thu Feb 17 16:47:04 GMT 2022
User: TCL
Spectrometer: QEP01345
Trigger mode: 4
Integration Time (sec): 1.000000E1
Scans to average: 7
Electric dark correction enabled: true
Nonlinearity correction enabled: false
Boxcar width: 0
XAxis mode: Raman Shifts
Number of Pixels in Spectrum: 1044
>>>>>Begin Spectral Data<<<<<
46.04893	0.17857
50.45542	-0.25
54.85868	-0.39286
59.25871	-1.53571
63.6555	62.03571
68.04907	64.89286
72.43941	71.89286
76.82654	71.46429
81.21044	75.60714
85.59113	77.46429
89.96862	80.89286
94.34289	82.75
98.71396	88.75
103.08183	88.60714
107.4465	94.75
111.80798	92.46429
116.16626	93.75
120.52136	96.75
124.87327	104.03571
129.222	106.32143
133.56755	107.32143
137.90993	119.75
142.24913	120.60714
146.58517	133.60714
150.91804	157.75
155.24774	175.75
159.57429	220.60714
163.89768	280.32143
168.21792	363.03571
172.53501	487.60714
176.84895	683.46429
181.15975	959.03571
185.46741	1358.60714
189.77193	1884.89286
194.07331	2538.60714
198.37157	3270.60714
202.6667	4071.46429
206.9587	4843.03571
211.24758	5603.46429
215.53334	6362.89286
219.81599	7135.46429
224.09553	8011.17857
228.37195	8952.17857
232.64527	9996.17857
236.91549	11114.89286
241.18261	12272.89286
245.44663	13326.17857
249.70755	14390.60714
253.96539	15305.03571
258.22014	16032.32143
262.4718	16629.60714
266.72039	16966.89286
270.96589	17209.32143
275.20832	17155.17857
279.44768	17096.60714
283.68397	16791.60714
287.91719	16536.60714
292.14735	16364.03571
296.37445	16289.60714
300.59849	16268.60714
304.81948	16293.89286
309.03742	16329.60714
313.25231	16267.46429
317.46415	16102.75
321.67296	15867.32143
325.87872	15707.32143
330.08145	15599.75
334.28114	15674.32143
338.47781	15868.75
342.67145	16069.32143
346.86207	16354.89286
351.04966	16628.60714
355.23424	16992.89286
359.4158	17274.75
363.59435	17551.89286
367.76989	17715.32143
371.94243	17849.17857
376.11196	17995.17857
380.27849	18059.17857
384.44203	18179.60714
388.60257	18260.17857
392.76012	18376.75
396.91468	18567.75
401.06626	18755.60714
405.21485	18985.46429
409.36047	18930.60714
413.50311	18759.32143
417.64277	18522.17857
421.77947	18455.60714
425.9132	18430.60714
430.04396	18514.17857
434.17176	18624.46429
438.2966	18693.89286
442.41849	18848.89286
446.53742	19025.17857
450.6534	19224.46429
454.76644	19421.32143
458.87653	19557.46429
462.98368	19610.60714
467.08789	19652.17857
471.18916	19606.32143
475.2875	19452.75
479.38291	19363.32143
483.4754	19297.46429
487.56496	19239.75
491.6516	19254.17857
495.73531	19241.32143
499.81612	19280.60714
503.89401	19407.60714
507.96899	19493.75
512.04106	19533.60714
516.11023	19590.32143
520.1765	19659.46429
524.23987	19645.32143
528.30034	19610.60714
532.35792	19592.60714
536.41261	19502.75
540.46441	19432.60714
544.51333	19351.03571
548.55936	19461.03571
552.60252	19576.03571
556.64279	19732.46429
560.6802	19772.32143
564.71473	19825.75
568.7464	19843.60714
572.7752	19870.32143
576.80114	19880.32143
580.82422	19936.32143
584.84444	20084.46429
588.86181	20217.03571
592.87633	20199.17857
596.888	20264.32143
600.89682	20481.17857
604.9028	21137.46429
608.90594	22656.03571
612.90624	24511.32143
616.90371	23904.17857
620.89834	21470.17857
624.89015	20256.46429
628.87913	20131.03571
632.86528	20177.03571
636.84862	20369.03571
640.82913	20333.75
644.80683	20159.46429
648.78172	19965.03571
652.75379	19967.03571
656.72306	20181.32143
660.68952	20437.46429
664.65319	20422.75
668.61405	20329.60714
672.57211	20309.17857
676.52738	20332.03571
680.47986	20371.75
684.42955	20303.17857
688.37646	20276.17857
692.32058	20326.03571
696.26192	20415.60714
700.20048	20494.17857
704.13626	20549.17857
708.06928	20529.03571
711.99952	20490.03571
715.927	20380.17857
719.85171	20452.60714
723.77365	20449.60714
727.69284	20412.17857
731.60928	20377.46429
735.52295	20274.60714
739.43388	20292.32143
743.34206	20377.03571
747.24749	20376.17857
751.15017	20396.03571
755.05012	20455.75
758.94733	20695.89286
762.8418	21112.17857
766.73354	22044.46429
770.62254	22984.46429
774.50882	23445.89286
778.39237	23102.60714
782.27321	22274.60714
786.15132	21405.60714
790.02671	20801.75
793.89938	20540.17857
797.76935	20434.60714
801.6366	20319.03571
805.50115	20280.46429
809.36299	20231.46429
813.22213	20203.17857
817.07857	20192.03571
820.93231	20206.46429
824.78336	20222.03571
828.63172	20274.32143
832.47738	20289.60714
836.32036	20243.03571
840.16066	20248.03571
843.99827	20313.75
847.8332	20311.89286
851.66546	20285.17857
855.49504	20336.32143
859.32195	20339.46429
863.1462	20319.03571
866.96777	20366.75
870.78668	20370.46429
874.60293	20420.46429
878.41652	20467.89286
882.22745	20509.46429
886.03573	20513.03571
889.84136	20499.89286
893.64433	20519.60714
897.44466	20479.03571
901.24235	20435.17857
905.0374	20391.03571
908.8298	20320.46429
912.61957	20351.03571
916.40671	20320.75
920.19121	20346.46429
923.97308	20390.17857
927.75233	20415.60714
931.52895	20470.60714
935.30295	20391.46429
939.07433	20293.60714
942.84309	20148.89286
946.60924	20045.46429
950.37278	19994.17857
954.13371	19949.03571
957.89203	19976.32143
961.64774	19919.60714
965.40086	19854.17857
969.15137	19866.75
972.89929	19842.03571
976.64461	19853.17857
980.38733	19881.32143
984.12747	19877.32143
987.86502	19917.75
991.59999	19923.75
995.33237	19999.03571
999.06217	20075.89286
1002.78939	20206.32143
1006.51404	20292.03571
1010.23611	20449.32143
1013.95561	20496.75
1017.67255	20599.17857
1021.38692	20581.03571
1025.09872	20519.89286
1028.80796	20403.17857
1032.51465	20323.75
1036.21877	20355.60714
1039.92035	20381.60714
1043.61937	20441.32143
1047.31584	20485.60714
1051.00976	20536.17857
1054.70114	20586.46429
1058.38998	20618.60714
1062.07627	20669.32143
1065.76003	20735.32143
1069.44126	20869.60714
1073.11995	20974.03571
1076.79611	21233.17857
1080.46974	21328.03571
1084.14085	21417.03571
1087.80943	21400.32143
1091.47549	21468.03571
1095.13903	21419.89286
1098.80005	21389.75
1102.45857	21238.03571
1106.11456	21132.75
1109.76805	21089.75
1113.41903	21021.46429
1117.06751	21094.17857
1120.71348	21206.03571
1124.35696	21365.89286
1127.99793	21517.89286
1131.63641	21590.89286
1135.2724	21419.89286
1138.90589	21244.89286
1142.5369	21121.89286
1146.16542	20975.03571
1149.79145	20882.89286
1153.415	20853.17857
1157.03607	20770.46429
1160.65467	20821.46429
1164.27079	21032.89286
1167.88443	21381.60714
1171.49561	21813.89286
1175.10432	22455.17857
1178.71056	23346.03571
1182.31434	24139.46429
1185.91565	24569.32143
1189.51451	24608.75
1193.11091	24343.03571
1196.70485	23950.17857
1200.29634	23589.46429
1203.88538	23106.17857
1207.47197	22632.03571
1211.05612	22081.32143
1214.63782	21801.17857
1218.21708	21694.89286
1221.79391	21529.32143
1225.36829	21430.89286
1228.94024	21456.75
1232.50976	21458.46429
1236.07685	21462.46429
1239.6415	21546.17857
1243.20374	21628.75
1246.76355	21639.32143
1250.32093	21757.32143
1253.8759	21818.75
1257.42845	22018.46429
1260.97859	22263.03571
1264.52631	22506.03571
1268.07163	22700.75
1271.61453	22923.03571
1275.15503	23069.32143
1278.69312	23154.89286
1282.22882	23211.46429
1285.76211	23273.46429
1289.29301	23483.03571
1292.82151	23679.03571
1296.34761	23905.03571
1299.87133	24198.17857
1303.39266	24692.75
1306.9116	25449.17857
1310.42815	26247.17857
1313.94233	26742.32143
1317.45412	26602.17857
1320.96354	26118.60714
1324.47058	25602.17857
1327.97525	25068.46429
1331.47754	24676.32143
1334.97747	24550.75
1338.47502	24643.17857
1341.97022	24998.75
1345.46305	25462.60714
1348.95352	26097.32143
1352.44163	26721.46429
1355.92738	27395.75
1359.41078	28272.17857
1362.89183	29113.17857
1366.37053	28831.60714
1369.84688	27091.32143
1373.32088	25163.32143
1376.79254	23850.89286
1380.26186	23043.75
1383.72883	22574.17857
1387.19347	22198.60714
1390.65578	21860.89286
1394.11575	21516.17857
1397.57339	21237.32143
1401.0287	21098.03571
1404.48168	21043.32143
1407.93234	21060.17857
1411.38068	21082.32143
1414.82669	21105.17857
1418.27039	21094.03571
1421.71177	21061.46429
1425.15083	20951.32143
1428.58758	20839.46429
1432.02203	20806.75
1435.45416	20838.17857
1438.88399	20828.75
1442.31151	20859.89286
1445.73673	20860.32143
1449.15965	20925.75
1452.58027	20937.17857
1455.9986	20945.32143
1459.41463	20978.89286
1462.82837	21126.32143
1466.23982	21317.75
1469.64898	21607.32143
1473.05586	21767.75
1476.46045	21923.03571
1479.86276	22117.17857
1483.26279	22247.03571
1486.66054	22450.03571
1490.05602	22772.17857
1493.44922	23187.75
1496.84016	23824.46429
1500.22882	24886.75
1503.61521	26096.32143
1506.99934	27372.75
1510.38121	28211.46429
1513.76081	28100.32143
1517.13816	27041.46429
1520.51324	25588.17857
1523.88607	24337.32143
1527.25665	23481.75
1530.62498	22941.03571
1533.99105	22651.60714
1537.35488	22475.03571
1540.71647	22364.46429
1544.07581	22284.60714
1547.4329	22205.03571
1550.78776	22148.60714
1554.14038	22095.46429
1557.49077	22123.60714
1560.83892	22206.60714
1564.18484	22411.03571
1567.52853	22627.32143
1570.86999	22827.60714
1574.20922	22980.03571
1577.54624	22926.32143
1580.88103	22582.03571
1584.2136	22106.32143
1587.54395	21815.46429
1590.87208	21786.60714
1594.19801	22032.17857
1597.52172	22515.60714
1600.84321	22785.03571
1604.16251	22707.46429
1607.47959	22433.03571
1610.79447	22035.60714
1614.10715	21503.60714
1617.41763	21001.32143
1620.7259	20622.32143
1624.03199	20309.60714
1627.33587	20237.03571
1630.63757	20202.75
1633.93707	20408.17857
1637.23439	20799.46429
1640.52951	21443.03571
1643.82246	22400.89286
1647.11321	23461.46429
1650.40179	24133.60714
1653.68819	23898.46429
1656.97241	22793.46429
1660.25446	21405.32143
1663.53433	20404.60714
1666.81203	19779.32143
1670.08756	19328.03571
1673.36092	19108.46429
1676.63211	18917.60714
1679.90115	18808.32143
1683.16801	18729.46429
1686.43272	18620.60714
1689.69527	18526.75
1692.95567	18483.17857
1696.2139	18482.03571
1699.46999	18422.46429
1702.72392	18404.89286
1705.97571	18372.89286
1709.22535	18368.32143
1712.47284	18400.03571
1715.71819	18367.89286
1718.96139	18377.03571
1722.20246	18370.60714
1725.44139	18291.46429
1728.67818	18253.89286
1731.91284	18210.32143
1735.14537	18148.17857
1738.37576	18091.32143
1741.60403	18033.03571
1744.83017	18008.46429
1748.05418	17965.75
1751.27607	17976.60714
1754.49584	17913.75
1757.71349	17937.03571
1760.92903	17907.60714
1764.14244	17919.89286
1767.35375	17950.75
1770.56294	17856.17857
1773.77002	17867.75
1776.97499	17779.03571
1780.17785	17791.89286
1783.37861	17800.89286
1786.57727	17736.75
1789.77382	17691.46429
1792.96828	17696.17857
1796.16064	17625.03571
1799.3509	17610.89286
1802.53907	17604.75
1805.72514	17558.46429
1808.90913	17543.75
1812.09102	17521.60714
1815.27083	17486.75
1818.44856	17458.75
1821.6242	17432.60714
1824.79776	17418.60714
1827.96924	17373.17857
1831.13864	17332.32143
1834.30597	17354.60714
1837.47122	17288.17857
1840.6344	17312.89286
1843.7955	17302.32143
1846.95454	17256.46429
1850.11151	17273.89286
1853.26642	17271.03571
1856.41926	17253.89286
1859.57004	17189.32143
1862.71876	17177.89286
1865.86542	17223.17857
1869.01003	17189.60714
1872.15258	17140.32143
1875.29308	17160.32143
1878.43152	17120.32143
1881.56792	17110.03571
1884.70227	17076.46429
1887.83457	17091.75
1890.96482	17050.17857
1894.09304	17013.46429
1897.21921	17009.60714
1900.34335	17005.89286
1903.46544	16960.89286
1906.58551	16942.17857
1909.70353	16940.60714
1912.81953	16886.03571
1915.93349	16870.89286
1919.04543	16877.46429
1922.15534	16876.46429
1925.26322	16814.32143
1928.36908	16730.46429
1931.47292	16713.75
1934.57473	16664.17857
1937.67453	16668.75
1940.77232	16633.75
1943.86808	16572.75
1946.96184	16528.60714
1950.05358	16511.89286
1953.14331	16456.32143
1956.23103	16452.75
1959.31675	16408.60714
1962.40046	16356.32143
1965.48217	16271.46429
1968.56188	16288.32143
1971.63959	16214.46429
1974.7153	16186.46429
1977.78901	16113.03571
1980.86073	16090.03571
1983.93046	16004.46429
1986.99819	15949.46429
1990.06394	15923.46429
1993.1277	15885.03571
1996.18947	15824.46429
1999.24925	15784.60714
2002.30706	15766.89286
2005.36288	15698.17857
2008.41672	15656.60714
2011.46859	15627.46429
2014.51848	15603.03571
2017.56639	15507.17857
2020.61233	15472.32143
2023.6563	15428.60714
2026.6983	15396.17857
2029.73833	15340.89286
2032.7764	15321.60714
2035.8125	15297.89286
2038.84664	15291.89286
2041.87881	15212.89286
2044.90903	15187.46429
2047.93729	15170.89286
2050.96359	15163.17857
2053.98794	15109.32143
2057.01034	15102.32143
2060.03078	15106.32143
2063.04927	15090.75
2066.06582	15081.17857
2069.08042	15055.32143
2072.09307	15061.60714
2075.10378	15059.32143
2078.11255	15044.17857
2081.11938	15045.75
2084.12426	15045.17857
2087.12722	15075.17857
2090.12824	15040.17857
2093.12732	15052.60714
2096.12447	15056.03571
2099.11969	15046.32143
2102.11299	15034.60714
2105.10435	15072.60714
2108.09379	15066.75
2111.08131	15060.03571
2114.0669	15083.60714
2117.05057	15100.89286
2120.03233	15106.32143
2123.01216	15095.03571
2125.99008	15116.60714
2128.96609	15137.03571
2131.94018	15201.60714
2134.91236	15206.32143
2137.88263	15175.46429
2140.851	15141.46429
2143.81746	15225.75
2146.78201	15186.89286
2149.74466	15220.17857
2152.7054	15209.03571
2155.66425	15197.75
2158.6212	15166.75
2161.57625	15152.60714
2164.52941	15179.89286
2167.48067	15184.32143
2170.43004	15167.32143
2173.37752	15172.60714
2176.32311	15142.89286
2179.26681	15161.17857
2182.20863	15136.03571
2185.14856	15143.03571
2188.08661	15142.17857
2191.02278	15133.46429
2193.95707	15126.60714
2196.88948	15121.75
2199.82001	15109.46429
2202.74867	15073.46429
2205.67545	15073.60714
2208.60037	15045.75
2211.52341	15044.89286
2214.44458	15027.17857
2217.36388	14990.60714
2220.28132	14970.75
2223.1969	14889.17857
2226.11061	14869.17857
2229.02246	14839.89286
2231.93245	14797.03571
2234.84058	14771.17857
2237.74686	14787.60714
2240.65128	14786.32143
2243.55385	14756.03571
2246.45456	14774.17857
2249.35343	14730.32143
2252.25044	14732.60714
2255.14561	14720.17857
2258.03893	14700.75
2260.93041	14652.03571
2263.82004	14611.75
2266.70783	14575.03571
2269.59378	14563.46429
2272.4779	14556.60714
2275.36017	14486.03571
2278.24061	14495.46429
2281.11922	14434.03571
2283.996	14402.75
2286.87094	14395.32143
2289.74405	14351.89286
2292.61534	14384.60714
2295.4848	14325.60714
2298.35243	14344.89286
2301.21824	14338.75
2304.08223	14310.17857
2306.94439	14312.60714
2309.80474	14291.17857
2312.66327	14290.75
2315.51999	14281.17857
2318.37489	14251.46429
2321.22797	14198.03571
2324.07925	14197.46429
2326.92871	14204.89286
2329.77637	14137.17857
2332.62222	14121.32143
2335.46626	14108.46429
2338.3085	14066.32143
2341.14893	14074.32143
2343.98756	14059.32143
2346.8244	14012.75
2349.65943	13990.89286
2352.49267	13988.32143
2355.32411	14021.60714
2358.15376	13954.75
2360.98161	13976.32143
2363.80768	13989.75
2366.63195	13968.89286
2369.45444	13924.89286
2372.27514	13966.46429
2375.09405	13893.75
2377.91118	13875.89286
2380.72652	13884.32143
2383.54009	13827.75
2386.35187	13811.17857
2389.16188	13781.17857
2391.97011	13766.17857
2394.77657	13733.17857
2397.58125	13701.03571
2400.38416	13705.46429
2403.18529	13671.60714
2405.98466	13654.89286
2408.78226	13600.46429
2411.57809	13612.03571
2414.37216	13603.17857
2417.16446	13622.17857
2419.955	13556.60714
2422.74378	13554.60714
2425.5308	13538.03571
2428.31606	13526.75
2431.09956	13500.46429
2433.88131	13484.89286
2436.6613	13479.17857
2439.43954	13493.46429
2442.21603	13479.60714
2444.99077	13428.32143
2447.76377	13443.46429
2450.53501	13429.46429
2453.30451	13420.46429
2456.07226	13388.75
2458.83827	13400.17857
2461.60254	13392.32143
2464.36507	13353.89286
2467.12586	13346.89286
2469.88492	13302.03571
2472.64224	13322.60714
2475.39782	13313.60714
2478.15167	13285.32143
2480.90379	13297.75
2483.65417	13301.89286
2486.40283	13315.17857
2489.14976	13320.75
2491.89497	13291.60714
2494.63845	13313.60714
2497.3802	13287.03571
2500.12024	13290.60714
2502.85855	13261.17857
2505.59514	13211.32143
2508.33002	13215.46429
2511.06318	13157.32143
2513.79462	13176.32143
2516.52435	13126.89286
2519.25237	13122.60714
2521.97867	13097.03571
2524.70327	13093.17857
2527.42616	13099.89286
2530.14734	13065.75
2532.86681	13042.32143
2535.58458	13028.75
2538.30065	12985.32143
2541.01501	13000.17857
2543.72768	12992.75
2546.43864	12955.89286
2549.14791	12935.32143
2551.85548	12891.75
2554.56136	12904.46429
2557.26554	12871.89286
2559.96803	12838.32143
2562.66883	12827.75
2565.36794	12756.32143
2568.06536	12761.17857
2570.7611	12728.46429
2573.45514	12738.17857
2576.14751	12698.89286
2578.83819	12644.03571
2581.52719	12671.46429
2584.21451	12649.60714
2586.90015	12617.17857
2589.58411	12540.03571
2592.2664	12564.60714
2594.94701	12530.75
2597.62594	12513.32143
2600.30321	12476.60714
2602.9788	12506.17857
2605.65273	12432.75
2608.32498	12477.60714
2610.99557	12457.17857
2613.66449	12382.03571
2616.33175	12374.17857
2618.99734	12366.32143
2621.66128	12350.17857
2624.32355	12334.03571
2626.98416	12315.75
2629.64311	12293.46429
2632.30041	12293.17857
2634.95605	12237.17857
2637.61004	12239.60714
2640.26238	12176.32143
2642.91306	12217.32143
2645.56209	12212.17857
2648.20948	12223.46429
2650.85521	12208.75
2653.4993	12202.17857
2656.14175	12156.75
2658.78255	12161.32143
2661.42171	12223.46429
2664.05923	12204.89286
2666.6951	12183.89286
2669.32934	12193.32143
2671.96194	12172.03571
2674.59291	12163.75
2677.22224	12175.75
2679.84993	12137.89286
2682.476	12138.75
2685.10043	12169.89286
2687.72324	12138.32143
2690.34441	12130.60714
2692.96396	12110.89286
2695.58188	12139.60714
2698.19818	12135.89286
2700.81285	12142.60714
2703.4259	12093.89286
2706.03733	12113.32143
2708.64714	12110.03571
2711.25533	12108.75
2713.86191	12120.03571
2716.46687	12151.75
2719.07021	12123.89286
2721.67194	12163.17857
2724.27206	12116.46429
2726.87057	12124.60714
2729.46747	12126.17857
2732.06276	12115.75
2734.65644	12085.17857
2737.24852	12103.89286
2739.83899	12103.75
2742.42786	12108.60714
2745.01513	12039.75
2747.60079	12022.60714
2750.18486	12025.46429
2752.76733	12017.03571
2755.3482	11988.03571
2757.92747	11970.60714
2760.50515	11946.89286
2763.08123	11965.89286
2765.65573	11953.46429
2768.22863	11920.89286
2770.79994	11895.03571
2773.36967	11888.75
2775.9378	11849.32143
2778.50435	11835.75
2781.06932	11836.46429
2783.6327	11787.75
2786.1945	11806.60714
2788.75471	11776.03571
2791.31335	11732.32143
2793.87041	11739.46429
2796.42589	11704.89286
2798.97979	11685.75
2801.53212	11655.17857
2804.08288	11648.60714
2806.63206	11633.89286
2809.17967	11600.89286
2811.72571	11563.03571
2814.27018	11545.75
2816.81308	11516.89286
2819.35442	11512.75
2821.89419	11458.89286
2824.43239	11425.32143
2826.96904	11441.17857
2829.50412	11433.46429
2832.03763	11413.89286
2834.56959	11428.17857
2837.1	11400.75
2839.62884	11409.03571
2842.15613	11377.03571
2844.68186	11372.46429
2847.20604	11418.89286
2849.72867	11391.89286
2852.24974	11365.03571
2854.76927	11350.89286
2857.28724	11337.75
2859.80367	11330.75
2862.31855	11278.75
2864.83189	11282.46429
2867.34368	11255.46429
2869.85393	11252.03571
2872.36264	11223.46429
2874.8698	11215.75
2877.37543	11193.75
2879.87952	11206.03571
2882.38207	11203.32143
2884.88308	11211.75
2887.38256	11211.03571
2889.88051	11201.17857
2892.37692	11191.46429
2894.8718	11164.89286
2897.36515	11192.17857
2899.85698	11159.17857
2902.34727	11207.46429
2904.83604	11214.89286
2907.32328	11224.46429
2909.809	11192.60714
2912.29319	11197.60714
2914.77587	11219.60714
2917.25702	11206.75
2919.73665	11195.89286
2922.21476	11209.46429
2924.69136	11181.46429
2927.16644	11216.46429
2929.64	11174.17857
2932.11205	11174.17857
2934.58258	11162.46429
2937.05161	11167.60714
2939.51912	11184.75
2941.98513	11139.46429
2944.44962	11126.46429
2946.91261	11131.03571
2949.37409	11121.60714
2951.83407	11143.60714
2954.29254	11096.89286
2956.74951	11095.75
2959.20498	11099.75
2961.65895	11038.60714
2964.11142	11102.75
2966.56239	11048.89286
2969.01186	11080.32143
2971.45984	11056.17857
2973.90632	11046.89286
2976.35131	11016.89286
2978.7948	10999.32143
2981.23681	10976.60714
2983.67732	10964.75
2986.11635	10935.46429
2988.55388	10903.46429
2990.98993	10911.75
2993.4245	10911.17857
2995.85758	10865.32143
2998.28917	10876.32143
3000.71928	10832.17857
3003.14791	10831.75
3005.57506	10826.03571
3008.00073	10820.75
3010.42493	10808.32143
3012.84764	10779.89286
3015.26888	10788.32143
3017.68865	10752.75
3020.10694	10737.17857
3022.52376	10712.75
3024.9391	10695.32143
3027.35298	10655.89286
3029.76539	10667.46429
3032.17632	10657.03571
3034.5858	10632.32143
3036.9938	10637.60714
3039.40034	10624.46429
3041.80542	10617.17857
3044.20903	10601.60714
3046.61118	10609.46429
3049.01187	10564.89286
3051.4111	10557.46429
3053.80888	10549.17857
3056.20519	10510.32143
3058.60005	10499.75
3060.99345	10493.46429
3063.3854	10459.60714
3065.7759	10423.60714
3068.16494	10390.03571
3070.55254	10377.75
3072.93868	10372.75
3075.32338	10380.17857
3077.70662	10349.03571
3080.08842	10352.32143
3082.46878	10335.89286
3084.84769	10334.32143
3087.22515	10320.03571
3089.60118	10317.75
3091.97576	10358.32143
3094.3489	10321.60714
3096.72061	10355.60714
3099.09087	10331.75
3101.4597	10335.60714
3103.82709	10339.46429
3106.19305	10307.46429
3108.55757	10337.89286
3110.92066	10310.17857
3113.28232	10306.89286
3115.64255	10273.17857
3118.00134	10276.46429
3120.35871	10254.32143
3122.71466	10236.60714
3125.06917	10211.46429
3127.42226	10198.89286
3129.77393	10211.89286
3132.12417	10178.75
3134.47299	10191.46429
3136.82039	10198.60714
3139.16636	10185.89286
3141.51092	10197.46429
3143.85406	10215.17857
3146.19579	10224.17857
3148.53609	10192.17857
3150.87499	10248.75
3153.21246	10242.32143
3155.54853	10252.75
3157.88318	10233.32143
3160.21642	10278.75
3162.54826	10250.17857
3164.87868	10273.03571
3167.2077	10278.75
3169.5353	10284.89286
3171.86151	10284.17857
3174.18631	10271.75
3176.5097	10245.17857
3178.83169	10269.75
3181.15228	10245.60714
3183.47147	10223.32143
3185.78926	10223.89286
3188.10565	10223.46429
3190.42065	10172.17857
3192.73424	10199.03571
3195.04645	10182.32143
3197.35725	10193.89286
3199.66667	10186.17857
3201.97469	10197.89286
3204.28132	10208.46429
3206.58656	10204.75
3208.8904	10222.46429
3211.19287	10231.46429
3213.49394	10249.75
3215.79363	10240.89286
3218.09193	10232.03571
3220.38884	10245.75
3222.68438	10254.03571
3224.97853	10245.75
3227.2713	10229.46429
3229.56269	10205.03571
3231.8527	10223.46429
3234.14133	10186.32143
3236.42858	10175.60714
3238.71446	10144.75
3240.99896	10122.46429
3243.28209	10087.03571
3245.56384	10085.89286
3247.84423	10083.17857
3250.12324	10103.03571
3252.40088	10083.46429
3254.67715	10101.60714
3256.95205	10107.03571
3259.22558	10090.75
3261.49775	10128.89286
3263.76855	10098.89286
3266.03799	10053.32143
3268.30606	10057.17857
3270.57277	10031.75
3272.83812	9995.89286
3275.10211	9964.46429
3277.36474	9962.17857
3279.62601	9950.89286
3281.88593	9935.03571
3284.14448	9972.03571
3286.40168	9919.32143
3288.65753	9915.46429
3290.91202	9931.60714
3293.16516	9875.60714
3295.41695	9860.89286
3297.66738	9811.46429
3299.91647	9756.32143
3302.16421	9714.89286
3304.4106	9668.46429
3306.65564	9622.46429
3308.89933	9537.46429
3311.14169	9472.17857
3313.38269	9411.17857
3315.62236	9384.32143
3317.86068	9269.17857
3320.09766	9225.32143
3322.3333	9173.17857
3324.5676	9102.46429
3326.80056	8997.03571
3329.03219	8934.60714
3331.26248	1.75
3333.49143	-0.67857
3335.71905	0.60714
