Data from AgNPs_FTO_APTES_UA_20uM_CRN_20uM_R6G_10uM_NaF_0.1M_Addition_RamanShift__1__14-51-12-233.txt Node

Date: Thu Feb 17 14:51:12 GMT 2022
User: TCL
Spectrometer: QEP01345
Trigger mode: 4
Integration Time (sec): 7.000000E0
Scans to average: 10
Electric dark correction enabled: true
Nonlinearity correction enabled: false
Boxcar width: 0
XAxis mode: Raman Shifts
Number of Pixels in Spectrum: 1044
>>>>>Begin Spectral Data<<<<<
46.04893	-1.0125
50.45542	-2.5125
54.85868	-3.5125
59.25871	-2.2125
63.6555	136.2875
68.04907	140.3875
72.43941	146.8875
76.82654	148.3875
81.21044	148.2875
85.59113	158.6875
89.96862	159.2875
94.34289	163.3875
98.71396	172.5875
103.08183	173.9875
107.4465	182.9875
111.80798	184.8875
116.16626	195.6875
120.52136	200.5875
124.87327	208.3875
129.222	222.3875
133.56755	243.5875
137.90993	259.8875
142.24913	289.3875
146.58517	327.2875
150.91804	380.2875
155.24774	460.6875
159.57429	582.3875
163.89768	756.6875
168.21792	1009.2875
172.53501	1403.8875
176.84895	1965.7875
181.15975	2781.3875
185.46741	3932.7875
189.77193	5433.9875
194.07331	7315.8875
198.37157	9446.3875
202.6667	11715.5875
206.9587	13908.3875
211.24758	16122.5875
215.53334	18320.5875
219.81599	20607.6875
224.09553	23087.1875
228.37195	25908.9875
232.64527	28950.9875
236.91549	32261.4875
241.18261	35609.3875
245.44663	38816.2875
249.70755	41617.6875
253.96539	44187.8875
258.22014	46345.4875
262.4718	48086.8875
266.72039	49350.9875
270.96589	49949.0875
275.20832	50084.4875
279.44768	49794.7875
283.68397	49270.4875
287.91719	48790.2875
292.14735	48579.5875
296.37445	48470.1875
300.59849	48607.9875
304.81948	48813.4875
309.03742	48954.3875
313.25231	48764.8875
317.46415	48267.2875
321.67296	47596.1875
325.87872	46912.3875
330.08145	46609.3875
334.28114	46695.0875
338.47781	47113.3875
342.67145	47670.7875
346.86207	48376.7875
351.04966	49246.8875
355.23424	50157.8875
359.4158	50838.8875
363.59435	51456.4875
367.76989	51935.3875
371.94243	52250.1875
376.11196	52545.7875
380.27849	52880.7875
384.44203	53112.3875
388.60257	53538.4875
392.76012	54050.1875
396.91468	54543.4875
401.06626	55151.2875
405.21485	55663.9875
409.36047	55567.3875
413.50311	55067.8875
417.64277	54611.9875
421.77947	54434.4875
425.9132	54496.1875
430.04396	54808.4875
434.17176	55196.5875
438.2966	55664.6875
442.41849	56532.0875
446.53742	57926.1875
450.6534	59291.7875
454.76644	60315.7875
458.87653	60701.6875
462.98368	60388.1875
467.08789	59809.8875
471.18916	59137.5875
475.2875	58379.3875
479.38291	57859.8875
483.4754	57427.3875
487.56496	57013.1875
491.6516	56583.7875
495.73531	56184.9875
499.81612	56004.3875
503.89401	56188.1875
507.96899	56497.5875
512.04106	56498.0875
516.11023	56446.0875
520.1765	56352.5875
524.23987	56399.5875
528.30034	56275.3875
532.35792	56078.6875
536.41261	55671.2875
540.46441	55220.8875
544.51333	55196.4875
548.55936	55603.8875
552.60252	56400.1875
556.64279	57333.6875
560.6802	58088.7875
564.71473	58403.1875
568.7464	58904.6875
572.7752	59879.2875
576.80114	60781.5875
580.82422	61514.4875
584.84444	62723.9875
588.86181	64453.3875
592.87633	66109.4875
596.888	66514.6875
600.89682	65388.0875
604.9028	65466.2875
608.90594	69146.1875
612.90624	73367.3875
616.90371	70308.5875
620.89834	62135.8875
624.89015	58372.4875
628.87913	57876.1875
632.86528	58048.4875
636.84862	58023.5875
640.82913	57597.6875
644.80683	56634.4875
648.78172	56026.5875
652.75379	56026.6875
656.72306	56642.6875
660.68952	57563.5875
664.65319	57341.5875
668.61405	56620.4875
672.57211	56647.1875
676.52738	56870.4875
680.47986	56862.5875
684.42955	56678.6875
688.37646	56529.4875
692.32058	56815.4875
696.26192	57377.0875
700.20048	58078.1875
704.13626	58420.1875
708.06928	58392.6875
711.99952	58193.3875
715.927	58140.0875
719.85171	58176.5875
723.77365	58150.8875
727.69284	57741.8875
731.60928	57323.8875
735.52295	57172.7875
739.43388	57112.6875
743.34206	57299.8875
747.24749	57421.4875
751.15017	57780.0875
755.05012	58470.3875
758.94733	59553.2875
762.8418	61546.1875
766.73354	64603.4875
770.62254	67704.9875
774.50882	68599.2875
778.39237	66552.1875
782.27321	63389.3875
786.15132	60602.2875
790.02671	58838.8875
793.89938	57921.3875
797.76935	57515.9875
801.6366	57369.9875
805.50115	57158.0875
809.36299	57053.0875
813.22213	56916.6875
817.07857	56841.0875
820.93231	56861.1875
824.78336	56835.8875
828.63172	56843.5875
832.47738	56805.6875
836.32036	56845.1875
840.16066	57009.5875
843.99827	57153.3875
847.8332	57233.6875
851.66546	57288.0875
855.49504	57342.5875
859.32195	57418.4875
863.1462	57379.8875
866.96777	57281.1875
870.78668	57266.2875
874.60293	57347.3875
878.41652	57340.8875
882.22745	57525.4875
886.03573	57648.2875
889.84136	57663.2875
893.64433	57399.7875
897.44466	57209.3875
901.24235	57118.6875
905.0374	57038.3875
908.8298	56986.9875
912.61957	57117.9875
916.40671	57391.1875
920.19121	57916.4875
923.97308	58319.4875
927.75233	58301.3875
931.52895	57962.1875
935.30295	57617.1875
939.07433	57077.1875
942.84309	56663.0875
946.60924	56428.4875
950.37278	56414.6875
954.13371	56427.3875
957.89203	56319.5875
961.64774	56262.6875
965.40086	56167.7875
969.15137	56140.9875
972.89929	56092.1875
976.64461	56151.1875
980.38733	56271.2875
984.12747	56450.4875
987.86502	56765.2875
991.59999	57201.8875
995.33237	57732.8875
999.06217	58498.3875
1002.78939	59360.4875
1006.51404	60107.5875
1010.23611	60878.2875
1013.95561	61382.6875
1017.67255	61475.4875
1021.38692	61090.6875
1025.09872	60475.9875
1028.80796	60205.8875
1032.51465	60551.2875
1036.21877	61041.6875
1039.92035	61254.5875
1043.61937	61093.2875
1047.31584	60743.6875
1051.00976	60325.5875
1054.70114	60186.6875
1058.38998	60187.5875
1062.07627	60513.8875
1065.76003	60983.7875
1069.44126	61488.0875
1073.11995	62122.7875
1076.79611	62715.9875
1080.46974	63108.3875
1084.14085	63523.7875
1087.80943	63966.6875
1091.47549	64346.7875
1095.13903	64341.5875
1098.80005	63735.7875
1102.45857	62949.4875
1106.11456	62378.5875
1109.76805	62202.0875
1113.41903	62294.2875
1117.06751	62562.7875
1120.71348	62928.6875
1124.35696	63435.7875
1127.99793	63765.0875
1131.63641	63921.0875
1135.2724	63531.9875
1138.90589	63314.0875
1142.5369	63160.1875
1146.16542	63218.0875
1149.79145	63455.5875
1153.415	63696.8875
1157.03607	64077.8875
1160.65467	65028.8875
1164.27079	66642.2875
1167.88443	68672.6875
1171.49561	71261.9875
1175.10432	74633.2875
1178.71056	78858.8875
1182.31434	82590.0875
1185.91565	84428.3875
1189.51451	83919.5875
1193.11091	82253.7875
1196.70485	80135.8875
1200.29634	78176.2875
1203.88538	76814.2875
1207.47197	75875.8875
1211.05612	74760.1875
1214.63782	73660.0875
1218.21708	72538.3875
1221.79391	71715.5875
1225.36829	71201.6875
1228.94024	70725.0875
1232.50976	69934.2875
1236.07685	69055.8875
1239.6415	68608.7875
1243.20374	68733.9875
1246.76355	69210.3875
1250.32093	70006.7875
1253.8759	71052.7875
1257.42845	72270.2875
1260.97859	73678.1875
1264.52631	75066.7875
1268.07163	76562.1875
1271.61453	77987.0875
1275.15503	79375.4875
1278.69312	80707.5875
1282.22882	82013.9875
1285.76211	83516.5875
1289.29301	85384.1875
1292.82151	87830.3875
1296.34761	90777.2875
1299.87133	94603.5875
1303.39266	98912.0875
1306.9116	103161.2875
1310.42815	107027.2875
1313.94233	109183.4875
1317.45412	108536.6875
1320.96354	106412.3875
1324.47058	104169.5875
1327.97525	101999.4875
1331.47754	100285.8875
1334.97747	99327.8875
1338.47502	98828.6875
1341.97022	98762.4875
1345.46305	98657.6875
1348.95352	98818.4875
1352.44163	99576.7875
1355.92738	101722.8875
1359.41078	105513.7875
1362.89183	108733.4875
1366.37053	107051.9875
1369.84688	99796.2875
1373.32088	91075.0875
1376.79254	85175.4875
1380.26186	82780.4875
1383.72883	82446.7875
1387.19347	82609.0875
1390.65578	81835.7875
1394.11575	81122.5875
1397.57339	81008.5875
1401.0287	81449.0875
1404.48168	82010.0875
1407.93234	81937.1875
1411.38068	81270.2875
1414.82669	79960.2875
1418.27039	78199.9875
1421.71177	76456.2875
1425.15083	74851.7875
1428.58758	74125.5875
1432.02203	74583.7875
1435.45416	75751.0875
1438.88399	77101.9875
1442.31151	78199.3875
1445.73673	78784.5875
1449.15965	79010.2875
1452.58027	79081.3875
1455.9986	78762.5875
1459.41463	78972.9875
1462.82837	79729.4875
1466.23982	80948.8875
1469.64898	82226.7875
1473.05586	83323.9875
1476.46045	83862.2875
1479.86276	83758.5875
1483.26279	83335.2875
1486.66054	83190.7875
1490.05602	83522.0875
1493.44922	84395.5875
1496.84016	85442.5875
1500.22882	87271.0875
1503.61521	89852.0875
1506.99934	92906.4875
1510.38121	95058.5875
1513.76081	95176.9875
1517.13816	93023.1875
1520.51324	89835.4875
1523.88607	87219.3875
1527.25665	85870.3875
1530.62498	85472.2875
1533.99105	85190.8875
1537.35488	84492.8875
1540.71647	83411.9875
1544.07581	82078.5875
1547.4329	80721.5875
1550.78776	79541.1875
1554.14038	78782.6875
1557.49077	78310.5875
1560.83892	78112.6875
1564.18484	78300.5875
1567.52853	78634.6875
1570.86999	79348.8875
1574.20922	80219.6875
1577.54624	80758.5875
1580.88103	80427.3875
1584.2136	80202.3875
1587.54395	81338.0875
1590.87208	84066.7875
1594.19801	87864.9875
1597.52172	91806.9875
1600.84321	93187.0875
1604.16251	90627.4875
1607.47959	85728.4875
1610.79447	80539.1875
1614.10715	75666.5875
1617.41763	71732.5875
1620.7259	69202.5875
1624.03199	67947.2875
1627.33587	67975.5875
1630.63757	69141.3875
1633.93707	71737.2875
1637.23439	76270.3875
1640.52951	82973.1875
1643.82246	90917.1875
1647.11321	97464.1875
1650.40179	98853.5875
1653.68819	93604.2875
1656.97241	84254.9875
1660.25446	75474.8875
1663.53433	68973.5875
1666.81203	64883.4875
1670.08756	62342.3875
1673.36092	60849.3875
1676.63211	59695.9875
1679.90115	58955.8875
1683.16801	58374.6875
1686.43272	57856.1875
1689.69527	57553.1875
1692.95567	57336.3875
1696.2139	57162.0875
1699.46999	57144.0875
1702.72392	57048.9875
1705.97571	56976.1875
1709.22535	56869.4875
1712.47284	56915.7875
1715.71819	56970.6875
1718.96139	56855.7875
1722.20246	56817.1875
1725.44139	56517.6875
1728.67818	56334.5875
1731.91284	56025.3875
1735.14537	55923.2875
1738.37576	55771.4875
1741.60403	55682.1875
1744.83017	55619.6875
1748.05418	55450.4875
1751.27607	55311.2875
1754.49584	55246.5875
1757.71349	55386.7875
1760.92903	55364.2875
1764.14244	55277.2875
1767.35375	55243.5875
1770.56294	55130.5875
1773.77002	55056.1875
1776.97499	55030.4875
1780.17785	54963.2875
1783.37861	54826.8875
1786.57727	54834.5875
1789.77382	54827.5875
1792.96828	54722.5875
1796.16064	54699.4875
1799.3509	54564.3875
1802.53907	54449.2875
1805.72514	54345.2875
1808.90913	54232.6875
1812.09102	54177.0875
1815.27083	54158.5875
1818.44856	54071.9875
1821.6242	54003.3875
1824.79776	53977.4875
1827.96924	53991.6875
1831.13864	53986.7875
1834.30597	53938.8875
1837.47122	53862.2875
1840.6344	53855.2875
1843.7955	53936.3875
1846.95454	53790.3875
1850.11151	53809.9875
1853.26642	53735.6875
1856.41926	53709.9875
1859.57004	53701.6875
1862.71876	53687.8875
1865.86542	53612.7875
1869.01003	53653.2875
1872.15258	53570.6875
1875.29308	53561.2875
1878.43152	53522.9875
1881.56792	53445.8875
1884.70227	53362.1875
1887.83457	53311.4875
1890.96482	53259.6875
1894.09304	53281.8875
1897.21921	53284.5875
1900.34335	53225.7875
1903.46544	53112.2875
1906.58551	53011.1875
1909.70353	53088.8875
1912.81953	53039.6875
1915.93349	52901.8875
1919.04543	52808.1875
1922.15534	52683.8875
1925.26322	52650.1875
1928.36908	52574.7875
1931.47292	52597.5875
1934.57473	52483.5875
1937.67453	52413.2875
1940.77232	52289.1875
1943.86808	52203.4875
1946.96184	52060.6875
1950.05358	52001.5875
1953.14331	51856.7875
1956.23103	51738.7875
1959.31675	51577.8875
1962.40046	51465.5875
1965.48217	51338.3875
1968.56188	51235.5875
1971.63959	51091.8875
1974.7153	50916.9875
1977.78901	50761.7875
1980.86073	50700.5875
1983.93046	50574.4875
1986.99819	50381.7875
1990.06394	50370.2875
1993.1277	50189.7875
1996.18947	50007.6875
1999.24925	49942.3875
2002.30706	49792.5875
2005.36288	49657.9875
2008.41672	49528.1875
2011.46859	49402.3875
2014.51848	49293.2875
2017.56639	49173.3875
2020.61233	49033.1875
2023.6563	48908.5875
2026.6983	48882.5875
2029.73833	48786.6875
2032.7764	48701.1875
2035.8125	48667.9875
2038.84664	48554.8875
2041.87881	48455.3875
2044.90903	48302.7875
2047.93729	48289.1875
2050.96359	48313.7875
2053.98794	48214.1875
2057.01034	48271.5875
2060.03078	48289.2875
2063.04927	48204.3875
2066.06582	48226.1875
2069.08042	48227.3875
2072.09307	48138.7875
2075.10378	48057.3875
2078.11255	48068.5875
2081.11938	48076.5875
2084.12426	48064.7875
2087.12722	48075.6875
2090.12824	48086.4875
2093.12732	48067.8875
2096.12447	48149.7875
2099.11969	48126.8875
2102.11299	48179.2875
2105.10435	48265.8875
2108.09379	48269.5875
2111.08131	48291.1875
2114.0669	48304.8875
2117.05057	48357.3875
2120.03233	48441.4875
2123.01216	48496.9875
2125.99008	48542.0875
2128.96609	48547.5875
2131.94018	48569.3875
2134.91236	48623.4875
2137.88263	48675.3875
2140.851	48607.3875
2143.81746	48769.1875
2146.78201	48766.5875
2149.74466	48816.0875
2152.7054	48830.0875
2155.66425	48817.6875
2158.6212	48810.7875
2161.57625	48798.9875
2164.52941	48761.5875
2167.48067	48772.3875
2170.43004	48689.7875
2173.37752	48751.1875
2176.32311	48882.9875
2179.26681	48923.9875
2182.20863	48863.0875
2185.14856	48921.8875
2188.08661	48899.5875
2191.02278	48804.8875
2193.95707	48881.9875
2196.88948	48809.3875
2199.82001	48767.9875
2202.74867	48737.9875
2205.67545	48719.5875
2208.60037	48664.9875
2211.52341	48600.2875
2214.44458	48547.8875
2217.36388	48502.6875
2220.28132	48393.9875
2223.1969	48327.5875
2226.11061	48292.0875
2229.02246	48189.3875
2231.93245	48156.5875
2234.84058	48046.7875
2237.74686	47954.9875
2240.65128	47981.0875
2243.55385	47860.9875
2246.45456	47932.6875
2249.35343	47792.3875
2252.25044	47790.9875
2255.14561	47729.9875
2258.03893	47679.4875
2260.93041	47571.2875
2263.82004	47530.2875
2266.70783	47415.7875
2269.59378	47287.6875
2272.4779	47240.7875
2275.36017	47122.9875
2278.24061	47004.8875
2281.11922	46896.0875
2283.996	46888.3875
2286.87094	46855.9875
2289.74405	46805.8875
2292.61534	46810.0875
2295.4848	46836.3875
2298.35243	46824.4875
2301.21824	46792.7875
2304.08223	46728.8875
2306.94439	46769.2875
2309.80474	46707.2875
2312.66327	46725.0875
2315.51999	46633.2875
2318.37489	46621.3875
2321.22797	46617.7875
2324.07925	46578.7875
2326.92871	46462.9875
2329.77637	46385.5875
2332.62222	46333.6875
2335.46626	46383.9875
2338.3085	46354.6875
2341.14893	46333.1875
2343.98756	46353.8875
2346.8244	46280.8875
2349.65943	46255.6875
2352.49267	46200.6875
2355.32411	46244.7875
2358.15376	46277.6875
2360.98161	46202.9875
2363.80768	46074.5875
2366.63195	46139.5875
2369.45444	46106.6875
2372.27514	46001.9875
2375.09405	45934.1875
2377.91118	45859.2875
2380.72652	45753.3875
2383.54009	45688.9875
2386.35187	45672.2875
2389.16188	45576.2875
2391.97011	45474.1875
2394.77657	45415.6875
2397.58125	45352.7875
2400.38416	45314.2875
2403.18529	45205.0875
2405.98466	45161.9875
2408.78226	45111.2875
2411.57809	45060.9875
2414.37216	45092.2875
2417.16446	45029.8875
2419.955	44982.1875
2422.74378	45028.7875
2425.5308	44971.3875
2428.31606	44931.7875
2431.09956	44921.0875
2433.88131	44813.0875
2436.6613	44931.8875
2439.43954	44923.3875
2442.21603	44870.1875
2444.99077	44816.8875
2447.76377	44797.0875
2450.53501	44743.6875
2453.30451	44710.0875
2456.07226	44675.7875
2458.83827	44702.6875
2461.60254	44640.4875
2464.36507	44614.6875
2467.12586	44523.5875
2469.88492	44532.7875
2472.64224	44494.0875
2475.39782	44562.5875
2478.15167	44652.2875
2480.90379	44657.9875
2483.65417	44717.6875
2486.40283	44598.1875
2489.14976	44630.1875
2491.89497	44560.8875
2494.63845	44614.1875
2497.3802	44541.5875
2500.12024	44493.6875
2502.85855	44459.9875
2505.59514	44464.7875
2508.33002	44451.2875
2511.06318	44392.4875
2513.79462	44330.9875
2516.52435	44231.0875
2519.25237	44214.2875
2521.97867	44147.4875
2524.70327	44209.1875
2527.42616	44166.9875
2530.14734	44107.4875
2532.86681	44025.9875
2535.58458	44055.6875
2538.30065	44004.5875
2541.01501	44005.7875
2543.72768	43933.8875
2546.43864	43981.1875
2549.14791	43843.0875
2551.85548	43810.0875
2554.56136	43790.0875
2557.26554	43699.9875
2559.96803	43629.9875
2562.66883	43562.8875
2565.36794	43510.8875
2568.06536	43528.7875
2570.7611	43491.6875
2573.45514	43378.1875
2576.14751	43339.5875
2578.83819	43338.9875
2581.52719	43289.3875
2584.21451	43179.0875
2586.90015	43146.7875
2589.58411	43027.0875
2592.2664	43008.2875
2594.94701	42933.2875
2597.62594	42983.8875
2600.30321	42897.2875
2602.9788	42845.9875
2605.65273	42797.7875
2608.32498	42844.1875
2610.99557	42791.3875
2613.66449	42785.5875
2616.33175	42780.5875
2618.99734	42807.5875
2621.66128	42699.4875
2624.32355	42632.9875
2626.98416	42598.7875
2629.64311	42499.4875
2632.30041	42499.5875
2634.95605	42420.0875
2637.61004	42435.7875
2640.26238	42430.4875
2642.91306	42414.2875
2645.56209	42355.8875
2648.20948	42381.0875
2650.85521	42341.0875
2653.4993	42365.8875
2656.14175	42390.4875
2658.78255	42412.8875
2661.42171	42414.3875
2664.05923	42388.0875
2666.6951	42359.3875
2669.32934	42434.2875
2671.96194	42396.1875
2674.59291	42373.0875
2677.22224	42318.4875
2679.84993	42430.1875
2682.476	42394.6875
2685.10043	42379.8875
2687.72324	42338.4875
2690.34441	42286.3875
2692.96396	42281.5875
2695.58188	42328.2875
2698.19818	42275.9875
2700.81285	42309.0875
2703.4259	42268.4875
2706.03733	42358.4875
2708.64714	42308.5875
2711.25533	42348.9875
2713.86191	42337.0875
2716.46687	42488.6875
2719.07021	42521.3875
2721.67194	42585.0875
2724.27206	42522.5875
2726.87057	42594.7875
2729.46747	42628.6875
2732.06276	42612.8875
2734.65644	42514.3875
2737.24852	42507.4875
2739.83899	42470.5875
2742.42786	42490.7875
2745.01513	42414.9875
2747.60079	42426.2875
2750.18486	42312.1875
2752.76733	42289.1875
2755.3482	42217.5875
2757.92747	42199.7875
2760.50515	42168.7875
2763.08123	42147.4875
2765.65573	42052.0875
2768.22863	42013.1875
2770.79994	41991.4875
2773.36967	42036.1875
2775.9378	41995.6875
2778.50435	42002.1875
2781.06932	42028.5875
2783.6327	41892.6875
2786.1945	41812.1875
2788.75471	41826.6875
2791.31335	41691.4875
2793.87041	41674.7875
2796.42589	41611.9875
2798.97979	41572.4875
2801.53212	41427.2875
2804.08288	41352.1875
2806.63206	41272.4875
2809.17967	41193.4875
2811.72571	41054.9875
2814.27018	40970.6875
2816.81308	40908.5875
2819.35442	40836.4875
2821.89419	40848.9875
2824.43239	40856.7875
2826.96904	40774.0875
2829.50412	40784.3875
2832.03763	40655.9875
2834.56959	40626.5875
2837.1	40557.0875
2839.62884	40495.5875
2842.15613	40448.0875
2844.68186	40512.1875
2847.20604	40414.4875
2849.72867	40388.9875
2852.24974	40318.8875
2854.76927	40354.4875
2857.28724	40330.5875
2859.80367	40254.5875
2862.31855	40116.0875
2864.83189	40156.0875
2867.34368	40109.2875
2869.85393	40140.2875
2872.36264	40093.0875
2874.8698	40023.3875
2877.37543	40016.2875
2879.87952	39976.8875
2882.38207	39971.3875
2884.88308	39904.3875
2887.38256	39886.8875
2889.88051	39937.8875
2892.37692	39942.1875
2894.8718	39987.3875
2897.36515	39988.5875
2899.85698	39939.8875
2902.34727	39977.1875
2904.83604	39987.5875
2907.32328	40113.6875
2909.809	40079.4875
2912.29319	40150.7875
2914.77587	40162.5875
2917.25702	40152.6875
2919.73665	40095.3875
2922.21476	40148.5875
2924.69136	40111.1875
2927.16644	40062.5875
2929.64	40039.0875
2932.11205	39905.3875
2934.58258	39803.2875
2937.05161	39920.4875
2939.51912	39888.6875
2941.98513	39923.6875
2944.44962	39848.3875
2946.91261	39769.0875
2949.37409	39829.4875
2951.83407	39820.6875
2954.29254	39790.0875
2956.74951	39808.0875
2959.20498	39860.7875
2961.65895	39760.4875
2964.11142	39782.8875
2966.56239	39752.8875
2969.01186	39833.8875
2971.45984	39673.7875
2973.90632	39640.5875
2976.35131	39523.3875
2978.7948	39479.9875
2981.23681	39430.8875
2983.67732	39436.7875
2986.11635	39337.8875
2988.55388	39291.9875
2990.98993	39203.9875
2993.4245	39099.3875
2995.85758	39026.0875
2998.28917	38940.3875
3000.71928	38862.3875
3003.14791	38781.7875
3005.57506	38737.7875
3008.00073	38605.9875
3010.42493	38597.6875
3012.84764	38584.2875
3015.26888	38574.1875
3017.68865	38521.3875
3020.10694	38433.9875
3022.52376	38348.3875
3024.9391	38293.2875
3027.35298	38313.3875
3029.76539	38295.7875
3032.17632	38219.0875
3034.5858	38160.0875
3036.9938	38162.7875
3039.40034	38128.9875
3041.80542	38089.6875
3044.20903	38069.3875
3046.61118	38008.5875
3049.01187	37885.6875
3051.4111	37855.8875
3053.80888	37772.0875
3056.20519	37709.2875
3058.60005	37619.5875
3060.99345	37625.8875
3063.3854	37572.3875
3065.7759	37393.6875
3068.16494	37276.6875
3070.55254	37190.4875
3072.93868	37115.0875
3075.32338	37026.4875
3077.70662	36970.5875
3080.08842	36870.7875
3082.46878	36867.2875
3084.84769	36826.4875
3087.22515	36791.8875
3089.60118	36715.2875
3091.97576	36771.1875
3094.3489	36708.0875
3096.72061	36744.5875
3099.09087	36822.3875
3101.4597	36753.1875
3103.82709	36746.6875
3106.19305	36663.7875
3108.55757	36698.3875
3110.92066	36519.6875
3113.28232	36474.1875
3115.64255	36343.8875
3118.00134	36315.7875
3120.35871	36284.8875
3122.71466	36210.7875
3125.06917	36146.5875
3127.42226	36013.3875
3129.77393	36012.6875
3132.12417	35923.8875
3134.47299	35928.9875
3136.82039	35830.0875
3139.16636	35853.3875
3141.51092	35780.7875
3143.85406	35837.1875
3146.19579	35794.6875
3148.53609	35784.7875
3150.87499	35790.8875
3153.21246	35788.6875
3155.54853	35951.1875
3157.88318	35823.8875
3160.21642	35909.8875
3162.54826	35851.9875
3164.87868	35848.0875
3167.2077	35853.8875
3169.5353	35874.6875
3171.86151	35832.7875
3174.18631	35730.5875
3176.5097	35701.9875
3178.83169	35633.2875
3181.15228	35616.7875
3183.47147	35479.9875
3185.78926	35477.0875
3188.10565	35446.4875
3190.42065	35482.4875
3192.73424	35412.9875
3195.04645	35316.9875
3197.35725	35301.2875
3199.66667	35294.2875
3201.97469	35318.4875
3204.28132	35269.4875
3206.58656	35334.8875
3208.8904	35308.5875
3211.19287	35310.5875
3213.49394	35281.1875
3215.79363	35246.3875
3218.09193	35281.3875
3220.38884	35320.7875
3222.68438	35359.5875
3224.97853	35284.3875
3227.2713	35347.7875
3229.56269	35257.1875
3231.8527	35243.9875
3234.14133	35153.5875
3236.42858	35026.6875
3238.71446	35021.8875
3240.99896	34947.7875
3243.28209	34951.1875
3245.56384	34911.5875
3247.84423	34932.2875
3250.12324	34799.2875
3252.40088	34732.0875
3254.67715	34707.2875
3256.95205	34634.7875
3259.22558	34701.5875
3261.49775	34658.3875
3263.76855	34569.0875
3266.03799	34497.7875
3268.30606	34462.5875
3270.57277	34458.4875
3272.83812	34364.3875
3275.10211	34279.5875
3277.36474	34253.5875
3279.62601	34232.4875
3281.88593	34198.6875
3284.14448	34227.8875
3286.40168	34180.2875
3288.65753	34189.5875
3290.91202	34168.1875
3293.16516	34141.5875
3295.41695	34048.2875
3297.66738	33841.3875
3299.91647	33673.4875
3302.16421	33476.9875
3304.4106	33259.4875
3306.65564	33051.5875
3308.89933	32841.7875
3311.14169	32618.8875
3313.38269	32358.9875
3315.62236	32211.0875
3317.86068	31932.3875
3320.09766	31699.9875
3322.3333	31502.8875
3324.5676	31371.6875
3326.80056	30868.9875
3329.03219	30677.5875
3331.26248	7.3875
3333.49143	1.1875
3335.71905	-0.2125
