Data from AgNPs_FTO_APTES_UA_20uM_CRN_0uM_R6G_10uM_NaF_0.1M_Addition_RamanShift__44__11-41-01-984.txt Node

Date: Thu Feb 17 11:41:01 GMT 2022
User: TCL
Spectrometer: QEP01345
Trigger mode: 4
Integration Time (sec): 7.000000E0
Scans to average: 10
Electric dark correction enabled: true
Nonlinearity correction enabled: false
Boxcar width: 0
XAxis mode: Raman Shifts
Number of Pixels in Spectrum: 1044
>>>>>Begin Spectral Data<<<<<
46.04893	0.0375
50.45542	-0.6625
54.85868	-3.1625
59.25871	0.0375
63.6555	106.6375
68.04907	107.4375
72.43941	111.9375
76.82654	113.5375
81.21044	118.6375
85.59113	123.2375
89.96862	122.6375
94.34289	127.7375
98.71396	131.7375
103.08183	139.2375
107.4465	142.0375
111.80798	143.2375
116.16626	149.7375
120.52136	158.7375
124.87327	159.3375
129.222	172.8375
133.56755	187.4375
137.90993	196.7375
142.24913	222.2375
146.58517	252.0375
150.91804	290.3375
155.24774	355.3375
159.57429	442.5375
163.89768	576.1375
168.21792	775.1375
172.53501	1054.8375
176.84895	1489.3375
181.15975	2108.2375
185.46741	2973.6375
189.77193	4105.9375
194.07331	5502.9375
198.37157	7116.3375
202.6667	8772.7375
206.9587	10446.1375
211.24758	12090.5375
215.53334	13703.9375
219.81599	15470.1375
224.09553	17393.4375
228.37195	19484.2375
232.64527	21807.4375
236.91549	24263.0375
241.18261	26800.1375
245.44663	29129.1375
249.70755	31316.0375
253.96539	33156.7375
258.22014	34737.6375
262.4718	36037.0375
266.72039	36898.0375
270.96589	37419.1375
275.20832	37460.3375
279.44768	37288.8375
283.68397	36951.9375
287.91719	36614.5375
292.14735	36479.9375
296.37445	36360.3375
300.59849	36355.9375
304.81948	36460.8375
309.03742	36497.9375
313.25231	36331.7375
317.46415	35846.7375
321.67296	35175.2375
325.87872	34577.8375
330.08145	34320.2375
334.28114	34340.4375
338.47781	34617.0375
342.67145	35112.9375
346.86207	35690.1375
351.04966	36373.5375
355.23424	37055.0375
359.4158	37721.9375
363.59435	38181.0375
367.76989	38541.2375
371.94243	38701.7375
376.11196	39000.4375
380.27849	39170.1375
384.44203	39409.1375
388.60257	39692.5375
392.76012	40009.7375
396.91468	40475.7375
401.06626	40955.1375
405.21485	41385.1375
409.36047	41391.8375
413.50311	40981.0375
417.64277	40788.2375
421.77947	40846.6375
425.9132	41040.9375
430.04396	41371.4375
434.17176	41513.8375
438.2966	41776.6375
442.41849	42295.3375
446.53742	43232.8375
450.6534	44190.2375
454.76644	44950.2375
458.87653	45237.9375
462.98368	45009.3375
467.08789	44627.2375
471.18916	44065.9375
475.2875	43456.6375
479.38291	43200.0375
483.4754	42857.5375
487.56496	42636.0375
491.6516	42376.5375
495.73531	42109.2375
499.81612	42000.5375
503.89401	42385.9375
507.96899	42576.2375
512.04106	42475.9375
516.11023	42307.5375
520.1765	41930.9375
524.23987	41720.9375
528.30034	41502.4375
532.35792	41236.4375
536.41261	40922.7375
540.46441	40525.7375
544.51333	40513.7375
548.55936	40812.8375
552.60252	41473.6375
556.64279	42309.0375
560.6802	42944.0375
564.71473	43279.7375
568.7464	43934.4375
572.7752	44872.0375
576.80114	45896.5375
580.82422	46935.2375
584.84444	47901.9375
588.86181	48877.9375
592.87633	49479.3375
596.888	49123.0375
600.89682	48103.6375
604.9028	48496.2375
608.90594	51571.3375
612.90624	54876.7375
616.90371	52313.0375
620.89834	45761.4375
624.89015	42801.8375
628.87913	42344.2375
632.86528	42496.6375
636.84862	42520.4375
640.82913	42135.2375
644.80683	41372.9375
648.78172	40869.3375
652.75379	40817.8375
656.72306	41293.4375
660.68952	41922.9375
664.65319	41821.9375
668.61405	41368.3375
672.57211	41264.2375
676.52738	41396.7375
680.47986	41388.9375
684.42955	41228.6375
688.37646	41144.9375
692.32058	41311.4375
696.26192	41794.0375
700.20048	42328.8375
704.13626	42589.5375
708.06928	42588.1375
711.99952	42324.6375
715.927	42251.6375
719.85171	42451.1375
723.77365	42448.3375
727.69284	42070.3375
731.60928	41694.0375
735.52295	41516.9375
739.43388	41553.8375
743.34206	41578.7375
747.24749	41766.3375
751.15017	42066.7375
755.05012	42610.9375
758.94733	43524.1375
762.8418	45023.1375
766.73354	47573.5375
770.62254	49858.4375
774.50882	50275.4375
778.39237	48642.8375
782.27321	46269.7375
786.15132	44206.0375
790.02671	42877.7375
793.89938	42155.5375
797.76935	41894.5375
801.6366	41808.1375
805.50115	41782.2375
809.36299	41586.9375
813.22213	41382.1375
817.07857	41168.4375
820.93231	41079.3375
824.78336	40909.9375
828.63172	40834.6375
832.47738	40819.1375
836.32036	40772.7375
840.16066	40919.9375
843.99827	40994.8375
847.8332	41076.7375
851.66546	41067.4375
855.49504	41040.0375
859.32195	41152.7375
863.1462	41089.7375
866.96777	41090.3375
870.78668	41056.7375
874.60293	41114.4375
878.41652	41144.7375
882.22745	41271.1375
886.03573	41433.6375
889.84136	41405.3375
893.64433	41301.9375
897.44466	41132.2375
901.24235	41017.9375
905.0374	40877.0375
908.8298	40780.1375
912.61957	40720.3375
916.40671	40994.5375
920.19121	41283.6375
923.97308	41680.0375
927.75233	41767.4375
931.52895	41484.4375
935.30295	41155.7375
939.07433	40709.0375
942.84309	40335.3375
946.60924	40240.8375
950.37278	40220.3375
954.13371	40176.0375
957.89203	40081.9375
961.64774	39985.7375
965.40086	40007.8375
969.15137	39958.8375
972.89929	39875.6375
976.64461	39797.5375
980.38733	39789.7375
984.12747	39918.0375
987.86502	40216.6375
991.59999	40586.2375
995.33237	41068.3375
999.06217	41729.4375
1002.78939	42546.1375
1006.51404	43283.4375
1010.23611	43859.3375
1013.95561	44286.3375
1017.67255	44313.3375
1021.38692	43855.5375
1025.09872	43242.0375
1028.80796	42972.7375
1032.51465	43159.4375
1036.21877	43526.3375
1039.92035	43641.8375
1043.61937	43481.1375
1047.31584	43144.7375
1051.00976	42774.5375
1054.70114	42676.6375
1058.38998	42782.5375
1062.07627	43011.2375
1065.76003	43435.9375
1069.44126	43845.4375
1073.11995	44425.4375
1076.79611	45049.2375
1080.46974	45429.7375
1084.14085	45726.5375
1087.80943	46235.6375
1091.47549	46537.4375
1095.13903	46497.8375
1098.80005	45982.6375
1102.45857	45294.4375
1106.11456	44793.5375
1109.76805	44467.5375
1113.41903	44491.3375
1117.06751	44665.1375
1120.71348	44940.2375
1124.35696	45232.6375
1127.99793	45531.5375
1131.63641	45671.8375
1135.2724	45483.6375
1138.90589	45266.4375
1142.5369	45115.5375
1146.16542	45209.5375
1149.79145	45281.3375
1153.415	45469.8375
1157.03607	45859.8375
1160.65467	46740.9375
1164.27079	48167.7375
1167.88443	50144.3375
1171.49561	52452.2375
1175.10432	55340.1375
1178.71056	58874.3375
1182.31434	62165.0375
1185.91565	63986.6375
1189.51451	63893.1375
1193.11091	62612.5375
1196.70485	60661.4375
1200.29634	58714.6375
1203.88538	57186.0375
1207.47197	56180.7375
1211.05612	55355.2375
1214.63782	54482.2375
1218.21708	53666.3375
1221.79391	53186.2375
1225.36829	52812.0375
1228.94024	52293.6375
1232.50976	51473.4375
1236.07685	50694.0375
1239.6415	50272.4375
1243.20374	50242.7375
1246.76355	50467.2375
1250.32093	51078.4375
1253.8759	51910.8375
1257.42845	53005.6375
1260.97859	54257.5375
1264.52631	55677.6375
1268.07163	57178.8375
1271.61453	58545.4375
1275.15503	59925.4375
1278.69312	61161.3375
1282.22882	62196.4375
1285.76211	63291.9375
1289.29301	64757.3375
1292.82151	66543.4375
1296.34761	68846.6375
1299.87133	71892.9375
1303.39266	75461.4375
1306.9116	79279.0375
1310.42815	82905.0375
1313.94233	85114.1375
1317.45412	85095.6375
1320.96354	83862.7375
1324.47058	82560.5375
1327.97525	81438.3375
1331.47754	80690.3375
1334.97747	80212.5375
1338.47502	79943.0375
1341.97022	79648.1375
1345.46305	78870.7375
1348.95352	78014.3375
1352.44163	77314.7375
1355.92738	77848.8375
1359.41078	80155.5375
1362.89183	82184.7375
1366.37053	80927.5375
1369.84688	75612.7375
1373.32088	68950.5375
1376.79254	64342.1375
1380.26186	62318.7375
1383.72883	61849.4375
1387.19347	61713.3375
1390.65578	61192.5375
1394.11575	61078.9375
1397.57339	61502.5375
1401.0287	62420.3375
1404.48168	63386.0375
1407.93234	63791.3375
1411.38068	63304.1375
1414.82669	62026.5375
1418.27039	60156.5375
1421.71177	58286.4375
1425.15083	56776.9375
1428.58758	56100.1375
1432.02203	56539.9375
1435.45416	57647.4375
1438.88399	59055.2375
1442.31151	60138.7375
1445.73673	60752.4375
1449.15965	61175.5375
1452.58027	61332.2375
1455.9986	61332.5375
1459.41463	61717.3375
1462.82837	62709.6375
1466.23982	63805.6375
1469.64898	64824.4375
1473.05586	65399.0375
1476.46045	65424.7375
1479.86276	65033.2375
1483.26279	64355.9375
1486.66054	63964.5375
1490.05602	64082.4375
1493.44922	64443.3375
1496.84016	64888.7375
1500.22882	65793.4375
1503.61521	67344.9375
1506.99934	69170.2375
1510.38121	70513.2375
1513.76081	70655.5375
1517.13816	69003.1375
1520.51324	66618.3375
1523.88607	64575.1375
1527.25665	63590.9375
1530.62498	63368.3375
1533.99105	63312.8375
1537.35488	62944.0375
1540.71647	62320.8375
1544.07581	61504.8375
1547.4329	60530.7375
1550.78776	59563.1375
1554.14038	58809.8375
1557.49077	58414.1375
1560.83892	58111.5375
1564.18484	58153.9375
1567.52853	58279.0375
1570.86999	58607.3375
1574.20922	59096.1375
1577.54624	59483.2375
1580.88103	59350.9375
1584.2136	59436.8375
1587.54395	60782.4375
1590.87208	63499.8375
1594.19801	67227.4375
1597.52172	71076.1375
1600.84321	72438.5375
1604.16251	70051.9375
1607.47959	65498.5375
1610.79447	60606.0375
1614.10715	56087.6375
1617.41763	52455.0375
1620.7259	49930.7375
1624.03199	48676.5375
1627.33587	48525.7375
1630.63757	49591.5375
1633.93707	52062.0375
1637.23439	56302.9375
1640.52951	62451.3375
1643.82246	69412.9375
1647.11321	74489.4375
1650.40179	74924.2375
1653.68819	69885.6375
1656.97241	61816.6375
1660.25446	54263.2375
1663.53433	48816.5375
1666.81203	45418.1375
1670.08756	43320.4375
1673.36092	42007.8375
1676.63211	41107.7375
1679.90115	40505.2375
1683.16801	39961.2375
1686.43272	39623.5375
1689.69527	39368.1375
1692.95567	39110.8375
1696.2139	39013.0375
1699.46999	38944.3375
1702.72392	38848.5375
1705.97571	38769.8375
1709.22535	38700.3375
1712.47284	38657.7375
1715.71819	38656.6375
1718.96139	38659.0375
1722.20246	38523.2375
1725.44139	38396.5375
1728.67818	38195.8375
1731.91284	37919.3375
1735.14537	37819.5375
1738.37576	37676.6375
1741.60403	37614.8375
1744.83017	37464.7375
1748.05418	37334.9375
1751.27607	37317.8375
1754.49584	37233.0375
1757.71349	37246.7375
1760.92903	37198.6375
1764.14244	37176.4375
1767.35375	37171.9375
1770.56294	37102.8375
1773.77002	37073.2375
1776.97499	37139.9375
1780.17785	37028.5375
1783.37861	36936.4375
1786.57727	36900.0375
1789.77382	36842.9375
1792.96828	36806.4375
1796.16064	36754.5375
1799.3509	36669.9375
1802.53907	36635.5375
1805.72514	36551.1375
1808.90913	36454.1375
1812.09102	36430.2375
1815.27083	36382.3375
1818.44856	36331.8375
1821.6242	36319.9375
1824.79776	36214.5375
1827.96924	36230.8375
1831.13864	36235.0375
1834.30597	36258.5375
1837.47122	36188.9375
1840.6344	36124.5375
1843.7955	36147.5375
1846.95454	36172.0375
1850.11151	36186.4375
1853.26642	36181.3375
1856.41926	36145.3375
1859.57004	36129.1375
1862.71876	36083.5375
1865.86542	36052.8375
1869.01003	35998.7375
1872.15258	35917.3375
1875.29308	35865.7375
1878.43152	35902.8375
1881.56792	35852.3375
1884.70227	35853.0375
1887.83457	35821.0375
1890.96482	35797.7375
1894.09304	35747.1375
1897.21921	35687.3375
1900.34335	35599.8375
1903.46544	35593.4375
1906.58551	35570.6375
1909.70353	35552.3375
1912.81953	35451.8375
1915.93349	35439.2375
1919.04543	35354.3375
1922.15534	35289.1375
1925.26322	35226.4375
1928.36908	35151.0375
1931.47292	35090.9375
1934.57473	34986.0375
1937.67453	34898.4375
1940.77232	34843.8375
1943.86808	34733.7375
1946.96184	34634.2375
1950.05358	34566.1375
1953.14331	34450.0375
1956.23103	34353.1375
1959.31675	34286.5375
1962.40046	34177.8375
1965.48217	34097.3375
1968.56188	33982.8375
1971.63959	33922.9375
1974.7153	33862.7375
1977.78901	33689.9375
1980.86073	33612.5375
1983.93046	33505.7375
1986.99819	33410.8375
1990.06394	33358.6375
1993.1277	33249.2375
1996.18947	33133.4375
1999.24925	33090.8375
2002.30706	33026.8375
2005.36288	32886.1375
2008.41672	32797.6375
2011.46859	32735.5375
2014.51848	32666.9375
2017.56639	32549.0375
2020.61233	32478.3375
2023.6563	32332.6375
2026.6983	32322.7375
2029.73833	32239.2375
2032.7764	32183.0375
2035.8125	32092.0375
2038.84664	32092.5375
2041.87881	32057.0375
2044.90903	31976.3375
2047.93729	31889.3375
2050.96359	31922.9375
2053.98794	31833.4375
2057.01034	31869.3375
2060.03078	31834.4375
2063.04927	31824.2375
2066.06582	31849.0375
2069.08042	31814.0375
2072.09307	31765.4375
2075.10378	31710.9375
2078.11255	31613.0375
2081.11938	31690.3375
2084.12426	31620.5375
2087.12722	31573.4375
2090.12824	31611.1375
2093.12732	31603.8375
2096.12447	31658.8375
2099.11969	31563.0375
2102.11299	31585.2375
2105.10435	31642.4375
2108.09379	31631.6375
2111.08131	31712.4375
2114.0669	31677.0375
2117.05057	31618.4375
2120.03233	31705.5375
2123.01216	31674.6375
2125.99008	31725.0375
2128.96609	31775.0375
2131.94018	31894.1375
2134.91236	31878.9375
2137.88263	31918.3375
2140.851	31901.1375
2143.81746	31914.5375
2146.78201	31985.8375
2149.74466	32001.3375
2152.7054	31959.6375
2155.66425	32009.5375
2158.6212	31951.5375
2161.57625	32004.7375
2164.52941	31954.7375
2167.48067	31948.5375
2170.43004	31894.1375
2173.37752	31899.1375
2176.32311	31941.4375
2179.26681	31927.6375
2182.20863	31931.3375
2185.14856	31950.3375
2188.08661	31922.3375
2191.02278	31917.4375
2193.95707	31910.3375
2196.88948	31873.7375
2199.82001	31910.1375
2202.74867	31848.1375
2205.67545	31813.3375
2208.60037	31779.8375
2211.52341	31745.2375
2214.44458	31698.7375
2217.36388	31661.7375
2220.28132	31626.1375
2223.1969	31535.6375
2226.11061	31518.3375
2229.02246	31353.7375
2231.93245	31328.0375
2234.84058	31307.0375
2237.74686	31276.3375
2240.65128	31277.5375
2243.55385	31163.4375
2246.45456	31150.0375
2249.35343	31081.9375
2252.25044	31033.5375
2255.14561	31016.5375
2258.03893	30974.0375
2260.93041	30898.7375
2263.82004	30841.7375
2266.70783	30772.1375
2269.59378	30720.9375
2272.4779	30618.7375
2275.36017	30634.2375
2278.24061	30563.7375
2281.11922	30494.6375
2283.996	30446.8375
2286.87094	30427.3375
2289.74405	30376.9375
2292.61534	30356.3375
2295.4848	30314.2375
2298.35243	30345.8375
2301.21824	30301.4375
2304.08223	30279.0375
2306.94439	30250.9375
2309.80474	30282.8375
2312.66327	30302.2375
2315.51999	30266.8375
2318.37489	30220.9375
2321.22797	30191.4375
2324.07925	30167.9375
2326.92871	30097.4375
2329.77637	30024.1375
2332.62222	30013.1375
2335.46626	30058.8375
2338.3085	30015.0375
2341.14893	30003.3375
2343.98756	29953.2375
2346.8244	29972.7375
2349.65943	29979.4375
2352.49267	29943.3375
2355.32411	29939.0375
2358.15376	29925.1375
2360.98161	29942.4375
2363.80768	29873.7375
2366.63195	29846.5375
2369.45444	29834.5375
2372.27514	29797.7375
2375.09405	29741.1375
2377.91118	29649.6375
2380.72652	29611.0375
2383.54009	29527.4375
2386.35187	29457.2375
2389.16188	29393.0375
2391.97011	29347.4375
2394.77657	29301.9375
2397.58125	29247.2375
2400.38416	29215.1375
2403.18529	29181.2375
2405.98466	29164.0375
2408.78226	29097.4375
2411.57809	29083.5375
2414.37216	29023.3375
2417.16446	29021.2375
2419.955	28992.7375
2422.74378	28931.7375
2425.5308	28942.3375
2428.31606	28972.5375
2431.09956	28963.9375
2433.88131	28915.9375
2436.6613	28933.8375
2439.43954	28876.4375
2442.21603	28860.7375
2444.99077	28820.3375
2447.76377	28801.5375
2450.53501	28800.9375
2453.30451	28859.9375
2456.07226	28770.7375
2458.83827	28785.1375
2461.60254	28739.0375
2464.36507	28749.1375
2467.12586	28729.5375
2469.88492	28696.0375
2472.64224	28696.5375
2475.39782	28717.4375
2478.15167	28679.4375
2480.90379	28678.9375
2483.65417	28740.4375
2486.40283	28739.9375
2489.14976	28719.4375
2491.89497	28685.0375
2494.63845	28735.7375
2497.3802	28686.3375
2500.12024	28664.7375
2502.85855	28640.7375
2505.59514	28640.3375
2508.33002	28578.5375
2511.06318	28570.3375
2513.79462	28516.3375
2516.52435	28500.8375
2519.25237	28476.8375
2521.97867	28422.8375
2524.70327	28445.1375
2527.42616	28381.1375
2530.14734	28394.2375
2532.86681	28330.4375
2535.58458	28340.6375
2538.30065	28267.7375
2541.01501	28316.3375
2543.72768	28279.5375
2546.43864	28243.4375
2549.14791	28223.2375
2551.85548	28195.3375
2554.56136	28154.7375
2557.26554	28093.1375
2559.96803	28016.8375
2562.66883	28009.8375
2565.36794	27970.2375
2568.06536	27987.9375
2570.7611	27939.6375
2573.45514	27899.5375
2576.14751	27859.8375
2578.83819	27780.5375
2581.52719	27813.0375
2584.21451	27768.0375
2586.90015	27708.0375
2589.58411	27728.5375
2592.2664	27693.5375
2594.94701	27672.5375
2597.62594	27673.4375
2600.30321	27630.7375
2602.9788	27611.7375
2605.65273	27588.2375
2608.32498	27584.0375
2610.99557	27565.2375
2613.66449	27583.1375
2616.33175	27512.1375
2618.99734	27489.0375
2621.66128	27443.0375
2624.32355	27434.7375
2626.98416	27409.9375
2629.64311	27439.7375
2632.30041	27407.7375
2634.95605	27343.0375
2637.61004	27321.4375
2640.26238	27286.6375
2642.91306	27319.9375
2645.56209	27252.5375
2648.20948	27267.0375
2650.85521	27292.2375
2653.4993	27279.3375
2656.14175	27304.8375
2658.78255	27317.8375
2661.42171	27303.2375
2664.05923	27333.4375
2666.6951	27306.0375
2669.32934	27336.1375
2671.96194	27300.3375
2674.59291	27315.1375
2677.22224	27301.2375
2679.84993	27310.3375
2682.476	27308.7375
2685.10043	27271.2375
2687.72324	27212.2375
2690.34441	27278.6375
2692.96396	27223.8375
2695.58188	27269.1375
2698.19818	27216.7375
2700.81285	27220.7375
2703.4259	27225.5375
2706.03733	27255.4375
2708.64714	27204.9375
2711.25533	27264.0375
2713.86191	27257.8375
2716.46687	27261.7375
2719.07021	27315.9375
2721.67194	27301.0375
2724.27206	27302.5375
2726.87057	27298.6375
2729.46747	27291.4375
2732.06276	27297.8375
2734.65644	27295.8375
2737.24852	27314.6375
2739.83899	27278.6375
2742.42786	27302.3375
2745.01513	27284.2375
2747.60079	27243.4375
2750.18486	27224.0375
2752.76733	27229.5375
2755.3482	27165.7375
2757.92747	27129.0375
2760.50515	27085.8375
2763.08123	27103.6375
2765.65573	27051.7375
2768.22863	27020.7375
2770.79994	27000.1375
2773.36967	26992.1375
2775.9378	27036.0375
2778.50435	27058.6375
2781.06932	27005.1375
2783.6327	26989.3375
2786.1945	26977.2375
2788.75471	26901.7375
2791.31335	26853.6375
2793.87041	26807.5375
2796.42589	26744.2375
2798.97979	26684.5375
2801.53212	26649.0375
2804.08288	26633.6375
2806.63206	26600.7375
2809.17967	26526.0375
2811.72571	26446.2375
2814.27018	26385.0375
2816.81308	26305.8375
2819.35442	26236.7375
2821.89419	26205.2375
2824.43239	26230.9375
2826.96904	26167.8375
2829.50412	26178.9375
2832.03763	26111.9375
2834.56959	26113.0375
2837.1	26052.4375
2839.62884	26040.8375
2842.15613	26007.3375
2844.68186	26006.6375
2847.20604	26022.1375
2849.72867	25996.8375
2852.24974	25993.2375
2854.76927	25957.6375
2857.28724	25860.2375
2859.80367	25867.5375
2862.31855	25866.2375
2864.83189	25826.7375
2867.34368	25830.1375
2869.85393	25747.9375
2872.36264	25721.2375
2874.8698	25676.4375
2877.37543	25637.3375
2879.87952	25669.1375
2882.38207	25677.8375
2884.88308	25712.2375
2887.38256	25723.2375
2889.88051	25686.7375
2892.37692	25691.9375
2894.8718	25750.2375
2897.36515	25734.2375
2899.85698	25704.6375
2902.34727	25774.1375
2904.83604	25760.6375
2907.32328	25767.1375
2909.809	25779.0375
2912.29319	25836.9375
2914.77587	25797.9375
2917.25702	25780.7375
2919.73665	25758.6375
2922.21476	25750.1375
2924.69136	25729.7375
2927.16644	25756.2375
2929.64	25741.0375
2932.11205	25695.4375
2934.58258	25575.4375
2937.05161	25626.2375
2939.51912	25622.1375
2941.98513	25556.2375
2944.44962	25505.7375
2946.91261	25414.1375
2949.37409	25532.4375
2951.83407	25494.4375
2954.29254	25466.9375
2956.74951	25460.8375
2959.20498	25490.6375
2961.65895	25428.9375
2964.11142	25419.8375
2966.56239	25424.0375
2969.01186	25360.8375
2971.45984	25279.4375
2973.90632	25273.4375
2976.35131	25251.2375
2978.7948	25210.7375
2981.23681	25148.6375
2983.67732	25093.3375
2986.11635	25033.6375
2988.55388	24985.4375
2990.98993	24948.2375
2993.4245	24902.5375
2995.85758	24838.3375
2998.28917	24724.0375
3000.71928	24689.3375
3003.14791	24624.3375
3005.57506	24638.1375
3008.00073	24568.8375
3010.42493	24558.8375
3012.84764	24503.1375
3015.26888	24532.5375
3017.68865	24500.4375
3020.10694	24455.6375
3022.52376	24364.8375
3024.9391	24336.4375
3027.35298	24326.9375
3029.76539	24301.3375
3032.17632	24253.2375
3034.5858	24225.5375
3036.9938	24187.8375
3039.40034	24179.7375
3041.80542	24178.2375
3044.20903	24144.5375
3046.61118	24139.6375
3049.01187	24054.3375
3051.4111	24007.0375
3053.80888	23956.4375
3056.20519	23929.8375
3058.60005	23860.4375
3060.99345	23855.1375
3063.3854	23775.0375
3065.7759	23716.3375
3068.16494	23651.1375
3070.55254	23577.5375
3072.93868	23506.3375
3075.32338	23454.5375
3077.70662	23371.3375
3080.08842	23338.3375
3082.46878	23294.3375
3084.84769	23224.3375
3087.22515	23226.0375
3089.60118	23202.6375
3091.97576	23207.1375
3094.3489	23215.7375
3096.72061	23181.6375
3099.09087	23156.0375
3101.4597	23180.5375
3103.82709	23212.1375
3106.19305	23148.9375
3108.55757	23122.8375
3110.92066	23125.7375
3113.28232	23072.7375
3115.64255	23014.8375
3118.00134	22941.2375
3120.35871	22894.6375
3122.71466	22802.6375
3125.06917	22740.4375
3127.42226	22721.8375
3129.77393	22729.4375
3132.12417	22648.8375
3134.47299	22625.4375
3136.82039	22618.3375
3139.16636	22599.1375
3141.51092	22600.6375
3143.85406	22543.4375
3146.19579	22577.0375
3148.53609	22569.6375
3150.87499	22572.7375
3153.21246	22594.5375
3155.54853	22616.0375
3157.88318	22568.2375
3160.21642	22614.5375
3162.54826	22530.9375
3164.87868	22490.7375
3167.2077	22490.4375
3169.5353	22505.6375
3171.86151	22510.8375
3174.18631	22492.7375
3176.5097	22516.0375
3178.83169	22488.5375
3181.15228	22445.5375
3183.47147	22354.0375
3185.78926	22335.3375
3188.10565	22330.9375
3190.42065	22279.9375
3192.73424	22248.7375
3195.04645	22210.3375
3197.35725	22194.6375
3199.66667	22162.6375
3201.97469	22208.6375
3204.28132	22153.4375
3206.58656	22190.5375
3208.8904	22155.9375
3211.19287	22183.9375
3213.49394	22132.6375
3215.79363	22162.6375
3218.09193	22199.5375
3220.38884	22203.3375
3222.68438	22190.8375
3224.97853	22144.9375
3227.2713	22124.6375
3229.56269	22067.3375
3231.8527	22058.4375
3234.14133	22040.2375
3236.42858	22008.9375
3238.71446	21952.8375
3240.99896	21888.7375
3243.28209	21907.1375
3245.56384	21876.7375
3247.84423	21846.9375
3250.12324	21808.2375
3252.40088	21799.7375
3254.67715	21799.9375
3256.95205	21742.0375
3259.22558	21763.5375
3261.49775	21735.4375
3263.76855	21684.4375
3266.03799	21640.8375
3268.30606	21577.2375
3270.57277	21585.0375
3272.83812	21542.2375
3275.10211	21490.0375
3277.36474	21431.2375
3279.62601	21439.5375
3281.88593	21435.2375
3284.14448	21431.3375
3286.40168	21402.2375
3288.65753	21374.4375
3290.91202	21357.2375
3293.16516	21307.7375
3295.41695	21322.3375
3297.66738	21180.2375
3299.91647	21037.0375
3302.16421	20945.6375
3304.4106	20860.4375
3306.65564	20669.5375
3308.89933	20536.6375
3311.14169	20418.5375
3313.38269	20237.0375
3315.62236	20170.5375
3317.86068	19978.1375
3320.09766	19762.5375
3322.3333	19637.4375
3324.5676	19567.0375
3326.80056	19254.0375
3329.03219	19133.2375
3331.26248	5.1375
3333.49143	0.3375
3335.71905	-1.7625
