Data from AgNPs_FTO_APTES_UA_20uM_CRN_100uM_R6G_10uM_NaF_0.1M_Addition_RamanShift__27__17-50-04-900.txt Node

Date: Thu Feb 17 17:50:04 GMT 2022
User: TCL
Spectrometer: QEP01345
Trigger mode: 4
Integration Time (sec): 1.000000E1
Scans to average: 7
Electric dark correction enabled: true
Nonlinearity correction enabled: false
Boxcar width: 0
XAxis mode: Raman Shifts
Number of Pixels in Spectrum: 1044
>>>>>Begin Spectral Data<<<<<
46.04893	1.07143
50.45542	0.35714
54.85868	0.64286
59.25871	-1.64286
63.6555	60.92857
68.04907	60.64286
72.43941	65.07143
76.82654	68.35714
81.21044	74.78571
85.59113	73.64286
89.96862	79.64286
94.34289	77.35714
98.71396	85.92857
103.08183	82.64286
107.4465	85.5
111.80798	89.64286
116.16626	93.35714
120.52136	93.35714
124.87327	92.21429
129.222	94.21429
133.56755	100.5
137.90993	112.07143
142.24913	118.92857
146.58517	126.35714
150.91804	146.21429
155.24774	169.5
159.57429	207.07143
163.89768	267.35714
168.21792	348.92857
172.53501	465.5
176.84895	654.78571
181.15975	903.64286
185.46741	1283.64286
189.77193	1771.92857
194.07331	2372.92857
198.37157	3075.78571
202.6667	3835.21429
206.9587	4575.92857
211.24758	5326.07143
215.53334	6142.21429
219.81599	7072.07143
224.09553	8162.5
228.37195	9317.35714
232.64527	10609.21429
236.91549	11854.78571
241.18261	12999.35714
245.44663	13888.5
249.70755	14598.64286
253.96539	15144.21429
258.22014	15497.5
262.4718	15798.07143
266.72039	15943.64286
270.96589	15964.64286
275.20832	15724.21429
279.44768	15299.35714
283.68397	14884.07143
287.91719	14625.64286
292.14735	14671.35714
296.37445	15204.92857
300.59849	16260.64286
304.81948	17516.92857
309.03742	18493.5
313.25231	18672.21429
317.46415	17597.92857
321.67296	15785.21429
325.87872	14190.35714
330.08145	13452.5
334.28114	13366.21429
338.47781	13736.5
342.67145	14293.92857
346.86207	15205.5
351.04966	16580.21429
355.23424	18175.35714
359.4158	19353.35714
363.59435	19869.92857
367.76989	19912.92857
371.94243	19788.07143
376.11196	19577.07143
380.27849	19367.35714
384.44203	18957.64286
388.60257	18465.21429
392.76012	18092.21429
396.91468	18113.64286
401.06626	18572.78571
405.21485	18982.78571
409.36047	18447.92857
413.50311	16983.5
417.64277	15501.64286
421.77947	14669.78571
425.9132	14314.5
430.04396	14147.07143
434.17176	14229.07143
438.2966	14507.5
442.41849	15040.64286
446.53742	15643.78571
450.6534	16204.92857
454.76644	16457.92857
458.87653	16392.92857
462.98368	16105.64286
467.08789	15656.92857
471.18916	15164.21429
475.2875	14577.78571
479.38291	14087.07143
483.4754	13729.35714
487.56496	13541.21429
491.6516	13397.78571
495.73531	13368.92857
499.81612	13425.07143
503.89401	13663.35714
507.96899	14047.35714
512.04106	14548.92857
516.11023	15088.64286
520.1765	15473.35714
524.23987	15477.35714
528.30034	15138.5
532.35792	14687.64286
536.41261	14275.92857
540.46441	13761.5
544.51333	13444.21429
548.55936	13434.78571
552.60252	13750.5
556.64279	14203.78571
560.6802	14428.78571
564.71473	14783.64286
568.7464	15722.35714
572.7752	16293.92857
576.80114	15383.78571
580.82422	14223.92857
584.84444	13709.92857
588.86181	13661.35714
592.87633	13809.64286
596.888	14135.07143
600.89682	14846.21429
604.9028	17487.35714
608.90594	25045.35714
612.90624	35820.5
616.90371	35069.07143
620.89834	22058.35714
624.89015	15578.78571
628.87913	14297.21429
632.86528	14501.21429
636.84862	14970.5
640.82913	14669.92857
644.80683	13673.5
648.78172	12953.5
652.75379	13034.64286
656.72306	13918.64286
660.68952	14985.78571
664.65319	14724.07143
668.61405	13522.92857
672.57211	12934.78571
676.52738	12860.07143
680.47986	12902.64286
684.42955	12696.35714
688.37646	12625.78571
692.32058	12687.07143
696.26192	12826.92857
700.20048	13046.35714
704.13626	13196.21429
708.06928	13092.07143
711.99952	12916.78571
715.927	12913.78571
719.85171	13035.64286
723.77365	13130.78571
727.69284	13045.92857
731.60928	12908.78571
735.52295	12933.64286
739.43388	12947.64286
743.34206	13020.64286
747.24749	13061.78571
751.15017	13086.07143
755.05012	13377.21429
758.94733	14341.92857
762.8418	16689.5
766.73354	20619.35714
770.62254	24835.78571
774.50882	27569.35714
778.39237	27033.64286
782.27321	22637.78571
786.15132	17766.64286
790.02671	14989.21429
793.89938	13751.21429
797.76935	13300.5
801.6366	13073.5
805.50115	12976.92857
809.36299	12925.07143
813.22213	12862.92857
817.07857	12825.5
820.93231	12823.78571
824.78336	12886.35714
828.63172	12944.64286
832.47738	13032.5
836.32036	12914.07143
840.16066	12767.5
843.99827	12680.35714
847.8332	12626.5
851.66546	12617.5
855.49504	12647.07143
859.32195	12664.64286
863.1462	12578.35714
866.96777	12548.78571
870.78668	12550.92857
874.60293	12609.35714
878.41652	12728.64286
882.22745	12841.21429
886.03573	12959.07143
889.84136	12929.78571
893.64433	12822.92857
897.44466	12787.92857
901.24235	12792.07143
905.0374	12735.78571
908.8298	12580.07143
912.61957	12441.35714
916.40671	12456.78571
920.19121	12530.07143
923.97308	12641.78571
927.75233	12918.21429
931.52895	13244.5
935.30295	13147.64286
939.07433	12636.21429
942.84309	12177.78571
946.60924	11906.64286
950.37278	11775.92857
954.13371	11681.35714
957.89203	11642.92857
961.64774	11634.5
965.40086	11584.5
969.15137	11564.78571
972.89929	11522.35714
976.64461	11546.92857
980.38733	11539.64286
984.12747	11576.07143
987.86502	11632.92857
991.59999	11700.35714
995.33237	11840.92857
999.06217	12090.21429
1002.78939	12397.07143
1006.51404	12714.78571
1010.23611	13067.35714
1013.95561	13268.35714
1017.67255	13268.64286
1021.38692	13092.35714
1025.09872	12820.92857
1028.80796	12628.07143
1032.51465	12655.07143
1036.21877	12844.21429
1039.92035	12918.5
1043.61937	12997.21429
1047.31584	12973.78571
1051.00976	12936.92857
1054.70114	12786.92857
1058.38998	12705.78571
1062.07627	12755.21429
1065.76003	12728.5
1069.44126	12803.07143
1073.11995	12913.5
1076.79611	13230.78571
1080.46974	13661.92857
1084.14085	14325.5
1087.80943	14912.78571
1091.47549	15116.21429
1095.13903	14692.07143
1098.80005	13972.64286
1102.45857	13464.78571
1106.11456	13355.07143
1109.76805	13671.64286
1113.41903	14292.21429
1117.06751	15141.64286
1120.71348	16347.5
1124.35696	17624.92857
1127.99793	18454.64286
1131.63641	17997.21429
1135.2724	16527.07143
1138.90589	15277.64286
1142.5369	14455.35714
1146.16542	13975.5
1149.79145	13673.5
1153.415	13524.92857
1157.03607	13646.78571
1160.65467	13996.21429
1164.27079	14587.07143
1167.88443	15560.92857
1171.49561	17182.21429
1175.10432	19967.64286
1178.71056	23877.92857
1182.31434	26780.5
1185.91565	27329.64286
1189.51451	26157.35714
1193.11091	23898.92857
1196.70485	21454.35714
1200.29634	19831.5
1203.88538	18593.21429
1207.47197	17065.5
1211.05612	15742.21429
1214.63782	14957.07143
1218.21708	14594.92857
1221.79391	14487.92857
1225.36829	14508.07143
1228.94024	14506.78571
1232.50976	14466.64286
1236.07685	14534.78571
1239.6415	14734.78571
1243.20374	14909.92857
1246.76355	15088.21429
1250.32093	15305.07143
1253.8759	15671.78571
1257.42845	16283.78571
1260.97859	16962.07143
1264.52631	17693.35714
1268.07163	18345.21429
1271.61453	18832.78571
1275.15503	19095.64286
1278.69312	19070.92857
1282.22882	19095.64286
1285.76211	19599.64286
1289.29301	20423.07143
1292.82151	21296.35714
1296.34761	22173.92857
1299.87133	23662.92857
1303.39266	26403.21429
1306.9116	30706.35714
1310.42815	35233.64286
1313.94233	37095.92857
1317.45412	34905.07143
1320.96354	30757.07143
1324.47058	26705.78571
1327.97525	23542.92857
1331.47754	21759.92857
1334.97747	21329.64286
1338.47502	21852.64286
1341.97022	23248.07143
1345.46305	25340.78571
1348.95352	28176.92857
1352.44163	31804.07143
1355.92738	37023.21429
1359.41078	44394.92857
1362.89183	50120.92857
1366.37053	47055.07143
1369.84688	38100.92857
1373.32088	30030.07143
1376.79254	24857.35714
1380.26186	22073.92857
1383.72883	20440.07143
1387.19347	19150.78571
1390.65578	17926.35714
1394.11575	16958.21429
1397.57339	16477.21429
1401.0287	16402.78571
1404.48168	16450.07143
1407.93234	16713.21429
1411.38068	17155.64286
1414.82669	17432.07143
1418.27039	17475.78571
1421.71177	17329.21429
1425.15083	17091.07143
1428.58758	17023.21429
1432.02203	17321.78571
1435.45416	17565.35714
1438.88399	17582.21429
1442.31151	17464.21429
1445.73673	17536.92857
1449.15965	17579.35714
1452.58027	17398.07143
1455.9986	17069.07143
1459.41463	16930.21429
1462.82837	17143.07143
1466.23982	17617.78571
1469.64898	18130.07143
1473.05586	18466.64286
1476.46045	18831.64286
1479.86276	19355.35714
1483.26279	20004.07143
1486.66054	20940.21429
1490.05602	22067.92857
1493.44922	23617.07143
1496.84016	25950.35714
1500.22882	29853.92857
1503.61521	35249.64286
1506.99934	41365.78571
1510.38121	46446.64286
1513.76081	47545.07143
1517.13816	43245.5
1520.51324	35808.92857
1523.88607	28933.64286
1527.25665	24634.92857
1530.62498	22243.5
1533.99105	20960.07143
1537.35488	20209.5
1540.71647	19893.5
1544.07581	19912.5
1547.4329	20082.78571
1550.78776	20197.07143
1554.14038	20247.07143
1557.49077	20408.5
1560.83892	20781.5
1564.18484	21622.5
1567.52853	22713.21429
1570.86999	23700.78571
1574.20922	24185.92857
1577.54624	23880.07143
1580.88103	22153.92857
1584.2136	19826.07143
1587.54395	18423.07143
1590.87208	18384.21429
1594.19801	19536.35714
1597.52172	21351.21429
1600.84321	22343.92857
1604.16251	21755.21429
1607.47959	20388.07143
1610.79447	18658.92857
1614.10715	16982.92857
1617.41763	15720.07143
1620.7259	15009.5
1624.03199	14647.5
1627.33587	14680.07143
1630.63757	15083.21429
1633.93707	15923.78571
1637.23439	17283.21429
1640.52951	19499.35714
1643.82246	22860.92857
1647.11321	27030.5
1650.40179	30056.5
1653.68819	29147.07143
1656.97241	24633.78571
1660.25446	19748.07143
1663.53433	16417.07143
1666.81203	14599.92857
1670.08756	13517.64286
1673.36092	12892.92857
1676.63211	12456.92857
1679.90115	12199.78571
1683.16801	11950.92857
1686.43272	11795.64286
1689.69527	11682.35714
1692.95567	11625.92857
1696.2139	11549.64286
1699.46999	11536.07143
1702.72392	11509.78571
1705.97571	11498.07143
1709.22535	11517.35714
1712.47284	11482.92857
1715.71819	11520.78571
1718.96139	11497.92857
1722.20246	11471.5
1725.44139	11373.92857
1728.67818	11319.07143
1731.91284	11198.35714
1735.14537	11114.64286
1738.37576	11042.5
1741.60403	10997.07143
1744.83017	10920.07143
1748.05418	10897.07143
1751.27607	10872.92857
1754.49584	10804.64286
1757.71349	10832.92857
1760.92903	10823.64286
1764.14244	10791.92857
1767.35375	10751.21429
1770.56294	10692.07143
1773.77002	10655.07143
1776.97499	10638.92857
1780.17785	10591.35714
1783.37861	10570.64286
1786.57727	10490.07143
1789.77382	10513.78571
1792.96828	10483.64286
1796.16064	10490.78571
1799.3509	10459.92857
1802.53907	10428.07143
1805.72514	10375.92857
1808.90913	10355.35714
1812.09102	10329.35714
1815.27083	10304.07143
1818.44856	10271.21429
1821.6242	10253.5
1824.79776	10223.92857
1827.96924	10184.78571
1831.13864	10176.35714
1834.30597	10166.21429
1837.47122	10161.78571
1840.6344	10151.07143
1843.7955	10146.07143
1846.95454	10104.35714
1850.11151	10124.5
1853.26642	10109.5
1856.41926	10076.64286
1859.57004	10112.5
1862.71876	10089.64286
1865.86542	10118.35714
1869.01003	10097.92857
1872.15258	10104.35714
1875.29308	10135.92857
1878.43152	10083.07143
1881.56792	10130.35714
1884.70227	10075.78571
1887.83457	10058.21429
1890.96482	10097.35714
1894.09304	10025.07143
1897.21921	10074.64286
1900.34335	10035.78571
1903.46544	10038.21429
1906.58551	10031.07143
1909.70353	10014.5
1912.81953	10019.92857
1915.93349	10001.5
1919.04543	9953.64286
1922.15534	9981.21429
1925.26322	9943.92857
1928.36908	9944.64286
1931.47292	9909.35714
1934.57473	9859.35714
1937.67453	9862.07143
1940.77232	9787.64286
1943.86808	9760.5
1946.96184	9741.21429
1950.05358	9707.5
1953.14331	9715.35714
1956.23103	9669.92857
1959.31675	9667.21429
1962.40046	9645.07143
1965.48217	9592.35714
1968.56188	9606.07143
1971.63959	9593.64286
1974.7153	9556.64286
1977.78901	9527.92857
1980.86073	9497.35714
1983.93046	9455.21429
1986.99819	9394.78571
1990.06394	9366.92857
1993.1277	9348.5
1996.18947	9278.78571
1999.24925	9265.92857
2002.30706	9268.64286
2005.36288	9188.78571
2008.41672	9189.92857
2011.46859	9134.07143
2014.51848	9135.78571
2017.56639	9102.92857
2020.61233	9099.78571
2023.6563	9041.78571
2026.6983	9023.07143
2029.73833	9004.35714
2032.7764	8983.21429
2035.8125	8962.78571
2038.84664	8942.21429
2041.87881	8912.35714
2044.90903	8933.64286
2047.93729	8919.21429
2050.96359	8879.07143
2053.98794	8877.35714
2057.01034	8856.78571
2060.03078	8848.07143
2063.04927	8805.78571
2066.06582	8819.92857
2069.08042	8802.64286
2072.09307	8783.07143
2075.10378	8819.78571
2078.11255	8790.92857
2081.11938	8809.5
2084.12426	8804.35714
2087.12722	8771.64286
2090.12824	8787.35714
2093.12732	8764.92857
2096.12447	8773.21429
2099.11969	8770.07143
2102.11299	8785.5
2105.10435	8803.07143
2108.09379	8791.64286
2111.08131	8788.5
2114.0669	8837.64286
2117.05057	8827.64286
2120.03233	8820.78571
2123.01216	8835.07143
2125.99008	8812.64286
2128.96609	8864.92857
2131.94018	8862.5
2134.91236	8856.07143
2137.88263	8846.78571
2140.851	8844.07143
2143.81746	8859.07143
2146.78201	8826.64286
2149.74466	8820.92857
2152.7054	8833.92857
2155.66425	8835.78571
2158.6212	8805.35714
2161.57625	8787.92857
2164.52941	8779.78571
2167.48067	8739.78571
2170.43004	8759.21429
2173.37752	8780.35714
2176.32311	8774.64286
2179.26681	8774.64286
2182.20863	8764.64286
2185.14856	8776.64286
2188.08661	8788.92857
2191.02278	8769.35714
2193.95707	8774.92857
2196.88948	8739.5
2199.82001	8740.92857
2202.74867	8725.21429
2205.67545	8713.21429
2208.60037	8710.21429
2211.52341	8691.5
2214.44458	8669.21429
2217.36388	8672.35714
2220.28132	8643.5
2223.1969	8627.5
2226.11061	8639.07143
2229.02246	8576.21429
2231.93245	8589.07143
2234.84058	8516.35714
2237.74686	8524.5
2240.65128	8527.21429
2243.55385	8497.5
2246.45456	8506.64286
2249.35343	8499.78571
2252.25044	8520.92857
2255.14561	8515.78571
2258.03893	8513.64286
2260.93041	8516.07143
2263.82004	8492.35714
2266.70783	8482.21429
2269.59378	8471.64286
2272.4779	8445.21429
2275.36017	8417.64286
2278.24061	8398.35714
2281.11922	8363.07143
2283.996	8383.07143
2286.87094	8359.07143
2289.74405	8297.35714
2292.61534	8298.92857
2295.4848	8267.07143
2298.35243	8282.5
2301.21824	8287.92857
2304.08223	8262.35714
2306.94439	8267.5
2309.80474	8288.35714
2312.66327	8248.78571
2315.51999	8246.64286
2318.37489	8239.07143
2321.22797	8255.92857
2324.07925	8234.35714
2326.92871	8226.92857
2329.77637	8192.07143
2332.62222	8183.5
2335.46626	8168.21429
2338.3085	8171.07143
2341.14893	8202.35714
2343.98756	8179.5
2346.8244	8189.64286
2349.65943	8171.35714
2352.49267	8196.07143
2355.32411	8219.35714
2358.15376	8224.64286
2360.98161	8251.21429
2363.80768	8244.78571
2366.63195	8263.35714
2369.45444	8271.92857
2372.27514	8256.5
2375.09405	8232.64286
2377.91118	8233.35714
2380.72652	8156.5
2383.54009	8127.07143
2386.35187	8080.35714
2389.16188	8046.78571
2391.97011	8044.35714
2394.77657	8023.35714
2397.58125	7963.21429
2400.38416	7962.5
2403.18529	7959.92857
2405.98466	7928.5
2408.78226	7914.21429
2411.57809	7886.78571
2414.37216	7866.5
2417.16446	7879.64286
2419.955	7885.92857
2422.74378	7865.64286
2425.5308	7848.78571
2428.31606	7861.21429
2431.09956	7865.35714
2433.88131	7865.35714
2436.6613	7859.35714
2439.43954	7872.92857
2442.21603	7850.35714
2444.99077	7852.5
2447.76377	7868.07143
2450.53501	7858.64286
2453.30451	7871.5
2456.07226	7849.07143
2458.83827	7857.07143
2461.60254	7828.5
2464.36507	7825.35714
2467.12586	7808.64286
2469.88492	7779.21429
2472.64224	7808.5
2475.39782	7840.92857
2478.15167	7840.21429
2480.90379	7865.64286
2483.65417	7903.78571
2486.40283	7920.64286
2489.14976	7953.21429
2491.89497	7926.07143
2494.63845	7946.35714
2497.3802	7938.92857
2500.12024	7926.07143
2502.85855	7885.5
2505.59514	7869.64286
2508.33002	7816.92857
2511.06318	7766.21429
2513.79462	7752.78571
2516.52435	7709.35714
2519.25237	7667.92857
2521.97867	7645.64286
2524.70327	7620.5
2527.42616	7593.78571
2530.14734	7587.35714
2532.86681	7565.64286
2535.58458	7590.21429
2538.30065	7579.35714
2541.01501	7608.92857
2543.72768	7563.5
2546.43864	7583.35714
2549.14791	7581.35714
2551.85548	7578.78571
2554.56136	7574.64286
2557.26554	7537.5
2559.96803	7573.21429
2562.66883	7544.21429
2565.36794	7508.21429
2568.06536	7515.64286
2570.7611	7513.92857
2573.45514	7456.64286
2576.14751	7475.21429
2578.83819	7440.78571
2581.52719	7435.78571
2584.21451	7436.35714
2586.90015	7423.92857
2589.58411	7386.92857
2592.2664	7400.92857
2594.94701	7381.07143
2597.62594	7362.64286
2600.30321	7367.64286
2602.9788	7365.78571
2605.65273	7368.07143
2608.32498	7364.92857
2610.99557	7337.78571
2613.66449	7351.64286
2616.33175	7367.35714
2618.99734	7367.92857
2621.66128	7358.21429
2624.32355	7332.78571
2626.98416	7322.35714
2629.64311	7302.92857
2632.30041	7282.5
2634.95605	7282.07143
2637.61004	7246.5
2640.26238	7239.35714
2642.91306	7237.21429
2645.56209	7218.64286
2648.20948	7230.78571
2650.85521	7202.5
2653.4993	7210.07143
2656.14175	7203.78571
2658.78255	7240.21429
2661.42171	7209.78571
2664.05923	7240.64286
2666.6951	7253.92857
2669.32934	7244.64286
2671.96194	7284.64286
2674.59291	7268.35714
2677.22224	7274.21429
2679.84993	7277.21429
2682.476	7260.07143
2685.10043	7284.35714
2687.72324	7256.5
2690.34441	7246.35714
2692.96396	7267.35714
2695.58188	7273.35714
2698.19818	7268.78571
2700.81285	7244.35714
2703.4259	7219.35714
2706.03733	7260.35714
2708.64714	7279.78571
2711.25533	7263.92857
2713.86191	7280.35714
2716.46687	7287.21429
2719.07021	7282.78571
2721.67194	7263.92857
2724.27206	7285.07143
2726.87057	7290.78571
2729.46747	7287.92857
2732.06276	7270.92857
2734.65644	7227.92857
2737.24852	7222.07143
2739.83899	7241.78571
2742.42786	7244.35714
2745.01513	7222.78571
2747.60079	7200.78571
2750.18486	7170.21429
2752.76733	7154.35714
2755.3482	7186.5
2757.92747	7188.5
2760.50515	7164.64286
2763.08123	7148.78571
2765.65573	7140.64286
2768.22863	7139.78571
2770.79994	7114.92857
2773.36967	7115.78571
2775.9378	7106.5
2778.50435	7107.35714
2781.06932	7109.21429
2783.6327	7101.35714
2786.1945	7129.07143
2788.75471	7107.35714
2791.31335	7098.78571
2793.87041	7087.21429
2796.42589	7090.92857
2798.97979	7106.21429
2801.53212	7088.92857
2804.08288	7084.64286
2806.63206	7079.78571
2809.17967	7087.21429
2811.72571	7066.64286
2814.27018	7074.64286
2816.81308	7074.64286
2819.35442	7088.21429
2821.89419	7091.64286
2824.43239	7069.64286
2826.96904	7101.64286
2829.50412	7077.07143
2832.03763	7097.78571
2834.56959	7089.35714
2837.1	7111.92857
2839.62884	7110.5
2842.15613	7103.78571
2844.68186	7139.07143
2847.20604	7194.5
2849.72867	7215.35714
2852.24974	7240.5
2854.76927	7254.21429
2857.28724	7220.5
2859.80367	7226.64286
2862.31855	7205.78571
2864.83189	7211.64286
2867.34368	7215.64286
2869.85393	7193.92857
2872.36264	7197.64286
2874.8698	7191.35714
2877.37543	7174.5
2879.87952	7170.35714
2882.38207	7159.78571
2884.88308	7140.92857
2887.38256	7145.21429
2889.88051	7126.21429
2892.37692	7132.92857
2894.8718	7107.78571
2897.36515	7144.35714
2899.85698	7132.07143
2902.34727	7133.5
2904.83604	7125.92857
2907.32328	7139.35714
2909.809	7127.78571
2912.29319	7138.5
2914.77587	7136.21429
2917.25702	7130.21429
2919.73665	7108.35714
2922.21476	7107.5
2924.69136	7108.35714
2927.16644	7090.64286
2929.64	7064.35714
2932.11205	7066.21429
2934.58258	7013.07143
2937.05161	7025.21429
2939.51912	7005.35714
2941.98513	6983.92857
2944.44962	6937.92857
2946.91261	6923.35714
2949.37409	6939.35714
2951.83407	6926.07143
2954.29254	6874.5
2956.74951	6879.35714
2959.20498	6897.64286
2961.65895	6857.64286
2964.11142	6832.35714
2966.56239	6828.78571
2969.01186	6823.21429
2971.45984	6789.78571
2973.90632	6793.92857
2976.35131	6779.78571
2978.7948	6748.07143
2981.23681	6746.64286
2983.67732	6706.78571
2986.11635	6699.64286
2988.55388	6695.21429
2990.98993	6659.07143
2993.4245	6656.5
2995.85758	6658.35714
2998.28917	6652.78571
3000.71928	6643.92857
3003.14791	6629.78571
3005.57506	6617.35714
3008.00073	6598.64286
3010.42493	6595.92857
3012.84764	6593.07143
3015.26888	6590.78571
3017.68865	6565.78571
3020.10694	6561.35714
3022.52376	6543.64286
3024.9391	6548.21429
3027.35298	6535.21429
3029.76539	6528.5
3032.17632	6517.64286
3034.5858	6503.21429
3036.9938	6487.78571
3039.40034	6558.07143
3041.80542	6447.21429
3044.20903	6449.78571
3046.61118	6470.35714
3049.01187	6398.64286
3051.4111	6419.92857
3053.80888	6385.21429
3056.20519	6404.35714
3058.60005	6369.64286
3060.99345	6374.5
3063.3854	6369.78571
3065.7759	6320.92857
3068.16494	6326.35714
3070.55254	6297.21429
3072.93868	6274.07143
3075.32338	6256.35714
3077.70662	6256.35714
3080.08842	6255.21429
3082.46878	6204.35714
3084.84769	6207.5
3087.22515	6204.07143
3089.60118	6219.21429
3091.97576	6241.35714
3094.3489	6205.78571
3096.72061	6205.35714
3099.09087	6201.78571
3101.4597	6195.07143
3103.82709	6189.07143
3106.19305	6188.07143
3108.55757	6199.21429
3110.92066	6169.92857
3113.28232	6179.21429
3115.64255	6164.21429
3118.00134	6140.07143
3120.35871	6147.07143
3122.71466	6117.78571
3125.06917	6127.35714
3127.42226	6106.5
3129.77393	6124.35714
3132.12417	6123.35714
3134.47299	6125.5
3136.82039	6121.21429
3139.16636	6119.64286
3141.51092	6157.78571
3143.85406	6148.78571
3146.19579	6149.92857
3148.53609	6156.78571
3150.87499	6150.21429
3153.21246	6172.78571
3155.54853	6171.21429
3157.88318	6180.07143
3160.21642	6211.21429
3162.54826	6200.07143
3164.87868	6185.07143
3167.2077	6200.64286
3169.5353	6207.5
3171.86151	6198.21429
3174.18631	6192.21429
3176.5097	6177.78571
3178.83169	6185.35714
3181.15228	6211.35714
3183.47147	6208.92857
3185.78926	6204.35714
3188.10565	6204.64286
3190.42065	6174.78571
3192.73424	6213.07143
3195.04645	6209.07143
3197.35725	6205.21429
3199.66667	6204.21429
3201.97469	6209.07143
3204.28132	6192.92857
3206.58656	6261.78571
3208.8904	6244.92857
3211.19287	6249.92857
3213.49394	6273.78571
3215.79363	6269.35714
3218.09193	6274.5
3220.38884	6262.92857
3222.68438	6302.35714
3224.97853	6291.78571
3227.2713	6273.64286
3229.56269	6304.21429
3231.8527	6291.35714
3234.14133	6265.78571
3236.42858	6234.21429
3238.71446	6263.21429
3240.99896	6243.78571
3243.28209	6226.92857
3245.56384	6220.64286
3247.84423	6221.64286
3250.12324	6222.35714
3252.40088	6203.21429
3254.67715	6220.92857
3256.95205	6184.78571
3259.22558	6188.78571
3261.49775	6186.64286
3263.76855	6185.07143
3266.03799	6182.64286
3268.30606	6188.92857
3270.57277	6135.64286
3272.83812	6144.35714
3275.10211	6128.92857
3277.36474	6115.78571
3279.62601	6128.07143
3281.88593	6127.64286
3284.14448	6126.5
3286.40168	6111.92857
3288.65753	6114.92857
3290.91202	6104.5
3293.16516	6091.21429
3295.41695	6081.5
3297.66738	6040.07143
3299.91647	6031.78571
3302.16421	6004.5
3304.4106	5964.35714
3306.65564	5941.64286
3308.89933	5895.92857
3311.14169	5824.64286
3313.38269	5798.92857
3315.62236	5753.64286
3317.86068	5706.92857
3320.09766	5630.21429
3322.3333	5627.35714
3324.5676	5603.5
3326.80056	5527.5
3329.03219	5476.78571
3331.26248	0.78571
3333.49143	-1.35714
3335.71905	-0.21429
