Data from AgNPs_FTO_APTES_UA_20uM_CRN_5uM_R6G_10uM_NaF_0.1M_Addition_RamanShift__14__13-48-12-150.txt Node

Date: Thu Feb 17 13:48:12 GMT 2022
User: TCL
Spectrometer: QEP01345
Trigger mode: 4
Integration Time (sec): 7.000000E0
Scans to average: 10
Electric dark correction enabled: true
Nonlinearity correction enabled: false
Boxcar width: 0
XAxis mode: Raman Shifts
Number of Pixels in Spectrum: 1044
>>>>>Begin Spectral Data<<<<<
46.04893	0.2
50.45542	-0.5
54.85868	-3.5
59.25871	-2.2
63.6555	136.3
68.04907	138.3
72.43941	144.2
76.82654	145.7
81.21044	150.1
85.59113	158.9
89.96862	158.6
94.34289	159.9
98.71396	171.9
103.08183	173.4
107.4465	182
111.80798	181
116.16626	188.9
120.52136	202.4
124.87327	207.7
129.222	224.3
133.56755	239.7
137.90993	260.7
142.24913	283.8
146.58517	328.5
150.91804	387.4
155.24774	461.9
159.57429	578.3
163.89768	762.3
168.21792	1010.1
172.53501	1399.2
176.84895	1970.2
181.15975	2790
185.46741	3937.1
189.77193	5469.9
194.07331	7396.3
198.37157	9542.9
202.6667	11858.8
206.9587	14161.5
211.24758	16347.7
215.53334	18564.4
219.81599	20837.7
224.09553	23365.9
228.37195	26107.5
232.64527	29129
236.91549	32354.2
241.18261	35756.7
245.44663	39020.4
249.70755	42138.1
253.96539	44847
258.22014	47154.7
262.4718	48937.1
266.72039	50311.1
270.96589	51077.7
275.20832	51302.7
279.44768	51086.4
283.68397	50777.6
287.91719	50400.9
292.14735	50004.6
296.37445	49891.5
300.59849	49830.4
304.81948	49857.5
309.03742	49718.1
313.25231	49388
317.46415	48864.2
321.67296	48194.9
325.87872	47698.3
330.08145	47491.3
334.28114	47692.9
338.47781	48036.5
342.67145	48544.2
346.86207	49246.3
351.04966	49961.7
355.23424	50658
359.4158	51288.6
363.59435	51820.7
367.76989	52246.7
371.94243	52621.2
376.11196	52949.6
380.27849	53275.1
384.44203	53644.6
388.60257	54038.1
392.76012	54547.3
396.91468	55083.6
401.06626	55731.2
405.21485	56161.5
409.36047	56298.3
413.50311	55989.3
417.64277	55647.9
421.77947	55736.4
425.9132	55957
430.04396	56264.2
434.17176	56610.5
438.2966	57054
442.41849	57609
446.53742	58404.1
450.6534	59281.2
454.76644	60107
458.87653	60536.3
462.98368	60768
467.08789	60631.6
471.18916	60410.5
475.2875	60091.5
479.38291	59981.9
483.4754	59818.2
487.56496	59561.9
491.6516	59244.9
495.73531	58823.9
499.81612	58588.3
503.89401	58781.1
507.96899	58969
512.04106	59074.3
516.11023	58990.5
520.1765	58916.6
524.23987	58684.1
528.30034	58438.2
532.35792	58273.1
536.41261	58027.6
540.46441	57918.2
544.51333	58003.5
548.55936	58372.7
552.60252	59147.3
556.64279	59932.7
560.6802	60574
564.71473	60905
568.7464	61552.7
572.7752	62498.9
576.80114	63615.9
580.82422	64610.5
584.84444	65328
588.86181	65786.4
592.87633	65968.9
596.888	65709.5
600.89682	65351
604.9028	66219.7
608.90594	68996.4
612.90624	71454.4
616.90371	68772.3
620.89834	63149
624.89015	60671.1
628.87913	60430.1
632.86528	60819.2
636.84862	60994
640.82913	60716.3
644.80683	60051.1
648.78172	59496.8
652.75379	59406.5
656.72306	59860.4
660.68952	60443.6
664.65319	60482.9
668.61405	60113.7
672.57211	60091.1
676.52738	60305.2
680.47986	60359.3
684.42955	60182.2
688.37646	60154.5
692.32058	60366.2
696.26192	60793.6
700.20048	61360.1
704.13626	61730.2
708.06928	61865.9
711.99952	61776.7
715.927	61636.3
719.85171	61642.1
723.77365	61555.3
727.69284	61327.2
731.60928	60952.1
735.52295	60788
739.43388	60783.9
743.34206	60972.6
747.24749	61132.5
751.15017	61421.6
755.05012	61914.1
758.94733	62787.4
762.8418	64331.4
766.73354	66834.5
770.62254	69128.9
774.50882	69533.9
778.39237	67942.5
782.27321	65554.6
786.15132	63536.2
790.02671	62222.2
793.89938	61548.1
797.76935	61240.6
801.6366	61009.1
805.50115	60857.2
809.36299	60859.6
813.22213	60706.7
817.07857	60641
820.93231	60758.7
824.78336	60715
828.63172	60740.4
832.47738	60667.5
836.32036	60714.2
840.16066	60588.1
843.99827	60708.3
847.8332	60802.3
851.66546	60885.7
855.49504	60936
859.32195	61034.6
863.1462	61043.8
866.96777	61196.9
870.78668	61251.4
874.60293	61224.8
878.41652	61360.3
882.22745	61361.1
886.03573	61511.8
889.84136	61536
893.64433	61428
897.44466	61278.2
901.24235	61215.6
905.0374	61117.7
908.8298	61072.3
912.61957	61180.7
916.40671	61408.3
920.19121	61800.9
923.97308	62005.8
927.75233	61915.4
931.52895	61523.4
935.30295	61239.8
939.07433	60756
942.84309	60400.9
946.60924	60167.8
950.37278	60134.1
954.13371	60303.2
957.89203	60287
961.64774	60230.7
965.40086	60161.8
969.15137	60068.2
972.89929	59993.7
976.64461	59907.1
980.38733	59843.9
984.12747	59911.4
987.86502	60144.1
991.59999	60321
995.33237	60649.7
999.06217	61043.4
1002.78939	61636.8
1006.51404	62239.4
1010.23611	62844.7
1013.95561	63307.9
1017.67255	63418.4
1021.38692	63188.5
1025.09872	62746.6
1028.80796	62308.4
1032.51465	62133.3
1036.21877	62121.5
1039.92035	62234.1
1043.61937	62392.5
1047.31584	62485.5
1051.00976	62560.4
1054.70114	62848.9
1058.38998	63147.8
1062.07627	63588
1065.76003	64163.9
1069.44126	64673.3
1073.11995	65370
1076.79611	65950.9
1080.46974	66346.7
1084.14085	66464.9
1087.80943	66694
1091.47549	67006.1
1095.13903	67066.4
1098.80005	66819.8
1102.45857	66219.4
1106.11456	65616.7
1109.76805	65222.6
1113.41903	65096
1117.06751	65100.4
1120.71348	65401.6
1124.35696	65702
1127.99793	66001.1
1131.63641	66084.9
1135.2724	65966.7
1138.90589	65810.2
1142.5369	65815.7
1146.16542	65894.6
1149.79145	66072.5
1153.415	66337
1157.03607	66738.2
1160.65467	67446.8
1164.27079	68597.2
1167.88443	70209.4
1171.49561	72240.7
1175.10432	74649.9
1178.71056	77567.3
1182.31434	80313.3
1185.91565	82099.7
1189.51451	82643.6
1193.11091	82181.9
1196.70485	80989.9
1200.29634	79392
1203.88538	77949.5
1207.47197	76990.5
1211.05612	76028.6
1214.63782	75095.8
1218.21708	73969.7
1221.79391	72918.3
1225.36829	72149.4
1228.94024	71792.2
1232.50976	71323.7
1236.07685	71068.9
1239.6415	70968.9
1243.20374	71054.6
1246.76355	71399
1250.32093	71900.7
1253.8759	72622.9
1257.42845	73653.1
1260.97859	74750.6
1264.52631	75882.3
1268.07163	77086.2
1271.61453	78020.5
1275.15503	78781.9
1278.69312	79676.2
1282.22882	80612.1
1285.76211	81689
1289.29301	83075.5
1292.82151	84817.9
1296.34761	86858.3
1299.87133	89279.8
1303.39266	91723.3
1306.9116	94173.3
1310.42815	96364.6
1313.94233	97628.2
1317.45412	97734.8
1320.96354	97217.4
1324.47058	96888.7
1327.97525	96461.4
1331.47754	96274.9
1334.97747	96313.6
1338.47502	96749.3
1341.97022	97497.3
1345.46305	98385.3
1348.95352	98622.5
1352.44163	98261.7
1355.92738	97816.9
1359.41078	98094
1362.89183	98221.2
1366.37053	96585.2
1369.84688	92178.6
1373.32088	87047.1
1376.79254	83312.8
1380.26186	81608.7
1383.72883	81008.6
1387.19347	80826.3
1390.65578	80317.3
1394.11575	79873.9
1397.57339	79519.3
1401.0287	79675.1
1404.48168	79744.9
1407.93234	79523.1
1411.38068	78940.7
1414.82669	77722.2
1418.27039	76359.9
1421.71177	74763
1425.15083	73546.4
1428.58758	73014.2
1432.02203	73183
1435.45416	73830.6
1438.88399	74862.8
1442.31151	75796.9
1445.73673	76511
1449.15965	76967.9
1452.58027	77375.5
1455.9986	77719.6
1459.41463	78171
1462.82837	79034.2
1466.23982	79782.9
1469.64898	80607
1473.05586	81335.2
1476.46045	81524.4
1479.86276	81392.6
1483.26279	81208.1
1486.66054	81087.2
1490.05602	81380.2
1493.44922	82089.5
1496.84016	83163.6
1500.22882	84678.5
1503.61521	86804.8
1506.99934	89095.2
1510.38121	90583.7
1513.76081	90384.6
1517.13816	88882.7
1520.51324	86871.8
1523.88607	85338
1527.25665	84718.6
1530.62498	84460.1
1533.99105	84311.4
1537.35488	83661.8
1540.71647	82710.6
1544.07581	81659.6
1547.4329	80658.8
1550.78776	79651.3
1554.14038	79029.5
1557.49077	78649.7
1560.83892	78416.3
1564.18484	78487.1
1567.52853	78629.8
1570.86999	78988.7
1574.20922	79496.7
1577.54624	79862.8
1580.88103	79558.5
1584.2136	79293.6
1587.54395	79826.3
1590.87208	81278.9
1594.19801	83373.7
1597.52172	85742.9
1600.84321	86379.3
1604.16251	84745.2
1607.47959	82142.7
1610.79447	79256.9
1614.10715	76017.6
1617.41763	73006.7
1620.7259	70549.9
1624.03199	69082
1627.33587	68640.9
1630.63757	69199.3
1633.93707	71028.7
1637.23439	74234.8
1640.52951	79135.2
1643.82246	84852.5
1647.11321	89567.6
1650.40179	90883.9
1653.68819	87875.1
1656.97241	81732.4
1660.25446	75213.6
1663.53433	69973.3
1666.81203	66474.1
1670.08756	64194
1673.36092	62649.9
1676.63211	61642.2
1679.90115	60897.9
1683.16801	60297.6
1686.43272	59894.8
1689.69527	59606.7
1692.95567	59363.3
1696.2139	59256.9
1699.46999	59094
1702.72392	59048.4
1705.97571	58941.1
1709.22535	58811.5
1712.47284	58810.9
1715.71819	58847.8
1718.96139	58770.6
1722.20246	58621.4
1725.44139	58481.5
1728.67818	58276.8
1731.91284	58078.4
1735.14537	57830.9
1738.37576	57731.2
1741.60403	57605.8
1744.83017	57357
1748.05418	57216.2
1751.27607	57170.5
1754.49584	57090.2
1757.71349	57144.4
1760.92903	57139.1
1764.14244	57077.4
1767.35375	56974.1
1770.56294	56918.6
1773.77002	56933.2
1776.97499	56851.3
1780.17785	56797.3
1783.37861	56656.5
1786.57727	56614.8
1789.77382	56520.8
1792.96828	56581
1796.16064	56454.5
1799.3509	56388.7
1802.53907	56230.9
1805.72514	56151.2
1808.90913	55957.4
1812.09102	55867.3
1815.27083	55850.6
1818.44856	55781.1
1821.6242	55733.5
1824.79776	55666.3
1827.96924	55594.7
1831.13864	55547.1
1834.30597	55529.1
1837.47122	55525.6
1840.6344	55453.5
1843.7955	55490.5
1846.95454	55473.7
1850.11151	55431.1
1853.26642	55290.2
1856.41926	55355
1859.57004	55330.6
1862.71876	55173.8
1865.86542	55150.5
1869.01003	55048.6
1872.15258	55035.4
1875.29308	54902.7
1878.43152	54798.6
1881.56792	54818.7
1884.70227	54795.3
1887.83457	54779.9
1890.96482	54713.6
1894.09304	54628.2
1897.21921	54539.7
1900.34335	54461.6
1903.46544	54393.6
1906.58551	54333.8
1909.70353	54326.3
1912.81953	54200.6
1915.93349	54140.5
1919.04543	54011.4
1922.15534	54020.9
1925.26322	53933.7
1928.36908	53812.5
1931.47292	53793.2
1934.57473	53679.3
1937.67453	53534.8
1940.77232	53382.6
1943.86808	53269.9
1946.96184	53192.2
1950.05358	53005.5
1953.14331	52841.7
1956.23103	52701.1
1959.31675	52601.6
1962.40046	52440
1965.48217	52231.4
1968.56188	52042.1
1971.63959	51912.7
1974.7153	51826.6
1977.78901	51651.8
1980.86073	51513.2
1983.93046	51436
1986.99819	51259.5
1990.06394	51128.7
1993.1277	51051.7
1996.18947	50852.6
1999.24925	50770.5
2002.30706	50619.6
2005.36288	50483
2008.41672	50296.5
2011.46859	50085.8
2014.51848	50042.4
2017.56639	49830.4
2020.61233	49783.4
2023.6563	49582.7
2026.6983	49435.8
2029.73833	49307.3
2032.7764	49224.4
2035.8125	49146.2
2038.84664	49070.3
2041.87881	48956.6
2044.90903	48924
2047.93729	48828
2050.96359	48786.2
2053.98794	48669.5
2057.01034	48643.1
2060.03078	48694.1
2063.04927	48594.8
2066.06582	48568.5
2069.08042	48552.4
2072.09307	48521.8
2075.10378	48409
2078.11255	48449.4
2081.11938	48426.9
2084.12426	48396.6
2087.12722	48323.6
2090.12824	48316.4
2093.12732	48374.7
2096.12447	48334.2
2099.11969	48361.1
2102.11299	48324.4
2105.10435	48321.1
2108.09379	48383.4
2111.08131	48426.8
2114.0669	48422
2117.05057	48433
2120.03233	48546.7
2123.01216	48578.8
2125.99008	48666.1
2128.96609	48730.7
2131.94018	48766.4
2134.91236	48803.8
2137.88263	48821.1
2140.851	48770.4
2143.81746	48883.3
2146.78201	48881.7
2149.74466	48856.4
2152.7054	48876.6
2155.66425	48847.7
2158.6212	48902.8
2161.57625	48843.2
2164.52941	48789.5
2167.48067	48774.7
2170.43004	48712.7
2173.37752	48717.9
2176.32311	48800.4
2179.26681	48760.5
2182.20863	48701.4
2185.14856	48756.4
2188.08661	48731.7
2191.02278	48728.6
2193.95707	48654
2196.88948	48582.8
2199.82001	48536.9
2202.74867	48467
2205.67545	48452.5
2208.60037	48333
2211.52341	48325.4
2214.44458	48326.6
2217.36388	48184.8
2220.28132	48099.3
2223.1969	48015.6
2226.11061	47851.1
2229.02246	47711.2
2231.93245	47673.1
2234.84058	47610
2237.74686	47563.1
2240.65128	47511.7
2243.55385	47400.6
2246.45456	47418.3
2249.35343	47368.4
2252.25044	47313
2255.14561	47237
2258.03893	47165.8
2260.93041	47022.9
2263.82004	46911.1
2266.70783	46831.6
2269.59378	46702.5
2272.4779	46645
2275.36017	46582.7
2278.24061	46565.2
2281.11922	46428.4
2283.996	46271.6
2286.87094	46297.6
2289.74405	46241.9
2292.61534	46157.6
2295.4848	46038.6
2298.35243	46041.6
2301.21824	45973
2304.08223	45963.3
2306.94439	45874.6
2309.80474	45964.7
2312.66327	45900.1
2315.51999	45788.2
2318.37489	45716.9
2321.22797	45669.9
2324.07925	45638.3
2326.92871	45501.9
2329.77637	45440.6
2332.62222	45365
2335.46626	45297
2338.3085	45277.7
2341.14893	45195.4
2343.98756	45129.7
2346.8244	45111.9
2349.65943	45090.5
2352.49267	45023.6
2355.32411	45078.1
2358.15376	44956.8
2360.98161	45023
2363.80768	44978.7
2366.63195	44923.2
2369.45444	44915.9
2372.27514	44839.7
2375.09405	44831.7
2377.91118	44705.6
2380.72652	44621.2
2383.54009	44510.4
2386.35187	44411.4
2389.16188	44275.1
2391.97011	44176.7
2394.77657	44168.4
2397.58125	44031.1
2400.38416	43954.5
2403.18529	43940.2
2405.98466	43945.9
2408.78226	43813.1
2411.57809	43751.9
2414.37216	43703.8
2417.16446	43635.5
2419.955	43644.3
2422.74378	43568.4
2425.5308	43548.3
2428.31606	43574.9
2431.09956	43496.6
2433.88131	43431.1
2436.6613	43403.6
2439.43954	43411.9
2442.21603	43369.9
2444.99077	43241.4
2447.76377	43296.7
2450.53501	43221.5
2453.30451	43211
2456.07226	43158.8
2458.83827	43078.3
2461.60254	43008.2
2464.36507	43001.6
2467.12586	42960.3
2469.88492	42944.7
2472.64224	42872.4
2475.39782	42811.7
2478.15167	42886.6
2480.90379	42847
2483.65417	42867.8
2486.40283	42820.4
2489.14976	42814
2491.89497	42717
2494.63845	42732.3
2497.3802	42660.9
2500.12024	42606.8
2502.85855	42565.6
2505.59514	42564.9
2508.33002	42403.6
2511.06318	42424.1
2513.79462	42371.6
2516.52435	42360.2
2519.25237	42298.5
2521.97867	42264.7
2524.70327	42201.6
2527.42616	42197
2530.14734	42155.8
2532.86681	42083.8
2535.58458	42005.3
2538.30065	41943.1
2541.01501	41899.4
2543.72768	41877.2
2546.43864	41833.6
2549.14791	41755.6
2551.85548	41640.4
2554.56136	41541.6
2557.26554	41483.9
2559.96803	41314
2562.66883	41363.2
2565.36794	41330.8
2568.06536	41195.4
2570.7611	41127.1
2573.45514	41014.2
2576.14751	40943.4
2578.83819	40872.8
2581.52719	40854
2584.21451	40709.1
2586.90015	40717.2
2589.58411	40644.2
2592.2664	40563
2594.94701	40516.9
2597.62594	40527.4
2600.30321	40444.3
2602.9788	40430.1
2605.65273	40287.5
2608.32498	40306.2
2610.99557	40255.9
2613.66449	40260.3
2616.33175	40155.3
2618.99734	40068.8
2621.66128	39959
2624.32355	39869.6
2626.98416	39873.9
2629.64311	39827.8
2632.30041	39837.4
2634.95605	39769.9
2637.61004	39681.1
2640.26238	39695.6
2642.91306	39602.2
2645.56209	39528.6
2648.20948	39534.4
2650.85521	39480.9
2653.4993	39513.9
2656.14175	39491.7
2658.78255	39512
2661.42171	39502.6
2664.05923	39540.8
2666.6951	39511.6
2669.32934	39544.3
2671.96194	39460.7
2674.59291	39495.6
2677.22224	39534.5
2679.84993	39565
2682.476	39419
2685.10043	39440.7
2687.72324	39376.4
2690.34441	39410.9
2692.96396	39362.7
2695.58188	39403.9
2698.19818	39328.1
2700.81285	39300.6
2703.4259	39292.6
2706.03733	39386.7
2708.64714	39316.1
2711.25533	39337.8
2713.86191	39347.9
2716.46687	39407.3
2719.07021	39341.3
2721.67194	39329.9
2724.27206	39320.1
2726.87057	39290.6
2729.46747	39281.6
2732.06276	39207
2734.65644	39254.6
2737.24852	39290.3
2739.83899	39200.3
2742.42786	39199.3
2745.01513	39191.8
2747.60079	39157.2
2750.18486	39044.8
2752.76733	39075.3
2755.3482	38937.8
2757.92747	38890.2
2760.50515	38830.4
2763.08123	38827.5
2765.65573	38785.4
2768.22863	38797.4
2770.79994	38696.5
2773.36967	38715.2
2775.9378	38690.7
2778.50435	38616.9
2781.06932	38573.4
2783.6327	38536.9
2786.1945	38439.6
2788.75471	38356.5
2791.31335	38269.8
2793.87041	38268.7
2796.42589	38123.8
2798.97979	38090.8
2801.53212	37983.1
2804.08288	37898.7
2806.63206	37799.6
2809.17967	37722.1
2811.72571	37635.3
2814.27018	37506.5
2816.81308	37353.2
2819.35442	37308.8
2821.89419	37245.7
2824.43239	37258.3
2826.96904	37208.7
2829.50412	37165.7
2832.03763	37055.6
2834.56959	36964.6
2837.1	36906.6
2839.62884	36873.4
2842.15613	36837.7
2844.68186	36824.6
2847.20604	36773.6
2849.72867	36725.9
2852.24974	36614.8
2854.76927	36615.4
2857.28724	36542.3
2859.80367	36575.8
2862.31855	36472.9
2864.83189	36432.6
2867.34368	36291.2
2869.85393	36350.7
2872.36264	36246.6
2874.8698	36229.3
2877.37543	36206.8
2879.87952	36139.8
2882.38207	36152.3
2884.88308	36065.5
2887.38256	36117.7
2889.88051	36072.9
2892.37692	36090.8
2894.8718	36072.9
2897.36515	36093.6
2899.85698	36072.9
2902.34727	36104.5
2904.83604	36116.5
2907.32328	36153.8
2909.809	36079.6
2912.29319	36123
2914.77587	36140.6
2917.25702	36162.4
2919.73665	36091.7
2922.21476	36059.6
2924.69136	35997.4
2927.16644	36001.5
2929.64	35948.2
2932.11205	35872.2
2934.58258	35794
2937.05161	35868.2
2939.51912	35926.2
2941.98513	35824.4
2944.44962	35796.5
2946.91261	35721.2
2949.37409	35816.5
2951.83407	35715
2954.29254	35664.5
2956.74951	35666.4
2959.20498	35635.7
2961.65895	35630.1
2964.11142	35673.6
2966.56239	35619.2
2969.01186	35628.1
2971.45984	35471
2973.90632	35480.4
2976.35131	35420.9
2978.7948	35329.9
2981.23681	35312
2983.67732	35260.6
2986.11635	35183.3
2988.55388	35077.1
2990.98993	35020.6
2993.4245	34994.2
2995.85758	34892.1
2998.28917	34780.7
3000.71928	34715.3
3003.14791	34626.5
3005.57506	34650.6
3008.00073	34499
3010.42493	34463.7
3012.84764	34356.3
3015.26888	34396.5
3017.68865	34306.6
3020.10694	34273.8
3022.52376	34182.4
3024.9391	34180.6
3027.35298	34126
3029.76539	34081.4
3032.17632	34047.3
3034.5858	33998.7
3036.9938	33937.9
3039.40034	33916.7
3041.80542	33910.9
3044.20903	33767.5
3046.61118	33766.5
3049.01187	33597.5
3051.4111	33532.2
3053.80888	33451.8
3056.20519	33407.3
3058.60005	33318
3060.99345	33252.5
3063.3854	33201.9
3065.7759	33042.8
3068.16494	32978.8
3070.55254	32868.6
3072.93868	32819.8
3075.32338	32732.7
3077.70662	32682.1
3080.08842	32550.9
3082.46878	32524.1
3084.84769	32449.3
3087.22515	32439.4
3089.60118	32456
3091.97576	32399.1
3094.3489	32371.8
3096.72061	32353.7
3099.09087	32358.9
3101.4597	32334.6
3103.82709	32346.5
3106.19305	32276
3108.55757	32272.1
3110.92066	32209.2
3113.28232	32204.8
3115.64255	32128.1
3118.00134	31969.9
3120.35871	31856.6
3122.71466	31797.5
3125.06917	31710.7
3127.42226	31654.6
3129.77393	31670.2
3132.12417	31563.1
3134.47299	31523
3136.82039	31484.2
3139.16636	31471.6
3141.51092	31438.3
3143.85406	31463.5
3146.19579	31449.9
3148.53609	31430.7
3150.87499	31466.6
3153.21246	31455.5
3155.54853	31495.1
3157.88318	31482.7
3160.21642	31470.2
3162.54826	31409.7
3164.87868	31381.6
3167.2077	31287.3
3169.5353	31286
3171.86151	31258.8
3174.18631	31232.3
3176.5097	31179.9
3178.83169	31131.1
3181.15228	31058.1
3183.47147	30985.5
3185.78926	31014.3
3188.10565	30927.5
3190.42065	30871.7
3192.73424	30838.2
3195.04645	30741.9
3197.35725	30718.4
3199.66667	30677.8
3201.97469	30702.4
3204.28132	30623.7
3206.58656	30652.2
3208.8904	30640.6
3211.19287	30650.2
3213.49394	30649.2
3215.79363	30641.6
3218.09193	30655.4
3220.38884	30651.6
3222.68438	30658.9
3224.97853	30549.9
3227.2713	30504.2
3229.56269	30518.2
3231.8527	30484.6
3234.14133	30437.5
3236.42858	30307.6
3238.71446	30249.9
3240.99896	30227.8
3243.28209	30209.7
3245.56384	30186.8
3247.84423	30082.9
3250.12324	29978.5
3252.40088	29981.9
3254.67715	29951.4
3256.95205	29961
3259.22558	29920.6
3261.49775	29871.5
3263.76855	29866.2
3266.03799	29802.7
3268.30606	29741.1
3270.57277	29643.7
3272.83812	29598.2
3275.10211	29517.4
3277.36474	29462.2
3279.62601	29435
3281.88593	29374.1
3284.14448	29359.9
3286.40168	29390.7
3288.65753	29317.2
3290.91202	29291.6
3293.16516	29214.6
3295.41695	29138.6
3297.66738	28975.9
3299.91647	28818.4
3302.16421	28636.5
3304.4106	28499.2
3306.65564	28255.4
3308.89933	28122.5
3311.14169	27983.2
3313.38269	27736.5
3315.62236	27574.6
3317.86068	27334
3320.09766	27066.3
3322.3333	26893.1
3324.5676	26812.1
3326.80056	26384.9
3329.03219	26229
3331.26248	7.1
3333.49143	1
3335.71905	-1.7
