Data from AgNPs_FTO_APTES_UA_20uM_CRN_1000uM_R6G_10uM_NaF_0.1M_Addition_RamanShift__12__19-25-45-021.txt Node

Date: Thu Feb 17 19:25:45 GMT 2022
User: TCL
Spectrometer: QEP01345
Trigger mode: 4
Integration Time (sec): 1.000000E1
Scans to average: 7
Electric dark correction enabled: true
Nonlinearity correction enabled: false
Boxcar width: 0
XAxis mode: Raman Shifts
Number of Pixels in Spectrum: 1044
>>>>>Begin Spectral Data<<<<<
46.04893	-0.82143
50.45542	-1.67857
54.85868	0.32143
59.25871	-1.25
63.6555	54.89286
68.04907	52.32143
72.43941	59.46429
76.82654	62.17857
81.21044	62.32143
85.59113	65.46429
89.96862	73.17857
94.34289	69.75
98.71396	74.60714
103.08183	74.17857
107.4465	76.60714
111.80798	78.03571
116.16626	77.89286
120.52136	83.17857
124.87327	86.32143
129.222	89.46429
133.56755	91.17857
137.90993	97.03571
142.24913	101.75
146.58517	111.89286
150.91804	128.03571
155.24774	145.03571
159.57429	178.60714
163.89768	228.03571
168.21792	296.75
172.53501	397.32143
176.84895	556.46429
181.15975	777.03571
185.46741	1102.17857
189.77193	1530.75
194.07331	2071.17857
198.37157	2681.89286
202.6667	3328.17857
206.9587	3982.32143
211.24758	4627.89286
215.53334	5249.75
219.81599	5909.32143
224.09553	6602.89286
228.37195	7406.03571
232.64527	8243.32143
236.91549	9185.75
241.18261	10103.32143
245.44663	11004.17857
249.70755	11828.89286
253.96539	12570.17857
258.22014	13124.17857
262.4718	13602.03571
266.72039	13837.32143
270.96589	13936.75
275.20832	13893.17857
279.44768	13763.03571
283.68397	13548.17857
287.91719	13321.89286
292.14735	13175.89286
296.37445	13026.03571
300.59849	13002.03571
304.81948	13007.60714
309.03742	12989.46429
313.25231	13019.03571
317.46415	12893.60714
321.67296	12774.60714
325.87872	12635.03571
330.08145	12588.89286
334.28114	12657.17857
338.47781	12739.75
342.67145	12911.89286
346.86207	13076.17857
351.04966	13276.32143
355.23424	13497.75
359.4158	13707.17857
363.59435	13871.89286
367.76989	14055.03571
371.94243	14144.89286
376.11196	14248.46429
380.27849	14327.89286
384.44203	14450.60714
388.60257	14532.60714
392.76012	14605.60714
396.91468	14771.60714
401.06626	14916.32143
405.21485	15057.60714
409.36047	15044.89286
413.50311	14977.75
417.64277	14906.60714
421.77947	14865.03571
425.9132	14879.89286
430.04396	14929.60714
434.17176	15061.03571
438.2966	15152.17857
442.41849	15319.46429
446.53742	15471.32143
450.6534	15681.60714
454.76644	15839.32143
458.87653	15946.03571
462.98368	15970.89286
467.08789	15992.46429
471.18916	15948.32143
475.2875	15830.60714
479.38291	15738.17857
483.4754	15697.17857
487.56496	15605.46429
491.6516	15627.03571
495.73531	15610.03571
499.81612	15641.32143
503.89401	15670.03571
507.96899	15742.03571
512.04106	15780.75
516.11023	15824.46429
520.1765	15859.75
524.23987	15873.17857
528.30034	15890.46429
532.35792	15861.60714
536.41261	15839.89286
540.46441	15764.17857
544.51333	15759.60714
548.55936	15855.03571
552.60252	15939.32143
556.64279	16110.75
560.6802	16151.03571
564.71473	16171.89286
568.7464	16186.32143
572.7752	16253.60714
576.80114	16324.60714
580.82422	16394.75
584.84444	16471.46429
588.86181	16570.89286
592.87633	16703.60714
596.888	16765.03571
600.89682	16979.60714
604.9028	17346.89286
608.90594	18304.60714
612.90624	19464.17857
616.90371	19072.03571
620.89834	17372.46429
624.89015	16496.46429
628.87913	16380.60714
632.86528	16488.17857
636.84862	16569.46429
640.82913	16541.60714
644.80683	16419.32143
648.78172	16259.03571
652.75379	16289.89286
656.72306	16433.17857
660.68952	16621.89286
664.65319	16638.46429
668.61405	16537.60714
672.57211	16599.32143
676.52738	16684.89286
680.47986	16824.03571
684.42955	16839.32143
688.37646	16816.17857
692.32058	16793.60714
696.26192	16782.89286
700.20048	16861.75
704.13626	16895.89286
708.06928	16851.89286
711.99952	16751.75
715.927	16672.75
719.85171	16681.89286
723.77365	16690.32143
727.69284	16672.03571
731.60928	16610.60714
735.52295	16610.46429
739.43388	16604.46429
743.34206	16583.60714
747.24749	16641.89286
751.15017	16658.17857
755.05012	16751.89286
758.94733	16903.89286
762.8418	17276.03571
766.73354	17914.60714
770.62254	18580.46429
774.50882	18897.46429
778.39237	18621.32143
782.27321	17982.75
786.15132	17325.03571
790.02671	16918.75
793.89938	16712.89286
797.76935	16553.46429
801.6366	16547.60714
805.50115	16510.32143
809.36299	16445.32143
813.22213	16410.46429
817.07857	16426.75
820.93231	16410.03571
824.78336	16428.17857
828.63172	16378.89286
832.47738	16406.32143
836.32036	16414.03571
840.16066	16410.03571
843.99827	16425.32143
847.8332	16454.46429
851.66546	16432.75
855.49504	16475.75
859.32195	16501.03571
863.1462	16528.32143
866.96777	16509.60714
870.78668	16516.46429
874.60293	16575.32143
878.41652	16570.60714
882.22745	16630.17857
886.03573	16646.03571
889.84136	16665.60714
893.64433	16603.03571
897.44466	16655.60714
901.24235	16629.75
905.0374	16596.32143
908.8298	16584.89286
912.61957	16524.03571
916.40671	16552.03571
920.19121	16557.46429
923.97308	16599.89286
927.75233	16588.17857
931.52895	16607.89286
935.30295	16536.60714
939.07433	16429.32143
942.84309	16368.17857
946.60924	16293.32143
950.37278	16250.60714
954.13371	16239.89286
957.89203	16196.89286
961.64774	16224.03571
965.40086	16165.03571
969.15137	16172.17857
972.89929	16140.03571
976.64461	16101.03571
980.38733	16147.60714
984.12747	16127.46429
987.86502	16163.60714
991.59999	16196.32143
995.33237	16249.89286
999.06217	16310.89286
1002.78939	16429.03571
1006.51404	16518.46429
1010.23611	16642.89286
1013.95561	16750.75
1017.67255	16799.03571
1021.38692	16769.17857
1025.09872	16696.60714
1028.80796	16568.89286
1032.51465	16522.03571
1036.21877	16549.75
1039.92035	16565.32143
1043.61937	16605.89286
1047.31584	16661.60714
1051.00976	16727.03571
1054.70114	16751.03571
1058.38998	16758.89286
1062.07627	16818.89286
1065.76003	16871.89286
1069.44126	16928.60714
1073.11995	17051.46429
1076.79611	17116.46429
1080.46974	17158.75
1084.14085	17240.60714
1087.80943	17269.75
1091.47549	17350.46429
1095.13903	17269.75
1098.80005	17244.03571
1102.45857	17154.75
1106.11456	17050.03571
1109.76805	17008.89286
1113.41903	17019.60714
1117.06751	17090.89286
1120.71348	17182.17857
1124.35696	17278.75
1127.99793	17421.32143
1131.63641	17465.32143
1135.2724	17442.17857
1138.90589	17321.60714
1142.5369	17195.32143
1146.16542	17194.75
1149.79145	17150.75
1153.415	17085.32143
1157.03607	17126.75
1160.65467	17182.75
1164.27079	17359.89286
1167.88443	17625.32143
1171.49561	18004.60714
1175.10432	18485.75
1178.71056	19101.75
1182.31434	19716.03571
1185.91565	20128.17857
1189.51451	20221.46429
1193.11091	20161.46429
1196.70485	19948.46429
1200.29634	19647.75
1203.88538	19307.03571
1207.47197	18884.17857
1211.05612	18533.32143
1214.63782	18200.75
1218.21708	18054.03571
1221.79391	17912.75
1225.36829	17877.17857
1228.94024	17875.89286
1232.50976	17856.03571
1236.07685	17855.60714
1239.6415	17868.17857
1243.20374	17924.32143
1246.76355	17963.17857
1250.32093	18002.17857
1253.8759	18132.03571
1257.42845	18274.60714
1260.97859	18435.46429
1264.52631	18611.60714
1268.07163	18805.03571
1271.61453	18953.32143
1275.15503	19050.60714
1278.69312	19148.75
1282.22882	19193.75
1285.76211	19275.46429
1289.29301	19428.17857
1292.82151	19626.17857
1296.34761	19869.60714
1299.87133	20152.75
1303.39266	20556.32143
1306.9116	21118.32143
1310.42815	21641.17857
1313.94233	21969.89286
1317.45412	21883.46429
1320.96354	21616.32143
1324.47058	21213.46429
1327.97525	20854.60714
1331.47754	20640.60714
1334.97747	20568.03571
1338.47502	20712.17857
1341.97022	21029.75
1345.46305	21397.60714
1348.95352	21921.60714
1352.44163	22458.46429
1355.92738	22874.03571
1359.41078	23408.89286
1362.89183	23919.60714
1366.37053	23668.32143
1369.84688	22456.75
1373.32088	21017.32143
1376.79254	19956.46429
1380.26186	19365.03571
1383.72883	19010.32143
1387.19347	18772.89286
1390.65578	18483.03571
1394.11575	18190.17857
1397.57339	18044.03571
1401.0287	17923.89286
1404.48168	17942.60714
1407.93234	17916.32143
1411.38068	17940.46429
1414.82669	17889.89286
1418.27039	17809.75
1421.71177	17715.75
1425.15083	17563.32143
1428.58758	17422.17857
1432.02203	17377.17857
1435.45416	17354.46429
1438.88399	17423.60714
1442.31151	17403.03571
1445.73673	17456.46429
1449.15965	17515.60714
1452.58027	17540.17857
1455.9986	17513.32143
1459.41463	17540.89286
1462.82837	17711.75
1466.23982	17905.03571
1469.64898	18082.75
1473.05586	18298.32143
1476.46045	18419.75
1479.86276	18500.89286
1483.26279	18632.46429
1486.66054	18700.17857
1490.05602	18862.89286
1493.44922	19187.75
1496.84016	19551.03571
1500.22882	20138.89286
1503.61521	20908.03571
1506.99934	21654.17857
1510.38121	22091.17857
1513.76081	22034.32143
1517.13816	21425.17857
1520.51324	20637.46429
1523.88607	19959.03571
1527.25665	19483.03571
1530.62498	19244.75
1533.99105	19122.75
1537.35488	19077.89286
1540.71647	18949.46429
1544.07581	18866.17857
1547.4329	18740.89286
1550.78776	18646.03571
1554.14038	18517.89286
1557.49077	18465.60714
1560.83892	18500.03571
1564.18484	18571.89286
1567.52853	18702.60714
1570.86999	18855.17857
1574.20922	18960.60714
1577.54624	18907.17857
1580.88103	18731.03571
1584.2136	18416.89286
1587.54395	18210.89286
1590.87208	18245.17857
1594.19801	18492.46429
1597.52172	18837.03571
1600.84321	19062.17857
1604.16251	19030.17857
1607.47959	18806.03571
1610.79447	18463.75
1614.10715	18011.46429
1617.41763	17555.75
1620.7259	17193.03571
1624.03199	16872.32143
1627.33587	16726.89286
1630.63757	16717.75
1633.93707	16856.46429
1637.23439	17188.03571
1640.52951	17716.03571
1643.82246	18463.32143
1647.11321	19235.03571
1650.40179	19690.89286
1653.68819	19462.60714
1656.97241	18649.03571
1660.25446	17711.17857
1663.53433	16852.03571
1666.81203	16285.75
1670.08756	15904.89286
1673.36092	15667.75
1676.63211	15468.17857
1679.90115	15363.03571
1683.16801	15275.17857
1686.43272	15148.32143
1689.69527	15112.75
1692.95567	15030.03571
1696.2139	15021.17857
1699.46999	14999.75
1702.72392	14960.60714
1705.97571	14964.60714
1709.22535	14979.03571
1712.47284	14941.89286
1715.71819	14941.32143
1718.96139	14907.03571
1722.20246	14885.60714
1725.44139	14831.89286
1728.67818	14792.17857
1731.91284	14721.17857
1735.14537	14689.03571
1738.37576	14648.60714
1741.60403	14591.32143
1744.83017	14508.03571
1748.05418	14528.32143
1751.27607	14528.75
1754.49584	14497.17857
1757.71349	14494.60714
1760.92903	14495.60714
1764.14244	14484.32143
1767.35375	14455.75
1770.56294	14450.46429
1773.77002	14370.75
1776.97499	14332.75
1780.17785	14340.60714
1783.37861	14281.46429
1786.57727	14275.75
1789.77382	14218.32143
1792.96828	14188.03571
1796.16064	14125.17857
1799.3509	14085.17857
1802.53907	14050.89286
1805.72514	14028.17857
1808.90913	13987.46429
1812.09102	14013.17857
1815.27083	13966.75
1818.44856	13933.32143
1821.6242	13910.17857
1824.79776	13916.46429
1827.96924	13857.03571
1831.13864	13848.03571
1834.30597	13850.17857
1837.47122	13820.17857
1840.6344	13810.32143
1843.7955	13812.32143
1846.95454	13786.89286
1850.11151	13790.89286
1853.26642	13757.46429
1856.41926	13730.32143
1859.57004	13720.75
1862.71876	13726.89286
1865.86542	13723.32143
1869.01003	13677.46429
1872.15258	13696.60714
1875.29308	13725.32143
1878.43152	13666.89286
1881.56792	13635.89286
1884.70227	13604.89286
1887.83457	13599.75
1890.96482	13569.03571
1894.09304	13554.17857
1897.21921	13557.03571
1900.34335	13539.32143
1903.46544	13518.60714
1906.58551	13479.32143
1909.70353	13456.60714
1912.81953	13458.17857
1915.93349	13416.46429
1919.04543	13415.75
1922.15534	13384.46429
1925.26322	13346.89286
1928.36908	13341.03571
1931.47292	13335.32143
1934.57473	13329.46429
1937.67453	13274.32143
1940.77232	13271.03571
1943.86808	13166.46429
1946.96184	13157.60714
1950.05358	13151.03571
1953.14331	13110.75
1956.23103	13075.60714
1959.31675	13070.89286
1962.40046	12991.46429
1965.48217	12979.60714
1968.56188	12921.32143
1971.63959	12884.32143
1974.7153	12860.03571
1977.78901	12821.32143
1980.86073	12790.46429
1983.93046	12729.32143
1986.99819	12676.17857
1990.06394	12647.89286
1993.1277	12621.17857
1996.18947	12568.03571
1999.24925	12536.32143
2002.30706	12482.89286
2005.36288	12461.03571
2008.41672	12402.03571
2011.46859	12334.89286
2014.51848	12339.17857
2017.56639	12305.46429
2020.61233	12240.17857
2023.6563	12210.17857
2026.6983	12179.75
2029.73833	12155.60714
2032.7764	12148.60714
2035.8125	12085.32143
2038.84664	12056.60714
2041.87881	12072.60714
2044.90903	12010.60714
2047.93729	12030.75
2050.96359	12003.75
2053.98794	12016.75
2057.01034	11998.60714
2060.03078	11952.46429
2063.04927	11951.46429
2066.06582	11945.32143
2069.08042	11930.32143
2072.09307	11925.32143
2075.10378	11922.75
2078.11255	11919.17857
2081.11938	11923.46429
2084.12426	11908.75
2087.12722	11892.46429
2090.12824	11861.75
2093.12732	11902.75
2096.12447	11859.17857
2099.11969	11876.03571
2102.11299	11879.32143
2105.10435	11918.60714
2108.09379	11885.75
2111.08131	11897.03571
2114.0669	11927.32143
2117.05057	11911.89286
2120.03233	11942.17857
2123.01216	11956.17857
2125.99008	11946.75
2128.96609	11946.75
2131.94018	12004.60714
2134.91236	11976.32143
2137.88263	11985.17857
2140.851	11985.75
2143.81746	11982.17857
2146.78201	11991.03571
2149.74466	12017.89286
2152.7054	11997.03571
2155.66425	11993.75
2158.6212	11993.46429
2161.57625	11986.17857
2164.52941	11978.17857
2167.48067	11970.46429
2170.43004	11936.89286
2173.37752	11956.03571
2176.32311	11954.17857
2179.26681	11975.32143
2182.20863	11936.75
2185.14856	11950.60714
2188.08661	11934.46429
2191.02278	11930.03571
2193.95707	11912.60714
2196.88948	11888.75
2199.82001	11898.32143
2202.74867	11870.60714
2205.67545	11853.60714
2208.60037	11842.89286
2211.52341	11809.17857
2214.44458	11809.03571
2217.36388	11783.32143
2220.28132	11753.75
2223.1969	11736.75
2226.11061	11719.60714
2229.02246	11688.89286
2231.93245	11645.17857
2234.84058	11622.32143
2237.74686	11586.46429
2240.65128	11614.03571
2243.55385	11581.75
2246.45456	11607.60714
2249.35343	11564.89286
2252.25044	11538.17857
2255.14561	11552.89286
2258.03893	11537.75
2260.93041	11494.75
2263.82004	11486.46429
2266.70783	11446.89286
2269.59378	11417.03571
2272.4779	11374.17857
2275.36017	11374.60714
2278.24061	11353.75
2281.11922	11314.46429
2283.996	11285.75
2286.87094	11306.75
2289.74405	11289.03571
2292.61534	11268.46429
2295.4848	11244.60714
2298.35243	11234.32143
2301.21824	11210.89286
2304.08223	11215.32143
2306.94439	11189.03571
2309.80474	11203.46429
2312.66327	11154.89286
2315.51999	11152.89286
2318.37489	11131.75
2321.22797	11121.03571
2324.07925	11105.46429
2326.92871	11065.32143
2329.77637	11056.03571
2332.62222	11059.17857
2335.46626	11044.17857
2338.3085	10997.60714
2341.14893	11019.32143
2343.98756	10979.32143
2346.8244	10997.03571
2349.65943	10925.75
2352.49267	10946.75
2355.32411	10933.17857
2358.15376	10923.60714
2360.98161	10943.75
2363.80768	10912.60714
2366.63195	10902.03571
2369.45444	10874.03571
2372.27514	10836.89286
2375.09405	10847.32143
2377.91118	10846.46429
2380.72652	10833.17857
2383.54009	10781.46429
2386.35187	10759.03571
2389.16188	10720.89286
2391.97011	10728.60714
2394.77657	10705.89286
2397.58125	10684.75
2400.38416	10703.03571
2403.18529	10666.75
2405.98466	10646.60714
2408.78226	10612.89286
2411.57809	10616.89286
2414.37216	10594.03571
2417.16446	10561.60714
2419.955	10586.32143
2422.74378	10580.46429
2425.5308	10533.03571
2428.31606	10541.17857
2431.09956	10536.17857
2433.88131	10504.17857
2436.6613	10531.89286
2439.43954	10492.60714
2442.21603	10480.46429
2444.99077	10490.46429
2447.76377	10453.32143
2450.53501	10457.75
2453.30451	10462.60714
2456.07226	10423.17857
2458.83827	10427.75
2461.60254	10423.60714
2464.36507	10367.17857
2467.12586	10374.46429
2469.88492	10320.89286
2472.64224	10357.03571
2475.39782	10349.60714
2478.15167	10359.89286
2480.90379	10336.17857
2483.65417	10313.03571
2486.40283	10329.75
2489.14976	10301.46429
2491.89497	10322.03571
2494.63845	10305.75
2497.3802	10306.03571
2500.12024	10300.89286
2502.85855	10274.89286
2505.59514	10232.32143
2508.33002	10219.60714
2511.06318	10225.89286
2513.79462	10237.75
2516.52435	10192.46429
2519.25237	10169.17857
2521.97867	10167.46429
2524.70327	10158.46429
2527.42616	10150.60714
2530.14734	10126.60714
2532.86681	10121.46429
2535.58458	10098.60714
2538.30065	10077.75
2541.01501	10066.46429
2543.72768	10016.17857
2546.43864	10027.17857
2549.14791	10014.46429
2551.85548	9995.89286
2554.56136	9965.89286
2557.26554	9940.89286
2559.96803	9940.89286
2562.66883	9905.60714
2565.36794	9887.46429
2568.06536	9891.17857
2570.7611	9861.89286
2573.45514	9830.32143
2576.14751	9816.46429
2578.83819	9797.32143
2581.52719	9786.75
2584.21451	9751.75
2586.90015	9763.32143
2589.58411	9743.32143
2592.2664	9711.32143
2594.94701	9696.03571
2597.62594	9671.03571
2600.30321	9663.75
2602.9788	9622.60714
2605.65273	9595.89286
2608.32498	9622.89286
2610.99557	9585.75
2613.66449	9620.32143
2616.33175	9571.75
2618.99734	9572.60714
2621.66128	9547.89286
2624.32355	9513.46429
2626.98416	9516.60714
2629.64311	9476.32143
2632.30041	9489.60714
2634.95605	9480.03571
2637.61004	9431.75
2640.26238	9417.46429
2642.91306	9431.17857
2645.56209	9438.75
2648.20948	9425.46429
2650.85521	9399.32143
2653.4993	9417.75
2656.14175	9414.17857
2658.78255	9398.17857
2661.42171	9415.17857
2664.05923	9417.60714
2666.6951	9398.75
2669.32934	9421.17857
2671.96194	9376.75
2674.59291	9404.46429
2677.22224	9377.46429
2679.84993	9379.03571
2682.476	9370.17857
2685.10043	9361.89286
2687.72324	9369.32143
2690.34441	9356.03571
2692.96396	9360.75
2695.58188	9365.17857
2698.19818	9355.03571
2700.81285	9329.60714
2703.4259	9343.03571
2706.03733	9347.46429
2708.64714	9339.32143
2711.25533	9334.17857
2713.86191	9355.75
2716.46687	9374.32143
2719.07021	9315.46429
2721.67194	9374.32143
2724.27206	9340.89286
2726.87057	9335.89286
2729.46747	9354.60714
2732.06276	9320.75
2734.65644	9309.03571
2737.24852	9310.17857
2739.83899	9301.75
2742.42786	9317.60714
2745.01513	9280.32143
2747.60079	9240.46429
2750.18486	9256.89286
2752.76733	9245.46429
2755.3482	9232.60714
2757.92747	9228.60714
2760.50515	9232.60714
2763.08123	9220.89286
2765.65573	9185.46429
2768.22863	9172.32143
2770.79994	9152.32143
2773.36967	9175.75
2775.9378	9128.17857
2778.50435	9146.60714
2781.06932	9093.89286
2783.6327	9096.32143
2786.1945	9061.17857
2788.75471	9043.32143
2791.31335	9025.03571
2793.87041	8986.89286
2796.42589	8962.46429
2798.97979	8998.17857
2801.53212	8960.60714
2804.08288	8943.03571
2806.63206	8920.03571
2809.17967	8934.75
2811.72571	8874.46429
2814.27018	8884.17857
2816.81308	8853.17857
2819.35442	8818.60714
2821.89419	8819.46429
2824.43239	8799.60714
2826.96904	8791.89286
2829.50412	8788.46429
2832.03763	8796.60714
2834.56959	8783.03571
2837.1	8782.32143
2839.62884	8739.03571
2842.15613	8717.60714
2844.68186	8747.32143
2847.20604	8728.60714
2849.72867	8741.03571
2852.24974	8706.03571
2854.76927	8712.75
2857.28724	8681.46429
2859.80367	8656.46429
2862.31855	8653.03571
2864.83189	8651.89286
2867.34368	8617.32143
2869.85393	8637.60714
2872.36264	8618.46429
2874.8698	8623.75
2877.37543	8590.89286
2879.87952	8603.46429
2882.38207	8584.60714
2884.88308	8566.17857
2887.38256	8575.17857
2889.88051	8594.60714
2892.37692	8586.17857
2894.8718	8600.17857
2897.36515	8593.03571
2899.85698	8605.03571
2902.34727	8617.32143
2904.83604	8602.75
2907.32328	8607.60714
2909.809	8623.17857
2912.29319	8604.03571
2914.77587	8642.89286
2917.25702	8619.46429
2919.73665	8614.46429
2922.21476	8605.17857
2924.69136	8638.75
2927.16644	8629.46429
2929.64	8622.75
2932.11205	8606.17857
2934.58258	8569.46429
2937.05161	8587.03571
2939.51912	8609.89286
2941.98513	8585.03571
2944.44962	8579.17857
2946.91261	8556.60714
2949.37409	8568.32143
2951.83407	8580.17857
2954.29254	8537.75
2956.74951	8542.89286
2959.20498	8539.03571
2961.65895	8495.60714
2964.11142	8523.60714
2966.56239	8469.89286
2969.01186	8478.89286
2971.45984	8458.17857
2973.90632	8456.89286
2976.35131	8433.89286
2978.7948	8428.03571
2981.23681	8399.46429
2983.67732	8413.60714
2986.11635	8374.75
2988.55388	8355.75
2990.98993	8360.75
2993.4245	8342.17857
2995.85758	8293.46429
2998.28917	8297.89286
3000.71928	8300.17857
3003.14791	8262.89286
3005.57506	8228.75
3008.00073	8249.17857
3010.42493	8225.60714
3012.84764	8206.32143
3015.26888	8236.89286
3017.68865	8201.60714
3020.10694	8208.75
3022.52376	8165.03571
3024.9391	8152.60714
3027.35298	8143.32143
3029.76539	8134.03571
3032.17632	8128.60714
3034.5858	8122.46429
3036.9938	8143.17857
3039.40034	8125.32143
3041.80542	8113.60714
3044.20903	8089.32143
3046.61118	8087.32143
3049.01187	8065.60714
3051.4111	8056.03571
3053.80888	8046.17857
3056.20519	8038.03571
3058.60005	8026.17857
3060.99345	7996.46429
3063.3854	7994.89286
3065.7759	7971.46429
3068.16494	7943.32143
3070.55254	7951.03571
3072.93868	7931.17857
3075.32338	7911.17857
3077.70662	7886.60714
3080.08842	7893.60714
3082.46878	7860.03571
3084.84769	7886.03571
3087.22515	7871.17857
3089.60118	7866.89286
3091.97576	7871.32143
3094.3489	7888.32143
3096.72061	7897.89286
3099.09087	7889.32143
3101.4597	7879.17857
3103.82709	7905.75
3106.19305	7890.03571
3108.55757	7885.46429
3110.92066	7858.60714
3113.28232	7836.60714
3115.64255	7838.60714
3118.00134	7815.75
3120.35871	7832.60714
3122.71466	7815.46429
3125.06917	7811.75
3127.42226	7791.89286
3129.77393	7795.03571
3132.12417	7781.46429
3134.47299	7783.89286
3136.82039	7791.17857
3139.16636	7787.03571
3141.51092	7793.17857
3143.85406	7798.75
3146.19579	7801.17857
3148.53609	7811.60714
3150.87499	7819.89286
3153.21246	7828.03571
3155.54853	7829.32143
3157.88318	7850.46429
3160.21642	7855.60714
3162.54826	7864.89286
3164.87868	7883.89286
3167.2077	7860.32143
3169.5353	7859.03571
3171.86151	7859.75
3174.18631	7867.32143
3176.5097	7843.60714
3178.83169	7848.46429
3181.15228	7828.89286
3183.47147	7844.03571
3185.78926	7817.32143
3188.10565	7820.75
3190.42065	7793.03571
3192.73424	7799.32143
3195.04645	7794.60714
3197.35725	7797.03571
3199.66667	7799.75
3201.97469	7808.03571
3204.28132	7782.03571
3206.58656	7821.75
3208.8904	7849.60714
3211.19287	7872.46429
3213.49394	7863.32143
3215.79363	7860.03571
3218.09193	7850.89286
3220.38884	7858.17857
3222.68438	7878.46429
3224.97853	7844.17857
3227.2713	7840.03571
3229.56269	7813.46429
3231.8527	7828.60714
3234.14133	7805.60714
3236.42858	7802.46429
3238.71446	7765.17857
3240.99896	7770.46429
3243.28209	7766.60714
3245.56384	7745.60714
3247.84423	7747.17857
3250.12324	7757.17857
3252.40088	7705.17857
3254.67715	7735.17857
3256.95205	7697.89286
3259.22558	7739.60714
3261.49775	7711.32143
3263.76855	7693.32143
3266.03799	7710.03571
3268.30606	7686.32143
3270.57277	7663.17857
3272.83812	7653.03571
3275.10211	7627.03571
3277.36474	7631.89286
3279.62601	7606.89286
3281.88593	7606.89286
3284.14448	7572.32143
3286.40168	7605.32143
3288.65753	7587.17857
3290.91202	7588.17857
3293.16516	7558.46429
3295.41695	7522.46429
3297.66738	7502.17857
3299.91647	7471.60714
3302.16421	7395.17857
3304.4106	7405.60714
3306.65564	7359.17857
3308.89933	7298.03571
3311.14169	7250.75
3313.38269	7186.32143
3315.62236	7142.03571
3317.86068	7094.17857
3320.09766	7029.46429
3322.3333	6985.89286
3324.5676	6970.03571
3326.80056	6867.32143
3329.03219	6842.03571
3331.26248	0.75
3333.49143	1.03571
3335.71905	0.60714
