Data from AgNPs_FTO_APTES_UA_20uM_CRN_0uM_R6G_10uM_NaF_0.1M_Addition_RamanShift__56__11-55-02-003.txt Node

Date: Thu Feb 17 11:55:02 GMT 2022
User: TCL
Spectrometer: QEP01345
Trigger mode: 4
Integration Time (sec): 7.000000E0
Scans to average: 10
Electric dark correction enabled: true
Nonlinearity correction enabled: false
Boxcar width: 0
XAxis mode: Raman Shifts
Number of Pixels in Spectrum: 1044
>>>>>Begin Spectral Data<<<<<
46.04893	1.575
50.45542	-1.925
54.85868	-2.325
59.25871	-0.825
63.6555	93.075
68.04907	98.375
72.43941	99.775
76.82654	100.975
81.21044	103.175
85.59113	109.375
89.96862	110.275
94.34289	118.175
98.71396	117.675
103.08183	120.875
107.4465	128.075
111.80798	125.375
116.16626	132.875
120.52136	136.575
124.87327	141.475
129.222	149.575
133.56755	159.775
137.90993	169.775
142.24913	185.175
146.58517	212.275
150.91804	245.875
155.24774	294.575
159.57429	365.275
163.89768	471.275
168.21792	616.275
172.53501	855.675
176.84895	1186.375
181.15975	1679.775
185.46741	2355.775
189.77193	3243.975
194.07331	4356.875
198.37157	5640.275
202.6667	6982.975
206.9587	8327.675
211.24758	9639.375
215.53334	11003.375
219.81599	12473.975
224.09553	14110.175
228.37195	15921.075
232.64527	17894.875
236.91549	19979.175
241.18261	21970.675
245.44663	23779.075
249.70755	25433.575
253.96539	26852.575
258.22014	28093.075
262.4718	29060.675
266.72039	29766.175
270.96589	30119.675
275.20832	30087.975
279.44768	29854.975
283.68397	29563.675
287.91719	29357.375
292.14735	29285.075
296.37445	29441.075
300.59849	29907.675
304.81948	30516.675
309.03742	30942.475
313.25231	30882.175
317.46415	30064.475
321.67296	28746.875
325.87872	27693.175
330.08145	27230.475
334.28114	27277.875
338.47781	27655.275
342.67145	28247.975
346.86207	29094.075
351.04966	30173.475
355.23424	31383.775
359.4158	32399.675
363.59435	33028.875
367.76989	33303.675
371.94243	33382.275
376.11196	33509.175
380.27849	33584.075
384.44203	33559.175
388.60257	33467.075
392.76012	33545.175
396.91468	33975.275
401.06626	34701.575
405.21485	35344.175
409.36047	35256.975
413.50311	34532.475
417.64277	33910.475
421.77947	33647.475
425.9132	33771.175
430.04396	34010.775
434.17176	34301.775
438.2966	34787.875
442.41849	35678.575
446.53742	36883.375
450.6534	38250.075
454.76644	39256.575
458.87653	39535.075
462.98368	39137.375
467.08789	38379.375
471.18916	37362.175
475.2875	36327.075
479.38291	35797.475
483.4754	35262.575
487.56496	34853.675
491.6516	34387.775
495.73531	33991.275
499.81612	33848.575
503.89401	34038.575
507.96899	34278.475
512.04106	34343.375
516.11023	34455.875
520.1765	34567.075
524.23987	34527.375
528.30034	34246.475
532.35792	33869.675
536.41261	33492.675
540.46441	32992.075
544.51333	32842.975
548.55936	33110.375
552.60252	33717.775
556.64279	34457.475
560.6802	34927.875
564.71473	35412.275
568.7464	36466.575
572.7752	37413.175
576.80114	37385.575
580.82422	37084.375
584.84444	37151.775
588.86181	37691.775
592.87633	38438.775
596.888	38852.175
600.89682	39033.775
604.9028	41278.575
608.90594	47565.875
612.90624	54899.175
616.90371	52372.675
620.89834	41944.775
624.89015	37292.675
628.87913	36696.375
632.86528	36330.975
636.84862	35738.475
640.82913	34896.975
644.80683	33805.075
648.78172	33179.075
652.75379	33176.775
656.72306	34060.175
660.68952	35144.975
664.65319	35136.975
668.61405	34315.275
672.57211	33896.875
676.52738	33813.175
680.47986	33804.275
684.42955	33753.775
688.37646	33802.275
692.32058	34060.275
696.26192	34361.775
700.20048	34723.875
704.13626	34979.975
708.06928	34787.275
711.99952	34502.875
715.927	34439.475
719.85171	34589.775
723.77365	34496.775
727.69284	34153.675
731.60928	33904.575
735.52295	33990.275
739.43388	34143.075
743.34206	34413.875
747.24749	34704.875
751.15017	35140.975
755.05012	35799.175
758.94733	37032.375
762.8418	39330.675
766.73354	42954.275
770.62254	46433.175
774.50882	47725.875
778.39237	45894.475
782.27321	41935.775
786.15132	38333.475
790.02671	36277.475
793.89938	35340.175
797.76935	35020.275
801.6366	34901.475
805.50115	34803.275
809.36299	34627.475
813.22213	34458.075
817.07857	34392.775
820.93231	34433.275
824.78336	34508.775
828.63172	34637.175
832.47738	34782.875
836.32036	34912.475
840.16066	35184.375
843.99827	35283.475
847.8332	35223.775
851.66546	34997.175
855.49504	34900.275
859.32195	34812.075
863.1462	34626.975
866.96777	34447.575
870.78668	34336.575
874.60293	34402.875
878.41652	34509.575
882.22745	34695.075
886.03573	34820.375
889.84136	34760.875
893.64433	34566.875
897.44466	34490.575
901.24235	34459.975
905.0374	34349.075
908.8298	34327.975
912.61957	34422.375
916.40671	34769.075
920.19121	35282.675
923.97308	35930.775
927.75233	36317.175
931.52895	36383.675
935.30295	35965.175
939.07433	35213.875
942.84309	34713.275
946.60924	34532.075
950.37278	34372.475
954.13371	34066.375
957.89203	33732.975
961.64774	33561.275
965.40086	33513.875
969.15137	33393.175
972.89929	33222.975
976.64461	33248.575
980.38733	33340.575
984.12747	33513.975
987.86502	33866.775
991.59999	34476.075
995.33237	35475.775
999.06217	37192.775
1002.78939	39096.975
1006.51404	40331.675
1010.23611	40834.675
1013.95561	41101.475
1017.67255	41114.175
1021.38692	40676.275
1025.09872	40501.875
1028.80796	41555.075
1032.51465	43678.775
1036.21877	45469.375
1039.92035	45554.975
1043.61937	44322.575
1047.31584	42282.375
1051.00976	40042.775
1054.70114	38791.175
1058.38998	38295.775
1062.07627	38187.175
1065.76003	38112.275
1069.44126	38289.975
1073.11995	38517.375
1076.79611	38855.275
1080.46974	39219.375
1084.14085	39756.075
1087.80943	40314.175
1091.47549	40438.975
1095.13903	39883.175
1098.80005	39053.975
1102.45857	38386.275
1106.11456	38093.275
1109.76805	38279.875
1113.41903	38776.075
1117.06751	39336.275
1120.71348	40102.175
1124.35696	40814.675
1127.99793	41394.875
1131.63641	41318.375
1135.2724	40498.075
1138.90589	39752.375
1142.5369	39305.675
1146.16542	39025.875
1149.79145	38952.675
1153.415	39207.575
1157.03607	39634.275
1160.65467	40291.775
1164.27079	41453.875
1167.88443	43338.175
1171.49561	46075.675
1175.10432	50173.775
1178.71056	55517.775
1182.31434	60247.375
1185.91565	62485.675
1189.51451	62178.675
1193.11091	59501.875
1196.70485	56020.075
1200.29634	53090.575
1203.88538	50990.075
1207.47197	49132.875
1211.05612	47688.775
1214.63782	47134.075
1218.21708	47382.875
1221.79391	47963.775
1225.36829	48130.875
1228.94024	47464.875
1232.50976	46389.975
1236.07685	45698.475
1239.6415	45533.175
1243.20374	45702.875
1246.76355	46098.975
1250.32093	46903.475
1253.8759	48246.875
1257.42845	49939.575
1260.97859	51311.475
1264.52631	52276.375
1268.07163	53423.875
1271.61453	54846.975
1275.15503	56565.475
1278.69312	58367.875
1282.22882	59761.975
1285.76211	61001.975
1289.29301	62173.075
1292.82151	63554.375
1296.34761	65596.175
1299.87133	68745.375
1303.39266	73318.775
1306.9116	79623.675
1310.42815	86317.075
1313.94233	90206.175
1317.45412	89341.875
1320.96354	85375.975
1324.47058	80797.875
1327.97525	77018.075
1331.47754	74852.975
1334.97747	74427.375
1338.47502	75521.775
1341.97022	76901.875
1345.46305	77415.175
1348.95352	77333.075
1352.44163	77482.875
1355.92738	79976.075
1359.41078	85829.475
1362.89183	91171.875
1366.37053	88605.575
1369.84688	79005.375
1373.32088	69325.875
1376.79254	63052.075
1380.26186	59799.775
1383.72883	58402.775
1387.19347	57466.775
1390.65578	56712.975
1394.11575	56684.475
1397.57339	57475.575
1401.0287	58871.375
1404.48168	60463.975
1407.93234	62093.075
1411.38068	63178.575
1414.82669	63153.775
1418.27039	61617.875
1421.71177	59260.775
1425.15083	57206.975
1428.58758	56132.275
1432.02203	56177.975
1435.45416	56707.075
1438.88399	57185.175
1442.31151	57594.075
1445.73673	58082.875
1449.15965	58615.375
1452.58027	58715.475
1455.9986	58367.375
1459.41463	58312.875
1462.82837	58805.275
1466.23982	59802.575
1469.64898	61240.975
1473.05586	62085.775
1476.46045	62562.875
1479.86276	63285.875
1483.26279	63865.075
1486.66054	64655.275
1490.05602	65858.375
1493.44922	67166.875
1496.84016	68336.375
1500.22882	69757.675
1503.61521	71979.475
1506.99934	75092.275
1510.38121	78277.675
1513.76081	79558.075
1517.13816	77279.075
1520.51324	72512.075
1523.88607	67826.075
1527.25665	64708.475
1530.62498	62960.375
1533.99105	61868.575
1537.35488	61257.975
1540.71647	61074.475
1544.07581	60815.975
1547.4329	60335.075
1550.78776	59592.675
1554.14038	59013.775
1557.49077	58656.475
1560.83892	58569.375
1564.18484	58545.775
1567.52853	58517.875
1570.86999	58317.175
1574.20922	58373.175
1577.54624	58287.275
1580.88103	57557.675
1584.2136	57041.675
1587.54395	58271.475
1590.87208	61683.175
1594.19801	67062.175
1597.52172	73023.375
1600.84321	75998.375
1604.16251	73656.675
1607.47959	67714.275
1610.79447	61023.475
1614.10715	55195.575
1617.41763	51041.675
1620.7259	48423.875
1624.03199	47352.675
1627.33587	47606.775
1630.63757	49074.975
1633.93707	51841.875
1637.23439	55567.375
1640.52951	60055.475
1643.82246	65003.275
1647.11321	69189.375
1650.40179	70279.175
1653.68819	66456.775
1656.97241	58892.375
1660.25446	51235.175
1663.53433	45860.075
1666.81203	42455.775
1670.08756	40524.775
1673.36092	39242.575
1676.63211	38382.775
1679.90115	37758.975
1683.16801	37291.775
1686.43272	37000.875
1689.69527	36793.775
1692.95567	36596.275
1696.2139	36510.575
1699.46999	36498.675
1702.72392	36431.275
1705.97571	36421.275
1709.22535	36345.875
1712.47284	36439.575
1715.71819	36410.075
1718.96139	36374.175
1722.20246	36359.475
1725.44139	36228.575
1728.67818	36036.575
1731.91284	35884.775
1735.14537	35734.275
1738.37576	35604.375
1741.60403	35516.075
1744.83017	35443.075
1748.05418	35360.275
1751.27607	35289.775
1754.49584	35222.875
1757.71349	35301.275
1760.92903	35230.375
1764.14244	35220.475
1767.35375	35198.875
1770.56294	35219.775
1773.77002	35204.075
1776.97499	35200.275
1780.17785	35186.275
1783.37861	35138.175
1786.57727	35056.875
1789.77382	35065.375
1792.96828	35102.775
1796.16064	35096.675
1799.3509	35112.475
1802.53907	35053.875
1805.72514	35013.075
1808.90913	34939.275
1812.09102	34868.075
1815.27083	34828.875
1818.44856	34750.875
1821.6242	34719.375
1824.79776	34684.975
1827.96924	34654.675
1831.13864	34610.975
1834.30597	34663.775
1837.47122	34653.575
1840.6344	34608.475
1843.7955	34644.275
1846.95454	34646.975
1850.11151	34684.575
1853.26642	34695.475
1856.41926	34705.375
1859.57004	34752.175
1862.71876	34713.575
1865.86542	34748.375
1869.01003	34716.475
1872.15258	34739.775
1875.29308	34741.675
1878.43152	34746.875
1881.56792	34716.875
1884.70227	34798.675
1887.83457	34780.475
1890.96482	34807.475
1894.09304	34738.275
1897.21921	34738.675
1900.34335	34730.475
1903.46544	34737.475
1906.58551	34786.575
1909.70353	34819.275
1912.81953	34791.675
1915.93349	34746.075
1919.04543	34708.275
1922.15534	34690.375
1925.26322	34670.175
1928.36908	34626.475
1931.47292	34551.275
1934.57473	34442.475
1937.67453	34409.175
1940.77232	34290.975
1943.86808	34244.475
1946.96184	34128.475
1950.05358	34015.675
1953.14331	33914.575
1956.23103	33798.675
1959.31675	33698.975
1962.40046	33634.475
1965.48217	33497.175
1968.56188	33479.075
1971.63959	33389.975
1974.7153	33289.975
1977.78901	33192.375
1980.86073	33105.775
1983.93046	33021.875
1986.99819	32930.475
1990.06394	32859.575
1993.1277	32784.475
1996.18947	32667.075
1999.24925	32627.575
2002.30706	32539.175
2005.36288	32448.075
2008.41672	32399.375
2011.46859	32268.675
2014.51848	32185.175
2017.56639	32135.575
2020.61233	32062.075
2023.6563	31990.975
2026.6983	31917.175
2029.73833	31892.475
2032.7764	31829.675
2035.8125	31844.875
2038.84664	31777.675
2041.87881	31798.875
2044.90903	31731.475
2047.93729	31688.975
2050.96359	31657.475
2053.98794	31637.275
2057.01034	31668.175
2060.03078	31660.675
2063.04927	31652.875
2066.06582	31615.275
2069.08042	31595.775
2072.09307	31511.575
2075.10378	31477.575
2078.11255	31419.275
2081.11938	31380.275
2084.12426	31384.675
2087.12722	31307.475
2090.12824	31320.575
2093.12732	31333.275
2096.12447	31286.575
2099.11969	31274.075
2102.11299	31289.675
2105.10435	31318.875
2108.09379	31372.675
2111.08131	31366.775
2114.0669	31350.975
2117.05057	31389.675
2120.03233	31368.675
2123.01216	31412.775
2125.99008	31467.275
2128.96609	31529.775
2131.94018	31560.075
2134.91236	31629.175
2137.88263	31620.775
2140.851	31702.475
2143.81746	31700.075
2146.78201	31681.475
2149.74466	31720.675
2152.7054	31727.175
2155.66425	31728.975
2158.6212	31711.375
2161.57625	31727.475
2164.52941	31736.575
2167.48067	31719.675
2170.43004	31700.375
2173.37752	31696.575
2176.32311	31728.675
2179.26681	31741.875
2182.20863	31783.675
2185.14856	31847.975
2188.08661	31800.875
2191.02278	31833.875
2193.95707	31801.975
2196.88948	31767.675
2199.82001	31820.975
2202.74867	31829.075
2205.67545	31838.975
2208.60037	31846.675
2211.52341	31807.675
2214.44458	31827.775
2217.36388	31850.675
2220.28132	31808.275
2223.1969	31771.175
2226.11061	31691.475
2229.02246	31630.775
2231.93245	31576.175
2234.84058	31501.475
2237.74686	31440.975
2240.65128	31417.975
2243.55385	31338.575
2246.45456	31305.675
2249.35343	31271.475
2252.25044	31260.275
2255.14561	31234.475
2258.03893	31254.675
2260.93041	31179.375
2263.82004	31105.875
2266.70783	30995.475
2269.59378	30932.675
2272.4779	30873.875
2275.36017	30848.375
2278.24061	30785.375
2281.11922	30704.275
2283.996	30697.375
2286.87094	30677.675
2289.74405	30669.075
2292.61534	30670.275
2295.4848	30646.575
2298.35243	30708.775
2301.21824	30653.075
2304.08223	30746.575
2306.94439	30759.175
2309.80474	30788.675
2312.66327	30879.275
2315.51999	30865.275
2318.37489	30847.875
2321.22797	30840.275
2324.07925	30877.875
2326.92871	30794.675
2329.77637	30768.575
2332.62222	30794.875
2335.46626	30839.975
2338.3085	30870.475
2341.14893	30898.175
2343.98756	30932.275
2346.8244	30931.275
2349.65943	30952.475
2352.49267	31007.075
2355.32411	31015.875
2358.15376	30972.175
2360.98161	30928.075
2363.80768	30862.875
2366.63195	30790.675
2369.45444	30731.275
2372.27514	30707.075
2375.09405	30616.975
2377.91118	30510.475
2380.72652	30430.275
2383.54009	30340.375
2386.35187	30251.675
2389.16188	30175.375
2391.97011	30172.675
2394.77657	30158.875
2397.58125	30180.975
2400.38416	30116.175
2403.18529	30033.075
2405.98466	29955.275
2408.78226	29861.275
2411.57809	29821.175
2414.37216	29746.975
2417.16446	29702.875
2419.955	29666.375
2422.74378	29621.675
2425.5308	29610.375
2428.31606	29630.475
2431.09956	29635.775
2433.88131	29642.475
2436.6613	29644.075
2439.43954	29621.775
2442.21603	29602.575
2444.99077	29553.875
2447.76377	29568.375
2450.53501	29523.775
2453.30451	29567.975
2456.07226	29484.875
2458.83827	29434.075
2461.60254	29453.175
2464.36507	29484.775
2467.12586	29513.075
2469.88492	29509.375
2472.64224	29519.075
2475.39782	29540.775
2478.15167	29593.375
2480.90379	29653.075
2483.65417	29706.075
2486.40283	29696.075
2489.14976	29756.875
2491.89497	29754.775
2494.63845	29824.375
2497.3802	29847.575
2500.12024	29827.575
2502.85855	29785.875
2505.59514	29757.175
2508.33002	29710.275
2511.06318	29665.075
2513.79462	29595.875
2516.52435	29581.175
2519.25237	29544.375
2521.97867	29487.475
2524.70327	29488.475
2527.42616	29472.475
2530.14734	29495.675
2532.86681	29443.175
2535.58458	29482.675
2538.30065	29465.975
2541.01501	29484.175
2543.72768	29455.275
2546.43864	29490.175
2549.14791	29384.075
2551.85548	29417.075
2554.56136	29343.075
2557.26554	29262.675
2559.96803	29275.475
2562.66883	29293.075
2565.36794	29263.875
2568.06536	29246.575
2570.7611	29206.775
2573.45514	29175.475
2576.14751	29171.575
2578.83819	29164.975
2581.52719	29222.375
2584.21451	29199.475
2586.90015	29190.475
2589.58411	29200.975
2592.2664	29209.975
2594.94701	29217.475
2597.62594	29235.275
2600.30321	29233.875
2602.9788	29227.075
2605.65273	29206.375
2608.32498	29229.675
2610.99557	29223.375
2613.66449	29292.175
2616.33175	29259.975
2618.99734	29272.875
2621.66128	29266.375
2624.32355	29315.675
2626.98416	29365.575
2629.64311	29353.475
2632.30041	29325.075
2634.95605	29311.575
2637.61004	29264.975
2640.26238	29233.275
2642.91306	29158.175
2645.56209	29096.375
2648.20948	29042.175
2650.85521	29040.175
2653.4993	29037.775
2656.14175	28998.275
2658.78255	29077.175
2661.42171	29083.075
2664.05923	29113.075
2666.6951	29156.875
2669.32934	29170.775
2671.96194	29183.375
2674.59291	29224.675
2677.22224	29222.075
2679.84993	29261.175
2682.476	29188.475
2685.10043	29183.875
2687.72324	29110.575
2690.34441	29131.375
2692.96396	29120.875
2695.58188	29102.775
2698.19818	29052.875
2700.81285	29017.975
2703.4259	29033.875
2706.03733	29027.475
2708.64714	28990.575
2711.25533	29047.375
2713.86191	29016.875
2716.46687	29082.375
2719.07021	29130.175
2721.67194	29140.375
2724.27206	29092.575
2726.87057	29148.975
2729.46747	29135.675
2732.06276	29158.875
2734.65644	29178.475
2737.24852	29167.775
2739.83899	29127.375
2742.42786	29191.775
2745.01513	29098.975
2747.60079	29118.075
2750.18486	29099.275
2752.76733	29112.375
2755.3482	29122.875
2757.92747	29065.375
2760.50515	29026.975
2763.08123	29082.475
2765.65573	29018.075
2768.22863	29036.175
2770.79994	29005.675
2773.36967	29020.475
2775.9378	29053.175
2778.50435	29046.675
2781.06932	29033.675
2783.6327	29073.075
2786.1945	29035.475
2788.75471	29012.375
2791.31335	28973.275
2793.87041	28875.275
2796.42589	28860.775
2798.97979	28876.675
2801.53212	28757.375
2804.08288	28782.075
2806.63206	28681.975
2809.17967	28669.075
2811.72571	28586.475
2814.27018	28589.475
2816.81308	28504.775
2819.35442	28509.675
2821.89419	28489.575
2824.43239	28524.775
2826.96904	28549.775
2829.50412	28611.075
2832.03763	28523.575
2834.56959	28478.375
2837.1	28478.975
2839.62884	28454.075
2842.15613	28427.775
2844.68186	28474.675
2847.20604	28480.175
2849.72867	28475.975
2852.24974	28421.775
2854.76927	28435.375
2857.28724	28346.975
2859.80367	28373.775
2862.31855	28343.675
2864.83189	28314.675
2867.34368	28260.675
2869.85393	28266.475
2872.36264	28201.275
2874.8698	28183.475
2877.37543	28165.675
2879.87952	28198.275
2882.38207	28229.975
2884.88308	28203.875
2887.38256	28242.275
2889.88051	28245.375
2892.37692	28269.275
2894.8718	28293.075
2897.36515	28314.075
2899.85698	28282.875
2902.34727	28375.675
2904.83604	28353.375
2907.32328	28404.475
2909.809	28417.575
2912.29319	28456.275
2914.77587	28423.575
2917.25702	28394.975
2919.73665	28371.775
2922.21476	28346.775
2924.69136	28285.175
2927.16644	28278.275
2929.64	28249.475
2932.11205	28201.975
2934.58258	28161.875
2937.05161	28204.275
2939.51912	28196.275
2941.98513	28140.575
2944.44962	28133.575
2946.91261	28043.475
2949.37409	28079.075
2951.83407	28077.275
2954.29254	28021.875
2956.74951	28037.975
2959.20498	28042.575
2961.65895	27984.875
2964.11142	27988.675
2966.56239	27907.475
2969.01186	27940.675
2971.45984	27770.975
2973.90632	27781.175
2976.35131	27728.375
2978.7948	27708.775
2981.23681	27600.475
2983.67732	27586.575
2986.11635	27491.175
2988.55388	27428.475
2990.98993	27410.875
2993.4245	27324.875
2995.85758	27280.775
2998.28917	27207.775
3000.71928	27140.475
3003.14791	27097.175
3005.57506	27098.975
3008.00073	27014.175
3010.42493	27013.175
3012.84764	26976.975
3015.26888	26928.875
3017.68865	26867.175
3020.10694	26875.775
3022.52376	26772.875
3024.9391	26724.975
3027.35298	26699.675
3029.76539	26681.575
3032.17632	26654.875
3034.5858	26599.075
3036.9938	26645.375
3039.40034	26560.575
3041.80542	26584.775
3044.20903	26529.975
3046.61118	26527.675
3049.01187	26466.575
3051.4111	26448.175
3053.80888	26347.775
3056.20519	26335.375
3058.60005	26235.175
3060.99345	26181.975
3063.3854	26104.275
3065.7759	26041.775
3068.16494	25906.675
3070.55254	25826.275
3072.93868	25749.575
3075.32338	25669.775
3077.70662	25647.575
3080.08842	25560.875
3082.46878	25487.675
3084.84769	25443.975
3087.22515	25438.075
3089.60118	25465.475
3091.97576	25430.975
3094.3489	25453.275
3096.72061	25416.475
3099.09087	25455.975
3101.4597	25479.975
3103.82709	25431.875
3106.19305	25403.675
3108.55757	25379.575
3110.92066	25319.575
3113.28232	25319.475
3115.64255	25206.675
3118.00134	25182.575
3120.35871	25116.675
3122.71466	25021.675
3125.06917	24989.375
3127.42226	24956.075
3129.77393	25004.875
3132.12417	24911.575
3134.47299	24913.475
3136.82039	24920.475
3139.16636	24878.575
3141.51092	24841.375
3143.85406	24795.075
3146.19579	24830.475
3148.53609	24830.975
3150.87499	24847.875
3153.21246	24854.375
3155.54853	24878.975
3157.88318	24872.575
3160.21642	24862.475
3162.54826	24813.975
3164.87868	24799.575
3167.2077	24722.475
3169.5353	24763.175
3171.86151	24788.775
3174.18631	24758.575
3176.5097	24761.675
3178.83169	24751.275
3181.15228	24712.875
3183.47147	24603.675
3185.78926	24613.775
3188.10565	24594.275
3190.42065	24543.675
3192.73424	24559.575
3195.04645	24486.875
3197.35725	24524.875
3199.66667	24507.975
3201.97469	24562.975
3204.28132	24496.275
3206.58656	24520.575
3208.8904	24553.275
3211.19287	24554.775
3213.49394	24514.075
3215.79363	24538.075
3218.09193	24574.375
3220.38884	24588.775
3222.68438	24598.675
3224.97853	24507.275
3227.2713	24528.475
3229.56269	24465.575
3231.8527	24499.975
3234.14133	24457.575
3236.42858	24413.475
3238.71446	24372.275
3240.99896	24331.575
3243.28209	24324.875
3245.56384	24302.575
3247.84423	24276.575
3250.12324	24238.075
3252.40088	24244.575
3254.67715	24240.075
3256.95205	24203.575
3259.22558	24196.675
3261.49775	24152.075
3263.76855	24176.375
3266.03799	24111.175
3268.30606	24094.975
3270.57277	24056.375
3272.83812	24007.175
3275.10211	24016.775
3277.36474	23953.375
3279.62601	23939.575
3281.88593	23903.075
3284.14448	23916.075
3286.40168	23904.175
3288.65753	23887.575
3290.91202	23830.475
3293.16516	23839.375
3295.41695	23838.775
3297.66738	23685.475
3299.91647	23574.875
3302.16421	23391.175
3304.4106	23325.275
3306.65564	23177.075
3308.89933	23053.575
3311.14169	22899.575
3313.38269	22766.375
3315.62236	22645.275
3317.86068	22380.175
3320.09766	22211.075
3322.3333	22089.175
3324.5676	22012.475
3326.80056	21697.875
3329.03219	21559.175
3331.26248	5.175
3333.49143	0.175
3335.71905	-1.125
