Data from AgNPs_FTO_APTES_UA_20uM_CRN_1uM_R6G_10uM_NaF_0.1M_Addition_RamanShift__4__12-06-42-018.txt Node

Date: Thu Feb 17 12:06:42 GMT 2022
User: TCL
Spectrometer: QEP01345
Trigger mode: 4
Integration Time (sec): 7.000000E0
Scans to average: 10
Electric dark correction enabled: true
Nonlinearity correction enabled: false
Boxcar width: 0
XAxis mode: Raman Shifts
Number of Pixels in Spectrum: 1044
>>>>>Begin Spectral Data<<<<<
46.04893	-0.375
50.45542	-0.375
54.85868	-2.975
59.25871	0.025
63.6555	110.025
68.04907	110.325
72.43941	116.525
76.82654	116.425
81.21044	119.725
85.59113	122.925
89.96862	128.925
94.34289	131.225
98.71396	135.825
103.08183	137.525
107.4465	144.625
111.80798	145.425
116.16626	151.625
120.52136	160.125
124.87327	161.725
129.222	174.325
133.56755	186.825
137.90993	199.525
142.24913	222.925
146.58517	254.825
150.91804	299.925
155.24774	356.025
159.57429	447.625
163.89768	579.625
168.21792	769.525
172.53501	1061.625
176.84895	1487.125
181.15975	2113.425
185.46741	2967.125
189.77193	4094.425
194.07331	5490.825
198.37157	7059.825
202.6667	8736.125
206.9587	10409.125
211.24758	12003.825
215.53334	13629.925
219.81599	15378.225
224.09553	17322.225
228.37195	19434.725
232.64527	21762.525
236.91549	24214.825
241.18261	26658.425
245.44663	28904.025
249.70755	30964.625
253.96539	32696.725
258.22014	34135.525
262.4718	35344.025
266.72039	36280.325
270.96589	36746.825
275.20832	36646.925
279.44768	36372.325
283.68397	35939.425
287.91719	35582.425
292.14735	35368.225
296.37445	35335.525
300.59849	35453.825
304.81948	35684.925
309.03742	35871.825
313.25231	35912.525
317.46415	35565.625
321.67296	35135.225
325.87872	34674.925
330.08145	34460.325
334.28114	34509.425
338.47781	34764.525
342.67145	35221.625
346.86207	35800.725
351.04966	36488.525
355.23424	37113.025
359.4158	37726.125
363.59435	38127.625
367.76989	38383.925
371.94243	38603.525
376.11196	38856.425
380.27849	39087.025
384.44203	39355.525
388.60257	39649.025
392.76012	39980.525
396.91468	40454.725
401.06626	41017.625
405.21485	41357.925
409.36047	41275.725
413.50311	41023.125
417.64277	40913.225
421.77947	41097.425
425.9132	41317.725
430.04396	41585.925
434.17176	41838.025
438.2966	42226.925
442.41849	43104.325
446.53742	44504.125
450.6534	46054.425
454.76644	47013.325
458.87653	47127.625
462.98368	46637.225
467.08789	45664.425
471.18916	44664.125
475.2875	43712.625
479.38291	43013.125
483.4754	42583.625
487.56496	42153.325
491.6516	41861.525
495.73531	41535.825
499.81612	41369.325
503.89401	41652.925
507.96899	41836.425
512.04106	41708.025
516.11023	41528.125
520.1765	41276.325
524.23987	41218.225
528.30034	41210.825
532.35792	41018.125
536.41261	40506.725
540.46441	40067.925
544.51333	39932.925
548.55936	40174.825
552.60252	40964.025
556.64279	42145.625
560.6802	43008.325
564.71473	43357.425
568.7464	43917.825
572.7752	45044.725
576.80114	46304.925
580.82422	47760.725
584.84444	49738.125
588.86181	52706.425
592.87633	55476.425
596.888	55500.925
600.89682	52397.825
604.9028	50650.625
608.90594	52848.725
612.90624	55662.725
616.90371	52621.125
620.89834	45710.525
624.89015	42634.825
628.87913	42197.525
632.86528	42313.525
636.84862	41980.925
640.82913	41235.425
644.80683	40388.225
648.78172	39882.125
652.75379	40031.525
656.72306	40507.525
660.68952	41183.125
664.65319	40955.025
668.61405	40328.225
672.57211	40263.125
676.52738	40521.325
680.47986	40473.525
684.42955	40166.525
688.37646	40087.925
692.32058	40428.725
696.26192	41076.025
700.20048	41712.025
704.13626	42067.825
708.06928	41991.425
711.99952	41784.425
715.927	41843.125
719.85171	42152.825
723.77365	42092.625
727.69284	41500.225
731.60928	40945.525
735.52295	40861.525
739.43388	40951.125
743.34206	41117.925
747.24749	41344.225
751.15017	41724.925
755.05012	42356.425
758.94733	43371.625
762.8418	45065.225
766.73354	47632.025
770.62254	50033.225
774.50882	50280.425
778.39237	48391.225
782.27321	45757.725
786.15132	43541.225
790.02671	42228.325
793.89938	41503.525
797.76935	41270.025
801.6366	41230.825
805.50115	41124.725
809.36299	40999.225
813.22213	40730.425
817.07857	40466.025
820.93231	40383.325
824.78336	40147.525
828.63172	40100.625
832.47738	40012.325
836.32036	40147.725
840.16066	40334.025
843.99827	40465.725
847.8332	40480.225
851.66546	40435.725
855.49504	40445.625
859.32195	40464.625
863.1462	40356.125
866.96777	40287.025
870.78668	40304.325
874.60293	40324.925
878.41652	40361.525
882.22745	40501.925
886.03573	40635.825
889.84136	40624.925
893.64433	40457.425
897.44466	40308.125
901.24235	40156.325
905.0374	40053.825
908.8298	40003.725
912.61957	40034.025
916.40671	40370.125
920.19121	40911.825
923.97308	41364.825
927.75233	41574.925
931.52895	41309.425
935.30295	40709.625
939.07433	40099.825
942.84309	39740.225
946.60924	39659.525
950.37278	39661.825
954.13371	39647.625
957.89203	39552.725
961.64774	39478.625
965.40086	39503.625
969.15137	39464.425
972.89929	39339.925
976.64461	39268.525
980.38733	39387.725
984.12747	39474.625
987.86502	39822.325
991.59999	40307.625
995.33237	40891.125
999.06217	41902.225
1002.78939	43150.725
1006.51404	44213.225
1010.23611	45106.725
1013.95561	45601.125
1017.67255	45684.325
1021.38692	45118.625
1025.09872	44202.125
1028.80796	43916.425
1032.51465	44382.525
1036.21877	45072.125
1039.92035	45284.425
1043.61937	44998.925
1047.31584	44260.325
1051.00976	43477.525
1054.70114	43144.925
1058.38998	43055.925
1062.07627	43216.125
1065.76003	43537.725
1069.44126	43992.025
1073.11995	44659.625
1076.79611	45365.325
1080.46974	45781.225
1084.14085	46200.925
1087.80943	46769.725
1091.47549	47079.425
1095.13903	46922.925
1098.80005	46305.225
1102.45857	45469.825
1106.11456	44894.325
1109.76805	44748.125
1113.41903	44860.325
1117.06751	45032.525
1120.71348	45365.425
1124.35696	45720.425
1127.99793	46001.025
1131.63641	46125.525
1135.2724	46086.525
1138.90589	46007.725
1142.5369	46060.925
1146.16542	46365.525
1149.79145	46698.925
1153.415	47089.525
1157.03607	47716.425
1160.65467	48883.125
1164.27079	50937.425
1167.88443	53536.025
1171.49561	56387.325
1175.10432	60033.025
1178.71056	64630.525
1182.31434	69009.725
1185.91565	70761.425
1189.51451	69653.525
1193.11091	67153.725
1196.70485	64554.925
1200.29634	62359.125
1203.88538	60911.225
1207.47197	60252.025
1211.05612	59618.925
1214.63782	58680.825
1218.21708	57744.425
1221.79391	57043.525
1225.36829	56722.425
1228.94024	56268.625
1232.50976	55080.225
1236.07685	53697.025
1239.6415	52813.725
1243.20374	52642.625
1246.76355	53028.425
1250.32093	53967.725
1253.8759	55083.625
1257.42845	56489.825
1260.97859	58162.625
1264.52631	59856.025
1268.07163	61763.325
1271.61453	63527.925
1275.15503	65356.125
1278.69312	67083.025
1282.22882	68737.225
1285.76211	70977.425
1289.29301	73612.825
1292.82151	76757.525
1296.34761	80638.325
1299.87133	85513.325
1303.39266	91000.825
1306.9116	96483.925
1310.42815	101067.425
1313.94233	103435.025
1317.45412	102724.425
1320.96354	99772.725
1324.47058	96836.825
1327.97525	94426.525
1331.47754	92539.525
1334.97747	91003.925
1338.47502	89557.425
1341.97022	87933.825
1345.46305	86195.725
1348.95352	85042.625
1352.44163	85518.725
1355.92738	88642.225
1359.41078	93639.225
1362.89183	97422.925
1366.37053	96240.325
1369.84688	88983.425
1373.32088	79151.825
1376.79254	72534.225
1380.26186	70195.725
1383.72883	70308.725
1387.19347	70358.225
1390.65578	69642.125
1394.11575	69496.025
1397.57339	70412.125
1401.0287	71827.525
1404.48168	73008.925
1407.93234	73346.525
1411.38068	72396.725
1414.82669	70564.525
1418.27039	68158.325
1421.71177	65680.125
1425.15083	63617.425
1428.58758	62869.825
1432.02203	63808.825
1435.45416	65656.125
1438.88399	67704.625
1442.31151	68930.525
1445.73673	69422.125
1449.15965	69339.725
1452.58027	68926.625
1455.9986	68210.625
1459.41463	68319.225
1462.82837	69309.825
1466.23982	70807.625
1469.64898	72230.325
1473.05586	73080.925
1476.46045	73565.025
1479.86276	73106.325
1483.26279	72363.725
1486.66054	71919.025
1490.05602	72245.125
1493.44922	72577.425
1496.84016	72852.325
1500.22882	73354.725
1503.61521	74429.025
1506.99934	75773.925
1510.38121	76894.525
1513.76081	76750.625
1517.13816	75105.725
1520.51324	72872.225
1523.88607	71603.825
1527.25665	71558.425
1530.62498	72205.725
1533.99105	72485.225
1537.35488	71964.725
1540.71647	70775.625
1544.07581	69133.525
1547.4329	67382.825
1550.78776	65672.225
1554.14038	64355.025
1557.49077	63426.825
1560.83892	62931.925
1564.18484	62734.225
1567.52853	62805.925
1570.86999	63262.225
1574.20922	64227.625
1577.54624	65054.025
1580.88103	65322.725
1584.2136	66177.525
1587.54395	68728.925
1590.87208	73370.925
1594.19801	79220.925
1597.52172	84692.525
1600.84321	86625.425
1604.16251	82816.925
1607.47959	75439.225
1610.79447	67645.125
1614.10715	61130.025
1617.41763	56437.325
1620.7259	53592.425
1624.03199	52347.325
1627.33587	52649.125
1630.63757	54425.425
1633.93707	58193.725
1637.23439	64391.025
1640.52951	73510.225
1643.82246	84159.425
1647.11321	92020.425
1650.40179	91800.625
1653.68819	83135.325
1656.97241	70891.825
1660.25446	60293.925
1663.53433	53021.325
1666.81203	48695.525
1670.08756	46073.325
1673.36092	44468.625
1676.63211	43401.225
1679.90115	42593.325
1683.16801	41930.025
1686.43272	41578.825
1689.69527	41228.025
1692.95567	40987.825
1696.2139	40810.025
1699.46999	40812.325
1702.72392	40680.825
1705.97571	40540.025
1709.22535	40531.825
1712.47284	40515.525
1715.71819	40526.425
1718.96139	40463.225
1722.20246	40335.725
1725.44139	40200.625
1728.67818	39995.825
1731.91284	39781.925
1735.14537	39540.825
1738.37576	39355.325
1741.60403	39308.025
1744.83017	39110.125
1748.05418	39024.325
1751.27607	39039.825
1754.49584	38934.825
1757.71349	38961.425
1760.92903	38894.625
1764.14244	38919.125
1767.35375	38885.525
1770.56294	38873.725
1773.77002	38824.025
1776.97499	38834.025
1780.17785	38736.125
1783.37861	38671.625
1786.57727	38534.425
1789.77382	38463.525
1792.96828	38459.025
1796.16064	38435.325
1799.3509	38405.725
1802.53907	38371.025
1805.72514	38328.725
1808.90913	38192.725
1812.09102	38096.925
1815.27083	38071.525
1818.44856	38054.325
1821.6242	38033.225
1824.79776	37919.025
1827.96924	37973.725
1831.13864	38005.425
1834.30597	37987.525
1837.47122	37944.625
1840.6344	37896.225
1843.7955	37924.825
1846.95454	37909.825
1850.11151	37909.725
1853.26642	37905.825
1856.41926	37888.925
1859.57004	37911.425
1862.71876	37809.025
1865.86542	37826.225
1869.01003	37798.125
1872.15258	37763.325
1875.29308	37755.025
1878.43152	37692.925
1881.56792	37643.325
1884.70227	37719.625
1887.83457	37675.625
1890.96482	37742.225
1894.09304	37605.925
1897.21921	37550.525
1900.34335	37507.525
1903.46544	37493.925
1906.58551	37542.825
1909.70353	37511.525
1912.81953	37477.725
1915.93349	37406.025
1919.04543	37293.325
1922.15534	37272.325
1925.26322	37197.825
1928.36908	37157.825
1931.47292	37117.125
1934.57473	37039.025
1937.67453	36908.625
1940.77232	36838.625
1943.86808	36748.425
1946.96184	36674.525
1950.05358	36570.325
1953.14331	36439.825
1956.23103	36407.225
1959.31675	36267.225
1962.40046	36158.525
1965.48217	36033.625
1968.56188	35993.925
1971.63959	35893.525
1974.7153	35825.425
1977.78901	35769.225
1980.86073	35647.525
1983.93046	35578.825
1986.99819	35465.825
1990.06394	35366.025
1993.1277	35349.425
1996.18947	35219.325
1999.24925	35193.125
2002.30706	35075.225
2005.36288	34933.625
2008.41672	34879.025
2011.46859	34817.225
2014.51848	34713.225
2017.56639	34622.525
2020.61233	34580.125
2023.6563	34459.925
2026.6983	34405.825
2029.73833	34359.525
2032.7764	34261.025
2035.8125	34210.825
2038.84664	34207.425
2041.87881	34159.425
2044.90903	34113.925
2047.93729	34069.325
2050.96359	34035.825
2053.98794	34017.925
2057.01034	34008.425
2060.03078	34019.525
2063.04927	34073.825
2066.06582	34030.325
2069.08042	33992.525
2072.09307	33932.125
2075.10378	33927.525
2078.11255	33841.325
2081.11938	33871.725
2084.12426	33865.725
2087.12722	33830.125
2090.12824	33835.625
2093.12732	33871.425
2096.12447	33866.025
2099.11969	33856.725
2102.11299	33838.025
2105.10435	33861.125
2108.09379	33901.425
2111.08131	33941.825
2114.0669	33950.725
2117.05057	33935.325
2120.03233	33947.525
2123.01216	33990.825
2125.99008	34040.425
2128.96609	34076.225
2131.94018	34121.925
2134.91236	34183.125
2137.88263	34226.825
2140.851	34259.825
2143.81746	34275.125
2146.78201	34286.825
2149.74466	34324.025
2152.7054	34328.025
2155.66425	34351.125
2158.6212	34370.925
2161.57625	34317.125
2164.52941	34381.425
2167.48067	34294.225
2170.43004	34248.225
2173.37752	34294.225
2176.32311	34321.925
2179.26681	34395.425
2182.20863	34356.425
2185.14856	34429.025
2188.08661	34435.525
2191.02278	34401.425
2193.95707	34368.725
2196.88948	34343.725
2199.82001	34375.725
2202.74867	34383.425
2205.67545	34297.425
2208.60037	34281.325
2211.52341	34238.325
2214.44458	34183.925
2217.36388	34203.225
2220.28132	34171.025
2223.1969	34102.925
2226.11061	34021.525
2229.02246	33928.925
2231.93245	33888.625
2234.84058	33870.725
2237.74686	33845.525
2240.65128	33846.925
2243.55385	33777.225
2246.45456	33822.525
2249.35343	33687.525
2252.25044	33609.425
2255.14561	33552.025
2258.03893	33561.125
2260.93041	33503.325
2263.82004	33428.225
2266.70783	33321.425
2269.59378	33251.225
2272.4779	33170.325
2275.36017	33171.425
2278.24061	33129.225
2281.11922	33055.525
2283.996	33032.925
2286.87094	33024.425
2289.74405	32976.625
2292.61534	32949.025
2295.4848	32969.625
2298.35243	33015.025
2301.21824	32941.025
2304.08223	32971.225
2306.94439	32976.325
2309.80474	33009.025
2312.66327	33019.525
2315.51999	32969.625
2318.37489	32947.125
2321.22797	32955.725
2324.07925	32974.125
2326.92871	32839.925
2329.77637	32782.825
2332.62222	32800.025
2335.46626	32778.225
2338.3085	32781.625
2341.14893	32818.225
2343.98756	32755.525
2346.8244	32797.925
2349.65943	32863.525
2352.49267	32811.225
2355.32411	32736.725
2358.15376	32742.025
2360.98161	32779.225
2363.80768	32683.525
2366.63195	32660.625
2369.45444	32632.225
2372.27514	32576.025
2375.09405	32616.325
2377.91118	32547.025
2380.72652	32431.925
2383.54009	32373.625
2386.35187	32356.525
2389.16188	32234.625
2391.97011	32225.925
2394.77657	32178.225
2397.58125	32187.425
2400.38416	32108.725
2403.18529	32029.525
2405.98466	32066.125
2408.78226	31981.825
2411.57809	31945.625
2414.37216	31887.425
2417.16446	31871.625
2419.955	31877.925
2422.74378	31863.825
2425.5308	31824.525
2428.31606	31836.325
2431.09956	31871.525
2433.88131	31830.425
2436.6613	31882.325
2439.43954	31851.625
2442.21603	31853.125
2444.99077	31833.425
2447.76377	31819.525
2450.53501	31772.725
2453.30451	31784.625
2456.07226	31768.925
2458.83827	31777.825
2461.60254	31745.525
2464.36507	31731.025
2467.12586	31781.025
2469.88492	31771.025
2472.64224	31784.025
2475.39782	31790.125
2478.15167	31799.525
2480.90379	31830.125
2483.65417	31844.025
2486.40283	31866.425
2489.14976	31872.625
2491.89497	31855.125
2494.63845	31874.525
2497.3802	31822.625
2500.12024	31872.525
2502.85855	31863.525
2505.59514	31861.225
2508.33002	31825.725
2511.06318	31761.725
2513.79462	31759.725
2516.52435	31747.025
2519.25237	31698.825
2521.97867	31726.025
2524.70327	31692.825
2527.42616	31670.925
2530.14734	31667.925
2532.86681	31636.425
2535.58458	31670.225
2538.30065	31624.425
2541.01501	31665.325
2543.72768	31625.925
2546.43864	31640.525
2549.14791	31577.825
2551.85548	31534.825
2554.56136	31461.725
2557.26554	31447.525
2559.96803	31424.325
2562.66883	31402.725
2565.36794	31373.525
2568.06536	31370.325
2570.7611	31377.125
2573.45514	31333.925
2576.14751	31307.225
2578.83819	31305.425
2581.52719	31330.025
2584.21451	31306.825
2586.90015	31311.825
2589.58411	31213.425
2592.2664	31256.925
2594.94701	31185.025
2597.62594	31203.025
2600.30321	31217.525
2602.9788	31203.025
2605.65273	31240.225
2608.32498	31171.525
2610.99557	31196.025
2613.66449	31243.625
2616.33175	31225.325
2618.99734	31191.825
2621.66128	31074.625
2624.32355	31119.625
2626.98416	31047.825
2629.64311	31041.025
2632.30041	31039.425
2634.95605	31003.825
2637.61004	31031.525
2640.26238	31019.125
2642.91306	30977.925
2645.56209	30925.725
2648.20948	30960.125
2650.85521	30949.325
2653.4993	30988.425
2656.14175	30972.725
2658.78255	31030.025
2661.42171	31031.325
2664.05923	31117.825
2666.6951	31085.325
2669.32934	31125.725
2671.96194	31101.325
2674.59291	31138.825
2677.22224	31143.325
2679.84993	31163.725
2682.476	31106.525
2685.10043	31070.525
2687.72324	31043.325
2690.34441	31082.125
2692.96396	31069.925
2695.58188	31033.825
2698.19818	31031.425
2700.81285	31063.025
2703.4259	31033.025
2706.03733	31071.925
2708.64714	31104.525
2711.25533	31100.325
2713.86191	31112.125
2716.46687	31233.625
2719.07021	31258.325
2721.67194	31216.425
2724.27206	31198.425
2726.87057	31235.925
2729.46747	31298.125
2732.06276	31271.125
2734.65644	31301.225
2737.24852	31299.125
2739.83899	31275.325
2742.42786	31334.125
2745.01513	31277.225
2747.60079	31206.325
2750.18486	31182.425
2752.76733	31234.325
2755.3482	31210.125
2757.92747	31203.025
2760.50515	31170.325
2763.08123	31151.125
2765.65573	31128.325
2768.22863	31160.825
2770.79994	31075.025
2773.36967	31091.325
2775.9378	31127.825
2778.50435	31183.325
2781.06932	31113.125
2783.6327	31152.925
2786.1945	31102.825
2788.75471	31057.225
2791.31335	30990.625
2793.87041	30954.125
2796.42589	30893.025
2798.97979	30859.325
2801.53212	30778.025
2804.08288	30767.425
2806.63206	30743.625
2809.17967	30684.725
2811.72571	30571.825
2814.27018	30475.125
2816.81308	30399.425
2819.35442	30389.725
2821.89419	30317.425
2824.43239	30328.625
2826.96904	30345.025
2829.50412	30367.425
2832.03763	30270.825
2834.56959	30265.425
2837.1	30243.425
2839.62884	30197.725
2842.15613	30182.025
2844.68186	30216.625
2847.20604	30160.325
2849.72867	30177.825
2852.24974	30096.825
2854.76927	30113.125
2857.28724	30076.625
2859.80367	30074.125
2862.31855	30040.525
2864.83189	29988.825
2867.34368	29962.325
2869.85393	29961.425
2872.36264	29920.125
2874.8698	29845.725
2877.37543	29851.825
2879.87952	29868.525
2882.38207	29872.825
2884.88308	29878.425
2887.38256	29921.725
2889.88051	29852.125
2892.37692	29932.725
2894.8718	29922.525
2897.36515	29991.225
2899.85698	29972.925
2902.34727	30055.425
2904.83604	30035.625
2907.32328	30080.625
2909.809	30119.425
2912.29319	30119.825
2914.77587	30111.125
2917.25702	30128.525
2919.73665	30108.925
2922.21476	30108.225
2924.69136	30061.925
2927.16644	30052.725
2929.64	30035.825
2932.11205	30029.225
2934.58258	29930.925
2937.05161	29973.225
2939.51912	29986.425
2941.98513	29890.625
2944.44962	29854.425
2946.91261	29868.525
2949.37409	29883.825
2951.83407	29851.425
2954.29254	29886.025
2956.74951	29890.025
2959.20498	29882.625
2961.65895	29866.425
2964.11142	29891.225
2966.56239	29837.125
2969.01186	29798.325
2971.45984	29676.725
2973.90632	29663.725
2976.35131	29647.925
2978.7948	29574.125
2981.23681	29530.425
2983.67732	29426.325
2986.11635	29418.525
2988.55388	29328.325
2990.98993	29275.425
2993.4245	29251.625
2995.85758	29174.125
2998.28917	29075.525
3000.71928	29020.025
3003.14791	28975.825
3005.57506	28983.825
3008.00073	28906.125
3010.42493	28903.725
3012.84764	28790.525
3015.26888	28854.425
3017.68865	28768.425
3020.10694	28725.625
3022.52376	28659.125
3024.9391	28634.325
3027.35298	28615.925
3029.76539	28581.825
3032.17632	28595.225
3034.5858	28523.225
3036.9938	28513.225
3039.40034	28470.825
3041.80542	28504.425
3044.20903	28428.625
3046.61118	28420.525
3049.01187	28380.125
3051.4111	28328.525
3053.80888	28282.125
3056.20519	28230.725
3058.60005	28181.425
3060.99345	28127.825
3063.3854	28038.325
3065.7759	27970.825
3068.16494	27874.125
3070.55254	27780.425
3072.93868	27718.625
3075.32338	27661.325
3077.70662	27613.925
3080.08842	27531.725
3082.46878	27469.225
3084.84769	27439.625
3087.22515	27445.325
3089.60118	27438.425
3091.97576	27395.825
3094.3489	27350.525
3096.72061	27371.525
3099.09087	27357.525
3101.4597	27388.625
3103.82709	27333.925
3106.19305	27334.225
3108.55757	27346.825
3110.92066	27266.925
3113.28232	27262.525
3115.64255	27163.225
3118.00134	27137.925
3120.35871	27036.025
3122.71466	26937.325
3125.06917	26912.925
3127.42226	26882.225
3129.77393	26876.225
3132.12417	26831.425
3134.47299	26830.325
3136.82039	26771.525
3139.16636	26750.425
3141.51092	26764.725
3143.85406	26747.225
3146.19579	26753.925
3148.53609	26751.725
3150.87499	26778.125
3153.21246	26716.625
3155.54853	26812.325
3157.88318	26749.825
3160.21642	26758.225
3162.54826	26728.025
3164.87868	26706.025
3167.2077	26693.325
3169.5353	26673.725
3171.86151	26666.225
3174.18631	26661.425
3176.5097	26685.325
3178.83169	26640.925
3181.15228	26610.725
3183.47147	26514.925
3185.78926	26527.425
3188.10565	26459.125
3190.42065	26434.525
3192.73424	26432.025
3195.04645	26365.625
3197.35725	26385.625
3199.66667	26344.925
3201.97469	26337.425
3204.28132	26262.625
3206.58656	26288.025
3208.8904	26290.125
3211.19287	26284.025
3213.49394	26287.225
3215.79363	26298.425
3218.09193	26322.225
3220.38884	26360.925
3222.68438	26379.025
3224.97853	26256.325
3227.2713	26229.525
3229.56269	26249.625
3231.8527	26249.425
3234.14133	26246.425
3236.42858	26134.425
3238.71446	26127.925
3240.99896	26084.225
3243.28209	26088.225
3245.56384	26007.625
3247.84423	25965.825
3250.12324	25947.725
3252.40088	25983.025
3254.67715	25907.025
3256.95205	25896.525
3259.22558	25881.825
3261.49775	25870.225
3263.76855	25853.825
3266.03799	25755.825
3268.30606	25704.925
3270.57277	25666.725
3272.83812	25658.725
3275.10211	25580.225
3277.36474	25563.625
3279.62601	25581.925
3281.88593	25541.725
3284.14448	25554.225
3286.40168	25553.725
3288.65753	25540.725
3290.91202	25494.725
3293.16516	25471.325
3295.41695	25428.125
3297.66738	25240.825
3299.91647	25135.925
3302.16421	24940.725
3304.4106	24872.525
3306.65564	24699.325
3308.89933	24545.325
3311.14169	24389.425
3313.38269	24233.025
3315.62236	24028.425
3317.86068	23811.125
3320.09766	23612.925
3322.3333	23459.925
3324.5676	23395.025
3326.80056	23039.425
3329.03219	22927.425
3331.26248	6.225
3333.49143	0.125
3335.71905	-1.675
