Data from AgNPs_FTO_APTES_UA_20uM_CRN_5uM_R6G_10uM_NaF_0.1M_Addition_RamanShift__12__13-45-52-147.txt Node

Date: Thu Feb 17 13:45:52 GMT 2022
User: TCL
Spectrometer: QEP01345
Trigger mode: 4
Integration Time (sec): 7.000000E0
Scans to average: 10
Electric dark correction enabled: true
Nonlinearity correction enabled: false
Boxcar width: 0
XAxis mode: Raman Shifts
Number of Pixels in Spectrum: 1044
>>>>>Begin Spectral Data<<<<<
46.04893	0.2
50.45542	-2.3
54.85868	-4.1
59.25871	-1.1
63.6555	131.5
68.04907	130.6
72.43941	138.6
76.82654	141.3
81.21044	148.8
85.59113	148.4
89.96862	154.8
94.34289	154.2
98.71396	161.1
103.08183	168.3
107.4465	170.7
111.80798	175.3
116.16626	184.5
120.52136	194.9
124.87327	202.2
129.222	216.8
133.56755	226.4
137.90993	244
142.24913	271.7
146.58517	314.2
150.91804	368.3
155.24774	439.3
159.57429	551.1
163.89768	712.6
168.21792	952.3
172.53501	1316
176.84895	1842.3
181.15975	2620.5
185.46741	3679.6
189.77193	5114.5
194.07331	6884
198.37157	8916.7
202.6667	11068.6
206.9587	13220.1
211.24758	15306.2
215.53334	17349
219.81599	19452.2
224.09553	21784.6
228.37195	24369
232.64527	27169.9
236.91549	30231.9
241.18261	33374.7
245.44663	36447.8
249.70755	39332
253.96539	41878
258.22014	44052.4
262.4718	45682.5
266.72039	46945.6
270.96589	47617.2
275.20832	47748.8
279.44768	47648.8
283.68397	47285.3
287.91719	46957.4
292.14735	46624.3
296.37445	46560.4
300.59849	46561.9
304.81948	46568.1
309.03742	46459.6
313.25231	46259
317.46415	45789.3
321.67296	45218.2
325.87872	44858.1
330.08145	44705.2
334.28114	44782.3
338.47781	45163.3
342.67145	45619.2
346.86207	46232.1
351.04966	46828
355.23424	47465.5
359.4158	47909.3
363.59435	48351.1
367.76989	48755.2
371.94243	49034.2
376.11196	49352.4
380.27849	49683.1
384.44203	49968.4
388.60257	50344.5
392.76012	50818.9
396.91468	51383.9
401.06626	52103.7
405.21485	52613.9
409.36047	52709.1
413.50311	52500.1
417.64277	52288.6
421.77947	52399
425.9132	52718.4
430.04396	53020.3
434.17176	53416.4
438.2966	53719.7
442.41849	54228.6
446.53742	54982.2
450.6534	55801.7
454.76644	56533.1
458.87653	56924.8
462.98368	57130.5
467.08789	57099.7
471.18916	56857.6
475.2875	56590.9
479.38291	56445.1
483.4754	56226.3
487.56496	56072.4
491.6516	55822.1
495.73531	55506
499.81612	55164.1
503.89401	55359.2
507.96899	55636.7
512.04106	55642.8
516.11023	55660.2
520.1765	55455.3
524.23987	55290.2
528.30034	55153.7
532.35792	54923.9
536.41261	54711.2
540.46441	54537.1
544.51333	54578.5
548.55936	55043.9
552.60252	55671.6
556.64279	56467.4
560.6802	56954.3
564.71473	57403.6
568.7464	57983.8
572.7752	59153.5
576.80114	60632.9
580.82422	62035.3
584.84444	63011.9
588.86181	63573
592.87633	64062
596.888	63993
600.89682	63339.8
604.9028	63490.7
608.90594	65329.5
612.90624	66938.8
616.90371	64365.5
620.89834	59536.5
624.89015	57679.1
628.87913	57604.1
632.86528	58015.5
636.84862	58203.9
640.82913	57815.3
644.80683	57142.1
648.78172	56546.9
652.75379	56372.2
656.72306	56725.2
660.68952	57284.6
664.65319	57303.8
668.61405	57014.3
672.57211	57045.7
676.52738	57257
680.47986	57263.2
684.42955	57174.4
688.37646	57080.1
692.32058	57338.4
696.26192	57711.1
700.20048	58216.6
704.13626	58649
708.06928	58865
711.99952	58815.2
715.927	58689.3
719.85171	58598.1
723.77365	58434.9
727.69284	58160.3
731.60928	57828.9
735.52295	57647.9
739.43388	57625.1
743.34206	57798
747.24749	58037.6
751.15017	58331.8
755.05012	58845.4
758.94733	59689.3
762.8418	61107
766.73354	63419.2
770.62254	65475.6
774.50882	65641.2
778.39237	64113.1
782.27321	62020
786.15132	60294.2
790.02671	59115.8
793.89938	58497.3
797.76935	58171.2
801.6366	57967.7
805.50115	57857.3
809.36299	57817.9
813.22213	57711.8
817.07857	57678
820.93231	57806.1
824.78336	57815.9
828.63172	57772.2
832.47738	57680
836.32036	57750.9
840.16066	57736
843.99827	57781.9
847.8332	57975.2
851.66546	58056.3
855.49504	58118.2
859.32195	58261.2
863.1462	58226.8
866.96777	58302.8
870.78668	58378
874.60293	58458
878.41652	58556.2
882.22745	58619.7
886.03573	58729
889.84136	58762
893.64433	58622
897.44466	58543.9
901.24235	58475.2
905.0374	58424
908.8298	58461.3
912.61957	58544.7
916.40671	58795.1
920.19121	59238.4
923.97308	59538.2
927.75233	59384.6
931.52895	58983.1
935.30295	58585.4
939.07433	58201
942.84309	57775.1
946.60924	57543.8
950.37278	57528.3
954.13371	57606.2
957.89203	57558.3
961.64774	57616.1
965.40086	57574.3
969.15137	57536.6
972.89929	57401.2
976.64461	57316.1
980.38733	57272.9
984.12747	57317.8
987.86502	57534.3
991.59999	57696.3
995.33237	57949.4
999.06217	58304.7
1002.78939	58874
1006.51404	59525.2
1010.23611	60239.3
1013.95561	60677.9
1017.67255	60732.1
1021.38692	60512.9
1025.09872	60074.2
1028.80796	59642.7
1032.51465	59343
1036.21877	59343.9
1039.92035	59415
1043.61937	59588.9
1047.31584	59816.2
1051.00976	59952.6
1054.70114	60213.5
1058.38998	60583.7
1062.07627	61039.4
1065.76003	61614.3
1069.44126	62257.1
1073.11995	62921.1
1076.79611	63460.8
1080.46974	63756.1
1084.14085	63901.3
1087.80943	64084.2
1091.47549	64368.9
1095.13903	64588.6
1098.80005	64358.3
1102.45857	63644.1
1106.11456	62968.8
1109.76805	62508.6
1113.41903	62305.1
1117.06751	62367.7
1120.71348	62549.9
1124.35696	62933.6
1127.99793	63243.9
1131.63641	63310.6
1135.2724	63272.8
1138.90589	63192.2
1142.5369	63317.5
1146.16542	63470.9
1149.79145	63728.7
1153.415	64033.9
1157.03607	64401.8
1160.65467	64964.7
1164.27079	66034.3
1167.88443	67446.4
1171.49561	69238
1175.10432	71410.5
1178.71056	73976
1182.31434	76355.2
1185.91565	77947.7
1189.51451	78644.1
1193.11091	78498.9
1196.70485	77624.5
1200.29634	76290.4
1203.88538	74948.4
1207.47197	74145
1211.05612	73597.2
1214.63782	72760.3
1218.21708	71742.8
1221.79391	70573.3
1225.36829	69743.7
1228.94024	69263.3
1232.50976	68904.3
1236.07685	68603.8
1239.6415	68522.1
1243.20374	68612.8
1246.76355	68915.9
1250.32093	69419.2
1253.8759	70059.3
1257.42845	71182.1
1260.97859	72273.3
1264.52631	73405.3
1268.07163	74545.3
1271.61453	75461.7
1275.15503	76129.8
1278.69312	77086.1
1282.22882	78029.1
1285.76211	79188.7
1289.29301	80553.7
1292.82151	82201.4
1296.34761	84163.7
1299.87133	86436.6
1303.39266	88717.7
1306.9116	90897.7
1310.42815	92667.4
1313.94233	93613.6
1317.45412	93503.5
1320.96354	92831.3
1324.47058	92528.7
1327.97525	92294.4
1331.47754	92349.4
1334.97747	92595.9
1338.47502	93282.2
1341.97022	94095.5
1345.46305	95126.7
1348.95352	95558.3
1352.44163	95135.6
1355.92738	94487.1
1359.41078	94229.5
1362.89183	93871.7
1366.37053	92248.8
1369.84688	88540.1
1373.32088	83947.9
1376.79254	80488.7
1380.26186	78874.5
1383.72883	78390.5
1387.19347	78263.2
1390.65578	77883.3
1394.11575	77358.3
1397.57339	76986.5
1401.0287	77019.3
1404.48168	77026.8
1407.93234	76696.5
1411.38068	76074.8
1414.82669	74879.7
1418.27039	73536.8
1421.71177	72167.8
1425.15083	71028.2
1428.58758	70520.4
1432.02203	70629.6
1435.45416	71208.6
1438.88399	72230
1442.31151	73079.7
1445.73673	73709.8
1449.15965	74260.5
1452.58027	74805.6
1455.9986	75177.4
1459.41463	75726.4
1462.82837	76589.1
1466.23982	77460.4
1469.64898	78312.7
1473.05586	79006.4
1476.46045	79212.7
1479.86276	79311.6
1483.26279	79174.2
1486.66054	79003.1
1490.05602	79295.4
1493.44922	79867.5
1496.84016	80895.9
1500.22882	82167.2
1503.61521	84055
1506.99934	85769
1510.38121	86771.1
1513.76081	86502.1
1517.13816	85267
1520.51324	83972.1
1523.88607	83036.6
1527.25665	82721.1
1530.62498	82773.2
1533.99105	82559.6
1537.35488	81809.1
1540.71647	80783.8
1544.07581	79690.2
1547.4329	78601.8
1550.78776	77505.9
1554.14038	76912.6
1557.49077	76476.8
1560.83892	76243.7
1564.18484	76150
1567.52853	76223
1570.86999	76428.3
1574.20922	76926.5
1577.54624	77250.2
1580.88103	76986.8
1584.2136	76797.7
1587.54395	77464.8
1590.87208	78915.6
1594.19801	80971.3
1597.52172	83053.7
1600.84321	83747.7
1604.16251	82237.1
1607.47959	79858.4
1610.79447	77031.6
1614.10715	73948.6
1617.41763	71008.9
1620.7259	68680.4
1624.03199	67273.4
1627.33587	66731.6
1630.63757	67263.3
1633.93707	68969.2
1637.23439	72076.7
1640.52951	76835.4
1643.82246	82638.6
1647.11321	87381.3
1650.40179	88896.8
1653.68819	86029.9
1656.97241	80115.8
1660.25446	73822.2
1663.53433	68570.4
1666.81203	65043
1670.08756	62701.3
1673.36092	61180.4
1676.63211	60239.2
1679.90115	59480.1
1683.16801	58874.8
1686.43272	58413.3
1689.69527	58196.8
1692.95567	57927.4
1696.2139	57823.1
1699.46999	57736.7
1702.72392	57587.4
1705.97571	57540.7
1709.22535	57430.4
1712.47284	57427.5
1715.71819	57390.7
1718.96139	57388.9
1722.20246	57235.5
1725.44139	57055.7
1728.67818	56844.6
1731.91284	56696.8
1735.14537	56455.7
1738.37576	56299.4
1741.60403	56202.2
1744.83017	56017.7
1748.05418	55882.7
1751.27607	55807.8
1754.49584	55748.7
1757.71349	55783.9
1760.92903	55802.5
1764.14244	55687.1
1767.35375	55615.5
1770.56294	55584.4
1773.77002	55564
1776.97499	55531.6
1780.17785	55421.5
1783.37861	55372.6
1786.57727	55309.8
1789.77382	55207
1792.96828	55184
1796.16064	55125.7
1799.3509	54981.1
1802.53907	54941.5
1805.72514	54813.6
1808.90913	54723.4
1812.09102	54628.3
1815.27083	54583
1818.44856	54447.6
1821.6242	54380.2
1824.79776	54341.6
1827.96924	54274
1831.13864	54273
1834.30597	54246
1837.47122	54208.1
1840.6344	54122.1
1843.7955	54186
1846.95454	54114.6
1850.11151	54164
1853.26642	54058.1
1856.41926	54027
1859.57004	54059.8
1862.71876	53934.1
1865.86542	53879.7
1869.01003	53796.1
1872.15258	53723.8
1875.29308	53651.5
1878.43152	53556.8
1881.56792	53536.9
1884.70227	53518.2
1887.83457	53489.8
1890.96482	53452.7
1894.09304	53361
1897.21921	53330.4
1900.34335	53151.1
1903.46544	53152.3
1906.58551	53122
1909.70353	53046.9
1912.81953	53002.4
1915.93349	52902.1
1919.04543	52808.1
1922.15534	52720.8
1925.26322	52704
1928.36908	52686.3
1931.47292	52557.6
1934.57473	52407.3
1937.67453	52270.6
1940.77232	52175.7
1943.86808	52098.9
1946.96184	51958.7
1950.05358	51825.5
1953.14331	51679
1956.23103	51569.7
1959.31675	51388
1962.40046	51240.8
1965.48217	51055.3
1968.56188	50864.9
1971.63959	50763.1
1974.7153	50626.6
1977.78901	50429.3
1980.86073	50344
1983.93046	50254.3
1986.99819	50068.1
1990.06394	49963.3
1993.1277	49880.6
1996.18947	49734.3
1999.24925	49596.3
2002.30706	49529.1
2005.36288	49340.3
2008.41672	49127.9
2011.46859	48989.9
2014.51848	48832.6
2017.56639	48729.2
2020.61233	48554.9
2023.6563	48423.3
2026.6983	48324.8
2029.73833	48217.7
2032.7764	48098
2035.8125	47999.4
2038.84664	47911.9
2041.87881	47859.7
2044.90903	47757.2
2047.93729	47743.4
2050.96359	47681.1
2053.98794	47622.5
2057.01034	47602.2
2060.03078	47515.7
2063.04927	47489.3
2066.06582	47509
2069.08042	47470.4
2072.09307	47407.6
2075.10378	47395.8
2078.11255	47362.1
2081.11938	47320.3
2084.12426	47278.7
2087.12722	47255.1
2090.12824	47280.3
2093.12732	47258.7
2096.12447	47295.3
2099.11969	47251.4
2102.11299	47197.6
2105.10435	47235.8
2108.09379	47300.4
2111.08131	47342.1
2114.0669	47299
2117.05057	47325.4
2120.03233	47431.4
2123.01216	47499.5
2125.99008	47574.1
2128.96609	47650.8
2131.94018	47654
2134.91236	47743.6
2137.88263	47714.7
2140.851	47664.2
2143.81746	47699.1
2146.78201	47722.9
2149.74466	47838.4
2152.7054	47776
2155.66425	47745.6
2158.6212	47779.4
2161.57625	47722.9
2164.52941	47712.1
2167.48067	47660.7
2170.43004	47622.6
2173.37752	47634.7
2176.32311	47673.8
2179.26681	47691.2
2182.20863	47620.4
2185.14856	47683.1
2188.08661	47706.8
2191.02278	47576.7
2193.95707	47555.9
2196.88948	47508.4
2199.82001	47536.7
2202.74867	47375.5
2205.67545	47347.3
2208.60037	47233
2211.52341	47238.6
2214.44458	47224.8
2217.36388	47122.4
2220.28132	46997.8
2223.1969	46931
2226.11061	46844.9
2229.02246	46702.5
2231.93245	46589.8
2234.84058	46526.8
2237.74686	46488.2
2240.65128	46452.4
2243.55385	46380.9
2246.45456	46376.6
2249.35343	46325.1
2252.25044	46284.4
2255.14561	46230.6
2258.03893	46102.6
2260.93041	45968.3
2263.82004	45929
2266.70783	45877.2
2269.59378	45705.5
2272.4779	45588
2275.36017	45494.4
2278.24061	45508.5
2281.11922	45370.7
2283.996	45236.9
2286.87094	45266.9
2289.74405	45206.2
2292.61534	45086
2295.4848	45027.9
2298.35243	45038.5
2301.21824	44930.3
2304.08223	44918.5
2306.94439	44857.5
2309.80474	44866.9
2312.66327	44792.6
2315.51999	44769.5
2318.37489	44710.5
2321.22797	44668.5
2324.07925	44594.5
2326.92871	44484.6
2329.77637	44399.3
2332.62222	44328.1
2335.46626	44264.1
2338.3085	44222.3
2341.14893	44222.2
2343.98756	44150.8
2346.8244	44141.9
2349.65943	44052.4
2352.49267	44068.6
2355.32411	44022.9
2358.15376	43991.8
2360.98161	44004.3
2363.80768	43930.2
2366.63195	43943.8
2369.45444	43915.7
2372.27514	43813.1
2375.09405	43826.3
2377.91118	43714.8
2380.72652	43628.8
2383.54009	43525.5
2386.35187	43422.7
2389.16188	43299.4
2391.97011	43224.2
2394.77657	43157.9
2397.58125	43033.7
2400.38416	43015.5
2403.18529	42966.4
2405.98466	42937
2408.78226	42860.6
2411.57809	42773.1
2414.37216	42736.9
2417.16446	42779.3
2419.955	42678.6
2422.74378	42599.2
2425.5308	42603.4
2428.31606	42660.4
2431.09956	42559.3
2433.88131	42499.6
2436.6613	42445.1
2439.43954	42470
2442.21603	42413.8
2444.99077	42355.6
2447.76377	42306.3
2450.53501	42233.4
2453.30451	42272.8
2456.07226	42210.5
2458.83827	42113.7
2461.60254	42089.9
2464.36507	42064.8
2467.12586	42054.7
2469.88492	42014.4
2472.64224	41981.3
2475.39782	41945.1
2478.15167	41935.1
2480.90379	41924.4
2483.65417	41950.3
2486.40283	41884.3
2489.14976	41862.5
2491.89497	41758.2
2494.63845	41853.3
2497.3802	41751.7
2500.12024	41682.8
2502.85855	41602.7
2505.59514	41648.1
2508.33002	41544.7
2511.06318	41507.2
2513.79462	41441.9
2516.52435	41392.7
2519.25237	41378.3
2521.97867	41382
2524.70327	41355.8
2527.42616	41285.2
2530.14734	41270
2532.86681	41142.4
2535.58458	41086
2538.30065	41075.3
2541.01501	41014
2543.72768	41042.3
2546.43864	40948.3
2549.14791	40932.1
2551.85548	40784.4
2554.56136	40675.5
2557.26554	40580.3
2559.96803	40484.1
2562.66883	40451.2
2565.36794	40400
2568.06536	40357.4
2570.7611	40280.1
2573.45514	40200.6
2576.14751	40155.4
2578.83819	40034.6
2581.52719	39988.9
2584.21451	39890.6
2586.90015	39867.2
2589.58411	39808.2
2592.2664	39745.2
2594.94701	39678.7
2597.62594	39707.7
2600.30321	39576.4
2602.9788	39571.8
2605.65273	39504.2
2608.32498	39484.2
2610.99557	39364.6
2613.66449	39424.9
2616.33175	39318.9
2618.99734	39213.6
2621.66128	39162.7
2624.32355	39089.5
2626.98416	39026.5
2629.64311	38979.3
2632.30041	39003
2634.95605	38924
2637.61004	38873.2
2640.26238	38844.1
2642.91306	38783.1
2645.56209	38716.1
2648.20948	38757.8
2650.85521	38682.6
2653.4993	38680.8
2656.14175	38666.8
2658.78255	38713.3
2661.42171	38697.3
2664.05923	38792.3
2666.6951	38658.1
2669.32934	38719.7
2671.96194	38680.1
2674.59291	38698.8
2677.22224	38745.3
2679.84993	38749.9
2682.476	38635
2685.10043	38654.9
2687.72324	38548.7
2690.34441	38561.9
2692.96396	38587.8
2695.58188	38595
2698.19818	38548.4
2700.81285	38517.3
2703.4259	38503.4
2706.03733	38559.3
2708.64714	38539.6
2711.25533	38567.4
2713.86191	38570.7
2716.46687	38598.5
2719.07021	38574.4
2721.67194	38591.4
2724.27206	38513.7
2726.87057	38523.1
2729.46747	38548.5
2732.06276	38514.5
2734.65644	38459.8
2737.24852	38530.6
2739.83899	38429.2
2742.42786	38465.7
2745.01513	38416.6
2747.60079	38355
2750.18486	38294.8
2752.76733	38290.2
2755.3482	38182.4
2757.92747	38089.8
2760.50515	38077.8
2763.08123	38045.3
2765.65573	38034.8
2768.22863	38072.2
2770.79994	37902.3
2773.36967	37926.8
2775.9378	37890.8
2778.50435	37922.2
2781.06932	37818.5
2783.6327	37775.3
2786.1945	37696.3
2788.75471	37635.6
2791.31335	37564.8
2793.87041	37480.1
2796.42589	37388.5
2798.97979	37361.5
2801.53212	37263.5
2804.08288	37206.9
2806.63206	37056.7
2809.17967	37022.5
2811.72571	36918
2814.27018	36787.1
2816.81308	36655
2819.35442	36598.4
2821.89419	36485.5
2824.43239	36541.2
2826.96904	36431.6
2829.50412	36519
2832.03763	36308.1
2834.56959	36260.9
2837.1	36206.6
2839.62884	36192.1
2842.15613	36088.7
2844.68186	36101.9
2847.20604	36068.4
2849.72867	36044.6
2852.24974	35936.8
2854.76927	35890.6
2857.28724	35859.7
2859.80367	35846.3
2862.31855	35800.5
2864.83189	35677.9
2867.34368	35633
2869.85393	35623.7
2872.36264	35571.7
2874.8698	35551.2
2877.37543	35466.8
2879.87952	35405.3
2882.38207	35398.4
2884.88308	35417
2887.38256	35382.8
2889.88051	35367.9
2892.37692	35331.5
2894.8718	35360.7
2897.36515	35410.5
2899.85698	35391.7
2902.34727	35425.1
2904.83604	35375.6
2907.32328	35403.6
2909.809	35425.1
2912.29319	35425
2914.77587	35402.9
2917.25702	35443.1
2919.73665	35376.5
2922.21476	35343
2924.69136	35281.4
2927.16644	35281.8
2929.64	35199.3
2932.11205	35219.3
2934.58258	35156.9
2937.05161	35151.8
2939.51912	35226.3
2941.98513	35172.6
2944.44962	35117.8
2946.91261	35028
2949.37409	35090.5
2951.83407	35026.9
2954.29254	35005.1
2956.74951	34985.3
2959.20498	34951.2
2961.65895	34947.9
2964.11142	34975.1
2966.56239	34956.7
2969.01186	34888.2
2971.45984	34798.9
2973.90632	34750.7
2976.35131	34736.7
2978.7948	34694.3
2981.23681	34654.7
2983.67732	34569.8
2986.11635	34477.9
2988.55388	34457.5
2990.98993	34344.4
2993.4245	34353.6
2995.85758	34181.3
2998.28917	34127.4
3000.71928	34061
3003.14791	33965.6
3005.57506	33966.9
3008.00073	33837.8
3010.42493	33847.3
3012.84764	33753
3015.26888	33743.9
3017.68865	33665.3
3020.10694	33589.7
3022.52376	33481.5
3024.9391	33481.5
3027.35298	33454.9
3029.76539	33453.4
3032.17632	33375.4
3034.5858	33315.6
3036.9938	33251.8
3039.40034	33187.9
3041.80542	33226
3044.20903	33108.2
3046.61118	33059.5
3049.01187	32951.5
3051.4111	32876.4
3053.80888	32829.2
3056.20519	32744.1
3058.60005	32686.3
3060.99345	32656.4
3063.3854	32567
3065.7759	32456.7
3068.16494	32345.2
3070.55254	32277.8
3072.93868	32202.8
3075.32338	32061.6
3077.70662	32079.7
3080.08842	31906.7
3082.46878	31900.9
3084.84769	31832.7
3087.22515	31854.9
3089.60118	31800.9
3091.97576	31785.9
3094.3489	31698.6
3096.72061	31752.4
3099.09087	31765
3101.4597	31716.3
3103.82709	31751.5
3106.19305	31619.7
3108.55757	31636.1
3110.92066	31561.8
3113.28232	31582.1
3115.64255	31420.7
3118.00134	31323.1
3120.35871	31219.1
3122.71466	31197.4
3125.06917	31108.5
3127.42226	31046.5
3129.77393	31080.7
3132.12417	30996.6
3134.47299	30917.6
3136.82039	30895.3
3139.16636	30873.4
3141.51092	30873.1
3143.85406	30841.3
3146.19579	30820.6
3148.53609	30812.7
3150.87499	30878.7
3153.21246	30819.9
3155.54853	30881
3157.88318	30854.5
3160.21642	30843
3162.54826	30793.3
3164.87868	30758.2
3167.2077	30698
3169.5353	30679.7
3171.86151	30653
3174.18631	30633.8
3176.5097	30595.6
3178.83169	30532.9
3181.15228	30490.3
3183.47147	30387.3
3185.78926	30365.1
3188.10565	30311.5
3190.42065	30245.9
3192.73424	30177.4
3195.04645	30120.7
3197.35725	30114.6
3199.66667	30098.6
3201.97469	30058
3204.28132	30026.4
3206.58656	30035.1
3208.8904	30011.9
3211.19287	30017.7
3213.49394	30004.6
3215.79363	30018.6
3218.09193	30076.5
3220.38884	30047.6
3222.68438	30009
3224.97853	29909.7
3227.2713	29922.2
3229.56269	29867.5
3231.8527	29868.3
3234.14133	29772.1
3236.42858	29701.8
3238.71446	29615.3
3240.99896	29568.6
3243.28209	29572.2
3245.56384	29517.8
3247.84423	29455.6
3250.12324	29399.8
3252.40088	29372.4
3254.67715	29385.8
3256.95205	29342.8
3259.22558	29352.2
3261.49775	29267.7
3263.76855	29240.4
3266.03799	29133.7
3268.30606	29126.8
3270.57277	29014.9
3272.83812	28984.9
3275.10211	28922.3
3277.36474	28869.7
3279.62601	28847.4
3281.88593	28788.1
3284.14448	28781.9
3286.40168	28743.3
3288.65753	28700.8
3290.91202	28658
3293.16516	28628.8
3295.41695	28544
3297.66738	28376.7
3299.91647	28239.9
3302.16421	28068.5
3304.4106	27919.4
3306.65564	27698.1
3308.89933	27539.5
3311.14169	27341
3313.38269	27157.6
3315.62236	27019.6
3317.86068	26713
3320.09766	26490.1
3322.3333	26303.8
3324.5676	26232.6
3326.80056	25851.9
3329.03219	25707
3331.26248	7.5
3333.49143	0.4
3335.71905	-0.5
