Data from AgNPs_FTO_APTES_UA_10uM_CRN_50uM_R6G_10uM_NaF_0.1M_Addition_RamanShift__18__16-56-24-833.txt Node

Date: Thu Feb 17 16:56:24 GMT 2022
User: TCL
Spectrometer: QEP01345
Trigger mode: 4
Integration Time (sec): 1.000000E1
Scans to average: 7
Electric dark correction enabled: true
Nonlinearity correction enabled: false
Boxcar width: 0
XAxis mode: Raman Shifts
Number of Pixels in Spectrum: 1044
>>>>>Begin Spectral Data<<<<<
46.04893	0.21429
50.45542	-0.35714
54.85868	1.21429
59.25871	-2.07143
63.6555	66.35714
68.04907	66.35714
72.43941	71.64286
76.82654	77.35714
81.21044	80.07143
85.59113	80.21429
89.96862	83.78571
94.34289	79.21429
98.71396	90.21429
103.08183	92.78571
107.4465	96.92857
111.80798	92.64286
116.16626	96.35714
120.52136	100.07143
124.87327	99.64286
129.222	102.92857
133.56755	105.64286
137.90993	120.07143
142.24913	125.92857
146.58517	140.64286
150.91804	156.07143
155.24774	188.5
159.57429	223.35714
163.89768	280.07143
168.21792	374.21429
172.53501	503.07143
176.84895	711.92857
181.15975	984.21429
185.46741	1394.78571
189.77193	1935.92857
194.07331	2589.21429
198.37157	3379.35714
202.6667	4176.07143
206.9587	5004.78571
211.24758	5781.35714
215.53334	6557.35714
219.81599	7387.35714
224.09553	8251.5
228.37195	9264.21429
232.64527	10369.35714
236.91549	11532.21429
241.18261	12716.5
245.44663	13850.64286
249.70755	14904.78571
253.96539	15769.35714
258.22014	16483.5
262.4718	17082.21429
266.72039	17447.35714
270.96589	17677.78571
275.20832	17640.64286
279.44768	17482.92857
283.68397	17231.92857
287.91719	16962.07143
292.14735	16802.5
296.37445	16696.35714
300.59849	16694.78571
304.81948	16713.78571
309.03742	16736.92857
313.25231	16609.21429
317.46415	16371.07143
321.67296	16109.64286
325.87872	15934.92857
330.08145	15876.35714
334.28114	15924.35714
338.47781	16118.35714
342.67145	16355.64286
346.86207	16603.78571
351.04966	16923.07143
355.23424	17277.78571
359.4158	17629.64286
363.59435	17911.5
367.76989	18119.21429
371.94243	18302.64286
376.11196	18485.5
380.27849	18531.92857
384.44203	18661.35714
388.60257	18731.21429
392.76012	18785.35714
396.91468	18952.07143
401.06626	19137.64286
405.21485	19289.78571
409.36047	19284.78571
413.50311	19114.78571
417.64277	18845.35714
421.77947	18765.78571
425.9132	18735.07143
430.04396	18729.07143
434.17176	18920.64286
438.2966	19019.64286
442.41849	19301.5
446.53742	19606.35714
450.6534	19876.07143
454.76644	20167.64286
458.87653	20296.35714
462.98368	20307.35714
467.08789	20253.07143
471.18916	20119.5
475.2875	19952.92857
479.38291	19863.21429
483.4754	19734.92857
487.56496	19625.64286
491.6516	19604.07143
495.73531	19610.07143
499.81612	19609.07143
503.89401	19720.21429
507.96899	19809.35714
512.04106	19892.78571
516.11023	19951.35714
520.1765	20079.78571
524.23987	20079.78571
528.30034	20106.07143
532.35792	20035.64286
536.41261	20013.35714
540.46441	19895.35714
544.51333	19844.35714
548.55936	19791.92857
552.60252	19856.35714
556.64279	19985.35714
560.6802	20019.78571
564.71473	19957.07143
568.7464	20020.78571
572.7752	20048.64286
576.80114	20056.92857
580.82422	20043.5
584.84444	20097.5
588.86181	20312.07143
592.87633	20488.21429
596.888	20715.21429
600.89682	20888.64286
604.9028	21628.35714
608.90594	23420.07143
612.90624	25449.5
616.90371	24724.78571
620.89834	21875.78571
624.89015	20726.78571
628.87913	20628.5
632.86528	20585.64286
636.84862	20581.35714
640.82913	20467.5
644.80683	20191.5
648.78172	19958.07143
652.75379	19931.78571
656.72306	20115.78571
660.68952	20375.35714
664.65319	20370.92857
668.61405	20245.78571
672.57211	20309.5
676.52738	20476.92857
680.47986	20493.35714
684.42955	20444.78571
688.37646	20320.35714
692.32058	20265.78571
696.26192	20297.92857
700.20048	20343.21429
704.13626	20348.35714
708.06928	20277.35714
711.99952	20118.07143
715.927	20059.5
719.85171	20149.07143
723.77365	20151.35714
727.69284	20153.07143
731.60928	20193.78571
735.52295	20182.64286
739.43388	20152.64286
743.34206	20220.21429
747.24749	20237.21429
751.15017	20155.78571
755.05012	20181.07143
758.94733	20315.5
762.8418	20829.92857
766.73354	21790.92857
770.62254	22919.35714
774.50882	23665.21429
778.39237	23408.78571
782.27321	22207.21429
786.15132	21111.78571
790.02671	20422.07143
793.89938	20072.21429
797.76935	19978.5
801.6366	19881.35714
805.50115	19864.64286
809.36299	19818.21429
813.22213	19734.64286
817.07857	19630.92857
820.93231	19603.5
824.78336	19636.78571
828.63172	19659.07143
832.47738	19673.21429
836.32036	19703.64286
840.16066	19783.07143
843.99827	19862.07143
847.8332	19791.78571
851.66546	19713.07143
855.49504	19740.92857
859.32195	19774.78571
863.1462	19858.5
866.96777	19861.5
870.78668	19872.21429
874.60293	19878.21429
878.41652	19909.5
882.22745	19944.07143
886.03573	19952.5
889.84136	19915.21429
893.64433	19861.64286
897.44466	19752.07143
901.24235	19683.78571
905.0374	19589.21429
908.8298	19548.21429
912.61957	19482.92857
916.40671	19540.5
920.19121	19581.07143
923.97308	19725.92857
927.75233	19786.21429
931.52895	19866.78571
935.30295	19810.92857
939.07433	19656.64286
942.84309	19494.5
946.60924	19383.64286
950.37278	19300.78571
954.13371	19225.78571
957.89203	19101.64286
961.64774	19051.92857
965.40086	18971.35714
969.15137	18934.78571
972.89929	18896.35714
976.64461	18893.64286
980.38733	18884.21429
984.12747	18953.21429
987.86502	19023.92857
991.59999	19248.64286
995.33237	19440.35714
999.06217	19746.64286
1002.78939	20176.35714
1006.51404	20258.5
1010.23611	20274.07143
1013.95561	20376.21429
1017.67255	20459.5
1021.38692	20374.07143
1025.09872	20296.35714
1028.80796	20474.78571
1032.51465	20936.21429
1036.21877	21379.92857
1039.92035	21490.21429
1043.61937	21230.64286
1047.31584	20849.21429
1051.00976	20420.78571
1054.70114	20226.64286
1058.38998	20174.07143
1062.07627	20121.78571
1065.76003	20063.92857
1069.44126	20028.21429
1073.11995	20080.64286
1076.79611	20153.35714
1080.46974	20288.78571
1084.14085	20348.92857
1087.80943	20459.78571
1091.47549	20512.5
1095.13903	20408.64286
1098.80005	20264.21429
1102.45857	20134.35714
1106.11456	20137.64286
1109.76805	20166.5
1113.41903	20218.07143
1117.06751	20348.78571
1120.71348	20559.35714
1124.35696	20726.64286
1127.99793	20938.92857
1131.63641	21113.78571
1135.2724	20954.5
1138.90589	20756.92857
1142.5369	20468.78571
1146.16542	20234.5
1149.79145	19995.5
1153.415	19916.78571
1157.03607	19896.78571
1160.65467	20052.78571
1164.27079	20366.35714
1167.88443	20842.64286
1171.49561	21511.35714
1175.10432	22397.64286
1178.71056	23590.78571
1182.31434	24739.5
1185.91565	25338.92857
1189.51451	25280.07143
1193.11091	24559.5
1196.70485	23615.21429
1200.29634	22847.92857
1203.88538	22309.92857
1207.47197	21810.78571
1211.05612	21307.78571
1214.63782	21069.78571
1218.21708	21040.92857
1221.79391	21136.92857
1225.36829	21252.78571
1228.94024	21236.78571
1232.50976	21008.64286
1236.07685	20794.78571
1239.6415	20707.07143
1243.20374	20721.64286
1246.76355	20883.07143
1250.32093	21112.21429
1253.8759	21379.21429
1257.42845	21677.78571
1260.97859	21998.78571
1264.52631	22339.78571
1268.07163	22688.21429
1271.61453	23049.21429
1275.15503	23507.21429
1278.69312	23937.07143
1282.22882	24214.78571
1285.76211	24377.64286
1289.29301	24436.35714
1292.82151	24683.5
1296.34761	25062.35714
1299.87133	25762.5
1303.39266	26801.35714
1306.9116	28188.35714
1310.42815	29732.64286
1313.94233	30515.5
1317.45412	30163.35714
1320.96354	29006.21429
1324.47058	27657.5
1327.97525	26534.64286
1331.47754	25657.21429
1334.97747	25265.21429
1338.47502	25193.78571
1341.97022	25432.21429
1345.46305	25862.64286
1348.95352	26468.64286
1352.44163	27442.35714
1355.92738	28799.64286
1359.41078	30417.78571
1362.89183	31706.92857
1366.37053	31022.64286
1369.84688	28495.92857
1373.32088	25792.21429
1376.79254	24060.21429
1380.26186	23039.5
1383.72883	22574.21429
1387.19347	22256.78571
1390.65578	21772.78571
1394.11575	21422.21429
1397.57339	21343.5
1401.0287	21282.78571
1404.48168	21400.21429
1407.93234	21398.64286
1411.38068	21350.07143
1414.82669	21380.64286
1418.27039	21297.78571
1421.71177	21155.64286
1425.15083	21006.92857
1428.58758	20868.07143
1432.02203	20840.64286
1435.45416	21027.64286
1438.88399	21106.21429
1442.31151	21245.07143
1445.73673	21308.07143
1449.15965	21316.07143
1452.58027	21346.5
1455.9986	21407.64286
1459.41463	21469.21429
1462.82837	21613.21429
1466.23982	21949.5
1469.64898	22179.64286
1473.05586	22402.5
1476.46045	22556.64286
1479.86276	22665.64286
1483.26279	22640.21429
1486.66054	22697.5
1490.05602	22813.21429
1493.44922	23094.21429
1496.84016	23453.92857
1500.22882	24087.78571
1503.61521	25087.07143
1506.99934	26362.35714
1510.38121	27318.5
1513.76081	27545.92857
1517.13816	26820.64286
1520.51324	25498.35714
1523.88607	24217.07143
1527.25665	23311.92857
1530.62498	22767.64286
1533.99105	22460.64286
1537.35488	22260.35714
1540.71647	22185.07143
1544.07581	22113.5
1547.4329	22107.64286
1550.78776	22058.78571
1554.14038	22082.35714
1557.49077	22131.21429
1560.83892	22108.78571
1564.18484	22274.07143
1567.52853	22381.78571
1570.86999	22550.35714
1574.20922	22668.64286
1577.54624	22618.64286
1580.88103	22361.92857
1584.2136	21944.5
1587.54395	21825.64286
1590.87208	22167.21429
1594.19801	23000.21429
1597.52172	23994.78571
1600.84321	24521.78571
1604.16251	24106.64286
1607.47959	23172.35714
1610.79447	22136.92857
1614.10715	21237.5
1617.41763	20470.35714
1620.7259	19954.35714
1624.03199	19739.07143
1627.33587	19736.78571
1630.63757	19931.5
1633.93707	20335.07143
1637.23439	21050.92857
1640.52951	21910.64286
1643.82246	23105.5
1647.11321	24187.78571
1650.40179	24628.92857
1653.68819	23997.35714
1656.97241	22371.35714
1660.25446	20737.64286
1663.53433	19597.21429
1666.81203	18843.21429
1670.08756	18432.92857
1673.36092	18120.92857
1676.63211	17935.64286
1679.90115	17785.07143
1683.16801	17690.21429
1686.43272	17544.92857
1689.69527	17510.21429
1692.95567	17425.35714
1696.2139	17361.92857
1699.46999	17357.21429
1702.72392	17307.64286
1705.97571	17317.78571
1709.22535	17287.07143
1712.47284	17255.21429
1715.71819	17255.92857
1718.96139	17274.21429
1722.20246	17226.21429
1725.44139	17135.21429
1728.67818	17141.64286
1731.91284	17062.92857
1735.14537	17026.64286
1738.37576	16969.78571
1741.60403	16957.92857
1744.83017	16941.78571
1748.05418	16898.07143
1751.27607	16903.5
1754.49584	16898.35714
1757.71349	16890.78571
1760.92903	16876.78571
1764.14244	16785.5
1767.35375	16783.92857
1770.56294	16761.21429
1773.77002	16730.78571
1776.97499	16736.07143
1780.17785	16683.21429
1783.37861	16689.07143
1786.57727	16686.07143
1789.77382	16612.64286
1792.96828	16620.21429
1796.16064	16561.78571
1799.3509	16523.07143
1802.53907	16504.78571
1805.72514	16450.07143
1808.90913	16424.92857
1812.09102	16413.5
1815.27083	16367.92857
1818.44856	16350.21429
1821.6242	16366.21429
1824.79776	16354.35714
1827.96924	16318.07143
1831.13864	16300.92857
1834.30597	16329.92857
1837.47122	16281.5
1840.6344	16252.5
1843.7955	16275.5
1846.95454	16253.64286
1850.11151	16249.92857
1853.26642	16237.21429
1856.41926	16225.64286
1859.57004	16220.21429
1862.71876	16202.35714
1865.86542	16193.07143
1869.01003	16198.92857
1872.15258	16164.21429
1875.29308	16143.92857
1878.43152	16104.5
1881.56792	16139.21429
1884.70227	16099.07143
1887.83457	16080.78571
1890.96482	16117.78571
1894.09304	16058.35714
1897.21921	16056.78571
1900.34335	16080.92857
1903.46544	16023.5
1906.58551	16033.5
1909.70353	15963.78571
1912.81953	15972.5
1915.93349	15944.07143
1919.04543	15946.21429
1922.15534	15953.78571
1925.26322	15906.92857
1928.36908	15820.64286
1931.47292	15855.21429
1934.57473	15817.5
1937.67453	15814.64286
1940.77232	15796.35714
1943.86808	15742.35714
1946.96184	15687.07143
1950.05358	15633.78571
1953.14331	15608.5
1956.23103	15582.35714
1959.31675	15542.07143
1962.40046	15496.64286
1965.48217	15469.78571
1968.56188	15416.78571
1971.63959	15408.35714
1974.7153	15363.21429
1977.78901	15312.35714
1980.86073	15260.21429
1983.93046	15254.35714
1986.99819	15205.35714
1990.06394	15145.07143
1993.1277	15105.07143
1996.18947	15063.35714
1999.24925	15014.35714
2002.30706	15019.92857
2005.36288	14949.92857
2008.41672	14901.5
2011.46859	14890.35714
2014.51848	14882.35714
2017.56639	14739.21429
2020.61233	14736.21429
2023.6563	14729.92857
2026.6983	14673.64286
2029.73833	14641.35714
2032.7764	14628.92857
2035.8125	14606.5
2038.84664	14575.35714
2041.87881	14560.35714
2044.90903	14560.78571
2047.93729	14501.21429
2050.96359	14482.5
2053.98794	14512.64286
2057.01034	14456.5
2060.03078	14464.07143
2063.04927	14466.5
2066.06582	14453.35714
2069.08042	14445.35714
2072.09307	14458.5
2075.10378	14438.92857
2078.11255	14428.07143
2081.11938	14391.78571
2084.12426	14421.5
2087.12722	14416.78571
2090.12824	14436.21429
2093.12732	14418.35714
2096.12447	14391.5
2099.11969	14418.07143
2102.11299	14423.21429
2105.10435	14438.21429
2108.09379	14441.07143
2111.08131	14460.78571
2114.0669	14485.07143
2117.05057	14502.35714
2120.03233	14509.64286
2123.01216	14524.5
2125.99008	14539.64286
2128.96609	14572.64286
2131.94018	14581.5
2134.91236	14596.07143
2137.88263	14608.64286
2140.851	14575.21429
2143.81746	14630.21429
2146.78201	14643.21429
2149.74466	14671.07143
2152.7054	14623.35714
2155.66425	14654.5
2158.6212	14642.07143
2161.57625	14630.07143
2164.52941	14612.07143
2167.48067	14623.78571
2170.43004	14635.92857
2173.37752	14632.64286
2176.32311	14599.92857
2179.26681	14615.64286
2182.20863	14625.92857
2185.14856	14617.07143
2188.08661	14628.21429
2191.02278	14657.64286
2193.95707	14649.78571
2196.88948	14617.78571
2199.82001	14658.35714
2202.74867	14622.21429
2205.67545	14604.64286
2208.60037	14602.35714
2211.52341	14586.07143
2214.44458	14576.21429
2217.36388	14575.78571
2220.28132	14567.64286
2223.1969	14498.64286
2226.11061	14514.92857
2229.02246	14441.78571
2231.93245	14396.78571
2234.84058	14394.07143
2237.74686	14362.21429
2240.65128	14351.78571
2243.55385	14368.64286
2246.45456	14374.07143
2249.35343	14354.92857
2252.25044	14341.5
2255.14561	14311.5
2258.03893	14289.78571
2260.93041	14242.35714
2263.82004	14238.78571
2266.70783	14195.07143
2269.59378	14178.21429
2272.4779	14144.78571
2275.36017	14133.21429
2278.24061	14091.21429
2281.11922	14080.92857
2283.996	14017.78571
2286.87094	14051.64286
2289.74405	14024.35714
2292.61534	14032.21429
2295.4848	14011.35714
2298.35243	14023.78571
2301.21824	14028.92857
2304.08223	14045.5
2306.94439	14013.21429
2309.80474	14013.78571
2312.66327	14026.35714
2315.51999	14036.5
2318.37489	14045.64286
2321.22797	14006.92857
2324.07925	13976.5
2326.92871	13940.07143
2329.77637	13933.07143
2332.62222	13934.78571
2335.46626	13940.5
2338.3085	13916.92857
2341.14893	13877.78571
2343.98756	13901.78571
2346.8244	13917.21429
2349.65943	13906.21429
2352.49267	13858.64286
2355.32411	13896.07143
2358.15376	13885.78571
2360.98161	13870.64286
2363.80768	13840.64286
2366.63195	13841.64286
2369.45444	13818.35714
2372.27514	13796.5
2375.09405	13763.5
2377.91118	13748.64286
2380.72652	13710.21429
2383.54009	13680.78571
2386.35187	13686.92857
2389.16188	13643.78571
2391.97011	13612.35714
2394.77657	13602.64286
2397.58125	13599.5
2400.38416	13608.5
2403.18529	13568.64286
2405.98466	13544.64286
2408.78226	13502.92857
2411.57809	13455.92857
2414.37216	13477.21429
2417.16446	13450.92857
2419.955	13444.78571
2422.74378	13439.78571
2425.5308	13423.78571
2428.31606	13444.35714
2431.09956	13391.78571
2433.88131	13385.78571
2436.6613	13363.78571
2439.43954	13371.21429
2442.21603	13384.07143
2444.99077	13373.78571
2447.76377	13366.21429
2450.53501	13388.5
2453.30451	13356.35714
2456.07226	13342.21429
2458.83827	13316.35714
2461.60254	13328.21429
2464.36507	13294.78571
2467.12586	13326.64286
2469.88492	13290.07143
2472.64224	13272.92857
2475.39782	13266.5
2478.15167	13271.5
2480.90379	13273.92857
2483.65417	13315.07143
2486.40283	13317.35714
2489.14976	13330.21429
2491.89497	13326.35714
2494.63845	13344.07143
2497.3802	13325.92857
2500.12024	13306.21429
2502.85855	13328.64286
2505.59514	13300.78571
2508.33002	13263.5
2511.06318	13251.07143
2513.79462	13240.78571
2516.52435	13198.64286
2519.25237	13172.07143
2521.97867	13180.35714
2524.70327	13163.21429
2527.42616	13142.21429
2530.14734	13115.64286
2532.86681	13127.78571
2535.58458	13145.07143
2538.30065	13148.78571
2541.01501	13146.64286
2543.72768	13109.21429
2546.43864	13088.07143
2549.14791	13076.35714
2551.85548	13077.07143
2554.56136	13061.5
2557.26554	13041.64286
2559.96803	13022.64286
2562.66883	12989.35714
2565.36794	12973.35714
2568.06536	12972.92857
2570.7611	12963.21429
2573.45514	12895.21429
2576.14751	12879.78571
2578.83819	12919.64286
2581.52719	12917.78571
2584.21451	12890.21429
2586.90015	12837.21429
2589.58411	12826.5
2592.2664	12822.92857
2594.94701	12800.78571
2597.62594	12801.78571
2600.30321	12783.92857
2602.9788	12758.64286
2605.65273	12714.5
2608.32498	12734.21429
2610.99557	12723.35714
2613.66449	12727.92857
2616.33175	12742.21429
2618.99734	12729.5
2621.66128	12703.21429
2624.32355	12694.21429
2626.98416	12687.64286
2629.64311	12687.64286
2632.30041	12674.35714
2634.95605	12639.92857
2637.61004	12636.07143
2640.26238	12617.35714
2642.91306	12627.92857
2645.56209	12622.21429
2648.20948	12606.21429
2650.85521	12607.35714
2653.4993	12588.64286
2656.14175	12581.21429
2658.78255	12582.07143
2661.42171	12612.5
2664.05923	12603.64286
2666.6951	12588.78571
2669.32934	12586.78571
2671.96194	12601.92857
2674.59291	12582.92857
2677.22224	12571.35714
2679.84993	12619.21429
2682.476	12569.78571
2685.10043	12595.64286
2687.72324	12546.35714
2690.34441	12541.35714
2692.96396	12544.35714
2695.58188	12557.92857
2698.19818	12551.78571
2700.81285	12533.78571
2703.4259	12516.5
2706.03733	12548.35714
2708.64714	12541.78571
2711.25533	12528.5
2713.86191	12549.07143
2716.46687	12579.64286
2719.07021	12572.07143
2721.67194	12555.78571
2724.27206	12608.21429
2726.87057	12601.35714
2729.46747	12595.64286
2732.06276	12579.07143
2734.65644	12566.92857
2737.24852	12586.07143
2739.83899	12532.07143
2742.42786	12539.92857
2745.01513	12512.5
2747.60079	12480.64286
2750.18486	12480.07143
2752.76733	12494.64286
2755.3482	12483.21429
2757.92747	12480.5
2760.50515	12497.64286
2763.08123	12487.35714
2765.65573	12442.07143
2768.22863	12461.78571
2770.79994	12433.92857
2773.36967	12434.07143
2775.9378	12425.78571
2778.50435	12390.92857
2781.06932	12415.21429
2783.6327	12387.92857
2786.1945	12391.35714
2788.75471	12359.07143
2791.31335	12332.35714
2793.87041	12337.78571
2796.42589	12321.5
2798.97979	12297.07143
2801.53212	12257.35714
2804.08288	12226.78571
2806.63206	12245.64286
2809.17967	12203.92857
2811.72571	12195.64286
2814.27018	12171.92857
2816.81308	12160.78571
2819.35442	12135.64286
2821.89419	12088.92857
2824.43239	12085.78571
2826.96904	12082.92857
2829.50412	12077.78571
2832.03763	12076.21429
2834.56959	12076.64286
2837.1	12091.92857
2839.62884	12088.35714
2842.15613	12042.5
2844.68186	12025.64286
2847.20604	12057.78571
2849.72867	12087.5
2852.24974	12051.78571
2854.76927	12021.92857
2857.28724	11993.5
2859.80367	12010.21429
2862.31855	11976.07143
2864.83189	11963.92857
2867.34368	11960.21429
2869.85393	11964.64286
2872.36264	11960.21429
2874.8698	11940.78571
2877.37543	11937.5
2879.87952	11959.21429
2882.38207	11924.78571
2884.88308	11936.35714
2887.38256	11949.92857
2889.88051	11986.92857
2892.37692	11975.78571
2894.8718	11957.5
2897.36515	11961.07143
2899.85698	11978.92857
2902.34727	11986.78571
2904.83604	12036.5
2907.32328	12048.07143
2909.809	12056.92857
2912.29319	12104.5
2914.77587	12054.21429
2917.25702	12078.07143
2919.73665	12070.78571
2922.21476	12085.35714
2924.69136	12057.5
2927.16644	12087.5
2929.64	12063.5
2932.11205	12037.07143
2934.58258	12036.07143
2937.05161	12058.21429
2939.51912	12019.92857
2941.98513	12040.78571
2944.44962	12031.07143
2946.91261	12015.07143
2949.37409	12039.5
2951.83407	12026.64286
2954.29254	11991.92857
2956.74951	12004.21429
2959.20498	12006.78571
2961.65895	11995.64286
2964.11142	11957.92857
2966.56239	11958.78571
2969.01186	11959.07143
2971.45984	11951.64286
2973.90632	11941.21429
2976.35131	11914.64286
2978.7948	11894.21429
2981.23681	11895.78571
2983.67732	11879.35714
2986.11635	11835.64286
2988.55388	11844.64286
2990.98993	11797.21429
2993.4245	11829.35714
2995.85758	11785.92857
2998.28917	11737.78571
3000.71928	11780.07143
3003.14791	11722.64286
3005.57506	11730.07143
3008.00073	11678.78571
3010.42493	11712.64286
3012.84764	11725.78571
3015.26888	11687.78571
3017.68865	11684.92857
3020.10694	11672.92857
3022.52376	11616.92857
3024.9391	11621.78571
3027.35298	11598.35714
3029.76539	11610.78571
3032.17632	11593.64286
3034.5858	11554.5
3036.9938	11563.92857
3039.40034	11559.92857
3041.80542	11535.92857
3044.20903	11527.78571
3046.61118	11528.64286
3049.01187	11503.64286
3051.4111	11523.5
3053.80888	11491.07143
3056.20519	11481.92857
3058.60005	11466.92857
3060.99345	11455.07143
3063.3854	11436.07143
3065.7759	11390.21429
3068.16494	11388.21429
3070.55254	11380.78571
3072.93868	11347.78571
3075.32338	11340.64286
3077.70662	11314.35714
3080.08842	11304.78571
3082.46878	11288.07143
3084.84769	11317.35714
3087.22515	11357.07143
3089.60118	11341.92857
3091.97576	11315.5
3094.3489	11319.5
3096.72061	11345.78571
3099.09087	11345.5
3101.4597	11346.35714
3103.82709	11363.64286
3106.19305	11353.78571
3108.55757	11363.92857
3110.92066	11330.21429
3113.28232	11330.5
3115.64255	11334.78571
3118.00134	11339.92857
3120.35871	11296.35714
3122.71466	11304.92857
3125.06917	11262.5
3127.42226	11237.07143
3129.77393	11241.5
3132.12417	11253.92857
3134.47299	11249.07143
3136.82039	11278.64286
3139.16636	11262.92857
3141.51092	11292.5
3143.85406	11278.64286
3146.19579	11304.35714
3148.53609	11275.92857
3150.87499	11300.07143
3153.21246	11348.64286
3155.54853	11358.21429
3157.88318	11353.78571
3160.21642	11397.64286
3162.54826	11400.92857
3164.87868	11422.92857
3167.2077	11398.07143
3169.5353	11415.21429
3171.86151	11401.35714
3174.18631	11443.78571
3176.5097	11405.64286
3178.83169	11398.5
3181.15228	11394.5
3183.47147	11383.21429
3185.78926	11395.21429
3188.10565	11358.78571
3190.42065	11377.21429
3192.73424	11385.78571
3195.04645	11377.35714
3197.35725	11389.64286
3199.66667	11371.21429
3201.97469	11416.07143
3204.28132	11371.78571
3206.58656	11419.78571
3208.8904	11434.5
3211.19287	11429.5
3213.49394	11500.78571
3215.79363	11460.78571
3218.09193	11469.35714
3220.38884	11498.21429
3222.68438	11470.92857
3224.97853	11500.92857
3227.2713	11468.21429
3229.56269	11457.21429
3231.8527	11483.35714
3234.14133	11460.21429
3236.42858	11432.07143
3238.71446	11435.78571
3240.99896	11412.21429
3243.28209	11410.21429
3245.56384	11387.92857
3247.84423	11406.92857
3250.12324	11393.35714
3252.40088	11372.21429
3254.67715	11413.64286
3256.95205	11367.07143
3259.22558	11426.64286
3261.49775	11380.35714
3263.76855	11398.64286
3266.03799	11375.35714
3268.30606	11348.92857
3270.57277	11382.21429
3272.83812	11327.07143
3275.10211	11290.07143
3277.36474	11297.78571
3279.62601	11320.64286
3281.88593	11266.5
3284.14448	11291.07143
3286.40168	11258.64286
3288.65753	11283.64286
3290.91202	11249.64286
3293.16516	11250.64286
3295.41695	11248.92857
3297.66738	11186.5
3299.91647	11141.35714
3302.16421	11091.07143
3304.4106	11047.92857
3306.65564	10985.92857
3308.89933	10882.07143
3311.14169	10832.07143
3313.38269	10719.78571
3315.62236	10721.21429
3317.86068	10625.78571
3320.09766	10562.35714
3322.3333	10463.21429
3324.5676	10458.35714
3326.80056	10316.21429
3329.03219	10273.5
3331.26248	1.5
3333.49143	-0.64286
3335.71905	0.21429
