Data from AgNPs_FTO_APTES_UA_20uM_CRN_5uM_R6G_10uM_NaF_0.1M_Addition_RamanShift__9__13-42-22-136.txt Node

Date: Thu Feb 17 13:42:22 GMT 2022
User: TCL
Spectrometer: QEP01345
Trigger mode: 4
Integration Time (sec): 7.000000E0
Scans to average: 10
Electric dark correction enabled: true
Nonlinearity correction enabled: false
Boxcar width: 0
XAxis mode: Raman Shifts
Number of Pixels in Spectrum: 1044
>>>>>Begin Spectral Data<<<<<
46.04893	0.0875
50.45542	-0.7125
54.85868	-3.6125
59.25871	-0.7125
63.6555	125.1875
68.04907	129.3875
72.43941	134.8875
76.82654	137.1875
81.21044	141.8875
85.59113	148.1875
89.96862	146.3875
94.34289	152.9875
98.71396	154.2875
103.08183	164.2875
107.4465	169.5875
111.80798	172.3875
116.16626	177.8875
120.52136	187.4875
124.87327	192.1875
129.222	211.1875
133.56755	221.6875
137.90993	242.6875
142.24913	266.9875
146.58517	305.6875
150.91804	361.9875
155.24774	430.0875
159.57429	542.1875
163.89768	704.4875
168.21792	942.6875
172.53501	1293.1875
176.84895	1818.9875
181.15975	2586.6875
185.46741	3648.7875
189.77193	5051.8875
194.07331	6787.3875
198.37157	8812.7875
202.6667	10898.3875
206.9587	13008.3875
211.24758	15062.4875
215.53334	17056.6875
219.81599	19178.2875
224.09553	21513.4875
228.37195	24093.5875
232.64527	26956.3875
236.91549	29930.3875
241.18261	33058.7875
245.44663	36004.0875
249.70755	38782.0875
253.96539	41150.9875
258.22014	43164.3875
262.4718	44748.3875
266.72039	45983.1875
270.96589	46631.7875
275.20832	46746.5875
279.44768	46627.3875
283.68397	46278.6875
287.91719	45944.1875
292.14735	45775.3875
296.37445	45700.5875
300.59849	45790.3875
304.81948	45934.8875
309.03742	45958.9875
313.25231	45754.3875
317.46415	45241.3875
321.67296	44565.5875
325.87872	44069.7875
330.08145	43809.0875
334.28114	43933.2875
338.47781	44227.5875
342.67145	44715.4875
346.86207	45399.4875
351.04966	46064.3875
355.23424	46682.6875
359.4158	47304.0875
363.59435	47787.0875
367.76989	48137.3875
371.94243	48461.2875
376.11196	48652.1875
380.27849	48892.0875
384.44203	49218.4875
388.60257	49572.8875
392.76012	50047.3875
396.91468	50662.6875
401.06626	51282.8875
405.21485	51796.6875
409.36047	51761.1875
413.50311	51407.8875
417.64277	51139.8875
421.77947	51248.8875
425.9132	51440.0875
430.04396	51795.9875
434.17176	52085.4875
438.2966	52440.0875
442.41849	53008.2875
446.53742	53819.1875
450.6534	54874.6875
454.76644	55677.5875
458.87653	56122.3875
462.98368	56123.9875
467.08789	55912.7875
471.18916	55526.6875
475.2875	55203.2875
479.38291	54939.8875
483.4754	54717.3875
487.56496	54364.5875
491.6516	54041.4875
495.73531	53590.0875
499.81612	53229.9875
503.89401	53437.5875
507.96899	53694.8875
512.04106	53752.1875
516.11023	53648.7875
520.1765	53454.5875
524.23987	53298.3875
528.30034	53077.7875
532.35792	52805.7875
536.41261	52572.4875
540.46441	52342.1875
544.51333	52417.9875
548.55936	52795.3875
552.60252	53643.7875
556.64279	54527.5875
560.6802	55185.9875
564.71473	55547.5875
568.7464	56324.6875
572.7752	57540.3875
576.80114	58962.3875
580.82422	60282.7875
584.84444	61342.3875
588.86181	62442.4875
592.87633	63286.7875
596.888	63016.6875
600.89682	61788.6875
604.9028	61915.8875
608.90594	64364.3875
612.90624	66900.5875
616.90371	63918.0875
620.89834	57772.0875
624.89015	55080.1875
628.87913	54907.1875
632.86528	55307.3875
636.84862	55590.5875
640.82913	55093.9875
644.80683	54306.2875
648.78172	53637.3875
652.75379	53564.9875
656.72306	54010.2875
660.68952	54740.6875
664.65319	54607.9875
668.61405	54151.3875
672.57211	54160.7875
676.52738	54404.1875
680.47986	54392.0875
684.42955	54163.2875
688.37646	54058.5875
692.32058	54326.8875
696.26192	54850.2875
700.20048	55404.4875
704.13626	55876.6875
708.06928	56047.2875
711.99952	55902.3875
715.927	55789.4875
719.85171	55745.1875
723.77365	55678.5875
727.69284	55269.7875
731.60928	54776.4875
735.52295	54551.2875
739.43388	54607.2875
743.34206	54848.3875
747.24749	55101.1875
751.15017	55466.2875
755.05012	56068.1875
758.94733	57065.1875
762.8418	58761.1875
766.73354	61466.7875
770.62254	64052.8875
774.50882	64327.3875
778.39237	62382.2875
782.27321	59741.8875
786.15132	57556.8875
790.02671	56213.9875
793.89938	55455.2875
797.76935	55159.0875
801.6366	54940.5875
805.50115	54813.0875
809.36299	54728.1875
813.22213	54547.9875
817.07857	54616.8875
820.93231	54594.6875
824.78336	54547.2875
828.63172	54371.5875
832.47738	54346.5875
836.32036	54306.6875
840.16066	54451.4875
843.99827	54431.6875
847.8332	54596.7875
851.66546	54579.4875
855.49504	54710.8875
859.32195	54804.4875
863.1462	54769.3875
866.96777	54836.8875
870.78668	54796.3875
874.60293	54902.1875
878.41652	54919.8875
882.22745	55107.4875
886.03573	55120.2875
889.84136	55121.4875
893.64433	55007.0875
897.44466	54821.5875
901.24235	54784.3875
905.0374	54756.7875
908.8298	54775.5875
912.61957	54797.3875
916.40671	55104.4875
920.19121	55527.4875
923.97308	55934.3875
927.75233	55772.4875
931.52895	55430.3875
935.30295	54913.6875
939.07433	54428.6875
942.84309	54026.9875
946.60924	53770.3875
950.37278	53755.8875
954.13371	53892.1875
957.89203	53879.3875
961.64774	53867.0875
965.40086	53817.0875
969.15137	53750.6875
972.89929	53657.7875
976.64461	53604.9875
980.38733	53512.3875
984.12747	53613.6875
987.86502	53845.6875
991.59999	54113.9875
995.33237	54365.2875
999.06217	54876.7875
1002.78939	55517.0875
1006.51404	56334.6875
1010.23611	57019.3875
1013.95561	57476.5875
1017.67255	57630.0875
1021.38692	57361.4875
1025.09872	56879.2875
1028.80796	56262.7875
1032.51465	56141.0875
1036.21877	56194.0875
1039.92035	56318.8875
1043.61937	56427.2875
1047.31584	56519.0875
1051.00976	56596.1875
1054.70114	56744.5875
1058.38998	57024.3875
1062.07627	57501.2875
1065.76003	58078.5875
1069.44126	58718.9875
1073.11995	59409.5875
1076.79611	60061.7875
1080.46974	60444.8875
1084.14085	60724.3875
1087.80943	60969.6875
1091.47549	61343.7875
1095.13903	61379.5875
1098.80005	61012.2875
1102.45857	60235.5875
1106.11456	59482.3875
1109.76805	58991.9875
1113.41903	58852.9875
1117.06751	58926.5875
1120.71348	59281.8875
1124.35696	59709.6875
1127.99793	59986.0875
1131.63641	60094.2875
1135.2724	60040.7875
1138.90589	59893.2875
1142.5369	59906.6875
1146.16542	60213.1875
1149.79145	60460.1875
1153.415	60821.0875
1157.03607	61191.2875
1160.65467	62014.4875
1164.27079	63458.8875
1167.88443	65333.0875
1171.49561	67510.2875
1175.10432	70247.2875
1178.71056	73548.8875
1182.31434	76699.7875
1185.91565	78511.7875
1189.51451	78792.5875
1193.11091	78239.8875
1196.70485	76703.4875
1200.29634	75007.1875
1203.88538	73508.0875
1207.47197	72612.0875
1211.05612	71929.4875
1214.63782	70918.4875
1218.21708	69633.7875
1221.79391	68322.5875
1225.36829	67407.9875
1228.94024	66861.5875
1232.50976	66361.2875
1236.07685	65826.9875
1239.6415	65630.5875
1243.20374	65704.8875
1246.76355	65987.2875
1250.32093	66640.9875
1253.8759	67464.6875
1257.42845	68649.2875
1260.97859	69986.3875
1264.52631	71373.9875
1268.07163	72693.9875
1271.61453	73835.2875
1275.15503	74918.6875
1278.69312	76084.3875
1282.22882	77307.9875
1285.76211	78812.8875
1289.29301	80693.5875
1292.82151	82988.4875
1296.34761	85710.6875
1299.87133	88842.0875
1303.39266	92170.2875
1306.9116	95165.4875
1310.42815	97619.1875
1313.94233	98744.4875
1317.45412	98362.1875
1320.96354	97395.6875
1324.47058	96545.4875
1327.97525	95846.2875
1331.47754	95534.8875
1334.97747	95336.2875
1338.47502	95459.6875
1341.97022	95842.1875
1345.46305	96299.0875
1348.95352	96528.2875
1352.44163	96231.9875
1355.92738	96455.2875
1359.41078	97436.5875
1362.89183	98377.8875
1366.37053	96839.2875
1369.84688	91660.3875
1373.32088	85260.7875
1376.79254	80657.9875
1380.26186	78680.1875
1383.72883	78347.8875
1387.19347	78376.2875
1390.65578	77939.7875
1394.11575	77434.3875
1397.57339	77286.0875
1401.0287	77391.5875
1404.48168	77455.5875
1407.93234	77130.2875
1411.38068	76239.0875
1414.82669	74816.5875
1418.27039	73069.7875
1421.71177	71358.3875
1425.15083	69966.3875
1428.58758	69402.2875
1432.02203	69692.9875
1435.45416	70774.0875
1438.88399	72055.6875
1442.31151	73113.3875
1445.73673	73813.9875
1449.15965	74242.1875
1452.58027	74580.4875
1455.9986	74703.2875
1459.41463	75216.2875
1462.82837	75949.0875
1466.23982	76914.4875
1469.64898	77884.6875
1473.05586	78544.8875
1476.46045	78778.4875
1479.86276	78540.5875
1483.26279	78264.4875
1486.66054	78057.2875
1490.05602	78485.3875
1493.44922	79204.6875
1496.84016	80322.2875
1500.22882	81904.3875
1503.61521	84169.5875
1506.99934	86544.5875
1510.38121	88078.9875
1513.76081	87972.9875
1517.13816	86337.0875
1520.51324	84458.6875
1523.88607	83069.4875
1527.25665	82717.8875
1530.62498	82843.2875
1533.99105	82651.6875
1537.35488	81852.5875
1540.71647	80619.8875
1544.07581	79204.0875
1547.4329	77751.8875
1550.78776	76445.6875
1554.14038	75483.9875
1557.49077	74915.5875
1560.83892	74542.4875
1564.18484	74410.8875
1567.52853	74646.8875
1570.86999	74969.6875
1574.20922	75770.9875
1577.54624	76361.4875
1580.88103	76200.5875
1584.2136	76126.6875
1587.54395	77136.7875
1590.87208	79172.7875
1594.19801	81959.6875
1597.52172	84754.6875
1600.84321	85467.0875
1604.16251	83220.1875
1607.47959	79699.2875
1610.79447	75870.6875
1614.10715	72045.0875
1617.41763	68506.9875
1620.7259	65910.5875
1624.03199	64376.3875
1627.33587	63915.5875
1630.63757	64833.4875
1633.93707	67163.5875
1637.23439	71219.9875
1640.52951	77437.5875
1643.82246	84755.8875
1647.11321	90635.5875
1650.40179	91837.2875
1653.68819	87551.3875
1656.97241	79636.9875
1660.25446	71637.8875
1663.53433	65584.1875
1666.81203	61458.5875
1670.08756	58965.6875
1673.36092	57317.4875
1676.63211	56245.3875
1679.90115	55468.0875
1683.16801	54787.7875
1686.43272	54395.9875
1689.69527	54036.7875
1692.95567	53769.3875
1696.2139	53609.9875
1699.46999	53594.2875
1702.72392	53418.1875
1705.97571	53341.0875
1709.22535	53244.4875
1712.47284	53305.5875
1715.71819	53174.0875
1718.96139	53168.9875
1722.20246	53060.9875
1725.44139	52819.3875
1728.67818	52676.1875
1731.91284	52392.9875
1735.14537	52199.0875
1738.37576	52089.2875
1741.60403	51926.6875
1744.83017	51735.7875
1748.05418	51635.6875
1751.27607	51530.7875
1754.49584	51485.9875
1757.71349	51555.7875
1760.92903	51542.1875
1764.14244	51412.1875
1767.35375	51354.1875
1770.56294	51323.7875
1773.77002	51288.5875
1776.97499	51258.7875
1780.17785	51149.6875
1783.37861	51112.8875
1786.57727	50997.6875
1789.77382	50936.2875
1792.96828	50913.4875
1796.16064	50870.4875
1799.3509	50753.7875
1802.53907	50665.5875
1805.72514	50527.6875
1808.90913	50431.7875
1812.09102	50326.7875
1815.27083	50293.8875
1818.44856	50225.3875
1821.6242	50180.7875
1824.79776	50169.8875
1827.96924	50093.4875
1831.13864	50017.0875
1834.30597	50037.5875
1837.47122	50022.2875
1840.6344	49978.6875
1843.7955	49971.4875
1846.95454	49943.2875
1850.11151	49913.2875
1853.26642	49886.4875
1856.41926	49843.4875
1859.57004	49822.9875
1862.71876	49686.8875
1865.86542	49661.0875
1869.01003	49616.2875
1872.15258	49516.5875
1875.29308	49488.8875
1878.43152	49411.8875
1881.56792	49364.1875
1884.70227	49341.2875
1887.83457	49341.3875
1890.96482	49288.5875
1894.09304	49224.4875
1897.21921	49158.9875
1900.34335	49109.1875
1903.46544	49019.2875
1906.58551	48994.8875
1909.70353	48931.6875
1912.81953	48936.1875
1915.93349	48817.6875
1919.04543	48681.3875
1922.15534	48667.2875
1925.26322	48580.4875
1928.36908	48580.2875
1931.47292	48447.5875
1934.57473	48339.0875
1937.67453	48235.1875
1940.77232	48138.4875
1943.86808	47960.3875
1946.96184	47935.0875
1950.05358	47845.5875
1953.14331	47668.1875
1956.23103	47552.0875
1959.31675	47409.0875
1962.40046	47308.5875
1965.48217	47122.7875
1968.56188	46962.4875
1971.63959	46845.5875
1974.7153	46722.3875
1977.78901	46632.0875
1980.86073	46485.8875
1983.93046	46302.9875
1986.99819	46220.7875
1990.06394	46117.3875
1993.1277	46058.0875
1996.18947	45908.5875
1999.24925	45767.5875
2002.30706	45628.0875
2005.36288	45535.4875
2008.41672	45361.6875
2011.46859	45226.4875
2014.51848	45170.3875
2017.56639	44958.7875
2020.61233	44830.3875
2023.6563	44742.5875
2026.6983	44645.9875
2029.73833	44615.4875
2032.7764	44434.8875
2035.8125	44360.2875
2038.84664	44300.8875
2041.87881	44246.8875
2044.90903	44144.7875
2047.93729	44118.0875
2050.96359	44100.0875
2053.98794	43962.6875
2057.01034	43970.6875
2060.03078	43991.4875
2063.04927	43924.1875
2066.06582	43878.2875
2069.08042	43867.8875
2072.09307	43854.2875
2075.10378	43757.8875
2078.11255	43763.9875
2081.11938	43778.4875
2084.12426	43694.9875
2087.12722	43719.2875
2090.12824	43689.2875
2093.12732	43691.6875
2096.12447	43734.6875
2099.11969	43671.8875
2102.11299	43691.6875
2105.10435	43738.4875
2108.09379	43741.3875
2111.08131	43753.3875
2114.0669	43753.1875
2117.05057	43809.8875
2120.03233	43897.6875
2123.01216	43931.0875
2125.99008	43980.2875
2128.96609	44069.2875
2131.94018	44081.4875
2134.91236	44137.7875
2137.88263	44125.7875
2140.851	44117.0875
2143.81746	44218.4875
2146.78201	44170.4875
2149.74466	44174.3875
2152.7054	44162.4875
2155.66425	44138.3875
2158.6212	44254.2875
2161.57625	44124.9875
2164.52941	44160.8875
2167.48067	44100.2875
2170.43004	44080.3875
2173.37752	44097.0875
2176.32311	44122.2875
2179.26681	44109.9875
2182.20863	44071.3875
2185.14856	44114.2875
2188.08661	44129.0875
2191.02278	44108.0875
2193.95707	44029.9875
2196.88948	43925.2875
2199.82001	43950.3875
2202.74867	43878.2875
2205.67545	43844.8875
2208.60037	43783.4875
2211.52341	43763.7875
2214.44458	43734.3875
2217.36388	43653.7875
2220.28132	43576.1875
2223.1969	43471.3875
2226.11061	43347.6875
2229.02246	43197.4875
2231.93245	43186.2875
2234.84058	43141.9875
2237.74686	43062.5875
2240.65128	43076.5875
2243.55385	42992.7875
2246.45456	42960.5875
2249.35343	42915.8875
2252.25044	42883.1875
2255.14561	42782.0875
2258.03893	42741.1875
2260.93041	42661.8875
2263.82004	42498.8875
2266.70783	42488.2875
2269.59378	42290.0875
2272.4779	42298.9875
2275.36017	42176.7875
2278.24061	42192.3875
2281.11922	42067.4875
2283.996	41977.1875
2286.87094	41993.9875
2289.74405	41920.4875
2292.61534	41855.9875
2295.4848	41772.8875
2298.35243	41783.4875
2301.21824	41695.1875
2304.08223	41697.2875
2306.94439	41687.8875
2309.80474	41716.9875
2312.66327	41685.8875
2315.51999	41589.9875
2318.37489	41540.6875
2321.22797	41538.1875
2324.07925	41481.6875
2326.92871	41275.8875
2329.77637	41245.4875
2332.62222	41240.5875
2335.46626	41205.7875
2338.3085	41105.4875
2341.14893	41077.4875
2343.98756	41046.5875
2346.8244	41071.7875
2349.65943	41048.4875
2352.49267	41008.7875
2355.32411	41024.0875
2358.15376	40967.3875
2360.98161	40947.0875
2363.80768	40947.9875
2366.63195	40894.5875
2369.45444	40900.3875
2372.27514	40817.1875
2375.09405	40780.1875
2377.91118	40717.4875
2380.72652	40585.2875
2383.54009	40548.3875
2386.35187	40462.7875
2389.16188	40345.0875
2391.97011	40250.3875
2394.77657	40175.1875
2397.58125	40083.6875
2400.38416	40065.4875
2403.18529	40013.6875
2405.98466	39938.1875
2408.78226	39874.4875
2411.57809	39853.2875
2414.37216	39811.9875
2417.16446	39818.5875
2419.955	39741.2875
2422.74378	39685.8875
2425.5308	39722.5875
2428.31606	39674.6875
2431.09956	39634.8875
2433.88131	39581.2875
2436.6613	39584.5875
2439.43954	39589.1875
2442.21603	39542.7875
2444.99077	39487.6875
2447.76377	39481.1875
2450.53501	39453.4875
2453.30451	39407.9875
2456.07226	39397.6875
2458.83827	39302.9875
2461.60254	39260.0875
2464.36507	39273.1875
2467.12586	39239.4875
2469.88492	39217.3875
2472.64224	39192.0875
2475.39782	39193.5875
2478.15167	39204.6875
2480.90379	39160.3875
2483.65417	39199.6875
2486.40283	39189.2875
2489.14976	39186.6875
2491.89497	39066.1875
2494.63845	39121.6875
2497.3802	39046.4875
2500.12024	39015.8875
2502.85855	38988.2875
2505.59514	38941.1875
2508.33002	38887.0875
2511.06318	38819.3875
2513.79462	38848.0875
2516.52435	38747.9875
2519.25237	38700.0875
2521.97867	38730.3875
2524.70327	38718.7875
2527.42616	38671.2875
2530.14734	38661.6875
2532.86681	38544.9875
2535.58458	38522.9875
2538.30065	38483.9875
2541.01501	38430.5875
2543.72768	38458.4875
2546.43864	38424.7875
2549.14791	38336.4875
2551.85548	38292.6875
2554.56136	38170.6875
2557.26554	38069.9875
2559.96803	38034.1875
2562.66883	37923.6875
2565.36794	37914.1875
2568.06536	37893.4875
2570.7611	37819.0875
2573.45514	37733.3875
2576.14751	37705.9875
2578.83819	37593.3875
2581.52719	37591.5875
2584.21451	37550.0875
2586.90015	37469.0875
2589.58411	37411.8875
2592.2664	37403.9875
2594.94701	37286.8875
2597.62594	37344.8875
2600.30321	37292.9875
2602.9788	37250.5875
2605.65273	37175.4875
2608.32498	37184.7875
2610.99557	37145.8875
2613.66449	37113.5875
2616.33175	37039.5875
2618.99734	37018.6875
2621.66128	36879.5875
2624.32355	36851.9875
2626.98416	36818.6875
2629.64311	36777.6875
2632.30041	36763.7875
2634.95605	36721.1875
2637.61004	36670.4875
2640.26238	36645.1875
2642.91306	36596.3875
2645.56209	36534.6875
2648.20948	36540.5875
2650.85521	36536.8875
2653.4993	36546.4875
2656.14175	36554.3875
2658.78255	36546.9875
2661.42171	36585.3875
2664.05923	36605.5875
2666.6951	36554.9875
2669.32934	36539.3875
2671.96194	36523.3875
2674.59291	36626.6875
2677.22224	36566.1875
2679.84993	36597.0875
2682.476	36573.3875
2685.10043	36519.9875
2687.72324	36489.7875
2690.34441	36484.4875
2692.96396	36464.4875
2695.58188	36471.6875
2698.19818	36429.2875
2700.81285	36401.1875
2703.4259	36408.6875
2706.03733	36484.0875
2708.64714	36419.2875
2711.25533	36464.5875
2713.86191	36472.6875
2716.46687	36529.4875
2719.07021	36523.6875
2721.67194	36505.9875
2724.27206	36461.2875
2726.87057	36485.7875
2729.46747	36516.5875
2732.06276	36499.0875
2734.65644	36449.6875
2737.24852	36501.2875
2739.83899	36460.6875
2742.42786	36458.2875
2745.01513	36428.0875
2747.60079	36346.9875
2750.18486	36290.3875
2752.76733	36304.7875
2755.3482	36222.3875
2757.92747	36168.1875
2760.50515	36086.0875
2763.08123	36123.7875
2765.65573	36080.1875
2768.22863	36066.7875
2770.79994	35985.5875
2773.36967	36023.9875
2775.9378	36043.7875
2778.50435	35995.1875
2781.06932	35921.0875
2783.6327	35844.4875
2786.1945	35771.7875
2788.75471	35736.0875
2791.31335	35673.4875
2793.87041	35639.1875
2796.42589	35566.1875
2798.97979	35540.2875
2801.53212	35390.4875
2804.08288	35372.4875
2806.63206	35274.5875
2809.17967	35206.2875
2811.72571	35047.2875
2814.27018	34962.9875
2816.81308	34879.4875
2819.35442	34798.8875
2821.89419	34735.2875
2824.43239	34762.3875
2826.96904	34736.0875
2829.50412	34669.3875
2832.03763	34617.3875
2834.56959	34548.4875
2837.1	34488.8875
2839.62884	34446.3875
2842.15613	34344.8875
2844.68186	34402.4875
2847.20604	34365.2875
2849.72867	34362.2875
2852.24974	34251.8875
2854.76927	34264.8875
2857.28724	34201.3875
2859.80367	34161.9875
2862.31855	34141.7875
2864.83189	34062.6875
2867.34368	33979.7875
2869.85393	34015.9875
2872.36264	33947.6875
2874.8698	33886.2875
2877.37543	33816.8875
2879.87952	33786.4875
2882.38207	33801.0875
2884.88308	33796.9875
2887.38256	33809.1875
2889.88051	33754.1875
2892.37692	33747.5875
2894.8718	33813.3875
2897.36515	33821.4875
2899.85698	33802.3875
2902.34727	33880.8875
2904.83604	33820.3875
2907.32328	33876.9875
2909.809	33866.5875
2912.29319	33829.9875
2914.77587	33856.0875
2917.25702	33887.6875
2919.73665	33833.7875
2922.21476	33846.6875
2924.69136	33749.7875
2927.16644	33738.9875
2929.64	33680.4875
2932.11205	33650.3875
2934.58258	33634.6875
2937.05161	33675.9875
2939.51912	33684.6875
2941.98513	33647.5875
2944.44962	33556.4875
2946.91261	33515.7875
2949.37409	33626.3875
2951.83407	33497.4875
2954.29254	33461.0875
2956.74951	33464.7875
2959.20498	33449.0875
2961.65895	33468.5875
2964.11142	33461.4875
2966.56239	33409.7875
2969.01186	33442.9875
2971.45984	33292.6875
2973.90632	33309.5875
2976.35131	33221.2875
2978.7948	33190.4875
2981.23681	33130.1875
2983.67732	33095.3875
2986.11635	33033.5875
2988.55388	32946.5875
2990.98993	32905.5875
2993.4245	32831.8875
2995.85758	32791.2875
2998.28917	32672.0875
3000.71928	32615.2875
3003.14791	32524.4875
3005.57506	32502.3875
3008.00073	32376.1875
3010.42493	32353.8875
3012.84764	32254.3875
3015.26888	32251.3875
3017.68865	32226.3875
3020.10694	32144.3875
3022.52376	32083.4875
3024.9391	32050.7875
3027.35298	31989.4875
3029.76539	31980.4875
3032.17632	31955.5875
3034.5858	31899.6875
3036.9938	31872.9875
3039.40034	31806.8875
3041.80542	31829.1875
3044.20903	31722.5875
3046.61118	31707.8875
3049.01187	31595.3875
3051.4111	31495.0875
3053.80888	31421.7875
3056.20519	31423.8875
3058.60005	31322.6875
3060.99345	31289.3875
3063.3854	31227.1875
3065.7759	31067.6875
3068.16494	31011.9875
3070.55254	30881.4875
3072.93868	30836.0875
3075.32338	30734.8875
3077.70662	30696.5875
3080.08842	30607.1875
3082.46878	30563.1875
3084.84769	30530.7875
3087.22515	30518.7875
3089.60118	30488.7875
3091.97576	30408.1875
3094.3489	30390.0875
3096.72061	30368.3875
3099.09087	30445.7875
3101.4597	30392.2875
3103.82709	30383.1875
3106.19305	30313.7875
3108.55757	30314.5875
3110.92066	30244.6875
3113.28232	30215.8875
3115.64255	30138.3875
3118.00134	30056.3875
3120.35871	29932.0875
3122.71466	29837.9875
3125.06917	29801.8875
3127.42226	29765.1875
3129.77393	29782.8875
3132.12417	29667.0875
3134.47299	29634.6875
3136.82039	29611.8875
3139.16636	29619.8875
3141.51092	29543.4875
3143.85406	29562.3875
3146.19579	29552.3875
3148.53609	29530.9875
3150.87499	29557.7875
3153.21246	29562.4875
3155.54853	29571.6875
3157.88318	29568.7875
3160.21642	29572.1875
3162.54826	29527.2875
3164.87868	29490.9875
3167.2077	29442.2875
3169.5353	29394.5875
3171.86151	29348.7875
3174.18631	29360.7875
3176.5097	29366.4875
3178.83169	29280.7875
3181.15228	29251.0875
3183.47147	29120.2875
3185.78926	29151.3875
3188.10565	29101.9875
3190.42065	29052.1875
3192.73424	29022.3875
3195.04645	28916.3875
3197.35725	28891.9875
3199.66667	28909.1875
3201.97469	28875.9875
3204.28132	28808.6875
3206.58656	28845.5875
3208.8904	28839.3875
3211.19287	28831.8875
3213.49394	28815.0875
3215.79363	28844.0875
3218.09193	28848.4875
3220.38884	28815.1875
3222.68438	28837.5875
3224.97853	28779.3875
3227.2713	28740.0875
3229.56269	28670.8875
3231.8527	28682.0875
3234.14133	28639.4875
3236.42858	28545.1875
3238.71446	28510.9875
3240.99896	28403.5875
3243.28209	28437.2875
3245.56384	28412.0875
3247.84423	28329.4875
3250.12324	28276.4875
3252.40088	28309.9875
3254.67715	28226.4875
3256.95205	28219.5875
3259.22558	28230.2875
3261.49775	28136.4875
3263.76855	28135.8875
3266.03799	28055.4875
3268.30606	27970.2875
3270.57277	27932.0875
3272.83812	27879.2875
3275.10211	27810.0875
3277.36474	27761.5875
3279.62601	27785.8875
3281.88593	27693.0875
3284.14448	27741.5875
3286.40168	27706.6875
3288.65753	27661.4875
3290.91202	27640.6875
3293.16516	27589.3875
3295.41695	27503.4875
3297.66738	27338.7875
3299.91647	27230.3875
3302.16421	27040.7875
3304.4106	26906.6875
3306.65564	26713.7875
3308.89933	26534.5875
3311.14169	26374.1875
3313.38269	26162.4875
3315.62236	26058.2875
3317.86068	25775.3875
3320.09766	25543.5875
3322.3333	25372.6875
3324.5676	25277.4875
3326.80056	24904.7875
3329.03219	24767.2875
3331.26248	6.2875
3333.49143	-0.0125
3335.71905	-1.2125
