Data from AgNPs_FTO_APTES_UA_20uM_CRN_1uM_R6G_10uM_NaF_0.1M_Addition_RamanShift__2__12-04-22-015.txt Node

Date: Thu Feb 17 12:04:22 GMT 2022
User: TCL
Spectrometer: QEP01345
Trigger mode: 4
Integration Time (sec): 7.000000E0
Scans to average: 10
Electric dark correction enabled: true
Nonlinearity correction enabled: false
Boxcar width: 0
XAxis mode: Raman Shifts
Number of Pixels in Spectrum: 1044
>>>>>Begin Spectral Data<<<<<
46.04893	-1.375
50.45542	-1.275
54.85868	-3.675
59.25871	0.025
63.6555	108.025
68.04907	110.225
72.43941	117.225
76.82654	115.825
81.21044	123.725
85.59113	129.625
89.96862	131.525
94.34289	134.525
98.71396	134.025
103.08183	140.225
107.4465	146.325
111.80798	148.625
116.16626	158.225
120.52136	161.525
124.87327	164.125
129.222	176.925
133.56755	191.625
137.90993	204.625
142.24913	226.525
146.58517	260.525
150.91804	301.825
155.24774	358.525
159.57429	453.025
163.89768	587.625
168.21792	793.325
172.53501	1093.625
176.84895	1533.025
181.15975	2166.525
185.46741	3047.125
189.77193	4216.325
194.07331	5648.925
198.37157	7276.025
202.6667	8992.025
206.9587	10678.925
211.24758	12381.325
215.53334	14035.525
219.81599	15848.125
224.09553	17820.925
228.37195	20012.925
232.64527	22440.525
236.91549	24931.525
241.18261	27446.825
245.44663	29797.625
249.70755	31916.225
253.96539	33720.725
258.22014	35197.825
262.4718	36468.925
266.72039	37413.025
270.96589	37855.025
275.20832	37794.825
279.44768	37455.825
283.68397	37058.725
287.91719	36607.125
292.14735	36326.925
296.37445	36298.625
300.59849	36449.225
304.81948	36697.125
309.03742	36911.225
313.25231	36921.425
317.46415	36644.725
321.67296	36149.025
325.87872	35728.025
330.08145	35496.325
334.28114	35501.625
338.47781	35767.525
342.67145	36218.125
346.86207	36872.725
351.04966	37572.825
355.23424	38340.225
359.4158	38935.525
363.59435	39369.225
367.76989	39659.025
371.94243	39890.825
376.11196	40121.425
380.27849	40333.725
384.44203	40645.825
388.60257	41017.425
392.76012	41346.525
396.91468	41781.325
401.06626	42257.025
405.21485	42668.025
409.36047	42627.625
413.50311	42257.925
417.64277	42121.425
421.77947	42241.725
425.9132	42459.325
430.04396	42686.825
434.17176	42984.825
438.2966	43376.825
442.41849	44306.625
446.53742	45783.625
450.6534	47321.925
454.76644	48311.225
458.87653	48380.525
462.98368	47762.825
467.08789	46804.125
471.18916	45832.925
475.2875	44844.025
479.38291	44109.225
483.4754	43660.525
487.56496	43260.325
491.6516	42969.525
495.73531	42672.725
499.81612	42548.425
503.89401	42792.125
507.96899	42990.625
512.04106	42896.125
516.11023	42754.425
520.1765	42554.425
524.23987	42504.625
528.30034	42518.425
532.35792	42366.025
536.41261	41882.925
540.46441	41346.425
544.51333	41169.625
548.55936	41421.125
552.60252	42193.325
556.64279	43324.625
560.6802	44211.825
564.71473	44594.825
568.7464	45122.625
572.7752	46279.525
576.80114	47379.425
580.82422	48609.225
584.84444	50556.425
588.86181	53446.525
592.87633	56478.425
596.888	56596.625
600.89682	53574.825
604.9028	51995.325
608.90594	54465.725
612.90624	57810.425
616.90371	54841.025
620.89834	47469.925
624.89015	44124.325
628.87913	43637.225
632.86528	43649.625
636.84862	43402.125
640.82913	42663.425
644.80683	41756.725
648.78172	41317.025
652.75379	41337.925
656.72306	41943.125
660.68952	42656.325
664.65319	42445.325
668.61405	41765.725
672.57211	41677.425
676.52738	41979.025
680.47986	41934.825
684.42955	41551.825
688.37646	41481.725
692.32058	41810.425
696.26192	42506.025
700.20048	43253.425
704.13626	43536.725
708.06928	43423.825
711.99952	43241.225
715.927	43264.825
719.85171	43560.025
723.77365	43537.225
727.69284	42979.425
731.60928	42410.625
735.52295	42283.925
739.43388	42345.125
743.34206	42552.825
747.24749	42802.425
751.15017	43152.725
755.05012	43726.725
758.94733	44735.525
762.8418	46474.025
766.73354	49153.525
770.62254	51682.725
774.50882	52089.225
778.39237	50271.325
782.27321	47646.525
786.15132	45275.125
790.02671	43792.525
793.89938	43085.425
797.76935	42798.225
801.6366	42739.525
805.50115	42655.025
809.36299	42501.125
813.22213	42214.425
817.07857	42025.625
820.93231	41856.625
824.78336	41701.525
828.63172	41620.425
832.47738	41648.625
836.32036	41756.425
840.16066	41908.425
843.99827	42110.625
847.8332	42117.525
851.66546	42054.125
855.49504	42012.525
859.32195	42026.925
863.1462	41995.525
866.96777	41871.825
870.78668	41889.525
874.60293	41919.725
878.41652	42004.725
882.22745	42147.425
886.03573	42300.725
889.84136	42258.825
893.64433	42145.325
897.44466	41940.425
901.24235	41732.825
905.0374	41675.325
908.8298	41553.125
912.61957	41646.125
916.40671	41990.725
920.19121	42417.025
923.97308	42920.225
927.75233	43134.225
931.52895	42932.125
935.30295	42357.225
939.07433	41838.225
942.84309	41424.825
946.60924	41361.825
950.37278	41338.025
954.13371	41333.025
957.89203	41227.425
961.64774	41127.525
965.40086	41143.325
969.15137	41155.725
972.89929	41023.325
976.64461	41014.025
980.38733	41104.025
984.12747	41270.325
987.86502	41642.425
991.59999	42100.225
995.33237	42737.725
999.06217	43742.525
1002.78939	45010.325
1006.51404	46032.125
1010.23611	46844.125
1013.95561	47435.125
1017.67255	47490.725
1021.38692	46855.525
1025.09872	45975.925
1028.80796	45712.425
1032.51465	46151.325
1036.21877	46916.625
1039.92035	47105.125
1043.61937	46736.025
1047.31584	46113.725
1051.00976	45299.325
1054.70114	44925.225
1058.38998	44851.025
1062.07627	44986.025
1065.76003	45311.125
1069.44126	45727.225
1073.11995	46437.225
1076.79611	47120.725
1080.46974	47571.925
1084.14085	48057.925
1087.80943	48617.025
1091.47549	48960.525
1095.13903	48792.925
1098.80005	48143.825
1102.45857	47274.425
1106.11456	46781.425
1109.76805	46617.925
1113.41903	46743.825
1117.06751	46916.325
1120.71348	47315.225
1124.35696	47617.425
1127.99793	47949.925
1131.63641	48143.325
1135.2724	47993.925
1138.90589	47790.225
1142.5369	47808.825
1146.16542	48053.925
1149.79145	48380.425
1153.415	48698.525
1157.03607	49215.925
1160.65467	50430.025
1164.27079	52397.925
1167.88443	54927.625
1171.49561	57799.125
1175.10432	61465.025
1178.71056	66200.225
1182.31434	70560.525
1185.91565	72402.325
1189.51451	71208.325
1193.11091	68550.825
1196.70485	65973.625
1200.29634	63702.225
1203.88538	62225.425
1207.47197	61380.525
1211.05612	60670.825
1214.63782	59761.925
1218.21708	58896.325
1221.79391	58345.625
1225.36829	58157.525
1228.94024	57640.525
1232.50976	56592.925
1236.07685	55183.725
1239.6415	54366.425
1243.20374	54213.325
1246.76355	54610.625
1250.32093	55454.425
1253.8759	56604.525
1257.42845	58077.125
1260.97859	59692.625
1264.52631	61409.125
1268.07163	63292.925
1271.61453	65107.625
1275.15503	66881.325
1278.69312	68588.725
1282.22882	70258.125
1285.76211	72352.225
1289.29301	74894.425
1292.82151	77865.825
1296.34761	81607.625
1299.87133	86321.425
1303.39266	91707.025
1306.9116	97250.025
1310.42815	102006.925
1313.94233	104613.325
1317.45412	103825.725
1320.96354	100706.125
1324.47058	97293.125
1327.97525	94645.125
1331.47754	92614.325
1334.97747	91035.925
1338.47502	89668.925
1341.97022	88082.125
1345.46305	86357.725
1348.95352	85472.925
1352.44163	86304.725
1355.92738	89854.025
1359.41078	95223.925
1362.89183	99402.525
1366.37053	98328.325
1369.84688	90714.225
1373.32088	80669.925
1376.79254	73883.125
1380.26186	71378.925
1383.72883	71348.725
1387.19347	71262.925
1390.65578	70429.925
1394.11575	70099.925
1397.57339	70847.725
1401.0287	72195.925
1404.48168	73401.325
1407.93234	73653.325
1411.38068	72790.625
1414.82669	71186.825
1418.27039	69071.825
1421.71177	66750.825
1425.15083	64776.825
1428.58758	64110.825
1432.02203	65006.625
1435.45416	66860.225
1438.88399	68751.825
1442.31151	69936.625
1445.73673	70313.825
1449.15965	70274.925
1452.58027	69731.525
1455.9986	69036.925
1459.41463	69014.025
1462.82837	70052.425
1466.23982	71517.425
1469.64898	72962.125
1473.05586	73965.025
1476.46045	74379.025
1479.86276	74151.925
1483.26279	73573.725
1486.66054	73235.225
1490.05602	73594.425
1493.44922	74066.625
1496.84016	74347.425
1500.22882	75019.725
1503.61521	76279.825
1506.99934	77909.625
1510.38121	79252.225
1513.76081	79264.325
1517.13816	77463.725
1520.51324	74876.725
1523.88607	73025.825
1527.25665	72654.025
1530.62498	72905.025
1533.99105	73098.825
1537.35488	72502.925
1540.71647	71276.525
1544.07581	69792.425
1547.4329	68148.225
1550.78776	66618.625
1554.14038	65403.825
1557.49077	64645.925
1560.83892	64241.325
1564.18484	64006.825
1567.52853	64167.525
1570.86999	64656.625
1574.20922	65647.925
1577.54624	66397.325
1580.88103	66529.425
1584.2136	67225.725
1587.54395	69551.825
1590.87208	74004.425
1594.19801	79842.225
1597.52172	85313.125
1600.84321	87332.225
1604.16251	83740.225
1607.47959	76454.925
1610.79447	68698.525
1614.10715	62267.525
1617.41763	57636.725
1620.7259	54841.525
1624.03199	53699.125
1627.33587	54051.025
1630.63757	55781.825
1633.93707	59383.525
1637.23439	65382.725
1640.52951	74325.625
1643.82246	84806.625
1647.11321	92790.725
1650.40179	92839.425
1653.68819	84516.125
1656.97241	72344.325
1660.25446	61780.925
1663.53433	54545.125
1666.81203	50285.625
1670.08756	47678.025
1673.36092	46122.125
1676.63211	45083.525
1679.90115	44314.525
1683.16801	43676.725
1686.43272	43290.425
1689.69527	43004.725
1692.95567	42764.325
1696.2139	42615.125
1699.46999	42575.425
1702.72392	42473.525
1705.97571	42405.125
1709.22535	42308.425
1712.47284	42348.725
1715.71819	42343.525
1718.96139	42293.925
1722.20246	42219.625
1725.44139	42007.125
1728.67818	41829.625
1731.91284	41591.225
1735.14537	41370.025
1738.37576	41231.125
1741.60403	41102.125
1744.83017	40925.225
1748.05418	40850.825
1751.27607	40815.425
1754.49584	40807.125
1757.71349	40807.525
1760.92903	40747.025
1764.14244	40718.525
1767.35375	40735.525
1770.56294	40691.425
1773.77002	40674.225
1776.97499	40683.225
1780.17785	40570.725
1783.37861	40527.225
1786.57727	40431.725
1789.77382	40399.325
1792.96828	40334.125
1796.16064	40318.425
1799.3509	40276.925
1802.53907	40157.325
1805.72514	40126.725
1808.90913	40009.925
1812.09102	39974.725
1815.27083	39915.025
1818.44856	39889.925
1821.6242	39814.225
1824.79776	39792.925
1827.96924	39761.925
1831.13864	39798.125
1834.30597	39769.825
1837.47122	39769.525
1840.6344	39669.025
1843.7955	39699.725
1846.95454	39726.425
1850.11151	39731.325
1853.26642	39745.025
1856.41926	39726.525
1859.57004	39756.025
1862.71876	39617.125
1865.86542	39612.725
1869.01003	39582.325
1872.15258	39566.025
1875.29308	39555.625
1878.43152	39534.525
1881.56792	39567.325
1884.70227	39513.425
1887.83457	39557.925
1890.96482	39531.925
1894.09304	39432.425
1897.21921	39347.425
1900.34335	39333.725
1903.46544	39378.225
1906.58551	39376.425
1909.70353	39320.325
1912.81953	39292.725
1915.93349	39263.925
1919.04543	39136.925
1922.15534	39125.525
1925.26322	39058.125
1928.36908	39004.225
1931.47292	38953.425
1934.57473	38843.925
1937.67453	38748.425
1940.77232	38673.425
1943.86808	38542.125
1946.96184	38445.725
1950.05358	38365.725
1953.14331	38273.825
1956.23103	38222.825
1959.31675	38111.625
1962.40046	37951.425
1965.48217	37816.325
1968.56188	37814.425
1971.63959	37725.125
1974.7153	37615.525
1977.78901	37492.125
1980.86073	37401.125
1983.93046	37363.225
1986.99819	37257.425
1990.06394	37145.325
1993.1277	37077.625
1996.18947	36992.025
1999.24925	36905.025
2002.30706	36816.325
2005.36288	36686.825
2008.41672	36640.825
2011.46859	36506.325
2014.51848	36464.025
2017.56639	36317.125
2020.61233	36247.125
2023.6563	36221.025
2026.6983	36093.925
2029.73833	36090.825
2032.7764	35996.725
2035.8125	35937.925
2038.84664	35920.625
2041.87881	35898.425
2044.90903	35779.025
2047.93729	35750.525
2050.96359	35743.325
2053.98794	35761.525
2057.01034	35712.725
2060.03078	35777.125
2063.04927	35721.725
2066.06582	35738.925
2069.08042	35746.525
2072.09307	35687.325
2075.10378	35587.425
2078.11255	35518.325
2081.11938	35584.125
2084.12426	35571.625
2087.12722	35527.425
2090.12824	35516.625
2093.12732	35651.225
2096.12447	35552.925
2099.11969	35564.625
2102.11299	35542.725
2105.10435	35629.925
2108.09379	35628.325
2111.08131	35656.425
2114.0669	35667.325
2117.05057	35618.125
2120.03233	35707.425
2123.01216	35752.025
2125.99008	35795.825
2128.96609	35839.825
2131.94018	35907.325
2134.91236	35963.325
2137.88263	36029.325
2140.851	36017.325
2143.81746	36071.925
2146.78201	36073.225
2149.74466	36056.625
2152.7054	36133.925
2155.66425	36072.825
2158.6212	36103.025
2161.57625	36088.525
2164.52941	36125.225
2167.48067	36080.425
2170.43004	36060.325
2173.37752	36098.825
2176.32311	36134.425
2179.26681	36151.825
2182.20863	36148.925
2185.14856	36205.225
2188.08661	36235.925
2191.02278	36205.225
2193.95707	36142.825
2196.88948	36158.425
2199.82001	36154.625
2202.74867	36074.325
2205.67545	36084.825
2208.60037	36024.925
2211.52341	35997.925
2214.44458	35999.925
2217.36388	35985.825
2220.28132	35952.725
2223.1969	35865.925
2226.11061	35832.925
2229.02246	35710.225
2231.93245	35690.125
2234.84058	35680.525
2237.74686	35609.325
2240.65128	35631.825
2243.55385	35522.425
2246.45456	35451.125
2249.35343	35429.725
2252.25044	35426.225
2255.14561	35334.625
2258.03893	35286.525
2260.93041	35271.925
2263.82004	35177.825
2266.70783	35088.925
2269.59378	35007.325
2272.4779	35011.425
2275.36017	34897.925
2278.24061	34877.925
2281.11922	34799.625
2283.996	34791.225
2286.87094	34760.225
2289.74405	34763.425
2292.61534	34736.525
2295.4848	34714.625
2298.35243	34753.125
2301.21824	34762.225
2304.08223	34758.425
2306.94439	34752.825
2309.80474	34729.625
2312.66327	34758.625
2315.51999	34722.125
2318.37489	34666.025
2321.22797	34663.225
2324.07925	34736.825
2326.92871	34604.425
2329.77637	34516.025
2332.62222	34512.925
2335.46626	34525.925
2338.3085	34506.525
2341.14893	34523.025
2343.98756	34507.725
2346.8244	34536.625
2349.65943	34546.925
2352.49267	34528.425
2355.32411	34500.625
2358.15376	34472.925
2360.98161	34504.325
2363.80768	34407.825
2366.63195	34407.325
2369.45444	34389.625
2372.27514	34385.125
2375.09405	34337.025
2377.91118	34243.225
2380.72652	34171.525
2383.54009	34112.925
2386.35187	34046.025
2389.16188	33937.725
2391.97011	33904.225
2394.77657	33917.725
2397.58125	33896.525
2400.38416	33847.425
2403.18529	33738.925
2405.98466	33781.025
2408.78226	33685.725
2411.57809	33667.825
2414.37216	33598.725
2417.16446	33641.925
2419.955	33567.725
2422.74378	33579.925
2425.5308	33538.725
2428.31606	33584.425
2431.09956	33589.825
2433.88131	33537.525
2436.6613	33584.425
2439.43954	33552.925
2442.21603	33551.025
2444.99077	33498.425
2447.76377	33509.225
2450.53501	33481.725
2453.30451	33507.725
2456.07226	33470.225
2458.83827	33450.925
2461.60254	33418.525
2464.36507	33431.225
2467.12586	33440.425
2469.88492	33471.225
2472.64224	33455.725
2475.39782	33499.925
2478.15167	33503.625
2480.90379	33521.125
2483.65417	33514.925
2486.40283	33558.225
2489.14976	33513.025
2491.89497	33488.325
2494.63845	33561.425
2497.3802	33511.525
2500.12024	33557.225
2502.85855	33554.725
2505.59514	33498.625
2508.33002	33450.225
2511.06318	33435.825
2513.79462	33428.225
2516.52435	33418.225
2519.25237	33410.025
2521.97867	33362.025
2524.70327	33341.725
2527.42616	33322.725
2530.14734	33353.525
2532.86681	33275.525
2535.58458	33279.525
2538.30065	33268.125
2541.01501	33280.025
2543.72768	33274.925
2546.43864	33276.125
2549.14791	33233.925
2551.85548	33202.625
2554.56136	33086.425
2557.26554	33102.125
2559.96803	33105.325
2562.66883	33011.725
2565.36794	33018.225
2568.06536	33065.225
2570.7611	32946.225
2573.45514	32950.725
2576.14751	32943.325
2578.83819	32933.125
2581.52719	32942.225
2584.21451	32892.125
2586.90015	32869.925
2589.58411	32810.325
2592.2664	32832.225
2594.94701	32814.325
2597.62594	32791.725
2600.30321	32789.425
2602.9788	32801.925
2605.65273	32790.525
2608.32498	32775.025
2610.99557	32792.525
2613.66449	32833.625
2616.33175	32802.825
2618.99734	32778.025
2621.66128	32680.225
2624.32355	32641.125
2626.98416	32588.525
2629.64311	32625.925
2632.30041	32589.625
2634.95605	32577.625
2637.61004	32554.725
2640.26238	32523.625
2642.91306	32536.225
2645.56209	32475.325
2648.20948	32498.825
2650.85521	32493.225
2653.4993	32544.725
2656.14175	32534.725
2658.78255	32584.625
2661.42171	32578.525
2664.05923	32663.025
2666.6951	32649.725
2669.32934	32631.525
2671.96194	32648.125
2674.59291	32645.625
2677.22224	32679.525
2679.84993	32723.325
2682.476	32628.725
2685.10043	32609.225
2687.72324	32604.625
2690.34441	32591.725
2692.96396	32585.325
2695.58188	32616.525
2698.19818	32568.025
2700.81285	32608.325
2703.4259	32611.925
2706.03733	32616.025
2708.64714	32610.325
2711.25533	32677.725
2713.86191	32678.625
2716.46687	32753.025
2719.07021	32766.525
2721.67194	32828.525
2724.27206	32742.525
2726.87057	32772.825
2729.46747	32849.225
2732.06276	32821.625
2734.65644	32819.225
2737.24852	32850.025
2739.83899	32808.525
2742.42786	32889.125
2745.01513	32772.925
2747.60079	32782.025
2750.18486	32802.325
2752.76733	32800.725
2755.3482	32767.925
2757.92747	32698.925
2760.50515	32692.325
2763.08123	32679.425
2765.65573	32694.225
2768.22863	32680.225
2770.79994	32541.625
2773.36967	32622.425
2775.9378	32635.625
2778.50435	32653.125
2781.06932	32635.825
2783.6327	32601.025
2786.1945	32618.125
2788.75471	32540.225
2791.31335	32491.425
2793.87041	32493.925
2796.42589	32375.925
2798.97979	32435.525
2801.53212	32274.725
2804.08288	32312.125
2806.63206	32200.225
2809.17967	32169.425
2811.72571	32071.025
2814.27018	31980.825
2816.81308	31916.125
2819.35442	31888.825
2821.89419	31843.725
2824.43239	31822.425
2826.96904	31828.325
2829.50412	31854.125
2832.03763	31776.025
2834.56959	31741.925
2837.1	31736.225
2839.62884	31668.525
2842.15613	31627.925
2844.68186	31665.725
2847.20604	31695.125
2849.72867	31625.425
2852.24974	31642.725
2854.76927	31553.125
2857.28724	31523.625
2859.80367	31556.525
2862.31855	31506.825
2864.83189	31433.625
2867.34368	31453.425
2869.85393	31401.825
2872.36264	31369.225
2874.8698	31330.825
2877.37543	31333.525
2879.87952	31265.525
2882.38207	31310.025
2884.88308	31273.625
2887.38256	31380.425
2889.88051	31348.525
2892.37692	31391.125
2894.8718	31395.125
2897.36515	31467.925
2899.85698	31446.025
2902.34727	31498.025
2904.83604	31484.725
2907.32328	31550.925
2909.809	31552.025
2912.29319	31616.725
2914.77587	31619.625
2917.25702	31579.725
2919.73665	31535.925
2922.21476	31596.725
2924.69136	31526.525
2927.16644	31543.925
2929.64	31479.925
2932.11205	31466.725
2934.58258	31355.125
2937.05161	31427.125
2939.51912	31432.025
2941.98513	31363.825
2944.44962	31335.725
2946.91261	31316.325
2949.37409	31352.425
2951.83407	31315.525
2954.29254	31327.025
2956.74951	31330.025
2959.20498	31353.025
2961.65895	31310.125
2964.11142	31351.925
2966.56239	31276.725
2969.01186	31268.925
2971.45984	31167.425
2973.90632	31134.825
2976.35131	31103.925
2978.7948	31052.725
2981.23681	30983.425
2983.67732	30918.525
2986.11635	30855.825
2988.55388	30759.325
2990.98993	30724.025
2993.4245	30717.825
2995.85758	30631.825
2998.28917	30509.525
3000.71928	30452.825
3003.14791	30383.825
3005.57506	30380.225
3008.00073	30303.425
3010.42493	30318.725
3012.84764	30272.625
3015.26888	30269.625
3017.68865	30217.425
3020.10694	30177.825
3022.52376	30123.025
3024.9391	30057.325
3027.35298	30003.225
3029.76539	30008.825
3032.17632	29999.025
3034.5858	29958.625
3036.9938	29948.825
3039.40034	29907.825
3041.80542	29925.725
3044.20903	29888.725
3046.61118	29851.225
3049.01187	29777.625
3051.4111	29748.725
3053.80888	29638.825
3056.20519	29635.225
3058.60005	29577.425
3060.99345	29546.925
3063.3854	29447.525
3065.7759	29355.125
3068.16494	29305.625
3070.55254	29191.325
3072.93868	29124.625
3075.32338	29043.125
3077.70662	29061.525
3080.08842	28912.125
3082.46878	28874.925
3084.84769	28840.525
3087.22515	28853.825
3089.60118	28789.625
3091.97576	28775.725
3094.3489	28775.925
3096.72061	28797.425
3099.09087	28806.625
3101.4597	28781.325
3103.82709	28769.225
3106.19305	28741.925
3108.55757	28763.425
3110.92066	28627.325
3113.28232	28658.425
3115.64255	28580.025
3118.00134	28513.425
3120.35871	28444.125
3122.71466	28318.925
3125.06917	28306.925
3127.42226	28299.025
3129.77393	28301.425
3132.12417	28215.725
3134.47299	28214.525
3136.82039	28189.025
3139.16636	28157.025
3141.51092	28147.125
3143.85406	28136.525
3146.19579	28125.025
3148.53609	28137.525
3150.87499	28158.325
3153.21246	28170.425
3155.54853	28187.525
3157.88318	28110.925
3160.21642	28150.525
3162.54826	28162.125
3164.87868	28076.425
3167.2077	28050.625
3169.5353	28009.525
3171.86151	28015.525
3174.18631	28077.125
3176.5097	28044.725
3178.83169	28025.825
3181.15228	27977.025
3183.47147	27895.625
3185.78926	27851.525
3188.10565	27825.625
3190.42065	27780.225
3192.73424	27806.525
3195.04645	27757.125
3197.35725	27709.325
3199.66667	27665.725
3201.97469	27704.425
3204.28132	27645.925
3206.58656	27659.925
3208.8904	27664.625
3211.19287	27687.725
3213.49394	27685.225
3215.79363	27676.625
3218.09193	27720.325
3220.38884	27705.625
3222.68438	27744.325
3224.97853	27603.025
3227.2713	27634.225
3229.56269	27603.025
3231.8527	27593.625
3234.14133	27577.925
3236.42858	27488.625
3238.71446	27468.525
3240.99896	27422.725
3243.28209	27423.225
3245.56384	27405.525
3247.84423	27368.625
3250.12324	27349.725
3252.40088	27333.025
3254.67715	27326.525
3256.95205	27270.425
3259.22558	27244.025
3261.49775	27210.525
3263.76855	27198.025
3266.03799	27079.525
3268.30606	27074.125
3270.57277	27033.525
3272.83812	27001.325
3275.10211	26962.125
3277.36474	26891.725
3279.62601	26895.125
3281.88593	26875.425
3284.14448	26886.825
3286.40168	26899.825
3288.65753	26884.825
3290.91202	26842.425
3293.16516	26818.525
3295.41695	26784.325
3297.66738	26611.825
3299.91647	26467.525
3302.16421	26328.725
3304.4106	26193.825
3306.65564	26035.125
3308.89933	25839.525
3311.14169	25708.525
3313.38269	25481.925
3315.62236	25359.125
3317.86068	25100.825
3320.09766	24880.825
3322.3333	24720.725
3324.5676	24612.025
3326.80056	24242.025
3329.03219	24113.625
3331.26248	6.925
3333.49143	0.925
3335.71905	-0.875
