Data from AgNPs_FTO_APTES_UA_20uM_CRN_1uM_R6G_10uM_NaF_0.1M_Addition_RamanShift__7__12-10-12-022.txt Node

Date: Thu Feb 17 12:10:12 GMT 2022
User: TCL
Spectrometer: QEP01345
Trigger mode: 4
Integration Time (sec): 7.000000E0
Scans to average: 10
Electric dark correction enabled: true
Nonlinearity correction enabled: false
Boxcar width: 0
XAxis mode: Raman Shifts
Number of Pixels in Spectrum: 1044
>>>>>Begin Spectral Data<<<<<
46.04893	-0.2875
50.45542	-1.1875
54.85868	-3.0875
59.25871	-0.7875
63.6555	110.6125
68.04907	116.1125
72.43941	120.9125
76.82654	122.1125
81.21044	129.5125
85.59113	132.4125
89.96862	133.7125
94.34289	137.9125
98.71396	142.9125
103.08183	144.0125
107.4465	154.1125
111.80798	150.2125
116.16626	160.0125
120.52136	167.9125
124.87327	172.3125
129.222	186.4125
133.56755	200.0125
137.90993	212.4125
142.24913	232.5125
146.58517	270.5125
150.91804	323.7125
155.24774	377.6125
159.57429	475.6125
163.89768	619.3125
168.21792	831.3125
172.53501	1144.5125
176.84895	1586.6125
181.15975	2256.9125
185.46741	3172.0125
189.77193	4387.9125
194.07331	5878.7125
198.37157	7611.1125
202.6667	9395.8125
206.9587	11175.3125
211.24758	12908.1125
215.53334	14663.1125
219.81599	16477.2125
224.09553	18490.7125
228.37195	20756.9125
232.64527	23201.9125
236.91549	25859.4125
241.18261	28501.5125
245.44663	30990.5125
249.70755	33210.7125
253.96539	35112.2125
258.22014	36752.8125
262.4718	38035.9125
266.72039	38971.1125
270.96589	39443.9125
275.20832	39452.5125
279.44768	39196.8125
283.68397	38768.1125
287.91719	38387.8125
292.14735	38157.8125
296.37445	38137.2125
300.59849	38152.6125
304.81948	38338.9125
309.03742	38496.8125
313.25231	38468.9125
317.46415	38204.7125
321.67296	37779.1125
325.87872	37352.3125
330.08145	37172.1125
334.28114	37198.4125
338.47781	37446.8125
342.67145	37891.9125
346.86207	38539.1125
351.04966	39198.7125
355.23424	39808.7125
359.4158	40352.7125
363.59435	40731.5125
367.76989	41030.9125
371.94243	41227.1125
376.11196	41390.4125
380.27849	41571.5125
384.44203	41840.3125
388.60257	42169.6125
392.76012	42669.5125
396.91468	43247.0125
401.06626	43760.3125
405.21485	44193.7125
409.36047	44145.9125
413.50311	43837.1125
417.64277	43759.6125
421.77947	43992.5125
425.9132	44326.2125
430.04396	44648.6125
434.17176	44802.7125
438.2966	45151.9125
442.41849	45752.8125
446.53742	46946.2125
450.6534	48217.9125
454.76644	49019.9125
458.87653	49384.2125
462.98368	49106.5125
467.08789	48475.6125
471.18916	47723.7125
475.2875	46922.0125
479.38291	46407.9125
483.4754	46057.5125
487.56496	45639.0125
491.6516	45298.0125
495.73531	44943.1125
499.81612	44714.6125
503.89401	44980.1125
507.96899	45161.6125
512.04106	45166.1125
516.11023	44998.4125
520.1765	44741.7125
524.23987	44536.3125
528.30034	44397.8125
532.35792	44236.3125
536.41261	43781.5125
540.46441	43365.8125
544.51333	43363.3125
548.55936	43591.7125
552.60252	44343.5125
556.64279	45389.0125
560.6802	46169.2125
564.71473	46633.0125
568.7464	47309.9125
572.7752	48606.6125
576.80114	50396.4125
580.82422	52155.5125
584.84444	54229.1125
588.86181	57325.0125
592.87633	60224.0125
596.888	60125.9125
600.89682	56792.1125
604.9028	54654.1125
608.90594	55968.0125
612.90624	57930.0125
616.90371	54809.6125
620.89834	48628.7125
624.89015	45948.6125
628.87913	45814.0125
632.86528	46173.2125
636.84862	46073.8125
640.82913	45278.3125
644.80683	44406.0125
648.78172	43811.9125
652.75379	43905.9125
656.72306	44394.0125
660.68952	44985.1125
664.65319	44793.1125
668.61405	44198.4125
672.57211	44221.8125
676.52738	44476.4125
680.47986	44410.4125
684.42955	44189.6125
688.37646	44037.1125
692.32058	44325.1125
696.26192	44992.5125
700.20048	45652.7125
704.13626	46034.4125
708.06928	46081.8125
711.99952	46026.4125
715.927	46011.8125
719.85171	46152.0125
723.77365	45948.3125
727.69284	45390.7125
731.60928	44788.1125
735.52295	44630.9125
739.43388	44633.0125
743.34206	44911.3125
747.24749	45158.7125
751.15017	45635.6125
755.05012	46306.7125
758.94733	47333.1125
762.8418	49009.3125
766.73354	51575.9125
770.62254	53796.1125
774.50882	53894.8125
778.39237	51947.4125
782.27321	49452.1125
786.15132	47384.0125
790.02671	46104.9125
793.89938	45398.4125
797.76935	45105.7125
801.6366	44994.2125
805.50115	44884.2125
809.36299	44754.9125
813.22213	44491.1125
817.07857	44453.9125
820.93231	44233.8125
824.78336	44059.4125
828.63172	43932.6125
832.47738	43877.9125
836.32036	43890.2125
840.16066	43995.5125
843.99827	44060.9125
847.8332	44237.1125
851.66546	44309.2125
855.49504	44356.8125
859.32195	44484.2125
863.1462	44366.6125
866.96777	44392.0125
870.78668	44314.0125
874.60293	44373.3125
878.41652	44360.3125
882.22745	44483.8125
886.03573	44654.1125
889.84136	44579.3125
893.64433	44514.4125
897.44466	44373.3125
901.24235	44266.8125
905.0374	44132.7125
908.8298	44057.7125
912.61957	44194.5125
916.40671	44562.1125
920.19121	45091.9125
923.97308	45595.8125
927.75233	45675.3125
931.52895	45202.3125
935.30295	44601.0125
939.07433	43986.9125
942.84309	43617.4125
946.60924	43473.8125
950.37278	43459.4125
954.13371	43542.6125
957.89203	43505.8125
961.64774	43504.4125
965.40086	43525.7125
969.15137	43479.7125
972.89929	43407.4125
976.64461	43357.6125
980.38733	43327.2125
984.12747	43410.9125
987.86502	43609.8125
991.59999	43981.6125
995.33237	44447.7125
999.06217	45122.1125
1002.78939	46038.1125
1006.51404	47006.2125
1010.23611	47924.5125
1013.95561	48510.0125
1017.67255	48601.9125
1021.38692	48074.4125
1025.09872	47273.8125
1028.80796	46596.7125
1032.51465	46481.5125
1036.21877	46735.8125
1039.92035	46855.9125
1043.61937	46869.2125
1047.31584	46781.5125
1051.00976	46628.7125
1054.70114	46640.8125
1058.38998	46800.8125
1062.07627	47207.0125
1065.76003	47717.7125
1069.44126	48361.8125
1073.11995	49115.8125
1076.79611	49867.1125
1080.46974	50238.0125
1084.14085	50561.7125
1087.80943	51107.1125
1091.47549	51463.7125
1095.13903	51496.0125
1098.80005	50903.3125
1102.45857	49935.2125
1106.11456	49114.6125
1109.76805	48834.0125
1113.41903	48802.0125
1117.06751	48938.6125
1120.71348	49238.2125
1124.35696	49556.2125
1127.99793	49900.6125
1131.63641	50070.9125
1135.2724	50099.5125
1138.90589	50103.4125
1142.5369	50273.4125
1146.16542	50677.4125
1149.79145	51161.1125
1153.415	51572.0125
1157.03607	52105.1125
1160.65467	53261.4125
1164.27079	55145.5125
1167.88443	57423.3125
1171.49561	60014.7125
1175.10432	63116.3125
1178.71056	66977.6125
1182.31434	70613.9125
1185.91565	72150.6125
1189.51451	71633.1125
1193.11091	70113.7125
1196.70485	68168.7125
1200.29634	66335.5125
1203.88538	65083.1125
1207.47197	64654.3125
1211.05612	64321.2125
1214.63782	63456.7125
1218.21708	62150.5125
1221.79391	60795.2125
1225.36829	59973.4125
1228.94024	59498.5125
1232.50976	58718.0125
1236.07685	57757.4125
1239.6415	57008.6125
1243.20374	56816.8125
1246.76355	57238.3125
1250.32093	58055.2125
1253.8759	59112.0125
1257.42845	60450.3125
1260.97859	62085.4125
1264.52631	63806.6125
1268.07163	65494.5125
1271.61453	67100.4125
1275.15503	68619.2125
1278.69312	70247.4125
1282.22882	72125.4125
1285.76211	74449.9125
1289.29301	77202.4125
1292.82151	80373.3125
1296.34761	84000.6125
1299.87133	88448.1125
1303.39266	93077.2125
1306.9116	97191.1125
1310.42815	100388.8125
1313.94233	101776.1125
1317.45412	100932.4125
1320.96354	98792.6125
1324.47058	96933.5125
1327.97525	95608.3125
1331.47754	94624.8125
1334.97747	93701.6125
1338.47502	92674.7125
1341.97022	91827.4125
1345.46305	90732.4125
1348.95352	90035.2125
1352.44163	89912.7125
1355.92738	91549.0125
1359.41078	94762.3125
1362.89183	97377.9125
1366.37053	96382.0125
1369.84688	90303.6125
1373.32088	81895.2125
1376.79254	75869.4125
1380.26186	73628.0125
1383.72883	73715.9125
1387.19347	73974.4125
1390.65578	73280.6125
1394.11575	73030.2125
1397.57339	73677.9125
1401.0287	74736.2125
1404.48168	75558.3125
1407.93234	75595.3125
1411.38068	74404.8125
1414.82669	72403.2125
1418.27039	70084.8125
1421.71177	67751.8125
1425.15083	66017.3125
1428.58758	65431.4125
1432.02203	66205.0125
1435.45416	67972.1125
1438.88399	69846.2125
1442.31151	71113.5125
1445.73673	71620.6125
1449.15965	71655.9125
1452.58027	71415.5125
1455.9986	71046.1125
1459.41463	71398.1125
1462.82837	72425.4125
1466.23982	73771.9125
1469.64898	74935.7125
1473.05586	75769.3125
1476.46045	76007.1125
1479.86276	75719.4125
1483.26279	75160.9125
1486.66054	74866.8125
1490.05602	75248.4125
1493.44922	75727.1125
1496.84016	76414.1125
1500.22882	77327.1125
1503.61521	78514.4125
1506.99934	79712.6125
1510.38121	80584.2125
1513.76081	80215.8125
1517.13816	78876.2125
1520.51324	77514.2125
1523.88607	76982.4125
1527.25665	77391.8125
1530.62498	78039.4125
1533.99105	78009.8125
1537.35488	77037.6125
1540.71647	75373.7125
1544.07581	73445.3125
1547.4329	71568.6125
1550.78776	69877.0125
1554.14038	68710.0125
1557.49077	67925.1125
1560.83892	67488.9125
1564.18484	67204.4125
1567.52853	67246.3125
1570.86999	67691.0125
1574.20922	68685.0125
1577.54624	69522.1125
1580.88103	69892.2125
1584.2136	70617.2125
1587.54395	72854.6125
1590.87208	76747.6125
1594.19801	81713.7125
1597.52172	86062.1125
1600.84321	87183.8125
1604.16251	83569.8125
1607.47959	77335.0125
1610.79447	70812.3125
1614.10715	65221.4125
1617.41763	60801.1125
1620.7259	57945.7125
1624.03199	56571.9125
1627.33587	56738.2125
1630.63757	58294.5125
1633.93707	61819.3125
1637.23439	67797.1125
1640.52951	76654.9125
1643.82246	87179.9125
1647.11321	94949.1125
1650.40179	95328.0125
1653.68819	87308.0125
1656.97241	75720.5125
1660.25446	65258.0125
1663.53433	57982.8125
1666.81203	53426.1125
1670.08756	50687.9125
1673.36092	48983.6125
1676.63211	47884.4125
1679.90115	47012.6125
1683.16801	46399.0125
1686.43272	45951.1125
1689.69527	45582.4125
1692.95567	45273.2125
1696.2139	45157.4125
1699.46999	45093.5125
1702.72392	44924.0125
1705.97571	44887.3125
1709.22535	44753.3125
1712.47284	44764.4125
1715.71819	44808.2125
1718.96139	44698.5125
1722.20246	44593.7125
1725.44139	44428.4125
1728.67818	44248.3125
1731.91284	44002.0125
1735.14537	43749.3125
1738.37576	43573.1125
1741.60403	43555.5125
1744.83017	43330.5125
1748.05418	43241.2125
1751.27607	43155.8125
1754.49584	43142.6125
1757.71349	43137.2125
1760.92903	43116.1125
1764.14244	43045.7125
1767.35375	43047.0125
1770.56294	43010.6125
1773.77002	42979.7125
1776.97499	42963.6125
1780.17785	42887.9125
1783.37861	42848.9125
1786.57727	42723.6125
1789.77382	42643.3125
1792.96828	42601.5125
1796.16064	42556.0125
1799.3509	42546.9125
1802.53907	42442.7125
1805.72514	42365.7125
1808.90913	42251.0125
1812.09102	42249.5125
1815.27083	42183.7125
1818.44856	42191.0125
1821.6242	42101.2125
1824.79776	42011.3125
1827.96924	42020.6125
1831.13864	42072.4125
1834.30597	42028.8125
1837.47122	42007.7125
1840.6344	41927.7125
1843.7955	41919.0125
1846.95454	41929.9125
1850.11151	41915.5125
1853.26642	41937.8125
1856.41926	41922.3125
1859.57004	41865.6125
1862.71876	41856.9125
1865.86542	41750.6125
1869.01003	41755.1125
1872.15258	41710.3125
1875.29308	41671.5125
1878.43152	41606.7125
1881.56792	41654.6125
1884.70227	41646.4125
1887.83457	41603.9125
1890.96482	41624.5125
1894.09304	41559.6125
1897.21921	41513.3125
1900.34335	41446.6125
1903.46544	41419.2125
1906.58551	41432.1125
1909.70353	41395.5125
1912.81953	41314.6125
1915.93349	41296.6125
1919.04543	41171.6125
1922.15534	41109.4125
1925.26322	41101.8125
1928.36908	41020.0125
1931.47292	40984.9125
1934.57473	40860.3125
1937.67453	40783.5125
1940.77232	40697.5125
1943.86808	40529.2125
1946.96184	40465.3125
1950.05358	40350.1125
1953.14331	40252.7125
1956.23103	40193.0125
1959.31675	40030.9125
1962.40046	39949.3125
1965.48217	39798.0125
1968.56188	39752.8125
1971.63959	39654.8125
1974.7153	39511.8125
1977.78901	39411.7125
1980.86073	39318.3125
1983.93046	39236.8125
1986.99819	39113.4125
1990.06394	39027.3125
1993.1277	38989.0125
1996.18947	38881.4125
1999.24925	38850.2125
2002.30706	38680.0125
2005.36288	38540.9125
2008.41672	38436.0125
2011.46859	38349.9125
2014.51848	38263.7125
2017.56639	38171.2125
2020.61233	38068.9125
2023.6563	37956.9125
2026.6983	37886.3125
2029.73833	37812.5125
2032.7764	37787.8125
2035.8125	37712.3125
2038.84664	37682.7125
2041.87881	37613.8125
2044.90903	37507.5125
2047.93729	37449.3125
2050.96359	37456.7125
2053.98794	37446.4125
2057.01034	37430.7125
2060.03078	37451.8125
2063.04927	37415.8125
2066.06582	37418.5125
2069.08042	37374.5125
2072.09307	37402.2125
2075.10378	37284.4125
2078.11255	37263.2125
2081.11938	37289.1125
2084.12426	37222.9125
2087.12722	37251.7125
2090.12824	37242.3125
2093.12732	37311.0125
2096.12447	37289.8125
2099.11969	37188.9125
2102.11299	37292.1125
2105.10435	37323.1125
2108.09379	37350.7125
2111.08131	37352.3125
2114.0669	37349.0125
2117.05057	37386.3125
2120.03233	37379.4125
2123.01216	37448.8125
2125.99008	37489.5125
2128.96609	37557.3125
2131.94018	37589.8125
2134.91236	37682.2125
2137.88263	37691.4125
2140.851	37686.5125
2143.81746	37708.3125
2146.78201	37715.6125
2149.74466	37693.6125
2152.7054	37778.1125
2155.66425	37768.3125
2158.6212	37761.8125
2161.57625	37718.1125
2164.52941	37758.3125
2167.48067	37721.7125
2170.43004	37722.3125
2173.37752	37736.9125
2176.32311	37806.6125
2179.26681	37833.3125
2182.20863	37799.6125
2185.14856	37828.5125
2188.08661	37781.2125
2191.02278	37803.8125
2193.95707	37710.3125
2196.88948	37711.4125
2199.82001	37717.3125
2202.74867	37653.1125
2205.67545	37616.3125
2208.60037	37569.7125
2211.52341	37552.3125
2214.44458	37493.4125
2217.36388	37454.1125
2220.28132	37479.6125
2223.1969	37341.5125
2226.11061	37300.3125
2229.02246	37204.5125
2231.93245	37149.9125
2234.84058	37155.3125
2237.74686	37135.7125
2240.65128	37135.1125
2243.55385	37032.2125
2246.45456	36983.8125
2249.35343	36934.1125
2252.25044	36883.8125
2255.14561	36850.5125
2258.03893	36748.7125
2260.93041	36683.2125
2263.82004	36598.0125
2266.70783	36569.8125
2269.59378	36426.0125
2272.4779	36375.2125
2275.36017	36363.5125
2278.24061	36279.9125
2281.11922	36235.1125
2283.996	36232.1125
2286.87094	36159.6125
2289.74405	36097.2125
2292.61534	36121.3125
2295.4848	36068.3125
2298.35243	36098.9125
2301.21824	36004.1125
2304.08223	36029.3125
2306.94439	35997.3125
2309.80474	36007.2125
2312.66327	35992.6125
2315.51999	35951.9125
2318.37489	35896.0125
2321.22797	35845.9125
2324.07925	35894.0125
2326.92871	35795.0125
2329.77637	35729.2125
2332.62222	35666.2125
2335.46626	35705.2125
2338.3085	35708.9125
2341.14893	35656.6125
2343.98756	35636.4125
2346.8244	35677.8125
2349.65943	35589.5125
2352.49267	35630.1125
2355.32411	35658.4125
2358.15376	35576.5125
2360.98161	35626.2125
2363.80768	35565.6125
2366.63195	35536.6125
2369.45444	35511.4125
2372.27514	35528.9125
2375.09405	35502.1125
2377.91118	35420.1125
2380.72652	35331.6125
2383.54009	35254.0125
2386.35187	35230.5125
2389.16188	35081.5125
2391.97011	35013.3125
2394.77657	35049.9125
2397.58125	35007.0125
2400.38416	34937.0125
2403.18529	34899.0125
2405.98466	34908.5125
2408.78226	34817.5125
2411.57809	34798.1125
2414.37216	34703.8125
2417.16446	34764.0125
2419.955	34742.9125
2422.74378	34672.8125
2425.5308	34699.0125
2428.31606	34702.0125
2431.09956	34665.7125
2433.88131	34637.0125
2436.6613	34666.2125
2439.43954	34623.7125
2442.21603	34651.0125
2444.99077	34542.3125
2447.76377	34595.9125
2450.53501	34560.6125
2453.30451	34569.5125
2456.07226	34497.9125
2458.83827	34512.7125
2461.60254	34493.4125
2464.36507	34485.1125
2467.12586	34498.3125
2469.88492	34479.1125
2472.64224	34467.8125
2475.39782	34472.8125
2478.15167	34482.3125
2480.90379	34488.8125
2483.65417	34492.4125
2486.40283	34476.9125
2489.14976	34509.3125
2491.89497	34453.7125
2494.63845	34478.3125
2497.3802	34435.8125
2500.12024	34461.8125
2502.85855	34490.7125
2505.59514	34411.8125
2508.33002	34386.0125
2511.06318	34315.5125
2513.79462	34345.0125
2516.52435	34325.7125
2519.25237	34317.6125
2521.97867	34259.4125
2524.70327	34264.0125
2527.42616	34211.0125
2530.14734	34223.7125
2532.86681	34158.2125
2535.58458	34166.8125
2538.30065	34202.3125
2541.01501	34133.1125
2543.72768	34173.0125
2546.43864	34175.5125
2549.14791	34064.6125
2551.85548	34006.6125
2554.56136	33975.1125
2557.26554	33888.1125
2559.96803	33877.7125
2562.66883	33802.2125
2565.36794	33822.2125
2568.06536	33824.5125
2570.7611	33752.3125
2573.45514	33678.9125
2576.14751	33677.5125
2578.83819	33656.1125
2581.52719	33659.2125
2584.21451	33601.8125
2586.90015	33536.4125
2589.58411	33497.3125
2592.2664	33487.6125
2594.94701	33532.0125
2597.62594	33515.0125
2600.30321	33452.6125
2602.9788	33433.3125
2605.65273	33476.8125
2608.32498	33431.2125
2610.99557	33432.2125
2613.66449	33497.2125
2616.33175	33414.3125
2618.99734	33379.0125
2621.66128	33287.3125
2624.32355	33239.7125
2626.98416	33221.2125
2629.64311	33179.4125
2632.30041	33214.0125
2634.95605	33136.6125
2637.61004	33155.2125
2640.26238	33163.7125
2642.91306	33123.7125
2645.56209	33069.4125
2648.20948	33048.5125
2650.85521	33099.6125
2653.4993	33131.3125
2656.14175	33112.4125
2658.78255	33180.2125
2661.42171	33188.7125
2664.05923	33252.3125
2666.6951	33196.4125
2669.32934	33215.5125
2671.96194	33196.9125
2674.59291	33258.0125
2677.22224	33227.6125
2679.84993	33260.4125
2682.476	33197.0125
2685.10043	33192.9125
2687.72324	33160.3125
2690.34441	33175.7125
2692.96396	33222.2125
2695.58188	33233.9125
2698.19818	33200.2125
2700.81285	33233.1125
2703.4259	33148.1125
2706.03733	33241.1125
2708.64714	33237.8125
2711.25533	33248.5125
2713.86191	33280.6125
2716.46687	33328.4125
2719.07021	33314.7125
2721.67194	33357.1125
2724.27206	33333.1125
2726.87057	33371.0125
2729.46747	33368.9125
2732.06276	33339.3125
2734.65644	33406.6125
2737.24852	33426.4125
2739.83899	33358.7125
2742.42786	33366.5125
2745.01513	33382.9125
2747.60079	33305.7125
2750.18486	33320.6125
2752.76733	33332.3125
2755.3482	33239.8125
2757.92747	33237.1125
2760.50515	33185.1125
2763.08123	33165.8125
2765.65573	33138.1125
2768.22863	33146.2125
2770.79994	33071.4125
2773.36967	33039.7125
2775.9378	33115.1125
2778.50435	33094.3125
2781.06932	33069.6125
2783.6327	33051.3125
2786.1945	33040.1125
2788.75471	32984.4125
2791.31335	32921.1125
2793.87041	32911.1125
2796.42589	32749.2125
2798.97979	32815.0125
2801.53212	32673.7125
2804.08288	32665.6125
2806.63206	32578.4125
2809.17967	32523.4125
2811.72571	32457.1125
2814.27018	32378.1125
2816.81308	32252.1125
2819.35442	32251.1125
2821.89419	32180.6125
2824.43239	32163.0125
2826.96904	32111.4125
2829.50412	32140.4125
2832.03763	32080.2125
2834.56959	32064.8125
2837.1	32004.8125
2839.62884	31957.5125
2842.15613	31913.0125
2844.68186	31970.5125
2847.20604	31929.6125
2849.72867	31902.8125
2852.24974	31891.6125
2854.76927	31833.5125
2857.28724	31794.6125
2859.80367	31756.3125
2862.31855	31752.3125
2864.83189	31708.0125
2867.34368	31648.2125
2869.85393	31640.5125
2872.36264	31547.9125
2874.8698	31534.7125
2877.37543	31474.2125
2879.87952	31515.4125
2882.38207	31471.7125
2884.88308	31501.2125
2887.38256	31508.2125
2889.88051	31517.8125
2892.37692	31527.2125
2894.8718	31514.1125
2897.36515	31602.4125
2899.85698	31600.8125
2902.34727	31629.3125
2904.83604	31606.6125
2907.32328	31605.7125
2909.809	31634.7125
2912.29319	31688.3125
2914.77587	31644.9125
2917.25702	31675.3125
2919.73665	31669.5125
2922.21476	31639.2125
2924.69136	31582.1125
2927.16644	31604.7125
2929.64	31588.7125
2932.11205	31572.0125
2934.58258	31465.5125
2937.05161	31550.7125
2939.51912	31536.7125
2941.98513	31491.4125
2944.44962	31417.4125
2946.91261	31353.7125
2949.37409	31496.6125
2951.83407	31373.5125
2954.29254	31370.1125
2956.74951	31376.8125
2959.20498	31424.1125
2961.65895	31356.9125
2964.11142	31378.6125
2966.56239	31317.9125
2969.01186	31289.8125
2971.45984	31217.3125
2973.90632	31122.7125
2976.35131	31115.5125
2978.7948	31076.4125
2981.23681	31018.4125
2983.67732	31004.0125
2986.11635	30885.7125
2988.55388	30860.3125
2990.98993	30781.6125
2993.4245	30702.7125
2995.85758	30671.6125
2998.28917	30587.9125
3000.71928	30489.8125
3003.14791	30404.4125
3005.57506	30432.0125
3008.00073	30300.2125
3010.42493	30344.8125
3012.84764	30218.0125
3015.26888	30194.2125
3017.68865	30155.0125
3020.10694	30126.0125
3022.52376	30027.8125
3024.9391	30014.1125
3027.35298	29970.5125
3029.76539	29993.4125
3032.17632	29931.4125
3034.5858	29888.3125
3036.9938	29865.5125
3039.40034	29837.7125
3041.80542	29831.3125
3044.20903	29818.4125
3046.61118	29766.5125
3049.01187	29720.9125
3051.4111	29629.4125
3053.80888	29575.2125
3056.20519	29549.5125
3058.60005	29443.0125
3060.99345	29402.2125
3063.3854	29313.5125
3065.7759	29247.4125
3068.16494	29139.9125
3070.55254	29029.6125
3072.93868	28984.7125
3075.32338	28905.5125
3077.70662	28856.7125
3080.08842	28743.2125
3082.46878	28708.7125
3084.84769	28624.1125
3087.22515	28648.7125
3089.60118	28590.5125
3091.97576	28603.2125
3094.3489	28596.1125
3096.72061	28573.4125
3099.09087	28582.4125
3101.4597	28569.3125
3103.82709	28559.3125
3106.19305	28523.6125
3108.55757	28492.3125
3110.92066	28450.5125
3113.28232	28360.1125
3115.64255	28321.2125
3118.00134	28267.5125
3120.35871	28171.3125
3122.71466	28059.8125
3125.06917	28041.5125
3127.42226	27982.1125
3129.77393	27995.1125
3132.12417	27919.6125
3134.47299	27906.1125
3136.82039	27857.7125
3139.16636	27851.7125
3141.51092	27830.9125
3143.85406	27862.7125
3146.19579	27786.7125
3148.53609	27815.1125
3150.87499	27797.1125
3153.21246	27808.1125
3155.54853	27822.0125
3157.88318	27793.3125
3160.21642	27825.8125
3162.54826	27755.3125
3164.87868	27758.2125
3167.2077	27701.0125
3169.5353	27673.5125
3171.86151	27666.2125
3174.18631	27684.8125
3176.5097	27663.5125
3178.83169	27624.1125
3181.15228	27555.3125
3183.47147	27479.6125
3185.78926	27476.1125
3188.10565	27423.8125
3190.42065	27385.3125
3192.73424	27331.7125
3195.04645	27261.7125
3197.35725	27288.1125
3199.66667	27195.4125
3201.97469	27264.2125
3204.28132	27168.0125
3206.58656	27203.2125
3208.8904	27173.2125
3211.19287	27172.4125
3213.49394	27167.8125
3215.79363	27206.3125
3218.09193	27255.6125
3220.38884	27227.3125
3222.68438	27265.5125
3224.97853	27119.8125
3227.2713	27086.7125
3229.56269	27062.7125
3231.8527	27085.9125
3234.14133	27009.3125
3236.42858	26963.5125
3238.71446	26910.7125
3240.99896	26824.5125
3243.28209	26851.5125
3245.56384	26818.7125
3247.84423	26778.0125
3250.12324	26720.0125
3252.40088	26732.7125
3254.67715	26716.5125
3256.95205	26651.0125
3259.22558	26674.5125
3261.49775	26598.5125
3263.76855	26615.6125
3266.03799	26477.2125
3268.30606	26471.9125
3270.57277	26393.6125
3272.83812	26424.8125
3275.10211	26316.0125
3277.36474	26266.8125
3279.62601	26288.0125
3281.88593	26237.3125
3284.14448	26233.9125
3286.40168	26241.5125
3288.65753	26182.5125
3290.91202	26153.7125
3293.16516	26120.8125
3295.41695	26112.9125
3297.66738	25945.1125
3299.91647	25798.8125
3302.16421	25633.9125
3304.4106	25518.7125
3306.65564	25325.4125
3308.89933	25164.7125
3311.14169	24966.3125
3313.38269	24805.7125
3315.62236	24637.6125
3317.86068	24408.3125
3320.09766	24181.4125
3322.3333	24052.2125
3324.5676	23928.6125
3326.80056	23557.9125
3329.03219	23391.5125
3331.26248	5.7125
3333.49143	1.1125
3335.71905	-0.8875
