Data from AgNPs_FTO_APTES_UA_20uM_CRN_1uM_R6G_10uM_NaF_0.1M_Addition_RamanShift__1__12-03-12-013.txt Node

Date: Thu Feb 17 12:03:12 GMT 2022
User: TCL
Spectrometer: QEP01345
Trigger mode: 4
Integration Time (sec): 7.000000E0
Scans to average: 10
Electric dark correction enabled: true
Nonlinearity correction enabled: false
Boxcar width: 0
XAxis mode: Raman Shifts
Number of Pixels in Spectrum: 1044
>>>>>Begin Spectral Data<<<<<
46.04893	-0.125
50.45542	-1.625
54.85868	-3.425
59.25871	-1.125
63.6555	109.675
68.04907	113.775
72.43941	116.575
76.82654	121.575
81.21044	124.675
85.59113	128.075
89.96862	127.375
94.34289	134.875
98.71396	137.175
103.08183	142.475
107.4465	147.775
111.80798	152.375
116.16626	157.575
120.52136	165.575
124.87327	168.675
129.222	177.275
133.56755	195.975
137.90993	207.975
142.24913	227.575
146.58517	257.175
150.91804	304.875
155.24774	364.775
159.57429	464.275
163.89768	591.175
168.21792	797.175
172.53501	1092.875
176.84895	1559.775
181.15975	2191.175
185.46741	3082.175
189.77193	4232.875
194.07331	5700.475
198.37157	7322.575
202.6667	9070.875
206.9587	10796.375
211.24758	12506.875
215.53334	14178.475
219.81599	16007.375
224.09553	17990.775
228.37195	20225.675
232.64527	22606.375
236.91549	25164.375
241.18261	27710.775
245.44663	30102.175
249.70755	32226.375
253.96539	34045.275
258.22014	35562.175
262.4718	36841.475
266.72039	37764.475
270.96589	38247.075
275.20832	38183.175
279.44768	37879.575
283.68397	37396.875
287.91719	36965.675
292.14735	36667.075
296.37445	36655.975
300.59849	36789.175
304.81948	37062.575
309.03742	37270.975
313.25231	37343.575
317.46415	36967.075
321.67296	36466.675
325.87872	36069.775
330.08145	35836.075
334.28114	35848.775
338.47781	36091.275
342.67145	36578.575
346.86207	37217.375
351.04966	37968.875
355.23424	38804.675
359.4158	39374.775
363.59435	39821.175
367.76989	40173.275
371.94243	40345.875
376.11196	40591.475
380.27849	40834.575
384.44203	41069.475
388.60257	41369.475
392.76012	41731.275
396.91468	42150.775
401.06626	42674.075
405.21485	43078.075
409.36047	43059.775
413.50311	42661.175
417.64277	42407.475
421.77947	42523.875
425.9132	42705.175
430.04396	42919.675
434.17176	43179.975
438.2966	43620.375
442.41849	44489.775
446.53742	45891.475
450.6534	47370.375
454.76644	48363.875
458.87653	48360.675
462.98368	47804.675
467.08789	46905.975
471.18916	46036.175
475.2875	45016.875
479.38291	44350.075
483.4754	43875.475
487.56496	43486.275
491.6516	43228.875
495.73531	42911.375
499.81612	42762.175
503.89401	43064.675
507.96899	43253.475
512.04106	43210.875
516.11023	43064.175
520.1765	42863.175
524.23987	42872.375
528.30034	42940.975
532.35792	42781.475
536.41261	42264.675
540.46441	41746.875
544.51333	41568.175
548.55936	41765.075
552.60252	42542.175
556.64279	43593.775
560.6802	44492.875
564.71473	44901.375
568.7464	45425.175
572.7752	46511.875
576.80114	47503.375
580.82422	48638.075
584.84444	50498.875
588.86181	53474.075
592.87633	56529.875
596.888	56907.675
600.89682	54016.375
604.9028	52322.175
608.90594	54833.975
612.90624	58382.375
616.90371	55526.475
620.89834	47915.275
624.89015	44417.975
628.87913	43960.675
632.86528	44028.975
636.84862	43861.375
640.82913	43180.175
644.80683	42253.675
648.78172	41754.775
652.75379	41857.675
656.72306	42496.175
660.68952	43203.975
664.65319	43059.475
668.61405	42281.975
672.57211	42185.375
676.52738	42491.175
680.47986	42400.075
684.42955	42091.875
688.37646	41965.175
692.32058	42290.875
696.26192	42957.875
700.20048	43677.175
704.13626	44074.075
708.06928	43920.475
711.99952	43686.475
715.927	43786.275
719.85171	44022.375
723.77365	43999.175
727.69284	43507.675
731.60928	42957.175
735.52295	42841.475
739.43388	42919.575
743.34206	43101.975
747.24749	43323.575
751.15017	43710.375
755.05012	44243.275
758.94733	45240.675
762.8418	46928.875
766.73354	49623.575
770.62254	52162.975
774.50882	52705.175
778.39237	51023.975
782.27321	48370.675
786.15132	45917.475
790.02671	44368.375
793.89938	43595.975
797.76935	43335.075
801.6366	43146.075
805.50115	43080.775
809.36299	42963.275
813.22213	42772.275
817.07857	42521.475
820.93231	42439.275
824.78336	42307.875
828.63172	42260.475
832.47738	42262.875
836.32036	42411.175
840.16066	42485.075
843.99827	42598.875
847.8332	42646.075
851.66546	42597.575
855.49504	42638.075
859.32195	42720.875
863.1462	42608.375
866.96777	42599.575
870.78668	42583.275
874.60293	42559.975
878.41652	42595.675
882.22745	42797.375
886.03573	42982.175
889.84136	42882.975
893.64433	42721.575
897.44466	42566.275
901.24235	42424.875
905.0374	42314.475
908.8298	42256.475
912.61957	42302.475
916.40671	42558.675
920.19121	43022.875
923.97308	43428.475
927.75233	43739.975
931.52895	43498.475
935.30295	43025.075
939.07433	42426.475
942.84309	42023.075
946.60924	41902.675
950.37278	41941.375
954.13371	41949.575
957.89203	41796.875
961.64774	41740.275
965.40086	41786.875
969.15137	41726.975
972.89929	41693.675
976.64461	41693.175
980.38733	41797.575
984.12747	41986.475
987.86502	42337.975
991.59999	42709.075
995.33237	43279.375
999.06217	44120.975
1002.78939	45328.175
1006.51404	46258.175
1010.23611	47042.375
1013.95561	47584.475
1017.67255	47646.075
1021.38692	47067.975
1025.09872	46109.275
1028.80796	45719.875
1032.51465	46044.875
1036.21877	46628.375
1039.92035	46809.875
1043.61937	46599.375
1047.31584	46163.475
1051.00976	45542.275
1054.70114	45293.475
1058.38998	45295.275
1062.07627	45469.975
1065.76003	45792.375
1069.44126	46320.375
1073.11995	47009.875
1076.79611	47690.475
1080.46974	48136.475
1084.14085	48530.275
1087.80943	49129.175
1091.47549	49496.275
1095.13903	49326.675
1098.80005	48712.775
1102.45857	47840.575
1106.11456	47300.775
1109.76805	47125.275
1113.41903	47219.875
1117.06751	47455.175
1120.71348	47851.575
1124.35696	48194.775
1127.99793	48550.375
1131.63641	48667.375
1135.2724	48497.875
1138.90589	48253.475
1142.5369	48319.975
1146.16542	48489.975
1149.79145	48763.075
1153.415	49095.675
1157.03607	49555.375
1160.65467	50596.875
1164.27079	52529.275
1167.88443	54895.475
1171.49561	57624.375
1175.10432	61141.675
1178.71056	65610.175
1182.31434	69829.775
1185.91565	71397.175
1189.51451	70218.475
1193.11091	67745.475
1196.70485	65261.175
1200.29634	63145.175
1203.88538	61726.475
1207.47197	60830.275
1211.05612	60144.375
1214.63782	59274.475
1218.21708	58370.375
1221.79391	57845.775
1225.36829	57626.575
1228.94024	57304.475
1232.50976	56298.175
1236.07685	55076.975
1239.6415	54293.175
1243.20374	54207.275
1246.76355	54557.175
1250.32093	55373.675
1253.8759	56457.775
1257.42845	57774.975
1260.97859	59346.475
1264.52631	60974.175
1268.07163	62786.475
1271.61453	64467.075
1275.15503	66063.075
1278.69312	67567.175
1282.22882	69222.075
1285.76211	71237.875
1289.29301	73826.875
1292.82151	76697.275
1296.34761	80142.675
1299.87133	84503.175
1303.39266	89427.775
1306.9116	94504.775
1310.42815	99040.475
1313.94233	101503.575
1317.45412	100726.075
1320.96354	97631.675
1324.47058	94394.375
1327.97525	91648.775
1331.47754	89693.275
1334.97747	88153.775
1338.47502	86838.475
1341.97022	85318.975
1345.46305	83867.475
1348.95352	83310.875
1352.44163	84377.075
1355.92738	87972.875
1359.41078	93486.775
1362.89183	97885.475
1366.37053	97024.875
1369.84688	89538.275
1373.32088	79657.875
1376.79254	72849.875
1380.26186	70445.375
1383.72883	70181.875
1387.19347	70097.275
1390.65578	69025.975
1394.11575	68662.275
1397.57339	69255.075
1401.0287	70364.675
1404.48168	71430.975
1407.93234	71607.675
1411.38068	70755.575
1414.82669	69394.275
1418.27039	67464.375
1421.71177	65362.075
1425.15083	63583.475
1428.58758	62993.275
1432.02203	63800.875
1435.45416	65550.775
1438.88399	67192.975
1442.31151	68218.075
1445.73673	68542.875
1449.15965	68589.475
1452.58027	68090.775
1455.9986	67367.175
1459.41463	67339.575
1462.82837	68222.175
1466.23982	69611.675
1469.64898	71062.275
1473.05586	72050.275
1476.46045	72535.275
1479.86276	72537.675
1483.26279	72120.175
1486.66054	71882.275
1490.05602	72184.775
1493.44922	72865.175
1496.84016	73363.675
1500.22882	74265.675
1503.61521	75652.775
1506.99934	77417.975
1510.38121	78917.775
1513.76081	79139.575
1517.13816	77430.175
1520.51324	74716.875
1523.88607	72716.375
1527.25665	71953.575
1530.62498	71954.975
1533.99105	71830.675
1537.35488	71096.375
1540.71647	69704.975
1544.07581	68314.475
1547.4329	66707.975
1550.78776	65352.475
1554.14038	64383.175
1557.49077	63697.675
1560.83892	63397.675
1564.18484	63355.975
1567.52853	63571.675
1570.86999	64107.375
1574.20922	65055.175
1577.54624	65741.975
1580.88103	65735.875
1584.2136	66168.075
1587.54395	68199.475
1590.87208	72258.775
1594.19801	77626.875
1597.52172	82739.175
1600.84321	84634.675
1604.16251	81181.075
1607.47959	74374.075
1610.79447	67149.375
1614.10715	61219.475
1617.41763	56890.975
1620.7259	54353.475
1624.03199	53305.275
1627.33587	53647.575
1630.63757	55270.075
1633.93707	58603.775
1637.23439	64207.675
1640.52951	72755.275
1643.82246	82908.075
1647.11321	90899.575
1650.40179	91393.675
1653.68819	83608.475
1656.97241	72020.575
1660.25446	61652.475
1663.53433	54678.375
1666.81203	50486.275
1670.08756	48015.175
1673.36092	46467.475
1676.63211	45508.975
1679.90115	44739.775
1683.16801	44194.275
1686.43272	43771.975
1689.69527	43438.075
1692.95567	43224.275
1696.2139	43113.675
1699.46999	43036.175
1702.72392	42988.875
1705.97571	42873.075
1709.22535	42823.875
1712.47284	42828.875
1715.71819	42876.675
1718.96139	42781.075
1722.20246	42705.275
1725.44139	42560.975
1728.67818	42350.475
1731.91284	42136.575
1735.14537	41944.975
1738.37576	41745.175
1741.60403	41636.375
1744.83017	41498.675
1748.05418	41394.975
1751.27607	41400.875
1754.49584	41308.875
1757.71349	41302.075
1760.92903	41335.875
1764.14244	41298.275
1767.35375	41273.375
1770.56294	41204.175
1773.77002	41250.075
1776.97499	41189.075
1780.17785	41133.775
1783.37861	41084.875
1786.57727	40958.175
1789.77382	40903.075
1792.96828	40877.275
1796.16064	40885.175
1799.3509	40813.875
1802.53907	40736.275
1805.72514	40685.675
1808.90913	40623.075
1812.09102	40510.875
1815.27083	40471.575
1818.44856	40421.175
1821.6242	40356.975
1824.79776	40331.675
1827.96924	40371.675
1831.13864	40339.375
1834.30597	40355.475
1837.47122	40277.975
1840.6344	40235.175
1843.7955	40265.775
1846.95454	40255.775
1850.11151	40235.375
1853.26642	40244.975
1856.41926	40253.775
1859.57004	40245.875
1862.71876	40168.775
1865.86542	40132.575
1869.01003	40116.975
1872.15258	40098.975
1875.29308	40073.875
1878.43152	39999.175
1881.56792	40032.975
1884.70227	40065.675
1887.83457	40067.575
1890.96482	40031.275
1894.09304	39941.475
1897.21921	39898.575
1900.34335	39853.575
1903.46544	39798.775
1906.58551	39867.275
1909.70353	39865.175
1912.81953	39851.575
1915.93349	39791.975
1919.04543	39617.075
1922.15534	39601.675
1925.26322	39540.875
1928.36908	39540.975
1931.47292	39435.975
1934.57473	39295.575
1937.67453	39272.775
1940.77232	39198.575
1943.86808	39062.375
1946.96184	38989.575
1950.05358	38904.175
1953.14331	38833.275
1956.23103	38696.175
1959.31675	38603.775
1962.40046	38495.775
1965.48217	38330.775
1968.56188	38297.375
1971.63959	38256.575
1974.7153	38125.175
1977.78901	38023.975
1980.86073	37903.475
1983.93046	37838.175
1986.99819	37694.675
1990.06394	37682.075
1993.1277	37575.975
1996.18947	37479.275
1999.24925	37431.175
2002.30706	37301.975
2005.36288	37187.875
2008.41672	37113.375
2011.46859	37062.675
2014.51848	36910.775
2017.56639	36833.975
2020.61233	36729.075
2023.6563	36645.275
2026.6983	36604.275
2029.73833	36473.375
2032.7764	36432.675
2035.8125	36410.575
2038.84664	36337.875
2041.87881	36346.175
2044.90903	36252.375
2047.93729	36184.375
2050.96359	36195.375
2053.98794	36164.575
2057.01034	36121.975
2060.03078	36137.475
2063.04927	36212.375
2066.06582	36171.175
2069.08042	36179.975
2072.09307	36136.775
2075.10378	36062.675
2078.11255	36019.975
2081.11938	36011.275
2084.12426	36008.575
2087.12722	36003.675
2090.12824	35986.375
2093.12732	36048.375
2096.12447	36015.575
2099.11969	36005.375
2102.11299	36024.875
2105.10435	36075.775
2108.09379	36118.675
2111.08131	36170.775
2114.0669	36080.975
2117.05057	36109.375
2120.03233	36186.575
2123.01216	36128.075
2125.99008	36248.775
2128.96609	36325.275
2131.94018	36383.875
2134.91236	36455.775
2137.88263	36467.475
2140.851	36482.275
2143.81746	36510.675
2146.78201	36547.375
2149.74466	36577.775
2152.7054	36567.975
2155.66425	36541.975
2158.6212	36583.575
2161.57625	36549.775
2164.52941	36585.175
2167.48067	36562.175
2170.43004	36545.575
2173.37752	36590.175
2176.32311	36608.575
2179.26681	36627.375
2182.20863	36649.875
2185.14856	36649.175
2188.08661	36672.875
2191.02278	36667.575
2193.95707	36629.175
2196.88948	36604.675
2199.82001	36596.775
2202.74867	36593.275
2205.67545	36570.175
2208.60037	36454.975
2211.52341	36454.075
2214.44458	36443.375
2217.36388	36421.575
2220.28132	36383.575
2223.1969	36317.175
2226.11061	36210.475
2229.02246	36079.875
2231.93245	36091.775
2234.84058	36078.675
2237.74686	36037.875
2240.65128	36032.575
2243.55385	35968.575
2246.45456	35920.475
2249.35343	35851.375
2252.25044	35794.775
2255.14561	35779.375
2258.03893	35764.975
2260.93041	35703.775
2263.82004	35659.175
2266.70783	35498.175
2269.59378	35454.475
2272.4779	35413.475
2275.36017	35362.175
2278.24061	35329.175
2281.11922	35246.775
2283.996	35185.675
2286.87094	35143.575
2289.74405	35130.075
2292.61534	35141.075
2295.4848	35134.875
2298.35243	35110.375
2301.21824	35142.375
2304.08223	35077.575
2306.94439	35100.275
2309.80474	35118.875
2312.66327	35109.875
2315.51999	35146.975
2318.37489	35026.675
2321.22797	35033.475
2324.07925	35022.775
2326.92871	34944.575
2329.77637	34868.775
2332.62222	34888.675
2335.46626	34883.475
2338.3085	34882.075
2341.14893	34829.975
2343.98756	34847.975
2346.8244	34857.075
2349.65943	34856.975
2352.49267	34877.975
2355.32411	34814.775
2358.15376	34783.575
2360.98161	34806.075
2363.80768	34766.875
2366.63195	34713.575
2369.45444	34706.575
2372.27514	34671.275
2375.09405	34685.175
2377.91118	34574.775
2380.72652	34502.375
2383.54009	34419.075
2386.35187	34366.875
2389.16188	34258.475
2391.97011	34245.275
2394.77657	34230.475
2397.58125	34208.675
2400.38416	34140.075
2403.18529	34110.275
2405.98466	34109.575
2408.78226	34042.475
2411.57809	34002.175
2414.37216	33933.575
2417.16446	33979.575
2419.955	33898.575
2422.74378	33881.675
2425.5308	33878.175
2428.31606	33880.175
2431.09956	33906.875
2433.88131	33874.375
2436.6613	33930.375
2439.43954	33855.275
2442.21603	33829.175
2444.99077	33775.475
2447.76377	33785.175
2450.53501	33795.175
2453.30451	33794.575
2456.07226	33776.775
2458.83827	33747.375
2461.60254	33755.875
2464.36507	33745.575
2467.12586	33740.575
2469.88492	33720.275
2472.64224	33751.375
2475.39782	33813.275
2478.15167	33809.575
2480.90379	33763.575
2483.65417	33777.775
2486.40283	33810.175
2489.14976	33810.775
2491.89497	33759.275
2494.63845	33815.775
2497.3802	33761.175
2500.12024	33780.875
2502.85855	33754.875
2505.59514	33742.075
2508.33002	33666.975
2511.06318	33646.975
2513.79462	33644.175
2516.52435	33624.975
2519.25237	33596.875
2521.97867	33586.875
2524.70327	33555.475
2527.42616	33533.975
2530.14734	33467.475
2532.86681	33522.175
2535.58458	33470.375
2538.30065	33438.375
2541.01501	33526.875
2543.72768	33456.875
2546.43864	33444.775
2549.14791	33400.675
2551.85548	33343.675
2554.56136	33316.275
2557.26554	33235.875
2559.96803	33260.775
2562.66883	33196.475
2565.36794	33202.675
2568.06536	33175.475
2570.7611	33109.875
2573.45514	33101.675
2576.14751	33066.775
2578.83819	33069.375
2581.52719	33029.775
2584.21451	33059.675
2586.90015	33037.175
2589.58411	32924.975
2592.2664	32966.075
2594.94701	32960.775
2597.62594	32932.075
2600.30321	32922.875
2602.9788	32852.775
2605.65273	32874.875
2608.32498	32852.475
2610.99557	32852.875
2613.66449	32940.275
2616.33175	32865.875
2618.99734	32806.075
2621.66128	32730.175
2624.32355	32733.975
2626.98416	32686.675
2629.64311	32662.575
2632.30041	32638.375
2634.95605	32580.375
2637.61004	32626.575
2640.26238	32555.575
2642.91306	32556.175
2645.56209	32539.175
2648.20948	32527.175
2650.85521	32539.475
2653.4993	32567.675
2656.14175	32588.075
2658.78255	32635.375
2661.42171	32647.975
2664.05923	32685.775
2666.6951	32692.975
2669.32934	32664.775
2671.96194	32671.475
2674.59291	32706.275
2677.22224	32644.475
2679.84993	32687.475
2682.476	32674.175
2685.10043	32658.475
2687.72324	32622.175
2690.34441	32652.375
2692.96396	32621.675
2695.58188	32683.975
2698.19818	32635.175
2700.81285	32642.075
2703.4259	32603.175
2706.03733	32677.775
2708.64714	32678.275
2711.25533	32722.175
2713.86191	32722.875
2716.46687	32798.175
2719.07021	32803.075
2721.67194	32819.375
2724.27206	32818.975
2726.87057	32836.875
2729.46747	32860.075
2732.06276	32861.575
2734.65644	32864.975
2737.24852	32850.875
2739.83899	32813.075
2742.42786	32834.075
2745.01513	32784.675
2747.60079	32787.075
2750.18486	32742.575
2752.76733	32795.475
2755.3482	32724.275
2757.92747	32694.475
2760.50515	32622.675
2763.08123	32644.475
2765.65573	32677.675
2768.22863	32613.675
2770.79994	32596.575
2773.36967	32554.175
2775.9378	32599.275
2778.50435	32616.375
2781.06932	32552.675
2783.6327	32596.375
2786.1945	32542.775
2788.75471	32477.175
2791.31335	32432.775
2793.87041	32449.675
2796.42589	32331.475
2798.97979	32341.075
2801.53212	32236.875
2804.08288	32169.475
2806.63206	32127.975
2809.17967	32074.775
2811.72571	32026.275
2814.27018	31864.175
2816.81308	31859.475
2819.35442	31807.375
2821.89419	31732.475
2824.43239	31760.075
2826.96904	31745.075
2829.50412	31756.975
2832.03763	31696.575
2834.56959	31628.975
2837.1	31614.475
2839.62884	31601.375
2842.15613	31497.775
2844.68186	31579.875
2847.20604	31550.575
2849.72867	31577.775
2852.24974	31492.675
2854.76927	31460.775
2857.28724	31421.175
2859.80367	31419.875
2862.31855	31379.775
2864.83189	31399.875
2867.34368	31310.275
2869.85393	31281.475
2872.36264	31213.275
2874.8698	31216.475
2877.37543	31197.675
2879.87952	31146.075
2882.38207	31194.375
2884.88308	31209.375
2887.38256	31223.875
2889.88051	31198.175
2892.37692	31263.675
2894.8718	31264.975
2897.36515	31267.775
2899.85698	31270.775
2902.34727	31340.975
2904.83604	31332.375
2907.32328	31387.575
2909.809	31397.675
2912.29319	31411.375
2914.77587	31390.675
2917.25702	31421.575
2919.73665	31393.875
2922.21476	31398.875
2924.69136	31334.575
2927.16644	31388.975
2929.64	31290.675
2932.11205	31293.075
2934.58258	31194.675
2937.05161	31268.775
2939.51912	31218.075
2941.98513	31151.075
2944.44962	31174.275
2946.91261	31090.375
2949.37409	31211.175
2951.83407	31150.875
2954.29254	31147.575
2956.74951	31178.475
2959.20498	31173.075
2961.65895	31131.375
2964.11142	31145.775
2966.56239	31098.575
2969.01186	31089.675
2971.45984	30990.075
2973.90632	30943.275
2976.35131	30914.375
2978.7948	30869.675
2981.23681	30813.075
2983.67732	30753.975
2986.11635	30675.275
2988.55388	30663.875
2990.98993	30572.575
2993.4245	30537.075
2995.85758	30474.775
2998.28917	30307.675
3000.71928	30276.675
3003.14791	30197.975
3005.57506	30261.575
3008.00073	30177.775
3010.42493	30176.075
3012.84764	30125.875
3015.26888	30074.875
3017.68865	30005.475
3020.10694	29976.375
3022.52376	29909.575
3024.9391	29876.175
3027.35298	29861.175
3029.76539	29819.975
3032.17632	29807.075
3034.5858	29762.375
3036.9938	29742.775
3039.40034	29695.975
3041.80542	29714.075
3044.20903	29656.775
3046.61118	29639.075
3049.01187	29591.575
3051.4111	29528.675
3053.80888	29476.175
3056.20519	29467.875
3058.60005	29367.075
3060.99345	29309.975
3063.3854	29300.875
3065.7759	29222.475
3068.16494	29107.775
3070.55254	28956.875
3072.93868	28934.675
3075.32338	28844.875
3077.70662	28803.475
3080.08842	28741.475
3082.46878	28685.075
3084.84769	28606.875
3087.22515	28576.475
3089.60118	28601.875
3091.97576	28560.975
3094.3489	28582.175
3096.72061	28593.875
3099.09087	28586.275
3101.4597	28556.675
3103.82709	28572.975
3106.19305	28516.075
3108.55757	28534.675
3110.92066	28436.575
3113.28232	28424.675
3115.64255	28317.675
3118.00134	28291.275
3120.35871	28173.475
3122.71466	28139.575
3125.06917	28078.675
3127.42226	28036.675
3129.77393	28038.775
3132.12417	27991.375
3134.47299	27996.975
3136.82039	27952.575
3139.16636	27919.775
3141.51092	27886.275
3143.85406	27950.075
3146.19579	27897.375
3148.53609	27851.275
3150.87499	27894.775
3153.21246	27901.775
3155.54853	27956.275
3157.88318	27910.975
3160.21642	27911.975
3162.54826	27894.675
3164.87868	27889.575
3167.2077	27808.675
3169.5353	27807.575
3171.86151	27790.375
3174.18631	27830.975
3176.5097	27839.175
3178.83169	27773.875
3181.15228	27741.675
3183.47147	27599.175
3185.78926	27631.375
3188.10565	27581.475
3190.42065	27545.475
3192.73424	27556.875
3195.04645	27465.975
3197.35725	27458.875
3199.66667	27429.775
3201.97469	27459.075
3204.28132	27402.475
3206.58656	27401.375
3208.8904	27363.275
3211.19287	27357.475
3213.49394	27428.075
3215.79363	27420.875
3218.09193	27503.775
3220.38884	27486.775
3222.68438	27500.175
3224.97853	27381.475
3227.2713	27346.375
3229.56269	27347.075
3231.8527	27337.975
3234.14133	27345.275
3236.42858	27207.675
3238.71446	27195.675
3240.99896	27125.375
3243.28209	27168.975
3245.56384	27105.475
3247.84423	27045.975
3250.12324	27045.575
3252.40088	27015.975
3254.67715	26999.975
3256.95205	27023.075
3259.22558	26951.875
3261.49775	26941.075
3263.76855	26880.175
3266.03799	26809.475
3268.30606	26770.875
3270.57277	26731.975
3272.83812	26723.475
3275.10211	26681.475
3277.36474	26604.475
3279.62601	26604.875
3281.88593	26598.075
3284.14448	26585.575
3286.40168	26586.975
3288.65753	26583.475
3290.91202	26514.975
3293.16516	26510.875
3295.41695	26457.175
3297.66738	26291.275
3299.91647	26201.975
3302.16421	26021.375
3304.4106	25897.875
3306.65564	25741.275
3308.89933	25554.975
3311.14169	25399.575
3313.38269	25227.675
3315.62236	25085.675
3317.86068	24771.675
3320.09766	24565.675
3322.3333	24438.475
3324.5676	24337.475
3326.80056	23965.675
3329.03219	23797.975
3331.26248	6.175
3333.49143	1.075
3335.71905	-0.425
