Data from AgNPs_FTO_APTES_UA_20uM_CRN_20uM_R6G_10uM_NaF_0.1M_Addition_RamanShift__0__14-50-02-231.txt Node

Date: Thu Feb 17 14:50:02 GMT 2022
User: TCL
Spectrometer: QEP01345
Trigger mode: 4
Integration Time (sec): 7.000000E0
Scans to average: 10
Electric dark correction enabled: true
Nonlinearity correction enabled: false
Boxcar width: 0
XAxis mode: Raman Shifts
Number of Pixels in Spectrum: 1044
>>>>>Begin Spectral Data<<<<<
46.04893	1.3125
50.45542	-0.2875
54.85868	-1.6875
59.25871	-1.4875
63.6555	79.2125
68.04907	80.8125
72.43941	85.4125
76.82654	84.0125
81.21044	88.5125
85.59113	92.8125
89.96862	92.3125
94.34289	99.3125
98.71396	105.3125
103.08183	101.8125
107.4465	105.1125
111.80798	104.2125
116.16626	111.9125
120.52136	119.1125
124.87327	126.1125
129.222	132.5125
133.56755	142.5125
137.90993	152.1125
142.24913	165.1125
146.58517	187.3125
150.91804	223.0125
155.24774	266.0125
159.57429	337.0125
163.89768	437.7125
168.21792	592.0125
172.53501	819.6125
176.84895	1147.0125
181.15975	1623.3125
185.46741	2301.3125
189.77193	3179.6125
194.07331	4262.4125
198.37157	5514.7125
202.6667	6825.3125
206.9587	8128.3125
211.24758	9400.0125
215.53334	10680.5125
219.81599	12025.5125
224.09553	13543.2125
228.37195	15168.9125
232.64527	16994.8125
236.91549	18881.9125
241.18261	20827.3125
245.44663	22652.6125
249.70755	24308.3125
253.96539	25810.9125
258.22014	27083.5125
262.4718	28058.1125
266.72039	28815.8125
270.96589	29244.7125
275.20832	29308.3125
279.44768	29067.2125
283.68397	28724.8125
287.91719	28424.5125
292.14735	28297.8125
296.37445	28221.9125
300.59849	28354.2125
304.81948	28520.0125
309.03742	28653.7125
313.25231	28565.4125
317.46415	28175.9125
321.67296	27737.8125
325.87872	27318.3125
330.08145	27127.0125
334.28114	27186.1125
338.47781	27394.7125
342.67145	27766.8125
346.86207	28244.4125
351.04966	28845.3125
355.23424	29398.1125
359.4158	29883.9125
363.59435	30220.3125
367.76989	30523.9125
371.94243	30746.2125
376.11196	30981.7125
380.27849	31110.7125
384.44203	31294.3125
388.60257	31494.4125
392.76012	31726.6125
396.91468	31991.8125
401.06626	32370.0125
405.21485	32664.8125
409.36047	32651.6125
413.50311	32263.3125
417.64277	32033.0125
421.77947	31928.6125
425.9132	32126.0125
430.04396	32331.1125
434.17176	32565.3125
438.2966	32805.2125
442.41849	33264.9125
446.53742	34034.2125
450.6534	34909.2125
454.76644	35460.5125
458.87653	35664.7125
462.98368	35367.1125
467.08789	34905.9125
471.18916	34474.4125
475.2875	34002.1125
479.38291	33741.0125
483.4754	33480.5125
487.56496	33281.2125
491.6516	33039.2125
495.73531	32807.3125
499.81612	32645.0125
503.89401	32782.4125
507.96899	32828.1125
512.04106	32925.7125
516.11023	32864.0125
520.1765	32857.0125
524.23987	32859.1125
528.30034	32822.8125
532.35792	32674.5125
536.41261	32430.4125
540.46441	32127.4125
544.51333	32057.6125
548.55936	32251.0125
552.60252	32727.4125
556.64279	33336.6125
560.6802	33795.2125
564.71473	33922.9125
568.7464	34236.4125
572.7752	34761.1125
576.80114	35193.3125
580.82422	35512.5125
584.84444	36106.4125
588.86181	37156.2125
592.87633	38237.9125
596.888	38653.0125
600.89682	38025.0125
604.9028	38154.7125
608.90594	40603.8125
612.90624	43705.8125
616.90371	41949.6125
620.89834	36451.8125
624.89015	33990.7125
628.87913	33593.3125
632.86528	33664.4125
636.84862	33659.8125
640.82913	33369.3125
644.80683	32785.9125
648.78172	32396.0125
652.75379	32464.2125
656.72306	32901.1125
660.68952	33444.6125
664.65319	33353.0125
668.61405	32914.2125
672.57211	32771.5125
676.52738	32912.9125
680.47986	32919.7125
684.42955	32774.1125
688.37646	32781.0125
692.32058	33042.7125
696.26192	33461.8125
700.20048	33931.7125
704.13626	34248.6125
708.06928	34293.0125
711.99952	34101.5125
715.927	33936.5125
719.85171	33997.6125
723.77365	33850.0125
727.69284	33610.6125
731.60928	33340.3125
735.52295	33293.1125
739.43388	33308.3125
743.34206	33378.7125
747.24749	33458.6125
751.15017	33623.0125
755.05012	33964.1125
758.94733	34547.7125
762.8418	35724.2125
766.73354	37695.1125
770.62254	39687.1125
774.50882	40413.4125
778.39237	39295.3125
782.27321	37264.6125
786.15132	35374.2125
790.02671	34210.9125
793.89938	33655.1125
797.76935	33494.5125
801.6366	33380.3125
805.50115	33256.8125
809.36299	33142.1125
813.22213	33098.1125
817.07857	33094.4125
820.93231	33022.3125
824.78336	33073.8125
828.63172	33071.0125
832.47738	33149.7125
836.32036	33167.9125
840.16066	33282.7125
843.99827	33323.3125
847.8332	33311.8125
851.66546	33325.7125
855.49504	33428.8125
859.32195	33425.1125
863.1462	33424.2125
866.96777	33341.0125
870.78668	33277.0125
874.60293	33323.3125
878.41652	33379.2125
882.22745	33477.4125
886.03573	33537.3125
889.84136	33500.8125
893.64433	33398.6125
897.44466	33297.9125
901.24235	33207.2125
905.0374	33218.1125
908.8298	33154.9125
912.61957	33211.0125
916.40671	33404.4125
920.19121	33627.7125
923.97308	33839.8125
927.75233	33849.5125
931.52895	33717.3125
935.30295	33526.6125
939.07433	33222.9125
942.84309	32941.7125
946.60924	32875.7125
950.37278	32836.2125
954.13371	32830.6125
957.89203	32738.8125
961.64774	32681.4125
965.40086	32635.5125
969.15137	32598.6125
972.89929	32574.8125
976.64461	32615.4125
980.38733	32665.8125
984.12747	32840.7125
987.86502	33039.4125
991.59999	33323.1125
995.33237	33606.0125
999.06217	34035.3125
1002.78939	34486.0125
1006.51404	34915.0125
1010.23611	35319.2125
1013.95561	35599.6125
1017.67255	35625.0125
1021.38692	35368.9125
1025.09872	35012.2125
1028.80796	34836.9125
1032.51465	35086.7125
1036.21877	35418.5125
1039.92035	35537.2125
1043.61937	35477.5125
1047.31584	35213.1125
1051.00976	34949.0125
1054.70114	34880.6125
1058.38998	34861.6125
1062.07627	35034.5125
1065.76003	35249.6125
1069.44126	35493.5125
1073.11995	35841.5125
1076.79611	36185.2125
1080.46974	36419.4125
1084.14085	36687.7125
1087.80943	37020.7125
1091.47549	37225.6125
1095.13903	37237.7125
1098.80005	36870.0125
1102.45857	36444.6125
1106.11456	36201.1125
1109.76805	36172.3125
1113.41903	36295.0125
1117.06751	36457.6125
1120.71348	36746.9125
1124.35696	37003.7125
1127.99793	37294.6125
1131.63641	37319.8125
1135.2724	37009.3125
1138.90589	36769.2125
1142.5369	36600.3125
1146.16542	36602.7125
1149.79145	36691.2125
1153.415	36836.8125
1157.03607	36987.3125
1160.65467	37513.4125
1164.27079	38436.8125
1167.88443	39685.6125
1171.49561	41188.4125
1175.10432	43305.9125
1178.71056	45972.8125
1182.31434	48324.9125
1185.91565	49198.5125
1189.51451	48586.2125
1193.11091	47204.8125
1196.70485	45698.1125
1200.29634	44568.5125
1203.88538	43860.9125
1207.47197	43270.2125
1211.05612	42608.6125
1214.63782	41996.7125
1218.21708	41508.5125
1221.79391	41172.8125
1225.36829	41055.3125
1228.94024	40866.8125
1232.50976	40343.4125
1236.07685	39784.0125
1239.6415	39580.0125
1243.20374	39661.5125
1246.76355	40014.2125
1250.32093	40522.5125
1253.8759	41175.0125
1257.42845	41930.3125
1260.97859	42680.3125
1264.52631	43492.2125
1268.07163	44288.1125
1271.61453	45004.8125
1275.15503	45770.6125
1278.69312	46359.2125
1282.22882	47024.6125
1285.76211	47841.0125
1289.29301	48953.0125
1292.82151	50420.2125
1296.34761	52085.3125
1299.87133	54283.8125
1303.39266	56899.9125
1306.9116	59635.5125
1310.42815	62226.9125
1313.94233	63742.9125
1317.45412	63382.3125
1320.96354	61872.7125
1324.47058	60255.1125
1327.97525	58669.9125
1331.47754	57198.5125
1334.97747	56369.7125
1338.47502	55970.2125
1341.97022	55740.7125
1345.46305	55564.7125
1348.95352	55718.5125
1352.44163	56614.5125
1355.92738	58412.7125
1359.41078	61459.8125
1362.89183	64148.6125
1366.37053	63333.5125
1369.84688	58441.3125
1373.32088	52814.4125
1376.79254	49071.6125
1380.26186	47756.0125
1383.72883	47697.6125
1387.19347	47857.4125
1390.65578	47380.4125
1394.11575	46686.3125
1397.57339	46565.5125
1401.0287	46778.0125
1404.48168	47081.4125
1407.93234	47054.1125
1411.38068	46591.7125
1414.82669	45864.4125
1418.27039	44933.1125
1421.71177	43890.2125
1425.15083	42931.9125
1428.58758	42420.8125
1432.02203	42593.3125
1435.45416	43251.0125
1438.88399	44073.2125
1442.31151	44675.7125
1445.73673	45129.8125
1449.15965	45339.2125
1452.58027	45215.8125
1455.9986	44930.9125
1459.41463	44942.5125
1462.82837	45308.5125
1466.23982	45874.0125
1469.64898	46675.9125
1473.05586	47359.7125
1476.46045	47806.4125
1479.86276	47870.0125
1483.26279	47657.9125
1486.66054	47576.0125
1490.05602	47856.2125
1493.44922	48347.4125
1496.84016	49104.1125
1500.22882	50157.2125
1503.61521	51863.0125
1506.99934	53887.6125
1510.38121	55488.8125
1513.76081	55887.7125
1517.13816	54524.4125
1520.51324	52226.5125
1523.88607	50208.1125
1527.25665	49026.8125
1530.62498	48511.5125
1533.99105	48268.9125
1537.35488	47811.7125
1540.71647	47182.5125
1544.07581	46478.1125
1547.4329	45723.3125
1550.78776	45226.4125
1554.14038	44793.6125
1557.49077	44575.4125
1560.83892	44564.1125
1564.18484	44772.7125
1567.52853	45090.5125
1570.86999	45606.4125
1574.20922	46224.7125
1577.54624	46414.1125
1580.88103	46166.1125
1584.2136	45950.7125
1587.54395	46451.8125
1590.87208	48041.2125
1594.19801	50323.8125
1597.52172	52798.5125
1600.84321	53665.0125
1604.16251	52176.2125
1607.47959	49281.8125
1610.79447	46111.9125
1614.10715	43200.8125
1617.41763	41038.7125
1620.7259	39664.6125
1624.03199	39113.1125
1627.33587	39234.1125
1630.63757	39981.5125
1633.93707	41486.8125
1637.23439	44226.3125
1640.52951	48112.5125
1643.82246	52922.1125
1647.11321	57115.7125
1650.40179	58428.5125
1653.68819	55732.6125
1656.97241	50227.6125
1660.25446	44878.3125
1663.53433	40993.2125
1666.81203	38600.3125
1670.08756	36946.3125
1673.36092	35872.8125
1676.63211	35089.8125
1679.90115	34559.8125
1683.16801	34245.7125
1686.43272	34014.9125
1689.69527	33922.5125
1692.95567	34176.9125
1696.2139	34669.4125
1699.46999	35181.7125
1702.72392	35202.4125
1705.97571	34669.8125
1709.22535	33976.9125
1712.47284	33544.1125
1715.71819	33386.9125
1718.96139	33240.4125
1722.20246	33113.0125
1725.44139	32912.8125
1728.67818	32789.6125
1731.91284	32595.8125
1735.14537	32486.9125
1738.37576	32514.2125
1741.60403	32493.9125
1744.83017	32499.6125
1748.05418	32537.3125
1751.27607	32609.8125
1754.49584	32858.7125
1757.71349	33318.4125
1760.92903	33449.4125
1764.14244	33424.2125
1767.35375	33362.6125
1770.56294	33324.2125
1773.77002	33123.4125
1776.97499	32732.3125
1780.17785	32393.3125
1783.37861	32100.6125
1786.57727	31975.5125
1789.77382	31898.5125
1792.96828	31795.8125
1796.16064	31703.7125
1799.3509	31633.0125
1802.53907	31592.1125
1805.72514	31487.7125
1808.90913	31411.0125
1812.09102	31463.5125
1815.27083	31366.6125
1818.44856	31300.5125
1821.6242	31291.0125
1824.79776	31242.2125
1827.96924	31225.4125
1831.13864	31229.5125
1834.30597	31272.6125
1837.47122	31205.2125
1840.6344	31159.5125
1843.7955	31167.9125
1846.95454	31118.6125
1850.11151	31070.6125
1853.26642	31099.4125
1856.41926	31082.2125
1859.57004	31048.2125
1862.71876	30988.9125
1865.86542	31019.9125
1869.01003	30999.3125
1872.15258	30983.2125
1875.29308	30923.5125
1878.43152	30939.9125
1881.56792	30912.2125
1884.70227	30888.0125
1887.83457	30810.1125
1890.96482	30824.0125
1894.09304	30803.5125
1897.21921	30838.9125
1900.34335	30789.6125
1903.46544	30732.8125
1906.58551	30720.4125
1909.70353	30692.3125
1912.81953	30669.2125
1915.93349	30611.1125
1919.04543	30524.4125
1922.15534	30460.4125
1925.26322	30447.1125
1928.36908	30406.5125
1931.47292	30393.1125
1934.57473	30365.6125
1937.67453	30310.0125
1940.77232	30276.1125
1943.86808	30189.8125
1946.96184	30131.6125
1950.05358	30104.0125
1953.14331	29990.6125
1956.23103	29919.5125
1959.31675	29890.1125
1962.40046	29742.6125
1965.48217	29662.3125
1968.56188	29636.2125
1971.63959	29587.4125
1974.7153	29448.8125
1977.78901	29367.1125
1980.86073	29283.2125
1983.93046	29282.5125
1986.99819	29187.8125
1990.06394	29059.0125
1993.1277	29040.4125
1996.18947	28949.0125
1999.24925	28927.4125
2002.30706	28786.6125
2005.36288	28727.8125
2008.41672	28653.6125
2011.46859	28512.1125
2014.51848	28533.6125
2017.56639	28412.6125
2020.61233	28347.6125
2023.6563	28289.5125
2026.6983	28267.0125
2029.73833	28197.0125
2032.7764	28153.4125
2035.8125	28107.5125
2038.84664	28051.6125
2041.87881	28004.1125
2044.90903	27980.0125
2047.93729	27922.7125
2050.96359	27934.8125
2053.98794	27918.9125
2057.01034	27903.9125
2060.03078	27916.2125
2063.04927	27913.9125
2066.06582	27931.0125
2069.08042	27848.9125
2072.09307	27872.1125
2075.10378	27808.3125
2078.11255	27757.0125
2081.11938	27814.5125
2084.12426	27790.3125
2087.12722	27767.7125
2090.12824	27781.5125
2093.12732	27803.8125
2096.12447	27819.2125
2099.11969	27822.9125
2102.11299	27860.9125
2105.10435	27840.8125
2108.09379	27843.7125
2111.08131	27925.5125
2114.0669	27880.4125
2117.05057	27947.8125
2120.03233	28027.0125
2123.01216	28034.2125
2125.99008	27988.4125
2128.96609	28041.3125
2131.94018	28087.1125
2134.91236	28045.6125
2137.88263	28116.7125
2140.851	28145.0125
2143.81746	28171.4125
2146.78201	28162.8125
2149.74466	28194.2125
2152.7054	28216.9125
2155.66425	28157.0125
2158.6212	28185.6125
2161.57625	28187.1125
2164.52941	28179.9125
2167.48067	28150.3125
2170.43004	28161.6125
2173.37752	28177.0125
2176.32311	28226.1125
2179.26681	28271.5125
2182.20863	28238.4125
2185.14856	28201.7125
2188.08661	28231.4125
2191.02278	28189.0125
2193.95707	28161.6125
2196.88948	28168.2125
2199.82001	28159.0125
2202.74867	28117.3125
2205.67545	28111.0125
2208.60037	28122.8125
2211.52341	28055.1125
2214.44458	28041.1125
2217.36388	27962.2125
2220.28132	27951.5125
2223.1969	27886.5125
2226.11061	27912.5125
2229.02246	27841.9125
2231.93245	27791.9125
2234.84058	27736.4125
2237.74686	27719.6125
2240.65128	27695.8125
2243.55385	27665.0125
2246.45456	27646.5125
2249.35343	27603.8125
2252.25044	27549.5125
2255.14561	27510.6125
2258.03893	27613.2125
2260.93041	27671.7125
2263.82004	27527.8125
2266.70783	27421.6125
2269.59378	27343.1125
2272.4779	27228.2125
2275.36017	27158.7125
2278.24061	27096.1125
2281.11922	27082.6125
2283.996	27032.4125
2286.87094	27004.7125
2289.74405	26994.8125
2292.61534	27028.4125
2295.4848	27027.9125
2298.35243	27022.3125
2301.21824	26972.9125
2304.08223	26975.6125
2306.94439	26979.4125
2309.80474	26976.9125
2312.66327	26995.4125
2315.51999	26932.0125
2318.37489	26919.7125
2321.22797	26918.9125
2324.07925	26893.7125
2326.92871	26819.8125
2329.77637	26819.2125
2332.62222	26750.6125
2335.46626	26777.0125
2338.3085	26732.3125
2341.14893	26766.5125
2343.98756	26761.2125
2346.8244	26711.8125
2349.65943	26708.7125
2352.49267	26670.0125
2355.32411	26696.3125
2358.15376	26724.9125
2360.98161	26667.8125
2363.80768	26612.6125
2366.63195	26595.0125
2369.45444	26568.8125
2372.27514	26530.3125
2375.09405	26481.0125
2377.91118	26461.2125
2380.72652	26389.1125
2383.54009	26332.2125
2386.35187	26295.5125
2389.16188	26263.7125
2391.97011	26218.5125
2394.77657	26166.9125
2397.58125	26144.9125
2400.38416	26102.0125
2403.18529	26059.0125
2405.98466	26053.7125
2408.78226	26045.2125
2411.57809	25958.1125
2414.37216	25938.5125
2417.16446	25929.2125
2419.955	25911.0125
2422.74378	25935.3125
2425.5308	25902.1125
2428.31606	25895.0125
2431.09956	25839.8125
2433.88131	25810.0125
2436.6613	25876.0125
2439.43954	25852.4125
2442.21603	25853.4125
2444.99077	25790.3125
2447.76377	25776.9125
2450.53501	25756.3125
2453.30451	25779.4125
2456.07226	25737.5125
2458.83827	25754.6125
2461.60254	25675.8125
2464.36507	25628.9125
2467.12586	25599.6125
2469.88492	25647.9125
2472.64224	25672.3125
2475.39782	25758.1125
2478.15167	25847.0125
2480.90379	25778.4125
2483.65417	25747.3125
2486.40283	25699.6125
2489.14976	25699.2125
2491.89497	25675.3125
2494.63845	25798.1125
2497.3802	25772.3125
2500.12024	25666.9125
2502.85855	25639.1125
2505.59514	25572.6125
2508.33002	25538.9125
2511.06318	25521.3125
2513.79462	25488.5125
2516.52435	25433.0125
2519.25237	25361.7125
2521.97867	25393.5125
2524.70327	25429.8125
2527.42616	25354.0125
2530.14734	25357.0125
2532.86681	25307.5125
2535.58458	25295.2125
2538.30065	25308.7125
2541.01501	25288.1125
2543.72768	25230.8125
2546.43864	25218.5125
2549.14791	25171.8125
2551.85548	25164.8125
2554.56136	25126.8125
2557.26554	25088.5125
2559.96803	25019.5125
2562.66883	25030.5125
2565.36794	25010.8125
2568.06536	24970.1125
2570.7611	24961.2125
2573.45514	24892.6125
2576.14751	24904.4125
2578.83819	24845.2125
2581.52719	24819.6125
2584.21451	24773.4125
2586.90015	24735.2125
2589.58411	24674.4125
2592.2664	24672.4125
2594.94701	24638.2125
2597.62594	24654.0125
2600.30321	24629.1125
2602.9788	24577.7125
2605.65273	24544.4125
2608.32498	24540.4125
2610.99557	24524.0125
2613.66449	24562.7125
2616.33175	24546.6125
2618.99734	24537.3125
2621.66128	24487.4125
2624.32355	24452.5125
2626.98416	24394.7125
2629.64311	24369.0125
2632.30041	24327.9125
2634.95605	24362.0125
2637.61004	24338.1125
2640.26238	24326.1125
2642.91306	24269.6125
2645.56209	24258.4125
2648.20948	24322.5125
2650.85521	24297.6125
2653.4993	24279.2125
2656.14175	24273.2125
2658.78255	24293.2125
2661.42171	24289.1125
2664.05923	24309.2125
2666.6951	24222.9125
2669.32934	24286.3125
2671.96194	24291.6125
2674.59291	24277.3125
2677.22224	24287.8125
2679.84993	24243.9125
2682.476	24244.1125
2685.10043	24270.9125
2687.72324	24250.3125
2690.34441	24191.0125
2692.96396	24212.2125
2695.58188	24208.5125
2698.19818	24197.3125
2700.81285	24241.2125
2703.4259	24456.4125
2706.03733	25052.1125
2708.64714	24669.8125
2711.25533	24470.4125
2713.86191	24410.0125
2716.46687	24426.0125
2719.07021	24399.8125
2721.67194	24383.8125
2724.27206	24312.4125
2726.87057	24363.7125
2729.46747	24351.7125
2732.06276	24356.9125
2734.65644	24322.5125
2737.24852	24311.3125
2739.83899	24278.3125
2742.42786	24278.4125
2745.01513	24317.9125
2747.60079	24266.3125
2750.18486	24169.2125
2752.76733	24152.6125
2755.3482	24102.7125
2757.92747	24114.0125
2760.50515	24063.0125
2763.08123	24104.6125
2765.65573	24027.1125
2768.22863	24063.4125
2770.79994	23976.1125
2773.36967	23990.2125
2775.9378	23991.5125
2778.50435	24026.4125
2781.06932	23963.9125
2783.6327	23951.1125
2786.1945	23897.4125
2788.75471	23878.1125
2791.31335	23849.8125
2793.87041	23845.9125
2796.42589	23775.3125
2798.97979	23744.0125
2801.53212	23659.2125
2804.08288	23654.7125
2806.63206	23591.5125
2809.17967	23552.4125
2811.72571	23458.1125
2814.27018	23394.2125
2816.81308	23390.3125
2819.35442	23348.7125
2821.89419	23320.9125
2824.43239	23339.8125
2826.96904	23338.8125
2829.50412	23304.1125
2832.03763	23274.8125
2834.56959	23200.9125
2837.1	23170.5125
2839.62884	23177.0125
2842.15613	23099.1125
2844.68186	23123.3125
2847.20604	23133.7125
2849.72867	23062.3125
2852.24974	23042.6125
2854.76927	23145.1125
2857.28724	23288.2125
2859.80367	23112.1125
2862.31855	23015.1125
2864.83189	23015.9125
2867.34368	22946.9125
2869.85393	22925.7125
2872.36264	22866.9125
2874.8698	22861.7125
2877.37543	22827.0125
2879.87952	22851.4125
2882.38207	22809.7125
2884.88308	22780.3125
2887.38256	22781.9125
2889.88051	22744.6125
2892.37692	22751.0125
2894.8718	22812.8125
2897.36515	22827.5125
2899.85698	22785.9125
2902.34727	22788.5125
2904.83604	22819.5125
2907.32328	22885.8125
2909.809	22890.9125
2912.29319	22882.7125
2914.77587	22928.4125
2917.25702	22908.6125
2919.73665	22854.9125
2922.21476	22875.3125
2924.69136	22843.2125
2927.16644	22877.6125
2929.64	22810.2125
2932.11205	22771.2125
2934.58258	22687.0125
2937.05161	22738.0125
2939.51912	22753.6125
2941.98513	22744.9125
2944.44962	22713.1125
2946.91261	22695.0125
2949.37409	22735.7125
2951.83407	22714.3125
2954.29254	22730.5125
2956.74951	22734.5125
2959.20498	22729.6125
2961.65895	22668.4125
2964.11142	22731.6125
2966.56239	22679.6125
2969.01186	22681.7125
2971.45984	22609.5125
2973.90632	22573.0125
2976.35131	22541.7125
2978.7948	22522.4125
2981.23681	22501.2125
2983.67732	22459.2125
2986.11635	22422.7125
2988.55388	22387.6125
2990.98993	22300.8125
2993.4245	22261.8125
2995.85758	22233.5125
2998.28917	22169.9125
3000.71928	22146.0125
3003.14791	22100.9125
3005.57506	22100.1125
3008.00073	22014.9125
3010.42493	22035.3125
3012.84764	21974.9125
3015.26888	21967.6125
3017.68865	21914.7125
3020.10694	21897.3125
3022.52376	21860.8125
3024.9391	21841.5125
3027.35298	21804.4125
3029.76539	21794.5125
3032.17632	21786.0125
3034.5858	21692.8125
3036.9938	21721.9125
3039.40034	21696.7125
3041.80542	21705.1125
3044.20903	21665.0125
3046.61118	21649.9125
3049.01187	21550.5125
3051.4111	21567.9125
3053.80888	21494.2125
3056.20519	21478.7125
3058.60005	21407.6125
3060.99345	21395.8125
3063.3854	21358.8125
3065.7759	21292.8125
3068.16494	21207.7125
3070.55254	21176.0125
3072.93868	21104.2125
3075.32338	21076.3125
3077.70662	21038.2125
3080.08842	21012.0125
3082.46878	20962.1125
3084.84769	20936.8125
3087.22515	20928.7125
3089.60118	20919.3125
3091.97576	20954.0125
3094.3489	20905.5125
3096.72061	20887.9125
3099.09087	20917.6125
3101.4597	20905.8125
3103.82709	20902.4125
3106.19305	20890.4125
3108.55757	20871.4125
3110.92066	20784.5125
3113.28232	20730.8125
3115.64255	20716.5125
3118.00134	20646.9125
3120.35871	20601.1125
3122.71466	20612.1125
3125.06917	20553.7125
3127.42226	20490.1125
3129.77393	20488.4125
3132.12417	20468.4125
3134.47299	20436.9125
3136.82039	20398.6125
3139.16636	20416.9125
3141.51092	20331.1125
3143.85406	20316.2125
3146.19579	20358.5125
3148.53609	20357.7125
3150.87499	20353.0125
3153.21246	20366.6125
3155.54853	20442.0125
3157.88318	20388.7125
3160.21642	20408.5125
3162.54826	20339.5125
3164.87868	20328.6125
3167.2077	20313.2125
3169.5353	20371.0125
3171.86151	20359.0125
3174.18631	20310.9125
3176.5097	20305.5125
3178.83169	20268.1125
3181.15228	20222.6125
3183.47147	20131.4125
3185.78926	20143.4125
3188.10565	20160.2125
3190.42065	20147.7125
3192.73424	20069.8125
3195.04645	20036.2125
3197.35725	20040.8125
3199.66667	20015.5125
3201.97469	20040.2125
3204.28132	20048.6125
3206.58656	20063.2125
3208.8904	20079.2125
3211.19287	20087.4125
3213.49394	20052.8125
3215.79363	20042.9125
3218.09193	20056.1125
3220.38884	20172.3125
3222.68438	20333.1125
3224.97853	20181.1125
3227.2713	20145.1125
3229.56269	20079.9125
3231.8527	20073.4125
3234.14133	20011.0125
3236.42858	19930.2125
3238.71446	19883.6125
3240.99896	19894.2125
3243.28209	19850.2125
3245.56384	19806.4125
3247.84423	19825.7125
3250.12324	19811.4125
3252.40088	19729.6125
3254.67715	19726.4125
3256.95205	19705.4125
3259.22558	19708.4125
3261.49775	19686.4125
3263.76855	19656.3125
3266.03799	19586.0125
3268.30606	19575.0125
3270.57277	19576.1125
3272.83812	19541.3125
3275.10211	19488.6125
3277.36474	19463.0125
3279.62601	19464.9125
3281.88593	19430.0125
3284.14448	19425.5125
3286.40168	19448.1125
3288.65753	19442.7125
3290.91202	19451.8125
3293.16516	19396.8125
3295.41695	19348.7125
3297.66738	19205.4125
3299.91647	19122.6125
3302.16421	19003.0125
3304.4106	18897.2125
3306.65564	18773.2125
3308.89933	18694.4125
3311.14169	18535.4125
3313.38269	18510.8125
3315.62236	18342.0125
3317.86068	18154.2125
3320.09766	18010.5125
3322.3333	17896.2125
3324.5676	17918.2125
3326.80056	17798.3125
3329.03219	17606.4125
3331.26248	4.0125
3333.49143	-0.6875
3335.71905	0.1125
