Data from AgNPs_FTO_APTES_UA_20uM_CRN_0uM_R6G_10uM_NaF_0.1M_Addition_RamanShift__51__11-49-11-995.txt Node

Date: Thu Feb 17 11:49:11 GMT 2022
User: TCL
Spectrometer: QEP01345
Trigger mode: 4
Integration Time (sec): 7.000000E0
Scans to average: 10
Electric dark correction enabled: true
Nonlinearity correction enabled: false
Boxcar width: 0
XAxis mode: Raman Shifts
Number of Pixels in Spectrum: 1044
>>>>>Begin Spectral Data<<<<<
46.04893	-0.1875
50.45542	-1.4875
54.85868	-3.1875
59.25871	-0.1875
63.6555	105.3125
68.04907	106.8125
72.43941	108.5125
76.82654	111.5125
81.21044	116.1125
85.59113	120.5125
89.96862	120.5125
94.34289	126.5125
98.71396	130.5125
103.08183	135.1125
107.4465	137.8125
111.80798	140.5125
116.16626	146.0125
120.52136	152.2125
124.87327	156.3125
129.222	170.2125
133.56755	179.1125
137.90993	188.7125
142.24913	213.9125
146.58517	238.3125
150.91804	281.2125
155.24774	334.7125
159.57429	421.5125
163.89768	550.1125
168.21792	727.4125
172.53501	1004.8125
176.84895	1410.9125
181.15975	1993.9125
185.46741	2801.0125
189.77193	3856.2125
194.07331	5181.7125
198.37157	6678.2125
202.6667	8252.8125
206.9587	9836.9125
211.24758	11398.9125
215.53334	12979.2125
219.81599	14651.0125
224.09553	16552.5125
228.37195	18627.0125
232.64527	20930.1125
236.91549	23286.2125
241.18261	25684.6125
245.44663	27790.2125
249.70755	29725.8125
253.96539	31378.5125
258.22014	32834.9125
262.4718	34052.9125
266.72039	34909.2125
270.96589	35370.5125
275.20832	35382.2125
279.44768	35152.9125
283.68397	34794.8125
287.91719	34465.0125
292.14735	34314.0125
296.37445	34446.6125
300.59849	34720.2125
304.81948	35145.8125
309.03742	35420.4125
313.25231	35272.9125
317.46415	34542.4125
321.67296	33390.5125
325.87872	32507.5125
330.08145	32049.1125
334.28114	32103.8125
338.47781	32468.6125
342.67145	33034.2125
346.86207	33745.3125
351.04966	34693.8125
355.23424	35715.3125
359.4158	36621.3125
363.59435	37168.5125
367.76989	37485.0125
371.94243	37671.3125
376.11196	37856.7125
380.27849	37961.5125
384.44203	38121.3125
388.60257	38136.1125
392.76012	38350.6125
396.91468	38782.1125
401.06626	39379.1125
405.21485	39905.1125
409.36047	39923.5125
413.50311	39276.2125
417.64277	38776.8125
421.77947	38645.2125
425.9132	38784.4125
430.04396	39039.2125
434.17176	39415.9125
438.2966	39833.8125
442.41849	40661.5125
446.53742	41856.2125
450.6534	43265.7125
454.76644	44242.6125
458.87653	44591.7125
462.98368	44183.7125
467.08789	43330.3125
471.18916	42362.0125
475.2875	41480.8125
479.38291	40911.2125
483.4754	40423.4125
487.56496	40029.7125
491.6516	39658.8125
495.73531	39248.3125
499.81612	39141.7125
503.89401	39404.5125
507.96899	39595.4125
512.04106	39523.7125
516.11023	39518.4125
520.1765	39388.6125
524.23987	39271.8125
528.30034	39010.6125
532.35792	38698.4125
536.41261	38171.8125
540.46441	37662.1125
544.51333	37578.2125
548.55936	37895.2125
552.60252	38636.8125
556.64279	39529.8125
560.6802	40117.6125
564.71473	40575.4125
568.7464	41459.0125
572.7752	42464.2125
576.80114	42958.1125
580.82422	43079.6125
584.84444	43493.7125
588.86181	44288.6125
592.87633	45221.9125
596.888	45602.2125
600.89682	45231.7125
604.9028	46697.8125
608.90594	52048.7125
612.90624	58219.2125
616.90371	55377.5125
620.89834	45660.8125
624.89015	41329.8125
628.87913	40678.3125
632.86528	40493.5125
636.84862	40059.9125
640.82913	39269.1125
644.80683	38255.3125
648.78172	37495.9125
652.75379	37472.3125
656.72306	38231.1125
660.68952	39174.5125
664.65319	39111.1125
668.61405	38409.3125
672.57211	38109.0125
676.52738	38113.2125
680.47986	38075.8125
684.42955	37962.0125
688.37646	37975.3125
692.32058	38213.6125
696.26192	38649.7125
700.20048	39142.8125
704.13626	39357.2125
708.06928	39169.9125
711.99952	38815.6125
715.927	38753.0125
719.85171	38891.2125
723.77365	38832.5125
727.69284	38485.0125
731.60928	38117.1125
735.52295	38101.2125
739.43388	38228.9125
743.34206	38397.2125
747.24749	38681.6125
751.15017	39021.6125
755.05012	39653.4125
758.94733	40851.4125
762.8418	42988.9125
766.73354	46508.5125
770.62254	49932.5125
774.50882	50907.9125
778.39237	48893.2125
782.27321	45168.6125
786.15132	41911.6125
790.02671	39983.4125
793.89938	39100.3125
797.76935	38773.5125
801.6366	38672.1125
805.50115	38551.1125
809.36299	38382.3125
813.22213	38104.9125
817.07857	38005.7125
820.93231	37962.9125
824.78336	37888.3125
828.63172	38013.1125
832.47738	38088.0125
836.32036	38244.9125
840.16066	38467.3125
843.99827	38649.9125
847.8332	38557.0125
851.66546	38349.7125
855.49504	38263.0125
859.32195	38254.2125
863.1462	38085.5125
866.96777	37938.8125
870.78668	37792.4125
874.60293	37824.0125
878.41652	37922.2125
882.22745	38078.0125
886.03573	38232.6125
889.84136	38182.7125
893.64433	37953.5125
897.44466	37819.5125
901.24235	37707.1125
905.0374	37586.2125
908.8298	37503.3125
912.61957	37562.2125
916.40671	37864.4125
920.19121	38378.8125
923.97308	39006.0125
927.75233	39372.6125
931.52895	39326.5125
935.30295	38867.6125
939.07433	38113.8125
942.84309	37696.9125
946.60924	37558.6125
950.37278	37376.8125
954.13371	37180.2125
957.89203	36858.0125
961.64774	36694.8125
965.40086	36626.2125
969.15137	36530.5125
972.89929	36407.3125
976.64461	36381.1125
980.38733	36452.7125
984.12747	36643.0125
987.86502	37124.4125
991.59999	37704.7125
995.33237	38698.8125
999.06217	40299.0125
1002.78939	42054.6125
1006.51404	43138.5125
1010.23611	43609.2125
1013.95561	43863.2125
1017.67255	43808.5125
1021.38692	43304.5125
1025.09872	42932.5125
1028.80796	43741.8125
1032.51465	45471.7125
1036.21877	47142.2125
1039.92035	47321.1125
1043.61937	46327.7125
1047.31584	44623.5125
1051.00976	42695.3125
1054.70114	41561.8125
1058.38998	41156.0125
1062.07627	41098.4125
1065.76003	41168.6125
1069.44126	41331.7125
1073.11995	41702.1125
1076.79611	42151.5125
1080.46974	42577.6125
1084.14085	43133.6125
1087.80943	43767.0125
1091.47549	43998.5125
1095.13903	43568.6125
1098.80005	42756.9125
1102.45857	42072.7125
1106.11456	41674.9125
1109.76805	41765.4125
1113.41903	42183.6125
1117.06751	42723.5125
1120.71348	43242.4125
1124.35696	43813.0125
1127.99793	44276.0125
1131.63641	44285.9125
1135.2724	43675.9125
1138.90589	43014.5125
1142.5369	42659.2125
1146.16542	42497.6125
1149.79145	42498.2125
1153.415	42666.8125
1157.03607	43177.4125
1160.65467	44052.7125
1164.27079	45489.9125
1167.88443	47698.9125
1171.49561	50646.0125
1175.10432	54812.4125
1178.71056	60175.5125
1182.31434	65043.5125
1185.91565	67444.5125
1189.51451	66948.5125
1193.11091	64318.5125
1196.70485	60941.8125
1200.29634	58071.8125
1203.88538	56021.9125
1207.47197	54240.8125
1211.05612	52791.2125
1214.63782	51986.0125
1218.21708	52077.6125
1221.79391	52506.2125
1225.36829	52563.2125
1228.94024	51778.4125
1232.50976	50365.4125
1236.07685	49353.3125
1239.6415	48975.0125
1243.20374	48963.2125
1246.76355	49337.7125
1250.32093	50147.8125
1253.8759	51326.0125
1257.42845	52919.4125
1260.97859	54402.9125
1264.52631	55664.6125
1268.07163	57238.5125
1271.61453	58969.9125
1275.15503	60900.6125
1278.69312	62805.0125
1282.22882	64221.7125
1285.76211	65463.8125
1289.29301	66743.6125
1292.82151	68443.9125
1296.34761	70883.0125
1299.87133	74506.8125
1303.39266	79450.2125
1306.9116	85710.6125
1310.42815	92231.6125
1313.94233	96128.3125
1317.45412	95796.4125
1320.96354	92544.2125
1324.47058	88628.6125
1327.97525	85171.3125
1331.47754	83079.8125
1334.97747	82394.0125
1338.47502	82835.2125
1341.97022	83453.2125
1345.46305	83104.6125
1348.95352	82337.8125
1352.44163	82264.0125
1355.92738	84454.0125
1359.41078	89691.2125
1362.89183	94610.5125
1366.37053	92443.8125
1369.84688	83384.3125
1373.32088	73599.2125
1376.79254	67133.2125
1380.26186	64100.4125
1383.72883	62923.1125
1387.19347	62227.5125
1390.65578	61535.8125
1394.11575	61549.7125
1397.57339	62384.9125
1401.0287	63849.1125
1404.48168	65434.5125
1407.93234	66677.1125
1411.38068	67160.3125
1414.82669	66513.1125
1418.27039	64656.5125
1421.71177	62255.5125
1425.15083	60043.4125
1428.58758	58927.1125
1432.02203	59052.0125
1435.45416	59854.1125
1438.88399	60896.9125
1442.31151	61760.4125
1445.73673	62461.4125
1449.15965	63054.1125
1452.58027	63350.0125
1455.9986	63086.8125
1459.41463	63215.7125
1462.82837	63949.7125
1466.23982	65342.7125
1469.64898	66745.3125
1473.05586	67674.9125
1476.46045	68088.3125
1479.86276	68244.3125
1483.26279	68152.6125
1486.66054	68344.5125
1490.05602	68952.8125
1493.44922	69850.6125
1496.84016	70307.3125
1500.22882	71252.6125
1503.61521	73211.5125
1506.99934	76086.7125
1510.38121	78857.9125
1513.76081	79822.2125
1517.13816	77547.2125
1520.51324	73324.3125
1523.88607	69372.3125
1527.25665	66916.9125
1530.62498	65662.2125
1533.99105	65072.0125
1537.35488	64717.1125
1540.71647	64262.8125
1544.07581	63772.3125
1547.4329	63071.8125
1550.78776	62112.2125
1554.14038	61377.7125
1557.49077	60911.2125
1560.83892	60751.4125
1564.18484	60663.9125
1567.52853	60640.3125
1570.86999	60687.7125
1574.20922	60993.3125
1577.54624	61221.6125
1580.88103	60801.2125
1584.2136	60548.6125
1587.54395	62045.2125
1590.87208	65587.4125
1594.19801	71003.7125
1597.52172	76807.6125
1600.84321	79425.6125
1604.16251	76780.5125
1607.47959	70843.7125
1610.79447	64069.7125
1614.10715	58102.8125
1617.41763	53559.2125
1620.7259	50647.1125
1624.03199	49260.9125
1627.33587	49407.3125
1630.63757	50880.0125
1633.93707	53830.1125
1637.23439	58189.3125
1640.52951	64001.8125
1643.82246	70563.1125
1647.11321	75898.6125
1650.40179	76902.0125
1653.68819	71967.7125
1656.97241	63058.8125
1660.25446	54339.0125
1663.53433	48232.3125
1666.81203	44382.8125
1670.08756	42033.1125
1673.36092	40610.4125
1676.63211	39565.8125
1679.90115	38914.9125
1683.16801	38350.7125
1686.43272	37982.2125
1689.69527	37723.4125
1692.95567	37458.5125
1696.2139	37396.3125
1699.46999	37344.6125
1702.72392	37264.7125
1705.97571	37205.0125
1709.22535	37094.1125
1712.47284	37075.1125
1715.71819	37126.2125
1718.96139	37084.6125
1722.20246	36988.7125
1725.44139	36833.0125
1728.67818	36620.1125
1731.91284	36405.4125
1735.14537	36285.2125
1738.37576	36113.8125
1741.60403	36028.6125
1744.83017	35916.0125
1748.05418	35810.3125
1751.27607	35779.5125
1754.49584	35707.0125
1757.71349	35723.3125
1760.92903	35743.7125
1764.14244	35645.2125
1767.35375	35645.1125
1770.56294	35557.1125
1773.77002	35585.9125
1776.97499	35598.9125
1780.17785	35563.9125
1783.37861	35488.4125
1786.57727	35419.4125
1789.77382	35367.6125
1792.96828	35408.1125
1796.16064	35367.1125
1799.3509	35320.1125
1802.53907	35284.4125
1805.72514	35220.9125
1808.90913	35120.4125
1812.09102	35086.1125
1815.27083	34994.9125
1818.44856	35046.4125
1821.6242	34956.9125
1824.79776	34910.8125
1827.96924	34885.6125
1831.13864	34882.2125
1834.30597	34841.3125
1837.47122	34828.3125
1840.6344	34805.1125
1843.7955	34776.2125
1846.95454	34848.0125
1850.11151	34844.4125
1853.26642	34827.5125
1856.41926	34916.0125
1859.57004	34855.3125
1862.71876	34840.7125
1865.86542	34863.6125
1869.01003	34835.3125
1872.15258	34742.1125
1875.29308	34823.4125
1878.43152	34795.9125
1881.56792	34835.8125
1884.70227	34849.4125
1887.83457	34811.6125
1890.96482	34830.6125
1894.09304	34783.2125
1897.21921	34748.1125
1900.34335	34738.2125
1903.46544	34729.5125
1906.58551	34727.4125
1909.70353	34761.3125
1912.81953	34726.3125
1915.93349	34669.2125
1919.04543	34630.4125
1922.15534	34565.5125
1925.26322	34475.6125
1928.36908	34447.4125
1931.47292	34317.5125
1934.57473	34273.7125
1937.67453	34168.1125
1940.77232	34162.9125
1943.86808	34031.7125
1946.96184	33920.2125
1950.05358	33802.8125
1953.14331	33692.1125
1956.23103	33619.5125
1959.31675	33535.6125
1962.40046	33420.2125
1965.48217	33378.5125
1968.56188	33267.1125
1971.63959	33231.4125
1974.7153	33153.2125
1977.78901	33020.4125
1980.86073	32920.6125
1983.93046	32835.7125
1986.99819	32694.2125
1990.06394	32698.4125
1993.1277	32596.9125
1996.18947	32498.7125
1999.24925	32416.1125
2002.30706	32368.1125
2005.36288	32209.1125
2008.41672	32141.4125
2011.46859	32046.6125
2014.51848	31994.6125
2017.56639	31944.8125
2020.61233	31819.6125
2023.6563	31771.5125
2026.6983	31728.0125
2029.73833	31715.5125
2032.7764	31647.0125
2035.8125	31580.2125
2038.84664	31572.3125
2041.87881	31532.6125
2044.90903	31479.0125
2047.93729	31442.4125
2050.96359	31418.2125
2053.98794	31402.2125
2057.01034	31415.6125
2060.03078	31420.3125
2063.04927	31411.2125
2066.06582	31388.8125
2069.08042	31356.3125
2072.09307	31298.1125
2075.10378	31239.1125
2078.11255	31179.6125
2081.11938	31147.4125
2084.12426	31112.4125
2087.12722	31106.6125
2090.12824	31129.4125
2093.12732	31138.6125
2096.12447	31095.8125
2099.11969	31036.0125
2102.11299	31130.9125
2105.10435	31144.7125
2108.09379	31178.4125
2111.08131	31212.0125
2114.0669	31172.3125
2117.05057	31159.5125
2120.03233	31155.4125
2123.01216	31189.7125
2125.99008	31264.9125
2128.96609	31300.9125
2131.94018	31354.8125
2134.91236	31382.7125
2137.88263	31459.5125
2140.851	31489.1125
2143.81746	31482.9125
2146.78201	31464.5125
2149.74466	31525.5125
2152.7054	31535.0125
2155.66425	31534.7125
2158.6212	31572.4125
2161.57625	31506.3125
2164.52941	31535.6125
2167.48067	31483.1125
2170.43004	31497.2125
2173.37752	31528.6125
2176.32311	31536.8125
2179.26681	31520.2125
2182.20863	31563.0125
2185.14856	31608.1125
2188.08661	31621.8125
2191.02278	31638.0125
2193.95707	31587.7125
2196.88948	31561.7125
2199.82001	31574.1125
2202.74867	31616.9125
2205.67545	31601.4125
2208.60037	31606.5125
2211.52341	31617.8125
2214.44458	31579.4125
2217.36388	31564.5125
2220.28132	31543.3125
2223.1969	31500.6125
2226.11061	31421.2125
2229.02246	31344.5125
2231.93245	31317.2125
2234.84058	31236.5125
2237.74686	31187.0125
2240.65128	31195.1125
2243.55385	31104.2125
2246.45456	31116.0125
2249.35343	30999.2125
2252.25044	31006.0125
2255.14561	30981.3125
2258.03893	30944.3125
2260.93041	30897.6125
2263.82004	30840.4125
2266.70783	30765.5125
2269.59378	30667.8125
2272.4779	30611.2125
2275.36017	30593.0125
2278.24061	30517.2125
2281.11922	30444.9125
2283.996	30433.3125
2286.87094	30387.6125
2289.74405	30401.5125
2292.61534	30390.6125
2295.4848	30415.0125
2298.35243	30470.3125
2301.21824	30418.3125
2304.08223	30461.4125
2306.94439	30528.0125
2309.80474	30557.8125
2312.66327	30577.3125
2315.51999	30537.7125
2318.37489	30568.2125
2321.22797	30537.7125
2324.07925	30572.9125
2326.92871	30510.0125
2329.77637	30461.1125
2332.62222	30493.4125
2335.46626	30484.5125
2338.3085	30515.4125
2341.14893	30552.1125
2343.98756	30570.4125
2346.8244	30548.4125
2349.65943	30616.9125
2352.49267	30637.0125
2355.32411	30640.0125
2358.15376	30544.2125
2360.98161	30587.3125
2363.80768	30493.3125
2366.63195	30448.9125
2369.45444	30401.7125
2372.27514	30364.3125
2375.09405	30295.3125
2377.91118	30199.4125
2380.72652	30088.8125
2383.54009	30001.2125
2386.35187	29997.3125
2389.16188	29877.5125
2391.97011	29881.7125
2394.77657	29851.7125
2397.58125	29844.6125
2400.38416	29791.9125
2403.18529	29737.5125
2405.98466	29676.2125
2408.78226	29595.8125
2411.57809	29551.5125
2414.37216	29490.3125
2417.16446	29458.8125
2419.955	29424.2125
2422.74378	29391.7125
2425.5308	29307.0125
2428.31606	29350.6125
2431.09956	29407.6125
2433.88131	29407.1125
2436.6613	29471.1125
2439.43954	29405.5125
2442.21603	29389.7125
2444.99077	29333.5125
2447.76377	29364.2125
2450.53501	29316.6125
2453.30451	29391.0125
2456.07226	29326.0125
2458.83827	29334.0125
2461.60254	29269.3125
2464.36507	29309.4125
2467.12586	29293.1125
2469.88492	29323.8125
2472.64224	29304.9125
2475.39782	29336.2125
2478.15167	29374.4125
2480.90379	29427.4125
2483.65417	29454.4125
2486.40283	29511.7125
2489.14976	29559.7125
2491.89497	29527.3125
2494.63845	29575.9125
2497.3802	29535.8125
2500.12024	29545.1125
2502.85855	29513.2125
2505.59514	29526.4125
2508.33002	29433.3125
2511.06318	29470.6125
2513.79462	29361.9125
2516.52435	29372.0125
2519.25237	29362.1125
2521.97867	29297.7125
2524.70327	29288.8125
2527.42616	29257.6125
2530.14734	29231.8125
2532.86681	29243.3125
2535.58458	29273.2125
2538.30065	29258.2125
2541.01501	29285.5125
2543.72768	29285.2125
2546.43864	29243.1125
2549.14791	29190.7125
2551.85548	29191.8125
2554.56136	29129.6125
2557.26554	29109.3125
2559.96803	29082.2125
2562.66883	29052.0125
2565.36794	29044.9125
2568.06536	29045.8125
2570.7611	28999.0125
2573.45514	29004.1125
2576.14751	29005.1125
2578.83819	28934.4125
2581.52719	29012.7125
2584.21451	28952.9125
2586.90015	29000.3125
2589.58411	28956.8125
2592.2664	28971.2125
2594.94701	28998.5125
2597.62594	29017.1125
2600.30321	28974.6125
2602.9788	29021.9125
2605.65273	28972.0125
2608.32498	28979.7125
2610.99557	29012.1125
2613.66449	29001.0125
2616.33175	28994.9125
2618.99734	29014.0125
2621.66128	29009.1125
2624.32355	29012.9125
2626.98416	29031.3125
2629.64311	29021.5125
2632.30041	29051.6125
2634.95605	29032.1125
2637.61004	29018.9125
2640.26238	28967.1125
2642.91306	28892.1125
2645.56209	28852.8125
2648.20948	28826.3125
2650.85521	28784.4125
2653.4993	28817.3125
2656.14175	28800.5125
2658.78255	28860.2125
2661.42171	28883.8125
2664.05923	28911.0125
2666.6951	28980.9125
2669.32934	28954.3125
2671.96194	28973.6125
2674.59291	28968.7125
2677.22224	28987.6125
2679.84993	29025.9125
2682.476	28953.0125
2685.10043	28922.4125
2687.72324	28883.2125
2690.34441	28865.1125
2692.96396	28838.5125
2695.58188	28863.7125
2698.19818	28812.2125
2700.81285	28819.3125
2703.4259	28803.2125
2706.03733	28816.6125
2708.64714	28801.2125
2711.25533	28777.7125
2713.86191	28809.9125
2716.46687	28891.0125
2719.07021	28858.7125
2721.67194	28920.7125
2724.27206	28915.1125
2726.87057	28934.6125
2729.46747	28942.3125
2732.06276	28948.8125
2734.65644	28920.1125
2737.24852	28958.0125
2739.83899	28899.3125
2742.42786	28977.0125
2745.01513	28888.0125
2747.60079	28901.5125
2750.18486	28868.8125
2752.76733	28902.3125
2755.3482	28887.7125
2757.92747	28827.5125
2760.50515	28860.2125
2763.08123	28861.9125
2765.65573	28835.4125
2768.22863	28845.5125
2770.79994	28809.3125
2773.36967	28811.5125
2775.9378	28821.7125
2778.50435	28840.3125
2781.06932	28823.8125
2783.6327	28864.0125
2786.1945	28825.2125
2788.75471	28764.5125
2791.31335	28732.6125
2793.87041	28711.4125
2796.42589	28608.6125
2798.97979	28615.1125
2801.53212	28543.6125
2804.08288	28523.6125
2806.63206	28465.9125
2809.17967	28472.0125
2811.72571	28386.5125
2814.27018	28299.6125
2816.81308	28241.3125
2819.35442	28276.2125
2821.89419	28258.9125
2824.43239	28281.8125
2826.96904	28236.2125
2829.50412	28263.3125
2832.03763	28185.7125
2834.56959	28216.3125
2837.1	28133.3125
2839.62884	28120.3125
2842.15613	28122.2125
2844.68186	28111.8125
2847.20604	28145.7125
2849.72867	28121.2125
2852.24974	28072.7125
2854.76927	28062.3125
2857.28724	28016.3125
2859.80367	28018.8125
2862.31855	27987.4125
2864.83189	27974.1125
2867.34368	27927.5125
2869.85393	27945.2125
2872.36264	27930.1125
2874.8698	27861.0125
2877.37543	27878.4125
2879.87952	27872.6125
2882.38207	27916.1125
2884.88308	27921.9125
2887.38256	27946.2125
2889.88051	27965.7125
2892.37692	27956.4125
2894.8718	27975.1125
2897.36515	28042.1125
2899.85698	28029.5125
2902.34727	28062.4125
2904.83604	28115.0125
2907.32328	28137.5125
2909.809	28125.9125
2912.29319	28161.3125
2914.77587	28134.1125
2917.25702	28155.4125
2919.73665	28122.6125
2922.21476	28117.2125
2924.69136	28066.7125
2927.16644	28048.3125
2929.64	28011.1125
2932.11205	27953.9125
2934.58258	27919.9125
2937.05161	27932.6125
2939.51912	27909.3125
2941.98513	27925.8125
2944.44962	27875.1125
2946.91261	27780.2125
2949.37409	27835.1125
2951.83407	27814.8125
2954.29254	27793.1125
2956.74951	27816.4125
2959.20498	27822.4125
2961.65895	27781.8125
2964.11142	27765.0125
2966.56239	27754.3125
2969.01186	27718.7125
2971.45984	27624.9125
2973.90632	27555.0125
2976.35131	27507.5125
2978.7948	27475.5125
2981.23681	27430.1125
2983.67732	27341.6125
2986.11635	27292.0125
2988.55388	27242.2125
2990.98993	27217.7125
2993.4245	27135.9125
2995.85758	27065.3125
2998.28917	27005.2125
3000.71928	26957.3125
3003.14791	26886.7125
3005.57506	26905.5125
3008.00073	26792.2125
3010.42493	26824.0125
3012.84764	26790.9125
3015.26888	26768.8125
3017.68865	26688.0125
3020.10694	26675.5125
3022.52376	26594.7125
3024.9391	26568.1125
3027.35298	26527.0125
3029.76539	26508.1125
3032.17632	26473.6125
3034.5858	26412.2125
3036.9938	26423.1125
3039.40034	26407.4125
3041.80542	26451.4125
3044.20903	26364.6125
3046.61118	26408.1125
3049.01187	26275.0125
3051.4111	26266.6125
3053.80888	26210.7125
3056.20519	26155.1125
3058.60005	26083.7125
3060.99345	26036.8125
3063.3854	25966.3125
3065.7759	25901.9125
3068.16494	25795.5125
3070.55254	25726.8125
3072.93868	25666.8125
3075.32338	25576.0125
3077.70662	25581.4125
3080.08842	25471.2125
3082.46878	25426.3125
3084.84769	25367.8125
3087.22515	25347.3125
3089.60118	25349.8125
3091.97576	25364.8125
3094.3489	25393.3125
3096.72061	25366.2125
3099.09087	25377.4125
3101.4597	25372.6125
3103.82709	25393.7125
3106.19305	25367.6125
3108.55757	25347.2125
3110.92066	25219.1125
3113.28232	25187.2125
3115.64255	25171.0125
3118.00134	25090.8125
3120.35871	25025.8125
3122.71466	24977.8125
3125.06917	24919.5125
3127.42226	24934.5125
3129.77393	24932.1125
3132.12417	24844.9125
3134.47299	24860.1125
3136.82039	24834.9125
3139.16636	24818.3125
3141.51092	24790.9125
3143.85406	24797.8125
3146.19579	24777.2125
3148.53609	24759.3125
3150.87499	24811.1125
3153.21246	24777.2125
3155.54853	24822.5125
3157.88318	24760.9125
3160.21642	24821.2125
3162.54826	24796.3125
3164.87868	24743.8125
3167.2077	24688.2125
3169.5353	24743.0125
3171.86151	24724.3125
3174.18631	24733.7125
3176.5097	24734.8125
3178.83169	24705.7125
3181.15228	24684.4125
3183.47147	24575.5125
3185.78926	24582.3125
3188.10565	24523.2125
3190.42065	24508.3125
3192.73424	24562.6125
3195.04645	24479.7125
3197.35725	24489.1125
3199.66667	24442.4125
3201.97469	24521.9125
3204.28132	24481.6125
3206.58656	24455.8125
3208.8904	24493.7125
3211.19287	24525.1125
3213.49394	24462.5125
3215.79363	24505.9125
3218.09193	24531.0125
3220.38884	24594.3125
3222.68438	24589.6125
3224.97853	24513.3125
3227.2713	24470.6125
3229.56269	24457.1125
3231.8527	24466.0125
3234.14133	24405.7125
3236.42858	24404.1125
3238.71446	24352.0125
3240.99896	24340.4125
3243.28209	24337.2125
3245.56384	24282.8125
3247.84423	24220.2125
3250.12324	24226.2125
3252.40088	24216.4125
3254.67715	24240.3125
3256.95205	24201.0125
3259.22558	24179.8125
3261.49775	24177.8125
3263.76855	24159.4125
3266.03799	24051.4125
3268.30606	24024.3125
3270.57277	24037.8125
3272.83812	23997.4125
3275.10211	23974.8125
3277.36474	23910.0125
3279.62601	23901.3125
3281.88593	23867.2125
3284.14448	23878.9125
3286.40168	23878.6125
3288.65753	23833.3125
3290.91202	23865.9125
3293.16516	23815.2125
3295.41695	23774.4125
3297.66738	23674.7125
3299.91647	23552.3125
3302.16421	23378.6125
3304.4106	23307.6125
3306.65564	23182.4125
3308.89933	23050.9125
3311.14169	22868.9125
3313.38269	22746.5125
3315.62236	22583.5125
3317.86068	22392.0125
3320.09766	22189.5125
3322.3333	22051.7125
3324.5676	21967.5125
3326.80056	21654.0125
3329.03219	21510.2125
3331.26248	5.1125
3333.49143	0.7125
3335.71905	-0.2875
