Data from AgNPs_FTO_APTES_UA_20uM_CRN_5uM_R6G_10uM_NaF_0.1M_Addition_RamanShift__26__14-02-12-168.txt Node

Date: Thu Feb 17 14:02:12 GMT 2022
User: TCL
Spectrometer: QEP01345
Trigger mode: 4
Integration Time (sec): 7.000000E0
Scans to average: 10
Electric dark correction enabled: true
Nonlinearity correction enabled: false
Boxcar width: 0
XAxis mode: Raman Shifts
Number of Pixels in Spectrum: 1044
>>>>>Begin Spectral Data<<<<<
46.04893	-0.2625
50.45542	-2.5625
54.85868	-3.3625
59.25871	-0.6625
63.6555	115.1375
68.04907	120.0375
72.43941	128.2375
76.82654	128.2375
81.21044	133.5375
85.59113	133.8375
89.96862	139.6375
94.34289	143.3375
98.71396	150.3375
103.08183	148.4375
107.4465	157.3375
111.80798	160.8375
116.16626	162.9375
120.52136	177.0375
124.87327	177.6375
129.222	191.4375
133.56755	204.9375
137.90993	218.8375
142.24913	242.7375
146.58517	281.0375
150.91804	326.9375
155.24774	387.1375
159.57429	486.4375
163.89768	630.8375
168.21792	838.8375
172.53501	1164.0375
176.84895	1636.1375
181.15975	2299.0375
185.46741	3219.5375
189.77193	4459.2375
194.07331	6008.7375
198.37157	7747.0375
202.6667	9600.9375
206.9587	11448.0375
211.24758	13255.6375
215.53334	15074.9375
219.81599	17006.9375
224.09553	19208.1375
228.37195	21580.5375
232.64527	24221.9375
236.91549	27035.2375
241.18261	29826.6375
245.44663	32458.6375
249.70755	34789.3375
253.96539	36916.6375
258.22014	38688.6375
262.4718	40168.2375
266.72039	41259.4375
270.96589	41931.7375
275.20832	42134.6375
279.44768	41976.6375
283.68397	41633.3375
287.91719	41343.8375
292.14735	41247.6375
296.37445	41344.3375
300.59849	41619.8375
304.81948	41995.6375
309.03742	42069.1375
313.25231	41630.0375
317.46415	40668.7375
321.67296	39395.8375
325.87872	38453.1375
330.08145	38012.8375
334.28114	38052.3375
338.47781	38460.4375
342.67145	39118.2375
346.86207	39951.6375
351.04966	41085.8375
355.23424	42250.4375
359.4158	43207.2375
363.59435	43872.3375
367.76989	44307.3375
371.94243	44580.4375
376.11196	44805.5375
380.27849	45002.3375
384.44203	45163.7375
388.60257	45240.2375
392.76012	45458.8375
396.91468	45907.9375
401.06626	46636.9375
405.21485	47268.7375
409.36047	47158.1375
413.50311	46392.6375
417.64277	45669.0375
421.77947	45383.9375
425.9132	45472.2375
430.04396	45838.3375
434.17176	46252.2375
438.2966	46817.2375
442.41849	47672.6375
446.53742	48803.1375
450.6534	50157.0375
454.76644	51185.1375
458.87653	51696.7375
462.98368	51519.6375
467.08789	50948.8375
471.18916	50118.2375
475.2875	49350.8375
479.38291	48813.7375
483.4754	48338.1375
487.56496	47756.9375
491.6516	47141.3375
495.73531	46595.7375
499.81612	46334.6375
503.89401	46600.4375
507.96899	46666.1375
512.04106	46694.3375
516.11023	46727.7375
520.1765	46837.2375
524.23987	46657.8375
528.30034	46436.2375
532.35792	46000.8375
536.41261	45581.0375
540.46441	45219.2375
544.51333	45262.5375
548.55936	45674.2375
552.60252	46544.3375
556.64279	47453.9375
560.6802	48008.8375
564.71473	48357.2375
568.7464	49099.9375
572.7752	49895.1375
576.80114	50073.7375
580.82422	50013.4375
584.84444	50256.5375
588.86181	50747.8375
592.87633	51442.1375
596.888	51909.4375
600.89682	52312.6375
604.9028	54705.1375
608.90594	60945.4375
612.90624	67761.3375
616.90371	64478.1375
620.89834	53793.3375
624.89015	49179.4375
628.87913	48497.5375
632.86528	48336.2375
636.84862	48042.9375
640.82913	47359.3375
644.80683	46195.4375
648.78172	45392.6375
652.75379	45404.4375
656.72306	46208.7375
660.68952	47313.1375
664.65319	47196.1375
668.61405	46328.5375
672.57211	45943.0375
676.52738	45897.8375
680.47986	45957.9375
684.42955	45865.3375
688.37646	45886.9375
692.32058	46151.1375
696.26192	46603.3375
700.20048	47008.1375
704.13626	47345.1375
708.06928	47275.0375
711.99952	46919.5375
715.927	46836.4375
719.85171	46922.8375
723.77365	46773.5375
727.69284	46521.5375
731.60928	46184.1375
735.52295	46161.8375
739.43388	46373.5375
743.34206	46574.1375
747.24749	46917.1375
751.15017	47298.2375
755.05012	48043.3375
758.94733	49305.2375
762.8418	51868.5375
766.73354	55869.8375
770.62254	59852.3375
774.50882	61066.3375
778.39237	58530.3375
782.27321	53899.6375
786.15132	50144.2375
790.02671	48005.0375
793.89938	47005.4375
797.76935	46638.8375
801.6366	46520.8375
805.50115	46331.0375
809.36299	46226.9375
813.22213	46069.1375
817.07857	45964.7375
820.93231	46075.3375
824.78336	46110.3375
828.63172	46145.0375
832.47738	46252.4375
836.32036	46361.7375
840.16066	46476.8375
843.99827	46630.9375
847.8332	46561.7375
851.66546	46378.9375
855.49504	46293.9375
859.32195	46171.0375
863.1462	46124.3375
866.96777	45994.1375
870.78668	45963.1375
874.60293	45960.4375
878.41652	46047.0375
882.22745	46183.3375
886.03573	46239.5375
889.84136	46188.1375
893.64433	45977.9375
897.44466	45850.8375
901.24235	45813.9375
905.0374	45835.4375
908.8298	45774.1375
912.61957	45889.6375
916.40671	46227.9375
920.19121	46766.9375
923.97308	47245.1375
927.75233	47516.3375
931.52895	47304.4375
935.30295	46876.6375
939.07433	46242.7375
942.84309	45701.7375
946.60924	45468.4375
950.37278	45251.1375
954.13371	45122.3375
957.89203	44897.5375
961.64774	44771.6375
965.40086	44618.1375
969.15137	44498.8375
972.89929	44352.5375
976.64461	44290.9375
980.38733	44343.2375
984.12747	44445.6375
987.86502	44852.8375
991.59999	45377.9375
995.33237	46202.4375
999.06217	47651.1375
1002.78939	49346.9375
1006.51404	50533.2375
1010.23611	51107.8375
1013.95561	51536.2375
1017.67255	51547.4375
1021.38692	51221.6375
1025.09872	50966.5375
1028.80796	51590.0375
1032.51465	53100.0375
1036.21877	54344.2375
1039.92035	54372.5375
1043.61937	53639.9375
1047.31584	52172.6375
1051.00976	50592.2375
1054.70114	49722.0375
1058.38998	49429.8375
1062.07627	49516.4375
1065.76003	49637.6375
1069.44126	49836.8375
1073.11995	50131.8375
1076.79611	50433.1375
1080.46974	50796.1375
1084.14085	51264.7375
1087.80943	51771.5375
1091.47549	51953.5375
1095.13903	51573.8375
1098.80005	50797.6375
1102.45857	50119.0375
1106.11456	49762.3375
1109.76805	49829.8375
1113.41903	50339.3375
1117.06751	50945.9375
1120.71348	51680.8375
1124.35696	52272.6375
1127.99793	52768.8375
1131.63641	52724.8375
1135.2724	52083.0375
1138.90589	51441.3375
1142.5369	51005.0375
1146.16542	50763.4375
1149.79145	50833.8375
1153.415	51201.5375
1157.03607	51789.5375
1160.65467	52615.9375
1164.27079	54020.7375
1167.88443	56092.4375
1171.49561	59026.0375
1175.10432	63229.4375
1178.71056	68695.7375
1182.31434	73728.5375
1185.91565	76183.1375
1189.51451	75677.3375
1193.11091	72993.6375
1196.70485	69509.2375
1200.29634	66608.7375
1203.88538	64406.8375
1207.47197	62520.7375
1211.05612	60969.2375
1214.63782	60093.1375
1218.21708	60017.3375
1221.79391	60204.2375
1225.36829	60268.2375
1228.94024	59732.1375
1232.50976	58842.5375
1236.07685	58208.1375
1239.6415	58026.9375
1243.20374	58283.3375
1246.76355	58785.1375
1250.32093	59581.9375
1253.8759	60932.9375
1257.42845	62523.1375
1260.97859	63784.6375
1264.52631	64777.7375
1268.07163	65994.0375
1271.61453	67386.5375
1275.15503	68923.2375
1278.69312	70562.9375
1282.22882	71978.5375
1285.76211	73291.9375
1289.29301	74702.2375
1292.82151	76360.6375
1296.34761	78668.3375
1299.87133	82061.2375
1303.39266	86686.6375
1306.9116	92617.3375
1310.42815	98724.3375
1313.94233	102278.0375
1317.45412	102042.8375
1320.96354	99149.2375
1324.47058	95821.2375
1327.97525	92702.4375
1331.47754	90792.5375
1334.97747	90564.5375
1338.47502	91678.0375
1341.97022	93060.9375
1345.46305	93623.9375
1348.95352	93315.8375
1352.44163	93158.3375
1355.92738	95076.0375
1359.41078	100187.5375
1362.89183	104981.3375
1366.37053	102656.7375
1369.84688	93172.0375
1373.32088	83205.2375
1376.79254	76665.4375
1380.26186	73458.8375
1383.72883	72173.5375
1387.19347	71503.2375
1390.65578	70986.4375
1394.11575	70887.0375
1397.57339	71667.9375
1401.0287	73014.0375
1404.48168	74679.6375
1407.93234	76065.8375
1411.38068	77109.7375
1414.82669	76825.0375
1418.27039	74859.3375
1421.71177	72065.7375
1425.15083	69658.0375
1428.58758	68180.9375
1432.02203	68077.3375
1435.45416	68689.6375
1438.88399	69460.7375
1442.31151	70262.6375
1445.73673	71080.8375
1449.15965	71757.4375
1452.58027	72179.9375
1455.9986	72143.5375
1459.41463	72241.5375
1462.82837	72859.8375
1466.23982	74137.4375
1469.64898	75482.5375
1473.05586	76490.0375
1476.46045	77030.9375
1479.86276	77426.1375
1483.26279	77823.0375
1486.66054	78266.6375
1490.05602	79276.8375
1493.44922	80421.8375
1496.84016	81294.4375
1500.22882	82886.0375
1503.61521	85470.7375
1506.99934	89175.0375
1510.38121	92373.5375
1513.76081	93151.3375
1517.13816	90451.9375
1520.51324	85728.2375
1523.88607	81453.8375
1527.25665	78686.8375
1530.62498	77123.9375
1533.99105	76366.0375
1537.35488	75850.0375
1540.71647	75456.7375
1544.07581	74894.0375
1547.4329	74175.9375
1550.78776	73327.0375
1554.14038	72638.7375
1557.49077	72401.8375
1560.83892	72334.9375
1564.18484	72348.9375
1567.52853	72328.1375
1570.86999	72305.3375
1574.20922	72444.1375
1577.54624	72420.7375
1580.88103	71648.3375
1584.2136	71109.8375
1587.54395	72255.4375
1590.87208	75433.7375
1594.19801	80376.7375
1597.52172	85764.6375
1600.84321	88100.2375
1604.16251	85591.5375
1607.47959	80145.1375
1610.79447	73910.0375
1614.10715	68282.1375
1617.41763	63945.6375
1620.7259	60970.0375
1624.03199	59555.2375
1627.33587	59540.6375
1630.63757	60977.6375
1633.93707	63746.1375
1637.23439	67678.0375
1640.52951	72935.2375
1643.82246	78644.1375
1647.11321	83374.1375
1650.40179	84603.0375
1653.68819	80434.1375
1656.97241	72252.6375
1660.25446	63938.3375
1663.53433	57815.5375
1666.81203	53949.5375
1670.08756	51549.1375
1673.36092	49966.2375
1676.63211	48884.1375
1679.90115	48194.8375
1683.16801	47527.0375
1686.43272	47146.9375
1689.69527	46866.4375
1692.95567	46618.7375
1696.2139	46509.8375
1699.46999	46421.3375
1702.72392	46366.0375
1705.97571	46284.3375
1709.22535	46238.3375
1712.47284	46231.1375
1715.71819	46247.0375
1718.96139	46174.8375
1722.20246	46034.2375
1725.44139	45925.6375
1728.67818	45634.4375
1731.91284	45446.9375
1735.14537	45278.1375
1738.37576	45144.1375
1741.60403	45029.1375
1744.83017	44862.1375
1748.05418	44786.5375
1751.27607	44717.5375
1754.49584	44665.5375
1757.71349	44744.4375
1760.92903	44731.4375
1764.14244	44689.1375
1767.35375	44569.8375
1770.56294	44568.6375
1773.77002	44567.8375
1776.97499	44547.5375
1780.17785	44477.1375
1783.37861	44418.5375
1786.57727	44326.3375
1789.77382	44281.1375
1792.96828	44336.7375
1796.16064	44322.9375
1799.3509	44249.5375
1802.53907	44206.4375
1805.72514	44085.0375
1808.90913	43964.9375
1812.09102	43922.1375
1815.27083	43862.3375
1818.44856	43819.6375
1821.6242	43758.4375
1824.79776	43703.1375
1827.96924	43698.1375
1831.13864	43744.0375
1834.30597	43750.0375
1837.47122	43702.7375
1840.6344	43621.2375
1843.7955	43671.1375
1846.95454	43678.0375
1850.11151	43636.7375
1853.26642	43619.7375
1856.41926	43637.5375
1859.57004	43642.7375
1862.71876	43620.6375
1865.86542	43617.0375
1869.01003	43560.9375
1872.15258	43524.7375
1875.29308	43555.9375
1878.43152	43536.7375
1881.56792	43562.4375
1884.70227	43577.6375
1887.83457	43579.5375
1890.96482	43596.3375
1894.09304	43518.5375
1897.21921	43539.3375
1900.34335	43432.4375
1903.46544	43439.8375
1906.58551	43471.7375
1909.70353	43460.1375
1912.81953	43426.5375
1915.93349	43382.6375
1919.04543	43297.1375
1922.15534	43263.3375
1925.26322	43222.7375
1928.36908	43169.4375
1931.47292	43086.8375
1934.57473	43004.1375
1937.67453	42911.7375
1940.77232	42783.2375
1943.86808	42619.2375
1946.96184	42539.4375
1950.05358	42453.7375
1953.14331	42363.8375
1956.23103	42193.0375
1959.31675	42088.5375
1962.40046	41965.2375
1965.48217	41808.1375
1968.56188	41694.8375
1971.63959	41594.4375
1974.7153	41533.9375
1977.78901	41371.5375
1980.86073	41274.7375
1983.93046	41118.0375
1986.99819	41019.7375
1990.06394	40992.0375
1993.1277	40834.7375
1996.18947	40717.1375
1999.24925	40682.1375
2002.30706	40599.1375
2005.36288	40409.9375
2008.41672	40288.0375
2011.46859	40154.8375
2014.51848	40113.8375
2017.56639	39977.6375
2020.61233	39893.1375
2023.6563	39786.2375
2026.6983	39750.5375
2029.73833	39638.4375
2032.7764	39611.0375
2035.8125	39527.7375
2038.84664	39473.3375
2041.87881	39493.8375
2044.90903	39388.9375
2047.93729	39361.7375
2050.96359	39342.5375
2053.98794	39250.4375
2057.01034	39259.6375
2060.03078	39252.1375
2063.04927	39247.1375
2066.06582	39200.2375
2069.08042	39163.8375
2072.09307	39100.9375
2075.10378	39026.1375
2078.11255	38951.1375
2081.11938	38979.3375
2084.12426	38928.9375
2087.12722	38937.3375
2090.12824	38899.6375
2093.12732	38930.1375
2096.12447	38908.1375
2099.11969	38901.1375
2102.11299	38932.0375
2105.10435	38968.0375
2108.09379	38931.5375
2111.08131	38941.9375
2114.0669	38907.3375
2117.05057	38962.2375
2120.03233	39038.2375
2123.01216	39095.3375
2125.99008	39117.5375
2128.96609	39200.5375
2131.94018	39196.0375
2134.91236	39257.9375
2137.88263	39270.7375
2140.851	39220.4375
2143.81746	39287.7375
2146.78201	39327.4375
2149.74466	39397.6375
2152.7054	39420.9375
2155.66425	39371.1375
2158.6212	39309.3375
2161.57625	39332.6375
2164.52941	39315.7375
2167.48067	39296.9375
2170.43004	39246.7375
2173.37752	39317.3375
2176.32311	39338.0375
2179.26681	39354.4375
2182.20863	39342.0375
2185.14856	39380.0375
2188.08661	39416.8375
2191.02278	39372.4375
2193.95707	39345.6375
2196.88948	39323.7375
2199.82001	39342.9375
2202.74867	39259.7375
2205.67545	39323.3375
2208.60037	39251.9375
2211.52341	39285.2375
2214.44458	39299.9375
2217.36388	39198.9375
2220.28132	39137.2375
2223.1969	39057.6375
2226.11061	39002.8375
2229.02246	38881.5375
2231.93245	38823.6375
2234.84058	38756.2375
2237.74686	38673.3375
2240.65128	38679.8375
2243.55385	38591.0375
2246.45456	38599.6375
2249.35343	38540.8375
2252.25044	38559.0375
2255.14561	38502.6375
2258.03893	38467.1375
2260.93041	38371.0375
2263.82004	38310.0375
2266.70783	38216.6375
2269.59378	38108.4375
2272.4779	38038.7375
2275.36017	37922.9375
2278.24061	37921.5375
2281.11922	37803.0375
2283.996	37745.1375
2286.87094	37787.8375
2289.74405	37742.3375
2292.61534	37726.5375
2295.4848	37653.3375
2298.35243	37709.0375
2301.21824	37688.4375
2304.08223	37678.1375
2306.94439	37699.6375
2309.80474	37800.5375
2312.66327	37825.8375
2315.51999	37767.0375
2318.37489	37761.2375
2321.22797	37795.1375
2324.07925	37779.0375
2326.92871	37689.7375
2329.77637	37665.2375
2332.62222	37643.0375
2335.46626	37654.7375
2338.3085	37671.0375
2341.14893	37667.0375
2343.98756	37707.7375
2346.8244	37657.3375
2349.65943	37724.1375
2352.49267	37698.2375
2355.32411	37670.7375
2358.15376	37650.6375
2360.98161	37643.6375
2363.80768	37582.6375
2366.63195	37549.6375
2369.45444	37490.4375
2372.27514	37419.8375
2375.09405	37388.0375
2377.91118	37274.9375
2380.72652	37124.1375
2383.54009	37055.4375
2386.35187	37000.1375
2389.16188	36913.6375
2391.97011	36845.9375
2394.77657	36795.7375
2397.58125	36754.1375
2400.38416	36674.2375
2403.18529	36697.1375
2405.98466	36612.2375
2408.78226	36498.5375
2411.57809	36456.2375
2414.37216	36370.5375
2417.16446	36346.1375
2419.955	36293.0375
2422.74378	36268.7375
2425.5308	36289.2375
2428.31606	36252.2375
2431.09956	36228.5375
2433.88131	36196.1375
2436.6613	36181.5375
2439.43954	36203.7375
2442.21603	36178.4375
2444.99077	36102.7375
2447.76377	36081.2375
2450.53501	36028.7375
2453.30451	36126.8375
2456.07226	36085.2375
2458.83827	36029.7375
2461.60254	35993.3375
2464.36507	36040.9375
2467.12586	36003.0375
2469.88492	36017.1375
2472.64224	36024.1375
2475.39782	36048.4375
2478.15167	36122.4375
2480.90379	36124.6375
2483.65417	36184.0375
2486.40283	36169.0375
2489.14976	36242.4375
2491.89497	36184.2375
2494.63845	36260.1375
2497.3802	36263.9375
2500.12024	36194.5375
2502.85855	36192.8375
2505.59514	36134.6375
2508.33002	36075.9375
2511.06318	36013.2375
2513.79462	36001.1375
2516.52435	35958.1375
2519.25237	35888.5375
2521.97867	35886.7375
2524.70327	35870.9375
2527.42616	35857.0375
2530.14734	35840.0375
2532.86681	35799.5375
2535.58458	35776.6375
2538.30065	35761.2375
2541.01501	35793.1375
2543.72768	35793.2375
2546.43864	35765.3375
2549.14791	35732.4375
2551.85548	35657.4375
2554.56136	35614.8375
2557.26554	35544.6375
2559.96803	35497.1375
2562.66883	35485.7375
2565.36794	35452.7375
2568.06536	35441.1375
2570.7611	35371.9375
2573.45514	35326.0375
2576.14751	35286.5375
2578.83819	35351.8375
2581.52719	35310.3375
2584.21451	35223.2375
2586.90015	35305.6375
2589.58411	35250.8375
2592.2664	35236.6375
2594.94701	35226.1375
2597.62594	35235.6375
2600.30321	35286.9375
2602.9788	35322.8375
2605.65273	35200.2375
2608.32498	35193.1375
2610.99557	35202.3375
2613.66449	35265.5375
2616.33175	35216.8375
2618.99734	35204.5375
2621.66128	35205.1375
2624.32355	35191.1375
2626.98416	35241.0375
2629.64311	35191.9375
2632.30041	35243.9375
2634.95605	35187.0375
2637.61004	35112.7375
2640.26238	35113.7375
2642.91306	35046.0375
2645.56209	34959.0375
2648.20948	34975.4375
2650.85521	34924.7375
2653.4993	34944.3375
2656.14175	34890.6375
2658.78255	34888.8375
2661.42171	34959.0375
2664.05923	35041.3375
2666.6951	35041.4375
2669.32934	35048.8375
2671.96194	35087.2375
2674.59291	35171.9375
2677.22224	35164.8375
2679.84993	35219.2375
2682.476	35104.2375
2685.10043	35067.4375
2687.72324	34993.6375
2690.34441	35061.9375
2692.96396	34969.5375
2695.58188	35042.5375
2698.19818	34959.7375
2700.81285	34925.4375
2703.4259	34933.0375
2706.03733	35018.0375
2708.64714	34929.6375
2711.25533	34973.3375
2713.86191	35005.2375
2716.46687	35058.3375
2719.07021	35022.2375
2721.67194	35046.7375
2724.27206	35037.5375
2726.87057	35061.2375
2729.46747	35031.3375
2732.06276	35060.2375
2734.65644	35064.6375
2737.24852	35135.3375
2739.83899	35092.7375
2742.42786	35123.9375
2745.01513	35089.6375
2747.60079	35049.9375
2750.18486	35058.9375
2752.76733	35057.9375
2755.3482	34963.5375
2757.92747	34937.6375
2760.50515	34931.0375
2763.08123	35019.4375
2765.65573	34906.0375
2768.22863	34962.0375
2770.79994	34887.4375
2773.36967	34924.0375
2775.9378	34953.3375
2778.50435	34924.0375
2781.06932	34935.8375
2783.6327	34873.5375
2786.1945	34856.8375
2788.75471	34812.3375
2791.31335	34780.7375
2793.87041	34738.9375
2796.42589	34635.7375
2798.97979	34625.4375
2801.53212	34570.2375
2804.08288	34497.4375
2806.63206	34451.8375
2809.17967	34412.2375
2811.72571	34334.6375
2814.27018	34241.9375
2816.81308	34218.5375
2819.35442	34151.1375
2821.89419	34144.6375
2824.43239	34151.0375
2826.96904	34158.6375
2829.50412	34177.5375
2832.03763	34063.7375
2834.56959	34058.7375
2837.1	34008.5375
2839.62884	33986.0375
2842.15613	33892.4375
2844.68186	33917.3375
2847.20604	33858.4375
2849.72867	33925.8375
2852.24974	33878.1375
2854.76927	33783.0375
2857.28724	33761.8375
2859.80367	33766.8375
2862.31855	33767.3375
2864.83189	33642.3375
2867.34368	33595.9375
2869.85393	33657.5375
2872.36264	33629.9375
2874.8698	33607.0375
2877.37543	33561.7375
2879.87952	33537.6375
2882.38207	33574.1375
2884.88308	33524.5375
2887.38256	33568.3375
2889.88051	33541.7375
2892.37692	33628.1375
2894.8718	33650.0375
2897.36515	33651.6375
2899.85698	33668.9375
2902.34727	33725.3375
2904.83604	33723.4375
2907.32328	33768.1375
2909.809	33763.2375
2912.29319	33803.1375
2914.77587	33807.8375
2917.25702	33797.3375
2919.73665	33758.6375
2922.21476	33670.5375
2924.69136	33667.9375
2927.16644	33627.5375
2929.64	33558.2375
2932.11205	33564.3375
2934.58258	33503.1375
2937.05161	33542.8375
2939.51912	33584.0375
2941.98513	33517.0375
2944.44962	33526.0375
2946.91261	33463.6375
2949.37409	33532.6375
2951.83407	33464.9375
2954.29254	33422.3375
2956.74951	33423.6375
2959.20498	33428.0375
2961.65895	33363.3375
2964.11142	33415.9375
2966.56239	33361.4375
2969.01186	33341.7375
2971.45984	33214.3375
2973.90632	33187.9375
2976.35131	33149.3375
2978.7948	33061.2375
2981.23681	33012.3375
2983.67732	32964.8375
2986.11635	32849.3375
2988.55388	32834.9375
2990.98993	32780.8375
2993.4245	32733.4375
2995.85758	32665.0375
2998.28917	32500.2375
3000.71928	32492.1375
3003.14791	32430.4375
3005.57506	32410.6375
3008.00073	32315.3375
3010.42493	32315.6375
3012.84764	32227.2375
3015.26888	32190.8375
3017.68865	32185.2375
3020.10694	32059.4375
3022.52376	32003.2375
3024.9391	32019.5375
3027.35298	32001.3375
3029.76539	31941.0375
3032.17632	31914.6375
3034.5858	31858.9375
3036.9938	31837.1375
3039.40034	31791.4375
3041.80542	31798.5375
3044.20903	31708.2375
3046.61118	31712.3375
3049.01187	31596.4375
3051.4111	31557.5375
3053.80888	31451.7375
3056.20519	31411.7375
3058.60005	31326.5375
3060.99345	31310.1375
3063.3854	31177.7375
3065.7759	31054.9375
3068.16494	30974.1375
3070.55254	30897.9375
3072.93868	30777.0375
3075.32338	30665.3375
3077.70662	30625.2375
3080.08842	30528.5375
3082.46878	30512.9375
3084.84769	30387.6375
3087.22515	30444.0375
3089.60118	30444.3375
3091.97576	30388.7375
3094.3489	30374.8375
3096.72061	30338.1375
3099.09087	30396.4375
3101.4597	30318.4375
3103.82709	30314.5375
3106.19305	30278.3375
3108.55757	30314.4375
3110.92066	30289.9375
3113.28232	30214.3375
3115.64255	30111.2375
3118.00134	30010.2375
3120.35871	29955.8375
3122.71466	29877.9375
3125.06917	29777.5375
3127.42226	29781.2375
3129.77393	29787.6375
3132.12417	29708.7375
3134.47299	29680.6375
3136.82039	29663.4375
3139.16636	29654.0375
3141.51092	29636.5375
3143.85406	29563.8375
3146.19579	29588.4375
3148.53609	29560.0375
3150.87499	29577.4375
3153.21246	29589.4375
3155.54853	29638.7375
3157.88318	29583.0375
3160.21642	29611.9375
3162.54826	29565.0375
3164.87868	29560.7375
3167.2077	29494.5375
3169.5353	29483.1375
3171.86151	29465.0375
3174.18631	29422.3375
3176.5097	29448.1375
3178.83169	29325.7375
3181.15228	29338.0375
3183.47147	29253.3375
3185.78926	29287.1375
3188.10565	29269.6375
3190.42065	29217.2375
3192.73424	29166.4375
3195.04645	29161.0375
3197.35725	29129.6375
3199.66667	29084.8375
3201.97469	29151.5375
3204.28132	29050.7375
3206.58656	29105.5375
3208.8904	29108.3375
3211.19287	29123.0375
3213.49394	29085.1375
3215.79363	29135.1375
3218.09193	29161.7375
3220.38884	29125.6375
3222.68438	29154.3375
3224.97853	29095.1375
3227.2713	29061.8375
3229.56269	29066.5375
3231.8527	29062.9375
3234.14133	29013.3375
3236.42858	28938.9375
3238.71446	28895.7375
3240.99896	28810.1375
3243.28209	28834.2375
3245.56384	28785.9375
3247.84423	28742.9375
3250.12324	28682.8375
3252.40088	28717.6375
3254.67715	28673.4375
3256.95205	28643.1375
3259.22558	28652.7375
3261.49775	28586.1375
3263.76855	28537.4375
3266.03799	28541.1375
3268.30606	28501.0375
3270.57277	28414.9375
3272.83812	28379.8375
3275.10211	28276.4375
3277.36474	28265.2375
3279.62601	28297.0375
3281.88593	28199.6375
3284.14448	28250.2375
3286.40168	28217.7375
3288.65753	28219.5375
3290.91202	28169.9375
3293.16516	28113.0375
3295.41695	28103.5375
3297.66738	27947.7375
3299.91647	27787.2375
3302.16421	27625.6375
3304.4106	27540.0375
3306.65564	27339.5375
3308.89933	27167.6375
3311.14169	27050.7375
3313.38269	26769.1375
3315.62236	26646.9375
3317.86068	26415.2375
3320.09766	26199.2375
3322.3333	26033.2375
3324.5676	25989.9375
3326.80056	25603.4375
3329.03219	25359.8375
3331.26248	7.5375
3333.49143	1.0375
3335.71905	-0.7625
