Data from AgNPs_FTO_APTES_UA_20uM_CRN_1uM_R6G_10uM_NaF_0.1M_Addition_RamanShift__14__12-18-22-032.txt Node

Date: Thu Feb 17 12:18:22 GMT 2022
User: TCL
Spectrometer: QEP01345
Trigger mode: 4
Integration Time (sec): 7.000000E0
Scans to average: 10
Electric dark correction enabled: true
Nonlinearity correction enabled: false
Boxcar width: 0
XAxis mode: Raman Shifts
Number of Pixels in Spectrum: 1044
>>>>>Begin Spectral Data<<<<<
46.04893	-0.2625
50.45542	-1.4625
54.85868	-3.2625
59.25871	-1.7625
63.6555	123.1375
68.04907	124.0375
72.43941	131.2375
76.82654	131.7375
81.21044	136.3375
85.59113	141.8375
89.96862	144.9375
94.34289	150.0375
98.71396	152.4375
103.08183	159.8375
107.4465	163.3375
111.80798	166.6375
116.16626	173.0375
120.52136	183.9375
124.87327	189.9375
129.222	199.8375
133.56755	214.6375
137.90993	233.3375
142.24913	257.6375
146.58517	289.3375
150.91804	348.2375
155.24774	414.3375
159.57429	527.4375
163.89768	683.4375
168.21792	915.9375
172.53501	1256.0375
176.84895	1769.8375
181.15975	2492.2375
185.46741	3529.5375
189.77193	4894.2375
194.07331	6572.2375
198.37157	8486.5375
202.6667	10516.6375
206.9587	12514.9375
211.24758	14530.9375
215.53334	16464.0375
219.81599	18496.2375
224.09553	20701.6375
228.37195	23194.8375
232.64527	25899.4375
236.91549	28820.9375
241.18261	31850.4375
245.44663	34696.3375
249.70755	37397.0375
253.96539	39672.8375
258.22014	41609.8375
262.4718	43182.7375
266.72039	44259.1375
270.96589	44918.2375
275.20832	45023.3375
279.44768	44740.0375
283.68397	44419.8375
287.91719	44021.2375
292.14735	43742.4375
296.37445	43604.7375
300.59849	43583.0375
304.81948	43622.5375
309.03742	43633.8375
313.25231	43429.4375
317.46415	42966.6375
321.67296	42394.0375
325.87872	41879.4375
330.08145	41660.4375
334.28114	41765.6375
338.47781	42098.0375
342.67145	42553.4375
346.86207	43213.4375
351.04966	43843.1375
355.23424	44477.0375
359.4158	45037.5375
363.59435	45606.9375
367.76989	45954.4375
371.94243	46214.6375
376.11196	46440.4375
380.27849	46701.6375
384.44203	46968.7375
388.60257	47277.6375
392.76012	47771.2375
396.91468	48396.3375
401.06626	49025.9375
405.21485	49499.4375
409.36047	49495.6375
413.50311	49153.4375
417.64277	49003.2375
421.77947	49123.2375
425.9132	49387.5375
430.04396	49634.5375
434.17176	49909.8375
438.2966	50257.3375
442.41849	50688.4375
446.53742	51541.5375
450.6534	52431.1375
454.76644	53163.5375
458.87653	53516.1375
462.98368	53567.3375
467.08789	53473.4375
471.18916	53119.6375
475.2875	52708.5375
479.38291	52429.6375
483.4754	52288.7375
487.56496	52001.9375
491.6516	51650.4375
495.73531	51351.2375
499.81612	51077.9375
503.89401	51256.7375
507.96899	51430.5375
512.04106	51564.2375
516.11023	51548.5375
520.1765	51237.5375
524.23987	51053.4375
528.30034	50811.2375
532.35792	50591.3375
536.41261	50286.7375
540.46441	50144.4375
544.51333	50098.6375
548.55936	50434.3375
552.60252	51096.8375
556.64279	51858.5375
560.6802	52450.3375
564.71473	52961.6375
568.7464	53650.9375
572.7752	54887.9375
576.80114	56447.4375
580.82422	57893.6375
584.84444	58993.1375
588.86181	60086.4375
592.87633	60980.9375
596.888	60717.1375
600.89682	59475.9375
604.9028	59372.9375
608.90594	61567.4375
612.90624	63895.2375
616.90371	61140.2375
620.89834	55277.0375
624.89015	52834.4375
628.87913	52694.8375
632.86528	53093.6375
636.84862	53220.7375
640.82913	52759.1375
644.80683	51897.0375
648.78172	51337.0375
652.75379	51239.9375
656.72306	51640.6375
660.68952	52284.3375
664.65319	52262.5375
668.61405	51832.5375
672.57211	51837.7375
676.52738	52025.8375
680.47986	51978.7375
684.42955	51807.1375
688.37646	51776.9375
692.32058	51950.5375
696.26192	52395.9375
700.20048	52926.1375
704.13626	53320.9375
708.06928	53499.2375
711.99952	53398.7375
715.927	53267.6375
719.85171	53302.7375
723.77365	53187.7375
727.69284	52790.3375
731.60928	52290.1375
735.52295	52053.4375
739.43388	52100.2375
743.34206	52248.2375
747.24749	52523.0375
751.15017	52864.1375
755.05012	53442.3375
758.94733	54380.2375
762.8418	56078.4375
766.73354	58466.3375
770.62254	60759.0375
774.50882	61017.1375
778.39237	59331.7375
782.27321	56976.5375
786.15132	55013.7375
790.02671	53749.7375
793.89938	53045.4375
797.76935	52660.1375
801.6366	52545.0375
805.50115	52351.4375
809.36299	52289.7375
813.22213	52115.4375
817.07857	52046.5375
820.93231	52078.1375
824.78336	51919.0375
828.63172	51859.8375
832.47738	51726.5375
836.32036	51819.5375
840.16066	51823.3375
843.99827	51903.0375
847.8332	51953.5375
851.66546	52062.5375
855.49504	52134.1375
859.32195	52261.3375
863.1462	52246.9375
866.96777	52302.5375
870.78668	52285.9375
874.60293	52360.6375
878.41652	52400.6375
882.22745	52511.1375
886.03573	52640.5375
889.84136	52669.8375
893.64433	52570.4375
897.44466	52483.0375
901.24235	52390.3375
905.0374	52316.8375
908.8298	52245.9375
912.61957	52347.5375
916.40671	52584.4375
920.19121	53068.0375
923.97308	53429.2375
927.75233	53310.7375
931.52895	52971.0375
935.30295	52518.3375
939.07433	52056.0375
942.84309	51634.3375
946.60924	51485.3375
950.37278	51384.3375
954.13371	51482.6375
957.89203	51448.2375
961.64774	51356.3375
965.40086	51354.6375
969.15137	51377.0375
972.89929	51231.9375
976.64461	51157.5375
980.38733	51153.5375
984.12747	51140.5375
987.86502	51313.0375
991.59999	51550.1375
995.33237	51902.8375
999.06217	52366.3375
1002.78939	53086.2375
1006.51404	53789.8375
1010.23611	54620.8375
1013.95561	55074.9375
1017.67255	55061.1375
1021.38692	54771.0375
1025.09872	54196.6375
1028.80796	53653.9375
1032.51465	53369.2375
1036.21877	53374.2375
1039.92035	53538.0375
1043.61937	53634.0375
1047.31584	53777.1375
1051.00976	53899.1375
1054.70114	54093.1375
1058.38998	54403.2375
1062.07627	54807.0375
1065.76003	55359.1375
1069.44126	56014.6375
1073.11995	56711.3375
1076.79611	57330.5375
1080.46974	57638.3375
1084.14085	57855.0375
1087.80943	58237.7375
1091.47549	58660.0375
1095.13903	58754.0375
1098.80005	58416.7375
1102.45857	57639.6375
1106.11456	56902.7375
1109.76805	56398.1375
1113.41903	56258.3375
1117.06751	56366.4375
1120.71348	56615.2375
1124.35696	56913.3375
1127.99793	57274.4375
1131.63641	57418.9375
1135.2724	57412.1375
1138.90589	57300.8375
1142.5369	57385.2375
1146.16542	57575.1375
1149.79145	57796.6375
1153.415	58132.8375
1157.03607	58573.2375
1160.65467	59363.4375
1164.27079	60728.5375
1167.88443	62447.6375
1171.49561	64564.9375
1175.10432	67099.2375
1178.71056	70143.6375
1182.31434	73013.4375
1185.91565	74622.9375
1189.51451	75103.3375
1193.11091	74623.4375
1196.70485	73334.9375
1200.29634	71673.1375
1203.88538	70237.7375
1207.47197	69462.7375
1211.05612	68872.9375
1214.63782	67928.1375
1218.21708	66822.7375
1221.79391	65611.2375
1225.36829	64846.6375
1228.94024	64198.8375
1232.50976	63803.1375
1236.07685	63359.2375
1239.6415	63194.6375
1243.20374	63178.2375
1246.76355	63449.7375
1250.32093	64044.6375
1253.8759	64824.3375
1257.42845	66032.1375
1260.97859	67389.1375
1264.52631	68697.7375
1268.07163	70062.8375
1271.61453	71291.4375
1275.15503	72385.8375
1278.69312	73494.9375
1282.22882	74659.6375
1285.76211	76123.3375
1289.29301	77814.4375
1292.82151	79670.8375
1296.34761	82132.6375
1299.87133	84937.5375
1303.39266	87802.9375
1306.9116	90580.8375
1310.42815	92845.9375
1313.94233	93998.9375
1317.45412	93814.6375
1320.96354	92991.9375
1324.47058	92329.4375
1327.97525	92044.6375
1331.47754	91978.4375
1334.97747	91875.4375
1338.47502	92181.2375
1341.97022	92660.2375
1345.46305	93076.5375
1348.95352	93165.6375
1352.44163	92512.9375
1355.92738	92303.0375
1359.41078	92886.4375
1362.89183	93467.0375
1366.37053	91794.7375
1369.84688	87212.4375
1373.32088	81520.7375
1376.79254	77328.5375
1380.26186	75469.6375
1383.72883	75048.5375
1387.19347	74893.5375
1390.65578	74383.8375
1394.11575	73965.2375
1397.57339	73884.9375
1401.0287	74220.7375
1404.48168	74651.9375
1407.93234	74592.9375
1411.38068	73700.6375
1414.82669	72356.4375
1418.27039	70668.0375
1421.71177	69089.5375
1425.15083	67747.2375
1428.58758	67283.9375
1432.02203	67699.0375
1435.45416	68669.9375
1438.88399	69945.4375
1442.31151	70902.8375
1445.73673	71606.3375
1449.15965	72068.2375
1452.58027	72439.4375
1455.9986	72634.2375
1459.41463	73260.0375
1462.82837	74083.5375
1466.23982	75040.6375
1469.64898	75828.2375
1473.05586	76375.5375
1476.46045	76540.1375
1479.86276	76437.6375
1483.26279	76293.7375
1486.66054	76075.4375
1490.05602	76290.7375
1493.44922	76993.1375
1496.84016	78142.9375
1500.22882	79614.3375
1503.61521	81538.7375
1506.99934	83366.0375
1510.38121	84580.2375
1513.76081	84311.6375
1517.13816	82725.9375
1520.51324	80811.4375
1523.88607	79664.4375
1527.25665	79263.5375
1530.62498	79165.0375
1533.99105	78923.6375
1537.35488	78109.0375
1540.71647	77021.8375
1544.07581	75773.1375
1547.4329	74517.8375
1550.78776	73432.3375
1554.14038	72603.1375
1557.49077	72109.2375
1560.83892	71911.7375
1564.18484	71884.0375
1567.52853	71965.3375
1570.86999	72212.6375
1574.20922	72848.9375
1577.54624	73377.8375
1580.88103	73303.2375
1584.2136	73326.4375
1587.54395	74333.3375
1590.87208	76418.2375
1594.19801	79185.7375
1597.52172	81986.3375
1600.84321	82717.4375
1604.16251	80558.0375
1607.47959	77055.1375
1610.79447	73180.1375
1614.10715	69384.2375
1617.41763	65939.1375
1620.7259	63303.8375
1624.03199	61868.5375
1627.33587	61586.0375
1630.63757	62496.7375
1633.93707	64865.9375
1637.23439	68948.4375
1640.52951	74965.3375
1643.82246	82023.8375
1647.11321	87474.5375
1650.40179	88363.5375
1653.68819	84084.5375
1656.97241	76395.4375
1660.25446	68787.6375
1663.53433	62994.6375
1666.81203	59077.9375
1670.08756	56702.3375
1673.36092	55224.0375
1676.63211	54150.9375
1679.90115	53414.5375
1683.16801	52822.4375
1686.43272	52395.1375
1689.69527	52076.0375
1692.95567	51767.8375
1696.2139	51668.7375
1699.46999	51552.4375
1702.72392	51433.4375
1705.97571	51389.2375
1709.22535	51243.6375
1712.47284	51218.7375
1715.71819	51270.5375
1718.96139	51143.3375
1722.20246	51070.5375
1725.44139	50883.0375
1728.67818	50708.6375
1731.91284	50526.7375
1735.14537	50296.4375
1738.37576	50177.6375
1741.60403	49977.7375
1744.83017	49863.9375
1748.05418	49728.7375
1751.27607	49659.4375
1754.49584	49605.3375
1757.71349	49629.8375
1760.92903	49589.8375
1764.14244	49540.3375
1767.35375	49472.5375
1770.56294	49478.3375
1773.77002	49484.5375
1776.97499	49483.7375
1780.17785	49358.8375
1783.37861	49319.3375
1786.57727	49190.5375
1789.77382	49108.3375
1792.96828	49024.2375
1796.16064	49015.9375
1799.3509	48959.9375
1802.53907	48881.0375
1805.72514	48808.8375
1808.90913	48678.3375
1812.09102	48620.1375
1815.27083	48512.8375
1818.44856	48539.1375
1821.6242	48450.8375
1824.79776	48372.6375
1827.96924	48344.4375
1831.13864	48382.6375
1834.30597	48324.4375
1837.47122	48214.9375
1840.6344	48166.2375
1843.7955	48284.1375
1846.95454	48228.0375
1850.11151	48230.5375
1853.26642	48238.9375
1856.41926	48194.4375
1859.57004	48172.0375
1862.71876	48091.4375
1865.86542	48015.9375
1869.01003	48031.8375
1872.15258	47937.7375
1875.29308	47914.7375
1878.43152	47792.1375
1881.56792	47756.4375
1884.70227	47794.6375
1887.83457	47719.6375
1890.96482	47638.4375
1894.09304	47594.0375
1897.21921	47490.2375
1900.34335	47406.5375
1903.46544	47344.0375
1906.58551	47361.8375
1909.70353	47339.7375
1912.81953	47244.2375
1915.93349	47206.2375
1919.04543	47070.0375
1922.15534	47031.9375
1925.26322	46969.6375
1928.36908	46906.6375
1931.47292	46777.1375
1934.57473	46729.6375
1937.67453	46640.9375
1940.77232	46516.2375
1943.86808	46355.3375
1946.96184	46246.0375
1950.05358	46097.2375
1953.14331	45961.8375
1956.23103	45893.8375
1959.31675	45747.9375
1962.40046	45585.5375
1965.48217	45432.1375
1968.56188	45340.1375
1971.63959	45251.4375
1974.7153	45135.9375
1977.78901	45011.8375
1980.86073	44839.0375
1983.93046	44738.7375
1986.99819	44656.1375
1990.06394	44529.1375
1993.1277	44439.9375
1996.18947	44251.1375
1999.24925	44190.4375
2002.30706	44054.0375
2005.36288	43908.3375
2008.41672	43782.8375
2011.46859	43664.8375
2014.51848	43539.6375
2017.56639	43440.9375
2020.61233	43330.6375
2023.6563	43220.1375
2026.6983	43113.0375
2029.73833	42981.6375
2032.7764	42911.4375
2035.8125	42807.9375
2038.84664	42776.1375
2041.87881	42671.1375
2044.90903	42618.4375
2047.93729	42530.8375
2050.96359	42525.8375
2053.98794	42444.9375
2057.01034	42420.0375
2060.03078	42425.8375
2063.04927	42418.9375
2066.06582	42423.3375
2069.08042	42380.6375
2072.09307	42360.3375
2075.10378	42315.3375
2078.11255	42179.7375
2081.11938	42215.3375
2084.12426	42200.3375
2087.12722	42180.7375
2090.12824	42195.5375
2093.12732	42240.2375
2096.12447	42228.4375
2099.11969	42152.5375
2102.11299	42182.6375
2105.10435	42204.1375
2108.09379	42246.5375
2111.08131	42276.1375
2114.0669	42252.6375
2117.05057	42232.9375
2120.03233	42247.5375
2123.01216	42287.8375
2125.99008	42407.2375
2128.96609	42468.8375
2131.94018	42490.2375
2134.91236	42533.8375
2137.88263	42571.1375
2140.851	42656.4375
2143.81746	42670.9375
2146.78201	42594.8375
2149.74466	42685.3375
2152.7054	42706.7375
2155.66425	42717.9375
2158.6212	42663.8375
2161.57625	42621.7375
2164.52941	42624.2375
2167.48067	42621.9375
2170.43004	42567.2375
2173.37752	42550.6375
2176.32311	42660.3375
2179.26681	42646.9375
2182.20863	42597.4375
2185.14856	42644.2375
2188.08661	42611.1375
2191.02278	42616.5375
2193.95707	42504.7375
2196.88948	42474.5375
2199.82001	42462.0375
2202.74867	42438.3375
2205.67545	42357.8375
2208.60037	42272.8375
2211.52341	42231.5375
2214.44458	42176.8375
2217.36388	42142.7375
2220.28132	42062.2375
2223.1969	41995.4375
2226.11061	41903.6375
2229.02246	41764.7375
2231.93245	41733.7375
2234.84058	41677.9375
2237.74686	41662.0375
2240.65128	41641.3375
2243.55385	41523.9375
2246.45456	41485.4375
2249.35343	41423.1375
2252.25044	41357.6375
2255.14561	41286.5375
2258.03893	41250.2375
2260.93041	41163.3375
2263.82004	41032.1375
2266.70783	40988.7375
2269.59378	40893.0375
2272.4779	40825.0375
2275.36017	40761.5375
2278.24061	40736.6375
2281.11922	40606.0375
2283.996	40536.0375
2286.87094	40480.8375
2289.74405	40487.9375
2292.61534	40429.5375
2295.4848	40366.3375
2298.35243	40367.8375
2301.21824	40300.0375
2304.08223	40251.4375
2306.94439	40198.5375
2309.80474	40166.3375
2312.66327	40150.8375
2315.51999	40059.1375
2318.37489	40066.6375
2321.22797	39950.0375
2324.07925	39971.6375
2326.92871	39878.8375
2329.77637	39774.2375
2332.62222	39717.3375
2335.46626	39718.9375
2338.3085	39692.4375
2341.14893	39632.7375
2343.98756	39640.3375
2346.8244	39621.8375
2349.65943	39588.0375
2352.49267	39565.5375
2355.32411	39563.4375
2358.15376	39500.4375
2360.98161	39514.0375
2363.80768	39524.7375
2366.63195	39428.5375
2369.45444	39379.1375
2372.27514	39401.7375
2375.09405	39412.2375
2377.91118	39296.0375
2380.72652	39214.6375
2383.54009	39065.0375
2386.35187	39051.4375
2389.16188	38883.1375
2391.97011	38831.3375
2394.77657	38810.3375
2397.58125	38747.1375
2400.38416	38650.4375
2403.18529	38578.8375
2405.98466	38582.5375
2408.78226	38493.1375
2411.57809	38508.2375
2414.37216	38400.2375
2417.16446	38403.1375
2419.955	38431.1375
2422.74378	38398.9375
2425.5308	38320.9375
2428.31606	38283.3375
2431.09956	38284.0375
2433.88131	38224.5375
2436.6613	38296.7375
2439.43954	38253.1375
2442.21603	38182.3375
2444.99077	38134.4375
2447.76377	38170.5375
2450.53501	38131.0375
2453.30451	38125.3375
2456.07226	37980.8375
2458.83827	37993.7375
2461.60254	37942.0375
2464.36507	37902.2375
2467.12586	37955.3375
2469.88492	37908.6375
2472.64224	37909.6375
2475.39782	37841.7375
2478.15167	37823.4375
2480.90379	37837.3375
2483.65417	37830.6375
2486.40283	37813.0375
2489.14976	37770.0375
2491.89497	37750.7375
2494.63845	37775.9375
2497.3802	37700.3375
2500.12024	37647.8375
2502.85855	37683.9375
2505.59514	37651.9375
2508.33002	37606.6375
2511.06318	37604.0375
2513.79462	37550.5375
2516.52435	37540.1375
2519.25237	37437.3375
2521.97867	37415.6375
2524.70327	37432.3375
2527.42616	37328.9375
2530.14734	37294.1375
2532.86681	37242.4375
2535.58458	37225.7375
2538.30065	37283.3375
2541.01501	37186.4375
2543.72768	37172.9375
2546.43864	37146.9375
2549.14791	37015.1375
2551.85548	36978.1375
2554.56136	36885.0375
2557.26554	36823.4375
2559.96803	36766.7375
2562.66883	36717.5375
2565.36794	36658.4375
2568.06536	36650.1375
2570.7611	36570.6375
2573.45514	36512.4375
2576.14751	36437.5375
2578.83819	36384.4375
2581.52719	36340.1375
2584.21451	36302.2375
2586.90015	36272.4375
2589.58411	36148.4375
2592.2664	36134.8375
2594.94701	36125.2375
2597.62594	36104.0375
2600.30321	36083.0375
2602.9788	36015.5375
2605.65273	35995.9375
2608.32498	35985.5375
2610.99557	35969.1375
2613.66449	35956.9375
2616.33175	35862.5375
2618.99734	35804.8375
2621.66128	35730.3375
2624.32355	35701.1375
2626.98416	35631.5375
2629.64311	35603.6375
2632.30041	35536.6375
2634.95605	35508.6375
2637.61004	35511.6375
2640.26238	35467.5375
2642.91306	35434.3375
2645.56209	35396.0375
2648.20948	35387.0375
2650.85521	35380.6375
2653.4993	35372.3375
2656.14175	35420.6375
2658.78255	35474.9375
2661.42171	35424.8375
2664.05923	35478.3375
2666.6951	35434.4375
2669.32934	35467.3375
2671.96194	35436.8375
2674.59291	35468.8375
2677.22224	35459.9375
2679.84993	35465.0375
2682.476	35409.4375
2685.10043	35360.3375
2687.72324	35346.8375
2690.34441	35384.9375
2692.96396	35364.7375
2695.58188	35384.4375
2698.19818	35365.3375
2700.81285	35371.4375
2703.4259	35296.5375
2706.03733	35385.0375
2708.64714	35368.2375
2711.25533	35397.0375
2713.86191	35347.5375
2716.46687	35409.9375
2719.07021	35400.2375
2721.67194	35404.0375
2724.27206	35351.7375
2726.87057	35404.8375
2729.46747	35426.0375
2732.06276	35421.5375
2734.65644	35398.6375
2737.24852	35377.5375
2739.83899	35360.3375
2742.42786	35325.6375
2745.01513	35291.2375
2747.60079	35242.3375
2750.18486	35243.8375
2752.76733	35235.2375
2755.3482	35163.3375
2757.92747	35095.5375
2760.50515	35057.9375
2763.08123	35053.3375
2765.65573	35006.8375
2768.22863	35001.7375
2770.79994	34886.3375
2773.36967	34884.4375
2775.9378	34863.8375
2778.50435	34888.7375
2781.06932	34829.4375
2783.6327	34813.7375
2786.1945	34786.8375
2788.75471	34694.3375
2791.31335	34592.1375
2793.87041	34539.5375
2796.42589	34444.8375
2798.97979	34458.5375
2801.53212	34301.1375
2804.08288	34269.4375
2806.63206	34219.4375
2809.17967	34166.1375
2811.72571	34054.1375
2814.27018	33888.2375
2816.81308	33831.7375
2819.35442	33775.0375
2821.89419	33708.8375
2824.43239	33723.9375
2826.96904	33674.4375
2829.50412	33664.8375
2832.03763	33586.5375
2834.56959	33539.1375
2837.1	33466.3375
2839.62884	33461.6375
2842.15613	33389.6375
2844.68186	33434.8375
2847.20604	33406.6375
2849.72867	33359.7375
2852.24974	33306.5375
2854.76927	33206.8375
2857.28724	33178.6375
2859.80367	33189.1375
2862.31855	33144.9375
2864.83189	33056.1375
2867.34368	32976.8375
2869.85393	33006.9375
2872.36264	32894.1375
2874.8698	32867.3375
2877.37543	32822.6375
2879.87952	32802.3375
2882.38207	32826.3375
2884.88308	32826.9375
2887.38256	32828.7375
2889.88051	32824.8375
2892.37692	32788.6375
2894.8718	32760.0375
2897.36515	32835.3375
2899.85698	32798.5375
2902.34727	32817.4375
2904.83604	32811.1375
2907.32328	32848.8375
2909.809	32832.6375
2912.29319	32892.4375
2914.77587	32828.4375
2917.25702	32818.6375
2919.73665	32817.4375
2922.21476	32791.9375
2924.69136	32752.5375
2927.16644	32790.7375
2929.64	32718.0375
2932.11205	32684.4375
2934.58258	32617.6375
2937.05161	32645.9375
2939.51912	32641.4375
2941.98513	32568.0375
2944.44962	32525.3375
2946.91261	32494.8375
2949.37409	32521.9375
2951.83407	32482.1375
2954.29254	32429.7375
2956.74951	32445.5375
2959.20498	32438.0375
2961.65895	32411.8375
2964.11142	32424.3375
2966.56239	32383.9375
2969.01186	32408.3375
2971.45984	32241.1375
2973.90632	32224.2375
2976.35131	32162.6375
2978.7948	32146.8375
2981.23681	32080.7375
2983.67732	32026.5375
2986.11635	31982.0375
2988.55388	31888.7375
2990.98993	31882.1375
2993.4245	31788.1375
2995.85758	31694.2375
2998.28917	31599.0375
3000.71928	31505.2375
3003.14791	31429.3375
3005.57506	31429.9375
3008.00073	31312.0375
3010.42493	31331.4375
3012.84764	31239.9375
3015.26888	31266.9375
3017.68865	31175.6375
3020.10694	31139.9375
3022.52376	31041.5375
3024.9391	31024.1375
3027.35298	30964.3375
3029.76539	30906.0375
3032.17632	30910.2375
3034.5858	30874.6375
3036.9938	30811.6375
3039.40034	30768.3375
3041.80542	30795.0375
3044.20903	30708.3375
3046.61118	30734.8375
3049.01187	30616.5375
3051.4111	30532.3375
3053.80888	30481.8375
3056.20519	30427.6375
3058.60005	30357.0375
3060.99345	30338.7375
3063.3854	30206.9375
3065.7759	30084.5375
3068.16494	30045.9375
3070.55254	29955.8375
3072.93868	29902.4375
3075.32338	29797.5375
3077.70662	29754.0375
3080.08842	29614.4375
3082.46878	29558.5375
3084.84769	29540.5375
3087.22515	29520.7375
3089.60118	29469.4375
3091.97576	29493.5375
3094.3489	29415.8375
3096.72061	29441.9375
3099.09087	29418.7375
3101.4597	29403.6375
3103.82709	29380.7375
3106.19305	29348.3375
3108.55757	29352.7375
3110.92066	29296.0375
3113.28232	29246.5375
3115.64255	29120.8375
3118.00134	29071.7375
3120.35871	28945.9375
3122.71466	28909.4375
3125.06917	28829.3375
3127.42226	28747.9375
3129.77393	28780.6375
3132.12417	28662.7375
3134.47299	28663.1375
3136.82039	28583.3375
3139.16636	28613.0375
3141.51092	28617.1375
3143.85406	28623.7375
3146.19579	28540.9375
3148.53609	28536.8375
3150.87499	28558.1375
3153.21246	28550.3375
3155.54853	28623.5375
3157.88318	28536.1375
3160.21642	28555.7375
3162.54826	28523.8375
3164.87868	28435.1375
3167.2077	28433.9375
3169.5353	28378.1375
3171.86151	28377.8375
3174.18631	28385.5375
3176.5097	28385.1375
3178.83169	28320.5375
3181.15228	28272.4375
3183.47147	28139.8375
3185.78926	28144.6375
3188.10565	28052.5375
3190.42065	28028.5375
3192.73424	28031.1375
3195.04645	27956.6375
3197.35725	27900.1375
3199.66667	27871.1375
3201.97469	27884.9375
3204.28132	27837.8375
3206.58656	27844.7375
3208.8904	27817.5375
3211.19287	27859.0375
3213.49394	27830.6375
3215.79363	27824.1375
3218.09193	27874.4375
3220.38884	27870.2375
3222.68438	27878.7375
3224.97853	27768.4375
3227.2713	27730.2375
3229.56269	27665.6375
3231.8527	27666.8375
3234.14133	27632.8375
3236.42858	27551.4375
3238.71446	27485.0375
3240.99896	27425.4375
3243.28209	27422.2375
3245.56384	27317.4375
3247.84423	27306.1375
3250.12324	27281.7375
3252.40088	27260.4375
3254.67715	27273.0375
3256.95205	27216.0375
3259.22558	27169.6375
3261.49775	27149.5375
3263.76855	27130.4375
3266.03799	27067.5375
3268.30606	26987.3375
3270.57277	26950.4375
3272.83812	26885.9375
3275.10211	26814.1375
3277.36474	26750.6375
3279.62601	26755.9375
3281.88593	26738.1375
3284.14448	26733.8375
3286.40168	26690.5375
3288.65753	26649.1375
3290.91202	26649.6375
3293.16516	26578.4375
3295.41695	26537.2375
3297.66738	26350.0375
3299.91647	26234.4375
3302.16421	26056.9375
3304.4106	25950.9375
3306.65564	25744.4375
3308.89933	25608.0375
3311.14169	25403.7375
3313.38269	25195.4375
3315.62236	25052.7375
3317.86068	24779.8375
3320.09766	24585.8375
3322.3333	24418.4375
3324.5676	24310.5375
3326.80056	23923.7375
3329.03219	23744.9375
3331.26248	7.3375
3333.49143	1.2375
3335.71905	-1.7625
