Data from AgNPs_FTO_APTES_UA_20uM_CRN_10uM_R6G_10uM_NaF_0.1M_Addition_RamanShift__17__14-30-12-205.txt Node

Date: Thu Feb 17 14:30:12 GMT 2022
User: TCL
Spectrometer: QEP01345
Trigger mode: 4
Integration Time (sec): 7.000000E0
Scans to average: 10
Electric dark correction enabled: true
Nonlinearity correction enabled: false
Boxcar width: 0
XAxis mode: Raman Shifts
Number of Pixels in Spectrum: 1044
>>>>>Begin Spectral Data<<<<<
46.04893	-0.4875
50.45542	-1.9875
54.85868	-2.4875
59.25871	-1.3875
63.6555	123.9125
68.04907	128.6125
72.43941	131.7125
76.82654	133.5125
81.21044	136.9125
85.59113	142.1125
89.96862	142.3125
94.34289	151.6125
98.71396	158.1125
103.08183	158.3125
107.4465	164.5125
111.80798	167.1125
116.16626	174.6125
120.52136	184.3125
124.87327	189.8125
129.222	205.5125
133.56755	219.1125
137.90993	235.9125
142.24913	258.2125
146.58517	300.5125
150.91804	355.2125
155.24774	424.5125
159.57429	532.1125
163.89768	689.6125
168.21792	920.9125
172.53501	1285.1125
176.84895	1799.5125
181.15975	2540.8125
185.46741	3577.0125
189.77193	4975.5125
194.07331	6688.4125
198.37157	8640.0125
202.6667	10734.2125
206.9587	12755.6125
211.24758	14769.5125
215.53334	16740.6125
219.81599	18841.3125
224.09553	21119.9125
228.37195	23664.9125
232.64527	26475.4125
236.91549	29482.4125
241.18261	32595.1125
245.44663	35528.0125
249.70755	38201.3125
253.96539	40621.0125
258.22014	42641.1125
262.4718	44323.6125
266.72039	45430.6125
270.96589	46088.3125
275.20832	46248.9125
279.44768	45934.8125
283.68397	45554.7125
287.91719	45102.8125
292.14735	44807.4125
296.37445	44691.7125
300.59849	44679.0125
304.81948	44789.4125
309.03742	44683.5125
313.25231	44362.0125
317.46415	43756.5125
321.67296	43068.4125
325.87872	42436.3125
330.08145	42185.4125
334.28114	42306.5125
338.47781	42630.6125
342.67145	43166.9125
346.86207	43809.1125
351.04966	44553.9125
355.23424	45364.2125
359.4158	46019.3125
363.59435	46560.2125
367.76989	46971.5125
371.94243	47402.0125
376.11196	47693.8125
380.27849	48011.3125
384.44203	48279.5125
388.60257	48556.7125
392.76012	48922.8125
396.91468	49310.7125
401.06626	49957.3125
405.21485	50454.3125
409.36047	50407.5125
413.50311	49921.3125
417.64277	49476.4125
421.77947	49349.9125
425.9132	49450.6125
430.04396	49728.6125
434.17176	50031.2125
438.2966	50494.9125
442.41849	51212.9125
446.53742	52259.4125
450.6534	53374.4125
454.76644	54367.2125
458.87653	54776.2125
462.98368	54690.8125
467.08789	54170.2125
471.18916	53567.5125
475.2875	52971.3125
479.38291	52615.9125
483.4754	52220.5125
487.56496	51826.2125
491.6516	51369.0125
495.73531	51097.2125
499.81612	50983.7125
503.89401	51274.2125
507.96899	51383.2125
512.04106	51351.8125
516.11023	51213.4125
520.1765	51087.1125
524.23987	51041.8125
528.30034	50882.2125
532.35792	50656.8125
536.41261	50354.1125
540.46441	50068.2125
544.51333	50068.6125
548.55936	50396.3125
552.60252	51102.7125
556.64279	51923.6125
560.6802	52383.2125
564.71473	52564.2125
568.7464	52909.3125
572.7752	53642.9125
576.80114	54241.5125
580.82422	54805.9125
584.84444	55595.2125
588.86181	56295.1125
592.87633	56971.4125
596.888	57178.1125
600.89682	57093.3125
604.9028	58379.6125
608.90594	62031.7125
612.90624	65624.0125
616.90371	62798.8125
620.89834	55740.0125
624.89015	52681.3125
628.87913	52299.3125
632.86528	52405.5125
636.84862	52215.0125
640.82913	51830.8125
644.80683	51045.8125
648.78172	50371.2125
652.75379	50360.8125
656.72306	50855.1125
660.68952	51601.7125
664.65319	51450.9125
668.61405	50902.4125
672.57211	50828.3125
676.52738	50946.7125
680.47986	50895.6125
684.42955	50719.9125
688.37646	50688.7125
692.32058	50927.4125
696.26192	51339.3125
700.20048	51886.3125
704.13626	52185.3125
708.06928	52080.1125
711.99952	51766.4125
715.927	51623.2125
719.85171	51756.5125
723.77365	51842.2125
727.69284	51544.1125
731.60928	51102.3125
735.52295	50916.3125
739.43388	51047.3125
743.34206	51229.9125
747.24749	51384.3125
751.15017	51669.7125
755.05012	52097.6125
758.94733	53006.3125
762.8418	54683.8125
766.73354	57397.2125
770.62254	60163.2125
774.50882	60939.3125
778.39237	59090.2125
782.27321	56197.2125
786.15132	53675.8125
790.02671	52119.0125
793.89938	51432.5125
797.76935	51108.4125
801.6366	51040.2125
805.50115	50912.1125
809.36299	50846.6125
813.22213	50575.5125
817.07857	50414.3125
820.93231	50323.1125
824.78336	50366.7125
828.63172	50302.8125
832.47738	50315.1125
836.32036	50439.2125
840.16066	50483.4125
843.99827	50629.8125
847.8332	50638.2125
851.66546	50595.6125
855.49504	50472.6125
859.32195	50561.4125
863.1462	50517.8125
866.96777	50572.4125
870.78668	50557.0125
874.60293	50595.5125
878.41652	50570.9125
882.22745	50648.6125
886.03573	50785.1125
889.84136	50765.0125
893.64433	50545.8125
897.44466	50329.9125
901.24235	50182.8125
905.0374	50146.7125
908.8298	50045.4125
912.61957	50105.5125
916.40671	50343.5125
920.19121	50778.7125
923.97308	51104.3125
927.75233	51179.9125
931.52895	50960.2125
935.30295	50590.5125
939.07433	50129.7125
942.84309	49737.4125
946.60924	49521.8125
950.37278	49519.4125
954.13371	49528.5125
957.89203	49444.3125
961.64774	49314.7125
965.40086	49203.6125
969.15137	49141.0125
972.89929	48994.3125
976.64461	48959.0125
980.38733	49031.5125
984.12747	49143.9125
987.86502	49520.4125
991.59999	50016.0125
995.33237	50598.7125
999.06217	51525.6125
1002.78939	52405.3125
1006.51404	53097.3125
1010.23611	53531.7125
1013.95561	53799.0125
1017.67255	53903.5125
1021.38692	53576.4125
1025.09872	53220.7125
1028.80796	53235.0125
1032.51465	53782.7125
1036.21877	54344.0125
1039.92035	54405.8125
1043.61937	54095.6125
1047.31584	53425.0125
1051.00976	52843.3125
1054.70114	52613.1125
1058.38998	52676.4125
1062.07627	52868.2125
1065.76003	53196.1125
1069.44126	53556.2125
1073.11995	54014.0125
1076.79611	54431.8125
1080.46974	54849.7125
1084.14085	55208.6125
1087.80943	55633.6125
1091.47549	55826.9125
1095.13903	55772.9125
1098.80005	55343.6125
1102.45857	54796.5125
1106.11456	54358.5125
1109.76805	54244.2125
1113.41903	54499.7125
1117.06751	54760.7125
1120.71348	55078.4125
1124.35696	55387.7125
1127.99793	55608.2125
1131.63641	55645.0125
1135.2724	55446.8125
1138.90589	55094.0125
1142.5369	54918.0125
1146.16542	54831.3125
1149.79145	54916.3125
1153.415	55173.0125
1157.03607	55633.0125
1160.65467	56344.1125
1164.27079	57748.2125
1167.88443	59676.8125
1171.49561	62036.1125
1175.10432	65162.6125
1178.71056	68940.5125
1182.31434	72650.9125
1185.91565	74499.2125
1189.51451	74337.5125
1193.11091	72618.3125
1196.70485	70300.3125
1200.29634	68215.3125
1203.88538	66496.5125
1207.47197	65298.3125
1211.05612	64093.0125
1214.63782	63186.7125
1218.21708	62730.3125
1221.79391	62531.0125
1225.36829	62516.4125
1228.94024	62031.7125
1232.50976	61229.9125
1236.07685	60424.1125
1239.6415	60037.9125
1243.20374	60037.5125
1246.76355	60385.6125
1250.32093	61066.2125
1253.8759	61920.9125
1257.42845	63051.8125
1260.97859	64126.4125
1264.52631	65283.8125
1268.07163	66438.7125
1271.61453	67708.6125
1275.15503	69057.6125
1278.69312	70362.0125
1282.22882	71493.6125
1285.76211	72487.0125
1289.29301	73677.1125
1292.82151	75191.7125
1296.34761	77168.5125
1299.87133	80026.8125
1303.39266	83460.1125
1306.9116	87473.5125
1310.42815	91592.9125
1313.94233	94326.2125
1317.45412	94632.1125
1320.96354	93269.1125
1324.47058	91691.7125
1327.97525	89898.8125
1331.47754	88496.6125
1334.97747	87856.4125
1338.47502	87987.0125
1341.97022	88231.8125
1345.46305	88363.3125
1348.95352	88068.6125
1352.44163	87815.4125
1355.92738	88786.3125
1359.41078	91396.0125
1362.89183	93701.2125
1366.37053	92038.9125
1369.84688	85857.8125
1373.32088	78870.1125
1376.79254	73956.1125
1380.26186	71804.0125
1383.72883	71122.9125
1387.19347	70886.3125
1390.65578	70298.6125
1394.11575	69804.5125
1397.57339	69940.1125
1401.0287	70761.7125
1404.48168	71637.1125
1407.93234	71969.7125
1411.38068	71801.0125
1414.82669	70791.2125
1418.27039	69193.1125
1421.71177	67430.3125
1425.15083	65828.7125
1428.58758	65039.7125
1432.02203	65140.4125
1435.45416	66076.3125
1438.88399	67217.4125
1442.31151	68284.4125
1445.73673	68929.1125
1449.15965	69472.2125
1452.58027	69742.8125
1455.9986	69850.5125
1459.41463	70197.8125
1462.82837	71025.8125
1466.23982	72183.8125
1469.64898	73340.8125
1473.05586	74247.8125
1476.46045	74502.7125
1479.86276	74278.4125
1483.26279	73801.0125
1486.66054	73398.1125
1490.05602	73514.8125
1493.44922	73864.1125
1496.84016	74312.5125
1500.22882	75333.3125
1503.61521	77206.2125
1506.99934	79588.0125
1510.38121	81441.2125
1513.76081	81566.9125
1517.13816	79770.3125
1520.51324	77011.5125
1523.88607	74627.8125
1527.25665	73262.8125
1530.62498	72861.9125
1533.99105	72758.4125
1537.35488	72525.6125
1540.71647	72006.3125
1544.07581	71437.4125
1547.4329	70540.7125
1550.78776	69788.5125
1554.14038	69168.0125
1557.49077	68759.7125
1560.83892	68466.0125
1564.18484	68412.0125
1567.52853	68584.7125
1570.86999	68876.2125
1574.20922	69317.1125
1577.54624	69572.5125
1580.88103	69081.3125
1584.2136	68781.9125
1587.54395	69723.7125
1590.87208	71994.0125
1594.19801	75449.5125
1597.52172	79251.7125
1600.84321	80891.3125
1604.16251	78965.6125
1607.47959	75182.8125
1610.79447	70823.9125
1614.10715	66675.6125
1617.41763	63125.7125
1620.7259	60504.8125
1624.03199	59020.3125
1627.33587	58716.1125
1630.63757	59655.1125
1633.93707	61900.6125
1637.23439	65657.9125
1640.52951	71190.6125
1643.82246	77299.7125
1647.11321	81989.4125
1650.40179	82540.9125
1653.68819	78139.2125
1656.97241	70826.9125
1660.25446	63685.2125
1663.53433	58381.3125
1666.81203	54938.7125
1670.08756	52843.8125
1673.36092	51491.1125
1676.63211	50437.9125
1679.90115	49755.0125
1683.16801	49183.9125
1686.43272	48772.5125
1689.69527	48483.5125
1692.95567	48344.8125
1696.2139	48205.4125
1699.46999	48118.1125
1702.72392	47991.5125
1705.97571	47966.3125
1709.22535	47811.4125
1712.47284	47871.3125
1715.71819	47790.2125
1718.96139	47683.4125
1722.20246	47627.8125
1725.44139	47479.4125
1728.67818	47303.7125
1731.91284	47094.4125
1735.14537	46913.3125
1738.37576	46745.4125
1741.60403	46649.7125
1744.83017	46408.5125
1748.05418	46400.1125
1751.27607	46292.6125
1754.49584	46272.1125
1757.71349	46264.0125
1760.92903	46259.0125
1764.14244	46175.9125
1767.35375	46159.4125
1770.56294	46045.4125
1773.77002	46001.8125
1776.97499	46031.9125
1780.17785	45934.6125
1783.37861	45922.6125
1786.57727	45791.5125
1789.77382	45726.2125
1792.96828	45689.7125
1796.16064	45740.4125
1799.3509	45564.9125
1802.53907	45503.7125
1805.72514	45400.7125
1808.90913	45332.9125
1812.09102	45227.5125
1815.27083	45179.8125
1818.44856	45109.1125
1821.6242	45006.7125
1824.79776	45021.2125
1827.96924	44986.3125
1831.13864	44975.1125
1834.30597	44918.0125
1837.47122	44854.9125
1840.6344	44779.3125
1843.7955	44813.9125
1846.95454	44742.4125
1850.11151	44752.6125
1853.26642	44759.3125
1856.41926	44724.9125
1859.57004	44732.4125
1862.71876	44624.7125
1865.86542	44611.9125
1869.01003	44557.7125
1872.15258	44501.8125
1875.29308	44539.1125
1878.43152	44454.7125
1881.56792	44419.4125
1884.70227	44467.5125
1887.83457	44436.2125
1890.96482	44400.3125
1894.09304	44283.1125
1897.21921	44346.5125
1900.34335	44210.3125
1903.46544	44144.1125
1906.58551	44163.4125
1909.70353	44117.7125
1912.81953	44074.2125
1915.93349	43992.8125
1919.04543	43883.8125
1922.15534	43904.7125
1925.26322	43829.1125
1928.36908	43757.7125
1931.47292	43675.5125
1934.57473	43611.2125
1937.67453	43586.9125
1940.77232	43465.4125
1943.86808	43310.1125
1946.96184	43250.3125
1950.05358	43064.8125
1953.14331	42989.7125
1956.23103	42846.5125
1959.31675	42757.3125
1962.40046	42653.1125
1965.48217	42495.1125
1968.56188	42389.4125
1971.63959	42289.1125
1974.7153	42118.5125
1977.78901	42019.3125
1980.86073	41940.3125
1983.93046	41850.9125
1986.99819	41688.3125
1990.06394	41646.2125
1993.1277	41494.4125
1996.18947	41340.2125
1999.24925	41304.8125
2002.30706	41214.4125
2005.36288	41019.3125
2008.41672	40901.3125
2011.46859	40830.3125
2014.51848	40746.4125
2017.56639	40632.9125
2020.61233	40551.0125
2023.6563	40456.4125
2026.6983	40345.0125
2029.73833	40241.5125
2032.7764	40189.6125
2035.8125	40133.7125
2038.84664	40034.0125
2041.87881	40030.0125
2044.90903	40021.1125
2047.93729	39899.1125
2050.96359	39873.3125
2053.98794	39801.3125
2057.01034	39788.1125
2060.03078	39810.9125
2063.04927	39766.4125
2066.06582	39702.5125
2069.08042	39645.0125
2072.09307	39637.0125
2075.10378	39600.0125
2078.11255	39575.3125
2081.11938	39644.2125
2084.12426	39557.9125
2087.12722	39527.8125
2090.12824	39534.6125
2093.12732	39606.8125
2096.12447	39609.5125
2099.11969	39557.8125
2102.11299	39539.6125
2105.10435	39550.2125
2108.09379	39623.5125
2111.08131	39605.8125
2114.0669	39596.4125
2117.05057	39666.0125
2120.03233	39715.1125
2123.01216	39775.9125
2125.99008	39837.8125
2128.96609	39854.8125
2131.94018	39853.4125
2134.91236	39888.4125
2137.88263	39965.6125
2140.851	39948.2125
2143.81746	40011.3125
2146.78201	40046.5125
2149.74466	40113.7125
2152.7054	40070.0125
2155.66425	40043.4125
2158.6212	40056.0125
2161.57625	40022.3125
2164.52941	39980.4125
2167.48067	39987.2125
2170.43004	39994.9125
2173.37752	39949.5125
2176.32311	40002.7125
2179.26681	40013.0125
2182.20863	39991.4125
2185.14856	40085.7125
2188.08661	40097.9125
2191.02278	39971.7125
2193.95707	39932.8125
2196.88948	39912.0125
2199.82001	39943.8125
2202.74867	39896.7125
2205.67545	39896.5125
2208.60037	39797.0125
2211.52341	39822.6125
2214.44458	39817.6125
2217.36388	39758.3125
2220.28132	39720.5125
2223.1969	39591.8125
2226.11061	39495.6125
2229.02246	39384.6125
2231.93245	39324.1125
2234.84058	39209.4125
2237.74686	39162.4125
2240.65128	39164.8125
2243.55385	39101.6125
2246.45456	39113.5125
2249.35343	39096.5125
2252.25044	39061.0125
2255.14561	38999.2125
2258.03893	38920.6125
2260.93041	38844.6125
2263.82004	38771.7125
2266.70783	38716.8125
2269.59378	38642.0125
2272.4779	38570.3125
2275.36017	38466.9125
2278.24061	38432.4125
2281.11922	38320.1125
2283.996	38222.6125
2286.87094	38247.1125
2289.74405	38224.5125
2292.61534	38165.4125
2295.4848	38087.2125
2298.35243	38161.9125
2301.21824	38097.6125
2304.08223	38109.5125
2306.94439	38109.0125
2309.80474	38123.2125
2312.66327	38085.2125
2315.51999	38091.7125
2318.37489	38043.0125
2321.22797	38033.4125
2324.07925	38009.8125
2326.92871	37887.9125
2329.77637	37881.1125
2332.62222	37830.5125
2335.46626	37799.8125
2338.3085	37770.4125
2341.14893	37765.3125
2343.98756	37756.1125
2346.8244	37703.5125
2349.65943	37739.5125
2352.49267	37720.2125
2355.32411	37701.5125
2358.15376	37676.6125
2360.98161	37653.9125
2363.80768	37640.8125
2366.63195	37589.6125
2369.45444	37506.8125
2372.27514	37479.3125
2375.09405	37459.0125
2377.91118	37376.7125
2380.72652	37299.4125
2383.54009	37233.0125
2386.35187	37159.2125
2389.16188	37020.0125
2391.97011	37007.9125
2394.77657	36934.8125
2397.58125	36937.9125
2400.38416	36884.8125
2403.18529	36771.9125
2405.98466	36757.1125
2408.78226	36706.8125
2411.57809	36606.8125
2414.37216	36608.2125
2417.16446	36605.7125
2419.955	36506.3125
2422.74378	36517.6125
2425.5308	36499.8125
2428.31606	36504.9125
2431.09956	36483.2125
2433.88131	36436.8125
2436.6613	36352.3125
2439.43954	36374.1125
2442.21603	36354.4125
2444.99077	36297.9125
2447.76377	36313.2125
2450.53501	36232.6125
2453.30451	36260.8125
2456.07226	36218.5125
2458.83827	36220.3125
2461.60254	36126.2125
2464.36507	36168.7125
2467.12586	36134.7125
2469.88492	36169.1125
2472.64224	36146.8125
2475.39782	36132.3125
2478.15167	36125.2125
2480.90379	36138.1125
2483.65417	36185.5125
2486.40283	36175.3125
2489.14976	36125.5125
2491.89497	36098.0125
2494.63845	36178.5125
2497.3802	36088.9125
2500.12024	36088.9125
2502.85855	36062.6125
2505.59514	36036.9125
2508.33002	35992.9125
2511.06318	35954.9125
2513.79462	35886.1125
2516.52435	35882.5125
2519.25237	35835.4125
2521.97867	35815.4125
2524.70327	35792.8125
2527.42616	35753.1125
2530.14734	35751.2125
2532.86681	35692.4125
2535.58458	35707.6125
2538.30065	35657.9125
2541.01501	35633.4125
2543.72768	35644.7125
2546.43864	35629.1125
2549.14791	35540.5125
2551.85548	35471.1125
2554.56136	35365.5125
2557.26554	35341.7125
2559.96803	35317.0125
2562.66883	35262.7125
2565.36794	35204.6125
2568.06536	35180.6125
2570.7611	35099.4125
2573.45514	35095.1125
2576.14751	35030.8125
2578.83819	34977.6125
2581.52719	34993.4125
2584.21451	34965.6125
2586.90015	34953.5125
2589.58411	34905.2125
2592.2664	34859.5125
2594.94701	34803.2125
2597.62594	34812.8125
2600.30321	34750.3125
2602.9788	34739.5125
2605.65273	34690.8125
2608.32498	34751.7125
2610.99557	34668.8125
2613.66449	34693.9125
2616.33175	34676.1125
2618.99734	34653.8125
2621.66128	34597.7125
2624.32355	34532.9125
2626.98416	34537.3125
2629.64311	34519.1125
2632.30041	34560.4125
2634.95605	34486.0125
2637.61004	34426.5125
2640.26238	34426.9125
2642.91306	34408.4125
2645.56209	34279.5125
2648.20948	34341.4125
2650.85521	34316.0125
2653.4993	34306.1125
2656.14175	34247.7125
2658.78255	34306.2125
2661.42171	34341.5125
2664.05923	34328.9125
2666.6951	34372.4125
2669.32934	34337.0125
2671.96194	34309.7125
2674.59291	34404.4125
2677.22224	34381.5125
2679.84993	34360.3125
2682.476	34287.7125
2685.10043	34326.6125
2687.72324	34269.1125
2690.34441	34268.1125
2692.96396	34280.3125
2695.58188	34258.2125
2698.19818	34226.1125
2700.81285	34219.4125
2703.4259	34186.4125
2706.03733	34264.1125
2708.64714	34258.8125
2711.25533	34228.9125
2713.86191	34253.7125
2716.46687	34290.2125
2719.07021	34291.2125
2721.67194	34292.8125
2724.27206	34243.5125
2726.87057	34316.1125
2729.46747	34306.3125
2732.06276	34283.2125
2734.65644	34280.2125
2737.24852	34314.0125
2739.83899	34310.9125
2742.42786	34337.7125
2745.01513	34304.7125
2747.60079	34237.2125
2750.18486	34204.9125
2752.76733	34222.7125
2755.3482	34091.2125
2757.92747	34088.7125
2760.50515	34049.6125
2763.08123	34037.4125
2765.65573	34047.2125
2768.22863	34060.6125
2770.79994	33969.5125
2773.36967	34013.1125
2775.9378	33974.8125
2778.50435	33997.4125
2781.06932	33941.9125
2783.6327	33925.0125
2786.1945	33875.6125
2788.75471	33840.0125
2791.31335	33766.7125
2793.87041	33765.1125
2796.42589	33652.3125
2798.97979	33591.9125
2801.53212	33467.2125
2804.08288	33447.5125
2806.63206	33414.4125
2809.17967	33319.1125
2811.72571	33248.3125
2814.27018	33133.3125
2816.81308	33016.6125
2819.35442	33003.9125
2821.89419	32948.5125
2824.43239	32965.5125
2826.96904	32964.5125
2829.50412	32927.7125
2832.03763	32838.6125
2834.56959	32837.2125
2837.1	32802.7125
2839.62884	32745.5125
2842.15613	32645.8125
2844.68186	32667.2125
2847.20604	32605.9125
2849.72867	32597.1125
2852.24974	32524.4125
2854.76927	32485.4125
2857.28724	32501.6125
2859.80367	32500.8125
2862.31855	32486.0125
2864.83189	32399.0125
2867.34368	32277.4125
2869.85393	32366.0125
2872.36264	32318.6125
2874.8698	32294.3125
2877.37543	32288.8125
2879.87952	32270.0125
2882.38207	32229.1125
2884.88308	32195.0125
2887.38256	32227.8125
2889.88051	32207.4125
2892.37692	32238.3125
2894.8718	32226.0125
2897.36515	32293.1125
2899.85698	32291.7125
2902.34727	32324.6125
2904.83604	32322.8125
2907.32328	32406.2125
2909.809	32381.4125
2912.29319	32373.1125
2914.77587	32401.0125
2917.25702	32403.9125
2919.73665	32384.3125
2922.21476	32391.7125
2924.69136	32319.2125
2927.16644	32287.1125
2929.64	32204.6125
2932.11205	32177.8125
2934.58258	32140.8125
2937.05161	32202.6125
2939.51912	32202.5125
2941.98513	32181.7125
2944.44962	32124.0125
2946.91261	32086.9125
2949.37409	32129.2125
2951.83407	32135.9125
2954.29254	32129.4125
2956.74951	32102.2125
2959.20498	32090.6125
2961.65895	32048.7125
2964.11142	32062.8125
2966.56239	32012.3125
2969.01186	31983.4125
2971.45984	31941.3125
2973.90632	31894.4125
2976.35131	31871.1125
2978.7948	31793.5125
2981.23681	31761.6125
2983.67732	31706.1125
2986.11635	31615.1125
2988.55388	31572.5125
2990.98993	31537.0125
2993.4245	31521.7125
2995.85758	31471.0125
2998.28917	31352.4125
3000.71928	31344.6125
3003.14791	31257.2125
3005.57506	31245.2125
3008.00073	31157.0125
3010.42493	31097.0125
3012.84764	30981.8125
3015.26888	31035.1125
3017.68865	30987.9125
3020.10694	30934.1125
3022.52376	30861.3125
3024.9391	30860.3125
3027.35298	30837.7125
3029.76539	30805.6125
3032.17632	30779.3125
3034.5858	30716.9125
3036.9938	30683.0125
3039.40034	30627.5125
3041.80542	30650.7125
3044.20903	30601.7125
3046.61118	30534.3125
3049.01187	30421.4125
3051.4111	30434.6125
3053.80888	30346.8125
3056.20519	30311.9125
3058.60005	30258.7125
3060.99345	30214.5125
3063.3854	30141.0125
3065.7759	30001.9125
3068.16494	29987.2125
3070.55254	29863.0125
3072.93868	29809.4125
3075.32338	29718.7125
3077.70662	29683.8125
3080.08842	29569.5125
3082.46878	29550.3125
3084.84769	29546.2125
3087.22515	29496.1125
3089.60118	29447.6125
3091.97576	29405.9125
3094.3489	29475.7125
3096.72061	29408.0125
3099.09087	29453.1125
3101.4597	29439.5125
3103.82709	29446.1125
3106.19305	29400.5125
3108.55757	29406.9125
3110.92066	29335.7125
3113.28232	29292.6125
3115.64255	29193.1125
3118.00134	29125.6125
3120.35871	29085.7125
3122.71466	28999.9125
3125.06917	28972.8125
3127.42226	28931.3125
3129.77393	28891.1125
3132.12417	28849.5125
3134.47299	28821.7125
3136.82039	28796.5125
3139.16636	28816.2125
3141.51092	28779.4125
3143.85406	28756.9125
3146.19579	28753.8125
3148.53609	28763.2125
3150.87499	28823.2125
3153.21246	28796.5125
3155.54853	28854.5125
3157.88318	28802.8125
3160.21642	28806.3125
3162.54826	28795.0125
3164.87868	28772.4125
3167.2077	28673.1125
3169.5353	28703.5125
3171.86151	28677.9125
3174.18631	28678.7125
3176.5097	28602.7125
3178.83169	28556.6125
3181.15228	28541.7125
3183.47147	28525.1125
3185.78926	28493.0125
3188.10565	28462.5125
3190.42065	28421.8125
3192.73424	28384.5125
3195.04645	28294.7125
3197.35725	28346.7125
3199.66667	28332.0125
3201.97469	28331.3125
3204.28132	28299.3125
3206.58656	28307.9125
3208.8904	28279.4125
3211.19287	28315.7125
3213.49394	28269.5125
3215.79363	28324.1125
3218.09193	28361.7125
3220.38884	28344.7125
3222.68438	28386.6125
3224.97853	28253.9125
3227.2713	28280.5125
3229.56269	28233.4125
3231.8527	28227.0125
3234.14133	28169.9125
3236.42858	28104.5125
3238.71446	28061.1125
3240.99896	28044.0125
3243.28209	27995.9125
3245.56384	27981.8125
3247.84423	27927.7125
3250.12324	27943.0125
3252.40088	27877.7125
3254.67715	27892.3125
3256.95205	27880.9125
3259.22558	27850.1125
3261.49775	27820.1125
3263.76855	27782.3125
3266.03799	27738.9125
3268.30606	27663.3125
3270.57277	27605.5125
3272.83812	27566.7125
3275.10211	27521.5125
3277.36474	27487.0125
3279.62601	27485.6125
3281.88593	27424.8125
3284.14448	27441.1125
3286.40168	27426.5125
3288.65753	27396.0125
3290.91202	27365.3125
3293.16516	27328.1125
3295.41695	27246.3125
3297.66738	27070.4125
3299.91647	26954.8125
3302.16421	26828.6125
3304.4106	26710.5125
3306.65564	26539.2125
3308.89933	26328.2125
3311.14169	26200.8125
3313.38269	26000.2125
3315.62236	25853.4125
3317.86068	25675.1125
3320.09766	25429.1125
3322.3333	25257.4125
3324.5676	25156.3125
3326.80056	24811.8125
3329.03219	24652.6125
3331.26248	6.8125
3333.49143	0.5125
3335.71905	0.0125
