Data from AgNPs_FTO_APTES_UA_20uM_CRN_0uM_R6G_10uM_NaF_0.1M_Addition_RamanShift__21__11-14-11-949.txt Node

Date: Thu Feb 17 11:14:11 GMT 2022
User: TCL
Spectrometer: QEP01345
Trigger mode: 4
Integration Time (sec): 7.000000E0
Scans to average: 10
Electric dark correction enabled: true
Nonlinearity correction enabled: false
Boxcar width: 0
XAxis mode: Raman Shifts
Number of Pixels in Spectrum: 1044
>>>>>Begin Spectral Data<<<<<
46.04893	1.7875
50.45542	-0.3125
54.85868	-2.8125
59.25871	-0.2125
63.6555	39.7875
68.04907	41.4875
72.43941	45.8875
76.82654	44.6875
81.21044	49.2875
85.59113	50.4875
89.96862	51.7875
94.34289	55.1875
98.71396	55.4875
103.08183	58.2875
107.4465	59.0875
111.80798	55.6875
116.16626	60.7875
120.52136	59.9875
124.87327	60.4875
129.222	65.7875
133.56755	67.3875
137.90993	71.6875
142.24913	74.6875
146.58517	84.4875
150.91804	100.4875
155.24774	114.3875
159.57429	136.4875
163.89768	180.5875
168.21792	239.5875
172.53501	323.3875
176.84895	442.9875
181.15975	627.1875
185.46741	871.8875
189.77193	1189.2875
194.07331	1600.0875
198.37157	2046.8875
202.6667	2533.3875
206.9587	3044.4875
211.24758	3552.1875
215.53334	4103.5875
219.81599	4734.3875
224.09553	5448.0875
228.37195	6261.6875
232.64527	7095.6875
236.91549	7909.6875
241.18261	8596.0875
245.44663	9108.6875
249.70755	9547.3875
253.96539	9887.0875
258.22014	10162.8875
262.4718	10335.6875
266.72039	10390.5875
270.96589	10246.0875
275.20832	10049.4875
279.44768	9743.0875
283.68397	9465.2875
287.91719	9301.5875
292.14735	9343.6875
296.37445	9659.5875
300.59849	10308.8875
304.81948	11080.8875
309.03742	11763.5875
313.25231	11971.0875
317.46415	11429.8875
321.67296	10339.9875
325.87872	9325.9875
330.08145	8792.4875
334.28114	8761.3875
338.47781	8963.0875
342.67145	9256.5875
346.86207	9816.8875
351.04966	10609.9875
355.23424	11623.3875
359.4158	12331.4875
363.59435	12654.3875
367.76989	12575.6875
371.94243	12409.1875
376.11196	12197.6875
380.27849	12008.5875
384.44203	11733.9875
388.60257	11415.2875
392.76012	11207.9875
396.91468	11250.8875
401.06626	11561.5875
405.21485	11826.1875
409.36047	11501.5875
413.50311	10596.0875
417.64277	9765.4875
421.77947	9239.9875
425.9132	9058.3875
430.04396	9091.5875
434.17176	9167.5875
438.2966	9466.9875
442.41849	9962.7875
446.53742	10577.6875
450.6534	11147.3875
454.76644	11314.0875
458.87653	11116.3875
462.98368	10719.6875
467.08789	10249.6875
471.18916	9826.7875
475.2875	9358.8875
479.38291	8932.1875
483.4754	8593.8875
487.56496	8344.6875
491.6516	8219.8875
495.73531	8145.7875
499.81612	8178.8875
503.89401	8304.1875
507.96899	8509.0875
512.04106	8735.1875
516.11023	8978.9875
520.1765	9197.9875
524.23987	9251.5875
528.30034	9142.6875
532.35792	8967.3875
536.41261	8682.5875
540.46441	8333.6875
544.51333	8147.1875
548.55936	8174.0875
552.60252	8396.4875
556.64279	8779.7875
560.6802	9008.3875
564.71473	9280.4875
568.7464	9979.9875
572.7752	10397.8875
576.80114	9881.7875
580.82422	9193.0875
584.84444	8943.6875
588.86181	9259.2875
592.87633	9894.8875
596.888	10275.0875
600.89682	10276.0875
604.9028	11543.8875
608.90594	16147.9875
612.90624	22582.3875
616.90371	21869.5875
620.89834	13579.7875
624.89015	9256.8875
628.87913	8388.4875
632.86528	8520.0875
636.84862	8748.1875
640.82913	8483.1875
644.80683	7792.7875
648.78172	7280.9875
652.75379	7268.5875
656.72306	7861.8875
660.68952	8513.3875
664.65319	8370.6875
668.61405	7633.6875
672.57211	7285.6875
676.52738	7274.7875
680.47986	7186.3875
684.42955	6988.6875
688.37646	6884.1875
692.32058	6936.1875
696.26192	7108.1875
700.20048	7357.4875
704.13626	7473.2875
708.06928	7422.2875
711.99952	7286.4875
715.927	7292.8875
719.85171	7379.6875
723.77365	7398.3875
727.69284	7282.7875
731.60928	7171.2875
735.52295	7208.0875
739.43388	7280.5875
743.34206	7320.9875
747.24749	7350.8875
751.15017	7347.4875
755.05012	7577.0875
758.94733	8230.9875
762.8418	9894.4875
766.73354	12681.2875
770.62254	15406.4875
774.50882	16935.5875
778.39237	16515.4875
782.27321	13795.1875
786.15132	10600.7875
790.02671	8648.4875
793.89938	7769.3875
797.76935	7410.1875
801.6366	7245.8875
805.50115	7151.3875
809.36299	7068.0875
813.22213	6990.3875
817.07857	6944.9875
820.93231	6902.2875
824.78336	6963.8875
828.63172	7053.3875
832.47738	7068.8875
836.32036	7028.8875
840.16066	6921.5875
843.99827	6854.1875
847.8332	6820.7875
851.66546	6793.2875
855.49504	6793.6875
859.32195	6740.6875
863.1462	6698.2875
866.96777	6678.6875
870.78668	6653.1875
874.60293	6698.7875
878.41652	6767.5875
882.22745	6879.8875
886.03573	6963.0875
889.84136	6949.1875
893.64433	6869.9875
897.44466	6858.1875
901.24235	6842.2875
905.0374	6775.6875
908.8298	6655.5875
912.61957	6590.8875
916.40671	6599.0875
920.19121	6650.9875
923.97308	6759.0875
927.75233	6961.5875
931.52895	7167.4875
935.30295	7059.9875
939.07433	6638.7875
942.84309	6314.6875
946.60924	6135.1875
950.37278	6042.9875
954.13371	6005.6875
957.89203	5985.6875
961.64774	5963.5875
965.40086	5933.6875
969.15137	5926.5875
972.89929	5895.5875
976.64461	5885.2875
980.38733	5891.3875
984.12747	5900.9875
987.86502	5948.2875
991.59999	6050.4875
995.33237	6207.4875
999.06217	6456.6875
1002.78939	6782.5875
1006.51404	7063.2875
1010.23611	7314.7875
1013.95561	7440.6875
1017.67255	7400.7875
1021.38692	7106.1875
1025.09872	6767.2875
1028.80796	6552.5875
1032.51465	6505.0875
1036.21877	6551.5875
1039.92035	6630.1875
1043.61937	6687.5875
1047.31584	6712.7875
1051.00976	6680.4875
1054.70114	6639.4875
1058.38998	6592.0875
1062.07627	6610.6875
1065.76003	6596.5875
1069.44126	6684.2875
1073.11995	6850.0875
1076.79611	7126.8875
1080.46974	7502.2875
1084.14085	8003.3875
1087.80943	8473.7875
1091.47549	8543.1875
1095.13903	8254.0875
1098.80005	7706.7875
1102.45857	7304.2875
1106.11456	7217.4875
1109.76805	7350.0875
1113.41903	7715.8875
1117.06751	8315.7875
1120.71348	9136.9875
1124.35696	10107.9875
1127.99793	10769.6875
1131.63641	10411.6875
1135.2724	9465.9875
1138.90589	8615.5875
1142.5369	8085.7875
1146.16542	7833.0875
1149.79145	7644.9875
1153.415	7569.2875
1157.03607	7664.3875
1160.65467	7926.0875
1164.27079	8462.6875
1167.88443	9375.2875
1171.49561	10756.8875
1175.10432	12975.6875
1178.71056	15904.9875
1182.31434	18201.8875
1185.91565	18841.3875
1189.51451	18145.5875
1193.11091	16807.2875
1196.70485	15246.2875
1200.29634	13868.5875
1203.88538	12500.1875
1207.47197	11059.5875
1211.05612	9950.4875
1214.63782	9394.7875
1218.21708	9380.4875
1221.79391	9490.4875
1225.36829	9462.0875
1228.94024	9271.1875
1232.50976	9048.0875
1236.07685	8966.9875
1239.6415	9043.6875
1243.20374	9151.7875
1246.76355	9138.2875
1250.32093	9196.3875
1253.8759	9501.7875
1257.42845	10000.6875
1260.97859	10641.4875
1264.52631	11388.8875
1268.07163	12090.5875
1271.61453	12576.5875
1275.15503	12787.5875
1278.69312	12808.3875
1282.22882	12990.8875
1285.76211	13541.1875
1289.29301	14400.4875
1292.82151	15384.0875
1296.34761	16365.4875
1299.87133	17752.7875
1303.39266	19828.8875
1306.9116	23076.0875
1310.42815	26714.4875
1313.94233	28480.4875
1317.45412	27117.5875
1320.96354	24046.7875
1324.47058	20777.3875
1327.97525	18234.1875
1331.47754	16816.2875
1334.97747	16580.9875
1338.47502	17079.4875
1341.97022	17994.5875
1345.46305	19091.1875
1348.95352	20735.2875
1352.44163	23097.5875
1355.92738	26760.2875
1359.41078	31870.8875
1362.89183	35820.5875
1366.37053	33727.9875
1369.84688	27170.2875
1373.32088	21330.0875
1376.79254	17921.5875
1380.26186	16143.2875
1383.72883	14963.4875
1387.19347	13896.5875
1390.65578	12907.9875
1394.11575	12303.8875
1397.57339	12130.7875
1401.0287	12252.6875
1404.48168	12459.6875
1407.93234	12639.4875
1411.38068	12736.3875
1414.82669	12666.3875
1418.27039	12366.8875
1421.71177	11889.9875
1425.15083	11558.8875
1428.58758	11544.4875
1432.02203	11874.5875
1435.45416	12212.1875
1438.88399	12367.7875
1442.31151	12377.4875
1445.73673	12407.6875
1449.15965	12488.4875
1452.58027	12390.0875
1455.9986	12094.5875
1459.41463	12037.1875
1462.82837	12342.9875
1466.23982	12907.5875
1469.64898	13471.5875
1473.05586	13832.3875
1476.46045	14056.4875
1479.86276	14359.3875
1483.26279	14680.0875
1486.66054	15087.4875
1490.05602	15693.6875
1493.44922	16427.0875
1496.84016	17672.8875
1500.22882	19820.1875
1503.61521	23033.4875
1506.99934	26825.9875
1510.38121	30139.9875
1513.76081	31037.0875
1517.13816	28298.9875
1520.51324	23385.5875
1523.88607	19033.6875
1527.25665	16411.9875
1530.62498	15149.6875
1533.99105	14504.8875
1537.35488	14063.1875
1540.71647	13773.9875
1544.07581	13556.9875
1547.4329	13368.8875
1550.78776	13176.6875
1554.14038	13016.9875
1557.49077	12982.5875
1560.83892	13077.0875
1564.18484	13586.2875
1567.52853	14357.7875
1570.86999	15105.1875
1574.20922	15494.0875
1577.54624	15354.4875
1580.88103	14197.8875
1584.2136	12662.2875
1587.54395	11937.4875
1590.87208	12346.5875
1594.19801	13680.1875
1597.52172	15576.6875
1600.84321	16761.8875
1604.16251	16237.1875
1607.47959	14570.8875
1610.79447	12490.4875
1614.10715	10664.5875
1617.41763	9382.9875
1620.7259	8642.3875
1624.03199	8335.3875
1627.33587	8380.5875
1630.63757	8797.7875
1633.93707	9674.4875
1637.23439	11232.9875
1640.52951	13753.5875
1643.82246	17232.8875
1647.11321	20821.2875
1650.40179	22603.9875
1653.68819	20967.5875
1656.97241	16754.7875
1660.25446	12602.3875
1663.53433	9733.5875
1666.81203	8068.2875
1670.08756	7193.6875
1673.36092	6672.1875
1676.63211	6321.0875
1679.90115	6120.2875
1683.16801	5940.3875
1686.43272	5844.3875
1689.69527	5762.9875
1692.95567	5699.0875
1696.2139	5660.3875
1699.46999	5647.2875
1702.72392	5630.1875
1705.97571	5594.8875
1709.22535	5552.1875
1712.47284	5561.0875
1715.71819	5567.2875
1718.96139	5569.8875
1722.20246	5550.4875
1725.44139	5495.9875
1728.67818	5429.7875
1731.91284	5341.5875
1735.14537	5264.9875
1738.37576	5179.8875
1741.60403	5176.6875
1744.83017	5165.5875
1748.05418	5132.4875
1751.27607	5117.5875
1754.49584	5108.6875
1757.71349	5098.1875
1760.92903	5089.7875
1764.14244	5063.9875
1767.35375	5041.0875
1770.56294	5028.2875
1773.77002	5000.3875
1776.97499	4964.2875
1780.17785	4913.7875
1783.37861	4908.7875
1786.57727	4871.9875
1789.77382	4868.4875
1792.96828	4852.0875
1796.16064	4858.1875
1799.3509	4845.8875
1802.53907	4853.0875
1805.72514	4816.8875
1808.90913	4794.4875
1812.09102	4781.3875
1815.27083	4764.0875
1818.44856	4759.8875
1821.6242	4734.5875
1824.79776	4727.0875
1827.96924	4707.8875
1831.13864	4716.9875
1834.30597	4703.6875
1837.47122	4710.3875
1840.6344	4670.1875
1843.7955	4684.3875
1846.95454	4658.0875
1850.11151	4659.4875
1853.26642	4654.0875
1856.41926	4665.8875
1859.57004	4675.5875
1862.71876	4670.9875
1865.86542	4672.5875
1869.01003	4668.7875
1872.15258	4657.3875
1875.29308	4665.5875
1878.43152	4678.4875
1881.56792	4651.9875
1884.70227	4671.9875
1887.83457	4676.8875
1890.96482	4678.2875
1894.09304	4695.7875
1897.21921	4671.0875
1900.34335	4675.8875
1903.46544	4674.5875
1906.58551	4689.6875
1909.70353	4697.5875
1912.81953	4679.6875
1915.93349	4682.5875
1919.04543	4650.7875
1922.15534	4657.5875
1925.26322	4614.6875
1928.36908	4605.8875
1931.47292	4571.3875
1934.57473	4546.0875
1937.67453	4517.4875
1940.77232	4506.5875
1943.86808	4487.2875
1946.96184	4483.9875
1950.05358	4468.7875
1953.14331	4443.1875
1956.23103	4440.6875
1959.31675	4412.6875
1962.40046	4406.9875
1965.48217	4409.2875
1968.56188	4408.2875
1971.63959	4408.8875
1974.7153	4416.1875
1977.78901	4376.3875
1980.86073	4371.4875
1983.93046	4345.6875
1986.99819	4318.6875
1990.06394	4303.9875
1993.1277	4287.9875
1996.18947	4267.6875
1999.24925	4262.0875
2002.30706	4260.6875
2005.36288	4238.7875
2008.41672	4212.2875
2011.46859	4215.5875
2014.51848	4193.3875
2017.56639	4181.0875
2020.61233	4173.5875
2023.6563	4154.0875
2026.6983	4149.5875
2029.73833	4114.5875
2032.7764	4114.6875
2035.8125	4108.0875
2038.84664	4098.4875
2041.87881	4101.8875
2044.90903	4088.2875
2047.93729	4081.0875
2050.96359	4087.1875
2053.98794	4075.3875
2057.01034	4088.0875
2060.03078	4064.7875
2063.04927	4053.5875
2066.06582	4063.2875
2069.08042	4058.2875
2072.09307	4028.5875
2075.10378	4021.3875
2078.11255	4028.4875
2081.11938	4046.5875
2084.12426	4038.6875
2087.12722	4037.2875
2090.12824	4032.4875
2093.12732	4031.1875
2096.12447	4028.7875
2099.11969	4038.9875
2102.11299	4040.3875
2105.10435	4035.1875
2108.09379	4033.6875
2111.08131	4040.2875
2114.0669	4043.0875
2117.05057	4037.4875
2120.03233	4042.7875
2123.01216	4055.2875
2125.99008	4082.3875
2128.96609	4075.5875
2131.94018	4060.7875
2134.91236	4074.4875
2137.88263	4069.6875
2140.851	4078.7875
2143.81746	4068.7875
2146.78201	4066.4875
2149.74466	4058.7875
2152.7054	4053.8875
2155.66425	4052.3875
2158.6212	4050.5875
2161.57625	4038.4875
2164.52941	4037.8875
2167.48067	4037.8875
2170.43004	4039.8875
2173.37752	4040.6875
2176.32311	4051.6875
2179.26681	4059.6875
2182.20863	4061.2875
2185.14856	4062.3875
2188.08661	4050.1875
2191.02278	4075.1875
2193.95707	4046.8875
2196.88948	4044.8875
2199.82001	4039.6875
2202.74867	4041.3875
2205.67545	4033.7875
2208.60037	4035.3875
2211.52341	4019.1875
2214.44458	4020.2875
2217.36388	4016.8875
2220.28132	4015.9875
2223.1969	3986.5875
2226.11061	3976.8875
2229.02246	3975.8875
2231.93245	3980.0875
2234.84058	3963.0875
2237.74686	3974.3875
2240.65128	3954.5875
2243.55385	3962.5875
2246.45456	3960.1875
2249.35343	3960.1875
2252.25044	3954.0875
2255.14561	3974.0875
2258.03893	3997.1875
2260.93041	3980.1875
2263.82004	3995.5875
2266.70783	3977.9875
2269.59378	3974.1875
2272.4779	3957.8875
2275.36017	3942.0875
2278.24061	3944.8875
2281.11922	3925.7875
2283.996	3915.1875
2286.87094	3917.7875
2289.74405	3911.5875
2292.61534	3895.1875
2295.4848	3903.8875
2298.35243	3893.6875
2301.21824	3881.9875
2304.08223	3880.1875
2306.94439	3878.1875
2309.80474	3878.0875
2312.66327	3898.3875
2315.51999	3886.1875
2318.37489	3890.3875
2321.22797	3882.1875
2324.07925	3871.7875
2326.92871	3872.9875
2329.77637	3885.5875
2332.62222	3866.9875
2335.46626	3888.9875
2338.3085	3878.3875
2341.14893	3884.7875
2343.98756	3883.0875
2346.8244	3889.2875
2349.65943	3899.4875
2352.49267	3917.0875
2355.32411	3926.8875
2358.15376	3942.2875
2360.98161	3961.9875
2363.80768	3969.9875
2366.63195	3999.1875
2369.45444	3985.8875
2372.27514	3989.2875
2375.09405	3984.3875
2377.91118	3993.8875
2380.72652	3966.3875
2383.54009	3950.6875
2386.35187	3931.5875
2389.16188	3899.4875
2391.97011	3891.7875
2394.77657	3887.4875
2397.58125	3851.0875
2400.38416	3845.5875
2403.18529	3833.8875
2405.98466	3815.8875
2408.78226	3819.8875
2411.57809	3827.1875
2414.37216	3811.5875
2417.16446	3812.2875
2419.955	3814.3875
2422.74378	3816.6875
2425.5308	3814.1875
2428.31606	3825.6875
2431.09956	3831.9875
2433.88131	3842.3875
2436.6613	3846.4875
2439.43954	3843.4875
2442.21603	3848.0875
2444.99077	3853.6875
2447.76377	3875.0875
2450.53501	3871.4875
2453.30451	3894.1875
2456.07226	3880.9875
2458.83827	3888.1875
2461.60254	3885.6875
2464.36507	3886.6875
2467.12586	3884.3875
2469.88492	3892.3875
2472.64224	3893.1875
2475.39782	3895.9875
2478.15167	3940.5875
2480.90379	3943.6875
2483.65417	3970.9875
2486.40283	3976.0875
2489.14976	4010.1875
2491.89497	4006.1875
2494.63845	4008.8875
2497.3802	4006.2875
2500.12024	4016.0875
2502.85855	3999.4875
2505.59514	4000.0875
2508.33002	3955.6875
2511.06318	3946.1875
2513.79462	3914.8875
2516.52435	3911.0875
2519.25237	3863.1875
2521.97867	3868.3875
2524.70327	3851.6875
2527.42616	3853.4875
2530.14734	3859.8875
2532.86681	3835.7875
2535.58458	3833.4875
2538.30065	3840.3875
2541.01501	3857.1875
2543.72768	3866.8875
2546.43864	3866.5875
2549.14791	3875.5875
2551.85548	3872.9875
2554.56136	3854.7875
2557.26554	3876.2875
2559.96803	3878.3875
2562.66883	3866.1875
2565.36794	3864.1875
2568.06536	3856.1875
2570.7611	3863.7875
2573.45514	3869.1875
2576.14751	3851.4875
2578.83819	3851.5875
2581.52719	3853.6875
2584.21451	3839.0875
2586.90015	3841.8875
2589.58411	3828.7875
2592.2664	3810.0875
2594.94701	3834.0875
2597.62594	3841.6875
2600.30321	3830.2875
2602.9788	3839.6875
2605.65273	3829.3875
2608.32498	3834.7875
2610.99557	3848.9875
2613.66449	3854.8875
2616.33175	3857.3875
2618.99734	3855.1875
2621.66128	3861.1875
2624.32355	3831.0875
2626.98416	3849.1875
2629.64311	3838.6875
2632.30041	3838.7875
2634.95605	3834.2875
2637.61004	3828.4875
2640.26238	3804.7875
2642.91306	3820.1875
2645.56209	3810.5875
2648.20948	3832.8875
2650.85521	3834.3875
2653.4993	3847.8875
2656.14175	3826.8875
2658.78255	3858.8875
2661.42171	3859.5875
2664.05923	3861.6875
2666.6951	3878.5875
2669.32934	3888.3875
2671.96194	3880.6875
2674.59291	3906.5875
2677.22224	3905.8875
2679.84993	3905.6875
2682.476	3894.3875
2685.10043	3901.5875
2687.72324	3884.0875
2690.34441	3891.7875
2692.96396	3881.7875
2695.58188	3895.4875
2698.19818	3894.3875
2700.81285	3912.1875
2703.4259	3904.5875
2706.03733	3926.0875
2708.64714	3929.4875
2711.25533	3926.3875
2713.86191	3941.1875
2716.46687	3949.8875
2719.07021	3960.7875
2721.67194	3964.3875
2724.27206	3970.4875
2726.87057	3981.3875
2729.46747	3967.6875
2732.06276	3953.2875
2734.65644	3942.6875
2737.24852	3966.4875
2739.83899	3936.8875
2742.42786	3956.2875
2745.01513	3932.5875
2747.60079	3926.7875
2750.18486	3927.3875
2752.76733	3930.1875
2755.3482	3906.2875
2757.92747	3907.9875
2760.50515	3894.7875
2763.08123	3901.2875
2765.65573	3896.6875
2768.22863	3907.3875
2770.79994	3903.1875
2773.36967	3916.9875
2775.9378	3919.5875
2778.50435	3924.5875
2781.06932	3929.4875
2783.6327	3944.5875
2786.1945	3944.7875
2788.75471	3938.2875
2791.31335	3942.5875
2793.87041	3943.0875
2796.42589	3957.6875
2798.97979	3948.6875
2801.53212	3947.6875
2804.08288	3959.0875
2806.63206	3962.2875
2809.17967	3952.4875
2811.72571	3967.4875
2814.27018	3974.1875
2816.81308	3970.5875
2819.35442	3976.1875
2821.89419	3990.7875
2824.43239	3997.4875
2826.96904	4002.7875
2829.50412	4025.6875
2832.03763	4013.2875
2834.56959	4019.9875
2837.1	4021.4875
2839.62884	4040.4875
2842.15613	4068.0875
2844.68186	4101.2875
2847.20604	4150.4875
2849.72867	4186.5875
2852.24974	4176.5875
2854.76927	4183.8875
2857.28724	4186.5875
2859.80367	4184.8875
2862.31855	4196.2875
2864.83189	4188.1875
2867.34368	4179.9875
2869.85393	4179.0875
2872.36264	4175.5875
2874.8698	4185.9875
2877.37543	4170.9875
2879.87952	4153.3875
2882.38207	4153.0875
2884.88308	4160.8875
2887.38256	4135.4875
2889.88051	4128.8875
2892.37692	4143.3875
2894.8718	4121.9875
2897.36515	4128.4875
2899.85698	4125.8875
2902.34727	4147.8875
2904.83604	4157.9875
2907.32328	4149.4875
2909.809	4152.5875
2912.29319	4155.0875
2914.77587	4126.5875
2917.25702	4128.2875
2919.73665	4129.1875
2922.21476	4115.1875
2924.69136	4108.9875
2927.16644	4081.2875
2929.64	4089.9875
2932.11205	4065.7875
2934.58258	4039.5875
2937.05161	4039.9875
2939.51912	4025.8875
2941.98513	3997.4875
2944.44962	3959.6875
2946.91261	3932.3875
2949.37409	3922.3875
2951.83407	3902.6875
2954.29254	3890.4875
2956.74951	3880.3875
2959.20498	3883.1875
2961.65895	3873.4875
2964.11142	3874.9875
2966.56239	3845.0875
2969.01186	3835.3875
2971.45984	3818.8875
2973.90632	3802.7875
2976.35131	3784.5875
2978.7948	3774.1875
2981.23681	3751.0875
2983.67732	3739.0875
2986.11635	3716.5875
2988.55388	3728.6875
2990.98993	3741.4875
2993.4245	3698.1875
2995.85758	3683.5875
2998.28917	3685.6875
3000.71928	3671.7875
3003.14791	3659.6875
3005.57506	3663.7875
3008.00073	3674.5875
3010.42493	3666.8875
3012.84764	3657.8875
3015.26888	3659.9875
3017.68865	3657.3875
3020.10694	3660.8875
3022.52376	3653.8875
3024.9391	3622.5875
3027.35298	3624.9875
3029.76539	3673.0875
3032.17632	3630.3875
3034.5858	3614.0875
3036.9938	3571.3875
3039.40034	3561.2875
3041.80542	3565.4875
3044.20903	3543.3875
3046.61118	3553.8875
3049.01187	3532.3875
3051.4111	3544.6875
3053.80888	3528.2875
3056.20519	3520.5875
3058.60005	3524.8875
3060.99345	3519.1875
3063.3854	3512.9875
3065.7759	3503.5875
3068.16494	3482.1875
3070.55254	3464.2875
3072.93868	3457.9875
3075.32338	3457.1875
3077.70662	3445.0875
3080.08842	3421.3875
3082.46878	3408.4875
3084.84769	3404.0875
3087.22515	3408.2875
3089.60118	3408.9875
3091.97576	3399.0875
3094.3489	3408.0875
3096.72061	3391.8875
3099.09087	3389.9875
3101.4597	3388.2875
3103.82709	3404.3875
3106.19305	3393.4875
3108.55757	3384.8875
3110.92066	3380.6875
3113.28232	3377.4875
3115.64255	3368.8875
3118.00134	3370.0875
3120.35871	3347.4875
3122.71466	3334.4875
3125.06917	3351.3875
3127.42226	3351.4875
3129.77393	3350.9875
3132.12417	3342.3875
3134.47299	3361.7875
3136.82039	3347.7875
3139.16636	3351.4875
3141.51092	3359.5875
3143.85406	3353.2875
3146.19579	3357.7875
3148.53609	3365.5875
3150.87499	3364.5875
3153.21246	3370.7875
3155.54853	3381.8875
3157.88318	3370.7875
3160.21642	3376.8875
3162.54826	3363.2875
3164.87868	3375.0875
3167.2077	3385.4875
3169.5353	3377.6875
3171.86151	3387.5875
3174.18631	3395.7875
3176.5097	3398.1875
3178.83169	3390.0875
3181.15228	3390.1875
3183.47147	3380.0875
3185.78926	3383.9875
3188.10565	3376.9875
3190.42065	3381.8875
3192.73424	3390.5875
3195.04645	3371.8875
3197.35725	3379.3875
3199.66667	3390.3875
3201.97469	3401.0875
3204.28132	3412.0875
3206.58656	3409.9875
3208.8904	3411.4875
3211.19287	3426.0875
3213.49394	3422.6875
3215.79363	3438.6875
3218.09193	3439.5875
3220.38884	3455.4875
3222.68438	3447.3875
3224.97853	3436.6875
3227.2713	3432.1875
3229.56269	3426.0875
3231.8527	3440.4875
3234.14133	3429.7875
3236.42858	3421.0875
3238.71446	3426.1875
3240.99896	3424.5875
3243.28209	3425.9875
3245.56384	3424.3875
3247.84423	3426.0875
3250.12324	3415.8875
3252.40088	3404.0875
3254.67715	3426.8875
3256.95205	3398.9875
3259.22558	3401.3875
3261.49775	3400.9875
3263.76855	3398.6875
3266.03799	3371.1875
3268.30606	3370.4875
3270.57277	3377.3875
3272.83812	3372.0875
3275.10211	3384.6875
3277.36474	3361.5875
3279.62601	3375.0875
3281.88593	3365.7875
3284.14448	3363.6875
3286.40168	3372.1875
3288.65753	3366.0875
3290.91202	3368.3875
3293.16516	3363.8875
3295.41695	3351.7875
3297.66738	3343.3875
3299.91647	3335.9875
3302.16421	3305.3875
3304.4106	3279.8875
3306.65564	3257.4875
3308.89933	3226.1875
3311.14169	3203.4875
3313.38269	3178.9875
3315.62236	3163.7875
3317.86068	3127.7875
3320.09766	3079.8875
3322.3333	3070.8875
3324.5676	3056.3875
3326.80056	2995.9875
3329.03219	2986.9875
3331.26248	1.8875
3333.49143	0.4875
3335.71905	-0.5125
