Data from AgNPs_FTO_APTES_UA_20uM_CRN_10uM_R6G_10uM_NaF_0.1M_Addition_RamanShift__28__14-43-02-222.txt Node

Date: Thu Feb 17 14:43:02 GMT 2022
User: TCL
Spectrometer: QEP01345
Trigger mode: 4
Integration Time (sec): 7.000000E0
Scans to average: 10
Electric dark correction enabled: true
Nonlinearity correction enabled: false
Boxcar width: 0
XAxis mode: Raman Shifts
Number of Pixels in Spectrum: 1044
>>>>>Begin Spectral Data<<<<<
46.04893	0.3875
50.45542	-0.8125
54.85868	-2.9125
59.25871	-2.4125
63.6555	114.1875
68.04907	117.4875
72.43941	120.7875
76.82654	123.9875
81.21044	126.6875
85.59113	133.5875
89.96862	134.4875
94.34289	141.3875
98.71396	146.1875
103.08183	149.3875
107.4465	151.9875
111.80798	159.4875
116.16626	162.3875
120.52136	167.8875
124.87327	174.7875
129.222	192.4875
133.56755	197.1875
137.90993	214.1875
142.24913	235.3875
146.58517	269.7875
150.91804	313.7875
155.24774	372.3875
159.57429	467.0875
163.89768	609.4875
168.21792	809.7875
172.53501	1115.1875
176.84895	1556.8875
181.15975	2188.4875
185.46741	3090.0875
189.77193	4266.8875
194.07331	5736.3875
198.37157	7416.9875
202.6667	9197.7875
206.9587	10971.7875
211.24758	12685.1875
215.53334	14414.7875
219.81599	16290.8875
224.09553	18322.1875
228.37195	20636.2875
232.64527	23187.0875
236.91549	25886.9875
241.18261	28578.7875
245.44663	31099.9875
249.70755	33333.1875
253.96539	35307.2875
258.22014	37026.9875
262.4718	38404.0875
266.72039	39424.0875
270.96589	40036.1875
275.20832	40138.1875
279.44768	39926.2875
283.68397	39481.5875
287.91719	39150.5875
292.14735	39040.9875
296.37445	39157.6875
300.59849	39411.4875
304.81948	39838.8875
309.03742	40101.3875
313.25231	39793.2875
317.46415	38893.5875
321.67296	37696.3875
325.87872	36691.4875
330.08145	36269.6875
334.28114	36305.6875
338.47781	36701.7875
342.67145	37320.1875
346.86207	38176.5875
351.04966	39225.6875
355.23424	40407.5875
359.4158	41347.8875
363.59435	42082.6875
367.76989	42503.0875
371.94243	42815.0875
376.11196	43023.0875
380.27849	43282.6875
384.44203	43383.4875
388.60257	43387.4875
392.76012	43563.7875
396.91468	43964.8875
401.06626	44658.3875
405.21485	45286.4875
409.36047	45154.6875
413.50311	44337.9875
417.64277	43506.9875
421.77947	43199.5875
425.9132	43195.7875
430.04396	43494.4875
434.17176	43815.6875
438.2966	44400.9875
442.41849	45233.1875
446.53742	46315.6875
450.6534	47536.8875
454.76644	48522.5875
458.87653	48889.6875
462.98368	48683.9875
467.08789	48071.6875
471.18916	47294.5875
475.2875	46434.2875
479.38291	45825.9875
483.4754	45377.9875
487.56496	44858.0875
491.6516	44395.1875
495.73531	43991.2875
499.81612	43875.4875
503.89401	44100.9875
507.96899	44235.1875
512.04106	44312.8875
516.11023	44490.1875
520.1765	44641.4875
524.23987	44640.4875
528.30034	44349.6875
532.35792	44057.9875
536.41261	43647.1875
540.46441	43251.2875
544.51333	43140.5875
548.55936	43456.8875
552.60252	44201.1875
556.64279	44973.2875
560.6802	45388.7875
564.71473	45584.9875
568.7464	46151.0875
572.7752	46804.7875
576.80114	46877.4875
580.82422	46800.4875
584.84444	47077.6875
588.86181	47542.8875
592.87633	48273.5875
596.888	48827.5875
600.89682	49314.9875
604.9028	51714.3875
608.90594	57869.2875
612.90624	64960.8875
616.90371	62278.9875
620.89834	51796.6875
624.89015	47025.0875
628.87913	46305.8875
632.86528	46125.4875
636.84862	45851.3875
640.82913	45264.3875
644.80683	44219.0875
648.78172	43465.5875
652.75379	43494.6875
656.72306	44294.3875
660.68952	45314.9875
664.65319	45222.3875
668.61405	44303.8875
672.57211	43957.5875
676.52738	43965.2875
680.47986	43968.6875
684.42955	43908.1875
688.37646	43907.6875
692.32058	44204.8875
696.26192	44554.5875
700.20048	44993.7875
704.13626	45212.9875
708.06928	45035.0875
711.99952	44720.4875
715.927	44694.8875
719.85171	44796.2875
723.77365	44756.7875
727.69284	44506.4875
731.60928	44187.4875
735.52295	44233.1875
739.43388	44378.4875
743.34206	44684.7875
747.24749	44953.4875
751.15017	45249.2875
755.05012	45903.5875
758.94733	47029.8875
762.8418	49325.7875
766.73354	53171.2875
770.62254	57051.8875
774.50882	58622.6875
778.39237	56297.4875
782.27321	51930.3875
786.15132	48173.9875
790.02671	46052.7875
793.89938	45116.1875
797.76935	44752.4875
801.6366	44637.6875
805.50115	44534.9875
809.36299	44384.5875
813.22213	44245.3875
817.07857	44195.3875
820.93231	44226.1875
824.78336	44303.8875
828.63172	44388.3875
832.47738	44470.8875
836.32036	44613.7875
840.16066	44734.2875
843.99827	44838.9875
847.8332	44805.0875
851.66546	44648.7875
855.49504	44560.5875
859.32195	44443.8875
863.1462	44336.7875
866.96777	44256.2875
870.78668	44214.0875
874.60293	44278.9875
878.41652	44355.9875
882.22745	44488.4875
886.03573	44573.0875
889.84136	44484.2875
893.64433	44295.4875
897.44466	44170.5875
901.24235	44119.4875
905.0374	44111.8875
908.8298	44100.5875
912.61957	44197.3875
916.40671	44494.9875
920.19121	44894.9875
923.97308	45377.3875
927.75233	45655.9875
931.52895	45662.9875
935.30295	45271.7875
939.07433	44641.9875
942.84309	44140.0875
946.60924	43864.1875
950.37278	43732.7875
954.13371	43510.0875
957.89203	43309.9875
961.64774	43184.3875
965.40086	43056.7875
969.15137	42895.6875
972.89929	42747.6875
976.64461	42755.6875
980.38733	42768.1875
984.12747	42922.9875
987.86502	43243.7875
991.59999	43769.9875
995.33237	44570.8875
999.06217	45990.0875
1002.78939	47587.5875
1006.51404	48602.7875
1010.23611	49082.4875
1013.95561	49473.6875
1017.67255	49505.4875
1021.38692	49188.1875
1025.09872	49066.9875
1028.80796	49811.1875
1032.51465	51378.6875
1036.21877	52643.5875
1039.92035	52732.5875
1043.61937	51907.7875
1047.31584	50458.9875
1051.00976	48820.8875
1054.70114	47883.4875
1058.38998	47587.3875
1062.07627	47534.1875
1065.76003	47561.6875
1069.44126	47631.5875
1073.11995	47863.5875
1076.79611	48146.9875
1080.46974	48524.9875
1084.14085	48999.6875
1087.80943	49506.2875
1091.47549	49719.8875
1095.13903	49292.7875
1098.80005	48544.2875
1102.45857	47950.7875
1106.11456	47700.2875
1109.76805	47906.5875
1113.41903	48403.5875
1117.06751	49061.3875
1120.71348	49726.2875
1124.35696	50378.5875
1127.99793	50828.8875
1131.63641	50739.1875
1135.2724	50065.8875
1138.90589	49315.3875
1142.5369	48890.3875
1146.16542	48594.0875
1149.79145	48537.8875
1153.415	48825.0875
1157.03607	49306.5875
1160.65467	49988.4875
1164.27079	51185.5875
1167.88443	53008.4875
1171.49561	55718.2875
1175.10432	59581.2875
1178.71056	64668.2875
1182.31434	69382.8875
1185.91565	71619.5875
1189.51451	70919.5875
1193.11091	68089.9875
1196.70485	64599.8875
1200.29634	61843.8875
1203.88538	59944.4875
1207.47197	58261.3875
1211.05612	56820.4875
1214.63782	56018.7875
1218.21708	56047.1875
1221.79391	56405.8875
1225.36829	56548.2875
1228.94024	56091.5875
1232.50976	55231.9875
1236.07685	54668.8875
1239.6415	54651.1875
1243.20374	54842.7875
1246.76355	55408.0875
1250.32093	56256.8875
1253.8759	57484.3875
1257.42845	58879.8875
1260.97859	59987.3875
1264.52631	60894.6875
1268.07163	61920.0875
1271.61453	63163.8875
1275.15503	64639.8875
1278.69312	66129.1875
1282.22882	67308.2875
1285.76211	68350.7875
1289.29301	69395.3875
1292.82151	70715.8875
1296.34761	72581.3875
1299.87133	75525.6875
1303.39266	79805.3875
1306.9116	85296.3875
1310.42815	91213.3875
1313.94233	94611.9875
1317.45412	94004.4875
1320.96354	90777.5875
1324.47058	87105.1875
1327.97525	83723.7875
1331.47754	81565.4875
1334.97747	81200.3875
1338.47502	82250.7875
1341.97022	83665.5875
1345.46305	84577.9875
1348.95352	84905.9875
1352.44163	85651.2875
1355.92738	88356.6875
1359.41078	93983.9875
1362.89183	99378.3875
1366.37053	97104.5875
1369.84688	87502.3875
1373.32088	77675.8875
1376.79254	71073.8875
1380.26186	67875.1875
1383.72883	66484.4875
1387.19347	65729.7875
1390.65578	64931.3875
1394.11575	64600.4875
1397.57339	64915.3875
1401.0287	65989.5875
1404.48168	67313.2875
1407.93234	68665.0875
1411.38068	69835.9875
1414.82669	69950.8875
1418.27039	68596.5875
1421.71177	66516.5875
1425.15083	64480.1875
1428.58758	63348.7875
1432.02203	63264.9875
1435.45416	63704.4875
1438.88399	64355.7875
1442.31151	64950.1875
1445.73673	65563.3875
1449.15965	66079.3875
1452.58027	66302.4875
1455.9986	66116.2875
1459.41463	66014.9875
1462.82837	66493.2875
1466.23982	67638.2875
1469.64898	68938.8875
1473.05586	70032.2875
1476.46045	70805.6875
1479.86276	71377.6875
1483.26279	71900.8875
1486.66054	72485.9875
1490.05602	73484.7875
1493.44922	74665.9875
1496.84016	75764.3875
1500.22882	77377.4875
1503.61521	80204.8875
1506.99934	84085.5875
1510.38121	87499.7875
1513.76081	88449.3875
1517.13816	85666.8875
1520.51324	80807.0875
1523.88607	76036.3875
1527.25665	73011.2875
1530.62498	71274.5875
1533.99105	70302.6875
1537.35488	69747.4875
1540.71647	69388.6875
1544.07581	68997.0875
1547.4329	68587.1875
1550.78776	67918.3875
1554.14038	67449.4875
1557.49077	67260.0875
1560.83892	67227.9875
1564.18484	67286.6875
1567.52853	67313.7875
1570.86999	67469.9875
1574.20922	67609.8875
1577.54624	67484.7875
1580.88103	66659.4875
1584.2136	65777.2875
1587.54395	66540.2875
1590.87208	69265.0875
1594.19801	73624.0875
1597.52172	78565.1875
1600.84321	80833.4875
1604.16251	78763.1875
1607.47959	74059.9875
1610.79447	68682.1875
1614.10715	63754.4875
1617.41763	59920.3875
1620.7259	57423.3875
1624.03199	56259.2875
1627.33587	56311.5875
1630.63757	57470.4875
1633.93707	59914.7875
1637.23439	63231.8875
1640.52951	67503.1875
1643.82246	72365.2875
1647.11321	76569.6875
1650.40179	78038.3875
1653.68819	74654.2875
1656.97241	67386.3875
1660.25446	59982.2875
1663.53433	54572.3875
1666.81203	51231.1875
1670.08756	49141.6875
1673.36092	47809.5875
1676.63211	46892.5875
1679.90115	46211.0875
1683.16801	45680.5875
1686.43272	45294.6875
1689.69527	45126.3875
1692.95567	44876.2875
1696.2139	44820.6875
1699.46999	44745.2875
1702.72392	44641.1875
1705.97571	44656.7875
1709.22535	44605.8875
1712.47284	44574.6875
1715.71819	44626.1875
1718.96139	44555.6875
1722.20246	44419.6875
1725.44139	44309.8875
1728.67818	44152.1875
1731.91284	43947.5875
1735.14537	43743.2875
1738.37576	43613.3875
1741.60403	43534.1875
1744.83017	43333.4875
1748.05418	43248.3875
1751.27607	43230.8875
1754.49584	43236.9875
1757.71349	43271.6875
1760.92903	43256.6875
1764.14244	43130.3875
1767.35375	43103.3875
1770.56294	43068.1875
1773.77002	43079.8875
1776.97499	43037.7875
1780.17785	43024.9875
1783.37861	42981.9875
1786.57727	42870.5875
1789.77382	42844.7875
1792.96828	42845.0875
1796.16064	42838.0875
1799.3509	42803.6875
1802.53907	42757.4875
1805.72514	42642.2875
1808.90913	42544.9875
1812.09102	42535.3875
1815.27083	42446.1875
1818.44856	42391.0875
1821.6242	42361.9875
1824.79776	42329.4875
1827.96924	42289.4875
1831.13864	42242.7875
1834.30597	42294.4875
1837.47122	42240.9875
1840.6344	42158.6875
1843.7955	42250.2875
1846.95454	42186.8875
1850.11151	42218.7875
1853.26642	42219.4875
1856.41926	42238.7875
1859.57004	42198.1875
1862.71876	42176.2875
1865.86542	42172.6875
1869.01003	42183.4875
1872.15258	42137.3875
1875.29308	42197.8875
1878.43152	42149.0875
1881.56792	42134.7875
1884.70227	42226.9875
1887.83457	42176.3875
1890.96482	42175.4875
1894.09304	42093.1875
1897.21921	42080.3875
1900.34335	42012.7875
1903.46544	42023.4875
1906.58551	42042.7875
1909.70353	42007.5875
1912.81953	41983.6875
1915.93349	41999.7875
1919.04543	41913.9875
1922.15534	41895.3875
1925.26322	41844.1875
1928.36908	41778.5875
1931.47292	41769.0875
1934.57473	41650.8875
1937.67453	41594.1875
1940.77232	41499.1875
1943.86808	41333.5875
1946.96184	41258.1875
1950.05358	41130.1875
1953.14331	41020.9875
1956.23103	40894.7875
1959.31675	40820.1875
1962.40046	40733.0875
1965.48217	40548.3875
1968.56188	40477.7875
1971.63959	40355.5875
1974.7153	40233.7875
1977.78901	40136.2875
1980.86073	40061.2875
1983.93046	39942.0875
1986.99819	39784.7875
1990.06394	39686.9875
1993.1277	39609.1875
1996.18947	39515.7875
1999.24925	39445.9875
2002.30706	39344.5875
2005.36288	39223.6875
2008.41672	39130.5875
2011.46859	39029.3875
2014.51848	38939.2875
2017.56639	38842.2875
2020.61233	38805.1875
2023.6563	38675.5875
2026.6983	38566.7875
2029.73833	38514.4875
2032.7764	38418.5875
2035.8125	38352.9875
2038.84664	38347.8875
2041.87881	38375.0875
2044.90903	38257.7875
2047.93729	38265.3875
2050.96359	38183.3875
2053.98794	38114.4875
2057.01034	38167.9875
2060.03078	38108.6875
2063.04927	38099.0875
2066.06582	38061.4875
2069.08042	38042.4875
2072.09307	37959.0875
2075.10378	37909.4875
2078.11255	37877.0875
2081.11938	37890.5875
2084.12426	37824.3875
2087.12722	37846.2875
2090.12824	37782.8875
2093.12732	37809.6875
2096.12447	37828.9875
2099.11969	37788.2875
2102.11299	37814.9875
2105.10435	37801.1875
2108.09379	37866.0875
2111.08131	37869.5875
2114.0669	37860.1875
2117.05057	37903.4875
2120.03233	37909.8875
2123.01216	38000.3875
2125.99008	38073.0875
2128.96609	38104.9875
2131.94018	38079.5875
2134.91236	38145.7875
2137.88263	38192.5875
2140.851	38174.8875
2143.81746	38259.1875
2146.78201	38267.0875
2149.74466	38344.9875
2152.7054	38346.9875
2155.66425	38313.3875
2158.6212	38323.1875
2161.57625	38273.3875
2164.52941	38268.9875
2167.48067	38212.0875
2170.43004	38191.6875
2173.37752	38246.2875
2176.32311	38227.3875
2179.26681	38253.9875
2182.20863	38315.7875
2185.14856	38331.7875
2188.08661	38339.4875
2191.02278	38321.7875
2193.95707	38324.1875
2196.88948	38286.0875
2199.82001	38302.4875
2202.74867	38267.4875
2205.67545	38276.3875
2208.60037	38226.7875
2211.52341	38207.9875
2214.44458	38239.1875
2217.36388	38191.6875
2220.28132	38179.1875
2223.1969	38070.1875
2226.11061	37965.6875
2229.02246	37861.8875
2231.93245	37791.0875
2234.84058	37734.5875
2237.74686	37700.3875
2240.65128	37610.8875
2243.55385	37609.8875
2246.45456	37623.1875
2249.35343	37610.5875
2252.25044	37537.2875
2255.14561	37509.3875
2258.03893	37443.2875
2260.93041	37399.4875
2263.82004	37345.7875
2266.70783	37236.7875
2269.59378	37218.8875
2272.4779	37133.7875
2275.36017	37056.7875
2278.24061	36985.9875
2281.11922	36886.0875
2283.996	36832.3875
2286.87094	36827.7875
2289.74405	36822.3875
2292.61534	36802.8875
2295.4848	36733.7875
2298.35243	36721.7875
2301.21824	36806.6875
2304.08223	36811.0875
2306.94439	36821.2875
2309.80474	36833.6875
2312.66327	36901.0875
2315.51999	36861.3875
2318.37489	36844.2875
2321.22797	36834.2875
2324.07925	36809.7875
2326.92871	36762.9875
2329.77637	36753.9875
2332.62222	36711.2875
2335.46626	36755.4875
2338.3085	36721.0875
2341.14893	36683.4875
2343.98756	36745.1875
2346.8244	36751.5875
2349.65943	36758.7875
2352.49267	36826.5875
2355.32411	36824.4875
2358.15376	36787.2875
2360.98161	36771.6875
2363.80768	36699.9875
2366.63195	36650.1875
2369.45444	36570.1875
2372.27514	36489.0875
2375.09405	36443.8875
2377.91118	36393.3875
2380.72652	36292.1875
2383.54009	36149.8875
2386.35187	36083.5875
2389.16188	36005.1875
2391.97011	35976.6875
2394.77657	35953.6875
2397.58125	35900.0875
2400.38416	35876.4875
2403.18529	35756.7875
2405.98466	35739.7875
2408.78226	35602.1875
2411.57809	35585.0875
2414.37216	35471.8875
2417.16446	35440.0875
2419.955	35390.6875
2422.74378	35387.4875
2425.5308	35357.0875
2428.31606	35391.2875
2431.09956	35378.6875
2433.88131	35321.6875
2436.6613	35325.2875
2439.43954	35313.9875
2442.21603	35301.0875
2444.99077	35267.1875
2447.76377	35234.3875
2450.53501	35166.3875
2453.30451	35186.2875
2456.07226	35138.7875
2458.83827	35179.3875
2461.60254	35083.4875
2464.36507	35126.6875
2467.12586	35126.9875
2469.88492	35146.6875
2472.64224	35132.4875
2475.39782	35138.0875
2478.15167	35220.2875
2480.90379	35220.1875
2483.65417	35292.9875
2486.40283	35287.8875
2489.14976	35274.1875
2491.89497	35264.2875
2494.63845	35335.3875
2497.3802	35335.0875
2500.12024	35300.9875
2502.85855	35295.3875
2505.59514	35272.2875
2508.33002	35197.8875
2511.06318	35122.1875
2513.79462	35113.7875
2516.52435	35106.5875
2519.25237	35006.7875
2521.97867	35002.8875
2524.70327	34991.3875
2527.42616	34996.3875
2530.14734	34937.6875
2532.86681	34916.2875
2535.58458	34893.3875
2538.30065	34895.4875
2541.01501	34879.0875
2543.72768	34921.4875
2546.43864	34858.5875
2549.14791	34825.3875
2551.85548	34729.0875
2554.56136	34718.9875
2557.26554	34598.2875
2559.96803	34595.1875
2562.66883	34553.4875
2565.36794	34510.8875
2568.06536	34524.6875
2570.7611	34485.4875
2573.45514	34464.4875
2576.14751	34434.6875
2578.83819	34398.3875
2581.52719	34430.9875
2584.21451	34421.4875
2586.90015	34402.5875
2589.58411	34369.8875
2592.2664	34335.8875
2594.94701	34304.7875
2597.62594	34327.9875
2600.30321	34270.1875
2602.9788	34299.9875
2605.65273	34268.4875
2608.32498	34258.4875
2610.99557	34261.9875
2613.66449	34292.9875
2616.33175	34295.3875
2618.99734	34320.9875
2621.66128	34306.7875
2624.32355	34306.4875
2626.98416	34295.0875
2629.64311	34315.6875
2632.30041	34274.1875
2634.95605	34249.9875
2637.61004	34199.3875
2640.26238	34183.3875
2642.91306	34113.4875
2645.56209	34021.8875
2648.20948	34029.0875
2650.85521	34006.1875
2653.4993	33973.6875
2656.14175	33951.4875
2658.78255	34014.9875
2661.42171	34014.3875
2664.05923	34101.6875
2666.6951	34050.9875
2669.32934	34110.9875
2671.96194	34123.1875
2674.59291	34196.7875
2677.22224	34166.8875
2679.84993	34208.2875
2682.476	34116.4875
2685.10043	34116.5875
2687.72324	34076.5875
2690.34441	34065.1875
2692.96396	34064.9875
2695.58188	34074.3875
2698.19818	33977.3875
2700.81285	33961.0875
2703.4259	33947.3875
2706.03733	34066.9875
2708.64714	34010.2875
2711.25533	33985.5875
2713.86191	33987.2875
2716.46687	34104.4875
2719.07021	34034.3875
2721.67194	34040.6875
2724.27206	34009.5875
2726.87057	34059.6875
2729.46747	34046.8875
2732.06276	34073.5875
2734.65644	33990.8875
2737.24852	34155.9875
2739.83899	34087.7875
2742.42786	34133.6875
2745.01513	34098.6875
2747.60079	34087.2875
2750.18486	33988.0875
2752.76733	34047.4875
2755.3482	34011.0875
2757.92747	33992.2875
2760.50515	33927.1875
2763.08123	33938.4875
2765.65573	33929.8875
2768.22863	33961.3875
2770.79994	33890.4875
2773.36967	33889.0875
2775.9378	33959.4875
2778.50435	33890.8875
2781.06932	33884.8875
2783.6327	33918.1875
2786.1945	33832.9875
2788.75471	33856.9875
2791.31335	33749.0875
2793.87041	33717.8875
2796.42589	33623.0875
2798.97979	33622.7875
2801.53212	33524.4875
2804.08288	33541.3875
2806.63206	33437.5875
2809.17967	33421.3875
2811.72571	33320.3875
2814.27018	33238.9875
2816.81308	33162.1875
2819.35442	33239.7875
2821.89419	33138.7875
2824.43239	33210.0875
2826.96904	33171.8875
2829.50412	33217.5875
2832.03763	33122.6875
2834.56959	33100.3875
2837.1	33048.8875
2839.62884	32982.0875
2842.15613	32939.7875
2844.68186	32910.1875
2847.20604	32922.1875
2849.72867	32864.7875
2852.24974	32857.9875
2854.76927	32814.4875
2857.28724	32810.8875
2859.80367	32820.1875
2862.31855	32774.9875
2864.83189	32665.2875
2867.34368	32654.8875
2869.85393	32684.4875
2872.36264	32675.3875
2874.8698	32588.3875
2877.37543	32585.0875
2879.87952	32609.5875
2882.38207	32587.8875
2884.88308	32582.1875
2887.38256	32627.5875
2889.88051	32608.4875
2892.37692	32663.9875
2894.8718	32692.9875
2897.36515	32702.2875
2899.85698	32699.1875
2902.34727	32753.4875
2904.83604	32739.1875
2907.32328	32793.5875
2909.809	32765.6875
2912.29319	32837.7875
2914.77587	32825.3875
2917.25702	32800.7875
2919.73665	32801.5875
2922.21476	32745.7875
2924.69136	32683.1875
2927.16644	32672.5875
2929.64	32618.0875
2932.11205	32592.4875
2934.58258	32491.8875
2937.05161	32577.5875
2939.51912	32584.0875
2941.98513	32546.8875
2944.44962	32545.7875
2946.91261	32465.6875
2949.37409	32556.8875
2951.83407	32545.6875
2954.29254	32479.0875
2956.74951	32459.3875
2959.20498	32492.2875
2961.65895	32394.4875
2964.11142	32406.8875
2966.56239	32413.5875
2969.01186	32384.8875
2971.45984	32287.5875
2973.90632	32257.6875
2976.35131	32160.4875
2978.7948	32139.9875
2981.23681	32078.0875
2983.67732	32045.5875
2986.11635	31975.1875
2988.55388	31898.0875
2990.98993	31867.6875
2993.4245	31802.4875
2995.85758	31769.3875
2998.28917	31738.7875
3000.71928	31635.3875
3003.14791	31598.0875
3005.57506	31568.6875
3008.00073	31511.1875
3010.42493	31462.6875
3012.84764	31392.7875
3015.26888	31367.5875
3017.68865	31287.7875
3020.10694	31287.6875
3022.52376	31180.7875
3024.9391	31175.4875
3027.35298	31113.3875
3029.76539	31107.0875
3032.17632	31084.6875
3034.5858	31023.5875
3036.9938	31041.4875
3039.40034	30990.5875
3041.80542	30975.9875
3044.20903	30875.8875
3046.61118	30898.4875
3049.01187	30804.3875
3051.4111	30715.8875
3053.80888	30666.7875
3056.20519	30603.6875
3058.60005	30507.0875
3060.99345	30490.8875
3063.3854	30418.1875
3065.7759	30295.6875
3068.16494	30197.8875
3070.55254	30106.4875
3072.93868	30043.9875
3075.32338	29946.3875
3077.70662	29891.3875
3080.08842	29798.7875
3082.46878	29726.6875
3084.84769	29710.0875
3087.22515	29690.6875
3089.60118	29648.8875
3091.97576	29663.6875
3094.3489	29651.6875
3096.72061	29595.6875
3099.09087	29657.4875
3101.4597	29648.5875
3103.82709	29616.4875
3106.19305	29574.0875
3108.55757	29594.0875
3110.92066	29521.4875
3113.28232	29459.0875
3115.64255	29397.0875
3118.00134	29351.8875
3120.35871	29247.1875
3122.71466	29191.8875
3125.06917	29137.7875
3127.42226	29123.1875
3129.77393	29124.1875
3132.12417	29025.5875
3134.47299	29045.0875
3136.82039	29007.4875
3139.16636	29050.6875
3141.51092	28946.4875
3143.85406	28965.1875
3146.19579	28971.8875
3148.53609	28954.5875
3150.87499	29000.0875
3153.21246	28997.4875
3155.54853	29038.2875
3157.88318	28958.3875
3160.21642	29024.4875
3162.54826	28950.1875
3164.87868	28932.0875
3167.2077	28892.8875
3169.5353	28840.7875
3171.86151	28840.9875
3174.18631	28827.4875
3176.5097	28773.1875
3178.83169	28730.3875
3181.15228	28715.9875
3183.47147	28680.0875
3185.78926	28693.5875
3188.10565	28642.2875
3190.42065	28628.9875
3192.73424	28607.1875
3195.04645	28539.4875
3197.35725	28584.6875
3199.66667	28546.4875
3201.97469	28592.7875
3204.28132	28511.0875
3206.58656	28493.0875
3208.8904	28525.1875
3211.19287	28548.8875
3213.49394	28541.0875
3215.79363	28595.5875
3218.09193	28589.6875
3220.38884	28604.4875
3222.68438	28622.7875
3224.97853	28533.5875
3227.2713	28531.1875
3229.56269	28481.0875
3231.8527	28473.0875
3234.14133	28473.1875
3236.42858	28366.2875
3238.71446	28328.6875
3240.99896	28271.6875
3243.28209	28308.7875
3245.56384	28280.7875
3247.84423	28223.0875
3250.12324	28170.6875
3252.40088	28208.6875
3254.67715	28183.1875
3256.95205	28155.0875
3259.22558	28148.2875
3261.49775	28070.5875
3263.76855	28097.4875
3266.03799	28044.4875
3268.30606	27956.6875
3270.57277	27927.5875
3272.83812	27925.1875
3275.10211	27840.9875
3277.36474	27811.7875
3279.62601	27843.1875
3281.88593	27728.2875
3284.14448	27786.4875
3286.40168	27726.8875
3288.65753	27719.5875
3290.91202	27690.2875
3293.16516	27644.1875
3295.41695	27587.3875
3297.66738	27443.6875
3299.91647	27316.4875
3302.16421	27153.0875
3304.4106	27042.0875
3306.65564	26873.0875
3308.89933	26698.0875
3311.14169	26546.4875
3313.38269	26358.0875
3315.62236	26204.4875
3317.86068	26022.3875
3320.09766	25794.3875
3322.3333	25616.7875
3324.5676	25538.1875
3326.80056	25146.1875
3329.03219	25037.9875
3331.26248	6.5875
3333.49143	0.1875
3335.71905	-0.8125
