Data from AgNPs_FTO_APTES_UA_20uM_CRN_5uM_R6G_10uM_NaF_0.1M_Addition_RamanShift__28__14-04-32-171.txt Node

Date: Thu Feb 17 14:04:32 GMT 2022
User: TCL
Spectrometer: QEP01345
Trigger mode: 4
Integration Time (sec): 7.000000E0
Scans to average: 10
Electric dark correction enabled: true
Nonlinearity correction enabled: false
Boxcar width: 0
XAxis mode: Raman Shifts
Number of Pixels in Spectrum: 1044
>>>>>Begin Spectral Data<<<<<
46.04893	-0.6875
50.45542	-0.9875
54.85868	-3.1875
59.25871	-0.8875
63.6555	106.2125
68.04907	106.7125
72.43941	110.9125
76.82654	109.9125
81.21044	118.0125
85.59113	123.4125
89.96862	123.6125
94.34289	127.2125
98.71396	133.2125
103.08183	133.6125
107.4465	142.2125
111.80798	140.8125
116.16626	147.4125
120.52136	156.2125
124.87327	162.1125
129.222	168.7125
133.56755	179.2125
137.90993	193.2125
142.24913	213.1125
146.58517	240.0125
150.91804	284.4125
155.24774	340.0125
159.57429	422.6125
163.89768	538.1125
168.21792	720.3125
172.53501	984.0125
176.84895	1388.1125
181.15975	1953.4125
185.46741	2737.8125
189.77193	3777.6125
194.07331	5068.2125
198.37157	6562.0125
202.6667	8131.1125
206.9587	9699.7125
211.24758	11258.7125
215.53334	12787.4125
219.81599	14483.3125
224.09553	16329.9125
228.37195	18411.1125
232.64527	20729.4125
236.91549	23145.8125
241.18261	25546.1125
245.44663	27777.1125
249.70755	29742.9125
253.96539	31495.0125
258.22014	32939.2125
262.4718	34189.3125
266.72039	35104.9125
270.96589	35723.7125
275.20832	35901.6125
279.44768	35731.2125
283.68397	35468.6125
287.91719	35278.1125
292.14735	35218.1125
296.37445	35395.7125
300.59849	35758.3125
304.81948	36206.8125
309.03742	36393.1125
313.25231	36087.2125
317.46415	35056.4125
321.67296	33819.5125
325.87872	32756.4125
330.08145	32337.2125
334.28114	32348.4125
338.47781	32767.9125
342.67145	33302.6125
346.86207	34198.0125
351.04966	35208.6125
355.23424	36451.0125
359.4158	37410.3125
363.59435	38043.7125
367.76989	38404.3125
371.94243	38613.4125
376.11196	38749.3125
380.27849	38865.0125
384.44203	38937.5125
388.60257	38976.1125
392.76012	39116.5125
396.91468	39420.9125
401.06626	40167.8125
405.21485	40816.6125
409.36047	40665.8125
413.50311	39845.6125
417.64277	39047.3125
421.77947	38770.5125
425.9132	38763.0125
430.04396	38974.7125
434.17176	39334.5125
438.2966	39851.1125
442.41849	40601.3125
446.53742	41570.2125
450.6534	42732.7125
454.76644	43638.5125
458.87653	43945.3125
462.98368	43800.8125
467.08789	43271.2125
471.18916	42518.1125
475.2875	41843.2125
479.38291	41294.9125
483.4754	40870.4125
487.56496	40364.5125
491.6516	39895.3125
495.73531	39515.4125
499.81612	39362.9125
503.89401	39566.0125
507.96899	39746.3125
512.04106	39861.5125
516.11023	40005.5125
520.1765	40103.3125
524.23987	40055.7125
528.30034	39753.8125
532.35792	39351.9125
536.41261	39024.0125
540.46441	38585.5125
544.51333	38563.3125
548.55936	38920.9125
552.60252	39730.3125
556.64279	40572.9125
560.6802	40992.0125
564.71473	41233.9125
568.7464	41977.6125
572.7752	42733.8125
576.80114	42722.6125
580.82422	42570.5125
584.84444	42690.5125
588.86181	42975.6125
592.87633	43435.3125
596.888	43828.6125
600.89682	44385.5125
604.9028	46803.8125
608.90594	53211.1125
612.90624	60676.1125
616.90371	57874.5125
620.89834	47157.3125
624.89015	42412.1125
628.87913	41624.8125
632.86528	41545.8125
636.84862	41386.9125
640.82913	40814.2125
644.80683	39728.2125
648.78172	39052.4125
652.75379	39069.7125
656.72306	39890.6125
660.68952	40944.3125
664.65319	40909.0125
668.61405	39962.4125
672.57211	39572.2125
676.52738	39544.3125
680.47986	39517.6125
684.42955	39451.7125
688.37646	39506.5125
692.32058	39718.2125
696.26192	40113.3125
700.20048	40577.6125
704.13626	40834.1125
708.06928	40823.8125
711.99952	40536.4125
715.927	40446.4125
719.85171	40473.3125
723.77365	40417.0125
727.69284	40164.5125
731.60928	39890.1125
735.52295	39836.7125
739.43388	40012.3125
743.34206	40320.4125
747.24749	40551.1125
751.15017	40915.5125
755.05012	41662.2125
758.94733	42917.1125
762.8418	45396.9125
766.73354	49388.4125
770.62254	53352.4125
774.50882	54731.3125
778.39237	52397.5125
782.27321	47856.8125
786.15132	44027.7125
790.02671	41811.4125
793.89938	40922.3125
797.76935	40507.5125
801.6366	40318.2125
805.50115	40205.5125
809.36299	40043.0125
813.22213	39971.6125
817.07857	39996.5125
820.93231	40012.4125
824.78336	40139.6125
828.63172	40148.3125
832.47738	40303.4125
836.32036	40310.4125
840.16066	40472.6125
843.99827	40495.5125
847.8332	40488.8125
851.66546	40310.5125
855.49504	40213.5125
859.32195	40227.7125
863.1462	40117.9125
866.96777	39986.0125
870.78668	39964.6125
874.60293	40033.5125
878.41652	40089.5125
882.22745	40301.6125
886.03573	40384.0125
889.84136	40262.3125
893.64433	40140.5125
897.44466	40047.4125
901.24235	40033.8125
905.0374	40035.7125
908.8298	40047.6125
912.61957	40106.0125
916.40671	40370.7125
920.19121	40842.0125
923.97308	41306.3125
927.75233	41461.5125
931.52895	41400.1125
935.30295	41027.8125
939.07433	40407.9125
942.84309	39895.2125
946.60924	39634.2125
950.37278	39495.4125
954.13371	39355.8125
957.89203	39145.6125
961.64774	39044.8125
965.40086	38954.8125
969.15137	38847.8125
972.89929	38733.1125
976.64461	38703.8125
980.38733	38719.8125
984.12747	38789.3125
987.86502	39135.6125
991.59999	39516.3125
995.33237	40226.9125
999.06217	41455.2125
1002.78939	42854.4125
1006.51404	43833.1125
1010.23611	44434.3125
1013.95561	44865.5125
1017.67255	44886.2125
1021.38692	44539.2125
1025.09872	44347.3125
1028.80796	44807.7125
1032.51465	45964.3125
1036.21877	46989.6125
1039.92035	47091.9125
1043.61937	46495.4125
1047.31584	45308.2125
1051.00976	44122.3125
1054.70114	43465.0125
1058.38998	43346.2125
1062.07627	43525.2125
1065.76003	43675.9125
1069.44126	43843.5125
1073.11995	44144.0125
1076.79611	44402.8125
1080.46974	44655.4125
1084.14085	45127.6125
1087.80943	45634.2125
1091.47549	45863.9125
1095.13903	45485.1125
1098.80005	44679.1125
1102.45857	43991.9125
1106.11456	43600.9125
1109.76805	43654.4125
1113.41903	44150.4125
1117.06751	44817.0125
1120.71348	45538.0125
1124.35696	46211.7125
1127.99793	46804.5125
1131.63641	46670.1125
1135.2724	45954.4125
1138.90589	45207.0125
1142.5369	44713.2125
1146.16542	44416.6125
1149.79145	44410.2125
1153.415	44744.0125
1157.03607	45111.1125
1160.65467	45835.3125
1164.27079	46970.1125
1167.88443	48722.4125
1171.49561	51277.9125
1175.10432	55115.4125
1178.71056	60084.7125
1182.31434	64567.1125
1185.91565	66553.9125
1189.51451	65971.4125
1193.11091	63341.9125
1196.70485	60171.4125
1200.29634	57531.2125
1203.88538	55600.7125
1207.47197	53848.8125
1211.05612	52397.2125
1214.63782	51560.3125
1218.21708	51521.8125
1221.79391	51683.3125
1225.36829	51780.4125
1228.94024	51474.8125
1232.50976	50886.3125
1236.07685	50508.0125
1239.6415	50544.1125
1243.20374	50718.1125
1246.76355	51238.8125
1250.32093	51949.5125
1253.8759	53046.0125
1257.42845	54471.4125
1260.97859	55600.8125
1264.52631	56459.7125
1268.07163	57438.5125
1271.61453	58503.3125
1275.15503	59782.1125
1278.69312	61033.7125
1282.22882	62156.4125
1285.76211	63246.9125
1289.29301	64485.5125
1292.82151	65912.9125
1296.34761	67800.8125
1299.87133	70645.6125
1303.39266	74667.3125
1306.9116	80020.6125
1310.42815	85601.3125
1313.94233	88796.6125
1317.45412	88190.5125
1320.96354	85228.4125
1324.47058	81819.0125
1327.97525	78862.5125
1331.47754	77112.1125
1334.97747	76927.9125
1338.47502	78144.0125
1341.97022	79707.2125
1345.46305	80668.3125
1348.95352	80903.6125
1352.44163	81252.7125
1355.92738	83652.7125
1359.41078	88924.1125
1362.89183	94075.4125
1366.37053	91989.4125
1369.84688	82807.2125
1373.32088	73365.6125
1376.79254	67234.2125
1380.26186	64017.6125
1383.72883	62698.3125
1387.19347	61963.4125
1390.65578	61290.3125
1394.11575	61092.6125
1397.57339	61391.6125
1401.0287	62358.9125
1404.48168	63637.0125
1407.93234	65089.8125
1411.38068	66184.4125
1414.82669	66205.9125
1418.27039	64794.9125
1421.71177	62536.7125
1425.15083	60530.2125
1428.58758	59470.9125
1432.02203	59333.2125
1435.45416	59856.3125
1438.88399	60290.9125
1442.31151	60725.9125
1445.73673	61321.2125
1449.15965	61819.6125
1452.58027	62001.2125
1455.9986	61860.0125
1459.41463	61788.8125
1462.82837	62289.8125
1466.23982	63265.9125
1469.64898	64477.3125
1473.05586	65374.8125
1476.46045	66004.4125
1479.86276	66613.1125
1483.26279	67285.4125
1486.66054	68047.7125
1490.05602	69229.5125
1493.44922	70677.4125
1496.84016	72219.5125
1500.22882	74398.8125
1503.61521	77634.0125
1506.99934	81898.4125
1510.38121	85365.9125
1513.76081	86125.6125
1517.13816	83125.6125
1520.51324	77951.2125
1523.88607	73182.6125
1527.25665	70013.9125
1530.62498	68316.8125
1533.99105	67239.6125
1537.35488	66585.8125
1540.71647	66171.9125
1544.07581	65706.6125
1547.4329	65183.2125
1550.78776	64479.8125
1554.14038	63955.4125
1557.49077	63850.1125
1560.83892	63898.7125
1564.18484	64158.5125
1567.52853	64456.8125
1570.86999	64506.3125
1574.20922	64605.2125
1577.54624	64398.5125
1580.88103	63351.0125
1584.2136	62342.6125
1587.54395	62895.9125
1590.87208	65352.6125
1594.19801	69579.7125
1597.52172	74253.3125
1600.84321	76352.1125
1604.16251	74316.4125
1607.47959	69662.7125
1610.79447	64426.6125
1614.10715	59717.2125
1617.41763	56052.7125
1620.7259	53607.4125
1624.03199	52494.1125
1627.33587	52516.9125
1630.63757	53636.4125
1633.93707	55960.2125
1637.23439	59296.4125
1640.52951	63542.7125
1643.82246	68387.3125
1647.11321	72706.5125
1650.40179	74240.5125
1653.68819	71183.2125
1656.97241	64066.3125
1660.25446	56740.7125
1663.53433	51387.0125
1666.81203	48029.8125
1670.08756	45922.4125
1673.36092	44551.3125
1676.63211	43641.5125
1679.90115	43082.4125
1683.16801	42522.5125
1686.43272	42154.3125
1689.69527	41888.0125
1692.95567	41718.9125
1696.2139	41640.3125
1699.46999	41598.0125
1702.72392	41506.7125
1705.97571	41460.5125
1709.22535	41446.0125
1712.47284	41385.3125
1715.71819	41440.2125
1718.96139	41421.9125
1722.20246	41307.4125
1725.44139	41151.4125
1728.67818	41004.0125
1731.91284	40835.8125
1735.14537	40682.7125
1738.37576	40526.4125
1741.60403	40523.2125
1744.83017	40289.9125
1748.05418	40207.7125
1751.27607	40187.7125
1754.49584	40174.8125
1757.71349	40161.9125
1760.92903	40180.7125
1764.14244	40168.9125
1767.35375	40122.0125
1770.56294	40064.0125
1773.77002	40067.3125
1776.97499	40022.2125
1780.17785	39979.7125
1783.37861	39956.3125
1786.57727	39941.2125
1789.77382	39855.6125
1792.96828	39879.8125
1796.16064	39845.6125
1799.3509	39827.3125
1802.53907	39834.0125
1805.72514	39692.6125
1808.90913	39647.1125
1812.09102	39542.6125
1815.27083	39492.7125
1818.44856	39443.1125
1821.6242	39454.8125
1824.79776	39381.6125
1827.96924	39353.3125
1831.13864	39341.9125
1834.30597	39354.6125
1837.47122	39344.7125
1840.6344	39279.7125
1843.7955	39341.6125
1846.95454	39341.3125
1850.11151	39320.3125
1853.26642	39336.8125
1856.41926	39335.8125
1859.57004	39336.9125
1862.71876	39283.3125
1865.86542	39305.9125
1869.01003	39282.2125
1872.15258	39296.6125
1875.29308	39309.5125
1878.43152	39262.9125
1881.56792	39291.7125
1884.70227	39328.8125
1887.83457	39318.1125
1890.96482	39297.5125
1894.09304	39271.9125
1897.21921	39257.7125
1900.34335	39227.4125
1903.46544	39244.0125
1906.58551	39228.5125
1909.70353	39276.8125
1912.81953	39240.5125
1915.93349	39220.8125
1919.04543	39119.7125
1922.15534	39157.6125
1925.26322	39113.0125
1928.36908	39067.9125
1931.47292	38982.9125
1934.57473	38877.7125
1937.67453	38753.3125
1940.77232	38665.3125
1943.86808	38556.9125
1946.96184	38470.5125
1950.05358	38377.0125
1953.14331	38266.1125
1956.23103	38211.4125
1959.31675	38055.6125
1962.40046	37957.1125
1965.48217	37846.0125
1968.56188	37741.8125
1971.63959	37646.4125
1974.7153	37547.9125
1977.78901	37418.7125
1980.86073	37345.0125
1983.93046	37296.3125
1986.99819	37159.2125
1990.06394	37076.1125
1993.1277	37002.4125
1996.18947	36861.6125
1999.24925	36796.0125
2002.30706	36705.3125
2005.36288	36596.5125
2008.41672	36517.7125
2011.46859	36399.1125
2014.51848	36348.0125
2017.56639	36232.0125
2020.61233	36128.4125
2023.6563	36053.0125
2026.6983	35986.2125
2029.73833	35894.1125
2032.7764	35853.5125
2035.8125	35882.1125
2038.84664	35757.0125
2041.87881	35733.7125
2044.90903	35709.1125
2047.93729	35666.6125
2050.96359	35669.4125
2053.98794	35546.3125
2057.01034	35562.7125
2060.03078	35586.7125
2063.04927	35522.3125
2066.06582	35505.9125
2069.08042	35430.0125
2072.09307	35446.9125
2075.10378	35367.8125
2078.11255	35366.7125
2081.11938	35378.0125
2084.12426	35302.2125
2087.12722	35294.6125
2090.12824	35277.3125
2093.12732	35309.4125
2096.12447	35268.1125
2099.11969	35285.9125
2102.11299	35227.7125
2105.10435	35294.1125
2108.09379	35306.9125
2111.08131	35297.9125
2114.0669	35314.0125
2117.05057	35350.2125
2120.03233	35389.8125
2123.01216	35504.0125
2125.99008	35543.2125
2128.96609	35553.4125
2131.94018	35579.5125
2134.91236	35600.0125
2137.88263	35652.5125
2140.851	35636.4125
2143.81746	35676.3125
2146.78201	35700.8125
2149.74466	35716.1125
2152.7054	35717.0125
2155.66425	35704.0125
2158.6212	35743.6125
2161.57625	35672.5125
2164.52941	35699.6125
2167.48067	35680.7125
2170.43004	35653.3125
2173.37752	35709.7125
2176.32311	35716.7125
2179.26681	35711.3125
2182.20863	35693.3125
2185.14856	35787.6125
2188.08661	35776.1125
2191.02278	35757.9125
2193.95707	35704.1125
2196.88948	35720.8125
2199.82001	35735.2125
2202.74867	35693.4125
2205.67545	35669.6125
2208.60037	35667.0125
2211.52341	35637.0125
2214.44458	35681.8125
2217.36388	35628.8125
2220.28132	35562.3125
2223.1969	35506.2125
2226.11061	35398.9125
2229.02246	35325.1125
2231.93245	35256.3125
2234.84058	35192.5125
2237.74686	35102.7125
2240.65128	35144.5125
2243.55385	35083.4125
2246.45456	35068.9125
2249.35343	35030.5125
2252.25044	35043.9125
2255.14561	34980.9125
2258.03893	34973.0125
2260.93041	34882.5125
2263.82004	34839.0125
2266.70783	34727.5125
2269.59378	34663.4125
2272.4779	34615.3125
2275.36017	34508.5125
2278.24061	34479.7125
2281.11922	34417.3125
2283.996	34337.6125
2286.87094	34369.5125
2289.74405	34301.9125
2292.61534	34270.4125
2295.4848	34228.1125
2298.35243	34292.1125
2301.21824	34276.1125
2304.08223	34225.3125
2306.94439	34282.9125
2309.80474	34355.3125
2312.66327	34393.1125
2315.51999	34362.5125
2318.37489	34319.5125
2321.22797	34321.3125
2324.07925	34299.7125
2326.92871	34252.5125
2329.77637	34228.1125
2332.62222	34191.7125
2335.46626	34162.7125
2338.3085	34176.2125
2341.14893	34210.5125
2343.98756	34210.9125
2346.8244	34244.0125
2349.65943	34273.1125
2352.49267	34274.4125
2355.32411	34236.7125
2358.15376	34245.3125
2360.98161	34253.4125
2363.80768	34192.4125
2366.63195	34140.7125
2369.45444	34149.7125
2372.27514	34051.4125
2375.09405	33985.0125
2377.91118	33932.7125
2380.72652	33817.1125
2383.54009	33733.2125
2386.35187	33666.2125
2389.16188	33584.4125
2391.97011	33535.9125
2394.77657	33510.7125
2397.58125	33449.6125
2400.38416	33383.7125
2403.18529	33342.1125
2405.98466	33286.3125
2408.78226	33211.8125
2411.57809	33151.9125
2414.37216	33061.8125
2417.16446	33097.7125
2419.955	33021.4125
2422.74378	33008.1125
2425.5308	32938.8125
2428.31606	32979.7125
2431.09956	32981.6125
2433.88131	32911.4125
2436.6613	32954.6125
2439.43954	32921.4125
2442.21603	32915.7125
2444.99077	32854.1125
2447.76377	32890.7125
2450.53501	32823.8125
2453.30451	32839.8125
2456.07226	32820.3125
2458.83827	32772.0125
2461.60254	32744.4125
2464.36507	32765.7125
2467.12586	32769.0125
2469.88492	32754.7125
2472.64224	32771.4125
2475.39782	32781.8125
2478.15167	32829.4125
2480.90379	32870.2125
2483.65417	32908.8125
2486.40283	32909.9125
2489.14976	32966.2125
2491.89497	32927.0125
2494.63845	32944.0125
2497.3802	32955.6125
2500.12024	32930.2125
2502.85855	32920.1125
2505.59514	32913.7125
2508.33002	32810.3125
2511.06318	32774.0125
2513.79462	32705.6125
2516.52435	32727.2125
2519.25237	32609.7125
2521.97867	32584.0125
2524.70327	32607.6125
2527.42616	32597.7125
2530.14734	32560.2125
2532.86681	32519.4125
2535.58458	32527.1125
2538.30065	32499.8125
2541.01501	32516.2125
2543.72768	32512.8125
2546.43864	32504.3125
2549.14791	32446.4125
2551.85548	32445.5125
2554.56136	32367.3125
2557.26554	32292.9125
2559.96803	32236.2125
2562.66883	32229.7125
2565.36794	32229.8125
2568.06536	32172.5125
2570.7611	32137.7125
2573.45514	32121.8125
2576.14751	32084.8125
2578.83819	32056.2125
2581.52719	32063.2125
2584.21451	31977.4125
2586.90015	32020.6125
2589.58411	31985.6125
2592.2664	32016.9125
2594.94701	31975.2125
2597.62594	31974.1125
2600.30321	31969.2125
2602.9788	31984.1125
2605.65273	31921.7125
2608.32498	31938.4125
2610.99557	31923.2125
2613.66449	31975.3125
2616.33175	31927.5125
2618.99734	31915.9125
2621.66128	31895.6125
2624.32355	31951.8125
2626.98416	31907.9125
2629.64311	31885.2125
2632.30041	31873.1125
2634.95605	31876.7125
2637.61004	31827.3125
2640.26238	31840.6125
2642.91306	31726.9125
2645.56209	31647.2125
2648.20948	31656.2125
2650.85521	31634.2125
2653.4993	31628.3125
2656.14175	31588.0125
2658.78255	31677.6125
2661.42171	31646.7125
2664.05923	31751.2125
2666.6951	31723.3125
2669.32934	31767.3125
2671.96194	31754.2125
2674.59291	31824.5125
2677.22224	31883.4125
2679.84993	31893.0125
2682.476	31831.2125
2685.10043	31827.3125
2687.72324	31747.7125
2690.34441	31759.1125
2692.96396	31763.3125
2695.58188	31793.1125
2698.19818	31721.4125
2700.81285	31696.9125
2703.4259	31694.5125
2706.03733	31729.2125
2708.64714	31670.4125
2711.25533	31716.9125
2713.86191	31739.5125
2716.46687	31785.6125
2719.07021	31781.4125
2721.67194	31801.0125
2724.27206	31779.9125
2726.87057	31769.3125
2729.46747	31804.5125
2732.06276	31809.2125
2734.65644	31785.8125
2737.24852	31855.6125
2739.83899	31817.7125
2742.42786	31817.6125
2745.01513	31823.0125
2747.60079	31769.5125
2750.18486	31773.2125
2752.76733	31776.8125
2755.3482	31726.9125
2757.92747	31698.5125
2760.50515	31636.3125
2763.08123	31675.1125
2765.65573	31677.4125
2768.22863	31641.5125
2770.79994	31637.9125
2773.36967	31620.9125
2775.9378	31655.1125
2778.50435	31611.7125
2781.06932	31604.5125
2783.6327	31597.4125
2786.1945	31552.4125
2788.75471	31533.4125
2791.31335	31482.5125
2793.87041	31442.8125
2796.42589	31380.4125
2798.97979	31417.0125
2801.53212	31278.4125
2804.08288	31261.3125
2806.63206	31183.3125
2809.17967	31160.9125
2811.72571	31086.4125
2814.27018	31036.9125
2816.81308	30965.5125
2819.35442	30941.6125
2821.89419	30948.3125
2824.43239	30958.2125
2826.96904	30969.4125
2829.50412	30954.9125
2832.03763	30879.3125
2834.56959	30873.0125
2837.1	30824.5125
2839.62884	30840.3125
2842.15613	30732.0125
2844.68186	30801.2125
2847.20604	30731.8125
2849.72867	30741.6125
2852.24974	30676.9125
2854.76927	30642.5125
2857.28724	30652.6125
2859.80367	30635.6125
2862.31855	30616.5125
2864.83189	30552.3125
2867.34368	30445.0125
2869.85393	30525.3125
2872.36264	30474.7125
2874.8698	30457.1125
2877.37543	30450.6125
2879.87952	30408.4125
2882.38207	30435.8125
2884.88308	30372.3125
2887.38256	30467.3125
2889.88051	30403.8125
2892.37692	30453.0125
2894.8718	30428.8125
2897.36515	30493.4125
2899.85698	30505.2125
2902.34727	30551.2125
2904.83604	30539.3125
2907.32328	30562.4125
2909.809	30588.5125
2912.29319	30596.4125
2914.77587	30607.5125
2917.25702	30570.5125
2919.73665	30549.2125
2922.21476	30534.2125
2924.69136	30486.3125
2927.16644	30467.2125
2929.64	30432.9125
2932.11205	30404.5125
2934.58258	30341.9125
2937.05161	30426.1125
2939.51912	30435.1125
2941.98513	30393.5125
2944.44962	30401.6125
2946.91261	30304.2125
2949.37409	30384.5125
2951.83407	30337.0125
2954.29254	30274.5125
2956.74951	30281.3125
2959.20498	30298.1125
2961.65895	30236.4125
2964.11142	30260.6125
2966.56239	30194.6125
2969.01186	30204.1125
2971.45984	30091.7125
2973.90632	30078.8125
2976.35131	30010.7125
2978.7948	29935.7125
2981.23681	29933.6125
2983.67732	29856.8125
2986.11635	29803.2125
2988.55388	29744.8125
2990.98993	29728.9125
2993.4245	29667.1125
2995.85758	29585.1125
2998.28917	29487.7125
3000.71928	29475.6125
3003.14791	29381.7125
3005.57506	29421.8125
3008.00073	29349.3125
3010.42493	29300.9125
3012.84764	29262.0125
3015.26888	29222.0125
3017.68865	29132.5125
3020.10694	29087.5125
3022.52376	29018.2125
3024.9391	28999.6125
3027.35298	28926.5125
3029.76539	28985.4125
3032.17632	28922.3125
3034.5858	28891.9125
3036.9938	28865.5125
3039.40034	28866.0125
3041.80542	28839.6125
3044.20903	28809.4125
3046.61118	28774.5125
3049.01187	28660.0125
3051.4111	28602.1125
3053.80888	28526.6125
3056.20519	28491.6125
3058.60005	28406.1125
3060.99345	28377.2125
3063.3854	28308.0125
3065.7759	28125.7125
3068.16494	28126.0125
3070.55254	27994.4125
3072.93868	27902.1125
3075.32338	27857.9125
3077.70662	27801.2125
3080.08842	27679.6125
3082.46878	27626.4125
3084.84769	27626.2125
3087.22515	27620.9125
3089.60118	27602.7125
3091.97576	27574.4125
3094.3489	27521.4125
3096.72061	27539.9125
3099.09087	27552.1125
3101.4597	27534.5125
3103.82709	27534.8125
3106.19305	27445.9125
3108.55757	27469.9125
3110.92066	27404.8125
3113.28232	27418.3125
3115.64255	27298.9125
3118.00134	27211.2125
3120.35871	27148.9125
3122.71466	27071.6125
3125.06917	27053.1125
3127.42226	27015.6125
3129.77393	27012.0125
3132.12417	26948.9125
3134.47299	26929.2125
3136.82039	26938.1125
3139.16636	26925.4125
3141.51092	26844.2125
3143.85406	26807.5125
3146.19579	26865.8125
3148.53609	26833.6125
3150.87499	26872.4125
3153.21246	26855.1125
3155.54853	26886.7125
3157.88318	26864.6125
3160.21642	26893.9125
3162.54826	26827.2125
3164.87868	26819.3125
3167.2077	26756.4125
3169.5353	26745.9125
3171.86151	26748.6125
3174.18631	26744.0125
3176.5097	26684.4125
3178.83169	26644.6125
3181.15228	26633.1125
3183.47147	26595.3125
3185.78926	26601.6125
3188.10565	26552.0125
3190.42065	26508.7125
3192.73424	26469.2125
3195.04645	26441.2125
3197.35725	26460.8125
3199.66667	26408.7125
3201.97469	26448.5125
3204.28132	26388.3125
3206.58656	26407.3125
3208.8904	26419.9125
3211.19287	26427.7125
3213.49394	26395.4125
3215.79363	26429.4125
3218.09193	26453.7125
3220.38884	26458.5125
3222.68438	26472.3125
3224.97853	26385.6125
3227.2713	26342.6125
3229.56269	26379.7125
3231.8527	26361.9125
3234.14133	26318.1125
3236.42858	26297.0125
3238.71446	26196.4125
3240.99896	26187.5125
3243.28209	26151.9125
3245.56384	26110.6125
3247.84423	26091.6125
3250.12324	26035.7125
3252.40088	26038.8125
3254.67715	26019.7125
3256.95205	25988.5125
3259.22558	25971.0125
3261.49775	25964.6125
3263.76855	25936.7125
3266.03799	25872.3125
3268.30606	25850.2125
3270.57277	25795.8125
3272.83812	25751.7125
3275.10211	25694.4125
3277.36474	25683.3125
3279.62601	25667.6125
3281.88593	25595.4125
3284.14448	25638.9125
3286.40168	25638.7125
3288.65753	25578.4125
3290.91202	25570.2125
3293.16516	25546.3125
3295.41695	25468.8125
3297.66738	25320.8125
3299.91647	25227.7125
3302.16421	25053.1125
3304.4106	24962.3125
3306.65564	24780.9125
3308.89933	24645.8125
3311.14169	24500.8125
3313.38269	24278.4125
3315.62236	24169.0125
3317.86068	23965.6125
3320.09766	23793.0125
3322.3333	23615.0125
3324.5676	23497.5125
3326.80056	23195.4125
3329.03219	23071.3125
3331.26248	5.6125
3333.49143	0.1125
3335.71905	0.0125
