Data from AgNPs_UA_5uM_CRN_0uM_R6G_10uM_Q_RamanShift__9__10-59-45-299.txt Node

Date: Mon Jul 18 10:59:45 BST 2022
User: TCL
Spectrometer: QEP01345
Trigger mode: 4
Integration Time (sec): 7.000000E0
Scans to average: 10
Electric dark correction enabled: true
Nonlinearity correction enabled: false
Boxcar width: 0
XAxis mode: Raman Shifts
Number of Pixels in Spectrum: 1044
>>>>>Begin Spectral Data<<<<<
46.04893	-1.6
50.45542	-2.1
54.85868	-0.9
59.25871	-1.8
63.6555	183.9
68.04907	188.9
72.43941	196.8
76.82654	206.7
81.21044	210.5
85.59113	214.7
89.96862	223.8
94.34289	226.6
98.71396	242.1
103.08183	248
107.4465	252.5
111.80798	264.9
116.16626	271
120.52136	287.9
124.87327	303.5
129.222	322.5
133.56755	350.2
137.90993	383.7
142.24913	421.5
146.58517	488
150.91804	573.9
155.24774	690.6
159.57429	881.8
163.89768	1137.3
168.21792	1533.9
172.53501	2114.4
176.84895	2969.6
181.15975	4211.4
185.46741	5950.4
189.77193	8246.4
194.07331	11048.5
198.37157	14330.9
202.6667	17729
206.9587	21079.2
211.24758	24462.5
215.53334	27905.6
219.81599	31525.3
224.09553	35531.8
228.37195	40051.6
232.64527	44857
236.91549	49690.4
241.18261	54275.3
245.44663	58168.5
249.70755	61533.4
253.96539	64394.8
258.22014	66891.9
262.4718	69121.1
266.72039	70473.3
270.96589	71094.9
275.20832	71047.8
279.44768	70436.3
283.68397	69577.3
287.91719	69023
292.14735	68847.6
296.37445	69384.7
300.59849	70660.5
304.81948	72214.3
309.03742	73494.4
313.25231	73937.4
317.46415	72965.5
321.67296	70742.7
325.87872	68555.6
330.08145	67592
334.28114	67702.4
338.47781	68473.4
342.67145	69667.7
346.86207	71215.1
351.04966	73356.3
355.23424	75562.1
359.4158	77432.7
363.59435	78658.5
367.76989	79109
371.94243	79337.1
376.11196	79316
380.27849	79458.1
384.44203	79887.8
388.60257	80437.9
392.76012	81124.5
396.91468	82195.3
401.06626	83447.1
405.21485	84087.3
409.36047	83429.4
413.50311	81549.6
417.64277	80023
421.77947	79139.9
425.9132	78743.2
430.04396	78758.6
434.17176	78915
438.2966	79595.3
442.41849	80588.5
446.53742	82186.2
450.6534	83901
454.76644	85241.7
458.87653	85851.1
462.98368	85832.6
467.08789	85486.9
471.18916	84400.5
475.2875	82926.6
479.38291	81533.9
483.4754	80508.3
487.56496	79804.3
491.6516	79320.9
495.73531	79254.3
499.81612	79497.3
503.89401	80280.4
507.96899	80607.6
512.04106	80753.7
516.11023	80956.9
520.1765	81033.8
524.23987	80896.1
528.30034	80556.7
532.35792	80230.1
536.41261	79615.2
540.46441	78660.2
544.51333	78535.9
548.55936	79136.6
552.60252	80489.4
556.64279	81732.9
560.6802	82858.4
564.71473	83582.1
568.7464	84408.1
572.7752	84768.8
576.80114	84374.5
580.82422	84565.2
584.84444	85325
588.86181	85830.1
592.87633	86000.5
596.888	86477.1
600.89682	88500.6
604.9028	95414.7
608.90594	110690.2
612.90624	124994
616.90371	115732.3
620.89834	93253.1
624.89015	83806.3
628.87913	82934.8
632.86528	84576.7
636.84862	85762.5
640.82913	84485.3
644.80683	81741.1
648.78172	79872.7
652.75379	79850.6
656.72306	81646.9
660.68952	83817.5
664.65319	83574.7
668.61405	82549.5
672.57211	83205.6
676.52738	83317.4
680.47986	81758.7
684.42955	80112.7
688.37646	79617.7
692.32058	80398.5
696.26192	82002.6
700.20048	83489.5
704.13626	83867.5
708.06928	83202.6
711.99952	82228.8
715.927	81835.6
719.85171	82079.3
723.77365	82151.8
727.69284	81305.3
731.60928	80493.2
735.52295	80145.5
739.43388	80264.4
743.34206	80502.1
747.24749	80708.7
751.15017	80918.8
755.05012	81925.2
758.94733	84399.5
762.8418	89938.6
766.73354	98673
770.62254	106142.4
774.50882	108127.2
778.39237	105252.9
782.27321	99222.7
786.15132	92023.9
790.02671	86507.1
793.89938	83563.4
797.76935	82029.1
801.6366	81216.2
805.50115	80681.3
809.36299	80315.1
813.22213	79974.8
817.07857	79738.4
820.93231	79629.2
824.78336	79760.1
828.63172	79914.8
832.47738	79703
836.32036	79386.2
840.16066	79133.7
843.99827	79001.8
847.8332	78989.2
851.66546	79180.3
855.49504	79375.8
859.32195	79537.8
863.1462	79425.6
866.96777	79535.5
870.78668	79583
874.60293	79857.6
878.41652	80139.4
882.22745	80546
886.03573	80910.1
889.84136	80985.7
893.64433	80596.4
897.44466	80223.1
901.24235	80113.6
905.0374	79908.2
908.8298	79586
912.61957	79365.6
916.40671	79544
920.19121	79877.7
923.97308	80459.4
927.75233	81116.5
931.52895	81517.1
935.30295	80950.7
939.07433	79719.5
942.84309	78780.6
946.60924	78225.2
950.37278	78033.4
954.13371	78066.1
957.89203	78144.7
961.64774	78220.6
965.40086	78133.1
969.15137	78070.8
972.89929	77909.8
976.64461	77929.3
980.38733	78092.2
984.12747	78303.7
987.86502	78652.5
991.59999	78887.9
995.33237	79370.9
999.06217	80191.2
1002.78939	81381.9
1006.51404	83020.8
1010.23611	84732.8
1013.95561	85730.6
1017.67255	86127.3
1021.38692	85775.2
1025.09872	84617.4
1028.80796	83244.7
1032.51465	82448.2
1036.21877	82502.1
1039.92035	82971
1043.61937	83397.9
1047.31584	83621.8
1051.00976	83927
1054.70114	84260.1
1058.38998	84823.2
1062.07627	85785.2
1065.76003	86800.8
1069.44126	88265.9
1073.11995	90494.2
1076.79611	92803.7
1080.46974	94009.9
1084.14085	94569
1087.80943	95465.4
1091.47549	96291.1
1095.13903	96570.5
1098.80005	96683.9
1102.45857	96710.5
1106.11456	95797.9
1109.76805	93832
1113.41903	92765
1117.06751	93269.9
1120.71348	94180.1
1124.35696	95332.7
1127.99793	96413.3
1131.63641	95770.9
1135.2724	93847.3
1138.90589	92257.8
1142.5369	91410.6
1146.16542	91104.5
1149.79145	90798.6
1153.415	90208.2
1157.03607	89908.2
1160.65467	90733.9
1164.27079	92757.5
1167.88443	95769.5
1171.49561	100180.6
1175.10432	106409.1
1178.71056	114381
1182.31434	121536
1185.91565	124824
1189.51451	125448.1
1193.11091	124296.5
1196.70485	121592.1
1200.29634	118363.6
1203.88538	114912
1207.47197	111049.3
1211.05612	107445.5
1214.63782	104310.4
1218.21708	101539.2
1221.79391	99385.6
1225.36829	98210
1228.94024	97966
1232.50976	97887.2
1236.07685	97885.8
1239.6415	98039.1
1243.20374	98268.9
1246.76355	98893.3
1250.32093	99899.3
1253.8759	101583.7
1257.42845	104491.1
1260.97859	107644.9
1264.52631	110815.1
1268.07163	113145.8
1271.61453	114650.8
1275.15503	115461.4
1278.69312	115661.1
1282.22882	115911.5
1285.76211	116996.9
1289.29301	118933.1
1292.82151	120999.9
1296.34761	123739.7
1299.87133	127680.3
1303.39266	133610.2
1306.9116	141948.9
1310.42815	150600
1313.94233	154900.4
1317.45412	152442.8
1320.96354	147205.7
1324.47058	141895.3
1327.97525	137088.9
1331.47754	134211.6
1334.97747	133335.5
1338.47502	134585.1
1341.97022	138326.7
1345.46305	144345
1348.95352	151633.4
1352.44163	158265.8
1355.92738	164153.4
1359.41078	171030.4
1362.89183	176212
1366.37053	170201.9
1369.84688	152585.4
1373.32088	135028.2
1376.79254	123970.7
1380.26186	118254.7
1383.72883	115296.5
1387.19347	112679.8
1390.65578	110002.5
1394.11575	107417
1397.57339	105298.9
1401.0287	104271.6
1404.48168	104143.9
1407.93234	104823.6
1411.38068	105942.2
1414.82669	106380.9
1418.27039	105652.2
1421.71177	104697.1
1425.15083	103848.2
1428.58758	103632.9
1432.02203	104102.8
1435.45416	105047.4
1438.88399	105696.7
1442.31151	105843.8
1445.73673	106150.1
1449.15965	106488.3
1452.58027	106396.6
1455.9986	106013
1459.41463	106515.3
1462.82837	108072.2
1466.23982	110181.3
1469.64898	112187.4
1473.05586	113679.5
1476.46045	114692.3
1479.86276	115334.9
1483.26279	116138.6
1486.66054	117443.3
1490.05602	119607
1493.44922	123490
1496.84016	129207.5
1500.22882	137870.4
1503.61521	148682.8
1506.99934	158910.5
1510.38121	164471.4
1513.76081	162688.4
1517.13816	153415.7
1520.51324	140926.3
1523.88607	130458.6
1527.25665	123732.5
1530.62498	120355
1533.99105	118469.8
1537.35488	117122.5
1540.71647	115972.6
1544.07581	114876.7
1547.4329	113585.1
1550.78776	112131.8
1554.14038	110939.5
1557.49077	110591.2
1560.83892	111166.9
1564.18484	112853.3
1567.52853	114844.1
1570.86999	116567.8
1574.20922	117418.3
1577.54624	116859.3
1580.88103	113444.1
1584.2136	109378.2
1587.54395	107137.9
1590.87208	107913.8
1594.19801	111674.3
1597.52172	116745.7
1600.84321	119258.2
1604.16251	118011.3
1607.47959	114977.6
1610.79447	110250.8
1614.10715	103985.6
1617.41763	98125.9
1620.7259	93548.7
1624.03199	90866.1
1627.33587	90167.9
1630.63757	91200.6
1633.93707	94458.2
1637.23439	100330.7
1640.52951	109378
1643.82246	120946.6
1647.11321	131805.3
1650.40179	136691
1653.68819	131148
1656.97241	117640.9
1660.25446	103417.3
1663.53433	92845.8
1666.81203	86104.8
1670.08756	82078.4
1673.36092	79470.7
1676.63211	77739.3
1679.90115	76486.6
1683.16801	75476.9
1686.43272	74659.9
1689.69527	74120.1
1692.95567	73628.3
1696.2139	73278
1699.46999	73102
1702.72392	72846.2
1705.97571	72815
1709.22535	72705.6
1712.47284	72838.9
1715.71819	72827.5
1718.96139	72687.4
1722.20246	72408.4
1725.44139	71976.3
1728.67818	71636.3
1731.91284	71255.4
1735.14537	70838.5
1738.37576	70606
1741.60403	70389.7
1744.83017	70169
1748.05418	69977.7
1751.27607	69809.2
1754.49584	69575.9
1757.71349	69534.5
1760.92903	69372.8
1764.14244	69226.3
1767.35375	69039.3
1770.56294	68844.6
1773.77002	68806.8
1776.97499	68634.8
1780.17785	68528.3
1783.37861	68296.5
1786.57727	68088.1
1789.77382	68009.2
1792.96828	67853.1
1796.16064	67766.6
1799.3509	67707.9
1802.53907	67571.3
1805.72514	67365.2
1808.90913	67139.3
1812.09102	66973.9
1815.27083	66794.1
1818.44856	66705.4
1821.6242	66666
1824.79776	66518.3
1827.96924	66235.2
1831.13864	66059.9
1834.30597	66047.9
1837.47122	65878.9
1840.6344	65879.3
1843.7955	65922.4
1846.95454	65829.2
1850.11151	65681.7
1853.26642	65553.8
1856.41926	65433.9
1859.57004	65448.9
1862.71876	65421.7
1865.86542	65306.4
1869.01003	65291.1
1872.15258	65254.3
1875.29308	65060.3
1878.43152	64932.5
1881.56792	64873
1884.70227	64763.2
1887.83457	64604.7
1890.96482	64552.9
1894.09304	64505.6
1897.21921	64402.8
1900.34335	64331.5
1903.46544	64232.1
1906.58551	64106.1
1909.70353	63947.2
1912.81953	63800.2
1915.93349	63658.4
1919.04543	63497.1
1922.15534	63497.8
1925.26322	63263
1928.36908	63123.6
1931.47292	63063.9
1934.57473	62746
1937.67453	62643.7
1940.77232	62462
1943.86808	62198.5
1946.96184	62038.8
1950.05358	61854.5
1953.14331	61679.4
1956.23103	61518.7
1959.31675	61236
1962.40046	61166.6
1965.48217	60940.9
1968.56188	60731.2
1971.63959	60588.6
1974.7153	60499
1977.78901	60232.8
1980.86073	59993.4
1983.93046	59774.2
1986.99819	59525.1
1990.06394	59397.8
1993.1277	59192.4
1996.18947	59001.8
1999.24925	58828.5
2002.30706	58685
2005.36288	58611.2
2008.41672	58431.9
2011.46859	58265.8
2014.51848	58042.2
2017.56639	57993.5
2020.61233	57802.7
2023.6563	57644.6
2026.6983	57402.1
2029.73833	57210.4
2032.7764	56905.2
2035.8125	56837.1
2038.84664	56627.7
2041.87881	56568.5
2044.90903	56466.4
2047.93729	56330.9
2050.96359	56335.5
2053.98794	56195.5
2057.01034	56152.3
2060.03078	56065
2063.04927	55906.9
2066.06582	55811.2
2069.08042	55769.5
2072.09307	55751.8
2075.10378	55666.2
2078.11255	55554.5
2081.11938	55588.4
2084.12426	55448.2
2087.12722	55337.9
2090.12824	55303.9
2093.12732	55363.4
2096.12447	55406.2
2099.11969	55415.7
2102.11299	55500.6
2105.10435	55575.8
2108.09379	55550.4
2111.08131	55554.4
2114.0669	55491.3
2117.05057	55484.2
2120.03233	55557.1
2123.01216	55560.3
2125.99008	55566.7
2128.96609	55664.6
2131.94018	55717.2
2134.91236	55689.3
2137.88263	55673.7
2140.851	55726.2
2143.81746	55741
2146.78201	55729.3
2149.74466	55767.2
2152.7054	55733.4
2155.66425	55654.5
2158.6212	55636
2161.57625	55546.9
2164.52941	55433.5
2167.48067	55513.7
2170.43004	55508.4
2173.37752	55361.7
2176.32311	55316.9
2179.26681	55295.2
2182.20863	55324.9
2185.14856	55385
2188.08661	55342.1
2191.02278	55315.3
2193.95707	55290.5
2196.88948	55172
2199.82001	55124.6
2202.74867	55040.5
2205.67545	55022.9
2208.60037	54865.5
2211.52341	54700.9
2214.44458	54530.7
2217.36388	54342.5
2220.28132	54304.8
2223.1969	54096.1
2226.11061	54032.9
2229.02246	53924.1
2231.93245	53841.3
2234.84058	53739.8
2237.74686	53623.4
2240.65128	53523.9
2243.55385	53462.7
2246.45456	53397.9
2249.35343	53308.1
2252.25044	53306.9
2255.14561	53285.8
2258.03893	53188.6
2260.93041	53110.8
2263.82004	52980.9
2266.70783	52817
2269.59378	52749.5
2272.4779	52698.7
2275.36017	52529.2
2278.24061	52376.4
2281.11922	52277
2283.996	52200.6
2286.87094	52069
2289.74405	51948.9
2292.61534	51911.9
2295.4848	51773.3
2298.35243	51722.4
2301.21824	51625.3
2304.08223	51574.3
2306.94439	51482.8
2309.80474	51460.6
2312.66327	51555.9
2315.51999	51319.3
2318.37489	51401.9
2321.22797	51378.8
2324.07925	51151.4
2326.92871	51043.2
2329.77637	51008.9
2332.62222	50889.7
2335.46626	50833.8
2338.3085	50808.1
2341.14893	50754.2
2343.98756	50733.1
2346.8244	50563.1
2349.65943	50756.7
2352.49267	50655.8
2355.32411	50596.1
2358.15376	50627.3
2360.98161	50605.2
2363.80768	50672.8
2366.63195	50638
2369.45444	50491.6
2372.27514	50468.9
2375.09405	50452.3
2377.91118	50395.2
2380.72652	50165.2
2383.54009	49965.8
2386.35187	49923.2
2389.16188	49851.4
2391.97011	49758.6
2394.77657	49670.2
2397.58125	49516.7
2400.38416	49362.9
2403.18529	49229.8
2405.98466	49221.8
2408.78226	49222.1
2411.57809	49138.3
2414.37216	49033.5
2417.16446	49011.4
2419.955	48911.3
2422.74378	48979.9
2425.5308	48886.6
2428.31606	48796.9
2431.09956	48955.7
2433.88131	48734.2
2436.6613	48732.9
2439.43954	48704.3
2442.21603	48754.6
2444.99077	48685
2447.76377	48610.1
2450.53501	48566.8
2453.30451	48592
2456.07226	48491.8
2458.83827	48369.6
2461.60254	48369.3
2464.36507	48350.7
2467.12586	48324.2
2469.88492	48312.5
2472.64224	48155.1
2475.39782	48054.2
2478.15167	48189.9
2480.90379	48202.7
2483.65417	48311.5
2486.40283	48243.1
2489.14976	48300.9
2491.89497	48207.8
2494.63845	48220.5
2497.3802	48058.3
2500.12024	47982.7
2502.85855	47906.1
2505.59514	47867.8
2508.33002	47754.1
2511.06318	47665.8
2513.79462	47593.1
2516.52435	47536.5
2519.25237	47515.2
2521.97867	47432.6
2524.70327	47414.6
2527.42616	47338
2530.14734	47243.4
2532.86681	47167.2
2535.58458	47138.6
2538.30065	47077.2
2541.01501	47109.7
2543.72768	47059.8
2546.43864	47056.2
2549.14791	46936.5
2551.85548	47007
2554.56136	46904.1
2557.26554	46774.5
2559.96803	46672.7
2562.66883	46587.6
2565.36794	46443.9
2568.06536	46338.5
2570.7611	46221.5
2573.45514	46123.4
2576.14751	46040.3
2578.83819	45948.4
2581.52719	45891
2584.21451	45798.5
2586.90015	45742.7
2589.58411	45610
2592.2664	45635.9
2594.94701	45529.9
2597.62594	45555.2
2600.30321	45474.6
2602.9788	45368.4
2605.65273	45237.1
2608.32498	45203.3
2610.99557	45223.6
2613.66449	45262.7
2616.33175	45179.8
2618.99734	45115.5
2621.66128	44946.9
2624.32355	44865
2626.98416	44906.3
2629.64311	44829.6
2632.30041	44726.4
2634.95605	44645.5
2637.61004	44606.5
2640.26238	44540.1
2642.91306	44441.5
2645.56209	44415.3
2648.20948	44370.6
2650.85521	44368.1
2653.4993	44412.5
2656.14175	44361.9
2658.78255	44381.1
2661.42171	44433.7
2664.05923	44546
2666.6951	44528.9
2669.32934	44543.9
2671.96194	44469.5
2674.59291	44486.1
2677.22224	44427
2679.84993	44392.9
2682.476	44331.3
2685.10043	44360.3
2687.72324	44278.5
2690.34441	44285.9
2692.96396	44241.2
2695.58188	44262.6
2698.19818	44211.8
2700.81285	44245.7
2703.4259	44232.8
2706.03733	44272.6
2708.64714	44241
2711.25533	44247.6
2713.86191	44169.6
2716.46687	44278.3
2719.07021	44236.4
2721.67194	44247
2724.27206	44155.4
2726.87057	44181.1
2729.46747	44116.5
2732.06276	44181.3
2734.65644	44076.4
2737.24852	44088.2
2739.83899	44008.6
2742.42786	43937.7
2745.01513	43871.6
2747.60079	43813.3
2750.18486	43748.9
2752.76733	43772.4
2755.3482	43792.1
2757.92747	43776.2
2760.50515	43653.7
2763.08123	43575.6
2765.65573	43450.3
2768.22863	43371
2770.79994	43355.9
2773.36967	43364.8
2775.9378	43290.3
2778.50435	43178.7
2781.06932	43150.3
2783.6327	43171.2
2786.1945	43090.8
2788.75471	42947.9
2791.31335	42823.7
2793.87041	42728.4
2796.42589	42598.5
2798.97979	42623.3
2801.53212	42550.5
2804.08288	42465.9
2806.63206	42436.7
2809.17967	42362.4
2811.72571	42248.3
2814.27018	42147.5
2816.81308	41987
2819.35442	41905.1
2821.89419	41782
2824.43239	41733.2
2826.96904	41644.7
2829.50412	41640.7
2832.03763	41590.5
2834.56959	41626.8
2837.1	41547.1
2839.62884	41574.9
2842.15613	41391.4
2844.68186	41304.9
2847.20604	41207.9
2849.72867	41150.3
2852.24974	41063.4
2854.76927	41028.4
2857.28724	40944
2859.80367	40982.2
2862.31855	40939.4
2864.83189	40979.7
2867.34368	40936.7
2869.85393	40872.1
2872.36264	40777.7
2874.8698	40681.9
2877.37543	40664.3
2879.87952	40573.3
2882.38207	40494.1
2884.88308	40501.8
2887.38256	40454
2889.88051	40409.6
2892.37692	40353.4
2894.8718	40318.1
2897.36515	40471.6
2899.85698	40407.4
2902.34727	40409.1
2904.83604	40427.1
2907.32328	40565.7
2909.809	40643.7
2912.29319	40680
2914.77587	40662.3
2917.25702	40614.4
2919.73665	40492.7
2922.21476	40566
2924.69136	40422.3
2927.16644	40410.4
2929.64	40309.3
2932.11205	40214.7
2934.58258	40025.4
2937.05161	40016.1
2939.51912	39956.5
2941.98513	39927.8
2944.44962	39845.5
2946.91261	39786.6
2949.37409	39798.4
2951.83407	39735.4
2954.29254	39773.2
2956.74951	39752.9
2959.20498	39728.8
2961.65895	39633.4
2964.11142	39666.3
2966.56239	39615.5
2969.01186	39589.4
2971.45984	39520.1
2973.90632	39497.8
2976.35131	39394
2978.7948	39338.3
2981.23681	39251.7
2983.67732	39214.7
2986.11635	39081.9
2988.55388	39069.8
2990.98993	38954
2993.4245	38875.5
2995.85758	38746.5
2998.28917	38638.7
3000.71928	38610.8
3003.14791	38530.5
3005.57506	38434.9
3008.00073	38207
3010.42493	38161.4
3012.84764	38045
3015.26888	38020
3017.68865	37932.5
3020.10694	37847.6
3022.52376	37744.7
3024.9391	37737.7
3027.35298	37612.8
3029.76539	37627.1
3032.17632	37570.1
3034.5858	37477.1
3036.9938	37440.9
3039.40034	37378.4
3041.80542	37311.9
3044.20903	37180.6
3046.61118	37099.8
3049.01187	37000.5
3051.4111	37013
3053.80888	36896.3
3056.20519	36851.5
3058.60005	36690.4
3060.99345	36591.2
3063.3854	36516.3
3065.7759	36468
3068.16494	36326.4
3070.55254	36151.2
3072.93868	36116.2
3075.32338	35976.6
3077.70662	36009.1
3080.08842	35834.4
3082.46878	35773.2
3084.84769	35711.7
3087.22515	35691.3
3089.60118	35695.1
3091.97576	35610.2
3094.3489	35583.9
3096.72061	35523.5
3099.09087	35502.3
3101.4597	35447.2
3103.82709	35398.4
3106.19305	35283.9
3108.55757	35305.2
3110.92066	35254.6
3113.28232	35182.3
3115.64255	35100
3118.00134	35088.4
3120.35871	34940
3122.71466	34759.5
3125.06917	34658.4
3127.42226	34563.2
3129.77393	34554.1
3132.12417	34476
3134.47299	34541.6
3136.82039	34419.4
3139.16636	34346.2
3141.51092	34262
3143.85406	34304.7
3146.19579	34293.6
3148.53609	34200.3
3150.87499	34316.3
3153.21246	34312.7
3155.54853	34274.7
3157.88318	34226.5
3160.21642	34258.9
3162.54826	34205.3
3164.87868	34133.6
3167.2077	34174.3
3169.5353	34127.9
3171.86151	34015.7
3174.18631	33943.5
3176.5097	33880.9
3178.83169	33860.8
3181.15228	33856.2
3183.47147	33705.2
3185.78926	33619.7
3188.10565	33566.4
3190.42065	33547.2
3192.73424	33564.6
3195.04645	33483.7
3197.35725	33452.5
3199.66667	33331.4
3201.97469	33352.5
3204.28132	33308.7
3206.58656	33268.9
3208.8904	33233.1
3211.19287	33203.2
3213.49394	33245
3215.79363	33220.2
3218.09193	33277.9
3220.38884	33239.5
3222.68438	33281.9
3224.97853	33175.7
3227.2713	33075.1
3229.56269	33067.3
3231.8527	33028.6
3234.14133	33016.2
3236.42858	32901.5
3238.71446	32847.1
3240.99896	32702.5
3243.28209	32725.4
3245.56384	32585.8
3247.84423	32545.9
3250.12324	32486.9
3252.40088	32401.3
3254.67715	32408.6
3256.95205	32427.6
3259.22558	32420.5
3261.49775	32348
3263.76855	32256.4
3266.03799	32138.1
3268.30606	32153
3270.57277	32049.9
3272.83812	32042.7
3275.10211	31999.4
3277.36474	31888.6
3279.62601	31875.3
3281.88593	31831.6
3284.14448	31890.9
3286.40168	31885.7
3288.65753	31730.4
3290.91202	31763.3
3293.16516	31679.6
3295.41695	31617.1
3297.66738	31472.6
3299.91647	31302
3302.16421	31145.7
3304.4106	31047.1
3306.65564	30853.4
3308.89933	30659.5
3311.14169	30425.6
3313.38269	30217.4
3315.62236	30067.1
3317.86068	29855.6
3320.09766	29642.7
3322.3333	29464.6
3324.5676	29377.7
3326.80056	28990.3
3329.03219	28846.7
3331.26248	6.8
3333.49143	-0
3335.71905	-0.5
