Data from AgNPs_UA_5uM_CRN_0uM_R6G_10uM_Q_RamanShift__30__11-24-15-327.txt Node

Date: Mon Jul 18 11:24:15 BST 2022
User: TCL
Spectrometer: QEP01345
Trigger mode: 4
Integration Time (sec): 7.000000E0
Scans to average: 10
Electric dark correction enabled: true
Nonlinearity correction enabled: false
Boxcar width: 0
XAxis mode: Raman Shifts
Number of Pixels in Spectrum: 1044
>>>>>Begin Spectral Data<<<<<
46.04893	-0.225
50.45542	-2.425
54.85868	-1.225
59.25871	-1.225
63.6555	105.575
68.04907	113.075
72.43941	115.675
76.82654	124.975
81.21044	126.975
85.59113	126.875
89.96862	135.975
94.34289	132.875
98.71396	144.875
103.08183	148.775
107.4465	153.775
111.80798	156.875
116.16626	159.875
120.52136	166.775
124.87327	174.475
129.222	183.175
133.56755	194.275
137.90993	211.475
142.24913	233.775
146.58517	255.775
150.91804	295.075
155.24774	356.575
159.57429	440.675
163.89768	566.875
168.21792	751.075
172.53501	1013.675
176.84895	1421.375
181.15975	1981.875
185.46741	2770.375
189.77193	3799.975
194.07331	5082.775
198.37157	6532.975
202.6667	8025.375
206.9587	9528.475
211.24758	11025.175
215.53334	12575.175
219.81599	14234.075
224.09553	16132.175
228.37195	18253.375
232.64527	20607.375
236.91549	22944.775
241.18261	25216.875
245.44663	27193.275
249.70755	28856.675
253.96539	30304.875
258.22014	31555.975
262.4718	32602.575
266.72039	33333.175
270.96589	33648.575
275.20832	33617.875
279.44768	33322.675
283.68397	32883.275
287.91719	32577.275
292.14735	32551.675
296.37445	32872.275
300.59849	33677.175
304.81948	34577.675
309.03742	35205.775
313.25231	35111.175
317.46415	33959.675
321.67296	32300.275
325.87872	31037.375
330.08145	30488.975
334.28114	30651.675
338.47781	31164.475
342.67145	31837.575
346.86207	32919.775
351.04966	34348.975
355.23424	35960.075
359.4158	37328.575
363.59435	38231.175
367.76989	38701.275
371.94243	38877.175
376.11196	38924.575
380.27849	39071.875
384.44203	39092.975
388.60257	38976.675
392.76012	39118.775
396.91468	39658.075
401.06626	40564.275
405.21485	41241.275
409.36047	40914.675
413.50311	39778.475
417.64277	38724.575
421.77947	38091.075
425.9132	38059.575
430.04396	38358.375
434.17176	38948.175
438.2966	39961.175
442.41849	41351.675
446.53742	43136.775
450.6534	44929.375
454.76644	46275.075
458.87653	46609.075
462.98368	45807.075
467.08789	44536.875
471.18916	43069.775
475.2875	41501.075
479.38291	40322.275
483.4754	39460.075
487.56496	38733.875
491.6516	38031.175
495.73531	37612.075
499.81612	37457.775
503.89401	37675.175
507.96899	37940.275
512.04106	38257.975
516.11023	38709.575
520.1765	39038.075
524.23987	39127.275
528.30034	38885.375
532.35792	38529.375
536.41261	37990.675
540.46441	37447.175
544.51333	37334.575
548.55936	37659.475
552.60252	38308.475
556.64279	38793.475
560.6802	38851.775
564.71473	39199.275
568.7464	40166.175
572.7752	40820.775
576.80114	40435.575
580.82422	40219.275
584.84444	40721.875
588.86181	41749.275
592.87633	42811.075
596.888	43834.275
600.89682	45425.075
604.9028	50214.775
608.90594	60309.375
612.90624	69290.975
616.90371	63138.675
620.89834	48831.475
624.89015	43236.275
628.87913	42374.375
632.86528	41687.375
636.84862	40863.075
640.82913	39721.475
644.80683	38310.175
648.78172	37529.375
652.75379	37882.275
656.72306	39381.075
660.68952	40813.475
664.65319	40459.975
668.61405	39220.975
672.57211	38736.875
676.52738	38548.575
680.47986	38335.175
684.42955	38171.975
688.37646	38250.675
692.32058	38368.175
696.26192	38770.475
700.20048	39205.275
704.13626	39328.675
708.06928	38895.975
711.99952	38522.575
715.927	38514.175
719.85171	38582.575
723.77365	38330.775
727.69284	37889.675
731.60928	37722.175
735.52295	37935.875
739.43388	38276.375
743.34206	38803.575
747.24749	39270.175
751.15017	39729.975
755.05012	40599.875
758.94733	42330.975
762.8418	45668.475
766.73354	50864.975
770.62254	55851.575
774.50882	57820.175
778.39237	54978.175
782.27321	48998.375
786.15132	43698.275
790.02671	40796.175
793.89938	39570.975
797.76935	39136.175
801.6366	38951.175
805.50115	38777.075
809.36299	38532.975
813.22213	38348.475
817.07857	38204.475
820.93231	38219.075
824.78336	38335.375
828.63172	38571.275
832.47738	38751.275
836.32036	38897.075
840.16066	39001.375
843.99827	39051.375
847.8332	38818.775
851.66546	38523.575
855.49504	38486.075
859.32195	38456.975
863.1462	38174.775
866.96777	37968.975
870.78668	37946.975
874.60293	38002.175
878.41652	38128.475
882.22745	38402.575
886.03573	38498.475
889.84136	38471.675
893.64433	38156.575
897.44466	38073.775
901.24235	38105.875
905.0374	38041.975
908.8298	37962.575
912.61957	38050.975
916.40671	38498.075
920.19121	39008.875
923.97308	39740.075
927.75233	40288.275
931.52895	40495.775
935.30295	40001.875
939.07433	38990.875
942.84309	38314.475
946.60924	37960.775
950.37278	37688.775
954.13371	37329.675
957.89203	37098.275
961.64774	36916.775
965.40086	36765.375
969.15137	36656.675
972.89929	36574.175
976.64461	36632.775
980.38733	36825.375
984.12747	37136.675
987.86502	37505.275
991.59999	38162.975
995.33237	39466.275
999.06217	41649.775
1002.78939	43945.475
1006.51404	45024.075
1010.23611	45502.175
1013.95561	46353.975
1017.67255	46976.675
1021.38692	46604.975
1025.09872	46230.875
1028.80796	46970.575
1032.51465	48835.975
1036.21877	50237.575
1039.92035	49959.275
1043.61937	48556.875
1047.31584	46437.575
1051.00976	44449.475
1054.70114	43490.675
1058.38998	43385.475
1062.07627	43544.875
1065.76003	43607.975
1069.44126	43649.475
1073.11995	43912.775
1076.79611	44139.675
1080.46974	44524.675
1084.14085	45184.675
1087.80943	45907.675
1091.47549	45972.375
1095.13903	45143.875
1098.80005	43787.975
1102.45857	42881.075
1106.11456	42726.875
1109.76805	43030.975
1113.41903	43907.975
1117.06751	44957.775
1120.71348	46143.875
1124.35696	47408.475
1127.99793	48301.775
1131.63641	47994.075
1135.2724	46747.775
1138.90589	45531.475
1142.5369	44631.275
1146.16542	43980.675
1149.79145	43803.575
1153.415	44068.575
1157.03607	44585.175
1160.65467	45410.975
1164.27079	46863.675
1167.88443	49226.875
1171.49561	52819.375
1175.10432	58367.675
1178.71056	65603.075
1182.31434	72055.475
1185.91565	75832.175
1189.51451	75974.075
1193.11091	72079.275
1196.70485	66331.775
1200.29634	61406.575
1203.88538	57921.475
1207.47197	55052.075
1211.05612	53065.575
1214.63782	52325.875
1218.21708	52645.875
1221.79391	53414.175
1225.36829	54078.375
1228.94024	54104.375
1232.50976	53745.575
1236.07685	53599.775
1239.6415	53765.775
1243.20374	54039.575
1246.76355	54285.275
1250.32093	55079.075
1253.8759	56661.975
1257.42845	58811.775
1260.97859	60570.375
1264.52631	61905.975
1268.07163	63086.775
1271.61453	64546.775
1275.15503	66273.575
1278.69312	68323.275
1282.22882	70235.975
1285.76211	72009.475
1289.29301	73717.675
1292.82151	75345.275
1296.34761	77392.375
1299.87133	80388.975
1303.39266	85517.175
1306.9116	92949.775
1310.42815	101091.975
1313.94233	105845.075
1317.45412	104873.375
1320.96354	100354.875
1324.47058	95858.875
1327.97525	92894.275
1331.47754	92309.775
1334.97747	93400.675
1338.47502	94900.775
1341.97022	96404.875
1345.46305	97605.075
1348.95352	98627.575
1352.44163	100566.975
1355.92738	104901.375
1359.41078	112742.275
1362.89183	119184.175
1366.37053	114861.675
1369.84688	101468.675
1373.32088	87830.975
1376.79254	78955.675
1380.26186	74521.775
1383.72883	72830.475
1387.19347	71514.875
1390.65578	69434.075
1394.11575	67643.175
1397.57339	67151.275
1401.0287	68232.875
1404.48168	70536.775
1407.93234	73496.475
1411.38068	76372.675
1414.82669	77032.275
1418.27039	75088.175
1421.71177	72199.875
1425.15083	70337.175
1428.58758	70186.775
1432.02203	71359.875
1435.45416	72561.775
1438.88399	72964.875
1442.31151	72915.475
1445.73673	72942.575
1449.15965	72681.175
1452.58027	71676.275
1455.9986	70195.675
1459.41463	69473.875
1462.82837	69871.975
1466.23982	71321.975
1469.64898	73042.475
1473.05586	74426.075
1476.46045	75730.975
1479.86276	77176.075
1483.26279	78480.775
1486.66054	79677.075
1490.05602	81396.275
1493.44922	83637.075
1496.84016	86354.875
1500.22882	89908.075
1503.61521	94699.375
1506.99934	100100.675
1510.38121	104175.475
1513.76081	104255.475
1517.13816	99646.775
1520.51324	92192.375
1523.88607	85654.675
1527.25665	81484.375
1530.62498	79240.575
1533.99105	77900.075
1537.35488	77000.275
1540.71647	76546.275
1544.07581	76016.775
1547.4329	75014.575
1550.78776	73466.975
1554.14038	71798.675
1557.49077	70730.475
1560.83892	70358.775
1564.18484	70417.775
1567.52853	70671.875
1570.86999	70879.275
1574.20922	71058.875
1577.54624	70578.775
1580.88103	68846.775
1584.2136	67348.175
1587.54395	67999.875
1590.87208	72023.775
1594.19801	79290.975
1597.52172	88208.075
1600.84321	93886.875
1604.16251	92680.475
1607.47959	85732.675
1610.79447	76502.275
1614.10715	68087.375
1617.41763	62042.375
1620.7259	58449.775
1624.03199	56919.275
1627.33587	57243.675
1630.63757	59398.875
1633.93707	63353.475
1637.23439	68777.075
1640.52951	75315.175
1643.82246	82158.975
1647.11321	87024.475
1650.40179	87423.475
1653.68819	81165.275
1656.97241	70815.775
1660.25446	60878.475
1663.53433	53788.475
1666.81203	49363.775
1670.08756	46537.375
1673.36092	44712.775
1676.63211	43475.075
1679.90115	42581.275
1683.16801	41865.775
1686.43272	41386.175
1689.69527	41056.675
1692.95567	40822.475
1696.2139	40608.075
1699.46999	40499.975
1702.72392	40434.975
1705.97571	40392.375
1709.22535	40364.675
1712.47284	40409.975
1715.71819	40451.075
1718.96139	40354.975
1722.20246	40193.275
1725.44139	39994.175
1728.67818	39762.675
1731.91284	39539.875
1735.14537	39296.075
1738.37576	39195.375
1741.60403	39054.475
1744.83017	38929.475
1748.05418	38873.575
1751.27607	38827.775
1754.49584	38730.975
1757.71349	38699.275
1760.92903	38641.475
1764.14244	38622.575
1767.35375	38572.775
1770.56294	38515.375
1773.77002	38514.175
1776.97499	38503.575
1780.17785	38474.875
1783.37861	38394.775
1786.57727	38352.175
1789.77382	38396.075
1792.96828	38392.175
1796.16064	38388.475
1799.3509	38340.675
1802.53907	38316.775
1805.72514	38236.275
1808.90913	38150.675
1812.09102	38132.675
1815.27083	38007.475
1818.44856	37946.675
1821.6242	37956.175
1824.79776	37895.075
1827.96924	37835.275
1831.13864	37732.475
1834.30597	37713.375
1837.47122	37692.375
1840.6344	37670.575
1843.7955	37826.575
1846.95454	37779.875
1850.11151	37689.375
1853.26642	37667.175
1856.41926	37699.675
1859.57004	37725.575
1862.71876	37806.775
1865.86542	37856.875
1869.01003	37895.375
1872.15258	37928.175
1875.29308	37944.475
1878.43152	37849.275
1881.56792	37901.175
1884.70227	37818.575
1887.83457	37820.475
1890.96482	37813.575
1894.09304	37889.375
1897.21921	37838.175
1900.34335	37857.075
1903.46544	37852.075
1906.58551	37816.475
1909.70353	37791.675
1912.81953	37787.675
1915.93349	37762.775
1919.04543	37756.875
1922.15534	37743.475
1925.26322	37672.675
1928.36908	37670.175
1931.47292	37601.875
1934.57473	37604.475
1937.67453	37510.775
1940.77232	37436.975
1943.86808	37301.175
1946.96184	37206.875
1950.05358	37045.275
1953.14331	37012.575
1956.23103	36869.875
1959.31675	36752.875
1962.40046	36643.475
1965.48217	36548.975
1968.56188	36456.875
1971.63959	36350.075
1974.7153	36230.375
1977.78901	36162.775
1980.86073	36040.875
1983.93046	35926.275
1986.99819	35789.375
1990.06394	35711.375
1993.1277	35628.875
1996.18947	35507.875
1999.24925	35436.575
2002.30706	35368.375
2005.36288	35338.875
2008.41672	35297.575
2011.46859	35151.475
2014.51848	35074.675
2017.56639	35016.275
2020.61233	34992.375
2023.6563	34832.875
2026.6983	34758.375
2029.73833	34668.175
2032.7764	34603.175
2035.8125	34595.675
2038.84664	34537.675
2041.87881	34523.175
2044.90903	34446.375
2047.93729	34375.675
2050.96359	34445.075
2053.98794	34372.575
2057.01034	34337.075
2060.03078	34323.375
2063.04927	34228.175
2066.06582	34198.075
2069.08042	34151.475
2072.09307	34188.175
2075.10378	34133.175
2078.11255	34062.575
2081.11938	34059.475
2084.12426	34000.875
2087.12722	33953.475
2090.12824	33924.475
2093.12732	33927.575
2096.12447	33909.975
2099.11969	33940.275
2102.11299	34011.775
2105.10435	33981.475
2108.09379	33990.075
2111.08131	34008.875
2114.0669	33945.475
2117.05057	33960.875
2120.03233	34003.775
2123.01216	34010.175
2125.99008	34020.875
2128.96609	34068.575
2131.94018	34054.275
2134.91236	34055.275
2137.88263	34141.075
2140.851	34109.675
2143.81746	34089.775
2146.78201	34106.275
2149.74466	34155.375
2152.7054	34157.875
2155.66425	34129.575
2158.6212	34162.075
2161.57625	34090.175
2164.52941	34104.975
2167.48067	34084.075
2170.43004	34089.375
2173.37752	34055.775
2176.32311	34078.275
2179.26681	34041.875
2182.20863	34095.575
2185.14856	34175.875
2188.08661	34185.575
2191.02278	34168.175
2193.95707	34160.775
2196.88948	34163.275
2199.82001	34210.275
2202.74867	34255.075
2205.67545	34235.275
2208.60037	34207.275
2211.52341	34102.575
2214.44458	34116.875
2217.36388	34063.975
2220.28132	34067.275
2223.1969	33986.475
2226.11061	33910.875
2229.02246	33801.475
2231.93245	33808.975
2234.84058	33716.875
2237.74686	33605.775
2240.65128	33585.275
2243.55385	33492.275
2246.45456	33511.475
2249.35343	33457.375
2252.25044	33428.775
2255.14561	33446.375
2258.03893	33390.675
2260.93041	33338.675
2263.82004	33278.575
2266.70783	33212.175
2269.59378	33072.475
2272.4779	33090.775
2275.36017	32934.975
2278.24061	32830.975
2281.11922	32776.775
2283.996	32773.675
2286.87094	32717.375
2289.74405	32638.175
2292.61534	32667.075
2295.4848	32613.475
2298.35243	32617.975
2301.21824	32616.175
2304.08223	32663.075
2306.94439	32663.175
2309.80474	32730.675
2312.66327	32807.775
2315.51999	32823.475
2318.37489	32914.975
2321.22797	32895.875
2324.07925	32800.575
2326.92871	32789.675
2329.77637	32736.575
2332.62222	32752.475
2335.46626	32775.475
2338.3085	32817.975
2341.14893	32925.575
2343.98756	32949.975
2346.8244	32978.775
2349.65943	33126.975
2352.49267	33103.175
2355.32411	33123.275
2358.15376	33072.075
2360.98161	33058.575
2363.80768	33005.575
2366.63195	32935.975
2369.45444	32816.775
2372.27514	32701.175
2375.09405	32679.975
2377.91118	32599.975
2380.72652	32416.675
2383.54009	32321.775
2386.35187	32320.275
2389.16188	32251.075
2391.97011	32212.775
2394.77657	32164.475
2397.58125	32101.275
2400.38416	32016.275
2403.18529	31968.075
2405.98466	31910.575
2408.78226	31850.575
2411.57809	31723.575
2414.37216	31645.375
2417.16446	31631.375
2419.955	31471.775
2422.74378	31514.475
2425.5308	31516.475
2428.31606	31472.475
2431.09956	31485.675
2433.88131	31429.675
2436.6613	31492.275
2439.43954	31469.175
2442.21603	31501.575
2444.99077	31438.775
2447.76377	31405.875
2450.53501	31328.975
2453.30451	31365.075
2456.07226	31334.075
2458.83827	31283.875
2461.60254	31255.575
2464.36507	31323.675
2467.12586	31296.175
2469.88492	31315.675
2472.64224	31292.475
2475.39782	31249.475
2478.15167	31334.575
2480.90379	31442.775
2483.65417	31537.575
2486.40283	31607.875
2489.14976	31710.475
2491.89497	31703.875
2494.63845	31720.875
2497.3802	31689.175
2500.12024	31702.575
2502.85855	31708.475
2505.59514	31658.875
2508.33002	31571.875
2511.06318	31552.275
2513.79462	31524.675
2516.52435	31461.775
2519.25237	31395.475
2521.97867	31399.775
2524.70327	31355.375
2527.42616	31364.575
2530.14734	31403.675
2532.86681	31344.875
2535.58458	31376.775
2538.30065	31367.775
2541.01501	31401.075
2543.72768	31380.875
2546.43864	31353.575
2549.14791	31340.075
2551.85548	31339.375
2554.56136	31314.175
2557.26554	31251.675
2559.96803	31223.775
2562.66883	31175.675
2565.36794	31159.175
2568.06536	31110.175
2570.7611	31049.875
2573.45514	31031.075
2576.14751	31014.075
2578.83819	31026.975
2581.52719	31072.475
2584.21451	31083.475
2586.90015	31109.875
2589.58411	31083.575
2592.2664	31145.775
2594.94701	31099.375
2597.62594	31160.975
2600.30321	31125.775
2602.9788	31156.275
2605.65273	31115.375
2608.32498	31132.575
2610.99557	31154.775
2613.66449	31184.975
2616.33175	31223.575
2618.99734	31237.275
2621.66128	31252.575
2624.32355	31285.275
2626.98416	31441.575
2629.64311	31491.575
2632.30041	31510.275
2634.95605	31450.775
2637.61004	31388.475
2640.26238	31368.375
2642.91306	31311.975
2645.56209	31262.175
2648.20948	31178.175
2650.85521	31168.175
2653.4993	31066.275
2656.14175	31087.475
2658.78255	31167.675
2661.42171	31192.975
2664.05923	31320.375
2666.6951	31411.275
2669.32934	31423.475
2671.96194	31453.975
2674.59291	31459.475
2677.22224	31469.575
2679.84993	31456.775
2682.476	31426.075
2685.10043	31399.175
2687.72324	31372.375
2690.34441	31370.975
2692.96396	31306.475
2695.58188	31322.375
2698.19818	31252.475
2700.81285	31244.475
2703.4259	31252.575
2706.03733	31328.675
2708.64714	31256.575
2711.25533	31267.275
2713.86191	31292.275
2716.46687	31368.875
2719.07021	31346.575
2721.67194	31384.875
2724.27206	31340.475
2726.87057	31368.475
2729.46747	31380.675
2732.06276	31423.675
2734.65644	31376.275
2737.24852	31450.475
2739.83899	31418.575
2742.42786	31360.975
2745.01513	31291.575
2747.60079	31296.975
2750.18486	31318.475
2752.76733	31371.675
2755.3482	31381.175
2757.92747	31377.875
2760.50515	31377.875
2763.08123	31360.575
2765.65573	31296.075
2768.22863	31316.175
2770.79994	31296.875
2773.36967	31376.175
2775.9378	31332.275
2778.50435	31320.675
2781.06932	31410.075
2783.6327	31413.475
2786.1945	31453.675
2788.75471	31365.175
2791.31335	31268.075
2793.87041	31250.975
2796.42589	31112.475
2798.97979	31246.775
2801.53212	31174.275
2804.08288	31106.875
2806.63206	31030.575
2809.17967	31016.475
2811.72571	31006.375
2814.27018	30979.775
2816.81308	30884.275
2819.35442	30872.675
2821.89419	30803.475
2824.43239	30875.075
2826.96904	30821.175
2829.50412	30859.175
2832.03763	30927.775
2834.56959	30910.175
2837.1	30877.375
2839.62884	30917.475
2842.15613	30838.375
2844.68186	30816.475
2847.20604	30774.375
2849.72867	30742.275
2852.24974	30688.675
2854.76927	30703.375
2857.28724	30652.675
2859.80367	30645.075
2862.31855	30638.775
2864.83189	30695.475
2867.34368	30617.475
2869.85393	30614.075
2872.36264	30541.975
2874.8698	30480.475
2877.37543	30440.075
2879.87952	30429.975
2882.38207	30393.375
2884.88308	30395.975
2887.38256	30424.875
2889.88051	30360.075
2892.37692	30416.975
2894.8718	30378.175
2897.36515	30457.875
2899.85698	30454.275
2902.34727	30550.075
2904.83604	30545.475
2907.32328	30634.575
2909.809	30681.075
2912.29319	30727.575
2914.77587	30724.775
2917.25702	30691.575
2919.73665	30606.375
2922.21476	30664.575
2924.69136	30575.175
2927.16644	30522.075
2929.64	30526.675
2932.11205	30437.275
2934.58258	30322.775
2937.05161	30364.775
2939.51912	30375.575
2941.98513	30359.775
2944.44962	30289.675
2946.91261	30190.875
2949.37409	30271.275
2951.83407	30180.875
2954.29254	30146.675
2956.74951	30177.075
2959.20498	30112.275
2961.65895	30029.375
2964.11142	30021.575
2966.56239	29949.875
2969.01186	29926.475
2971.45984	29853.075
2973.90632	29788.675
2976.35131	29759.475
2978.7948	29619.575
2981.23681	29532.975
2983.67732	29492.775
2986.11635	29374.575
2988.55388	29328.475
2990.98993	29253.475
2993.4245	29156.175
2995.85758	29032.175
2998.28917	29011.175
3000.71928	28939.875
3003.14791	28817.175
3005.57506	28770.075
3008.00073	28655.175
3010.42493	28541.775
3012.84764	28499.875
3015.26888	28475.375
3017.68865	28383.375
3020.10694	28341.475
3022.52376	28239.175
3024.9391	28165.675
3027.35298	28142.575
3029.76539	28130.475
3032.17632	28100.375
3034.5858	28052.175
3036.9938	28039.175
3039.40034	28009.175
3041.80542	28008.675
3044.20903	27896.375
3046.61118	27885.775
3049.01187	27815.875
3051.4111	27841.375
3053.80888	27695.075
3056.20519	27663.175
3058.60005	27516.775
3060.99345	27415.575
3063.3854	27284.775
3065.7759	27214.675
3068.16494	27094.075
3070.55254	26972.575
3072.93868	26874.475
3075.32338	26770.275
3077.70662	26744.975
3080.08842	26639.675
3082.46878	26599.675
3084.84769	26547.575
3087.22515	26548.675
3089.60118	26500.275
3091.97576	26459.275
3094.3489	26443.475
3096.72061	26397.775
3099.09087	26356.775
3101.4597	26313.675
3103.82709	26264.175
3106.19305	26193.675
3108.55757	26163.075
3110.92066	26114.175
3113.28232	26104.375
3115.64255	26052.175
3118.00134	26022.575
3120.35871	25948.775
3122.71466	25857.975
3125.06917	25817.875
3127.42226	25691.475
3129.77393	25684.875
3132.12417	25634.675
3134.47299	25696.275
3136.82039	25582.175
3139.16636	25528.375
3141.51092	25472.975
3143.85406	25501.675
3146.19579	25416.175
3148.53609	25425.175
3150.87499	25424.275
3153.21246	25432.575
3155.54853	25386.575
3157.88318	25372.475
3160.21642	25448.175
3162.54826	25378.275
3164.87868	25344.875
3167.2077	25314.175
3169.5353	25275.975
3171.86151	25288.075
3174.18631	25155.675
3176.5097	25133.875
3178.83169	25101.175
3181.15228	25112.275
3183.47147	25058.175
3185.78926	24993.275
3188.10565	24945.575
3190.42065	24922.775
3192.73424	24983.775
3195.04645	24928.675
3197.35725	24926.075
3199.66667	24866.275
3201.97469	24893.375
3204.28132	24811.975
3206.58656	24839.175
3208.8904	24832.375
3211.19287	24776.475
3213.49394	24784.275
3215.79363	24789.675
3218.09193	24795.475
3220.38884	24781.975
3222.68438	24815.775
3224.97853	24746.375
3227.2713	24729.075
3229.56269	24710.175
3231.8527	24721.475
3234.14133	24701.275
3236.42858	24695.775
3238.71446	24632.675
3240.99896	24548.975
3243.28209	24583.575
3245.56384	24462.575
3247.84423	24464.975
3250.12324	24417.475
3252.40088	24356.475
3254.67715	24334.675
3256.95205	24353.575
3259.22558	24316.575
3261.49775	24300.575
3263.76855	24219.075
3266.03799	24149.275
3268.30606	24134.475
3270.57277	24113.075
3272.83812	24077.975
3275.10211	24034.375
3277.36474	23987.175
3279.62601	23989.475
3281.88593	23969.075
3284.14448	23997.275
3286.40168	23978.275
3288.65753	23935.975
3290.91202	23894.775
3293.16516	23860.475
3295.41695	23847.475
3297.66738	23719.875
3299.91647	23598.075
3302.16421	23461.475
3304.4106	23385.475
3306.65564	23276.675
3308.89933	23120.975
3311.14169	22978.775
3313.38269	22806.475
3315.62236	22680.775
3317.86068	22546.275
3320.09766	22403.775
3322.3333	22273.875
3324.5676	22176.975
3326.80056	21919.375
3329.03219	21815.475
3331.26248	5.775
3333.49143	0.675
3335.71905	0.275
