Data from AgNPs_UA_50uM_CRN_0uM_R6G_10uM_Q_RamanShift__3__12-14-41-754.txt Node

Date: Tue Jul 26 12:14:41 BST 2022
User: TCL
Spectrometer: QEP01345
Trigger mode: 4
Integration Time (sec): 7.000000E0
Scans to average: 10
Electric dark correction enabled: true
Nonlinearity correction enabled: false
Boxcar width: 0
XAxis mode: Raman Shifts
Number of Pixels in Spectrum: 1044
>>>>>Begin Spectral Data<<<<<
46.04893	-1.3625
50.45542	0.0375
54.85868	-0.0625
59.25871	-2.6625
63.6555	134.4375
68.04907	140.2375
72.43941	142.2375
76.82654	149.4375
81.21044	157.2375
85.59113	163.2375
89.96862	169.5375
94.34289	173.2375
98.71396	178.9375
103.08183	186.3375
107.4465	188.5375
111.80798	197.2375
116.16626	201.1375
120.52136	209.4375
124.87327	216.9375
129.222	229.0375
133.56755	249.0375
137.90993	263.9375
142.24913	289.2375
146.58517	324.0375
150.91804	373.4375
155.24774	440.9375
159.57429	550.2375
163.89768	698.1375
168.21792	925.5375
172.53501	1260.8375
176.84895	1745.6375
181.15975	2469.6375
185.46741	3491.0375
189.77193	4824.3375
194.07331	6484.2375
198.37157	8335.2375
202.6667	10346.9375
206.9587	12335.3375
211.24758	14338.6375
215.53334	16325.6375
219.81599	18397.9375
224.09553	20666.6375
228.37195	23150.3375
232.64527	25912.0375
236.91549	28794.6375
241.18261	31594.6375
245.44663	34217.5375
249.70755	36615.6375
253.96539	38623.3375
258.22014	40422.1375
262.4718	41746.2375
266.72039	42716.4375
270.96589	43189.7375
275.20832	43163.3375
279.44768	42779.6375
283.68397	42275.9375
287.91719	41750.1375
292.14735	41355.7375
296.37445	41270.2375
300.59849	41408.8375
304.81948	41698.6375
309.03742	41989.7375
313.25231	41960.6375
317.46415	41565.4375
321.67296	40806.4375
325.87872	40185.8375
330.08145	39983.0375
334.28114	40087.9375
338.47781	40521.3375
342.67145	41052.2375
346.86207	41831.0375
351.04966	42829.6375
355.23424	43768.2375
359.4158	44609.1375
363.59435	45290.5375
367.76989	45946.2375
371.94243	46294.1375
376.11196	46584.3375
380.27849	46905.8375
384.44203	47288.0375
388.60257	47706.4375
392.76012	48142.0375
396.91468	48685.1375
401.06626	49282.2375
405.21485	49722.1375
409.36047	49702.3375
413.50311	49086.6375
417.64277	48488.9375
421.77947	48157.7375
425.9132	47844.9375
430.04396	47734.1375
434.17176	47878.9375
438.2966	48162.5375
442.41849	48666.8375
446.53742	49276.1375
450.6534	50094.4375
454.76644	50746.4375
458.87653	51322.5375
462.98368	51670.9375
467.08789	51755.8375
471.18916	51442.3375
475.2875	50826.3375
479.38291	50264.4375
483.4754	49875.5375
487.56496	49761.7375
491.6516	49621.0375
495.73531	49476.4375
499.81612	49643.0375
503.89401	50070.7375
507.96899	50335.9375
512.04106	50358.4375
516.11023	50415.5375
520.1765	50428.5375
524.23987	50287.6375
528.30034	50172.0375
532.35792	50165.8375
536.41261	50049.9375
540.46441	49752.9375
544.51333	49646.1375
548.55936	49941.2375
552.60252	50409.1375
556.64279	50990.7375
560.6802	51509.9375
564.71473	51926.3375
568.7464	52041.0375
572.7752	51881.8375
576.80114	51562.6375
580.82422	51562.9375
584.84444	51650.5375
588.86181	51877.4375
592.87633	51856.7375
596.888	52248.9375
600.89682	53385.4375
604.9028	56399.4375
608.90594	62412.1375
612.90624	68369.3375
616.90371	65595.6375
620.89834	56940.9375
624.89015	52982.8375
628.87913	52591.1375
632.86528	53223.2375
636.84862	53865.0375
640.82913	53415.0375
644.80683	52305.9375
648.78172	51563.0375
652.75379	51553.5375
656.72306	52287.0375
660.68952	53338.2375
664.65319	53545.8375
668.61405	53422.2375
672.57211	54061.0375
676.52738	54263.6375
680.47986	53541.1375
684.42955	52617.2375
688.37646	52417.3375
692.32058	52807.8375
696.26192	53490.8375
700.20048	54350.7375
704.13626	54671.5375
708.06928	54401.7375
711.99952	53844.8375
715.927	53590.5375
719.85171	53661.1375
723.77365	53648.9375
727.69284	53376.7375
731.60928	53070.4375
735.52295	52941.6375
739.43388	52921.3375
743.34206	53091.9375
747.24749	53199.5375
751.15017	53266.8375
755.05012	53520.6375
758.94733	54388.8375
762.8418	56261.8375
766.73354	59275.8375
770.62254	62157.4375
774.50882	63515.1375
778.39237	63348.9375
782.27321	61667.8375
786.15132	58928.5375
790.02671	56618.0375
793.89938	55117.9375
797.76935	54340.2375
801.6366	53784.6375
805.50115	53540.5375
809.36299	53397.3375
813.22213	53243.0375
817.07857	53202.3375
820.93231	53298.7375
824.78336	53419.6375
828.63172	53524.9375
832.47738	53516.2375
836.32036	53558.5375
840.16066	53438.2375
843.99827	53436.1375
847.8332	53469.8375
851.66546	53549.3375
855.49504	53661.1375
859.32195	53782.9375
863.1462	53863.1375
866.96777	53826.8375
870.78668	53880.6375
874.60293	53988.8375
878.41652	54166.0375
882.22745	54307.2375
886.03573	54460.2375
889.84136	54397.4375
893.64433	54244.7375
897.44466	54200.8375
901.24235	54147.5375
905.0374	54095.5375
908.8298	54070.1375
912.61957	53998.4375
916.40671	53920.7375
920.19121	54086.9375
923.97308	54174.2375
927.75233	54252.4375
931.52895	54379.0375
935.30295	54243.6375
939.07433	53985.8375
942.84309	53515.0375
946.60924	53338.9375
950.37278	53202.9375
954.13371	53205.6375
957.89203	53202.0375
961.64774	53132.3375
965.40086	53077.0375
969.15137	53096.8375
972.89929	53053.1375
976.64461	52952.8375
980.38733	53017.6375
984.12747	53117.6375
987.86502	53246.4375
991.59999	53489.1375
995.33237	53651.4375
999.06217	53970.2375
1002.78939	54334.8375
1006.51404	54936.6375
1010.23611	55551.2375
1013.95561	56012.3375
1017.67255	56260.6375
1021.38692	56169.3375
1025.09872	55795.0375
1028.80796	55402.7375
1032.51465	55186.9375
1036.21877	55188.9375
1039.92035	55361.5375
1043.61937	55522.0375
1047.31584	55700.4375
1051.00976	55829.5375
1054.70114	55976.1375
1058.38998	56268.6375
1062.07627	56558.1375
1065.76003	56896.7375
1069.44126	57417.5375
1073.11995	58424.9375
1076.79611	59686.7375
1080.46974	60368.1375
1084.14085	60463.6375
1087.80943	60527.2375
1091.47549	60660.5375
1095.13903	61158.1375
1098.80005	61768.9375
1102.45857	62686.7375
1106.11456	62756.4375
1109.76805	61535.3375
1113.41903	60553.6375
1117.06751	60332.4375
1120.71348	60396.2375
1124.35696	60425.0375
1127.99793	60496.7375
1131.63641	60088.3375
1135.2724	59517.8375
1138.90589	58984.1375
1142.5369	58579.3375
1146.16542	58420.6375
1149.79145	58117.6375
1153.415	57650.5375
1157.03607	57307.7375
1160.65467	57530.2375
1164.27079	58186.5375
1167.88443	59192.7375
1171.49561	60783.5375
1175.10432	62998.2375
1178.71056	65873.9375
1182.31434	68520.4375
1185.91565	69983.1375
1189.51451	70507.3375
1193.11091	70330.7375
1196.70485	69579.0375
1200.29634	68414.3375
1203.88538	67044.5375
1207.47197	65495.3375
1211.05612	64066.2375
1214.63782	62784.6375
1218.21708	61539.0375
1221.79391	60529.0375
1225.36829	59840.6375
1228.94024	59560.3375
1232.50976	59615.1375
1236.07685	59736.9375
1239.6415	59930.7375
1243.20374	60193.8375
1246.76355	60450.4375
1250.32093	60805.5375
1253.8759	61247.5375
1257.42845	62294.1375
1260.97859	63600.7375
1264.52631	64911.8375
1268.07163	65844.5375
1271.61453	66443.0375
1275.15503	66694.6375
1278.69312	66721.5375
1282.22882	66527.3375
1285.76211	66510.4375
1289.29301	66826.5375
1292.82151	67219.3375
1296.34761	68010.2375
1299.87133	69320.8375
1303.39266	71116.2375
1306.9116	73835.9375
1310.42815	76819.3375
1313.94233	78566.3375
1317.45412	78099.8375
1320.96354	77012.1375
1324.47058	75595.6375
1327.97525	73870.5375
1331.47754	72295.7375
1334.97747	71651.4375
1338.47502	72070.7375
1341.97022	73680.4375
1345.46305	76325.1375
1348.95352	79461.0375
1352.44163	82293.0375
1355.92738	84082.5375
1359.41078	85791.0375
1362.89183	86812.3375
1366.37053	84353.5375
1369.84688	78399.2375
1373.32088	72312.1375
1376.79254	68336.7375
1380.26186	65921.9375
1383.72883	64433.7375
1387.19347	63245.0375
1390.65578	62061.2375
1394.11575	60935.2375
1397.57339	59745.2375
1401.0287	59235.7375
1404.48168	59220.3375
1407.93234	59534.2375
1411.38068	60105.6375
1414.82669	60514.6375
1418.27039	60568.4375
1421.71177	60433.8375
1425.15083	60052.6375
1428.58758	59577.5375
1432.02203	59196.5375
1435.45416	59022.5375
1438.88399	58935.1375
1442.31151	58833.6375
1445.73673	58845.2375
1449.15965	59007.6375
1452.58027	59002.3375
1455.9986	58807.4375
1459.41463	59019.7375
1462.82837	59530.2375
1466.23982	60245.1375
1469.64898	61077.3375
1473.05586	61701.8375
1476.46045	62249.2375
1479.86276	62689.2375
1483.26279	63223.6375
1486.66054	64012.9375
1490.05602	65100.8375
1493.44922	66752.9375
1496.84016	69299.8375
1500.22882	72817.1375
1503.61521	76817.7375
1506.99934	80261.8375
1510.38121	81741.7375
1513.76081	80979.2375
1517.13816	77883.7375
1520.51324	73602.6375
1523.88607	69809.8375
1527.25665	67066.1375
1530.62498	65416.0375
1533.99105	64333.8375
1537.35488	63538.2375
1540.71647	62938.2375
1544.07581	62496.5375
1547.4329	62124.0375
1550.78776	61880.1375
1554.14038	61665.2375
1557.49077	61760.0375
1560.83892	62154.2375
1564.18484	62930.8375
1567.52853	63901.0375
1570.86999	64446.3375
1574.20922	64660.6375
1577.54624	64531.5375
1580.88103	63383.4375
1584.2136	61809.0375
1587.54395	60803.1375
1590.87208	60773.2375
1594.19801	61691.0375
1597.52172	63208.5375
1600.84321	63951.5375
1604.16251	63556.6375
1607.47959	62803.0375
1610.79447	61468.5375
1614.10715	59401.3375
1617.41763	57289.7375
1620.7259	55789.8375
1624.03199	54821.9375
1627.33587	54558.8375
1630.63757	54746.1375
1633.93707	55576.3375
1637.23439	57178.2375
1640.52951	59924.7375
1643.82246	63702.5375
1647.11321	67629.5375
1650.40179	69633.2375
1653.68819	68105.1375
1656.97241	63755.5375
1660.25446	59140.5375
1663.53433	55696.4375
1666.81203	53437.5375
1670.08756	52042.7375
1673.36092	51214.5375
1676.63211	50628.6375
1679.90115	50097.7375
1683.16801	49759.5375
1686.43272	49386.9375
1689.69527	49265.4375
1692.95567	49024.3375
1696.2139	48913.1375
1699.46999	48788.4375
1702.72392	48744.7375
1705.97571	48741.4375
1709.22535	48751.9375
1712.47284	48780.8375
1715.71819	48695.2375
1718.96139	48526.8375
1722.20246	48484.0375
1725.44139	48429.2375
1728.67818	48271.8375
1731.91284	48092.1375
1735.14537	47868.4375
1738.37576	47784.1375
1741.60403	47640.3375
1744.83017	47426.0375
1748.05418	47340.7375
1751.27607	47230.3375
1754.49584	47142.9375
1757.71349	47100.8375
1760.92903	46937.3375
1764.14244	46928.2375
1767.35375	46870.7375
1770.56294	46832.1375
1773.77002	46786.7375
1776.97499	46769.0375
1780.17785	46691.8375
1783.37861	46646.3375
1786.57727	46620.1375
1789.77382	46528.0375
1792.96828	46491.1375
1796.16064	46398.3375
1799.3509	46375.0375
1802.53907	46219.0375
1805.72514	46139.0375
1808.90913	45959.7375
1812.09102	45840.3375
1815.27083	45671.8375
1818.44856	45668.0375
1821.6242	45589.4375
1824.79776	45406.4375
1827.96924	45363.0375
1831.13864	45245.5375
1834.30597	45244.0375
1837.47122	45180.9375
1840.6344	45079.2375
1843.7955	45133.9375
1846.95454	45066.5375
1850.11151	44994.7375
1853.26642	44885.1375
1856.41926	44835.4375
1859.57004	44843.0375
1862.71876	44741.8375
1865.86542	44761.9375
1869.01003	44742.7375
1872.15258	44633.3375
1875.29308	44554.8375
1878.43152	44483.6375
1881.56792	44377.9375
1884.70227	44327.1375
1887.83457	44332.7375
1890.96482	44217.8375
1894.09304	44051.1375
1897.21921	43975.3375
1900.34335	43938.4375
1903.46544	43873.1375
1906.58551	43849.3375
1909.70353	43851.0375
1912.81953	43791.9375
1915.93349	43679.2375
1919.04543	43582.8375
1922.15534	43447.7375
1925.26322	43406.3375
1928.36908	43274.9375
1931.47292	43175.1375
1934.57473	43069.3375
1937.67453	42991.9375
1940.77232	42901.8375
1943.86808	42856.0375
1946.96184	42681.6375
1950.05358	42549.5375
1953.14331	42395.9375
1956.23103	42332.8375
1959.31675	42170.5375
1962.40046	42017.0375
1965.48217	41851.8375
1968.56188	41689.5375
1971.63959	41586.6375
1974.7153	41456.0375
1977.78901	41380.3375
1980.86073	41256.9375
1983.93046	41125.6375
1986.99819	40994.3375
1990.06394	40860.1375
1993.1277	40739.3375
1996.18947	40606.6375
1999.24925	40492.0375
2002.30706	40387.8375
2005.36288	40181.3375
2008.41672	40142.6375
2011.46859	40037.7375
2014.51848	39811.9375
2017.56639	39700.3375
2020.61233	39534.6375
2023.6563	39465.1375
2026.6983	39425.7375
2029.73833	39219.6375
2032.7764	39151.7375
2035.8125	39050.0375
2038.84664	38953.6375
2041.87881	38919.2375
2044.90903	38848.7375
2047.93729	38715.2375
2050.96359	38688.5375
2053.98794	38633.6375
2057.01034	38614.4375
2060.03078	38505.6375
2063.04927	38530.0375
2066.06582	38515.4375
2069.08042	38435.1375
2072.09307	38336.3375
2075.10378	38327.5375
2078.11255	38209.6375
2081.11938	38157.5375
2084.12426	38176.1375
2087.12722	38176.3375
2090.12824	38151.6375
2093.12732	38224.4375
2096.12447	38123.9375
2099.11969	38045.4375
2102.11299	38122.1375
2105.10435	38086.8375
2108.09379	38110.0375
2111.08131	38104.3375
2114.0669	38144.6375
2117.05057	38144.1375
2120.03233	38238.1375
2123.01216	38210.1375
2125.99008	38212.5375
2128.96609	38234.4375
2131.94018	38278.2375
2134.91236	38217.6375
2137.88263	38274.2375
2140.851	38248.8375
2143.81746	38282.1375
2146.78201	38269.0375
2149.74466	38358.7375
2152.7054	38376.2375
2155.66425	38309.2375
2158.6212	38255.2375
2161.57625	38207.0375
2164.52941	38194.6375
2167.48067	38154.2375
2170.43004	38114.1375
2173.37752	38114.2375
2176.32311	38016.7375
2179.26681	38011.7375
2182.20863	38008.8375
2185.14856	37997.4375
2188.08661	38029.8375
2191.02278	37872.1375
2193.95707	37848.8375
2196.88948	37861.0375
2199.82001	37849.8375
2202.74867	37829.2375
2205.67545	37791.2375
2208.60037	37705.6375
2211.52341	37650.1375
2214.44458	37563.3375
2217.36388	37434.3375
2220.28132	37359.3375
2223.1969	37205.6375
2226.11061	37255.6375
2229.02246	37169.0375
2231.93245	37101.6375
2234.84058	36997.0375
2237.74686	36888.2375
2240.65128	36883.0375
2243.55385	36744.9375
2246.45456	36732.0375
2249.35343	36658.5375
2252.25044	36693.1375
2255.14561	36652.9375
2258.03893	36593.9375
2260.93041	36516.0375
2263.82004	36392.5375
2266.70783	36317.8375
2269.59378	36223.8375
2272.4779	36154.6375
2275.36017	36077.6375
2278.24061	35990.0375
2281.11922	35857.4375
2283.996	35804.3375
2286.87094	35743.7375
2289.74405	35636.1375
2292.61534	35581.2375
2295.4848	35527.1375
2298.35243	35452.1375
2301.21824	35469.1375
2304.08223	35469.0375
2306.94439	35408.2375
2309.80474	35357.9375
2312.66327	35342.0375
2315.51999	35258.7375
2318.37489	35284.1375
2321.22797	35214.8375
2324.07925	35099.8375
2326.92871	34916.1375
2329.77637	34863.3375
2332.62222	34820.8375
2335.46626	34788.7375
2338.3085	34742.9375
2341.14893	34618.8375
2343.98756	34683.9375
2346.8244	34701.2375
2349.65943	34698.4375
2352.49267	34634.6375
2355.32411	34558.4375
2358.15376	34546.1375
2360.98161	34483.1375
2363.80768	34457.3375
2366.63195	34424.7375
2369.45444	34396.1375
2372.27514	34303.7375
2375.09405	34290.1375
2377.91118	34335.5375
2380.72652	34229.5375
2383.54009	34118.6375
2386.35187	33998.8375
2389.16188	33914.9375
2391.97011	33903.7375
2394.77657	33754.8375
2397.58125	33676.0375
2400.38416	33625.8375
2403.18529	33558.9375
2405.98466	33471.9375
2408.78226	33390.1375
2411.57809	33316.9375
2414.37216	33315.5375
2417.16446	33371.1375
2419.955	33276.7375
2422.74378	33306.0375
2425.5308	33248.1375
2428.31606	33212.7375
2431.09956	33144.3375
2433.88131	33123.5375
2436.6613	33129.6375
2439.43954	33078.3375
2442.21603	33028.1375
2444.99077	32945.9375
2447.76377	32877.1375
2450.53501	32867.8375
2453.30451	32854.2375
2456.07226	32739.1375
2458.83827	32700.9375
2461.60254	32665.3375
2464.36507	32598.3375
2467.12586	32520.7375
2469.88492	32484.3375
2472.64224	32502.1375
2475.39782	32494.7375
2478.15167	32415.6375
2480.90379	32336.3375
2483.65417	32381.2375
2486.40283	32344.0375
2489.14976	32351.9375
2491.89497	32338.7375
2494.63845	32302.4375
2497.3802	32227.2375
2500.12024	32154.0375
2502.85855	32095.6375
2505.59514	32043.7375
2508.33002	32042.2375
2511.06318	31921.5375
2513.79462	31916.6375
2516.52435	31904.9375
2519.25237	31855.8375
2521.97867	31733.7375
2524.70327	31725.6375
2527.42616	31636.5375
2530.14734	31632.0375
2532.86681	31637.8375
2535.58458	31539.0375
2538.30065	31461.3375
2541.01501	31444.6375
2543.72768	31352.2375
2546.43864	31308.2375
2549.14791	31204.5375
2551.85548	31148.3375
2554.56136	31097.9375
2557.26554	31058.7375
2559.96803	31004.5375
2562.66883	30922.8375
2565.36794	30854.1375
2568.06536	30814.8375
2570.7611	30739.8375
2573.45514	30697.8375
2576.14751	30614.1375
2578.83819	30603.1375
2581.52719	30532.9375
2584.21451	30414.8375
2586.90015	30378.0375
2589.58411	30307.6375
2592.2664	30274.3375
2594.94701	30202.6375
2597.62594	30121.6375
2600.30321	30031.4375
2602.9788	30011.9375
2605.65273	29905.0375
2608.32498	29935.9375
2610.99557	29881.0375
2613.66449	29845.8375
2616.33175	29803.4375
2618.99734	29809.7375
2621.66128	29803.2375
2624.32355	29668.3375
2626.98416	29562.8375
2629.64311	29552.2375
2632.30041	29491.0375
2634.95605	29443.0375
2637.61004	29436.4375
2640.26238	29403.7375
2642.91306	29374.5375
2645.56209	29318.3375
2648.20948	29295.1375
2650.85521	29186.6375
2653.4993	29182.3375
2656.14175	29108.2375
2658.78255	29087.4375
2661.42171	29079.7375
2664.05923	29094.6375
2666.6951	29193.5375
2669.32934	29194.5375
2671.96194	29194.6375
2674.59291	29139.0375
2677.22224	29055.9375
2679.84993	29083.8375
2682.476	29005.2375
2685.10043	29018.5375
2687.72324	29038.3375
2690.34441	28991.5375
2692.96396	28910.5375
2695.58188	28892.8375
2698.19818	28898.8375
2700.81285	28893.8375
2703.4259	28908.5375
2706.03733	28890.9375
2708.64714	28884.5375
2711.25533	28876.3375
2713.86191	28805.6375
2716.46687	28830.1375
2719.07021	28767.9375
2721.67194	28820.3375
2724.27206	28774.6375
2726.87057	28762.1375
2729.46747	28736.8375
2732.06276	28744.6375
2734.65644	28714.9375
2737.24852	28629.9375
2739.83899	28583.5375
2742.42786	28668.2375
2745.01513	28596.8375
2747.60079	28501.8375
2750.18486	28382.9375
2752.76733	28388.6375
2755.3482	28311.9375
2757.92747	28357.8375
2760.50515	28271.5375
2763.08123	28218.3375
2765.65573	28155.1375
2768.22863	28144.2375
2770.79994	28099.8375
2773.36967	28035.8375
2775.9378	27982.4375
2778.50435	27937.8375
2781.06932	27912.5375
2783.6327	27952.7375
2786.1945	27889.4375
2788.75471	27843.9375
2791.31335	27684.7375
2793.87041	27642.4375
2796.42589	27581.5375
2798.97979	27516.7375
2801.53212	27477.9375
2804.08288	27392.3375
2806.63206	27302.5375
2809.17967	27221.3375
2811.72571	27147.9375
2814.27018	27129.5375
2816.81308	27040.0375
2819.35442	27003.6375
2821.89419	26961.7375
2824.43239	26960.3375
2826.96904	26883.1375
2829.50412	26854.6375
2832.03763	26763.1375
2834.56959	26705.6375
2837.1	26668.2375
2839.62884	26600.9375
2842.15613	26605.4375
2844.68186	26576.3375
2847.20604	26518.1375
2849.72867	26443.8375
2852.24974	26436.1375
2854.76927	26382.3375
2857.28724	26329.9375
2859.80367	26365.1375
2862.31855	26326.2375
2864.83189	26254.7375
2867.34368	26215.2375
2869.85393	26185.8375
2872.36264	26130.9375
2874.8698	26078.6375
2877.37543	26055.5375
2879.87952	26013.2375
2882.38207	25963.9375
2884.88308	25907.8375
2887.38256	25925.0375
2889.88051	25908.5375
2892.37692	25930.4375
2894.8718	25854.7375
2897.36515	25880.9375
2899.85698	25778.7375
2902.34727	25879.8375
2904.83604	25887.7375
2907.32328	25944.5375
2909.809	25937.0375
2912.29319	25900.5375
2914.77587	25892.3375
2917.25702	25852.9375
2919.73665	25823.6375
2922.21476	25829.3375
2924.69136	25762.2375
2927.16644	25749.9375
2929.64	25737.7375
2932.11205	25656.9375
2934.58258	25568.5375
2937.05161	25638.4375
2939.51912	25626.7375
2941.98513	25584.9375
2944.44962	25498.8375
2946.91261	25450.7375
2949.37409	25494.8375
2951.83407	25435.0375
2954.29254	25416.5375
2956.74951	25431.5375
2959.20498	25430.6375
2961.65895	25356.1375
2964.11142	25344.7375
2966.56239	25317.6375
2969.01186	25307.7375
2971.45984	25329.6375
2973.90632	25292.7375
2976.35131	25248.7375
2978.7948	25221.0375
2981.23681	25136.3375
2983.67732	25090.4375
2986.11635	25041.6375
2988.55388	25009.6375
2990.98993	24948.1375
2993.4245	24907.2375
2995.85758	24860.7375
2998.28917	24841.0375
3000.71928	24810.0375
3003.14791	24733.9375
3005.57506	24717.6375
3008.00073	24591.3375
3010.42493	24550.5375
3012.84764	24486.7375
3015.26888	24496.9375
3017.68865	24377.3375
3020.10694	24386.6375
3022.52376	24269.7375
3024.9391	24236.8375
3027.35298	24210.5375
3029.76539	24181.5375
3032.17632	24093.2375
3034.5858	24060.9375
3036.9938	24019.1375
3039.40034	23991.1375
3041.80542	23992.1375
3044.20903	23919.3375
3046.61118	23893.0375
3049.01187	23823.7375
3051.4111	23804.5375
3053.80888	23770.1375
3056.20519	23742.6375
3058.60005	23616.4375
3060.99345	23631.2375
3063.3854	23594.7375
3065.7759	23483.3375
3068.16494	23477.8375
3070.55254	23395.8375
3072.93868	23355.1375
3075.32338	23245.0375
3077.70662	23170.7375
3080.08842	23165.7375
3082.46878	23162.0375
3084.84769	23092.9375
3087.22515	23101.9375
3089.60118	23023.4375
3091.97576	23093.2375
3094.3489	23054.4375
3096.72061	23046.4375
3099.09087	23014.3375
3101.4597	22931.3375
3103.82709	22967.0375
3106.19305	22925.5375
3108.55757	22886.2375
3110.92066	22845.7375
3113.28232	22801.5375
3115.64255	22737.9375
3118.00134	22758.8375
3120.35871	22753.7375
3122.71466	22639.6375
3125.06917	22504.6375
3127.42226	22530.0375
3129.77393	22518.6375
3132.12417	22455.2375
3134.47299	22431.5375
3136.82039	22411.4375
3139.16636	22416.6375
3141.51092	22386.2375
3143.85406	22344.6375
3146.19579	22363.9375
3148.53609	22363.6375
3150.87499	22393.6375
3153.21246	22365.1375
3155.54853	22390.1375
3157.88318	22353.0375
3160.21642	22384.7375
3162.54826	22332.7375
3164.87868	22361.9375
3167.2077	22327.7375
3169.5353	22296.0375
3171.86151	22290.5375
3174.18631	22283.4375
3176.5097	22227.4375
3178.83169	22200.3375
3181.15228	22112.9375
3183.47147	22012.4375
3185.78926	21977.6375
3188.10565	21940.3375
3190.42065	21939.9375
3192.73424	21934.1375
3195.04645	21890.8375
3197.35725	21893.0375
3199.66667	21880.6375
3201.97469	21864.5375
3204.28132	21849.8375
3206.58656	21855.0375
3208.8904	21839.5375
3211.19287	21865.3375
3213.49394	21861.9375
3215.79363	21826.3375
3218.09193	21830.9375
3220.38884	21804.0375
3222.68438	21835.6375
3224.97853	21801.2375
3227.2713	21773.9375
3229.56269	21748.8375
3231.8527	21768.9375
3234.14133	21677.6375
3236.42858	21646.1375
3238.71446	21599.7375
3240.99896	21517.6375
3243.28209	21443.4375
3245.56384	21424.2375
3247.84423	21405.1375
3250.12324	21356.4375
3252.40088	21282.6375
3254.67715	21288.0375
3256.95205	21293.0375
3259.22558	21232.5375
3261.49775	21262.3375
3263.76855	21261.2375
3266.03799	21212.0375
3268.30606	21181.2375
3270.57277	21157.7375
3272.83812	21101.5375
3275.10211	21038.3375
3277.36474	20973.4375
3279.62601	20941.8375
3281.88593	20963.6375
3284.14448	20914.7375
3286.40168	20865.3375
3288.65753	20873.5375
3290.91202	20842.8375
3293.16516	20801.8375
3295.41695	20703.5375
3297.66738	20589.6375
3299.91647	20454.2375
3302.16421	20364.7375
3304.4106	20266.2375
3306.65564	20142.0375
3308.89933	20017.0375
3311.14169	19857.1375
3313.38269	19693.2375
3315.62236	19638.6375
3317.86068	19465.5375
3320.09766	19302.7375
3322.3333	19181.3375
3324.5676	19072.5375
3326.80056	18840.5375
3329.03219	18708.1375
3331.26248	3.7375
3333.49143	-0.3625
3335.71905	-0.0625
