Data from AgNPs_UA_50uM_CRN_0uM_R6G_10uM_Q_RamanShift__4__12-15-51-755.txt Node

Date: Tue Jul 26 12:15:51 BST 2022
User: TCL
Spectrometer: QEP01345
Trigger mode: 4
Integration Time (sec): 7.000000E0
Scans to average: 10
Electric dark correction enabled: true
Nonlinearity correction enabled: false
Boxcar width: 0
XAxis mode: Raman Shifts
Number of Pixels in Spectrum: 1044
>>>>>Begin Spectral Data<<<<<
46.04893	-0.6
50.45542	0
54.85868	-1.1
59.25871	-1.6
63.6555	134.6
68.04907	141.6
72.43941	148.8
76.82654	155.8
81.21044	157
85.59113	166.1
89.96862	169.3
94.34289	178.7
98.71396	188.2
103.08183	186.4
107.4465	194.6
111.80798	203
116.16626	201.5
120.52136	218.2
124.87327	224.4
129.222	239.9
133.56755	257
137.90993	273.3
142.24913	297.5
146.58517	338.1
150.91804	395.8
155.24774	463.8
159.57429	574.2
163.89768	739.5
168.21792	985.6
172.53501	1350.4
176.84895	1885.1
181.15975	2656
185.46741	3744.2
189.77193	5172.1
194.07331	6931.8
198.37157	8939.8
202.6667	11062
206.9587	13186.7
211.24758	15301.1
215.53334	17454.2
219.81599	19727.7
224.09553	22258.5
228.37195	25038.3
232.64527	28026
236.91549	31081.2
241.18261	33971.7
245.44663	36509
249.70755	38701.8
253.96539	40514.4
258.22014	42152.2
262.4718	43462.2
266.72039	44474.7
270.96589	44914.2
275.20832	44868.3
279.44768	44443.8
283.68397	43833.8
287.91719	43325.9
292.14735	43107.7
296.37445	43289.5
300.59849	43971.2
304.81948	44896.2
309.03742	45685.7
313.25231	45915.6
317.46415	45299.5
321.67296	44076.3
325.87872	42782.1
330.08145	42188
334.28114	42225.1
338.47781	42619.1
342.67145	43366.6
346.86207	44414.2
351.04966	45760.4
355.23424	47156.3
359.4158	48248.9
363.59435	49033
367.76989	49500.6
371.94243	49709.6
376.11196	49741.4
380.27849	49862.4
384.44203	50164.9
388.60257	50472
392.76012	50873
396.91468	51463.1
401.06626	52175.2
405.21485	52609.9
409.36047	52264
413.50311	51081.1
417.64277	49881.1
421.77947	49131.5
425.9132	48682.9
430.04396	48443.3
434.17176	48606.9
438.2966	49029.2
442.41849	49739.8
446.53742	50821.9
450.6534	51990.8
454.76644	52863.8
458.87653	53261.6
462.98368	53382.9
467.08789	53083.1
471.18916	52401.5
475.2875	51352.8
479.38291	50365.5
483.4754	49732
487.56496	49390
491.6516	49107.6
495.73531	48947.4
499.81612	49088.2
503.89401	49584.3
507.96899	49880.4
512.04106	49905.7
516.11023	49999.9
520.1765	50068.5
524.23987	49990.8
528.30034	49825
532.35792	49774.8
536.41261	49454.1
540.46441	48834.4
544.51333	48576.2
548.55936	48795.8
552.60252	49428.3
556.64279	50465.9
560.6802	51287.6
564.71473	51865.4
568.7464	52161.8
572.7752	52210.3
576.80114	51721.7
580.82422	51568.2
584.84444	51788.3
588.86181	52390.4
592.87633	52885.1
596.888	53525.9
600.89682	54632.1
604.9028	58463.2
608.90594	67736.9
612.90624	77354.7
616.90371	73193.2
620.89834	58958.5
624.89015	52297.7
628.87913	51469.6
632.86528	52321.1
636.84862	53048.5
640.82913	52177.8
644.80683	50387.5
648.78172	49172.5
652.75379	49161.2
656.72306	50292.5
660.68952	51769.8
664.65319	51823.2
668.61405	51226.5
672.57211	51689.6
676.52738	51975.9
680.47986	51053
684.42955	49821.8
688.37646	49440.2
692.32058	49863.2
696.26192	50803.1
700.20048	51853.7
704.13626	52219.4
708.06928	51666.7
711.99952	50965.4
715.927	50716.3
719.85171	50967.8
723.77365	50954.1
727.69284	50439.5
731.60928	49861.9
735.52295	49690.7
739.43388	49851.5
743.34206	50003.5
747.24749	50101.7
751.15017	50210.1
755.05012	50621.8
758.94733	52015.5
762.8418	55275.6
766.73354	60324.7
770.62254	65077
774.50882	67008.8
778.39237	65788
782.27321	62340.7
786.15132	57834.1
790.02671	54173.5
793.89938	52040.6
797.76935	51020.8
801.6366	50324.4
805.50115	50018.2
809.36299	49712.7
813.22213	49455.5
817.07857	49362.3
820.93231	49374.8
824.78336	49445.9
828.63172	49503.9
832.47738	49474.6
836.32036	49374.6
840.16066	49189.7
843.99827	49133.9
847.8332	49192.9
851.66546	49223.9
855.49504	49387.4
859.32195	49453.3
863.1462	49433.8
866.96777	49333.8
870.78668	49385.2
874.60293	49548.2
878.41652	49686.6
882.22745	49947.8
886.03573	50186.8
889.84136	50132.6
893.64433	49911.9
897.44466	49660.3
901.24235	49506.8
905.0374	49347.8
908.8298	49204.7
912.61957	49135.5
916.40671	49137.5
920.19121	49325.5
923.97308	49618.6
927.75233	49938.5
931.52895	50120.6
935.30295	49834.6
939.07433	49196.8
942.84309	48610.3
946.60924	48313.4
950.37278	48181.5
954.13371	48204.7
957.89203	48253.2
961.64774	48155.6
965.40086	48141.9
969.15137	48110.1
972.89929	48094.7
976.64461	48132
980.38733	48140.5
984.12747	48266.8
987.86502	48475.8
991.59999	48809.1
995.33237	49147
999.06217	49738.3
1002.78939	50525.5
1006.51404	51460.6
1010.23611	52462.2
1013.95561	53098.3
1017.67255	53345.6
1021.38692	53038.1
1025.09872	52334.3
1028.80796	51685.3
1032.51465	51428.3
1036.21877	51521.6
1039.92035	51688.6
1043.61937	51862.3
1047.31584	51842.7
1051.00976	51829.5
1054.70114	51959
1058.38998	52232.3
1062.07627	52604.2
1065.76003	53121.6
1069.44126	53869.1
1073.11995	55163.4
1076.79611	56740.5
1080.46974	57728
1084.14085	58130.4
1087.80943	58501
1091.47549	58815.2
1095.13903	59074
1098.80005	59297.2
1102.45857	59656.8
1106.11456	59422.7
1109.76805	58237
1113.41903	57319.8
1117.06751	57398.7
1120.71348	57888.9
1124.35696	58464.7
1127.99793	59015.8
1131.63641	58704.6
1135.2724	57490
1138.90589	56635.4
1142.5369	56056
1146.16542	55673.3
1149.79145	55389.3
1153.415	54831.2
1157.03607	54524.6
1160.65467	54912.7
1164.27079	55872.5
1167.88443	57672.3
1171.49561	60272.7
1175.10432	63973
1178.71056	68989.4
1182.31434	73507.1
1185.91565	75726.8
1189.51451	75875
1193.11091	74854.2
1196.70485	73098.5
1200.29634	71017.3
1203.88538	68917
1207.47197	66697.3
1211.05612	64506.1
1214.63782	62612.7
1218.21708	61042.3
1221.79391	59791.6
1225.36829	59141.7
1228.94024	58779.6
1232.50976	58498.8
1236.07685	58317.3
1239.6415	58320.8
1243.20374	58559.4
1246.76355	58925.8
1250.32093	59513.1
1253.8759	60493.9
1257.42845	62024
1260.97859	64101.1
1264.52631	66239.1
1268.07163	67937.4
1271.61453	69151.7
1275.15503	69830.9
1278.69312	69961.9
1282.22882	69912
1285.76211	70150.2
1289.29301	70906.1
1292.82151	72060.4
1296.34761	73599.4
1299.87133	76043.5
1303.39266	79592.7
1306.9116	84993.8
1310.42815	90786.7
1313.94233	94216.9
1317.45412	93121.9
1320.96354	90014.7
1324.47058	86547
1327.97525	82986.5
1331.47754	80183.4
1334.97747	79048.3
1338.47502	79478.7
1341.97022	81404.3
1345.46305	84929.8
1348.95352	89324
1352.44163	93350
1355.92738	97079
1359.41078	101513.8
1362.89183	105126
1366.37053	102026.7
1369.84688	91512.5
1373.32088	80694.7
1376.79254	73912.1
1380.26186	70311.3
1383.72883	68411.6
1387.19347	67026.5
1390.65578	65367.9
1394.11575	63666
1397.57339	62342
1401.0287	61644
1404.48168	61574.6
1407.93234	62008.9
1411.38068	62740.9
1414.82669	63173.6
1418.27039	63037.1
1421.71177	62552.3
1425.15083	62104
1428.58758	61787
1432.02203	61992.9
1435.45416	62458.5
1438.88399	62704.9
1442.31151	62729.9
1445.73673	62740
1449.15965	62744.7
1452.58027	62613.9
1455.9986	62233.3
1459.41463	62409.2
1462.82837	63284.5
1466.23982	64369.7
1469.64898	65446.8
1473.05586	66193.5
1476.46045	66642.7
1479.86276	67068.3
1483.26279	67540.8
1486.66054	68532.4
1490.05602	69937
1493.44922	72275.1
1496.84016	75802.1
1500.22882	80753.5
1503.61521	87047.2
1506.99934	93095.4
1510.38121	96566.5
1513.76081	95873.1
1517.13816	90700
1520.51324	83442.7
1523.88607	76821.4
1527.25665	72524.9
1530.62498	70088.6
1533.99105	68602.5
1537.35488	67535.7
1540.71647	66641
1544.07581	65879.9
1547.4329	65215.9
1550.78776	64674.7
1554.14038	64241.2
1557.49077	64274.4
1560.83892	64838.2
1564.18484	66124.6
1567.52853	67617.2
1570.86999	68613.3
1574.20922	68963.5
1577.54624	68578.3
1580.88103	66601.1
1584.2136	64210.2
1587.54395	62916.4
1590.87208	63455.5
1594.19801	65659.2
1597.52172	68846.6
1600.84321	70507.5
1604.16251	69758.3
1607.47959	67621.3
1610.79447	64615.9
1614.10715	60759
1617.41763	57187.2
1620.7259	54691.8
1624.03199	53296.6
1627.33587	53056.6
1630.63757	53663.4
1633.93707	55508.5
1637.23439	58893
1640.52951	64241.2
1643.82246	71253.7
1647.11321	78124.5
1650.40179	80993.7
1653.68819	77480.9
1656.97241	69315.5
1660.25446	60970
1663.53433	55014.1
1666.81203	51307.5
1670.08756	49048.8
1673.36092	47647.2
1676.63211	46683.8
1679.90115	45942.4
1683.16801	45377.6
1686.43272	44969.9
1689.69527	44763.5
1692.95567	44545.2
1696.2139	44387.7
1699.46999	44222.1
1702.72392	44123.6
1705.97571	44090
1709.22535	44054.3
1712.47284	44084
1715.71819	44076.1
1718.96139	43841.6
1722.20246	43745.8
1725.44139	43599.8
1728.67818	43452.2
1731.91284	43190.9
1735.14537	42966.6
1738.37576	42826.4
1741.60403	42676.3
1744.83017	42511.1
1748.05418	42322.6
1751.27607	42208.3
1754.49584	42071.7
1757.71349	42035.2
1760.92903	41889
1764.14244	41857.2
1767.35375	41797.9
1770.56294	41695
1773.77002	41634.4
1776.97499	41601.6
1780.17785	41521.5
1783.37861	41505.1
1786.57727	41418.6
1789.77382	41361.1
1792.96828	41268
1796.16064	41191.5
1799.3509	41158.6
1802.53907	41095.4
1805.72514	40933.1
1808.90913	40776.6
1812.09102	40654.6
1815.27083	40494.1
1818.44856	40453.4
1821.6242	40368.1
1824.79776	40205.3
1827.96924	40141.2
1831.13864	40040.9
1834.30597	40052.3
1837.47122	39978.4
1840.6344	39899.8
1843.7955	39908.7
1846.95454	39865.3
1850.11151	39739.8
1853.26642	39690.2
1856.41926	39630.2
1859.57004	39625.7
1862.71876	39489
1865.86542	39545.5
1869.01003	39522.3
1872.15258	39467.5
1875.29308	39385.1
1878.43152	39344.8
1881.56792	39260.7
1884.70227	39226.9
1887.83457	39199.4
1890.96482	39076.4
1894.09304	39007.8
1897.21921	38893.3
1900.34335	38880.4
1903.46544	38804.8
1906.58551	38810.8
1909.70353	38809.3
1912.81953	38740.6
1915.93349	38628.9
1919.04543	38492.8
1922.15534	38457.9
1925.26322	38335
1928.36908	38262.4
1931.47292	38123.8
1934.57473	38061.7
1937.67453	37985.1
1940.77232	37904.5
1943.86808	37783.3
1946.96184	37662.7
1950.05358	37534.5
1953.14331	37387.6
1956.23103	37281.2
1959.31675	37202.1
1962.40046	37101.2
1965.48217	36985.4
1968.56188	36840.1
1971.63959	36728.7
1974.7153	36670.5
1977.78901	36534.7
1980.86073	36448.3
1983.93046	36320.1
1986.99819	36162.2
1990.06394	36101.2
1993.1277	35942.6
1996.18947	35808.8
1999.24925	35747.1
2002.30706	35593
2005.36288	35498.1
2008.41672	35398.9
2011.46859	35282
2014.51848	35126.8
2017.56639	35016.9
2020.61233	34906.5
2023.6563	34843.4
2026.6983	34694.5
2029.73833	34632.8
2032.7764	34581
2035.8125	34476.5
2038.84664	34389.2
2041.87881	34339.3
2044.90903	34327
2047.93729	34153.5
2050.96359	34143.1
2053.98794	34056.9
2057.01034	34073.7
2060.03078	34006.1
2063.04927	33999.1
2066.06582	33969.3
2069.08042	33894.4
2072.09307	33785.5
2075.10378	33770.1
2078.11255	33639.8
2081.11938	33622.2
2084.12426	33640.2
2087.12722	33657.9
2090.12824	33647.5
2093.12732	33690.9
2096.12447	33632.8
2099.11969	33643.5
2102.11299	33642.7
2105.10435	33622.4
2108.09379	33657.4
2111.08131	33617.5
2114.0669	33585.6
2117.05057	33648.4
2120.03233	33725.3
2123.01216	33717.6
2125.99008	33681.6
2128.96609	33764.5
2131.94018	33766.2
2134.91236	33755.4
2137.88263	33791.5
2140.851	33781.2
2143.81746	33750.6
2146.78201	33749
2149.74466	33835.4
2152.7054	33812.1
2155.66425	33786.7
2158.6212	33728.9
2161.57625	33680.1
2164.52941	33641
2167.48067	33613.4
2170.43004	33603
2173.37752	33570.8
2176.32311	33541.1
2179.26681	33529.7
2182.20863	33472.5
2185.14856	33562.7
2188.08661	33501.8
2191.02278	33395.9
2193.95707	33350.6
2196.88948	33395.6
2199.82001	33390.1
2202.74867	33374.3
2205.67545	33333
2208.60037	33248.6
2211.52341	33207.3
2214.44458	33145.5
2217.36388	33051.1
2220.28132	32994.7
2223.1969	32843.6
2226.11061	32848.4
2229.02246	32815
2231.93245	32738.5
2234.84058	32639.9
2237.74686	32553.8
2240.65128	32548.4
2243.55385	32458.3
2246.45456	32423.7
2249.35343	32394
2252.25044	32354.8
2255.14561	32379.6
2258.03893	32352.6
2260.93041	32254.3
2263.82004	32148.3
2266.70783	32130.9
2269.59378	31998.8
2272.4779	31981.8
2275.36017	31912.7
2278.24061	31801.9
2281.11922	31736
2283.996	31684.7
2286.87094	31636.3
2289.74405	31536.6
2292.61534	31494.8
2295.4848	31386.8
2298.35243	31377.6
2301.21824	31356.8
2304.08223	31370.3
2306.94439	31374.1
2309.80474	31349.5
2312.66327	31301.5
2315.51999	31227.4
2318.37489	31297.8
2321.22797	31229.4
2324.07925	31104.1
2326.92871	31017.2
2329.77637	30914.4
2332.62222	30885.8
2335.46626	30865.5
2338.3085	30838.4
2341.14893	30821.4
2343.98756	30846.6
2346.8244	30868.2
2349.65943	30883.7
2352.49267	30784.6
2355.32411	30757.2
2358.15376	30737.4
2360.98161	30757
2363.80768	30721.7
2366.63195	30721.1
2369.45444	30663.4
2372.27514	30644.3
2375.09405	30597.5
2377.91118	30575.4
2380.72652	30514.2
2383.54009	30386.9
2386.35187	30360.8
2389.16188	30233
2391.97011	30155.1
2394.77657	30088.6
2397.58125	30035.2
2400.38416	29961.2
2403.18529	29949.7
2405.98466	29825.3
2408.78226	29744.5
2411.57809	29666.3
2414.37216	29691.1
2417.16446	29795.7
2419.955	29738.9
2422.74378	29755.3
2425.5308	29726.2
2428.31606	29625.2
2431.09956	29614.3
2433.88131	29580.2
2436.6613	29561.9
2439.43954	29567
2442.21603	29545.9
2444.99077	29449
2447.76377	29461.8
2450.53501	29402.9
2453.30451	29421.1
2456.07226	29358.8
2458.83827	29284.9
2461.60254	29284.3
2464.36507	29228.5
2467.12586	29178.8
2469.88492	29184.1
2472.64224	29177.2
2475.39782	29226.9
2478.15167	29216.4
2480.90379	29096.1
2483.65417	29146.6
2486.40283	29151.5
2489.14976	29178.2
2491.89497	29131.3
2494.63845	29146.5
2497.3802	29067.9
2500.12024	29049.8
2502.85855	28940.5
2505.59514	28901.8
2508.33002	28919.9
2511.06318	28842.8
2513.79462	28794.9
2516.52435	28774.3
2519.25237	28713.2
2521.97867	28611.5
2524.70327	28576.6
2527.42616	28552
2530.14734	28567.7
2532.86681	28588.3
2535.58458	28521.9
2538.30065	28505.9
2541.01501	28434.9
2543.72768	28407.3
2546.43864	28346.4
2549.14791	28338.5
2551.85548	28282.8
2554.56136	28261.6
2557.26554	28204
2559.96803	28180.2
2562.66883	28103.6
2565.36794	28052.1
2568.06536	27994.8
2570.7611	27936.8
2573.45514	27856.3
2576.14751	27862.3
2578.83819	27816.7
2581.52719	27800.8
2584.21451	27680.3
2586.90015	27661.2
2589.58411	27649.6
2592.2664	27630.8
2594.94701	27567.2
2597.62594	27499.9
2600.30321	27407.4
2602.9788	27378.2
2605.65273	27363.8
2608.32498	27369.4
2610.99557	27330.2
2613.66449	27313
2616.33175	27306.3
2618.99734	27313.8
2621.66128	27287.5
2624.32355	27265
2626.98416	27185.2
2629.64311	27058.7
2632.30041	27049.5
2634.95605	27042.9
2637.61004	27043.6
2640.26238	26985.1
2642.91306	26975.9
2645.56209	26917.4
2648.20948	26898.2
2650.85521	26843.7
2653.4993	26817
2656.14175	26762.6
2658.78255	26800
2661.42171	26749.5
2664.05923	26837.1
2666.6951	26861.3
2669.32934	26946.3
2671.96194	26904.7
2674.59291	26905.3
2677.22224	26834.1
2679.84993	26884.8
2682.476	26766.9
2685.10043	26799
2687.72324	26766.2
2690.34441	26740.6
2692.96396	26704.5
2695.58188	26712.8
2698.19818	26662.8
2700.81285	26706.2
2703.4259	26706
2706.03733	26691.4
2708.64714	26720.3
2711.25533	26653.1
2713.86191	26623.9
2716.46687	26674.1
2719.07021	26643.9
2721.67194	26701.5
2724.27206	26683.4
2726.87057	26677.1
2729.46747	26635.2
2732.06276	26620.9
2734.65644	26620
2737.24852	26558.2
2739.83899	26527
2742.42786	26628.1
2745.01513	26536.6
2747.60079	26471.6
2750.18486	26333.3
2752.76733	26354.4
2755.3482	26315.8
2757.92747	26338.1
2760.50515	26313.8
2763.08123	26246.7
2765.65573	26221
2768.22863	26212.1
2770.79994	26174
2773.36967	26143.4
2775.9378	26081.1
2778.50435	26033.4
2781.06932	26044.4
2783.6327	26068.6
2786.1945	26009.5
2788.75471	25938.8
2791.31335	25888
2793.87041	25800.5
2796.42589	25706.1
2798.97979	25705.4
2801.53212	25652.3
2804.08288	25631.1
2806.63206	25539.4
2809.17967	25492
2811.72571	25457.1
2814.27018	25417
2816.81308	25396.4
2819.35442	25332.1
2821.89419	25251.8
2824.43239	25265.8
2826.96904	25214.8
2829.50412	25189.6
2832.03763	25093.1
2834.56959	25092.7
2837.1	24978.7
2839.62884	25007.4
2842.15613	24944.6
2844.68186	24955.7
2847.20604	24889.7
2849.72867	24866.6
2852.24974	24784.4
2854.76927	24796.5
2857.28724	24798.9
2859.80367	24796.7
2862.31855	24791.5
2864.83189	24724.9
2867.34368	24691.6
2869.85393	24699.2
2872.36264	24668.1
2874.8698	24589.3
2877.37543	24579.7
2879.87952	24517.2
2882.38207	24520.2
2884.88308	24500
2887.38256	24496.7
2889.88051	24446.4
2892.37692	24435
2894.8718	24413.2
2897.36515	24414
2899.85698	24425.2
2902.34727	24466.3
2904.83604	24477.1
2907.32328	24579.1
2909.809	24530.7
2912.29319	24554.4
2914.77587	24494.6
2917.25702	24518.4
2919.73665	24485.6
2922.21476	24488.2
2924.69136	24418.4
2927.16644	24363.4
2929.64	24336.7
2932.11205	24311.4
2934.58258	24167
2937.05161	24227.8
2939.51912	24234.6
2941.98513	24194.5
2944.44962	24163.1
2946.91261	24083.5
2949.37409	24093.8
2951.83407	24088.2
2954.29254	24062.9
2956.74951	24076.6
2959.20498	24046
2961.65895	23927
2964.11142	23966.9
2966.56239	23936.7
2969.01186	23904.3
2971.45984	23941.6
2973.90632	23916.5
2976.35131	23863.3
2978.7948	23815.1
2981.23681	23768.8
2983.67732	23737.6
2986.11635	23691.4
2988.55388	23652.3
2990.98993	23592.1
2993.4245	23552.2
2995.85758	23525
2998.28917	23504.4
3000.71928	23464.4
3003.14791	23363.3
3005.57506	23347.8
3008.00073	23261
3010.42493	23238.9
3012.84764	23209.4
3015.26888	23181.4
3017.68865	23081.7
3020.10694	23017.1
3022.52376	22993.3
3024.9391	22945.9
3027.35298	22874.7
3029.76539	22839.5
3032.17632	22856.7
3034.5858	22750.6
3036.9938	22744.7
3039.40034	22707.2
3041.80542	22696.4
3044.20903	22658.2
3046.61118	22615.9
3049.01187	22488.6
3051.4111	22513.5
3053.80888	22459.4
3056.20519	22453.3
3058.60005	22362.4
3060.99345	22292.9
3063.3854	22253.8
3065.7759	22218
3068.16494	22179.2
3070.55254	22083.8
3072.93868	22059
3075.32338	21983.1
3077.70662	21926.2
3080.08842	21899.8
3082.46878	21863.2
3084.84769	21828.2
3087.22515	21794.2
3089.60118	21785.2
3091.97576	21798.9
3094.3489	21792.6
3096.72061	21808.1
3099.09087	21731.3
3101.4597	21690.8
3103.82709	21675.1
3106.19305	21641.5
3108.55757	21634.2
3110.92066	21565.5
3113.28232	21583.6
3115.64255	21532.1
3118.00134	21514.9
3120.35871	21497.6
3122.71466	21389.8
3125.06917	21288.6
3127.42226	21266.1
3129.77393	21287
3132.12417	21220.9
3134.47299	21224.8
3136.82039	21202.2
3139.16636	21196.1
3141.51092	21162.9
3143.85406	21154.4
3146.19579	21115.1
3148.53609	21142.7
3150.87499	21162.5
3153.21246	21148.9
3155.54853	21183.2
3157.88318	21122.2
3160.21642	21153.9
3162.54826	21122.3
3164.87868	21111.4
3167.2077	21073.5
3169.5353	21092.9
3171.86151	21059.6
3174.18631	21036.9
3176.5097	21014.8
3178.83169	21032.3
3181.15228	20902.3
3183.47147	20785.4
3185.78926	20775.7
3188.10565	20725.8
3190.42065	20753.7
3192.73424	20754
3195.04645	20693.3
3197.35725	20715.3
3199.66667	20670.1
3201.97469	20657.2
3204.28132	20653.2
3206.58656	20688.8
3208.8904	20668.7
3211.19287	20707.3
3213.49394	20693.7
3215.79363	20645.5
3218.09193	20682.5
3220.38884	20658.8
3222.68438	20651.6
3224.97853	20629.5
3227.2713	20627.1
3229.56269	20592
3231.8527	20614.9
3234.14133	20539.3
3236.42858	20529.3
3238.71446	20485.8
3240.99896	20411
3243.28209	20337.2
3245.56384	20316.8
3247.84423	20290.9
3250.12324	20222.6
3252.40088	20195.6
3254.67715	20165.5
3256.95205	20147.5
3259.22558	20152.6
3261.49775	20153.6
3263.76855	20149.3
3266.03799	20094
3268.30606	20109.2
3270.57277	20056.5
3272.83812	20005.4
3275.10211	19954.7
3277.36474	19918.8
3279.62601	19896.6
3281.88593	19844.9
3284.14448	19872.3
3286.40168	19862.4
3288.65753	19812.5
3290.91202	19823.3
3293.16516	19782.1
3295.41695	19717.3
3297.66738	19577.5
3299.91647	19481.5
3302.16421	19346.6
3304.4106	19294.7
3306.65564	19161.4
3308.89933	19020.3
3311.14169	18887
3313.38269	18754.1
3315.62236	18666.8
3317.86068	18526.8
3320.09766	18368.4
3322.3333	18260.7
3324.5676	18172.6
3326.80056	17932.8
3329.03219	17785.4
3331.26248	4.2
3333.49143	-0.5
3335.71905	-0.4
